ACC_X,ACC_Y,ACC_Z,GYRO_X,GYRO_Y,GYRO_Z,LIGH_1,GRAV_X,GRAV_Y,GRAV_Z,LINACC_X,LINACC_Y,LINACC_Z,ROTVEC_X,ROTVEC_Y,ROTVEC_Z,TIME,VOICE
3.8495789,-0.5764313,9.17482,9.1552734E-5,-1.5258789E-4,-0.0010223389,84.0,3.794191,-0.56774217,9.025085,-0.007357836,-0.0056866407,-0.0101566315,-0.16725032,-0.10889685,-0.73309696,2017-07-17 16:17:34,-Infinity
3.8647766,-0.5769501,9.172928,7.9345703E-4,-5.950928E-4,-8.087158E-4,94.0,3.7955363,-0.5687318,9.024458,-9.510517E-4,-0.014351547,-0.002401352,-0.16736673,-0.108868465,-0.7331405,2017-07-17 16:17:34,-Infinity
3.8764343,-0.578598,9.17392,9.1552734E-5,0.0016479492,1.2207031E-4,93.0,3.806785,-0.5719745,9.019513,0.0018618107,0.00181669,-0.0025043488,-0.1680208,-0.10909549,-0.7333149,2017-07-17 16:17:34,-Infinity
3.8505402,-0.5942383,9.189438,8.8500977E-4,0.0028686523,-0.0010223389,94.0,3.787775,-0.57505554,9.027317,0.004565239,-0.0023346543,-0.015266418,-0.16736978,-0.108269446,-0.7335738,2017-07-17 16:17:35,-Infinity
3.852539,-0.590744,9.181961,-3.0517578E-5,4.272461E-4,1.8310547E-4,127.0,3.7837474,-0.5738368,9.029084,0.006698847,5.0497055E-4,7.543564E-4,-0.16715242,-0.10818927,-0.7335445,2017-07-17 16:17:36,-Infinity
3.8471832,-0.59461975,9.186157,9.1552734E-5,-9.1552734E-5,-6.5612793E-4,125.0,3.784593,-0.5744411,9.028691,-0.0016410351,-0.010082006,-0.0010709763,-0.16721196,-0.10818983,-0.73356104,2017-07-17 16:17:37,-Infinity
3.8461761,-0.5930023,9.191895,9.1552734E-5,4.272461E-4,-3.3569336E-4,121.0,3.7828906,-0.5769774,9.0292425,-6.644726E-4,-0.0042188764,6.4468384E-4,-0.16724032,-0.10806739,-0.7336175,2017-07-17 16:17:38,-Infinity
3.8540344,-0.5721588,9.177704,9.1552734E-5,4.272461E-4,1.8310547E-4,127.0,3.7826252,-0.5770379,9.02935,0.0010225773,-0.0052785277,0.012558937,-0.16723493,-0.10800201,-0.7336418,2017-07-17 16:17:39,-Infinity
3.8571167,-0.5700989,9.183029,9.1552734E-5,4.272461E-4,-5.0354004E-4,128.0,3.7821832,-0.5760449,9.029598,0.008080959,0.011361718,-0.0015163422,-0.1671751,-0.108032845,-0.73361284,2017-07-17 16:17:40,-Infinity
3.824463,-0.588974,9.194855,9.1552734E-5,4.272461E-4,1.8310547E-4,117.0,3.7673776,-0.5771248,9.035717,-0.004609823,-0.007385075,0.009283066,-0.1666375,-0.10753066,-0.7336606,2017-07-17 16:17:41,-Infinity
4.1701355,-0.5072479,9.112442,-0.008834839,-0.2705078,-0.1013031,109.0,3.9351373,-0.51249874,8.967855,-0.18125463,-0.025951743,-0.13517666,-0.1721726,-0.11455667,-0.73774016,2017-07-17 16:17:42,-Infinity
4.1999054,-0.500824,9.043381,9.1552734E-5,0.0016479492,-4.119873E-4,107.0,4.123162,-0.4976567,8.883821,-3.0088425E-4,0.0010137558,0.011927605,-0.17980759,-0.1213279,-0.7379433,2017-07-17 16:17:43,-Infinity
4.1920776,-0.50790405,9.027298,2.89917E-4,4.272461E-4,-7.019043E-4,109.0,4.118362,-0.49447727,8.886224,0.0055861473,0.002123475,-5.207062E-4,-0.17947342,-0.12131766,-0.73786205,2017-07-17 16:17:44,-Infinity
4.1956024,-0.5063629,9.046722,9.1552734E-5,4.272461E-4,1.0681152E-4,109.0,4.120816,-0.49692586,8.88495,-0.0048155785,-0.0025379658,-5.569458E-4,-0.17967726,-0.12128372,-0.7379271,2017-07-17 16:17:45,-Infinity
4.209839,-0.49638367,9.035629,9.1552734E-5,-2.89917E-4,1.8310547E-4,111.0,4.1212893,-0.49798018,8.884671,0.0070581436,-8.019805E-4,0.003914833,-0.17975642,-0.12133541,-0.7379274,2017-07-17 16:17:46,-Infinity
4.1951294,-0.5042267,9.043671,1.9836426E-4,3.0517578E-4,1.8310547E-4,109.0,4.119512,-0.49486548,8.885669,0.008596897,-1.540184E-4,0.0019006729,-0.17955235,-0.12131455,-0.7378834,2017-07-17 16:17:47,-Infinity
4.193512,-0.5124817,9.035187,-4.5776367E-5,1.2207031E-4,-1.5258789E-5,108.0,4.1215515,-0.49727756,8.884588,0.0037751198,-0.0020583868,-0.0027542114,-0.17975236,-0.12128225,-0.7379468,2017-07-17 16:17:48,-Infinity
4.19281,-0.5052185,9.046982,5.187988E-4,1.2207031E-4,1.5258789E-4,109.0,4.1220937,-0.49708515,8.884348,-3.2377243E-4,-0.0023733974,-9.613037E-4,-0.17973867,-0.12131916,-0.7379291,2017-07-17 16:17:49,-Infinity
4.1957245,-0.5051117,9.033005,-4.5776367E-5,-1.0681152E-4,1.5258789E-4,109.0,4.1213384,-0.49613234,8.884751,0.005941868,8.4364414E-4,0.009427071,-0.17966793,-0.12133911,-0.73790336,2017-07-17 16:17:50,-Infinity
4.2020264,-0.4991455,9.046799,-4.5776367E-5,-5.950928E-4,4.119873E-4,108.0,4.1218405,-0.49658802,8.884493,-8.95977E-4,-0.0031047463,0.006011963,-0.17970784,-0.12133432,-0.7379154,2017-07-17 16:17:51,-Infinity
4.1951447,-0.50057983,9.032135,-4.5776367E-5,1.2207031E-4,1.5258789E-4,109.0,4.1200266,-0.49472353,8.885438,-0.0026569366,0.003221631,0.0022497177,-0.17955497,-0.12136203,-0.73786575,2017-07-17 16:17:52,-Infinity
4.1872253,-0.506958,9.042328,-4.5776367E-5,1.2207031E-4,-4.272461E-4,113.0,4.118863,-0.4966832,8.885868,-0.0019750595,0.0053018928,-0.0024442673,-0.17958343,-0.12122949,-0.73792404,2017-07-17 16:17:53,-Infinity
3.8359528,-0.46697998,9.19989,-4.5776367E-5,0.0031738281,0.0012512207,120.0,4.1123433,-0.4923261,8.889131,0.0023889542,0.0060306787,0.0023498535,-0.17912813,-0.12121721,-0.73781276,2017-07-17 16:17:54,-Infinity
3.977066,-0.4752655,9.133682,-4.5776367E-5,1.2207031E-4,1.5258789E-4,133.0,3.8963394,-0.46387786,8.987421,0.0146865845,0.00878641,-0.009643555,-0.16948248,-0.11421354,-0.7414048,2017-07-17 16:17:55,-Infinity
3.959549,-0.46832275,9.11171,-4.5776367E-5,1.2207031E-4,1.5258789E-4,129.0,3.9024684,-0.46538588,8.984684,-0.008231878,0.0024462938,-0.0051107407,-0.16977094,-0.11433429,-0.741436,2017-07-17 16:17:57,-Infinity
3.9678802,-0.4734192,9.142258,-4.5776367E-5,-3.9672852E-4,-7.6293945E-5,131.0,3.9068494,-0.4634183,8.982882,0.012588501,0.006959915,-0.008368492,-0.169913,-0.114586614,-0.7413767,2017-07-17 16:17:58,-Infinity
3.9656525,-0.4724121,9.13031,-9.3078613E-4,4.4250488E-4,1.5258789E-4,127.0,3.906647,-0.46575683,8.982848,0.003581524,0.0025391877,0.0018033981,-0.16999704,-0.11446924,-0.7414449,2017-07-17 16:17:59,-Infinity
3.97995,-0.4656372,9.1436,-1.8310547E-4,-2.746582E-4,1.5258789E-4,117.0,3.9052894,-0.46715403,8.983366,0.0012421608,0.003327161,0.005191803,-0.1699944,-0.114357784,-0.7414874,2017-07-17 16:18:00,-Infinity
3.9768982,-0.47621155,9.142303,9.1552734E-5,-7.6293945E-5,9.1552734E-5,105.0,3.909839,-0.4658571,8.981455,0.005072832,-7.520318E-4,0.0046520233,-0.17013735,-0.11457116,-0.74144334,2017-07-17 16:18:01,-Infinity
3.9694672,-0.47084045,9.144333,3.3569336E-4,-7.6293945E-5,-1.6784668E-4,107.0,3.9096491,-0.46335533,8.981667,1.5497208E-5,6.723106E-4,0.005460739,-0.17003007,-0.11468318,-0.7413709,2017-07-17 16:18:02,-Infinity
3.9806519,-0.46588135,9.141617,9.1552734E-5,-7.6293945E-5,-5.950928E-4,110.0,3.9109812,-0.46311334,8.981099,-5.2404404E-4,-0.0053441525,0.0053958893,-0.17007738,-0.11473916,-0.741362,2017-07-17 16:18:03,-Infinity
3.9845123,-0.4663849,9.132324,1.9836426E-4,-7.6293945E-5,9.1552734E-5,111.0,3.9127674,-0.4602493,8.980468,0.0020337105,0.001524061,-0.006790161,-0.17004013,-0.11493439,-0.74127614,2017-07-17 16:18:04,-Infinity
3.9774323,-0.47080994,9.126343,-6.1035156E-5,-7.6293945E-5,9.1552734E-5,113.0,3.9126682,-0.46425658,8.980305,0.004390478,-0.0025143623,-0.0069856644,-0.1701948,-0.11474146,-0.74139285,2017-07-17 16:18:05,-Infinity
3.9730072,-0.47128296,9.130814,-3.0517578E-5,-7.6293945E-5,9.1552734E-5,107.0,3.9131083,-0.46353796,8.98015,-0.0023419857,-0.004234135,-0.005367279,-0.17019363,-0.114815876,-0.74136364,2017-07-17 16:18:06,-Infinity
3.9726715,-0.47476196,9.129654,9.1552734E-5,-1.0681152E-4,6.1035156E-5,111.0,3.9116795,-0.4631113,8.980795,-0.004430771,-0.0030121803,-0.008310318,-0.17009133,-0.11476682,-0.741355,2017-07-17 16:18:07,-Infinity
3.9739838,-0.46307373,9.139496,9.1552734E-5,-7.6293945E-5,9.1552734E-5,110.0,3.9130864,-0.46332338,8.980171,-0.00473547,-0.0041687787,-0.0125665665,-0.17022038,-0.114805155,-0.7413751,2017-07-17 16:18:08,-Infinity
3.9761963,-0.4705963,9.143677,9.1552734E-5,-7.6293945E-5,9.1552734E-5,112.0,3.9117835,-0.463783,8.980715,-0.0019841194,-1.6391277E-5,0.005162239,-0.17013822,-0.11473429,-0.74138033,2017-07-17 16:18:09,-Infinity
3.9731445,-0.47406006,9.12822,9.1552734E-5,-7.6293945E-5,4.8828125E-4,111.0,3.9137192,-0.46095988,8.980017,-0.004707575,-0.0048241615,-0.0015420914,-0.17010897,-0.1149326,-0.74129546,2017-07-17 16:18:10,-Infinity
3.983017,-0.47579956,9.129105,-6.1035156E-5,-7.9345703E-4,9.1552734E-5,114.0,3.9156055,-0.46511158,8.978981,0.0060095787,0.0013420284,-0.0073051453,-0.17035422,-0.11479915,-0.7414136,2017-07-17 16:18:11,-Infinity
3.9784546,-0.46243286,9.151077,9.1552734E-5,-7.6293945E-5,7.9345703E-4,111.0,3.914282,-0.46526042,8.979549,-4.4441223E-4,0.0028159618,0.005789757,-0.17023689,-0.114756316,-0.74139845,2017-07-17 16:18:12,-Infinity
3.9782867,-0.46383667,9.14476,9.1552734E-5,1.5258789E-4,9.1552734E-5,112.0,3.9092808,-0.46399948,8.981793,-9.822845E-4,0.0024235249,0.006319046,-0.1700941,-0.11460656,-0.74141794,2017-07-17 16:18:13,-Infinity
3.9803772,-0.4711914,9.140869,9.1552734E-5,-7.6293945E-5,9.1552734E-5,108.0,3.910682,-0.46545932,8.981108,-0.001055479,-0.0028580427,0.014759064,-0.17015761,-0.11461816,-0.74143064,2017-07-17 16:18:14,-Infinity
3.9738312,-0.47613525,9.131531,9.1552734E-5,6.1035156E-4,-4.272461E-4,110.0,3.9130242,-0.4660317,8.980058,-1.5211105E-4,-0.0039123893,-0.012840271,-0.17028038,-0.114669345,-0.741444,2017-07-17 16:18:15,-Infinity
3.9903717,-0.48112488,9.152374,9.1552734E-5,-7.6293945E-5,9.1552734E-5,108.0,3.91058,-0.46592358,8.981129,0.008060455,-7.1913004E-5,0.001364708,-0.17017165,-0.114592776,-0.74144423,2017-07-17 16:18:16,-Infinity
3.9857178,-0.46458435,9.130035,-2.89917E-4,-7.6293945E-5,-5.950928E-4,112.0,3.912851,-0.46354878,8.980262,0.0062983036,0.008065581,-0.007987976,-0.17017455,-0.11478107,-0.741372,2017-07-17 16:18:17,-Infinity
3.9734802,-0.4774933,9.140533,9.1552734E-5,-7.6293945E-5,9.1552734E-5,113.0,3.9120946,-0.464036,8.980566,-0.0023925304,-8.21352E-4,0.0060606003,-0.17016155,-0.11473273,-0.74138725,2017-07-17 16:18:18,-Infinity
3.9732513,-0.47250366,9.128082,-8.69751E-4,1.6784668E-4,9.1552734E-5,110.0,3.9108279,-0.4654402,8.981046,0.0021882057,-0.0026845038,-0.0032520294,-0.17016308,-0.114623934,-0.74142987,2017-07-17 16:18:19,-Infinity
3.9768372,-0.47114563,9.134644,-6.1035156E-4,-1.2207031E-4,9.1552734E-5,108.0,3.9119358,-0.46306843,8.980685,0.0030560493,5.272627E-4,0.0017442703,-0.1701164,-0.1147732,-0.74135935,2017-07-17 16:18:20,-Infinity
3.9823456,-0.47413635,9.138611,9.1552734E-5,-7.4768066E-4,7.6293945E-4,109.0,3.9105387,-0.4630234,8.981297,-0.0021092892,0.0045535266,0.0065698624,-0.17005491,-0.11472862,-0.74136,2017-07-17 16:18:21,-Infinity
3.9690552,-0.4739685,9.139526,9.1552734E-5,-7.6293945E-5,9.1552734E-5,110.0,3.910439,-0.46552843,8.98121,-0.006031513,-0.001093775,0.0023822784,-0.17019565,-0.11459934,-0.7414482,2017-07-17 16:18:22,-Infinity
3.9897614,-0.4674225,9.130554,9.1552734E-5,-7.6293945E-5,9.1552734E-5,111.0,3.9100175,-0.46760398,8.981286,-6.74963E-4,-0.001516819,0.010190964,-0.17021422,-0.114494465,-0.7414939,2017-07-17 16:18:23,-Infinity
3.9773865,-0.47323608,9.127396,9.1552734E-5,-1.5258789E-4,-3.5095215E-4,108.0,3.9114728,-0.46195862,8.980945,0.0025656223,0.0031257272,-0.0023374557,-0.1700526,-0.11481023,-0.7413277,2017-07-17 16:18:24,-Infinity
3.979416,-0.46888733,9.13028,9.1552734E-5,-7.6293945E-5,9.1552734E-5,110.0,3.9121015,-0.46187943,8.980675,-0.006795883,6.0772896E-4,-0.006626129,-0.17009194,-0.11484339,-0.7413255,2017-07-17 16:18:25,-Infinity
3.9782715,-0.46824646,9.1362,9.1552734E-5,-7.9345703E-4,9.1552734E-5,107.0,3.9124436,-0.46415272,8.980409,9.562969E-4,0.0075558424,0.0063552856,-0.17018108,-0.11473886,-0.74139017,2017-07-17 16:18:26,-Infinity
3.9705963,-0.4727478,9.147507,6.866455E-4,-7.6293945E-5,-4.8828125E-4,107.0,3.9120183,-0.4612633,8.980742,-1.7595291E-4,0.0021547973,-0.013353348,-0.17004834,-0.11486137,-0.7413067,2017-07-17 16:18:27,-Infinity
3.9796448,-0.46211243,9.154633,9.1552734E-5,-7.6293945E-5,9.1552734E-5,107.0,3.9111826,-0.46350652,8.980991,-0.0053999424,-0.0019434392,-0.012672424,-0.17010158,-0.11472729,-0.7413731,2017-07-17 16:18:28,-Infinity
3.9878235,-0.472229,9.136063,-1.373291E-4,-7.6293945E-5,9.1552734E-5,109.0,3.9117389,-0.4658618,8.980627,0.004981041,-0.0011697412,0.007540703,-0.17015314,-0.114595525,-0.74143815,2017-07-17 16:18:29,-Infinity
3.9702911,-0.47499084,9.16658,9.1552734E-5,3.8146973E-4,9.1552734E-5,111.0,3.9136612,-0.46373466,8.979899,0.0014936924,0.0046930313,-0.01710701,-0.17021653,-0.11479934,-0.7413763,2017-07-17 16:18:30,-Infinity
3.9885864,-0.47009277,9.1345825,6.1035156E-4,-7.6293945E-5,9.1552734E-5,111.0,3.9097476,-0.46619028,8.981477,-0.010473251,0.0013751388,0.015349388,-0.17014666,-0.11455235,-0.7414532,2017-07-17 16:18:31,-Infinity
3.9904175,-0.4721222,9.148712,9.1552734E-5,-6.866455E-4,-5.0354004E-4,111.0,3.913118,-0.4620469,8.980224,-7.355213E-4,-0.0017375946,0.005952835,-0.17012638,-0.11486105,-0.74132794,2017-07-17 16:18:32,-Infinity
3.9753265,-0.47053528,9.120148,-1.0681152E-4,-7.6293945E-5,9.1552734E-5,110.0,3.912887,-0.46123272,8.980366,0.0031273365,-0.005852014,-0.007903099,-0.17008424,-0.11489186,-0.7413046,2017-07-17 16:18:33,-Infinity
3.9792328,-0.47166443,9.143692,9.1552734E-5,-7.9345703E-4,-0.0010375977,108.0,3.9137928,-0.46363208,8.979847,0.00753808,-6.619096E-4,-0.013838768,-0.1702181,-0.114808604,-0.7413731,2017-07-17 16:18:34,-Infinity
3.9888763,-0.47280884,9.140472,5.79834E-4,-7.6293945E-5,-3.8146973E-4,109.0,3.9121122,-0.46029282,8.980751,-0.004337311,6.8998337E-4,-0.0105724335,-0.17001386,-0.114910424,-0.74127835,2017-07-17 16:18:35,-Infinity
3.978592,-0.47207642,9.114471,9.1552734E-5,-7.9345703E-4,-0.0010070801,111.0,3.9118285,-0.46107057,8.980835,-0.0037817955,0.0021435618,0.008506775,-0.17007627,-0.11488975,-0.74130327,2017-07-17 16:18:36,-Infinity
3.9767456,-0.47235107,9.124039,0.001159668,-0.0011291504,-0.0011138916,109.0,3.909879,-0.46443215,8.981511,-0.001142025,-6.1681867E-4,-0.0021839142,-0.17007507,-0.11458619,-0.7414207,2017-07-17 16:18:38,-Infinity
3.9814148,-0.47607422,9.125,7.4768066E-4,-7.324219E-4,9.1552734E-5,109.0,3.912191,-0.4621212,8.980623,7.879734E-4,-1.8700957E-4,-0.006746292,-0.17008974,-0.114826545,-0.7413314,2017-07-17 16:18:39,-Infinity
3.9872894,-0.47105408,9.129974,9.1552734E-5,-7.6293945E-5,6.1035156E-5,110.0,3.9136648,-0.4619149,8.979992,0.008220434,-0.0033946633,-0.003657341,-0.17014451,-0.11488558,-0.74132335,2017-07-17 16:18:40,-Infinity
3.9654388,-0.47616577,9.115295,9.1552734E-5,-3.5095215E-4,-1.6784668E-4,107.0,3.9143674,-0.46306416,8.979627,-0.00433445,-0.005715281,0.010892868,-0.1702201,-0.11485468,-0.7413558,2017-07-17 16:18:41,-Infinity
3.9762115,-0.47373962,9.125961,9.1552734E-5,1.5258789E-5,9.1552734E-5,110.0,3.9138322,-0.4631734,8.979854,0.009325266,-0.0020672977,-0.00182724,-0.17020158,-0.11483163,-0.7413597,2017-07-17 16:18:42,-Infinity
3.9805603,-0.4713745,9.131958,9.1552734E-5,6.1035156E-4,9.1552734E-5,110.0,3.913514,-0.46373653,8.979963,-0.008981228,-0.002855599,-0.008321762,-0.17021032,-0.114794336,-0.7413765,2017-07-17 16:18:43,-Infinity
3.982727,-0.48472595,9.149902,9.1552734E-5,-7.6293945E-5,9.1552734E-5,110.0,3.9129794,-0.46681425,8.980037,-0.0072841644,1.5583634E-4,-0.011069298,-0.17027889,-0.114688404,-0.7414362,2017-07-17 16:18:44,-Infinity
3.9799652,-0.47772217,9.124954,9.1552734E-5,1.373291E-4,9.1552734E-5,107.0,3.912641,-0.46565005,8.980245,0.0014708042,0.007496327,-4.1007996E-4,-0.17024888,-0.1146746,-0.74143344,2017-07-17 16:18:45,-Infinity
3.9879608,-0.47447205,9.128311,-8.69751E-4,-7.6293945E-5,9.1552734E-5,108.0,3.9135382,-0.46875468,8.979692,-0.004974127,0.008905858,-0.005744934,-0.17041029,-0.11455762,-0.74152243,2017-07-17 16:18:46,-Infinity
3.9768524,-0.47627258,9.127869,9.1552734E-5,6.1035156E-4,9.1552734E-5,110.0,3.9137278,-0.46835655,8.97963,7.4005127E-4,6.621182E-4,5.912781E-4,-0.1704026,-0.11458279,-0.74151057,2017-07-17 16:18:47,-Infinity
3.9626007,-0.48350525,9.128265,-2.746582E-4,-7.6293945E-5,9.1552734E-5,108.0,3.9146578,-0.46998832,8.97914,-0.0030047894,-0.0032632947,0.01108551,-0.17050703,-0.1145366,-0.74155676,2017-07-17 16:18:48,-Infinity
3.9771118,-0.47898865,9.110764,9.1552734E-5,9.918213E-4,9.460449E-4,110.0,3.9148362,-0.47157657,8.978979,0.004021406,0.0025523603,0.008828163,-0.1705776,-0.114467345,-0.74160266,2017-07-17 16:18:49,-Infinity
3.972641,-0.48094177,9.143585,9.1552734E-5,-7.9345703E-4,9.1552734E-5,111.0,3.9156713,-0.4702768,8.9786825,7.8368187E-4,0.0015866458,-0.012973785,-0.1705618,-0.11455679,-0.74156374,2017-07-17 16:18:50,-Infinity
3.9733734,-0.47476196,9.114304,9.1552734E-5,-7.6293945E-5,9.1552734E-5,113.0,3.915588,-0.4712585,8.978667,0.011631489,-0.003724426,0.020698547,-0.17059715,-0.11450752,-0.7415924,2017-07-17 16:18:51,-Infinity
3.9768677,-0.48475647,9.118195,-4.272461E-4,-7.6293945E-5,5.0354004E-4,111.0,3.9116242,-0.4705693,8.980432,0.0123028755,0.008230656,1.821518E-4,-0.17045179,-0.11438849,-0.74159914,2017-07-17 16:18:52,-Infinity
3.9794922,-0.47251892,9.145813,9.1552734E-5,-7.6293945E-5,8.087158E-4,110.0,3.914893,-0.46776584,8.979154,-0.0016412735,0.0034219325,1.2874603E-4,-0.17041004,-0.11464685,-0.7414878,2017-07-17 16:18:53,-Infinity
3.9768982,-0.4633484,9.141174,9.1552734E-5,4.8828125E-4,9.1552734E-5,115.0,3.9151125,-0.46789822,8.979051,-0.0025937557,2.2268295E-4,0.013278961,-0.17044362,-0.11465075,-0.7414954,2017-07-17 16:18:54,-Infinity
3.9849548,-0.46806335,9.138779,-6.1035156E-4,1.2207031E-4,9.1552734E-5,112.0,3.9147732,-0.46887812,8.979148,3.6931038E-4,0.008433312,0.004579544,-0.17046796,-0.11459302,-0.7415243,2017-07-17 16:18:55,-Infinity
3.980194,-0.46218872,9.124802,9.1552734E-5,6.1035156E-4,8.087158E-4,112.0,3.9130678,-0.46351826,8.980169,0.002136469,0.0073399544,-0.0046958923,-0.17018259,-0.11478975,-0.7413708,2017-07-17 16:18:56,-Infinity
3.9802246,-0.4607544,9.127045,7.6293945E-5,-7.6293945E-5,9.1552734E-5,111.0,3.909916,-0.4617037,8.981635,0.0047175884,0.008268237,1.7356873E-4,-0.169976,-0.11477024,-0.7413225,2017-07-17 16:18:57,-Infinity
3.9680176,-0.46722412,9.1353,-3.0517578E-5,-7.6293945E-5,4.8828125E-4,111.0,3.9097793,-0.46202606,8.981678,0.004374504,0.0072800815,-4.5967102E-4,-0.16995102,-0.11473063,-0.7413311,2017-07-17 16:18:58,-Infinity
3.9733734,-0.46139526,9.11853,-2.593994E-4,-7.6293945E-5,0.0013275146,110.0,3.9127564,-0.45959795,8.980506,-0.0057783127,0.002925545,-0.007326126,-0.17001382,-0.11496484,-0.7412572,2017-07-17 16:18:59,-Infinity
3.9716797,-0.4643097,9.13118,-7.171631E-4,-7.6293945E-5,-4.4250488E-4,110.0,3.9097643,-0.45943442,8.981818,4.3988228E-4,0.0034931004,0.0018692017,-0.16987953,-0.1148725,-0.7412567,2017-07-17 16:19:00,-Infinity
3.9730835,-0.46640015,9.14502,2.746582E-4,-7.6293945E-5,-1.373291E-4,108.0,3.9087443,-0.45630413,8.982421,-0.0044014454,-0.004907608,-0.002565384,-0.16971183,-0.11498642,-0.74116707,2017-07-17 16:19:01,-Infinity
3.9829254,-0.4623108,9.136993,4.272461E-4,3.8146973E-4,-3.8146973E-4,109.0,3.907003,-0.45796508,8.983094,0.0053510666,0.0064341426,0.007504463,-0.16970335,-0.11484962,-0.7412179,2017-07-17 16:19:02,-Infinity
3.9730225,-0.46447754,9.111969,4.8828125E-4,0.0,3.5095215E-4,104.0,3.9086368,-0.45714617,8.982426,0.0017619133,2.9277802E-4,-0.009200096,-0.16974853,-0.11496341,-0.74118596,2017-07-17 16:19:03,-Infinity
3.9718323,-0.46676636,9.146973,4.8828125E-4,-7.6293945E-5,-4.4250488E-4,108.0,3.9084015,-0.45667693,8.982552,-0.007762432,-0.006578356,-0.008852959,-0.16971196,-0.11495732,-0.74117845,2017-07-17 16:19:04,-Infinity
3.962967,-0.46951294,9.12323,-2.1362305E-4,6.1035156E-5,-4.4250488E-4,109.0,3.9094539,-0.4540584,8.982226,0.0051910877,6.5115094E-4,-0.0020780563,-0.16965301,-0.11511634,-0.74110067,2017-07-17 16:19:05,-Infinity
3.9871826,-0.47001648,9.13324,4.8828125E-4,-7.6293945E-5,7.6293945E-5,108.0,3.9108202,-0.45599854,8.981533,0.0044014454,-0.004541576,-0.007965088,-0.16978833,-0.11507033,-0.7411552,2017-07-17 16:19:06,-Infinity
3.9740143,-0.4662323,9.119263,4.8828125E-4,-7.6293945E-5,-4.4250488E-4,111.0,3.9102192,-0.45510632,8.98184,0.0028779507,-0.0034852922,-0.0044403076,-0.16972727,-0.115092404,-0.74113005,2017-07-17 16:19:07,-Infinity
3.9720154,-0.46429443,9.133789,4.4250488E-4,-7.6293945E-5,-4.4250488E-4,109.0,3.9091516,-0.4578598,8.982165,-0.002761364,-0.0043343604,-7.343292E-5,-0.16979091,-0.11492647,-0.7412118,2017-07-17 16:19:08,-Infinity
3.964447,-0.4647522,9.130157,4.8828125E-4,4.4250488E-4,-4.4250488E-4,110.0,3.9076025,-0.45652756,8.982906,-0.0067145824,-9.201467E-4,0.007502556,-0.16970833,-0.11493394,-0.74118656,2017-07-17 16:19:09,-Infinity
3.9680023,-0.46609497,9.129852,3.3569336E-4,-7.6293945E-5,-2.89917E-4,110.0,3.9091785,-0.45689356,8.982203,-0.0051500797,-0.0068089366,-0.007042885,-0.1697802,-0.114971645,-0.7411913,2017-07-17 16:19:10,-Infinity
3.9724731,-0.46568298,9.1414795,4.8828125E-4,-7.6293945E-5,-4.4250488E-4,107.0,3.9098718,-0.45193517,8.982151,-0.0034074783,-9.304583E-4,-0.005539894,-0.16958661,-0.115230724,-0.74103826,2017-07-17 16:19:11,-Infinity
3.9739838,-0.4631195,9.131607,4.8828125E-4,-7.6293945E-5,-4.4250488E-4,107.0,3.9084606,-0.45539948,8.982591,-0.0038394928,-0.0027127266,-0.0013570786,-0.16968457,-0.115050316,-0.7411349,2017-07-17 16:19:12,-Infinity
3.9761353,-0.46713257,9.138977,4.8828125E-4,-7.9345703E-4,-4.4250488E-4,106.0,3.9099822,-0.45610458,8.981893,-9.851456E-4,-0.002058655,-0.0038385391,-0.16974305,-0.115027316,-0.7411597,2017-07-17 16:19:13,-Infinity
3.9851837,-0.4568634,9.13353,4.8828125E-4,-7.6293945E-5,-4.4250488E-4,113.0,3.905724,-0.45670292,8.983715,-0.0059239864,-9.5528364E-4,-0.0045194626,-0.16959868,-0.1148665,-0.74118304,2017-07-17 16:19:14,-Infinity
3.973343,-0.46887207,9.132416,4.8828125E-4,-7.6293945E-5,7.9345703E-4,114.0,3.9079583,-0.455288,8.982815,4.1937828E-4,-0.0091148615,0.0023612976,-0.16964397,-0.1150265,-0.74113315,2017-07-17 16:19:15,-Infinity
3.9822845,-0.45333862,9.145874,4.8828125E-4,-7.6293945E-5,-4.4250488E-4,112.0,3.9097407,-0.45339277,8.982135,-0.0034434795,-0.006716758,-0.002960205,-0.16967312,-0.115119375,-0.74110496,2017-07-17 16:19:16,-Infinity
3.9709167,-0.46200562,9.141876,-3.0517578E-5,-7.6293945E-5,7.6293945E-5,116.0,3.9099817,-0.45430064,8.981984,-0.0059013367,-0.002806127,-0.00333786,-0.16968517,-0.11512256,-0.741107,2017-07-17 16:19:17,-Infinity
3.9757538,-0.47000122,9.134964,4.8828125E-4,3.6621094E-4,-4.4250488E-4,113.0,3.90665,-0.4550998,8.983394,-6.890297E-5,-0.0068080723,0.0026760101,-0.16957463,-0.11497327,-0.74113506,2017-07-17 16:19:19,-Infinity
3.9760132,-0.46336365,9.14064,-3.0517578E-5,-7.6293945E-5,7.6293945E-5,114.0,3.9053264,-0.4573983,8.983852,-0.001111269,-0.0011442602,-0.0016832352,-0.16961882,-0.114808895,-0.7412109,2017-07-17 16:19:20,-Infinity
3.9799652,-0.4623413,9.126862,2.89917E-4,-7.6293945E-5,9.1552734E-5,115.0,3.9065444,-0.45632327,8.983377,0.0015177727,-0.004186541,0.0068044662,-0.16961865,-0.1149119,-0.7411708,2017-07-17 16:19:21,-Infinity
3.9715729,-0.45706177,9.125046,4.8828125E-4,-7.6293945E-5,-6.1035156E-5,116.0,3.9083455,-0.45252174,8.982786,4.913807E-4,-0.004053116,2.3174286E-4,-0.16954096,-0.11516443,-0.7410517,2017-07-17 16:19:22,-Infinity
3.978012,-0.45924377,9.147766,4.8828125E-4,-7.6293945E-5,-4.4250488E-4,118.0,3.9067578,-0.45297548,8.983454,-0.0017187595,0.0018797517,-0.002817154,-0.16949497,-0.115077294,-0.7410731,2017-07-17 16:19:23,-Infinity
3.9678497,-0.4664154,9.149567,4.8828125E-4,6.1035156E-4,-4.4250488E-4,116.0,3.9030633,-0.45405298,8.985005,5.3858757E-4,-0.0017616153,-0.0071907043,-0.16941528,-0.11496597,-0.7410948,2017-07-17 16:19:24,-Infinity
3.9803162,-0.47062683,9.136063,4.8828125E-4,-7.6293945E-5,-4.4250488E-4,120.0,3.904833,-0.4551285,8.984181,0.0040180683,-0.00475803,5.8174133E-5,-0.16954193,-0.11491749,-0.7411479,2017-07-17 16:19:25,-Infinity
3.9761658,-0.4490204,9.143295,4.8828125E-4,0.0010375977,2.746582E-4,119.0,3.905864,-0.45296544,8.983843,-0.006866932,0.0034883022,0.0022935867,-0.1695085,-0.11500241,-0.74110585,2017-07-17 16:19:26,-Infinity
3.9747467,-0.46875,9.143295,4.8828125E-4,-4.272461E-4,-4.4250488E-4,119.0,3.9093804,-0.45223805,8.98235,-0.004953623,-0.002954036,-0.017176628,-0.16956577,-0.11523489,-0.741031,2017-07-17 16:19:27,-Infinity
3.9697266,-0.45835876,9.141312,4.8828125E-4,-7.6293945E-5,-4.4250488E-4,121.0,3.9087732,-0.45156193,8.982649,-0.00605011,2.3964047E-4,0.0025577545,-0.1695249,-0.115211576,-0.74102896,2017-07-17 16:19:28,-Infinity
3.967804,-0.4624939,9.130249,1.8310547E-4,-2.89917E-4,-4.4250488E-4,120.0,3.910404,-0.45163,8.9819355,0.0041487217,-0.0063027143,-0.0068445206,-0.16959721,-0.115262955,-0.74102855,2017-07-17 16:19:29,-Infinity
3.9818268,-0.4573059,9.141449,4.8828125E-4,-7.6293945E-5,-4.4250488E-4,116.0,3.9099305,-0.454567,8.981993,0.0026903152,2.2086501E-4,1.4305115E-5,-0.16969356,-0.11510825,-0.7411148,2017-07-17 16:19:30,-Infinity
3.9741516,-0.4630432,9.126389,4.8828125E-4,-7.9345703E-4,-4.119873E-4,125.0,3.9092648,-0.4529243,8.982366,-0.0015044212,-7.4735284E-4,-0.013181686,-0.16959995,-0.11516364,-0.74106795,2017-07-17 16:19:31,-Infinity
3.9754333,-0.46450806,9.133957,-4.119873E-4,-3.0517578E-4,-4.4250488E-4,125.0,3.9119809,-0.4547504,8.981091,0.0051629543,-0.0048685074,-0.00863266,-0.16978838,-0.1151682,-0.7411172,2017-07-17 16:19:32,-Infinity
3.9741058,-0.46244812,9.14122,4.8828125E-4,-7.6293945E-5,2.2888184E-4,125.0,3.9098823,-0.45435604,8.982025,-0.0048708916,0.0032470822,0.0047044754,-0.16968311,-0.1151166,-0.7411087,2017-07-17 16:19:33,-Infinity
3.9655762,-0.46572876,9.123688,-3.0517578E-5,7.9345703E-4,2.746582E-4,125.0,3.9094102,-0.453238,8.982286,-8.819103E-4,0.0063904226,0.0058994293,-0.1696186,-0.11515367,-0.7410769,2017-07-17 16:19:34,-Infinity
3.9793854,-0.4588318,9.133728,9.1552734E-5,-7.6293945E-5,-4.4250488E-4,126.0,3.9092054,-0.45429543,8.982323,-0.007517576,-0.005469203,0.0031385422,-0.1696518,-0.11509682,-0.74110794,2017-07-17 16:19:35,-Infinity
3.9693909,-0.473114,9.143646,4.272461E-4,-5.340576E-4,-4.4250488E-4,130.0,3.9066362,-0.45481116,8.983414,-0.0057423115,-0.0047822297,-0.0063323975,-0.16956261,-0.11498646,-0.7411267,2017-07-17 16:19:36,-Infinity
3.9683685,-0.46568298,9.137634,4.8828125E-4,-7.6293945E-5,2.746582E-4,125.0,3.9069333,-0.45209217,8.983422,-0.0023145676,-0.0017088056,-6.8092346E-4,-0.16946316,-0.1151177,-0.74104875,2017-07-17 16:19:37,-Infinity
3.9748688,-0.45910645,9.129578,4.8828125E-4,-3.9672852E-4,4.7302246E-4,127.0,3.9099445,-0.45078725,8.982178,0.0038256645,0.004236996,0.010380745,-0.16954437,-0.115260504,-0.7410152,2017-07-17 16:19:38,-Infinity
3.9721375,-0.47200012,9.130722,4.8828125E-4,-7.6293945E-5,-4.4250488E-4,125.0,3.9075963,-0.45142782,8.983167,0.006138563,-0.002282977,0.010925293,-0.16946936,-0.11517852,-0.7410268,2017-07-17 16:19:39,-Infinity
3.967804,-0.46632385,9.1427765,4.8828125E-4,6.1035156E-4,-4.4250488E-4,128.0,3.9046085,-0.45338002,8.984368,0.006926775,-8.8500977E-4,-0.0087099075,-0.16941927,-0.11498622,-0.74108803,2017-07-17 16:19:40,-Infinity
3.9730377,-0.46421814,9.135086,-2.1362305E-4,9.0026855E-4,-2.1362305E-4,128.0,3.903792,-0.45223638,8.98478,0.0036196709,-0.0013293028,0.0029621124,-0.16933908,-0.11501293,-0.74105597,2017-07-17 16:19:41,-Infinity
3.9768982,-0.4593506,9.151688,4.8828125E-4,-7.6293945E-5,-1.5258789E-4,126.0,3.9033105,-0.45360997,8.9849205,-0.004908085,-0.0060236156,0.017105103,-0.16938733,-0.11489959,-0.741113,2017-07-17 16:19:42,-Infinity
3.979721,-0.4534912,9.14093,0.0010223389,-7.6293945E-5,-4.4250488E-4,126.0,3.9034212,-0.45093384,8.985007,-0.007439375,-0.0045812726,0.006716728,-0.16927157,-0.11506205,-0.7410186,2017-07-17 16:19:43,-Infinity
3.958908,-0.46037292,9.160675,-1.2207031E-4,-7.6293945E-5,-4.4250488E-4,129.0,3.9060197,-0.45351666,8.9837475,4.105568E-4,-0.002377808,-0.02004528,-0.16948494,-0.11502701,-0.74108994,2017-07-17 16:19:44,-Infinity
3.9692535,-0.4656067,9.1319275,2.89917E-4,-7.6293945E-5,-4.4250488E-4,133.0,3.9051976,-0.45090514,8.984237,0.004078388,0.0018093288,0.012588501,-0.16934624,-0.11512289,-0.74101514,2017-07-17 16:19:45,-Infinity
3.9743195,-0.45892334,9.149994,4.8828125E-4,-7.6293945E-5,-4.4250488E-4,126.0,3.908409,-0.45023537,8.982873,-0.0051555634,-0.0021294355,-0.013245583,-0.16945672,-0.1152621,-0.7409909,2017-07-17 16:19:46,-Infinity
3.9784546,-0.46133423,9.131485,4.8828125E-4,-7.6293945E-5,-4.119873E-4,131.0,3.9047353,-0.4512172,8.984422,-0.002989769,-0.0047537982,0.004712105,-0.1692967,-0.11507307,-0.7410211,2017-07-17 16:19:47,-Infinity
3.9675598,-0.4584961,9.117096,4.8828125E-4,-7.6293945E-5,-0.0011291504,128.0,3.9026763,-0.45266792,8.985243,0.0016825199,0.0049466193,-0.01222229,-0.1693086,-0.114955194,-0.74107015,2017-07-17 16:19:48,-Infinity
3.9819946,-0.46028137,9.135605,-2.1362305E-4,-7.9345703E-4,2.746582E-4,130.0,3.9066448,-0.45342016,8.98348,3.2424927E-4,-0.0016228557,0.005616188,-0.16950779,-0.11505249,-0.7410862,2017-07-17 16:19:49,-Infinity
3.9725342,-0.45959473,9.148727,4.8828125E-4,-6.5612793E-4,-4.4250488E-4,130.0,3.9083445,-0.4522378,8.9828005,-0.007290125,-0.007844627,-0.0060663223,-0.16953343,-0.115165286,-0.7410493,2017-07-17 16:19:50,-Infinity
3.9819794,-0.45498657,9.151398,4.8828125E-4,-7.6293945E-5,-4.4250488E-4,131.0,3.9065063,-0.4538422,8.98352,-0.0064325333,-7.329285E-4,-0.0082092285,-0.16951862,-0.115027905,-0.7410987,2017-07-17 16:19:51,-Infinity
3.9688873,-0.46697998,9.140381,2.4414063E-4,-7.6293945E-5,-4.4250488E-4,132.0,3.90542,-0.45317367,8.984026,-0.002719164,-2.0813942E-4,-0.0027675629,-0.16944574,-0.11502314,-0.7410808,2017-07-17 16:19:52,-Infinity
3.9787903,-0.45939636,9.152878,4.8828125E-4,-7.6293945E-5,-4.4250488E-4,131.0,3.9049687,-0.45118517,8.984322,-0.0061473846,-0.0033213496,-0.011064529,-0.16935052,-0.115106314,-0.7410227,2017-07-17 16:19:53,-Infinity
3.9638824,-0.47529602,9.14946,4.8828125E-4,-7.6293945E-5,-4.4250488E-4,130.0,3.9061391,-0.45239615,8.983752,0.0015830994,-0.004993856,-0.016023636,-0.16944557,-0.11508396,-0.74105716,2017-07-17 16:19:54,-Infinity
3.9854736,-0.45866394,9.1592865,4.8828125E-4,-7.6293945E-5,-4.4250488E-4,127.0,3.9044197,-0.45159885,8.98454,0.0021378994,-0.0015398562,-7.0762634E-4,-0.16934407,-0.11502533,-0.74105245,2017-07-17 16:19:55,-Infinity
3.973297,-0.45309448,9.1440735,4.8828125E-4,4.4250488E-4,-4.4250488E-4,131.0,3.906362,-0.45239994,8.983655,-0.0045495033,-0.0075603127,-2.117157E-4,-0.16945525,-0.11509125,-0.7410569,2017-07-17 16:19:56,-Infinity
3.964157,-0.4680786,9.1549835,4.8828125E-4,-7.6293945E-5,-4.4250488E-4,131.0,3.9046142,-0.45535037,8.984265,-0.0013391972,-0.010886371,-6.933212E-4,-0.16947049,-0.11486938,-0.7411473,2017-07-17 16:19:57,-Infinity
3.97081,-0.46328735,9.125809,4.8828125E-4,-7.6293945E-5,-4.4250488E-4,131.0,3.9060156,-0.45345053,8.983752,0.007452011,-0.0047089458,7.724762E-4,-0.16948214,-0.11503,-0.74108803,2017-07-17 16:19:58,-Infinity
3.9752502,-0.46879578,9.146942,4.8828125E-4,-7.6293945E-5,-4.4250488E-4,129.0,3.9031165,-0.4548471,8.984942,9.572506E-4,0.0037252307,-0.00889492,-0.16941379,-0.11486695,-0.74113286,2017-07-17 16:19:59,-Infinity
3.9882813,-0.4638672,9.154633,1.373291E-4,4.5776367E-5,-1.5258789E-5,130.0,3.9034643,-0.45564315,8.984751,-0.008223534,-1.7645955E-4,0.008462906,-0.1694602,-0.11484098,-0.7411555,2017-07-17 16:20:00,-Infinity
3.9748535,-0.46170044,9.139816,8.544922E-4,4.5776367E-5,-1.5258789E-5,129.0,3.905229,-0.45252913,8.984141,-0.005018711,-0.0013890564,-0.0022678375,-0.16941202,-0.11504721,-0.74106234,2017-07-17 16:20:01,-Infinity
3.9705505,-0.47070313,9.138947,1.373291E-4,4.5776367E-5,-1.5258789E-5,130.0,3.903847,-0.453122,8.984712,0.0024847984,5.341768E-4,0.0023012161,-0.16937655,-0.11497293,-0.7410816,2017-07-17 16:20:02,-Infinity
3.9689026,-0.46568298,9.153793,1.373291E-4,0.0,-1.5258789E-5,132.0,3.9024408,-0.45728365,8.985112,0.0027770996,-0.008434296,-0.005112648,-0.16945699,-0.114698485,-0.7412099,2017-07-17 16:20:04,-Infinity
3.978531,-0.46209717,9.137085,-2.593994E-4,-3.6621094E-4,-1.5258789E-5,129.0,3.9026792,-0.45544666,8.985102,3.7002563E-4,0.009640008,0.016300201,-0.16941892,-0.11482399,-0.7411509,2017-07-17 16:20:05,-Infinity
3.9653168,-0.4717865,9.148544,1.373291E-4,-1.373291E-4,-1.5258789E-5,129.0,3.904205,-0.452419,8.9845915,0.011308193,1.6954541E-4,0.0031442642,-0.1693583,-0.11502568,-0.7410562,2017-07-17 16:20:06,-Infinity
3.9738617,-0.46884155,9.156113,7.019043E-4,0.0018310547,-5.79834E-4,131.0,3.8989477,-0.4519835,8.9868965,-0.0021483898,-0.006364703,-0.0043497086,-0.16912237,-0.11486268,-0.74105567,2017-07-17 16:20:07,-Infinity
3.963913,-0.47045898,9.146713,4.4250488E-4,4.5776367E-5,-1.5258789E-5,138.0,3.901901,-0.45247108,8.98559,-0.005512953,-0.0013145506,-0.0074501038,-0.1692677,-0.114938535,-0.74106556,2017-07-17 16:20:08,-Infinity
3.988327,-0.45874023,9.153366,1.373291E-4,4.5776367E-5,-2.593994E-4,129.0,3.9117458,-0.4557888,8.981141,0.0015175343,-0.002407521,-0.009936333,-0.16981953,-0.11511122,-0.74114776,2017-07-17 16:20:09,-Infinity
3.980545,-0.45851135,9.128616,1.373291E-4,4.5776367E-5,-1.5258789E-5,128.0,3.9103174,-0.45644113,8.9817295,-0.0016872883,6.279349E-5,0.005378723,-0.16981016,-0.11502293,-0.7411795,2017-07-17 16:20:10,-Infinity
3.983139,-0.45632935,9.162323,1.373291E-4,-3.5095215E-4,7.019043E-4,139.0,3.9148264,-0.45489198,8.979844,-0.0028681755,0.0039007068,0.007939339,-0.16984469,-0.11526823,-0.7410935,2017-07-17 16:20:11,-Infinity
3.940094,-0.469162,9.072922,-8.087158E-4,-5.340576E-4,9.1552734E-4,138.0,3.9240732,-0.44936585,8.976086,-0.032072067,-0.017909259,-0.016094208,-0.17009102,-0.11582774,-0.74094224,2017-07-17 16:20:12,-Infinity
3.9628906,-0.461792,9.090668,-3.9672852E-4,0.0014038086,-1.5258789E-5,136.0,3.9165463,-0.45118204,8.979281,0.001844883,-0.0037316084,0.006088257,-0.16985969,-0.11557198,-0.7409793,2017-07-17 16:20:13,-Infinity
3.9864502,-0.45591736,9.123322,1.373291E-4,4.5776367E-5,-1.5258789E-5,133.0,3.9185061,-0.4515655,8.978407,-1.0609627E-4,0.0038847625,0.0037078857,-0.16993226,-0.115546495,-0.7410089,2017-07-17 16:20:14,-Infinity
3.9757843,-0.47039795,9.061493,1.373291E-4,4.5776367E-5,-1.5258789E-5,129.0,3.9206438,-0.45116773,8.977493,0.004594803,-6.015003E-4,-0.004514694,-0.17001611,-0.11562765,-0.741,2017-07-17 16:20:15,-Infinity
3.9994507,-0.45793152,9.145218,1.373291E-4,4.5776367E-5,-1.5258789E-5,130.0,3.9216163,-0.45169786,8.977042,-0.0018520355,-0.005171627,0.0045280457,-0.17007871,-0.11563511,-0.741014,2017-07-17 16:20:16,-Infinity
3.9895325,-0.46170044,9.128799,7.6293945E-5,3.3569336E-4,3.2043457E-4,129.0,3.9224823,-0.44921625,8.9767885,0.0011088848,-2.0059943E-4,-0.003317833,-0.17001711,-0.115781546,-0.7409403,2017-07-17 16:20:17,-Infinity
3.9886017,-0.4570923,9.1474,7.6293945E-5,-4.5776367E-5,3.2043457E-4,133.0,3.9190493,-0.4421111,8.978641,-0.0020718575,-0.013297081,-0.0030412674,-0.16959542,-0.11595126,-0.74075985,2017-07-17 16:20:18,-Infinity
3.9960938,-0.46543884,9.143539,-6.2561035E-4,3.3569336E-4,3.2043457E-4,133.0,3.9166896,-0.4486975,8.979343,0.009806395,-0.006694436,0.004265785,-0.16974913,-0.115612105,-0.7409337,2017-07-17 16:20:19,-Infinity
3.989853,-0.45411682,9.142319,-6.2561035E-4,7.6293945E-5,8.544922E-4,135.0,3.916483,-0.45206964,8.979264,-0.004419327,-0.007194698,-0.0016555786,-0.1698742,-0.11544567,-0.7410324,2017-07-17 16:20:20,-Infinity
4.074112,-0.3815918,9.129852,0.08268738,-0.21435547,-0.01676941,131.0,3.9153,-0.45283675,8.979741,-0.003018856,-7.491708E-4,-0.011787415,-0.16985415,-0.11536979,-0.74105656,2017-07-17 16:20:21,-Infinity
4.1924744,-0.3759308,9.051987,0.0036315918,-0.008255005,-0.0012207031,141.0,4.1298275,-0.37289214,8.886837,-0.0021386147,0.001470685,-0.004190445,-0.1754207,-0.12586342,-0.7390781,2017-07-17 16:20:22,-Infinity
4.2377014,-0.35472107,9.112732,4.272461E-4,-1.5258789E-5,-1.5258789E-5,140.0,4.160973,-0.34485778,8.87343,0.0061941147,0.012819231,0.006087303,-0.1763512,-0.12837923,-0.73886126,2017-07-17 16:20:23,-Infinity
4.2691193,-0.34288025,9.003967,7.6293945E-5,3.3569336E-4,3.2043457E-4,140.0,4.2313576,-0.3223346,8.840933,-0.034100533,-0.005831659,0.0070762634,-0.17870387,-0.13154006,-0.73909867,2017-07-17 16:20:24,-Infinity
4.2843475,-0.3287201,9.0242,7.6293945E-5,3.3569336E-4,2.593994E-4,143.0,4.2091208,-0.3259127,8.851411,-0.0012435913,0.0012190938,0.0064172745,-0.17788136,-0.13062112,-0.7392419,2017-07-17 16:20:25,-Infinity
4.280136,-0.33647156,9.000183,0.0,3.3569336E-4,3.9672852E-4,132.0,4.2047014,-0.3309629,8.853324,0.0028104782,-1.1858344E-4,-0.011507988,-0.17785431,-0.1302307,-0.7393888,2017-07-17 16:20:26,-Infinity
4.272949,-0.3345337,9.0217285,7.6293945E-5,0.0015563965,-5.79834E-4,142.0,4.192922,-0.32552832,8.85911,-0.00578928,-0.0057643354,-0.015712738,-0.1771643,-0.13009201,-0.73926914,2017-07-17 16:20:27,-Infinity
4.262619,-0.32640076,9.004364,2.2888184E-4,-3.8146973E-4,-7.324219E-4,148.0,4.190203,-0.32074368,8.86057,0.0064640045,-4.5147538E-4,0.0039081573,-0.1768536,-0.13022846,-0.739137,2017-07-17 16:20:28,-Infinity
4.2842865,-0.33154297,9.038605,7.6293945E-5,3.3569336E-4,3.2043457E-4,149.0,4.190576,-0.3222784,8.860338,0.00868082,0.0028678179,0.010819435,-0.17693166,-0.13016783,-0.73918056,2017-07-17 16:20:29,-Infinity
4.345566,-0.3190918,9.183792,-8.392334E-4,9.1552734E-5,4.4250488E-4,149.0,4.1973853,-0.32578093,8.856986,0.030753136,0.0059324205,0.08031845,-0.17736772,-0.13023081,-0.73926586,2017-07-17 16:20:30,-Infinity
4.26828,-0.32385254,9.016754,4.5776367E-5,1.5258789E-4,6.713867E-4,145.0,4.1944036,-0.32534903,8.858415,-0.004843712,0.0017846227,0.012768745,-0.17722121,-0.13015066,-0.73926044,2017-07-17 16:20:31,-Infinity
4.268158,-0.33958435,9.004944,7.4768066E-4,-3.0517578E-4,6.713867E-4,157.0,4.1940994,-0.32429323,8.858598,-0.0050201416,-0.005243212,-0.0045022964,-0.17716542,-0.13019077,-0.7392306,2017-07-17 16:20:32,-Infinity
4.258423,-0.33042908,9.020065,4.5776367E-5,2.89917E-4,6.713867E-4,158.0,4.1937003,-0.3239908,8.858798,-0.0029315948,-0.008329779,0.0032548904,-0.17713594,-0.13019173,-0.73922276,2017-07-17 16:20:33,-Infinity
4.260971,-0.32876587,9.008621,0.0011444092,-0.0010223389,-1.6784668E-4,158.0,4.1927156,-0.3200148,8.859408,-0.005056858,0.0040940046,0.006362915,-0.17693287,-0.13034822,-0.7391098,2017-07-17 16:20:34,-Infinity
4.25589,-0.3152771,9.0186615,1.373291E-4,-3.0517578E-4,-1.5258789E-5,159.0,4.1915154,-0.32181224,8.859911,-0.013041973,-0.008727729,0.007516861,-0.17699374,-0.13021976,-0.7391758,2017-07-17 16:20:35,-Infinity
4.2681427,-0.32017517,9.008743,5.340576E-4,2.1362305E-4,1.373291E-4,157.0,4.192239,-0.32269412,8.859536,-0.0033335686,0.0065111816,-0.004722595,-0.17702039,-0.13020422,-0.7391887,2017-07-17 16:20:36,-Infinity
4.258499,-0.32574463,9.030975,6.1035156E-5,2.1362305E-4,1.373291E-4,157.0,4.191242,-0.31965852,8.860118,0.0012435913,-0.0033077896,-0.003443718,-0.17685474,-0.13031538,-0.739103,2017-07-17 16:20:37,-Infinity
4.261841,-0.32174683,9.032089,5.187988E-4,2.1362305E-4,1.373291E-4,157.0,4.1911736,-0.31980512,8.860146,-0.0027074814,-0.009735495,-0.010100365,-0.17691311,-0.1303414,-0.73910755,2017-07-17 16:20:38,-Infinity
3.7932892,-0.16970825,9.196701,0.0039520264,0.04624939,-0.0730896,128.0,3.7259676,-0.22377221,9.068488,0.40696025,-0.18193328,-0.15141392,-0.15530758,-0.1162555,-0.74869245,2017-07-17 16:20:39,-Infinity
3.6932983,-0.20657349,9.234131,-4.5776367E-5,-6.2561035E-4,-2.593994E-4,153.0,3.6445858,-0.19910903,9.102074,-0.0049700737,-0.013787523,-0.018255234,-0.15155092,-0.11382328,-0.7517662,2017-07-17 16:20:40,-Infinity
3.6782227,-0.2073822,9.244598,-0.009490967,0.016723633,-0.0032806396,153.0,3.6224456,-0.20574664,9.11076,0.0033864975,0.0012481958,0.0017557144,-0.1508505,-0.11280363,-0.7518983,2017-07-17 16:20:41,-Infinity
3.6697388,-0.22320557,9.22287,-1.6784668E-4,4.5776367E-4,1.373291E-4,153.0,3.6191282,-0.21163012,9.111943,-0.0033824444,9.6713006E-4,8.1062317E-4,-0.15096606,-0.11238077,-0.7522344,2017-07-17 16:20:42,-Infinity