ACC_X,ACC_Y,ACC_Z,GYRO_X,GYRO_Y,GYRO_Z,LIGH_1,GRAV_X,GRAV_Y,GRAV_Z,LINACC_X,LINACC_Y,LINACC_Z,ROTVEC_X,ROTVEC_Y,ROTVEC_Z,TIME,VOICE
2.765,0.578,9.238,0.10368347,-0.15542603,0.03237915,136.0,2.6912231,0.38110352,9.42244,0.060073853,0.31350708,-0.09249878,-0.128479,-0.055480957,-0.9550781,2017-01-19 15:15:27,0.9741865388045088
2.912,0.608,9.208,-0.0030975342,-0.0059814453,0.020690918,134.0,2.9185028,0.61320496,9.342194,0.06434631,-0.027526855,-0.1893158,-0.13693237,-0.07019043,-0.95318604,2017-01-19 15:15:28,9.523771123036383
2.932,0.627,9.198,0.0036773682,0.015060425,-0.024215698,132.0,2.9679565,0.6739197,9.322403,-0.094055176,-0.020141602,-0.046951294,-0.13943481,-0.07241821,-0.9554596,2017-01-19 15:15:29,3.9929506275700373
2.844,0.647,9.248,0.0046691895,0.0019683838,0.030670166,134.0,2.8585358,0.6139984,9.360657,-0.011871338,0.053390503,-0.13969421,-0.13397217,-0.06916809,-0.9540405,2017-01-19 15:15:31,3.9049697809334627
2.844,0.676,9.257,0.017425537,0.008590698,0.060272217,134.0,2.9013367,0.6511383,9.344971,-0.0546875,0.0026245117,-0.08312988,-0.13516235,-0.0725708,-0.95181274,2017-01-19 15:15:32,3.3566158517332934
-0.137,-1.863,9.787,-0.33688354,0.6648102,0.3870697,182.0,1.7426453,0.51008606,9.63707,-1.7835083,-2.9345093,0.23765564,-0.07789612,-0.050750732,-0.95329285,2017-01-19 15:15:33,3.8450182052289907
1.059,-0.127,9.444,0.19491577,-0.117492676,-0.0337677,185.0,0.9450531,-0.34664917,9.754837,0.049224854,0.19682312,-0.029907227,-0.051361084,0.001373291,-0.9464874,2017-01-19 15:15:34,11.240843639137347
1.255,0.863,9.659,0.20959473,0.0770874,-0.031707764,177.0,0.6179962,-0.13858032,9.786163,0.1855774,0.9694214,0.0068511963,-0.032165527,-0.002960205,-0.9510498,2017-01-19 15:15:35,26.48050153044396
2.765,1.382,9.355,-0.1237793,0.04849243,0.020095825,147.0,2.8969574,1.1755676,9.294937,-0.104782104,-0.16766357,-0.019485474,-0.1298523,-0.09605408,-0.9558258,2017-01-19 15:15:36,3.6791619311006594
2.392,1.019,9.306,-0.0047302246,0.037643433,0.038619995,150.0,2.455185,1.0989532,9.430511,-0.071624756,-0.050186157,-0.05970764,-0.10733032,-0.08747864,-0.9562988,2017-01-19 15:15:37,11.93222460182773
2.294,1.098,9.248,0.0066375732,5.187988E-4,-0.03276062,150.0,2.3227997,1.1703644,9.455429,0.0062713623,0.014587402,-0.13911438,-0.09907532,-0.0899353,-0.9549866,2017-01-19 15:15:38,5.204758563705979
2.245,1.353,9.395,0.01663208,-0.0019378662,0.009994507,152.0,2.196289,1.1961517,9.482391,0.010192871,0.12501526,-0.084350586,-0.09190369,-0.089904785,-0.95425415,2017-01-19 15:15:39,32.0958530210565
2.392,1.372,9.365,0.013702393,-0.0013580322,-0.03213501,147.0,2.3647308,1.3728943,9.417725,0.046051025,0.002746582,-0.10139465,-0.09817505,-0.10093689,-0.9532776,2017-01-19 15:15:40,22.1664647264571
2.451,1.48,9.287,-0.013671875,0.0014343262,-0.019500732,145.0,2.4467773,1.4415741,9.386444,-0.008743286,-0.106781006,-0.11099243,-0.10321045,-0.103759766,-0.957077,2017-01-19 15:15:41,4.2242888328340955
2.451,1.451,9.326,-0.0019226074,6.1035156E-4,-0.025543213,145.0,2.4424438,1.4764099,9.382156,0.00920105,-0.046279907,-0.12031555,-0.101745605,-0.10624695,-0.9550171,2017-01-19 15:15:42,3.8116445519929125
2.422,1.52,9.375,-6.1035156E-5,0.0017242432,0.012496948,147.0,2.432022,1.4854736,9.383438,-0.021224976,-0.08258057,-0.039871216,-0.10131836,-0.1063385,-0.9555664,2017-01-19 15:15:43,10.558768291321945
2.334,1.471,9.404,0.009246826,0.0320282,0.0129852295,147.0,2.3831482,1.5004883,9.393585,-0.013214111,-0.02947998,-0.03640747,-0.09854126,-0.10652161,-0.95555115,2017-01-19 15:15:44,3.6645943876506792
2.373,1.451,9.385,-0.00642395,-0.008026123,-0.043762207,149.0,2.3584595,1.52565,9.395752,0.011459351,-1.6784668E-4,-0.13392639,-0.09603882,-0.10826111,-0.95336914,2017-01-19 15:15:45,41.967138257417965
2.412,1.618,9.346,-0.0036773682,0.013305664,-0.006729126,152.0,2.3633118,1.4898834,9.400284,-0.0069885254,-0.01889038,-0.02947998,-0.096954346,-0.10638428,-0.9539337,2017-01-19 15:15:46,42.99129175331934
2.334,1.49,9.316,0.022766113,0.00541687,0.030456543,152.0,2.3495178,1.5070496,9.401001,-0.0068206787,0.018417358,-0.057434082,-0.09605408,-0.10700989,-0.95402527,2017-01-19 15:15:47,7.522660809872659
2.275,1.549,9.395,0.011764526,0.0015106201,-0.010940552,152.0,2.3532867,1.5458984,9.393753,-0.037826538,0.061294556,0.01789856,-0.096572876,-0.10827637,-0.95584106,2017-01-19 15:15:48,8.108203671370118
1.186,1.735,10.12,-0.15487671,0.24453735,0.3429718,157.0,1.65448,1.6263885,9.528259,-0.19711304,-0.10092163,-0.44348145,-0.048538208,-0.108795166,-0.92414856,2017-01-19 15:15:49,14.090030341606285
0.99,1.441,9.385,-0.030349731,0.093948364,-0.0022277832,160.0,1.1907043,1.3592682,9.638718,-0.31900024,-0.3105011,0.29049683,-0.02810669,-0.088150024,-0.91293335,2017-01-19 15:15:50,14.43262987458695
0.912,1.235,9.65,0.030761719,-0.009506226,0.02619934,160.0,0.8701477,1.1197205,9.7035675,-0.012054443,0.06523132,-0.18295288,-0.018127441,-0.07017517,-0.9155731,2017-01-19 15:15:52,18.28627803508383
0.627,1.068,9.65,-8.544922E-4,-0.003753662,-0.07095337,168.0,0.69499207,0.8485565,9.745117,-0.013977051,0.023132324,-0.33345032,-0.015655518,-0.053771973,-0.9184723,2017-01-19 15:15:53,32.027008550376195
1.863,1.225,9.051,-0.1131897,-0.051345825,-0.18013,159.0,1.3865967,1.4960327,9.592163,0.26145935,-0.44726563,-0.24859619,-0.040283203,-0.09649658,-0.933548,2017-01-19 15:15:54,8.544780266999929
2.54,1.284,9.404,-0.3223877,-0.0052337646,-0.031082153,152.0,1.8566742,0.6968689,9.604034,-0.14051819,0.2837677,-0.24684143,-0.07926941,-0.06359863,-0.9452362,2017-01-19 15:15:55,3.90065316710127
3.442,0.745,8.894,-0.10253906,-0.04650879,-0.111465454,134.0,3.595169,0.107437134,9.123245,-0.053878784,0.1921997,0.47909546,-0.1768341,-0.059753418,-0.939682,2017-01-19 15:15:56,37.20585915771365
2.932,1.755,8.747,-0.06436157,0.025756836,-0.16241455,131.0,2.8677826,1.5831757,9.243347,-0.0892334,0.010391235,-0.09048462,-0.14016724,-0.09524536,-0.98132324,2017-01-19 15:15:57,36.287476835118404
1.088,-0.353,10.532,-0.002746582,0.13581848,-0.24349976,162.0,2.533722,0.011123657,9.473663,-1.3351288,0.3974762,0.6190033,-0.128479,-0.021606445,-0.9784546,2017-01-19 15:15:58,4.34447265585966
-2.569,2.412,9.032,-0.08332825,0.044830322,-0.022598267,167.0,-1.070221,1.3193817,9.658371,-1.0545502,0.7781372,-0.57359314,-0.04727173,0.07296753,0.99053955,2017-01-19 15:15:59,43.79564230944122
-0.813,1.098,9.689,-0.062286377,-0.22920227,-0.07797241,164.0,-0.87538147,1.0101929,9.715118,0.08540344,0.024932861,-0.044662476,-0.03878784,0.05621338,0.9916229,2017-01-19 15:16:00,42.46490009438609
-0.902,1.794,9.385,0.0079956055,0.05558777,0.002822876,147.0,-1.3921356,2.1909485,9.456848,0.19354248,-0.40667725,0.13186646,-0.05670166,0.120895386,0.9830017,2017-01-19 15:16:01,6.134660434941191
-1.049,2.01,9.414,-0.011749268,0.0021362305,0.013473511,142.0,-1.0814209,2.0787659,9.522583,0.073516846,-0.049331665,-0.0836792,-0.04135132,0.11300659,0.9844971,2017-01-19 15:16:02,5.443103285863521
-0.97,2.128,9.463,0.014633179,0.037857056,0.042007446,137.0,-0.9904175,2.2328796,9.497559,-0.017471313,0.04170227,-0.12675476,-0.03517151,0.12049866,0.9832611,2017-01-19 15:16:03,25.049279234969234
-1.059,1.922,9.669,-0.0103302,-0.014678955,-0.017227173,137.0,-0.99035645,2.0226288,9.54454,0.03692627,0.020401001,-0.09202576,-0.03742981,0.10935974,0.98547363,2017-01-19 15:16:04,4.893184030601949
-0.863,2.226,9.424,0.019332886,-0.009490967,0.012161255,129.0,-0.90805054,2.2113342,9.5108185,0.009109497,-0.004837036,-0.07191467,-0.03086853,0.11886597,0.98332214,2017-01-19 15:16:05,4.912385460101633
-0.833,2.245,9.365,-0.012680054,0.014968872,0.04496765,124.0,-0.86268616,2.2025604,9.517075,-0.14520264,0.003921509,-0.050933838,-0.028778076,0.11804199,0.98365784,2017-01-19 15:16:06,6.933782442405432
-1.422,2.932,9.022,-0.16775513,-0.12609863,0.07633972,136.0,-0.66574097,1.6965942,9.635803,0.22988892,-0.103012085,-0.006210327,-0.026397705,0.08950806,0.9918518,2017-01-19 15:16:07,4.781097322633862
-1.412,3.834,8.963,0.3058014,-0.057418823,-0.0064697266,111.0,-1.5773621,3.8269653,8.890244,0.25619507,-0.040496826,-0.09150696,-0.06971741,0.20458984,0.9744415,2017-01-19 15:16:08,5.317781896958137
-0.843,3.177,9.14,-0.11956787,0.026657104,0.012298584,103.0,-0.7306061,3.2592316,9.220291,0.008728027,-0.14016724,-0.08103943,-0.022247314,0.17146301,0.9808197,2017-01-19 15:16:09,5.493673217482456
-2.039,3.971,8.698,-0.0075683594,0.17063904,0.049743652,109.0,-1.794342,3.932663,8.802536,-0.12611389,0.0036010742,-0.15361023,-0.0814209,0.21109009,0.9723053,2017-01-19 15:16:11,4.42406269871217
-2.108,3.873,8.571,-0.0027770996,0.031967163,0.041275024,114.0,-2.103714,3.9893188,8.708038,-0.089141846,-0.012176514,-0.05911255,-0.10166931,0.2137146,0.9707489,2017-01-19 15:16:12,38.876627585454095
-2.304,4.148,8.296,-0.009918213,-0.009292603,-0.019897461,119.0,-2.214508,3.8968658,8.722412,0.0625,-0.19212341,-0.08711243,-0.107284546,0.209198,0.97106934,2017-01-19 15:16:13,11.531595951301783
-2.873,2.873,9.395,-0.09753418,0.062561035,-0.034820557,131.0,-2.479721,3.390152,8.861603,-0.462265,-0.33918762,-0.15820313,-0.1181488,0.1849823,0.97366333,2017-01-19 15:16:14,4.560485718103874
-2.353,2.579,8.679,0.08856201,-0.17318726,0.03465271,124.0,-1.9498444,2.6499786,9.238281,0.50608826,0.11494446,0.023529053,-0.092926025,0.1426239,0.9838104,2017-01-19 15:16:15,4.152342638584515
-0.323,4.06,8.718,0.06965637,0.034301758,0.037399292,78.0,-0.50045776,3.8335266,9.012421,0.11907959,0.17085266,-0.22731018,-0.021514893,0.20007324,0.97927856,2017-01-19 15:16:16,3.9844864954443207
-0.078,4.246,8.63,0.023971558,-0.0038757324,0.048690796,72.0,-0.11039734,4.2669983,8.8289795,0.055908203,-0.07192993,-0.19367981,4.5776367E-5,0.22325134,0.974411,2017-01-19 15:16:17,43.3811334963804
-0.009,4.334,8.639,-0.046966553,0.045074463,0.013381958,72.0,0.030639648,4.421707,8.753159,-0.030639648,-0.10406494,-0.09062195,0.007171631,0.23164368,0.9724884,2017-01-19 15:16:18,37.15875396811991
-0.588,3.932,8.747,-0.1253357,0.22720337,0.043441772,88.0,-0.27134705,4.251404,8.833008,-0.5050049,-0.28788757,-0.06150818,-0.0051574707,0.22273254,0.97406006,2017-01-19 15:16:19,6.4990124474087
-1.137,2.932,9.071,-0.043670654,0.02998352,0.017242432,121.0,-1.405426,3.1173859,9.191132,0.15235901,-0.107284546,-0.051879883,-0.06636047,0.1642456,0.9834137,2017-01-19 15:16:20,4.564935457037237
-1.049,3.118,9.081,0.01727295,0.017822266,0.007369995,114.0,-1.0438385,3.1163788,9.239517,-0.032165527,-0.03817749,-0.16836548,-0.044311523,0.16415405,0.98368835,2017-01-19 15:16:21,24.038390791232587
1.775,2.922,7.237,-0.7869568,-0.50239563,0.41157532,167.0,1.3525848,1.7512817,9.553726,2.7198944,-0.6344147,-1.5858307,0.077301025,0.08317566,0.98939514,2017-01-19 15:16:22,44.29800412102669
0.99,1.863,9.669,0.12113953,0.14274597,-0.011154175,152.0,1.0107574,1.7726288,9.591995,-0.23440552,-0.26075745,0.4189453,0.06463623,0.08224487,0.9836426,2017-01-19 15:16:23,37.95486055761132
2.118,2.353,8.983,0.009994507,-0.21182251,-0.083114624,145.0,1.590744,2.1213837,9.441376,0.30245972,0.22129822,0.26992798,0.09899902,0.09391785,0.97662354,2017-01-19 15:16:24,14.45876220974993
1.029,1.745,9.689,-0.13877869,0.042373657,-0.00390625,149.0,1.3458405,2.2134247,9.458313,-0.37879944,-0.44277954,0.49813843,0.087524414,0.100479126,0.9767456,2017-01-19 15:16:25,7.797739917864927
2.314,2.441,8.708,0.10218811,-0.2479248,-0.08961487,144.0,1.7640991,2.3958893,9.344406,0.22445679,0.055770874,-0.04170227,0.11199951,0.10498047,0.9716339,2017-01-19 15:16:26,13.866051992013599
0.823,2.314,9.248,0.0317688,-0.17660522,-0.01361084,147.0,0.55477905,2.256424,9.527374,0.24880981,0.19522095,-0.1293335,0.047607422,0.10940552,0.9786377,2017-01-19 15:16:27,22.92105657345391
0.019,2.824,9.189,0.83465576,0.036315918,-0.26242065,144.0,0.39318848,2.5918884,9.449753,0.056274414,0.5952606,-0.20152283,0.044296265,0.12741089,0.9741211,2017-01-19 15:16:28,13.51239014629467
1.833,3.069,9.404,0.057662964,-0.20970154,-0.0667572,136.0,2.379425,3.3207092,8.915237,-0.22740173,-0.17440796,-0.7157898,0.15097046,0.15049744,0.96369934,2017-01-19 15:16:30,5.398672238703676
0.755,2.824,9.287,0.013458252,0.10681152,0.008453369,137.0,0.9985504,2.7654114,9.355515,-0.085998535,-4.8828125E-4,-0.14814758,0.07397461,0.13238525,0.9753113,2017-01-19 15:16:31,18.974874864708042
-0.431,2.059,9.395,-0.14454651,0.18766785,-0.03363037,150.0,-0.023895264,2.1053772,9.577942,-0.4664154,-0.035079956,-0.05732727,0.015808105,0.10681152,0.9817047,2017-01-19 15:16:32,4.244285851399457
-0.46,2.186,9.483,-0.016708374,-1.8310547E-4,0.020080566,147.0,-0.45954895,2.1622314,9.55426,0.050949097,-0.023834229,-0.020019531,-0.00680542,0.113220215,0.98246765,2017-01-19 15:16:33,23.116907563298188
2.098,3.138,9.159,0.31521606,-0.7054291,0.0664978,136.0,0.66755676,2.7619934,9.385941,1.4572144,0.45239258,-1.0094299,0.05455017,0.13591003,0.97888184,2017-01-19 15:16:34,38.494000972065024
0.107,2.893,8.904,-0.0050354004,0.04145813,-0.0062561035,134.0,0.12773132,2.7631226,9.408463,0.14466858,-0.10714722,0.34368896,0.026763916,0.13993835,0.9797058,2017-01-19 15:16:35,39.19594337913472
0.49,2.137,9.64,-0.28700256,0.3416748,-0.012939453,149.0,0.4460144,2.0638428,9.57663,0.18051147,0.006439209,-0.5735779,0.040618896,0.100372314,0.97950745,2017-01-19 15:16:36,38.185368434229936
0.676,1.873,9.552,-0.019134521,-0.02645874,-0.0057373047,150.0,0.37496948,1.8752136,9.618378,0.18345642,0.03163147,-0.0024108887,0.037231445,0.09060669,0.9767914,2017-01-19 15:16:37,28.548217923094256
-1.971,2.03,9.826,-0.056365967,0.64772034,0.4669342,150.0,-1.4157257,2.1427307,9.464386,-1.0631714,-0.08605957,-0.88357544,-0.060333252,0.117507935,0.9852905,2017-01-19 15:16:38,39.71170214769725
-1.039,3.314,9.091,0.055343628,-0.0670166,0.007003784,108.0,-0.93673706,3.1496277,9.239731,-0.08476257,0.11923218,-0.08685303,-0.037124634,0.16590881,0.98309326,2017-01-19 15:16:39,45.78359376919427
-0.696,3.314,8.924,0.018081665,-0.053085327,-0.053344727,104.0,-0.94654846,3.269287,9.197067,0.1429596,-0.12298584,0.023895264,-0.03715515,0.17233276,0.98194885,2017-01-19 15:16:40,47.35203727131925
0.029,1.755,9.885,0.008377075,-0.103012085,-0.09233093,141.0,-0.08743286,1.7017365,9.657471,0.1146698,0.055267334,0.13554382,0.0057373047,0.087020874,0.9893341,2017-01-19 15:16:41,42.1827934482804
2.667,3.049,8.894,-0.114852905,-0.0074920654,0.29556274,136.0,1.2319946,2.8750153,9.294449,-1.0140839,-0.49145508,-0.631897,0.086013794,0.13679504,0.9747772,2017-01-19 15:16:42,20.92855258288121
0.402,2.392,9.453,-0.21322632,0.30166626,0.13313293,142.0,0.39453125,2.2501678,9.536835,-0.5443573,-0.27522278,-0.20689392,0.035888672,0.11164856,0.9837189,2017-01-19 15:16:43,37.652317069150655
1.814,2.814,9.091,0.056488037,-0.16572571,-0.0061187744,118.0,1.385376,2.5862427,9.357468,-0.077819824,0.42382813,-0.09562683,0.08943176,0.12207031,0.97872925,2017-01-19 15:16:44,36.93741973005547
0.725,2.392,9.61,0.028579712,-0.0024108887,-0.019424438,127.0,1.0370026,2.1791992,9.505051,-0.3423767,0.16348267,-0.038909912,0.06967163,0.10256958,0.98075867,2017-01-19 15:16:45,16.832687184938575
0.882,2.285,9.395,0.008804321,-0.007461548,0.005355835,127.0,0.8448639,2.2559967,9.506149,-0.014022827,0.059448242,-0.06724548,0.05960083,0.10847473,0.9820099,2017-01-19 15:16:46,14.294194818409167
0.205,3.167,9.051,0.0390625,-0.07688904,-0.095825195,126.0,1.0307007,2.524063,9.420029,0.1678772,-0.072402954,0.08695984,0.07156372,0.120773315,0.9793854,2017-01-19 15:16:47,6.933352809440841
0.529,2.598,9.336,-0.038009644,-0.07925415,-0.11129761,134.0,0.4615631,2.7953644,9.388458,-0.02571106,-0.16664124,-0.46713257,0.045425415,0.13876343,0.9777527,2017-01-19 15:16:48,5.5157626125920505
1.029,2.402,9.091,0.122558594,-0.21376038,-0.121673584,134.0,0.8660431,2.2219543,9.512268,0.25080872,0.22970581,-0.34576416,0.061828613,0.10575867,0.9801941,2017-01-19 15:16:50,16.300771178595596
1.186,2.51,8.689,-0.035980225,0.01991272,0.056427002,136.0,0.92567444,2.493805,9.43898,-0.12207031,-0.12387085,0.1361084,0.067489624,0.11911011,0.9779053,2017-01-19 15:16:51,34.607023973797865
0.382,2.294,9.463,-0.083724976,-0.026229858,-0.024276733,141.0,0.3106537,2.4167786,9.4991,0.09794617,-0.1149292,-0.07382202,0.034606934,0.12033081,0.9806366,2017-01-19 15:16:52,18.70259270316958
0.049,3.01,9.463,0.109802246,-0.087768555,-0.03842163,134.0,0.37451172,2.520279,9.469849,-0.2791748,0.32635498,-0.31698608,0.03942871,0.12495422,0.97898865,2017-01-19 15:16:53,43.64083052729
0.961,2.794,9.463,0.052474976,-0.102264404,0.043670654,132.0,0.3427124,2.758789,9.404358,0.24295044,0.04699707,-0.27871704,0.039398193,0.13768005,0.97779846,2017-01-19 15:16:54,45.81047757068581
0.755,2.255,9.885,-0.11953735,-0.07722473,-0.11303711,139.0,0.7030945,2.4526062,9.468933,0.086868286,-0.17800903,-0.15260315,0.05618286,0.11857605,0.9781494,2017-01-19 15:16:55,3.434239809491371
0.5,2.961,9.11,0.048294067,-0.2866516,-0.051071167,131.0,0.29629517,2.8728485,9.371719,0.43919373,0.0010375977,-0.3822937,0.03868103,0.14379883,0.97621155,2017-01-19 15:16:56,7.96659689963719
-0.784,3.265,9.689,0.12892151,0.17048645,0.023452759,141.0,-0.57873535,2.9478912,9.335159,-0.075027466,0.33459473,-0.45469666,-0.0071868896,0.15487671,0.9771881,2017-01-19 15:16:57,9.308386376698724
1.745,2.177,9.297,-0.13778687,-0.37786865,-0.021026611,137.0,0.9324646,2.3337708,9.479141,0.8517914,-0.19537354,-0.4352417,0.06585693,0.11116028,0.9797516,2017-01-19 15:16:58,12.610536654626724
0.853,2.432,9.434,-0.0566864,0.035461426,-0.0050964355,134.0,0.9671936,2.5348053,9.423874,-1.5258789E-4,-0.055892944,-0.84306335,0.06956482,0.12112427,0.97802734,2017-01-19 15:16:59,16.9586714284119
0.666,2.186,9.375,-0.03326416,-0.031417847,0.060409546,137.0,0.6860199,2.1950073,9.533188,-0.19567871,0.011474609,0.4232788,0.052841187,0.10559082,0.98013306,2017-01-19 15:17:00,3.9538783003296563
0.813,2.294,9.473,0.07388306,-0.02810669,-0.014160156,134.0,0.8140564,2.3327332,9.490311,-0.11941528,0.1053009,0.07116699,0.060775757,0.11151123,0.97869873,2017-01-19 15:17:01,24.119623154560735
0.578,2.177,9.11,0.011306763,0.09472656,-0.0058288574,139.0,0.75982666,2.1374207,9.540665,-0.25585938,-0.08074951,0.45664978,0.05583191,0.10218811,0.9807434,2017-01-19 15:17:02,16.333994079995026
0.313,2.206,9.502,-0.074905396,-0.01713562,0.0020446777,139.0,0.50097656,2.4311829,9.487289,-0.29666138,-0.19744873,0.5100403,0.045196533,0.11932373,0.9793091,2017-01-19 15:17:03,21.57963227524006
0.441,2.275,9.601,-0.001663208,-0.003967285,-0.08857727,132.0,0.45417786,2.254013,9.533279,-0.031936646,0.006958008,-0.48936462,0.041671753,0.110443115,0.9799957,2017-01-19 15:17:04,20.910346165803677
0.686,2.186,8.649,0.007858276,-0.07624817,0.020233154,127.0,0.4970703,2.3190918,9.515518,-0.1020813,0.09169006,1.0947266,0.04411316,0.11355591,0.9799652,2017-01-19 15:17:05,26.318760923248195
0.745,2.186,9.973,0.075531006,-0.013214111,-0.024093628,124.0,0.61372375,2.2425385,9.527039,0.13539124,0.0048065186,-0.6057129,0.04949951,0.10864258,0.9800873,2017-01-19 15:17:06,15.830802711696066
0.921,2.324,9.444,-0.042434692,0.013381958,-0.0390625,123.0,0.81311035,2.310135,9.495911,0.05857849,-0.02192688,0.051940918,0.06159973,0.10975647,0.9772186,2017-01-19 15:17:07,23.241155910014207
1.078,2.53,9.326,0.06661987,-0.122909546,-9.918213E-4,111.0,1.0852966,2.4924011,9.422333,0.058807373,0.04096985,-0.17411804,0.076293945,0.11735535,0.9765625,2017-01-19 15:17:09,16.014392787459503
0.755,2.157,9.493,-0.03427124,0.034973145,0.01576233,113.0,0.7525177,2.2002258,9.526962,-0.017028809,-0.07545471,-0.060821533,0.05630493,0.1053009,0.97991943,2017-01-19 15:17:10,26.150068340488378
0.902,2.755,9.65,0.23652649,-0.32525635,-0.23451233,103.0,1.1392365,2.4781952,9.419708,0.1274414,0.24586487,-0.49838257,0.0790863,0.11605835,0.9762726,2017-01-19 15:17:11,24.94376790109719
0.5,2.922,8.904,-0.12960815,0.0010223389,-0.025283813,101.0,0.29066467,3.4675903,9.168503,0.18603516,-0.348526,-0.39700317,0.044921875,0.17468262,0.96972656,2017-01-19 15:17:12,24.401670142919542
2.294,3.805,7.404,0.123535156,-0.13026428,0.083999634,101.0,1.3083649,3.2707825,9.152069,-0.30046082,0.1479187,1.4581604,0.08862305,0.15974426,0.9753723,2017-01-19 15:17:13,37.40687055403144
0.058,2.255,9.669,-0.2638092,-0.2315216,-0.007080078,108.0,-0.2909851,2.5096588,9.475616,0.37271118,-0.3712616,-0.07757568,0.0020141602,0.12989807,0.98301697,2017-01-19 15:17:14,26.39563329123503
-0.764,2.657,8.767,0.041427612,0.1949768,0.1790924,106.0,-0.5786896,2.511322,9.46196,0.17007446,-0.31843567,0.017791748,-0.015396118,0.13166809,0.9851837,2017-01-19 15:17:15,38.729823414598485
-0.853,2.863,9.208,0.025482178,0.083724976,0.06593323,108.0,-0.8986664,2.831833,9.345764,-0.10922241,0.20549011,-0.30184937,-0.030899048,0.15013123,0.98280334,2017-01-19 15:17:16,25.116353456084887
-1.206,3.177,9.228,0.18580627,0.21020508,0.011672974,103.0,-1.4462128,3.6170807,8.999741,0.28848267,-0.2801056,-0.16012573,-0.054367065,0.19540405,0.97340393,2017-01-19 15:17:17,22.108925126924632
-0.568,2.54,9.346,-0.010467529,-0.013595581,0.03440857,98.0,-0.62542725,2.5242004,9.455551,-0.08282471,0.15899658,-0.19371033,-0.016357422,0.13278198,0.98384094,2017-01-19 15:17:18,18.380123469874725
-0.608,2.657,9.228,0.002105713,-0.052947998,-0.048858643,93.0,-0.5595703,2.5550385,9.451401,0.1509552,-0.103378296,-0.053359985,-0.012588501,0.13398743,0.98353577,2017-01-19 15:17:19,20.010801506910155
-0.588,2.569,9.12,-0.00680542,-0.034103394,-0.041122437,88.0,-0.60621643,2.6161804,9.431778,0.088638306,-0.1917572,-0.033737183,-0.013046265,0.13761902,0.9816284,2017-01-19 15:17:20,14.041719929894906
-0.764,2.373,9.453,0.045303345,0.013977051,-0.03805542,86.0,-0.48435974,2.264267,9.529358,-0.1013031,0.16014099,-0.2675171,-0.008621216,0.11857605,0.98342896,2017-01-19 15:17:21,19.64273905300842
-0.98,2.334,9.453,-0.10360718,-0.014633179,0.08609009,83.0,-1.1513214,2.622879,9.378983,0.08892822,-0.23931885,0.11439514,-0.039230347,0.14234924,0.97869873,2017-01-19 15:17:22,15.52741865815673
-0.568,2.334,9.404,-0.039749146,-0.07041931,0.015457153,80.0,-0.5929718,2.2265472,9.5321045,0.12988281,-0.088150024,0.01574707,-0.014434814,0.11741638,0.98353577,2017-01-19 15:17:23,18.330387340259467
-0.804,2.824,9.346,0.0385437,0.079559326,-0.014892578,83.0,-0.51841736,2.8416595,9.371582,0.05532837,-0.022247314,-0.2868042,-0.005126953,0.14883423,0.97831726,2017-01-19 15:17:24,9.105535394814472
-0.598,2.235,9.444,-0.15983582,-0.030166626,0.09100342,82.0,-0.77049255,2.4245605,9.4709015,-0.14205933,0.02708435,-0.16821289,-0.02029419,0.12924194,0.97998047,2017-01-19 15:17:25,40.639370383131286
-0.558,2.49,9.414,0.02999878,-0.030212402,-0.043945313,78.0,-0.6425781,2.571228,9.441727,0.016036987,-0.065078735,-0.13902283,-0.016738892,0.13536072,0.9833069,2017-01-19 15:17:26,34.81810109915327
-0.657,2.324,9.404,-0.016281128,-0.01687622,0.03388977,78.0,-0.6706085,2.4490356,9.472214,0.08493042,-0.1199646,-0.07417297,-0.019500732,0.12910461,0.98461914,2017-01-19 15:17:27,19.201345407439
-0.304,2.412,9.404,-0.02293396,-0.015258789,-0.027404785,73.0,-0.26338196,2.543274,9.467453,-0.036239624,-0.023513794,-0.08302307,0.0042419434,0.13142395,0.9822235,2017-01-19 15:17:29,4.732873403290822
-0.402,2.363,9.463,4.272461E-4,0.029876709,0.028457642,73.0,-0.3697815,2.4147491,9.497498,-0.0388031,0.0096588135,-0.09945679,-0.0027313232,0.12550354,0.98368835,2017-01-19 15:17:30,32.57812115635283
-0.411,1.441,10.022,-0.2379303,-0.0743866,-0.019042969,80.0,-0.3431244,1.8149414,9.631119,0.08433533,-0.044296265,-0.36927795,-0.0050964355,0.094451904,0.9867401,2017-01-19 15:17:31,30.17214366346512
-0.764,1.529,9.336,0.073349,-0.026855469,-0.05117798,78.0,-0.98657227,1.0716858,9.697861,0.1557312,0.33119202,-0.041030884,-0.039154053,0.06333923,0.9792175,2017-01-19 15:17:32,24.518104131354438
-0.97,1.618,9.61,-0.10812378,-0.0491333,0.013900757,78.0,-0.96865845,1.7443695,9.601517,-0.052856445,-0.123550415,0.10977173,-0.03366089,0.09655762,0.9801483,2017-01-19 15:17:33,25.7337763791978
-0.735,2.128,9.395,0.013839722,-0.010559082,0.014907837,72.0,-0.80859375,2.1618805,9.531143,0.03224182,-0.050720215,0.030334473,-0.022979736,0.116256714,0.9798279,2017-01-19 15:17:34,24.55070252490708
-0.833,2.54,9.444,-0.007675171,0.01260376,-0.043167114,68.0,-0.7333832,2.5401154,9.443527,-0.029342651,-0.006729126,-0.05911255,-0.015945435,0.13511658,0.97746277,2017-01-19 15:17:35,31.49964435114667
-0.755,2.451,9.395,-0.018508911,-0.023880005,0.008148193,68.0,-0.7804413,2.5735626,9.430695,-0.06399536,0.014282227,-0.33229065,-0.019226074,0.13710022,0.9784851,2017-01-19 15:17:36,14.264985535919916
-0.921,2.52,9.326,-0.0048065186,-0.025619507,-0.0015716553,70.0,-0.828598,2.594864,9.420746,0.052246094,-0.020614624,-0.25424194,-0.020965576,0.13868713,0.97761536,2017-01-19 15:17:37,26.610298148935364
-0.98,2.471,9.277,0.010620117,-0.017822266,-0.055038452,72.0,-0.9514618,2.52742,9.42746,0.011657715,-0.0076446533,-0.23373413,-0.02859497,0.13606262,0.97872925,2017-01-19 15:17:38,24.98433058824745
-0.853,2.402,9.395,-0.011383057,-0.010070801,-0.014404297,72.0,-0.878006,2.491516,9.444138,-0.0209198,-0.14881897,0.06285095,-0.024246216,0.13375854,0.97813416,2017-01-19 15:17:39,12.063804579193096
-0.735,2.373,9.355,-0.005859375,-0.0033569336,-0.01612854,72.0,-0.8093262,2.3858032,9.477509,-0.035125732,-0.0022277832,-0.06585693,-0.02192688,0.12767029,0.9793854,2017-01-19 15:17:40,25.455263688056505
-0.853,2.343,9.502,-0.0030212402,0.0057525635,-0.053771973,72.0,-0.83143616,2.360855,9.481842,0.027832031,-0.045394897,-0.08380127,-0.02279663,0.12664795,0.9789429,2017-01-19 15:17:41,18.33222462204391
-0.882,2.157,9.355,-0.060653687,-0.0033721924,-0.0945282,73.0,-0.87164307,2.260254,9.502716,-0.013671875,-0.12185669,-0.036575317,-0.026153564,0.12168884,0.9801178,2017-01-19 15:17:42,31.70571954091674
-0.97,1.951,9.473,-0.0063323975,0.006362915,0.019134521,73.0,-1.039566,1.9521484,9.553986,0.045272827,-0.004425049,-0.11508179,-0.037384033,0.107162476,0.9818268,2017-01-19 15:17:43,36.20602281053735
-0.97,2.186,9.502,0.07183838,-0.02659607,-0.01864624,72.0,-1.1373444,1.9197845,9.549408,0.08857727,0.2866974,-0.13774109,-0.042404175,0.10636902,0.98143005,2017-01-19 15:17:44,10.105169303890953
-0.647,2.383,9.414,-0.022994995,0.023529053,-0.017868042,70.0,-0.63797,2.4340668,9.478317,-0.07026672,-0.11860657,0.015045166,-0.011795044,0.12882996,0.9781189,2017-01-19 15:17:45,26.893340104514344
-0.804,2.108,9.346,0.012130737,8.087158E-4,0.009552002,73.0,-0.9194336,2.0835571,9.538528,-0.020355225,-0.013259888,0.118270874,-0.030288696,0.11291504,0.9814606,2017-01-19 15:17:47,21.978564349480717
-0.833,2.108,9.522,-0.0018463135,-0.0038757324,-0.007217407,72.0,-0.78144836,2.125183,9.5416565,-0.022140503,-0.027648926,-0.14361572,-0.022583008,0.11401367,0.9810333,2017-01-19 15:17:48,21.68122983883457
-0.912,2.275,9.424,0.012130737,-0.0039978027,-0.0206604,72.0,-0.8901062,2.2975159,9.492065,0.0184021,0.031539917,-0.09402466,-0.026992798,0.12373352,0.9800873,2017-01-19 15:17:49,9.153730372814286
-0.97,2.226,9.424,-0.0033721924,-0.011917114,0.015075684,72.0,-0.98890686,2.239151,9.496231,0.008239746,-0.01902771,-0.08457947,-0.03224182,0.12159729,0.9799042,2017-01-19 15:17:50,3.9110058414173214
-0.843,2.363,9.326,0.008300781,0.00592041,0.017196655,70.0,-0.84332275,2.3478546,9.484009,-0.15093994,-0.0051574707,0.022979736,-0.023391724,0.12609863,0.9788513,2017-01-19 15:17:51,4.040883702912631
-0.892,2.314,9.316,-0.0066223145,-0.008178711,-0.056793213,70.0,-0.8883972,2.3713074,9.47406,0.11203003,-0.1103363,-0.13050842,-0.026535034,0.12747192,0.97987366,2017-01-19 15:17:52,3.9461924260650254
-0.882,2.137,9.267,-0.010025024,-0.032455444,-0.019973755,73.0,-0.9779358,2.2074738,9.504791,0.10623169,-9.765625E-4,-0.13398743,-0.032089233,0.11982727,0.98031616,2017-01-19 15:17:53,4.2370975272992775
-1.108,2.186,9.434,0.009124756,-3.0517578E-4,0.033554077,72.0,-1.0140533,2.102295,9.524826,0.006149292,0.022460938,-0.017822266,-0.03491211,0.11465454,0.98106384,2017-01-19 15:17:54,3.6973029132801867
-0.912,2.167,9.512,0.015380859,-0.033615112,-0.021011353,72.0,-0.9012451,2.1857147,9.51738,0.09765625,-0.047332764,-0.14659119,-0.02859497,0.118011475,0.9809418,2017-01-19 15:17:55,4.5344376460724725
-0.755,2.412,9.277,0.071395874,0.025680542,0.0033111572,70.0,-0.94337463,2.3993683,9.46167,-0.03727722,0.06590271,-0.26794434,-0.029830933,0.12921143,0.9803772,2017-01-19 15:17:56,3.8266065815698362
-0.97,2.206,9.365,-0.046035767,-0.0065460205,-0.016921997,73.0,-1.028183,2.265808,9.485733,-0.020568848,-0.10017395,0.15745544,-0.034454346,0.123168945,0.9801636,2017-01-19 15:17:57,4.794476490339006
-0.961,2.177,9.502,-0.019317627,-0.001739502,-0.010864258,73.0,-0.9980011,2.2057037,9.503113,-0.009887695,7.7819824E-4,-0.077819824,-0.03315735,0.119888306,0.98031616,2017-01-19 15:17:58,4.406416224325341
-1.01,2.314,9.424,0.0046844482,-0.014373779,-0.0382843,73.0,-0.9983673,2.2595062,9.4904175,0.031311035,0.028701782,-0.05152893,-0.03237915,0.12277222,0.9795227,2017-01-19 15:17:59,4.51573576195264
-0.902,2.245,9.473,0.019515991,0.004348755,0.05293274,73.0,-1.0135803,2.2552948,9.489807,0.046539307,-0.048797607,-0.05090332,-0.03387451,0.12249756,0.98036194,2017-01-19 15:18:00,5.212428225423866
-0.872,2.235,9.404,-0.0023498535,0.026657104,0.034683228,75.0,-1.0111389,2.283142,9.483414,0.030471802,-0.09025574,-0.01727295,-0.03327942,0.12397766,0.97987366,2017-01-19 15:18:01,27.200393226776423
-0.99,2.392,9.267,0.0016326904,-0.013122559,-0.0259552,77.0,-0.98690796,2.247055,9.494568,0.1424408,-0.013320923,-0.17825317,-0.032470703,0.12187195,0.98036194,2017-01-19 15:18:02,39.944026119546024
-0.853,2.363,9.306,0.027999878,-0.012191772,-0.0320282,77.0,-0.87965393,2.3238983,9.486618,0.07606506,-0.022064209,-0.061340332,-0.026321411,0.12498474,0.98002625,2017-01-19 15:18:03,47.676655497084646
-0.872,2.324,9.453,0.0012969971,-0.06277466,-0.041763306,77.0,-0.85723877,2.3894196,9.472382,-0.123413086,-0.07395935,0.061843872,-0.02468872,0.12818909,0.9796753,2017-01-19 15:18:04,23.768851334748327
-0.98,2.628,9.277,0.057250977,0.009857178,0.010391235,77.0,-0.9725189,2.586258,9.409348,-0.04899597,0.05607605,-0.10664368,-0.028778076,0.13937378,0.97779846,2017-01-19 15:18:06,43.21227216126441
0.166,2.902,8.836,0.039245605,0.07261658,0.022079468,78.0,-0.99998474,2.602951,9.401855,-0.4437561,0.25730896,-0.14001465,-0.030288696,0.14042664,0.9778595,2017-01-19 15:18:07,48.67511778932659
-0.853,2.677,9.248,0.025482178,-0.023269653,-0.01965332,78.0,-0.9352417,2.56427,9.419128,0.118011475,0.037200928,-0.048339844,-0.027999878,0.13774109,0.97906494,2017-01-19 15:18:08,33.84692504274001
-0.951,3.393,8.963,0.12820435,0.06877136,0.0385437,75.0,-0.90979004,3.2234192,9.216949,-0.02999878,0.08630371,-0.25476074,-0.022720337,0.17189026,0.9747009,2017-01-19 15:18:09,25.336036450994275
-0.98,3.285,9.022,-8.087158E-4,0.0050811768,0.028579712,75.0,-0.9801941,3.3657074,9.158676,-0.027694702,-0.05596924,-0.12838745,-0.024383545,0.18011475,0.9724579,2017-01-19 15:18:10,37.98341180228827
-1.029,3.334,9.002,0.01171875,-0.005065918,-0.036575317,78.0,-1.0623779,3.3974,9.137787,0.01361084,-0.074035645,-0.09388733,-0.028533936,0.18243408,0.97206116,2017-01-19 15:18:11,3.725272530965533
-0.912,2.598,9.463,-0.1843872,-0.12765503,-0.05809021,86.0,-1.0801697,3.1095276,9.237656,0.3038025,-0.5489044,0.05140686,-0.031570435,0.1673584,0.9746399,2017-01-19 15:18:12,3.9444826052480453
-0.853,2.324,9.414,-0.015289307,0.03553772,0.087509155,91.0,-0.8469391,2.367813,9.478729,-0.09284973,-0.025115967,-0.20327759,-0.024551392,0.12693787,0.98010254,2017-01-19 15:18:13,3.8283634362940506
-0.941,2.206,9.434,-0.021728516,0.031158447,0.04928589,98.0,-0.954834,2.2236176,9.503372,0.0014038086,-0.04437256,-0.037231445,-0.031311035,0.12033081,0.9809418,2017-01-19 15:18:14,4.209833751674493
-0.98,2.235,9.414,0.017791748,-0.01184082,-0.0783844,101.0,-0.97895813,2.2028198,9.505753,-0.0016937256,-0.0099487305,-0.09410095,-0.03236389,0.11953735,0.9805908,2017-01-19 15:18:15,3.6664180050694672
-1.343,2.039,9.63,-0.036132813,0.033477783,-0.019943237,109.0,-1.052124,2.2790527,9.479935,-0.200943,-0.31773376,0.49014282,-0.03492737,0.12423706,0.9792175,2017-01-19 15:18:16,3.9589946702350085
-1.441,2.108,9.571,0.043563843,0.14283752,-0.009918213,118.0,-1.3066101,2.140686,9.48053,-0.23248291,0.024932861,0.23075867,-0.050338745,0.11869812,0.98095703,2017-01-19 15:18:17,4.027482126780628
-1.029,2.265,9.512,0.027694702,-0.026367188,-0.012161255,119.0,-1.1297913,2.3118744,9.463028,0.026550293,-0.03727722,-0.09223938,-0.039520264,0.12631226,0.97987366,2017-01-19 15:18:18,4.120436147151913
-0.813,2.412,9.395,-0.029418945,-0.028274536,0.07019043,124.0,-0.87538147,2.4033508,9.467194,0.0036773682,0.061920166,-0.09640503,-0.026977539,0.12875366,0.98121643,2017-01-19 15:18:19,4.332759231104457
-0.872,2.471,9.483,-0.0024871826,0.0030517578,-0.03475952,131.0,-0.8932648,2.492096,9.442551,0.048812866,-0.08128357,-0.12623596,-0.026748657,0.1335907,0.98005676,2017-01-19 15:18:20,3.9084199855391804
-0.804,2.285,9.424,-0.027954102,0.0574646,0.005584717,136.0,-0.69047546,2.4029694,9.482574,-0.1267395,-0.11476135,0.024414063,-0.01625061,0.12750244,0.9801178,2017-01-19 15:18:21,4.213050152354026
-0.931,2.363,9.395,0.008270264,0.014404297,0.02142334,141.0,-0.93040466,2.2269135,9.50502,0.07232666,-0.00680542,-0.13421631,-0.03036499,0.120224,0.981369,2017-01-19 15:18:22,3.797515398191753
-0.843,2.324,9.424,0.00592041,-0.011016846,0.0028076172,139.0,-0.8621979,2.3556976,9.480377,0.05859375,-0.013000488,-0.109573364,-0.026062012,0.12631226,0.98088074,2017-01-19 15:18:23,4.10727819027671
-0.764,2.441,9.355,0.011947632,0.010726929,0.013748169,141.0,-0.83815,2.3464966,9.4848175,-0.03353882,-0.0037994385,-0.045913696,-0.025268555,0.12557983,0.9814148,2017-01-19 15:18:25,5.277079210845127
-0.774,2.353,9.316,-0.010543823,0.012893677,0.040649414,142.0,-0.84690857,2.4883423,9.447815,-0.07925415,-0.077545166,0.018310547,-0.024124146,0.13308716,0.97987366,2017-01-19 15:18:26,4.115506583831462
-0.853,2.471,9.336,-0.00289917,0.015365601,0.0016021729,142.0,-0.82206726,2.4658813,9.455887,0.059326172,-0.09593201,0.051101685,-0.022720337,0.1317749,0.97972107,2017-01-19 15:18:27,3.870316137513166
-0.843,2.314,9.453,0.0075531006,0.05760193,-0.00920105,147.0,-0.88249207,2.449234,9.454773,-0.016433716,-0.07928467,-0.01586914,-0.025878906,0.13140869,0.97966003,2017-01-19 15:18:28,3.7539566877074906
-0.823,2.373,9.355,-0.0069885254,0.022277832,0.038970947,147.0,-0.93310547,2.3876495,9.465652,0.02053833,-0.031326294,0.014083862,-0.0289917,0.12861633,0.980011,2017-01-19 15:18:29,3.9980212000304864
-0.882,2.638,9.267,0.080718994,0.0042266846,-0.006439209,144.0,-0.8488312,2.5808716,9.422775,-0.022857666,0.12956238,-0.20179749,-0.023284912,0.13793945,0.97895813,2017-01-19 15:18:30,4.186443333957625
-0.843,2.726,9.267,0.012374878,9.460449E-4,0.0033721924,144.0,-0.8516846,2.7001038,9.389053,-0.020004272,-0.01689148,-0.18170166,-0.02293396,0.14408875,0.9785156,2017-01-19 15:18:31,3.6325564999912077
-0.715,2.706,9.267,-0.03352356,-0.014251709,-0.0018310547,144.0,-0.7147217,2.8361511,9.360321,0.020080566,-0.07121277,-0.22106934,-0.0146484375,0.15013123,0.9775238,2017-01-19 15:18:32,3.797515398191753
-0.813,2.608,9.365,0.025512695,-0.023590088,-0.02407837,145.0,-0.78352356,2.6562805,9.407471,0.03440857,-0.05479431,-0.07752991,-0.01977539,0.14128113,0.97898865,2017-01-19 15:18:33,3.9453375998012614
-0.784,2.559,9.346,0.015289307,0.010848999,-9.3078613E-4,147.0,-0.86169434,2.6297913,9.408081,-0.009994507,-0.0010681152,-0.07814026,-0.025665283,0.14021301,0.98069763,2017-01-19 15:18:34,3.51522280961003
-0.833,2.481,9.444,-0.0038909912,0.005859375,-0.015930176,149.0,-0.8863983,2.4792023,9.446594,0.04194641,-0.027542114,-0.103027344,-0.027313232,0.13270569,0.98101807,2017-01-19 15:18:35,3.657292250883683
-0.382,2.147,9.542,-0.11828613,-0.09820557,-0.03793335,141.0,-0.58532715,2.4308777,9.482529,0.13586426,-0.21076965,0.051696777,-0.012008667,0.12797546,0.98161316,2017-01-19 15:18:36,6.281893003148253
-0.48,2.324,9.355,-0.025009155,-0.016586304,-0.005004883,139.0,-0.596756,2.3653564,9.498383,-0.002532959,-0.022659302,-0.03224182,-0.014419556,0.12452698,0.98349,2017-01-19 15:18:37,3.6873347517815542
-0.294,2.343,9.463,0.009399414,-0.029129028,-0.0054626465,137.0,-0.37113953,2.3420715,9.515625,0.098739624,0.01423645,-0.13121033,-0.0023345947,0.121780396,0.9831238,2017-01-19 15:18:38,3.9264887270459283
-0.725,2.451,9.336,-0.010955811,-0.0029907227,-0.014541626,137.0,-0.32691956,2.2942963,9.528885,-0.14978027,0.1437378,-0.035491943,-1.0681152E-4,0.119003296,0.98309326,2017-01-19 15:18:39,3.8659649250271184
0.323,1.637,9.728,0.0063323975,0.0065460205,0.010559082,147.0,0.08129883,1.8907776,9.622299,0.13661194,-0.05203247,-0.36045837,0.016860962,0.095458984,0.9866333,2017-01-19 15:18:40,4.099034177134843
-0.098,1.833,9.297,0.022735596,0.09770203,0.014221191,154.0,0.21598816,1.6037292,9.672211,-0.16151428,0.017074585,-0.09710693,0.022399902,0.079696655,0.98677063,2017-01-19 15:18:41,3.8937376484122623
-0.264,1.804,9.571,0.0076904297,0.015167236,0.068740845,150.0,-0.3179779,1.754776,9.643127,-0.022521973,0.015853882,-0.054397583,-0.004211426,0.09120178,0.9870148,2017-01-19 15:18:42,5.1149169299931145
-0.098,2.285,8.963,0.06939697,-0.023254395,-0.08666992,142.0,-0.36395264,2.1758118,9.555298,0.118774414,0.09877014,-0.089157104,-0.0037231445,0.11312866,0.98483276,2017-01-19 15:18:44,3.748592819402305
-2.128,3.579,8.983,0.08757019,-0.037002563,-0.06159973,160.0,-2.3457794,3.6961365,8.775314,0.46617126,-0.27742004,-0.42604065,-0.10272217,0.20500183,0.9683838,2017-01-19 15:18:45,3.94191661118874
-0.215,1.843,9.64,-0.10508728,-0.046035767,0.047088623,137.0,-0.31507874,2.019928,9.591187,0.11076355,-0.15394592,-0.016082764,-0.0024719238,0.104766846,0.98594666,2017-01-19 15:18:46,4.081670643067885
0.215,1.99,9.542,-0.03819275,-0.15167236,0.0054473877,139.0,0.08288574,1.9072571,9.619034,0.121398926,-0.13661194,0.0650177,0.016647339,0.09637451,0.98709106,2017-01-19 15:18:47,3.6600319911610857
0.225,1.814,9.532,-0.0012817383,-0.0024719238,-0.015792847,144.0,0.1949768,1.7732239,9.643021,0.03656006,0.0110321045,-0.122406006,0.021560669,0.08874512,0.9875488,2017-01-19 15:18:48,4.245881642275039
0.156,2.186,9.071,0.0064697266,0.010177612,0.036361694,142.0,0.14160156,1.8463745,9.6302185,-0.14160156,0.2511444,-0.32751465,0.019119263,0.09288025,0.98753357,2017-01-19 15:18:49,3.8954675607311047
-0.519,1.794,9.453,-0.010223389,0.018966675,-0.034072876,150.0,-0.27374268,1.7276917,9.649368,-0.13484192,-0.05239868,-0.03340149,-0.0024261475,0.08950806,0.98757935,2017-01-19 15:18:50,4.3514855762623785
-0.431,2.147,9.453,0.17941284,0.017608643,0.02407837,145.0,-0.54371643,1.9538727,9.594635,0.13511658,0.1164093,-0.22383118,-0.015304565,0.10282898,0.98698425,2017-01-19 15:18:51,3.971759286514438
-0.529,1.892,9.532,-0.02973938,-0.00592041,-0.073898315,149.0,-0.5326996,1.9253693,9.601013,0.01512146,-0.04576111,-0.12124634,-0.01473999,0.10131836,0.9869232,2017-01-19 15:18:52,3.6472317234807834
-0.715,2.0,9.424,0.05683899,-0.05316162,0.02947998,149.0,-0.888031,1.9598541,9.567688,0.15254211,0.04232788,-0.060684204,-0.03288269,0.10536194,0.98638916,2017-01-19 15:18:53,4.114684445671121
-0.627,2.098,9.414,-3.2043457E-4,-0.0018310547,-0.0071258545,147.0,-0.69281006,2.1139526,9.550995,-0.0018157959,-0.043655396,-0.01675415,-0.022384644,0.11193848,0.9864044,2017-01-19 15:18:54,3.62151744769554
-0.578,2.451,9.306,0.07803345,-0.012329102,-0.025131226,142.0,-0.63093567,2.273819,9.518509,-0.090927124,0.13696289,-0.011505127,-0.017501831,0.11993408,0.984787,2017-01-19 15:18:55,28.03095866932686
-0.637,2.353,9.228,-0.087905884,-0.02746582,-0.04208374,142.0,-0.56744385,2.516571,9.461243,0.1179657,-0.14663696,-0.13130188,-0.01322937,0.1320343,0.98379517,2017-01-19 15:18:56,25.12319654687683
-0.598,2.049,9.61,0.029556274,0.01499939,0.07196045,147.0,-0.6467438,1.9480286,9.589432,0.18365479,0.13586426,-0.39569092,-0.020370483,0.10324097,0.9866028,2017-01-19 15:18:57,3.7360513033709655
-1.0,2.579,9.287,0.11192322,0.09336853,0.025558472,141.0,-1.1436615,2.5751495,9.393127,0.28556824,-0.014526367,-0.3356018,-0.04283142,0.13873291,0.9824524,2017-01-19 15:18:58,8.821842227248757
-0.078,1.559,9.699,-0.112716675,-0.092803955,0.020828247,141.0,-0.43511963,2.1377869,9.560898,0.42149353,-0.40800476,5.79834E-4,-0.008758545,0.111587524,0.9862671,2017-01-19 15:18:59,16.21123517764515
-0.225,1.627,9.571,-0.014801025,0.041549683,-0.009109497,147.0,-0.12530518,1.6365814,9.668304,-0.038131714,0.03869629,-0.12043762,0.005996704,0.08375549,0.9855499,2017-01-19 15:19:00,3.8755318444879707
-0.441,1.931,9.453,0.035705566,0.056671143,0.08963013,145.0,-0.36488342,1.7971497,9.633652,-0.07095337,0.0552063,-0.044937134,-0.005783081,0.09373474,0.9860077,2017-01-19 15:19:01,4.241891065113779
-0.441,1.922,9.493,0.011291504,0.010406494,-0.026107788,144.0,-0.4885254,2.0213318,9.583618,0.011810303,-0.087249756,-0.07661438,-0.010559082,0.10610962,0.9848633,2017-01-19 15:19:03,5.237896381207565
-0.46,2.157,9.483,-0.0024719238,-0.037857056,-0.007583618,139.0,-0.4303131,2.1802216,9.551529,0.021713257,-0.08268738,-0.017288208,-0.0070648193,0.11381531,0.9847107,2017-01-19 15:19:04,4.317092025011401
-0.49,2.01,9.473,-0.020736694,0.003753662,0.024978638,142.0,-0.5091858,2.0377502,9.579071,-0.008361816,0.01890564,-0.07206726,-0.012496948,0.10697937,0.9859619,2017-01-19 15:19:05,4.397951192317904
-0.578,1.716,9.493,0.06838989,-0.06239319,-0.015319824,147.0,-1.0364685,2.0812683,9.527023,0.4507904,-0.18803406,-0.3877716,-0.040634155,0.11225891,0.98631287,2017-01-19 15:19:06,4.6157824266747856
-0.833,2.079,9.365,-0.066589355,-0.014556885,-0.015060425,144.0,-0.94262695,2.399704,9.46167,-0.010787964,-0.27493286,0.19514465,-0.032546997,0.1285553,0.9832611,2017-01-19 15:19:07,6.189566949417264
-0.961,1.912,9.581,-0.07055664,0.03968811,-0.056915283,147.0,-0.84840393,2.0407715,9.554352,-0.10501099,-0.14755249,-0.06097412,-0.02998352,0.109375,0.9856262,2017-01-19 15:19:08,7.287974894776631
-0.706,2.098,9.404,-0.009674072,-0.035995483,-0.01939392,142.0,-0.6907654,2.152008,9.542633,0.036987305,0.0,-0.07649231,-0.020950317,0.114105225,0.98498535,2017-01-19 15:19:09,3.398511101408947
-0.706,2.118,9.483,0.02772522,0.016662598,0.031402588,142.0,-0.6943207,2.084732,9.557297,-0.041168213,0.10813904,-0.1184082,-0.021377563,0.110702515,0.98513794,2017-01-19 15:19:10,3.9444826052480453
-0.676,2.02,9.502,0.0051574707,-0.0068969727,-0.04937744,142.0,-0.6538696,2.0180206,9.574463,0.027328491,0.011398315,-0.06745911,-0.019821167,0.10697937,0.98565674,2017-01-19 15:19:11,3.9204741620855637
-0.333,1.667,9.61,-0.0013580322,0.009109497,-9.613037E-4,142.0,-0.66085815,2.0360718,9.57016,0.11604309,-0.14285278,0.16838074,-0.020095825,0.107940674,0.9855957,2017-01-19 15:19:12,11.713292883795422
-0.147,1.402,9.787,-0.031204224,0.019927979,0.076034546,149.0,-0.042877197,1.4546509,9.698059,-0.01159668,-0.051757813,0.01322937,0.0069732666,0.07406616,0.989624,2017-01-19 15:19:13,13.258194131688747
-0.402,1.775,9.571,0.036346436,0.04345703,0.028121948,142.0,-0.3177185,1.7082825,9.651474,-0.13172913,0.08959961,-0.07637024,-0.005645752,0.088760376,0.9888458,2017-01-19 15:19:14,10.777474914885563
-0.46,1.824,9.522,0.0024108887,0.015640259,0.056640625,142.0,-0.44129944,1.8192139,9.626312,-0.021774292,-0.0077209473,-0.010345459,-0.010574341,0.09529114,0.98731995,2017-01-19 15:19:15,9.325015096781286
-0.804,2.079,9.493,0.0803833,0.0934906,-0.06816101,139.0,-0.5155487,1.9387207,9.599258,-0.38337708,0.3222351,-0.24208069,-0.013458252,0.10192871,0.98646545,2017-01-19 15:19:16,5.08871507181847
-0.804,2.373,9.385,0.09442139,-0.041275024,-0.02218628,134.0,-0.92822266,2.238922,9.502411,0.16548157,0.117385864,-0.13160706,-0.032852173,0.12011719,0.9843445,2017-01-19 15:19:17,10.151083244919352
-0.853,2.402,9.463,-0.0030670166,-0.002532959,-0.005584717,131.0,-0.78842163,2.427185,9.46875,-0.0015411377,-0.070877075,-0.12519836,-0.025100708,0.1288147,0.98402405,2017-01-19 15:19:18,6.306284642270205
-0.549,2.824,9.238,0.16165161,-0.07093811,-0.013168335,121.0,-0.61958313,2.667633,9.416473,0.088394165,0.19262695,-0.08653259,-0.014434814,0.1402893,0.982193,2017-01-19 15:19:19,10.01460739842649
-0.666,2.54,9.512,0.01663208,0.009429932,0.019683838,123.0,-0.5851593,2.7301788,9.400742,0.04034424,-0.10145569,-0.31596375,-0.011184692,0.14341736,0.98080444,2017-01-19 15:19:20,4.750665090685111
-0.637,2.638,9.326,-0.011367798,0.0021514893,-0.010055542,123.0,-0.6185303,2.6080933,9.433212,0.04647827,-0.07470703,-0.14413452,-0.014022827,0.13726807,0.98194885,2017-01-19 15:19:22,4.945785027704039
-0.912,2.481,9.62,0.016906738,9.3078613E-4,-0.011688232,123.0,-0.64598083,2.6376953,9.4231415,-0.07588196,-0.022583008,-0.1749115,-0.015426636,0.13897705,0.98187256,2017-01-19 15:19:23,38.15448905690061
-0.755,2.51,9.248,0.016662598,-0.033569336,0.0049591064,123.0,-0.82141113,2.4762573,9.453232,0.11315918,-0.024597168,-0.109680176,-0.025436401,0.13179016,0.9826355,2017-01-19 15:19:24,6.653409283210182
-0.745,2.461,9.355,0.012863159,-0.034469604,0.012741089,123.0,-0.80288696,2.4765472,9.454742,0.06739807,-0.06575012,-0.124801636,-0.025009155,0.13157654,0.98316956,2017-01-19 15:19:25,43.995242414400366
-0.647,2.383,9.493,-0.0025024414,-0.011260986,0.041549683,121.0,-0.78167725,2.471405,9.4578705,0.12789917,0.0074768066,-0.2368927,-0.023788452,0.13121033,0.98309326,2017-01-19 15:19:26,47.35570539932595
-0.686,2.432,9.365,0.0020751953,-0.011520386,-0.006439209,121.0,-0.7234192,2.4735565,9.461945,-0.0256958,-0.035507202,-0.104766846,-0.020553589,0.13095093,0.98295593,2017-01-19 15:19:27,16.44285650076678
-0.666,2.451,9.453,0.0057373047,2.89917E-4,-0.023269653,123.0,-0.7252655,2.4621582,9.464783,0.0033874512,-0.024108887,-0.025878906,-0.020980835,0.13034058,0.98327637,2017-01-19 15:19:28,3.9819440357254794
-0.608,2.912,9.159,0.026306152,-0.007675171,-0.02897644,118.0,-0.60339355,2.9217377,9.341812,-0.023132324,-0.0750885,-0.12083435,-0.01171875,0.15348816,0.98005676,2017-01-19 15:19:29,4.175106160361782
-0.588,2.775,9.287,-0.022720337,-0.011123657,5.0354004E-4,119.0,-0.59436035,2.8665924,9.359467,0.06317139,-0.11529541,-0.13848877,-0.011199951,0.15057373,0.98017883,2017-01-19 15:19:30,4.330412750280675
-0.539,2.922,9.287,0.043884277,-0.040603638,-0.010559082,118.0,-0.53790283,2.8057556,9.381287,0.10205078,0.09536743,-0.18756104,-0.008895874,0.14698792,0.98088074,2017-01-19 15:19:31,5.2219962945485054
-0.48,2.755,9.287,-0.032196045,-0.0022583008,-0.010894775,119.0,-0.51356506,2.9244843,9.346329,0.050476074,-0.11869812,-0.12535095,-0.0054626465,0.15309143,0.978775,2017-01-19 15:19:32,4.537422487989988
-0.647,2.383,9.659,-0.020996094,0.023727417,-0.005584717,124.0,-0.5319061,2.4390717,9.483582,-0.012893677,-0.0010375977,-0.19450378,-0.010406494,0.12791443,0.9828949,2017-01-19 15:19:33,4.832277989509684
-0.578,2.451,9.601,-0.016159058,-0.025283813,-0.03553772,126.0,-0.5742645,2.481308,9.470139,0.11117554,-0.084121704,-0.07209778,-0.012496948,0.1303711,0.9827728,2017-01-19 15:19:34,8.919749638346898
-0.186,1.912,9.542,0.04206848,0.0448761,0.041168213,127.0,-0.5901489,2.4809875,9.469254,0.1134491,-0.45155334,0.1739502,-0.013473511,0.13046265,0.98291016,2017-01-19 15:19:35,27.74588596171204
-0.441,2.285,9.453,0.05203247,-0.019561768,0.0041046143,127.0,-0.5263672,2.1835938,9.545944,0.03604126,0.10461426,-0.03894043,-0.0124053955,0.114608765,0.9851074,2017-01-19 15:19:36,31.6526403850633
-0.588,2.834,9.306,0.07081604,-0.010879517,-0.027420044,116.0,-0.55718994,2.7833405,9.386841,0.012374878,0.104156494,-0.23396301,-0.010574341,0.14590454,0.9814911,2017-01-19 15:19:37,45.33517272277223
-0.588,3.01,9.228,-0.04206848,0.06555176,0.071243286,109.0,-0.49198914,3.0866547,9.295197,-0.02557373,-0.090164185,-0.0061187744,-0.005508423,0.16137695,0.9793091,2017-01-19 15:19:38,45.19891420708751
-0.411,2.951,9.267,-0.010238647,0.015106201,0.06088257,106.0,-0.46516418,2.9407349,9.343765,0.029312134,-0.039596558,-0.09555054,-0.0043945313,0.1535492,0.980011,2017-01-19 15:19:39,45.294497549712204
-0.48,2.775,9.228,-0.046401978,-0.0074157715,-0.023071289,103.0,-0.44395447,2.917633,9.3520355,-0.0463562,-0.20718384,-0.008468628,-0.0034332275,0.15220642,0.9801941,2017-01-19 15:19:41,45.141494914750425
-0.48,2.706,9.238,0.008255005,-0.013320923,-0.04486084,95.0,-0.4968109,2.7382355,9.403488,0.033721924,-0.041397095,-0.046310425,-0.00793457,0.1431427,0.98205566,2017-01-19 15:19:42,32.906162389614515
-0.421,2.824,9.238,0.03656006,5.79834E-4,0.008255005,86.0,-0.47698975,2.872116,9.364487,-0.013320923,0.0017700195,-0.17076111,-0.005508423,0.15003967,0.9805908,2017-01-19 15:19:43,4.280050078922862
-0.431,2.716,9.248,-0.008148193,-0.007904053,5.950928E-4,82.0,-0.4855957,2.6582184,9.427002,-0.031951904,0.079452515,-0.20602417,-0.0063934326,0.13897705,0.981308,2017-01-19 15:19:44,4.353820702128673
-0.343,3.04,9.208,0.09761047,0.031784058,-0.044052124,75.0,-0.3186493,3.088501,9.302139,-0.008224487,0.0033111572,-0.21737671,0.006362915,0.1602478,0.9770355,2017-01-19 15:19:45,4.209029279167047
-0.647,2.902,9.218,-0.0037078857,0.014053345,-0.013092041,75.0,-0.61779785,2.9163818,9.342545,-0.049591064,-0.01524353,-0.27139282,-0.009185791,0.1535492,0.97714233,2017-01-19 15:19:46,4.569380641477549
-0.588,2.961,9.13,0.013793945,-0.04963684,-0.013946533,73.0,-0.6145172,2.9569855,9.329987,0.06970215,-0.02861023,-0.17712402,-0.008834839,0.15563965,0.97694397,2017-01-19 15:19:47,4.265779710708456
-0.568,2.775,9.198,0.0032196045,0.013092041,0.031234741,73.0,-0.60998535,2.7917328,9.381058,0.024307251,-0.054031372,-0.09197998,-0.011306763,0.14686584,0.9796448,2017-01-19 15:19:48,4.669660387850406
-0.608,2.844,9.257,-0.0022888184,0.020095825,-0.010284424,73.0,-0.61317444,2.8413696,9.365936,-0.095077515,0.03250122,0.07295227,-0.0098724365,0.14956665,0.9780884,2017-01-19 15:19:49,4.278466796069368
-0.558,2.853,9.287,0.02130127,-0.03918457,-0.011352539,72.0,-0.5617676,2.950348,9.335419,0.044189453,-0.021972656,-0.26426697,-0.0060272217,0.15487671,0.9769287,2017-01-19 15:19:50,4.077526215976928
-0.637,2.706,9.856,-0.0051727295,-0.032470703,-0.0211792,70.0,-0.41207886,2.9000854,9.358948,-0.32341003,0.028274536,-0.09710693,0.0014648438,0.15106201,0.97727966,2017-01-19 15:19:51,24.591855347891645
-0.5,2.736,9.042,-0.035751343,-0.001083374,-0.049621582,70.0,-0.60917664,2.7157745,9.403381,-0.017349243,0.021896362,-0.14155579,-0.010772705,0.14297485,0.9792175,2017-01-19 15:19:52,25.482928265881345
-0.588,2.54,9.434,0.01121521,0.06480408,0.08105469,72.0,-0.58177185,2.5717163,9.445526,-0.07199097,0.097854614,-0.1973114,-0.010772705,0.1352539,0.9806366,2017-01-19 15:19:53,3.9606987882945557
-0.48,2.481,9.453,0.034301758,-0.011627197,0.0028686523,68.0,-0.5576935,2.6073914,9.437195,0.06736755,-0.08761597,-0.2026062,-0.009414673,0.13691711,0.9805603,2017-01-19 15:19:54,5.034501934420116
-0.539,2.343,9.395,0.002532959,-3.9672852E-4,-0.012573242,70.0,-0.60601807,2.3154297,9.510086,0.033966064,1.5258789E-5,-0.07118225,-0.01399231,0.122161865,0.98243713,2017-01-19 15:19:55,3.9598468128491486
-0.382,2.343,9.404,0.013153076,-0.02178955,0.009674072,68.0,-0.4244995,2.3891907,9.501678,0.043121338,-0.04649353,-0.103637695,-0.004211426,0.12461853,0.982193,2017-01-19 15:19:56,3.8230907385775508
-0.343,2.304,9.444,-0.007217407,-0.012512207,-0.04333496,67.0,-0.3380432,2.3311157,9.5195465,-0.029693604,-0.056518555,-0.06703186,-6.4086914E-4,0.12097168,0.9831238,2017-01-19 15:19:57,25.077089869180135
-0.421,2.216,9.473,-0.011505127,-0.015838623,-0.020812988,68.0,-0.39097595,2.25029,9.536957,-0.0039978027,-0.043792725,-0.07081604,-0.0034179688,0.11720276,0.98298645,2017-01-19 15:19:59,24.64668384389755
-0.362,2.794,9.522,0.36489868,-0.05206299,-0.05328369,67.0,-0.22149658,2.5737457,9.460281,0.19425964,0.06858826,0.08757019,0.006225586,0.1327362,0.98239136,2017-01-19 15:20:00,4.03251256535738
-1.186,3.265,9.414,0.08540344,0.026855469,-0.07357788,67.0,-0.4773407,2.786377,9.390335,-0.21728516,0.101119995,-2.2805176,-0.006866455,0.14552307,0.9819031,2017-01-19 15:20:01,21.7034194609002
-0.735,2.392,9.238,-0.016555786,-0.0075531006,-0.058181763,70.0,-0.723938,2.5282745,9.447433,0.029312134,-0.04937744,-0.13110352,-0.020477295,0.13375854,0.9828186,2017-01-19 15:20:02,25.399767166342357
-0.931,2.51,9.434,0.0140686035,0.0076141357,0.03147888,72.0,-0.89756775,2.5085602,9.43779,-0.04222107,-0.043273926,0.02835083,-0.029953003,0.13381958,0.98301697,2017-01-19 15:20:03,8.160340489824081
-1.461,3.148,7.933,0.007598877,0.010910034,0.0574646,73.0,-0.83665466,2.6175385,9.413757,0.046676636,-0.056915283,0.052368164,-0.026153564,0.13908386,0.98239136,2017-01-19 15:20:04,5.359958784816305
-0.009,1.304,10.14,0.1409607,0.13461304,0.099609375,82.0,-0.21063232,1.7212067,9.652115,0.047195435,0.17201233,-0.5537262,-0.0013275146,0.08874512,0.9903717,2017-01-19 15:20:05,5.717065577238866
-0.402,2.383,9.934,0.016708374,0.054229736,0.01586914,83.0,-0.79685974,2.3930664,9.47673,-0.19741821,0.05857849,-0.10592651,-0.02810669,0.12660217,0.9862976,2017-01-19 15:20:06,6.19720894473598
-1.225,2.598,9.238,-9.918213E-4,-0.12634277,-0.06790161,88.0,-1.5090027,2.7861328,9.280655,0.24230957,-0.13015747,0.04927063,-0.06404114,0.15071106,0.9820862,2017-01-19 15:20:07,4.531450751306158
-1.196,2.687,9.071,0.018829346,0.017242432,-9.3078613E-4,90.0,-1.1780701,2.6574554,9.365906,-0.2111969,0.012130737,0.20918274,-0.04626465,0.14257813,0.9834137,2017-01-19 15:20:08,4.142550199669012
-2.01,3.491,8.826,0.20233154,0.19418335,0.0063323975,104.0,-1.931366,3.3262787,9.020859,0.17433167,0.03793335,-0.19487,-0.084732056,0.18133545,0.97587585,2017-01-19 15:20:09,4.035025601295396
0.186,2.402,9.002,-0.07696533,-0.12910461,-0.005722046,95.0,-1.1611023,2.938614,9.283676,1.1611023,-0.22816467,-1.1523285,-0.042892456,0.157547,0.9805603,2017-01-19 15:20:10,6.1040853138080555
0.304,2.667,9.11,0.0025482178,0.0079956055,0.022384644,103.0,0.2629242,2.712143,9.420471,-0.2901764,0.16174316,-0.77156067,0.033859253,0.13615417,0.97940063,2017-01-19 15:20:11,16.466171676749333
-0.068,2.824,9.453,-0.0039978027,0.034179688,0.06437683,108.0,0.022384644,2.7813416,9.403931,-0.04963684,-0.016418457,-0.21018982,0.022857666,0.14144897,0.97824097,2017-01-19 15:20:12,33.73995828550113
0.205,1.657,10.012,0.33918762,-0.07270813,0.9897766,114.0,0.25775146,3.1132813,9.295761,0.28704834,-0.6343689,0.51086426,0.001373291,-0.16137695,-0.9827881,2017-01-19 15:20:13,31.773501872265754
2.893,0.951,9.395,-0.016357422,-0.046279907,-0.039718628,113.0,2.7826538,0.9045563,9.359955,-0.1811676,0.048858643,-0.057266235,-0.12634277,-0.08250427,-0.9542389,2017-01-19 15:20:14,28.08814407204614
3.265,0.863,8.934,-0.039474487,0.04260254,0.0026397705,118.0,3.0405731,0.96424866,9.273361,-0.112197876,0.043640137,-0.05239868,-0.13977051,-0.08746338,-0.95513916,2017-01-19 15:20:15,17.049887189441943
4.854,0.588,7.894,0.2211914,-0.18296814,0.0987854,150.0,3.8581696,0.6383209,8.993179,0.7727356,-0.1207428,-0.8209686,-0.1771698,-0.10040283,-0.9191284,2017-01-19 15:20:16,20.650590130976568
5.119,0.205,7.806,-0.05000305,-0.14576721,0.112091064,155.0,5.1193695,0.5987396,8.3428955,0.08358765,-0.05392456,-0.034469604,-0.24359131,-0.12365723,-0.9025421,2017-01-19 15:20:18,12.904476558264475
4.53,1.784,8.796,0.44892883,0.09938049,0.05256653,149.0,5.264374,0.9802246,8.215576,-0.32017517,0.7904053,-0.32939148,-0.24421692,-0.14653015,-0.8983612,2017-01-19 15:20:19,47.043572156681506
4.776,2.51,7.59,0.1182251,-0.0440979,0.09086609,127.0,4.9721375,2.5182648,8.068848,-0.3139801,-0.039352417,0.021621704,-0.19168091,-0.22772217,-0.8784485,2017-01-19 15:20:20,26.185490817469574
4.226,1.471,8.1,-0.18927002,-0.049621582,0.015625,121.0,4.2374725,2.331131,8.531113,0.09378052,-0.47875977,-0.07287598,-0.1594696,-0.19898987,-0.8934784,2017-01-19 15:20:21,27.46119330543138
3.648,1.157,9.277,-0.5776825,-0.32395935,-0.53211975,137.0,3.936264,1.4603424,8.862473,-0.20428467,0.6508026,-0.8400879,-0.16992188,-0.13879395,-0.9230957,2017-01-19 15:20:22,30.27781672215057
1.382,-0.088,9.365,-0.15956116,0.2190857,-0.067489624,155.0,1.6450958,0.18504333,9.665909,-0.22857666,0.08734131,-0.25424194,-0.077682495,-0.0337677,-0.9524536,2017-01-19 15:20:23,32.01355777739584
1.147,0.029,9.257,0.1133728,-0.017196655,-0.026611328,150.0,1.0662842,-0.22798157,9.745834,-0.044769287,0.13264465,-0.23883057,-0.055541992,-0.0037384033,-0.9601135,2017-01-19 15:20:24,33.8219096557622
1.039,0.107,9.081,-0.53086853,-0.203125,-0.1444397,162.0,1.0435791,1.4125519,9.648102,0.10050964,-1.4125519,0.10404968,-0.030456543,-0.08457947,-0.9541626,2017-01-19 15:20:25,27.71125085040937
2.971,-0.519,9.473,-0.14979553,-0.6259155,-0.051254272,165.0,1.7326508,0.17623901,9.650757,1.4136353,-0.48950195,-1.2333832,-0.08198547,-0.034988403,-0.950943,2017-01-19 15:20:26,18.047528680953263
2.902,0.323,9.483,-0.08607483,0.03918457,-0.059036255,129.0,3.5074158,0.7088318,9.130478,-0.25216675,-0.2184906,-0.18191528,-0.1647644,-0.08557129,-0.94444275,2017-01-19 15:20:27,14.638434331209936