ACC_X,ACC_Y,ACC_Z,LIGH_1,TIME,VOICE
6.1291566,0.06810174,7.9270425,183.0,2017-01-04 15:19:42,61.62520214568484
6.006573,0.06810174,7.9679036,159.0,2017-01-04 15:19:43,51.73661280004161
6.006573,0.027240695,7.84532,148.0,2017-01-04 15:19:44,54.08916664468382
6.006573,-0.027240695,8.771504,162.0,2017-01-04 15:19:45,51.54781396845885
6.0882955,0.14982383,7.804459,166.0,2017-01-04 15:19:46,47.46759515407217
6.0882955,0.14982383,7.84532,229.0,2017-01-04 15:19:47,60.7094324053181
6.006573,0.10896278,7.8861814,499.0,2017-01-04 15:19:48,53.224762005365875
6.0882955,0.14982383,7.9270425,510.0,2017-01-04 15:19:49,52.95813502475556
6.0882955,0.10896278,7.8861814,435.0,2017-01-04 15:19:51,54.325720179861285
6.006573,0.10896278,7.84532,444.0,2017-01-04 15:19:52,53.590360129823964
6.0882955,0.10896278,7.8861814,394.0,2017-01-04 15:19:53,52.93940698076574
5.965712,0.19068487,7.804459,429.0,2017-01-04 15:19:54,52.89903202613253
6.0474343,0.10896278,7.84532,416.0,2017-01-04 15:19:55,52.93303955882162
5.9248514,0.21792556,7.84532,425.0,2017-01-04 15:19:56,53.10948727011543
6.0882955,0.10896278,7.84532,416.0,2017-01-04 15:19:57,52.8852098951926
6.1291566,0.14982383,7.8861814,409.0,2017-01-04 15:19:58,52.88249312928456
6.0882955,0.10896278,7.9679036,406.0,2017-01-04 15:19:59,52.888507909803636
6.0474343,0.19068487,7.9270425,431.0,2017-01-04 15:20:00,52.96174429695
6.1291566,0.10896278,7.804459,525.0,2017-01-04 15:20:01,53.01612941472891
6.0474343,0.14982383,7.8861814,515.0,2017-01-04 15:20:02,52.9960697679564
6.0474343,0.06810174,7.8861814,884.0,2017-01-04 15:20:03,52.94424290503993
6.006573,0.19068487,7.9679036,1164.0,2017-01-04 15:20:04,52.91281034878662
5.965712,0.06810174,7.804459,623.0,2017-01-04 15:20:05,52.980538445306024
5.5162406,0.14982383,8.417375,443.0,2017-01-04 15:20:06,52.90200389384342
6.0882955,0.10896278,7.804459,657.0,2017-01-04 15:20:07,52.88123125660866
6.0882955,0.19068487,7.8861814,666.0,2017-01-04 15:20:08,52.96081364746521
6.0474343,0.14982383,7.84532,618.0,2017-01-04 15:20:09,52.96352950305669
6.0882955,0.06810174,7.9679036,632.0,2017-01-04 15:20:10,52.91192290498348
6.006573,0.19068487,7.9679036,602.0,2017-01-04 15:20:11,58.32192872705508
6.006573,0.10896278,7.9679036,593.0,2017-01-04 15:20:12,56.371823459987894
6.0474343,0.19068487,7.9270425,598.0,2017-01-04 15:20:13,53.06459600505673
6.006573,0.06810174,7.9679036,619.0,2017-01-04 15:20:14,52.89528553221348
6.0474343,0.14982383,7.8861814,629.0,2017-01-04 15:20:16,52.88053974900323
6.006573,0.14982383,7.8861814,660.0,2017-01-04 15:20:17,52.873764835388066
6.006573,0.10896278,7.9679036,650.0,2017-01-04 15:20:18,52.94174784587021
6.0474343,0.14982383,7.9270425,334.0,2017-01-04 15:20:19,52.925225030577494
6.0474343,0.14982383,7.804459,382.0,2017-01-04 15:20:20,52.949115345601186
6.0474343,0.14982383,7.9679036,382.0,2017-01-04 15:20:21,52.90993363124108
5.7750273,0.29964766,7.8861814,1178.0,2017-01-04 15:20:22,52.96607039677067
6.0474343,0.14982383,7.9270425,1025.0,2017-01-04 15:20:23,52.875651357303354
6.1291566,0.14982383,7.8861814,1153.0,2017-01-04 15:20:24,52.91680862351578
6.0474343,0.14982383,7.84532,1208.0,2017-01-04 15:20:25,52.96184088056972
6.0474343,0.14982383,8.036005,1265.0,2017-01-04 15:20:26,53.01562197601393
6.1291566,0.10896278,7.9270425,1285.0,2017-01-04 15:20:27,53.63715661050885
6.0474343,0.10896278,7.9270425,1282.0,2017-01-04 15:20:28,53.752528757898965
6.006573,0.10896278,7.8861814,1272.0,2017-01-04 15:20:29,53.54064768047102
6.0474343,0.10896278,7.9679036,1659.0,2017-01-04 15:20:30,52.93202064715302
6.0474343,0.10896278,7.8861814,1530.0,2017-01-04 15:20:31,52.90766526913704
6.0882955,0.14982383,7.8861814,1774.0,2017-01-04 15:20:32,52.99140923592296
6.0474343,0.14982383,7.8861814,2206.0,2017-01-04 15:20:33,52.91944039498837
6.0474343,0.06810174,7.9270425,1965.0,2017-01-04 15:20:34,53.01369943999483
6.0474343,0.14982383,7.8861814,1480.0,2017-01-04 15:20:35,52.95264263833212
6.0474343,0.14982383,7.8861814,941.0,2017-01-04 15:20:36,53.058656557431746
6.0474343,0.10896278,7.9679036,701.0,2017-01-04 15:20:38,52.92238331705657
5.965712,0.10896278,7.8861814,721.0,2017-01-04 15:20:39,53.02347254506521
6.0474343,0.10896278,7.9270425,720.0,2017-01-04 15:20:40,52.9277866118245
6.0882955,0.19068487,7.84532,1595.0,2017-01-04 15:20:41,52.93112295362842
6.0474343,0.06810174,7.995144,1225.0,2017-01-04 15:20:42,52.92602020602865
6.0882955,0.19068487,7.9270425,941.0,2017-01-04 15:20:43,52.98182925685535
6.006573,0.14982383,7.804459,1001.0,2017-01-04 15:20:44,52.951309674090076
6.0882955,0.10896278,7.8861814,937.0,2017-01-04 15:20:45,52.897100089462086
6.0474343,0.14982383,7.9270425,877.0,2017-01-04 15:20:46,53.038606127774145
6.0474343,0.10896278,7.9679036,862.0,2017-01-04 15:20:47,61.498120437808055
6.1291566,0.10896278,7.8861814,901.0,2017-01-04 15:20:48,55.69067089012144
6.006573,0.10896278,7.9679036,900.0,2017-01-04 15:20:49,52.866587350405034
6.0474343,0.10896278,7.84532,865.0,2017-01-04 15:20:50,52.88110634246192
6.0474343,0.14982383,7.8861814,870.0,2017-01-04 15:20:51,52.88072061076573
6.0474343,0.19068487,7.9679036,894.0,2017-01-04 15:20:52,52.869170379038685
5.965712,0.14982383,7.84532,900.0,2017-01-04 15:20:53,52.949585326556374
6.006573,0.19068487,7.9679036,921.0,2017-01-04 15:20:54,52.94529210311432
6.0474343,0.06810174,7.9270425,936.0,2017-01-04 15:20:55,52.9038092575415
6.0474343,0.06810174,7.84532,963.0,2017-01-04 15:20:56,52.916694825707005
6.0474343,0.10896278,7.9270425,903.0,2017-01-04 15:20:57,52.962795064473056
5.965712,0.19068487,7.84532,965.0,2017-01-04 15:20:58,52.9233492375251
6.0474343,0.10896278,7.8861814,986.0,2017-01-04 15:20:59,52.884344778831895
6.0882955,0.10896278,7.804459,983.0,2017-01-04 15:21:00,52.995469164929744
6.0474343,0.14982383,7.8861814,987.0,2017-01-04 15:21:01,52.88185939927896
6.0474343,0.14982383,7.84532,988.0,2017-01-04 15:21:02,52.93194537862269
6.0474343,0.10896278,7.9270425,985.0,2017-01-04 15:21:04,52.907541807834036
6.0474343,0.10896278,7.8861814,985.0,2017-01-04 15:21:05,52.90073697846908
5.965712,0.10896278,7.8861814,984.0,2017-01-04 15:21:06,52.882259226060704
6.0474343,0.06810174,7.804459,980.0,2017-01-04 15:21:07,52.91306143583452
6.0882955,0.10896278,7.9679036,981.0,2017-01-04 15:21:08,52.99963422911361
6.0474343,0.14982383,7.84532,980.0,2017-01-04 15:21:09,52.889954688649
6.0882955,0.19068487,7.9679036,980.0,2017-01-04 15:21:10,52.89504304036268
6.0882955,0.10896278,7.804459,983.0,2017-01-04 15:21:11,52.95853836346802
6.1291566,0.14982383,7.8861814,980.0,2017-01-04 15:21:12,52.91984102083103
6.006573,0.14982383,7.763598,980.0,2017-01-04 15:21:13,53.04993923804126
5.965712,0.14982383,7.9270425,981.0,2017-01-04 15:21:14,52.93924354932539
6.0882955,0.14982383,7.9270425,972.0,2017-01-04 15:21:15,52.917518774077976
6.006573,0.10896278,7.9679036,979.0,2017-01-04 15:21:16,53.14447985687849
6.0882955,0.10896278,7.763598,989.0,2017-01-04 15:21:17,52.911643421109524
6.0882955,0.10896278,7.9270425,997.0,2017-01-04 15:21:18,52.91725056928659
5.965712,0.19068487,7.8861814,985.0,2017-01-04 15:21:19,52.99916308535825
5.965712,0.19068487,7.84532,995.0,2017-01-04 15:21:20,52.92852085721486
6.0882955,0.10896278,7.8861814,991.0,2017-01-04 15:21:21,52.932535400567
6.006573,0.19068487,7.8861814,990.0,2017-01-04 15:21:22,52.94283249509962
6.006573,0.06810174,7.995144,990.0,2017-01-04 15:21:23,53.0039652848392
6.0474343,0.14982383,7.8861814,980.0,2017-01-04 15:21:24,52.9277138201993
6.1291566,0.027240695,7.8861814,981.0,2017-01-04 15:21:25,52.91711771728974
6.0882955,0.14982383,7.804459,985.0,2017-01-04 15:21:26,52.95784652252963
6.0474343,0.14982383,7.9270425,979.0,2017-01-04 15:21:27,52.885579428124856
5.965712,0.10896278,7.8861814,996.0,2017-01-04 15:21:28,52.91203561319832
5.965712,0.14982383,7.8861814,985.0,2017-01-04 15:21:29,52.87637754210351
6.006573,0.14982383,7.84532,872.0,2017-01-04 15:21:30,52.93127468403383
6.0882955,0.21792556,8.117727,657.0,2017-01-04 15:21:32,52.948345382201516
6.0474343,0.10896278,7.763598,707.0,2017-01-04 15:21:33,52.88027549987915
6.1291566,0.027240695,7.7363577,746.0,2017-01-04 15:21:34,52.93441007951163
6.0474343,0.14982383,7.9270425,812.0,2017-01-04 15:21:35,52.89793847012514
6.0882955,0.21792556,7.8861814,947.0,2017-01-04 15:21:36,52.96150548773137
6.0474343,0.14982383,7.995144,702.0,2017-01-04 15:21:37,52.9830649288555
6.0474343,0.10896278,7.9270425,683.0,2017-01-04 15:21:38,52.922895102941354
6.0474343,0.14982383,8.036005,720.0,2017-01-04 15:21:39,53.190153928260024
6.0882955,0.19068487,7.8861814,726.0,2017-01-04 15:21:40,53.146210511246785
6.0882955,0.14982383,7.9270425,698.0,2017-01-04 15:21:41,52.917854201734826
6.0474343,0.10896278,7.8861814,730.0,2017-01-04 15:21:42,53.21045838747327
6.006573,0.10896278,7.9679036,774.0,2017-01-04 15:21:43,52.97171991167516
6.0882955,0.06810174,7.84532,837.0,2017-01-04 15:21:44,52.95561752850547
6.006573,0.10896278,7.8861814,784.0,2017-01-04 15:21:45,53.11344874790437
6.0882955,0.14982383,7.8861814,798.0,2017-01-04 15:21:46,52.98751754218618
6.006573,0.10896278,7.9270425,700.0,2017-01-04 15:21:47,53.02860745780794
6.0882955,0.06810174,7.9270425,678.0,2017-01-04 15:21:48,52.91278605906391
6.1291566,0.027240695,7.8861814,752.0,2017-01-04 15:21:49,53.02215264584348
6.006573,0.10896278,7.84532,757.0,2017-01-04 15:21:50,52.95114763581094
6.0882955,0.10896278,7.8861814,690.0,2017-01-04 15:21:51,52.8902387109454
6.0474343,0.10896278,7.9270425,720.0,2017-01-04 15:21:52,52.885941073781886
6.0474343,0.14982383,7.84532,718.0,2017-01-04 15:21:53,52.97853785171177
5.965712,0.10896278,7.8861814,723.0,2017-01-04 15:21:54,52.92688536209119
6.006573,0.10896278,7.8861814,717.0,2017-01-04 15:21:55,52.923730552736785
6.1291566,0.14982383,7.8861814,747.0,2017-01-04 15:21:56,52.91858856873837
6.0882955,0.10896278,7.804459,792.0,2017-01-04 15:21:57,52.92089972332878
6.0882955,0.19068487,7.9679036,707.0,2017-01-04 15:21:58,53.001854732189805
6.0882955,0.10896278,7.995144,630.0,2017-01-04 15:21:59,52.982699373204085
6.006573,0.19068487,7.8861814,626.0,2017-01-04 15:22:00,52.96322309477282
6.0474343,0.10896278,7.84532,589.0,2017-01-04 15:22:02,52.945497280229425
6.0882955,0.19068487,7.84532,589.0,2017-01-04 15:22:03,52.93933265923775
6.0882955,0.10896278,7.8861814,653.0,2017-01-04 15:22:04,52.94356532113027
6.0474343,0.10896278,7.9679036,659.0,2017-01-04 15:22:05,52.90208803156037
6.0474343,0.10896278,7.9270425,673.0,2017-01-04 15:22:06,52.88112176577414
6.006573,0.19068487,7.8861814,668.0,2017-01-04 15:22:07,53.02663755204125
6.006573,0.19068487,7.84532,682.0,2017-01-04 15:22:08,52.93512210470951
6.1563973,0.14982383,7.84532,723.0,2017-01-04 15:22:09,52.89516119585994
6.0474343,0.14982383,7.8861814,708.0,2017-01-04 15:22:10,53.00054333553608
6.006573,0.06810174,7.84532,745.0,2017-01-04 15:22:11,52.91452759144855
6.0882955,0.14982383,7.804459,725.0,2017-01-04 15:22:12,52.87303676902535
6.1291566,0.10896278,7.9270425,718.0,2017-01-04 15:22:13,52.89315721291639
6.0882955,0.21792556,7.84532,730.0,2017-01-04 15:22:14,52.90082944813512
6.0474343,0.10896278,7.804459,742.0,2017-01-04 15:22:15,52.91753987446295
6.006573,0.19068487,7.84532,794.0,2017-01-04 15:22:16,52.90201872133201
5.965712,0.10896278,7.9270425,866.0,2017-01-04 15:22:17,52.8925246886168
6.006573,0.10896278,7.8861814,1126.0,2017-01-04 15:22:18,52.91905146977952
6.0474343,0.10896278,7.8861814,964.0,2017-01-04 15:22:19,52.886085968008764
6.0882955,0.19068487,7.9679036,822.0,2017-01-04 15:22:20,52.90099176547799
6.1291566,0.19068487,7.804459,912.0,2017-01-04 15:22:21,52.91373312750339
6.006573,0.14982383,7.9270425,1039.0,2017-01-04 15:22:22,52.93396810685945
6.0474343,0.06810174,7.9270425,973.0,2017-01-04 15:22:23,53.01146624544699
6.0474343,0.14982383,7.84532,931.0,2017-01-04 15:22:24,52.92064705413499
6.0474343,0.19068487,7.84532,900.0,2017-01-04 15:22:25,52.9175657840357
6.1291566,0.14982383,7.84532,760.0,2017-01-04 15:22:26,52.893327964741694
6.0474343,0.10896278,7.84532,578.0,2017-01-04 15:22:27,52.891284079127814
6.006573,0.14982383,7.9270425,909.0,2017-01-04 15:22:28,52.95524140822346
6.0474343,0.10896278,7.9270425,836.0,2017-01-04 15:22:29,52.89817031185467
6.0474343,0.19068487,7.9270425,841.0,2017-01-04 15:22:30,52.907917782820306
6.0474343,0.19068487,7.995144,640.0,2017-01-04 15:22:32,52.95367511425886
6.0474343,0.10896278,7.8861814,514.0,2017-01-04 15:22:33,53.07072764807954
6.006573,0.14982383,7.9679036,513.0,2017-01-04 15:22:34,52.90850078799613
6.0474343,0.14982383,7.9679036,522.0,2017-01-04 15:22:35,52.96124084364265
6.0474343,0.14982383,7.8861814,902.0,2017-01-04 15:22:36,52.889787030908685
6.006573,0.10896278,7.9270425,886.0,2017-01-04 15:22:37,52.927927134248435
6.0474343,0.14982383,7.8861814,823.0,2017-01-04 15:22:38,52.97113339223375
6.0474343,0.14982383,7.8861814,503.0,2017-01-04 15:22:39,52.911696828995865
6.006573,0.14982383,7.8861814,518.0,2017-01-04 15:22:40,52.95446870678114
6.006573,0.10896278,7.9270425,509.0,2017-01-04 15:22:41,52.91346585974658
6.0474343,0.14982383,7.84532,515.0,2017-01-04 15:22:42,52.91328371101045
6.0882955,0.14982383,7.9679036,568.0,2017-01-04 15:22:43,52.95178840191281
6.0882955,0.19068487,7.8861814,608.0,2017-01-04 15:22:44,52.97493216736874
6.006573,0.06810174,7.9679036,628.0,2017-01-04 15:22:45,52.94759111675192
6.0474343,0.14982383,7.8861814,426.0,2017-01-04 15:22:46,52.91652663696589
6.0882955,0.14982383,7.8861814,616.0,2017-01-04 15:22:47,53.01876968045004
6.0882955,0.14982383,7.9270425,795.0,2017-01-04 15:22:48,52.93837127928078
6.0474343,0.10896278,7.84532,1614.0,2017-01-04 15:22:49,52.89715028107351
6.0474343,0.10896278,7.9679036,1900.0,2017-01-04 15:22:50,52.970226026781624
6.0882955,0.14982383,7.84532,2054.0,2017-01-04 15:22:51,52.89955161786808
6.006573,0.10896278,7.9679036,2144.0,2017-01-04 15:22:52,52.89919632513186
6.0474343,0.14982383,7.8861814,2107.0,2017-01-04 15:22:53,52.91334312703298
6.0474343,0.10896278,7.8861814,2183.0,2017-01-04 15:22:54,52.918112015433636
6.0474343,0.14982383,7.8861814,2263.0,2017-01-04 15:22:55,52.99373748754381
6.006573,0.10896278,7.9270425,2311.0,2017-01-04 15:22:56,53.00390522692651
6.0882955,0.14982383,7.9270425,2248.0,2017-01-04 15:22:57,52.92029071190203
5.965712,0.19068487,7.84532,2198.0,2017-01-04 15:22:58,52.91365944945725
6.0474343,0.10896278,7.84532,2246.0,2017-01-04 15:22:59,52.91460472328695
6.0882955,0.10896278,7.804459,2262.0,2017-01-04 15:23:00,52.94395494264221
6.006573,0.06810174,7.9270425,2028.0,2017-01-04 15:23:01,52.927123964200156
6.0474343,0.10896278,7.8861814,680.0,2017-01-04 15:23:02,52.94737820698964
6.0474343,0.10896278,7.9270425,609.0,2017-01-04 15:23:03,52.90301761222297
6.0882955,0.06810174,7.9270425,668.0,2017-01-04 15:23:05,52.905463804890694
6.0474343,0.14982383,7.9270425,636.0,2017-01-04 15:23:06,52.923694642259036
6.0882955,0.10896278,7.804459,634.0,2017-01-04 15:23:07,52.920464340384825
6.0882955,0.10896278,7.9270425,590.0,2017-01-04 15:23:08,52.91584137711433
6.0474343,0.14982383,7.9270425,558.0,2017-01-04 15:23:09,53.03771877849386
5.965712,0.10896278,7.8861814,505.0,2017-01-04 15:23:10,52.952695329511826
6.0474343,0.14982383,7.804459,636.0,2017-01-04 15:23:11,52.91621819456536
6.0882955,0.14982383,7.8861814,490.0,2017-01-04 15:23:12,52.97109059623651
6.006573,0.19068487,7.9679036,609.0,2017-01-04 15:23:13,52.87591488180547
5.9248514,0.10896278,7.9270425,569.0,2017-01-04 15:23:14,52.908116960813906
6.006573,0.14982383,7.9270425,569.0,2017-01-04 15:23:15,52.886845230731424
6.0474343,0.10896278,7.9270425,607.0,2017-01-04 15:23:16,52.926304992803075
6.006573,0.10896278,7.995144,615.0,2017-01-04 15:23:17,52.93688766000071
6.006573,0.14982383,7.8861814,604.0,2017-01-04 15:23:18,52.95480305405974
6.006573,0.10896278,7.9270425,598.0,2017-01-04 15:23:19,53.06716825825461
6.006573,0.06810174,7.9679036,565.0,2017-01-04 15:23:20,52.9396284720685
6.0474343,0.10896278,7.9679036,621.0,2017-01-04 15:23:21,52.901645888114416
6.0882955,0.14982383,7.9270425,624.0,2017-01-04 15:23:22,52.904856361916856
6.0474343,0.06810174,7.9679036,607.0,2017-01-04 15:23:23,52.89625967470377
6.0474343,0.06810174,7.9679036,604.0,2017-01-04 15:23:24,52.907807746848235
6.0474343,0.14982383,7.9679036,589.0,2017-01-04 15:23:25,52.98845838676361
6.0474343,0.19068487,7.8861814,613.0,2017-01-04 15:23:26,52.963808282800706
6.006573,0.14982383,7.9679036,571.0,2017-01-04 15:23:27,52.95131964812464
6.0474343,0.10896278,7.84532,631.0,2017-01-04 15:23:29,52.94322963375841
6.0882955,0.10896278,7.995144,615.0,2017-01-04 15:23:30,52.934443700394915
6.0882955,0.06810174,7.9270425,596.0,2017-01-04 15:23:31,53.08832946863252
6.0474343,0.10896278,7.84532,618.0,2017-01-04 15:23:32,53.066736075802446
6.0882955,0.14982383,7.84532,581.0,2017-01-04 15:23:33,52.9002846490373
6.0474343,0.19068487,7.9270425,587.0,2017-01-04 15:23:34,52.933034723463344
6.0474343,0.06810174,7.9679036,547.0,2017-01-04 15:23:35,52.88032986301026
6.0474343,0.14982383,7.9270425,571.0,2017-01-04 15:23:36,52.882722914376984
6.0882955,0.14982383,7.8861814,566.0,2017-01-04 15:23:37,52.89397392015668
6.0882955,0.06810174,7.804459,527.0,2017-01-04 15:23:38,52.9131822681999
5.965712,0.14982383,7.804459,589.0,2017-01-04 15:23:39,52.89861698683666
6.0882955,0.06810174,7.84532,553.0,2017-01-04 15:23:40,52.88397623240934
6.006573,0.10896278,7.8861814,607.0,2017-01-04 15:23:41,52.933938323881534
6.1563973,0.10896278,7.9270425,591.0,2017-01-04 15:23:42,52.900113343988686
6.0882955,0.06810174,7.9270425,608.0,2017-01-04 15:23:43,53.06511178372538
6.0882955,0.14982383,7.84532,555.0,2017-01-04 15:23:44,52.91156940389524
6.0882955,0.06810174,7.995144,539.0,2017-01-04 15:23:45,52.90377991899025
5.965712,0.14982383,7.84532,544.0,2017-01-04 15:23:46,52.956747497335016
6.0474343,0.10896278,7.804459,539.0,2017-01-04 15:23:47,52.94426852661029
6.0474343,0.19068487,7.8861814,535.0,2017-01-04 15:23:48,53.01733898065464
6.006573,0.06810174,7.9270425,528.0,2017-01-04 15:23:49,52.95296113946001
6.0474343,0.21792556,7.84532,587.0,2017-01-04 15:23:50,52.929107974029804
6.006573,0.14982383,7.8861814,549.0,2017-01-04 15:23:51,52.88836532093953
6.006573,0.10896278,7.8861814,525.0,2017-01-04 15:23:52,52.90177173486198
6.0882955,0.10896278,7.9270425,550.0,2017-01-04 15:23:54,52.98378720025951
6.0474343,0.14982383,7.9270425,536.0,2017-01-04 15:23:55,52.92399074340067
6.006573,0.10896278,7.8861814,569.0,2017-01-04 15:23:56,52.89517530636424
6.0474343,0.10896278,7.9679036,548.0,2017-01-04 15:23:57,52.99334038521564
6.006573,0.10896278,7.9270425,523.0,2017-01-04 15:23:58,52.97381996529886
6.0882955,0.06810174,7.84532,559.0,2017-01-04 15:23:59,52.93100555652617
6.0882955,0.14982383,7.9679036,526.0,2017-01-04 15:24:00,52.917559414974455
6.1291566,0.14982383,7.84532,417.0,2017-01-04 15:24:01,52.986608519177345
6.0474343,0.06810174,7.9679036,401.0,2017-01-04 15:24:02,52.91113477678244
6.006573,0.10896278,7.84532,406.0,2017-01-04 15:24:03,52.98161029166859
6.0474343,0.19068487,7.84532,443.0,2017-01-04 15:24:04,52.941554470088306
5.965712,0.14982383,7.9270425,663.0,2017-01-04 15:24:05,52.98399491906376
6.0882955,0.14982383,7.8861814,535.0,2017-01-04 15:24:06,52.92360053809251
6.006573,0.027240695,7.84532,522.0,2017-01-04 15:24:07,52.97476266988541
6.0474343,0.10896278,7.8861814,493.0,2017-01-04 15:24:08,52.906027112764036
6.0474343,0.14982383,7.763598,499.0,2017-01-04 15:24:09,52.93510570687283
6.0474343,0.14982383,7.8861814,500.0,2017-01-04 15:24:10,52.94536959456131
6.0474343,0.14982383,7.9270425,490.0,2017-01-04 15:24:11,52.92295222395626
6.0474343,0.14982383,7.763598,500.0,2017-01-04 15:24:12,52.924599841824275
6.0882955,0.14982383,7.9270425,484.0,2017-01-04 15:24:13,52.939128958274694
6.0882955,0.14982383,7.84532,482.0,2017-01-04 15:24:14,52.90519302964836
6.006573,0.14982383,7.8861814,484.0,2017-01-04 15:24:15,52.90274851036695
6.1291566,0.14982383,7.84532,471.0,2017-01-04 15:24:16,52.896078544544096
6.0882955,0.10896278,7.8861814,473.0,2017-01-04 15:24:17,52.92906087278272
6.0882955,0.06810174,7.9270425,480.0,2017-01-04 15:24:19,52.98913096356152
6.0882955,0.06810174,7.84532,499.0,2017-01-04 15:24:20,52.92868305044362
6.0474343,0.10896278,7.8861814,510.0,2017-01-04 15:24:21,52.897581521952894
6.0882955,0.10896278,7.804459,524.0,2017-01-04 15:24:22,52.92881965453625
6.0882955,0.14982383,7.8861814,525.0,2017-01-04 15:24:23,52.898508803795686
6.0474343,0.14982383,7.84532,514.0,2017-01-04 15:24:24,52.893637427145954
6.006573,0.10896278,7.84532,487.0,2017-01-04 15:24:25,52.90856478483982
6.0474343,0.19068487,7.8861814,475.0,2017-01-04 15:24:26,52.91396781345382
6.0474343,0.10896278,7.84532,455.0,2017-01-04 15:24:27,52.88945038776045
6.006573,0.14982383,7.8861814,483.0,2017-01-04 15:24:28,52.89773712728112
5.965712,0.14982383,7.995144,493.0,2017-01-04 15:24:29,52.945139139549724
6.0882955,0.06810174,7.9270425,481.0,2017-01-04 15:24:30,52.9385396590235
6.0474343,0.14982383,7.804459,480.0,2017-01-04 15:24:31,52.9474846631755
6.0474343,0.19068487,7.8861814,487.0,2017-01-04 15:24:32,52.991091241767194
6.0882955,0.10896278,7.9679036,501.0,2017-01-04 15:24:33,52.888029701752515
5.965712,0.10896278,7.8861814,506.0,2017-01-04 15:24:34,52.98955346582822
6.0474343,0.14982383,7.9270425,507.0,2017-01-04 15:24:35,52.90275811832929
6.0882955,0.027240695,7.9679036,500.0,2017-01-04 15:24:36,52.96381539888779
6.0882955,0.10896278,7.84532,499.0,2017-01-04 15:24:37,52.98077510003894
6.1291566,0.10896278,7.9270425,492.0,2017-01-04 15:24:38,52.907912224637585
6.0474343,0.14982383,7.8861814,493.0,2017-01-04 15:24:39,53.04768714100088
6.0474343,0.10896278,7.84532,489.0,2017-01-04 15:24:40,53.004397600850325
6.0882955,0.14982383,7.84532,495.0,2017-01-04 15:24:41,52.89802381821968
6.0882955,0.10896278,7.9270425,520.0,2017-01-04 15:24:43,52.914788724231805
5.965712,0.19068487,7.84532,531.0,2017-01-04 15:24:44,52.944406751298445
6.0474343,0.10896278,7.84532,529.0,2017-01-04 15:24:45,52.983841648466445
6.0474343,0.06810174,7.9270425,526.0,2017-01-04 15:24:46,52.99565385686361
6.006573,0.10896278,7.84532,534.0,2017-01-04 15:24:47,52.992711469781966
6.0474343,0.25878662,7.84532,520.0,2017-01-04 15:24:48,52.92265713390162
6.0474343,0.19068487,7.9679036,514.0,2017-01-04 15:24:49,52.92659996481977
6.006573,0.10896278,7.84532,511.0,2017-01-04 15:24:50,52.90259991030596
6.0474343,0.14982383,7.8861814,510.0,2017-01-04 15:24:51,52.941440284712264
6.006573,0.10896278,7.9679036,600.0,2017-01-04 15:24:52,53.067625887731936
6.006573,0.14982383,7.84532,793.0,2017-01-04 15:24:53,52.88814189758739
6.0882955,0.14982383,7.804459,649.0,2017-01-04 15:24:54,52.92384243576733
6.0474343,0.14982383,7.8861814,524.0,2017-01-04 15:24:55,52.90606177948759
6.006573,0.14982383,7.84532,484.0,2017-01-04 15:24:56,52.99286059527372
5.965712,0.10896278,7.9270425,817.0,2017-01-04 15:24:57,52.95180959437269
6.197258,0.06810174,7.7363577,871.0,2017-01-04 15:24:58,52.94686533904702
6.0474343,0.14982383,7.804459,834.0,2017-01-04 15:24:59,52.92526918918617
6.006573,0.14982383,7.9270425,841.0,2017-01-04 15:25:00,52.87063044558607
6.0882955,0.14982383,7.84532,865.0,2017-01-04 15:25:01,52.95968160388904
5.965712,0.10896278,7.9270425,899.0,2017-01-04 15:25:02,52.927858710640116
6.0474343,0.10896278,7.9270425,800.0,2017-01-04 15:25:03,53.018284817718325
6.0474343,0.14982383,7.9270425,850.0,2017-01-04 15:25:04,53.084203445519904
5.965712,0.10896278,7.9679036,1145.0,2017-01-04 15:25:05,53.03969158509989
6.006573,0.14982383,7.84532,1156.0,2017-01-04 15:25:06,52.944341902506594
6.006573,0.14982383,7.84532,1139.0,2017-01-04 15:25:07,53.08408640337541
6.0474343,0.10896278,7.9270425,1124.0,2017-01-04 15:25:09,53.000992525828124
6.1291566,0.14982383,7.9270425,918.0,2017-01-04 15:25:10,52.89893007582649
6.0474343,0.14982383,7.9270425,876.0,2017-01-04 15:25:11,53.015961221036235
5.965712,0.14982383,7.84532,999.0,2017-01-04 15:25:12,52.89246320038992
6.0474343,0.10896278,7.9270425,1178.0,2017-01-04 15:25:13,52.957665410090684
6.1563973,0.06810174,7.9270425,1108.0,2017-01-04 15:25:14,52.911690755020764
6.006573,0.10896278,7.9270425,1139.0,2017-01-04 15:25:15,52.887236265356705
6.006573,0.10896278,7.84532,1208.0,2017-01-04 15:25:16,52.98130694965141
6.0882955,0.19068487,7.8861814,1182.0,2017-01-04 15:25:17,52.91590097487351
6.006573,0.19068487,7.9270425,1222.0,2017-01-04 15:25:18,52.99226133694351
6.0882955,0.10896278,7.804459,1243.0,2017-01-04 15:25:19,52.90978189126959
6.0882955,0.14982383,7.9270425,974.0,2017-01-04 15:25:20,52.99969693954844
6.006573,0.14982383,7.804459,1003.0,2017-01-04 15:25:21,53.119111898259604
6.006573,0.06810174,7.8861814,1342.0,2017-01-04 15:25:22,52.916419939262866
6.0882955,0.14982383,7.84532,1346.0,2017-01-04 15:25:23,52.95124866861287
6.1291566,0.14982383,7.84532,1361.0,2017-01-04 15:25:24,52.882880232190395
5.965712,0.14982383,7.9270425,1396.0,2017-01-04 15:25:25,52.903237054834555
6.0882955,0.06810174,7.995144,819.0,2017-01-04 15:25:26,52.90543134924944
6.0474343,0.14982383,7.8861814,565.0,2017-01-04 15:25:27,52.905429872012334
6.0882955,0.19068487,7.8861814,514.0,2017-01-04 15:25:28,52.9524478559258
6.006573,0.21792556,7.9270425,518.0,2017-01-04 15:25:29,52.97363985995433
6.006573,0.10896278,7.8861814,876.0,2017-01-04 15:25:30,52.97210008424852
6.0882955,0.14982383,7.995144,812.0,2017-01-04 15:25:31,53.05244332128918
6.006573,0.19068487,7.9679036,657.0,2017-01-04 15:25:32,52.91094129146282
6.0882955,0.14982383,7.804459,672.0,2017-01-04 15:25:33,52.88712378433285
6.006573,0.14982383,7.763598,1049.0,2017-01-04 15:25:34,52.91552902813743
6.006573,0.19068487,7.9270425,1339.0,2017-01-04 15:25:35,52.980029094271764
5.9248514,0.19068487,7.84532,1862.0,2017-01-04 15:25:36,52.95652692035056
6.1291566,0.21792556,7.9270425,1702.0,2017-01-04 15:25:38,52.905465499355266
6.1291566,0.10896278,7.84532,947.0,2017-01-04 15:25:39,52.956883865587734
6.0882955,0.10896278,7.8861814,1030.0,2017-01-04 15:25:40,52.922372540601955
6.1291566,0.14982383,7.8861814,762.0,2017-01-04 15:25:41,52.92487196181361
6.0882955,0.14982383,7.84532,1793.0,2017-01-04 15:25:42,52.99983005273142
6.006573,0.06810174,7.9679036,1490.0,2017-01-04 15:25:43,52.96420119338609
6.006573,0.14982383,7.804459,1121.0,2017-01-04 15:25:44,52.90108944871473
6.1291566,0.10896278,7.9270425,1214.0,2017-01-04 15:25:45,52.878426354938085
6.0474343,0.10896278,7.8861814,1516.0,2017-01-04 15:25:46,52.89947152073311
6.0474343,0.14982383,7.9270425,1715.0,2017-01-04 15:25:47,53.0597276229382
6.0474343,0.10896278,7.8861814,1823.0,2017-01-04 15:25:48,52.93386926111782
6.1291566,0.14982383,7.84532,1852.0,2017-01-04 15:25:49,52.89068092729343
6.1291566,0.19068487,7.804459,1753.0,2017-01-04 15:25:50,52.885218494414524
6.0474343,0.14982383,7.8861814,1750.0,2017-01-04 15:25:51,52.90703572311993
6.006573,0.06810174,7.8861814,1749.0,2017-01-04 15:25:52,52.879228308706715
6.0882955,0.14982383,7.84532,1792.0,2017-01-04 15:25:53,52.873569108970145
6.006573,0.19068487,7.8861814,1800.0,2017-01-04 15:25:54,52.88741990247442
6.006573,0.10896278,7.8861814,1821.0,2017-01-04 15:25:55,52.89989187282557
6.006573,0.19068487,7.9270425,1807.0,2017-01-04 15:25:56,52.90181408882138
6.0474343,0.14982383,7.8861814,1877.0,2017-01-04 15:25:57,53.00097531225688
6.0474343,0.14982383,7.8861814,1894.0,2017-01-04 15:25:58,52.969681730551066
6.0474343,0.19068487,7.9679036,1884.0,2017-01-04 15:25:59,53.05467939428866
6.006573,0.06810174,7.8861814,1896.0,2017-01-04 15:26:00,52.885926016725016
6.0474343,0.14982383,7.8861814,1926.0,2017-01-04 15:26:02,52.98575321827725
6.0474343,0.19068487,7.9270425,1935.0,2017-01-04 15:26:03,52.95296427665086
6.006573,0.10896278,7.9270425,1941.0,2017-01-04 15:26:04,52.873881295423615
6.006573,0.10896278,7.84532,1949.0,2017-01-04 15:26:05,52.91880345763502
6.0882955,0.10896278,7.804459,1949.0,2017-01-04 15:26:06,52.91505010142672
6.006573,0.10896278,7.9270425,1951.0,2017-01-04 15:26:07,52.99628613320721
6.0474343,0.14982383,7.84532,1937.0,2017-01-04 15:26:08,52.99702203477273
6.0474343,0.14982383,7.84532,1935.0,2017-01-04 15:26:09,52.945807653539745
6.0882955,0.10896278,7.9270425,1944.0,2017-01-04 15:26:10,52.9034611808897
6.0474343,0.14982383,7.804459,1949.0,2017-01-04 15:26:11,52.885328929609
6.1291566,0.06810174,7.9679036,1944.0,2017-01-04 15:26:12,52.90933037273105
6.006573,0.10896278,7.8861814,1952.0,2017-01-04 15:26:13,52.91711940721346
6.0474343,0.19068487,7.9270425,1949.0,2017-01-04 15:26:14,52.90005857540825
6.0474343,0.10896278,7.9679036,1950.0,2017-01-04 15:26:15,53.12073150367269
6.0474343,0.14982383,7.9270425,1938.0,2017-01-04 15:26:16,52.94110844066055
6.006573,0.14982383,7.9679036,1936.0,2017-01-04 15:26:17,52.90931613450549
6.006573,0.14982383,7.8861814,1932.0,2017-01-04 15:26:18,52.96492056572215
6.0474343,0.06810174,7.9270425,1842.0,2017-01-04 15:26:19,52.992717516660505
6.0474343,0.10896278,7.84532,1796.0,2017-01-04 15:26:20,52.98210519959716
6.1291566,0.10896278,7.8861814,1754.0,2017-01-04 15:26:21,52.89958189863805
6.0882955,0.19068487,7.84532,1748.0,2017-01-04 15:26:22,53.00181283278179
6.0474343,0.21792556,7.84532,1637.0,2017-01-04 15:26:23,52.90314350617062
6.0882955,0.10896278,7.804459,1476.0,2017-01-04 15:26:24,52.93658234270404
6.1291566,0.14982383,7.84532,1883.0,2017-01-04 15:26:25,52.89777703969345
6.0882955,0.06810174,7.8861814,1877.0,2017-01-04 15:26:27,52.925432412114844
5.965712,0.19068487,7.8861814,1875.0,2017-01-04 15:26:28,52.92377701958898
6.0474343,0.19068487,7.9270425,1869.0,2017-01-04 15:26:29,52.92327152524624
6.006573,0.14982383,7.8861814,1862.0,2017-01-04 15:26:30,53.065587301258155
6.0474343,0.21792556,7.8861814,1866.0,2017-01-04 15:26:31,52.89055366881816
5.965712,0.14982383,7.84532,1861.0,2017-01-04 15:26:32,52.989091881942784
6.006573,0.06810174,7.84532,1860.0,2017-01-04 15:26:33,52.89278139582807
6.006573,0.19068487,7.995144,1861.0,2017-01-04 15:26:34,52.88657259392879
6.006573,0.06810174,7.8861814,1856.0,2017-01-04 15:26:35,52.881737954379815
6.006573,0.10896278,7.84532,1831.0,2017-01-04 15:26:36,52.91052109618968
6.0474343,0.14982383,7.8861814,1833.0,2017-01-04 15:26:37,52.92882518602556
6.006573,0.19068487,7.9270425,1819.0,2017-01-04 15:26:38,52.93148557746926
6.0474343,0.14982383,7.8861814,1811.0,2017-01-04 15:26:39,52.91999526773334
6.006573,0.10896278,7.9679036,1807.0,2017-01-04 15:26:40,52.91154059497842
6.006573,0.10896278,7.804459,1783.0,2017-01-04 15:26:41,52.900291826475645
6.0474343,0.06810174,7.9679036,1640.0,2017-01-04 15:26:42,52.91195431434119
6.006573,0.027240695,7.84532,1651.0,2017-01-04 15:26:43,52.96157883032177
6.0882955,0.10896278,7.8861814,1609.0,2017-01-04 15:26:44,52.898364976231605
6.0474343,0.19068487,7.8861814,1535.0,2017-01-04 15:26:45,52.95018405171881
6.0474343,0.14982383,7.84532,1372.0,2017-01-04 15:26:46,52.94183001073606
5.965712,0.14982383,7.995144,1403.0,2017-01-04 15:26:47,52.98818387048382
6.0882955,0.10896278,7.804459,1421.0,2017-01-04 15:26:48,52.90467202658079
6.0474343,0.14982383,7.8861814,1455.0,2017-01-04 15:26:49,52.954652787839166
6.006573,0.19068487,7.84532,1489.0,2017-01-04 15:26:50,52.96496350827592
6.1291566,0.14982383,7.8861814,1418.0,2017-01-04 15:26:52,52.89641715601331
6.006573,0.14982383,7.9270425,1491.0,2017-01-04 15:26:53,52.97672696382775
6.006573,0.10896278,7.9270425,1446.0,2017-01-04 15:26:54,52.986524339965406
6.1291566,0.19068487,7.8861814,1391.0,2017-01-04 15:26:55,52.97199709649581
6.0882955,0.10896278,7.8861814,1390.0,2017-01-04 15:26:56,52.90019721383593
6.0474343,0.10896278,7.9679036,1323.0,2017-01-04 15:26:57,52.90973214926698
6.0474343,0.14982383,7.9679036,1168.0,2017-01-04 15:26:58,52.895459684224406
6.0474343,0.06810174,7.84532,1070.0,2017-01-04 15:26:59,52.9239788460965
6.0474343,0.14982383,7.8861814,1319.0,2017-01-04 15:27:00,52.975784642822
6.1291566,0.06810174,7.9679036,1431.0,2017-01-04 15:27:01,52.95821945557148
6.0474343,0.14982383,7.9270425,1413.0,2017-01-04 15:27:02,52.88798367968334
6.0882955,0.06810174,7.8861814,1394.0,2017-01-04 15:27:03,52.92877583452034
6.0474343,0.10896278,7.804459,1383.0,2017-01-04 15:27:04,53.01709291917529
6.0882955,0.14982383,7.9270425,1363.0,2017-01-04 15:27:05,52.92017115967699
6.1291566,0.14982383,7.8861814,1359.0,2017-01-04 15:27:06,52.93147689661862
6.0474343,0.10896278,7.84532,1305.0,2017-01-04 15:27:07,52.95475107576658
6.0882955,0.10896278,7.8861814,1302.0,2017-01-04 15:27:08,52.90408855062515
6.1291566,0.10896278,7.84532,1297.0,2017-01-04 15:27:09,52.94300009893453
6.0882955,0.14982383,7.84532,1269.0,2017-01-04 15:27:10,52.873714066413164
6.0474343,0.06810174,7.9270425,1271.0,2017-01-04 15:27:11,52.8802679396792
6.0474343,0.14982383,7.9679036,1272.0,2017-01-04 15:27:12,53.01830069281368
6.0474343,0.06810174,7.9270425,1277.0,2017-01-04 15:27:13,52.90355611365237
6.0882955,0.14982383,7.9270425,1239.0,2017-01-04 15:27:14,52.92257642312828
6.0474343,0.10896278,7.804459,671.0,2017-01-04 15:27:15,52.93625435504297
6.0882955,0.10896278,7.763598,1109.0,2017-01-04 15:27:17,52.888312715850944
6.0474343,0.06810174,7.9270425,959.0,2017-01-04 15:27:18,53.117012840767586
6.0882955,0.06810174,8.036005,1138.0,2017-01-04 15:27:19,52.9346712711094
6.0474343,0.14982383,7.84532,1100.0,2017-01-04 15:27:20,52.924666283757404
6.0474343,0.06810174,7.9679036,1087.0,2017-01-04 15:27:21,52.95066690243981
6.0474343,0.14982383,7.9679036,1054.0,2017-01-04 15:27:22,52.87013900758666
6.0474343,0.06810174,7.804459,1057.0,2017-01-04 15:27:23,52.888372561722726
6.0882955,0.10896278,7.9679036,995.0,2017-01-04 15:27:24,52.905996051492245
6.0882955,0.14982383,7.84532,1019.0,2017-01-04 15:27:25,52.88657783039223
6.0474343,0.14982383,7.9270425,1028.0,2017-01-04 15:27:26,52.885104651559146
6.0474343,0.10896278,7.9679036,1033.0,2017-01-04 15:27:27,53.066551870287064
5.9248514,0.14982383,7.8861814,1052.0,2017-01-04 15:27:28,52.97295204629069
6.0474343,0.14982383,7.9270425,1097.0,2017-01-04 15:27:29,53.003857953034846
6.006573,0.19068487,8.036005,782.0,2017-01-04 15:27:30,52.97085388395858
6.006573,0.10896278,7.9270425,745.0,2017-01-04 15:27:31,52.93989107421254
6.0474343,0.06810174,7.8861814,890.0,2017-01-04 15:27:32,53.136034185317385
6.006573,0.19068487,7.84532,1020.0,2017-01-04 15:27:33,52.96022582478373
6.0882955,0.06810174,7.8861814,1064.0,2017-01-04 15:27:34,52.943553563466054
5.965712,0.14982383,7.804459,1078.0,2017-01-04 15:27:35,52.91577610037565
6.0882955,0.10896278,7.9679036,1094.0,2017-01-04 15:27:36,52.97026146895227
6.0474343,0.10896278,7.9679036,1089.0,2017-01-04 15:27:37,52.88957349229047
6.0882955,0.14982383,7.8861814,1106.0,2017-01-04 15:27:38,52.89744902451784
6.0882955,0.19068487,7.8861814,1107.0,2017-01-04 15:27:40,52.943065140058195
6.1291566,0.14982383,7.9270425,1105.0,2017-01-04 15:27:41,52.93330385476959
6.006573,0.14982383,7.804459,1092.0,2017-01-04 15:27:42,52.902780029620935
6.006573,0.10896278,7.8861814,1086.0,2017-01-04 15:27:43,52.90038700253656
6.0474343,0.10896278,7.9270425,1059.0,2017-01-04 15:27:44,52.934531398316125
6.0882955,0.14982383,7.8861814,1071.0,2017-01-04 15:27:45,52.92271689785625
6.0882955,0.06810174,7.84532,1064.0,2017-01-04 15:27:46,52.976631950207235
6.006573,0.10896278,7.8861814,1063.0,2017-01-04 15:27:47,53.02702051021544
6.0882955,0.10896278,7.8861814,1062.0,2017-01-04 15:27:48,53.03056296194781
6.0882955,0.19068487,7.9270425,1079.0,2017-01-04 15:27:49,52.96029271067812
6.0474343,0.10896278,7.8861814,810.0,2017-01-04 15:27:50,52.90831995056915
6.0474343,0.10896278,7.763598,700.0,2017-01-04 15:27:51,52.9169349416584
6.0882955,0.06810174,7.84532,849.0,2017-01-04 15:27:52,52.94097170543382
6.0474343,0.14982383,7.84532,1055.0,2017-01-04 15:27:53,52.89211857130866
6.006573,0.10896278,7.84532,1074.0,2017-01-04 15:27:54,52.890673559569734
6.0474343,0.21792556,7.8861814,1088.0,2017-01-04 15:27:55,52.93201084461279
6.006573,0.14982383,7.8861814,1081.0,2017-01-04 15:27:56,53.71442023764612
6.0474343,0.14982383,7.9679036,1088.0,2017-01-04 15:27:57,53.02024391646253
6.0474343,0.06810174,7.9270425,1086.0,2017-01-04 15:27:58,52.87010760096842
6.0882955,0.14982383,7.9270425,1089.0,2017-01-04 15:27:59,52.90711893821659
6.0474343,0.10896278,7.9679036,1085.0,2017-01-04 15:28:01,52.948231590346296
6.006573,0.10896278,7.84532,1086.0,2017-01-04 15:28:02,52.97998104726184
6.0882955,0.10896278,7.8861814,1079.0,2017-01-04 15:28:03,52.93014281939848
6.0882955,0.10896278,7.8861814,1053.0,2017-01-04 15:28:04,52.937394548015355
6.0882955,0.10896278,7.84532,1061.0,2017-01-04 15:28:05,52.9367240474529
6.0882955,0.14982383,7.84532,1062.0,2017-01-04 15:28:06,52.91710203129976
6.0882955,0.14982383,7.8861814,1058.0,2017-01-04 15:28:07,52.98411460461922
6.0882955,0.14982383,7.9679036,1057.0,2017-01-04 15:28:08,52.95153932902586
6.1291566,0.14982383,7.9679036,1054.0,2017-01-04 15:28:09,52.93460407576325
6.006573,0.14982383,7.84532,1072.0,2017-01-04 15:28:10,52.89485271310086
6.0474343,0.06810174,7.84532,1010.0,2017-01-04 15:28:11,52.95159199060441
6.0474343,0.14982383,7.804459,814.0,2017-01-04 15:28:12,52.920016356089626
6.0474343,0.19068487,7.9679036,731.0,2017-01-04 15:28:13,52.937408306319014
6.0474343,0.14982383,7.9270425,596.0,2017-01-04 15:28:14,53.058180112604525
6.0882955,0.14982383,7.804459,520.0,2017-01-04 15:28:15,52.909954985525474
6.0882955,0.19068487,7.995144,832.0,2017-01-04 15:28:16,52.90564484817439
6.0474343,0.10896278,7.9679036,857.0,2017-01-04 15:28:17,52.880175380788714
6.0882955,0.14982383,7.8861814,883.0,2017-01-04 15:28:18,52.91225685638382
6.0882955,0.10896278,7.84532,886.0,2017-01-04 15:28:19,52.91976861556699
6.0474343,0.10896278,7.9270425,683.0,2017-01-04 15:28:20,52.97137098794042
6.1291566,0.14982383,7.9270425,685.0,2017-01-04 15:28:21,52.90174794862768
6.0474343,0.19068487,7.9679036,708.0,2017-01-04 15:28:22,52.99644164572137
5.8976107,0.19068487,7.84532,702.0,2017-01-04 15:28:24,53.01228801043274
6.006573,0.25878662,7.9679036,632.0,2017-01-04 15:28:25,53.004276434390185
6.1291566,0.14982383,7.9679036,648.0,2017-01-04 15:28:26,53.04552735369746
6.1291566,0.19068487,7.84532,638.0,2017-01-04 15:28:27,52.98154595333763
6.0882955,0.10896278,7.995144,633.0,2017-01-04 15:28:28,53.148453969961295
6.0474343,0.14982383,7.84532,650.0,2017-01-04 15:28:29,53.00976587730589
6.0882955,0.19068487,7.8861814,649.0,2017-01-04 15:28:30,53.00826631229487
6.0882955,0.10896278,7.8861814,668.0,2017-01-04 15:28:31,52.936177391046144
6.0882955,0.06810174,7.9270425,827.0,2017-01-04 15:28:32,52.97980021490573
6.0882955,0.19068487,7.8861814,1034.0,2017-01-04 15:28:33,52.969111933638274
6.0882955,0.14982383,7.8861814,1112.0,2017-01-04 15:28:34,52.985252199415804
6.0474343,0.14982383,7.9270425,1099.0,2017-01-04 15:28:35,53.57353441806392
6.0882955,0.10896278,7.8861814,1096.0,2017-01-04 15:28:36,54.08445778323663
5.965712,0.14982383,7.9270425,1088.0,2017-01-04 15:28:37,52.88604647171836
6.0882955,0.06810174,7.84532,1073.0,2017-01-04 15:28:38,52.9117088901498
6.0474343,0.06810174,7.8861814,1048.0,2017-01-04 15:28:39,52.90602620047811
6.0882955,0.19068487,7.9679036,1074.0,2017-01-04 15:28:40,52.90783471330134
6.0474343,0.10896278,7.9270425,1071.0,2017-01-04 15:28:41,52.884707051182644
6.0882955,0.14982383,7.8861814,1071.0,2017-01-04 15:28:42,52.93499691860427
6.0882955,0.10896278,7.84532,1070.0,2017-01-04 15:28:43,52.92633949804027
6.0474343,0.10896278,7.804459,1069.0,2017-01-04 15:28:44,52.99034568528222
6.0882955,0.14982383,7.9270425,1081.0,2017-01-04 15:28:45,52.97981208839957
6.0882955,0.06810174,7.804459,1032.0,2017-01-04 15:28:46,52.879991699301826
6.0474343,0.14982383,7.9679036,1025.0,2017-01-04 15:28:47,52.889977580296005
6.0474343,0.10896278,7.804459,1031.0,2017-01-04 15:28:48,52.95018022447488
6.006573,0.14982383,7.84532,1031.0,2017-01-04 15:28:49,52.92610729585838
6.1291566,0.10896278,7.9679036,1020.0,2017-01-04 15:28:50,52.90069522294169
6.006573,0.10896278,7.84532,1022.0,2017-01-04 15:28:51,52.8855737539849
6.0882955,0.06810174,7.84532,1025.0,2017-01-04 15:28:52,52.89059560915928
6.0882955,0.10896278,7.9270425,1014.0,2017-01-04 15:28:54,52.94433298895154
6.0474343,0.10896278,7.8861814,1009.0,2017-01-04 15:28:55,52.988068900979705
6.0474343,0.14982383,7.8861814,1027.0,2017-01-04 15:28:56,53.19391000046022
6.0474343,0.14982383,7.8861814,940.0,2017-01-04 15:28:57,52.98154603872423
6.0882955,0.19068487,7.8861814,718.0,2017-01-04 15:28:58,53.00523951458735
6.0882955,0.14982383,7.9679036,492.0,2017-01-04 15:28:59,52.983561207301676
6.2789803,0.10896278,7.84532,331.0,2017-01-04 15:29:00,52.93185257586792
6.006573,0.14982383,7.84532,698.0,2017-01-04 15:29:01,52.94681128600275
6.0882955,0.10896278,7.84532,1011.0,2017-01-04 15:29:02,53.25944145508875
6.006573,0.14982383,7.8861814,1092.0,2017-01-04 15:29:03,53.68475474631006
6.006573,0.10896278,7.8861814,1079.0,2017-01-04 15:29:04,52.92747123027438
6.0474343,0.14982383,7.9270425,1096.0,2017-01-04 15:29:05,53.957769746161006
6.0882955,0.14982383,8.036005,1083.0,2017-01-04 15:29:06,53.06772834860495
6.0474343,0.14982383,7.9270425,1089.0,2017-01-04 15:29:07,52.90406573323651
6.0474343,0.10896278,7.84532,1083.0,2017-01-04 15:29:08,53.01693890664356
6.006573,0.14982383,7.9270425,1078.0,2017-01-04 15:29:09,52.96601996708108
6.0882955,0.06810174,7.9679036,1081.0,2017-01-04 15:29:10,53.063991819036204
6.0474343,0.06810174,7.9679036,1088.0,2017-01-04 15:29:11,53.1567788991605
6.0882955,0.14982383,7.9270425,1086.0,2017-01-04 15:29:12,53.121695974506025
6.006573,0.06810174,7.84532,1093.0,2017-01-04 15:29:13,53.01055009287906
6.0882955,0.14982383,7.9270425,1094.0,2017-01-04 15:29:14,52.95640818973199
6.1291566,0.06810174,7.804459,1095.0,2017-01-04 15:29:16,52.89574130011832
6.1291566,0.10896278,7.9679036,1096.0,2017-01-04 15:29:17,52.88825880151688
6.006573,0.19068487,7.804459,1090.0,2017-01-04 15:29:18,52.934214175504096
6.006573,0.19068487,7.9270425,1099.0,2017-01-04 15:29:19,52.93850934683974
6.1291566,0.10896278,7.995144,1094.0,2017-01-04 15:29:20,52.98312216017695
6.0474343,0.10896278,7.9270425,1101.0,2017-01-04 15:29:21,52.94058797917694
6.1563973,0.10896278,7.9679036,1103.0,2017-01-04 15:29:22,53.180707324563826
6.0474343,0.14982383,7.804459,1105.0,2017-01-04 15:29:23,53.030590527700596
6.006573,0.06810174,7.9679036,1111.0,2017-01-04 15:29:24,52.88151318498699
6.0474343,0.06810174,7.763598,1110.0,2017-01-04 15:29:25,52.89822136150583
6.0882955,0.14982383,7.84532,1113.0,2017-01-04 15:29:26,52.89565364276007
6.1291566,0.14982383,7.8861814,1113.0,2017-01-04 15:29:27,52.897404103313505
6.0474343,0.14982383,7.9270425,1115.0,2017-01-04 15:29:28,52.89140734963532
6.006573,0.10896278,7.804459,1106.0,2017-01-04 15:29:29,53.00641361530988
6.0474343,0.14982383,7.8861814,1101.0,2017-01-04 15:29:30,52.88983442921479
6.006573,0.19068487,7.9270425,1090.0,2017-01-04 15:29:31,52.94413154634096
5.965712,0.10896278,7.9270425,1087.0,2017-01-04 15:29:32,52.94289047443888
5.965712,0.14982383,7.8861814,1090.0,2017-01-04 15:29:33,52.977739885820334
6.0474343,0.14982383,7.84532,1082.0,2017-01-04 15:29:34,52.97948739217305
5.965712,0.19068487,7.3141265,1089.0,2017-01-04 15:29:35,53.15372545730945
6.0474343,0.10896278,7.84532,1091.0,2017-01-04 15:29:36,52.94765815448812
6.0882955,0.14982383,7.8861814,1092.0,2017-01-04 15:29:37,52.940302187965216
6.1291566,0.14982383,7.9270425,1093.0,2017-01-04 15:29:38,52.89508219360933
6.0882955,0.027240695,7.9270425,1095.0,2017-01-04 15:29:39,53.05578354792783
6.006573,0.14982383,7.84532,1100.0,2017-01-04 15:29:40,53.77408749018745
6.0474343,0.14982383,7.8861814,1105.0,2017-01-04 15:29:41,53.438811688655974
6.0474343,0.10896278,7.9270425,1102.0,2017-01-04 15:29:42,52.90426700020007
5.965712,0.14982383,7.84532,1100.0,2017-01-04 15:29:44,52.950774481955904
6.0882955,0.14982383,7.9270425,1103.0,2017-01-04 15:29:45,52.94719816358885
6.0882955,0.10896278,7.9679036,1101.0,2017-01-04 15:29:46,52.96029292519183
6.0474343,0.14982383,7.804459,1103.0,2017-01-04 15:29:47,53.0460858250943
6.0474343,0.06810174,7.804459,1104.0,2017-01-04 15:29:48,52.89568368944579
6.0882955,0.14982383,7.8861814,1099.0,2017-01-04 15:29:49,52.96362154564912
6.0882955,0.14982383,7.9679036,1109.0,2017-01-04 15:29:50,53.065148470154675
6.0474343,0.14982383,7.9270425,1103.0,2017-01-04 15:29:51,53.51606069719598
5.965712,0.14982383,7.9679036,1114.0,2017-01-04 15:29:52,54.25468945714432
6.0474343,0.10896278,7.8861814,1114.0,2017-01-04 15:29:53,53.62848723846592
6.0474343,0.19068487,7.84532,1108.0,2017-01-04 15:29:54,53.7353714146702
6.0474343,0.14982383,7.84532,1112.0,2017-01-04 15:29:55,53.01013251253159
5.965712,0.14982383,7.9270425,1111.0,2017-01-04 15:29:56,53.138344716373425
6.0882955,0.14982383,7.8861814,1109.0,2017-01-04 15:29:57,52.89660158083188
6.0474343,0.14982383,7.8861814,1111.0,2017-01-04 15:29:58,53.034465046430064
6.0474343,0.10896278,7.9270425,1110.0,2017-01-04 15:29:59,52.94695515340603
6.0474343,0.06810174,7.9270425,1107.0,2017-01-04 15:30:00,52.943196296182734
6.006573,0.10896278,7.9270425,1107.0,2017-01-04 15:30:01,52.88224839326257
6.0882955,0.14982383,7.8861814,1108.0,2017-01-04 15:30:02,52.989350828403786
6.0474343,0.14982383,7.995144,1106.0,2017-01-04 15:30:03,52.901047218163825
6.006573,0.19068487,7.9270425,1106.0,2017-01-04 15:30:04,52.91607139827956
6.1291566,0.10896278,7.8861814,1101.0,2017-01-04 15:30:05,52.89181131063873
6.1563973,0.10896278,7.9270425,1099.0,2017-01-04 15:30:07,52.96859391827808
6.0474343,0.06810174,7.84532,1100.0,2017-01-04 15:30:08,53.00020709248926
6.0474343,0.10896278,7.8861814,1100.0,2017-01-04 15:30:09,52.96858882259776
6.006573,0.14982383,7.84532,1094.0,2017-01-04 15:30:10,52.98079273546719
6.0474343,0.19068487,7.9679036,1095.0,2017-01-04 15:30:11,52.969559291957495
6.0474343,0.14982383,7.84532,1099.0,2017-01-04 15:30:12,52.969917864607666
5.965712,0.14982383,7.804459,1102.0,2017-01-04 15:30:13,52.903142375923515
6.0882955,0.06810174,7.8861814,1102.0,2017-01-04 15:30:14,52.924417770145986
6.0474343,0.14982383,7.9270425,1096.0,2017-01-04 15:30:15,52.94351893631399
6.0882955,0.14982383,7.84532,1101.0,2017-01-04 15:30:16,53.034471752446834
6.0474343,0.19068487,7.84532,1093.0,2017-01-04 15:30:17,53.01179517360616
6.006573,0.06810174,7.9679036,1072.0,2017-01-04 15:30:18,52.89489265203014
6.0882955,0.10896278,7.8861814,1076.0,2017-01-04 15:30:19,52.89854344355021
6.0882955,0.19068487,7.8861814,1082.0,2017-01-04 15:30:20,52.88802944001701
6.1291566,0.14982383,7.84532,1078.0,2017-01-04 15:30:21,53.03983788453866
6.0882955,0.14982383,7.8861814,1076.0,2017-01-04 15:30:22,52.92827857168784
6.0474343,0.10896278,7.84532,1037.0,2017-01-04 15:30:23,53.21010179976011
6.0882955,0.21792556,7.9679036,1025.0,2017-01-04 15:30:24,52.91711377413185
6.0474343,0.14982383,7.8861814,1025.0,2017-01-04 15:30:25,52.93122963624871
6.1291566,0.10896278,7.84532,1018.0,2017-01-04 15:30:26,52.9321836597217
6.0474343,0.14982383,7.84532,1028.0,2017-01-04 15:30:27,52.90994296290266
6.0474343,0.10896278,7.9679036,1048.0,2017-01-04 15:30:28,52.93706877832983
6.0474343,0.10896278,7.9270425,1039.0,2017-01-04 15:30:30,52.99174973861153
6.0882955,0.14982383,7.8861814,1054.0,2017-01-04 15:30:31,53.07848128467568
6.0474343,0.14982383,7.804459,1040.0,2017-01-04 15:30:32,52.99118730273754
6.0474343,0.10896278,7.84532,1026.0,2017-01-04 15:30:33,52.903254268960254
6.0882955,0.19068487,7.9679036,1034.0,2017-01-04 15:30:34,52.943066346109575
6.0474343,0.10896278,7.84532,1032.0,2017-01-04 15:30:35,52.90243834870701
6.1291566,0.06810174,7.9679036,1035.0,2017-01-04 15:30:36,52.88329149395467
6.0474343,0.21792556,7.8861814,1038.0,2017-01-04 15:30:37,52.99056148379211
6.1291566,0.10896278,7.763598,1035.0,2017-01-04 15:30:38,53.10152052428421
5.965712,0.14982383,7.9270425,1029.0,2017-01-04 15:30:39,52.88342106151127
6.1291566,0.19068487,7.9270425,1030.0,2017-01-04 15:30:40,52.922319523518134
5.965712,0.14982383,7.9679036,1015.0,2017-01-04 15:30:41,52.91907754358317
6.0474343,0.29964766,7.84532,1021.0,2017-01-04 15:30:42,52.92231281518794
6.0882955,0.14982383,7.9270425,1011.0,2017-01-04 15:30:43,52.967667005586776
6.0882955,0.10896278,8.117727,1027.0,2017-01-04 15:30:44,52.92415349524905
6.006573,0.14982383,7.9270425,1031.0,2017-01-04 15:30:45,52.89737607085364
6.006573,0.21792556,7.9270425,1020.0,2017-01-04 15:30:46,52.874662341626106
5.965712,0.14982383,7.9679036,1028.0,2017-01-04 15:30:47,53.181078444407106
5.965712,0.19068487,7.9679036,1043.0,2017-01-04 15:30:48,53.06900367533363
6.0474343,0.10896278,7.804459,1049.0,2017-01-04 15:30:49,52.894907503817464
6.0882955,0.14982383,7.9679036,1040.0,2017-01-04 15:30:50,52.92806721990296
6.0474343,0.19068487,7.8861814,1051.0,2017-01-04 15:30:51,53.02294270516708
6.006573,0.19068487,7.9679036,1040.0,2017-01-04 15:30:52,52.88508854395097
6.0474343,0.21792556,7.9679036,1040.0,2017-01-04 15:30:54,52.88308370616278
6.0474343,0.10896278,7.9270425,1049.0,2017-01-04 15:30:55,52.882656439118435
6.0474343,0.10896278,7.9270425,1041.0,2017-01-04 15:30:56,52.91858185464267
6.197258,0.0,7.804459,1046.0,2017-01-04 15:30:57,52.909811796963766
6.0474343,0.14982383,7.8861814,1040.0,2017-01-04 15:30:58,52.88524289515966
6.006573,0.14982383,7.8861814,1048.0,2017-01-04 15:30:59,52.90760347378463
6.006573,0.027240695,7.9270425,1044.0,2017-01-04 15:31:00,52.88398282556523
6.0882955,0.10896278,7.9270425,1029.0,2017-01-04 15:31:01,52.88395601624642
6.0474343,0.14982383,7.8861814,974.0,2017-01-04 15:31:02,52.97213495491171
6.238119,0.06810174,7.6546354,271.0,2017-01-04 15:31:03,52.8859065079389
6.1291566,0.06810174,7.9270425,638.0,2017-01-04 15:31:04,52.889901535959474
6.0474343,0.14982383,7.995144,1043.0,2017-01-04 15:31:05,52.88453692053412
6.0474343,0.14982383,7.8861814,1112.0,2017-01-04 15:31:06,52.91579694916179
6.1291566,0.19068487,7.9270425,1175.0,2017-01-04 15:31:07,52.927746628452184
6.0474343,0.10896278,7.9270425,1040.0,2017-01-04 15:31:08,52.99810547253802
6.0882955,0.14982383,7.84532,1044.0,2017-01-04 15:31:09,52.97472662302371
6.006573,0.14982383,7.84532,1025.0,2017-01-04 15:31:10,52.89137151960099
6.006573,0.10896278,7.9270425,1076.0,2017-01-04 15:31:11,52.89013062420739
6.0882955,0.14982383,7.84532,1048.0,2017-01-04 15:31:12,52.935366079944615
6.0474343,0.14982383,7.804459,1077.0,2017-01-04 15:31:13,52.94490699316366
6.0474343,0.10896278,7.995144,1042.0,2017-01-04 15:31:14,52.91541593371648
6.006573,0.14982383,7.9270425,1037.0,2017-01-04 15:31:15,52.88820519185927
6.0882955,0.10896278,7.763598,1015.0,2017-01-04 15:31:16,52.93986046972429
5.965712,0.10896278,7.9679036,1019.0,2017-01-04 15:31:17,53.11431922763424
6.0882955,0.14982383,7.9679036,1037.0,2017-01-04 15:31:18,52.887471471302035
6.0474343,0.10896278,7.9679036,1097.0,2017-01-04 15:31:20,52.92448655079327
6.0474343,0.14982383,7.9270425,1097.0,2017-01-04 15:31:21,52.989861814544284
6.006573,0.19068487,7.9270425,1095.0,2017-01-04 15:31:22,52.90323518561983
6.0882955,0.10896278,7.7363577,1097.0,2017-01-04 15:31:23,52.89909503135644
6.0474343,0.19068487,7.9679036,1096.0,2017-01-04 15:31:24,52.87430522559221
6.0882955,0.14982383,7.9270425,1094.0,2017-01-04 15:31:25,52.894550872674564
6.0474343,0.10896278,7.9270425,1084.0,2017-01-04 15:31:26,52.88702316850482
6.0882955,0.14982383,7.8861814,1087.0,2017-01-04 15:31:27,52.92007338507411
6.0882955,0.14982383,7.8861814,1075.0,2017-01-04 15:31:28,52.89692182401992
6.006573,0.027240695,8.076866,1065.0,2017-01-04 15:31:29,52.94796359767251
6.0882955,0.21792556,7.804459,1084.0,2017-01-04 15:31:30,52.90107231298972
6.0474343,0.14982383,7.8861814,1086.0,2017-01-04 15:31:31,52.89199035254867
6.1291566,0.19068487,7.804459,1082.0,2017-01-04 15:31:32,52.89007677603871
6.006573,0.14982383,7.8861814,1079.0,2017-01-04 15:31:33,52.94831191178765
5.965712,0.14982383,7.8861814,1078.0,2017-01-04 15:31:34,52.909932285744034
6.0882955,0.10896278,7.9270425,1077.0,2017-01-04 15:31:35,53.07921495366032
6.1291566,0.10896278,7.8861814,1097.0,2017-01-04 15:31:36,52.92694160921222
6.0882955,0.06810174,7.9679036,1087.0,2017-01-04 15:31:37,52.88281192498917
6.006573,0.027240695,8.036005,1074.0,2017-01-04 15:31:38,52.93107358503499
6.006573,0.14982383,7.9270425,1080.0,2017-01-04 15:31:39,52.87292501399625
6.0474343,0.14982383,7.995144,705.0,2017-01-04 15:31:40,52.8803077944579
6.0882955,0.10896278,7.8861814,697.0,2017-01-04 15:31:41,52.92609531786721
6.006573,0.10896278,7.8861814,721.0,2017-01-04 15:31:42,52.97159367931951
6.0474343,0.19068487,7.995144,627.0,2017-01-04 15:31:44,53.093715378559324
6.0882955,0.14982383,7.8861814,650.0,2017-01-04 15:31:45,53.024582800330776
6.006573,0.19068487,7.804459,782.0,2017-01-04 15:31:46,52.940588453253206
6.0882955,0.10896278,7.9270425,929.0,2017-01-04 15:31:47,53.29409388934032
6.1291566,0.14982383,7.84532,770.0,2017-01-04 15:31:48,53.727279840342874
6.0882955,0.21792556,7.9270425,761.0,2017-01-04 15:31:49,53.34248756717662
6.0474343,0.06810174,7.9679036,796.0,2017-01-04 15:31:50,52.99771910534137
6.0882955,0.14982383,7.8861814,789.0,2017-01-04 15:31:51,52.93518903313238
6.006573,0.10896278,7.8861814,732.0,2017-01-04 15:31:52,52.92569219812003
6.0882955,0.19068487,7.8861814,757.0,2017-01-04 15:31:53,52.90166523935467
6.0474343,0.06810174,7.7363577,783.0,2017-01-04 15:31:54,52.87045582064497
6.0474343,0.14982383,7.84532,784.0,2017-01-04 15:31:55,53.253107045866166
6.0474343,0.027240695,7.9679036,802.0,2017-01-04 15:31:56,52.94751104015366
6.1291566,0.14982383,7.8861814,773.0,2017-01-04 15:31:57,53.66696986311933
6.0474343,0.14982383,7.9270425,782.0,2017-01-04 15:31:58,53.64460688709052
6.0474343,0.14982383,7.84532,770.0,2017-01-04 15:31:59,53.064595167363926
6.0882955,0.10896278,7.804459,742.0,2017-01-04 15:32:00,53.00948863234054
6.0882955,0.19068487,7.84532,772.0,2017-01-04 15:32:01,53.232491021367835
6.0882955,0.14982383,7.9270425,762.0,2017-01-04 15:32:02,53.2211198424309
6.1291566,0.10896278,7.804459,767.0,2017-01-04 15:32:03,53.034108853488476
6.0474343,0.14982383,7.995144,764.0,2017-01-04 15:32:04,52.872403627619356
6.006573,0.06810174,7.804459,771.0,2017-01-04 15:32:05,52.89144474855295
5.965712,0.10896278,7.9679036,997.0,2017-01-04 15:32:06,53.028891888843816
6.0882955,0.19068487,7.84532,1035.0,2017-01-04 15:32:07,53.610332874967895
6.0474343,0.14982383,7.84532,1020.0,2017-01-04 15:32:08,52.93630789253459
6.1291566,0.10896278,7.84532,1037.0,2017-01-04 15:32:09,53.00490019533971
6.0882955,0.06810174,7.804459,999.0,2017-01-04 15:32:10,52.90647098230466
6.0474343,0.10896278,7.84532,990.0,2017-01-04 15:32:12,52.88749834618439
6.006573,0.21792556,7.84532,1027.0,2017-01-04 15:32:13,53.28000186716996
6.0474343,0.21792556,7.9679036,1025.0,2017-01-04 15:32:14,52.9737626540308
6.0474343,0.19068487,7.84532,1030.0,2017-01-04 15:32:15,52.898318193168244
6.0882955,0.10896278,7.84532,1043.0,2017-01-04 15:32:16,52.9464288501039
6.0474343,0.10896278,7.995144,1043.0,2017-01-04 15:32:17,52.88451395653346
6.006573,0.10896278,7.9270425,1035.0,2017-01-04 15:32:18,52.9147914555726
5.965712,0.14982383,7.8861814,1013.0,2017-01-04 15:32:19,52.92088509004449
6.0474343,0.10896278,7.763598,1005.0,2017-01-04 15:32:20,52.885564238872036
6.0474343,0.10896278,7.9679036,1005.0,2017-01-04 15:32:21,52.93515835233929
6.0882955,0.14982383,7.804459,1011.0,2017-01-04 15:32:22,52.88919003831312
6.0474343,0.10896278,7.84532,1007.0,2017-01-04 15:32:23,52.90070640128369
6.006573,0.14982383,7.8861814,1018.0,2017-01-04 15:32:24,53.16577091202258
5.965712,0.19068487,7.84532,1031.0,2017-01-04 15:32:25,52.8829232948738
6.0882955,0.19068487,7.9679036,1036.0,2017-01-04 15:32:26,52.87010322066888
6.1291566,0.10896278,7.8861814,1032.0,2017-01-04 15:32:27,52.87019687051037
6.0474343,0.10896278,7.804459,1038.0,2017-01-04 15:32:28,53.00645084339693
6.0882955,0.10896278,7.84532,1037.0,2017-01-04 15:32:29,52.9193510492163
6.0474343,0.14982383,7.8861814,1040.0,2017-01-04 15:32:30,52.886030367602935
5.965712,0.14982383,7.84532,1039.0,2017-01-04 15:32:31,52.89146183513074
6.0882955,0.21792556,7.9270425,1038.0,2017-01-04 15:32:32,53.530024546278916
6.1563973,0.14982383,7.763598,1035.0,2017-01-04 15:32:34,52.902102336984214
6.1291566,0.14982383,7.8861814,1035.0,2017-01-04 15:32:35,52.88451212290079
6.0882955,0.14982383,7.9679036,1053.0,2017-01-04 15:32:36,52.874353187006804
6.0882955,0.19068487,7.995144,1049.0,2017-01-04 15:32:37,52.93952307327573
5.9248514,0.19068487,7.9270425,1045.0,2017-01-04 15:32:38,52.865732064872624
6.0474343,0.14982383,7.9679036,1090.0,2017-01-04 15:32:39,52.89504952963486
6.0882955,0.06810174,7.9270425,1092.0,2017-01-04 15:32:40,52.90055433856976
6.0882955,0.06810174,7.9270425,1086.0,2017-01-04 15:32:41,53.146192137330175
6.0882955,0.10896278,7.804459,1079.0,2017-01-04 15:32:42,52.89867355774803
6.0474343,0.21792556,7.8861814,1086.0,2017-01-04 15:32:43,52.87955997570344
5.965712,0.14982383,7.9270425,1088.0,2017-01-04 15:32:44,52.900230796121484
6.0882955,0.19068487,7.804459,1084.0,2017-01-04 15:32:45,53.025674514823535
6.006573,0.10896278,7.9679036,1080.0,2017-01-04 15:32:46,52.91059235389464
6.0474343,0.10896278,7.8861814,1084.0,2017-01-04 15:32:47,52.89591852543793
6.0474343,0.14982383,7.84532,1083.0,2017-01-04 15:32:48,52.930067043089686
6.0474343,0.06810174,7.9270425,1081.0,2017-01-04 15:32:49,52.90582080093743
6.1291566,0.10896278,7.8861814,1083.0,2017-01-04 15:32:50,53.172678752592944
5.9248514,0.10896278,7.804459,1084.0,2017-01-04 15:32:51,52.90575472173564
6.006573,0.14982383,7.8861814,1077.0,2017-01-04 15:32:52,52.897491377127004
5.965712,0.19068487,7.8861814,1082.0,2017-01-04 15:32:53,52.8807041810157
6.0882955,0.14982383,7.8861814,1080.0,2017-01-04 15:32:54,52.89775814989517
6.0882955,0.06810174,7.9270425,1081.0,2017-01-04 15:32:55,52.92712041920225
6.006573,0.10896278,7.804459,1079.0,2017-01-04 15:32:56,52.9053011766633
5.965712,0.14982383,7.8861814,908.0,2017-01-04 15:32:57,52.94404645362402
6.006573,0.19068487,7.9679036,1054.0,2017-01-04 15:32:58,52.87909581840768
6.0882955,0.10896278,7.9270425,1002.0,2017-01-04 15:32:59,52.8971561577637
6.1291566,0.10896278,7.9679036,1048.0,2017-01-04 15:33:01,52.89157673190285
6.0882955,0.10896278,7.9679036,1047.0,2017-01-04 15:33:02,52.893014733047885
6.0882955,0.06810174,7.9270425,1049.0,2017-01-04 15:33:03,52.90243882696604
5.965712,0.14982383,7.8861814,1044.0,2017-01-04 15:33:04,52.93493835909427
6.0882955,0.21792556,7.9679036,1030.0,2017-01-04 15:33:05,52.88990371614821
6.006573,0.19068487,7.8861814,1037.0,2017-01-04 15:33:06,52.92065411140765
6.0882955,0.10896278,8.076866,1036.0,2017-01-04 15:33:07,52.89174458207973
6.0882955,0.10896278,7.8861814,1033.0,2017-01-04 15:33:08,52.90058187205887
6.0474343,0.14982383,7.6954966,1035.0,2017-01-04 15:33:09,52.87699138653504
6.0882955,0.14982383,7.804459,1046.0,2017-01-04 15:33:10,52.98111191153123
6.0474343,0.10896278,7.84532,1064.0,2017-01-04 15:33:11,52.900195647816275
5.965712,0.14982383,7.9270425,1064.0,2017-01-04 15:33:12,52.87888660576595
6.0474343,0.10896278,7.8861814,1063.0,2017-01-04 15:33:13,52.91041346966849
6.0882955,0.14982383,7.9679036,1057.0,2017-01-04 15:33:14,52.918023075552405
6.006573,0.10896278,7.9270425,1059.0,2017-01-04 15:33:15,52.892500415905516
6.006573,0.0,7.8861814,1056.0,2017-01-04 15:33:16,52.92006511440221
6.0474343,0.14982383,7.804459,1052.0,2017-01-04 15:33:17,52.959507219096736
6.006573,0.14982383,7.8861814,1048.0,2017-01-04 15:33:18,52.933000314552984
6.0474343,0.14982383,7.9270425,1050.0,2017-01-04 15:33:19,52.888436855858494
5.965712,0.19068487,7.9270425,1042.0,2017-01-04 15:33:20,52.96747345269302
6.1291566,0.14982383,7.9270425,1042.0,2017-01-04 15:33:21,52.92404555710466
6.006573,0.06810174,7.8861814,1048.0,2017-01-04 15:33:22,52.92107363050938
6.1291566,0.10896278,7.9270425,1043.0,2017-01-04 15:33:23,52.91047097207314
6.0474343,0.10896278,7.8861814,1047.0,2017-01-04 15:33:25,52.885328667710674
6.0474343,0.10896278,7.804459,1060.0,2017-01-04 15:33:26,52.89811765131294
6.0474343,0.21792556,7.8861814,1049.0,2017-01-04 15:33:27,52.895922444343604
6.0882955,0.14982383,7.9679036,1059.0,2017-01-04 15:33:28,52.93891959977353
6.0474343,0.10896278,7.8861814,1068.0,2017-01-04 15:33:29,52.91593049171539
6.0474343,0.21792556,7.9679036,1064.0,2017-01-04 15:33:30,52.877448990798655
6.0474343,0.14982383,7.9270425,1000.0,2017-01-04 15:33:31,52.88950010095563
6.006573,0.19068487,7.84532,1013.0,2017-01-04 15:33:32,52.89020404848863
6.0882955,0.10896278,7.9679036,1005.0,2017-01-04 15:33:33,52.923712035081735
6.0882955,0.10896278,7.9679036,987.0,2017-01-04 15:33:34,52.903718546446555
6.0474343,0.10896278,7.9270425,1001.0,2017-01-04 15:33:35,52.950707535304026
6.0882955,0.10896278,7.8861814,996.0,2017-01-04 15:33:36,52.89995129833194
6.0474343,0.14982383,7.8861814,994.0,2017-01-04 15:33:37,52.90730716523033
6.0882955,0.10896278,7.84532,985.0,2017-01-04 15:33:38,52.919048178058944
6.006573,0.19068487,7.9270425,990.0,2017-01-04 15:33:39,52.94837502352234
6.006573,0.14982383,7.9270425,1004.0,2017-01-04 15:33:40,53.01570072185123
6.0474343,0.14982383,7.9270425,1003.0,2017-01-04 15:33:41,52.99350507192156
6.0474343,0.06810174,7.995144,1011.0,2017-01-04 15:33:42,52.9564851825067
6.0882955,0.19068487,7.8861814,1000.0,2017-01-04 15:33:43,52.96514290241645
6.0474343,0.19068487,7.9270425,1006.0,2017-01-04 15:33:44,52.95014874634066
6.006573,0.14982383,7.9270425,1025.0,2017-01-04 15:33:45,52.923547622532176
6.006573,0.10896278,7.804459,1020.0,2017-01-04 15:33:46,52.929373243898695
6.0474343,0.14982383,7.8861814,1032.0,2017-01-04 15:33:47,53.24517219272554
6.006573,0.14982383,7.9679036,1027.0,2017-01-04 15:33:49,53.06599841130684
6.0474343,0.19068487,7.9679036,1016.0,2017-01-04 15:33:50,52.89026722551376
6.006573,0.19068487,7.84532,1010.0,2017-01-04 15:33:51,52.93969804680252
6.006573,0.06810174,7.84532,1011.0,2017-01-04 15:33:52,53.13407519850719
6.0882955,0.14982383,7.8861814,1005.0,2017-01-04 15:33:53,52.973224147790845
6.1291566,0.10896278,7.8861814,517.0,2017-01-04 15:33:54,52.991919681805
5.965712,0.10896278,7.9270425,1000.0,2017-01-04 15:33:55,52.898844005800626
6.006573,0.19068487,7.9270425,456.0,2017-01-04 15:33:56,53.08050310409584
6.006573,0.14982383,7.8861814,691.0,2017-01-04 15:33:57,52.923021114362655
6.0882955,0.10896278,7.84532,911.0,2017-01-04 15:33:58,52.95859677730288
6.0882955,0.10896278,7.9679036,960.0,2017-01-04 15:33:59,52.91709514157907
6.0882955,0.14982383,7.9270425,1066.0,2017-01-04 15:34:00,53.012343501416126
6.006573,0.14982383,7.84532,968.0,2017-01-04 15:34:01,53.152480969876315
6.0474343,0.19068487,7.804459,960.0,2017-01-04 15:34:02,52.88521242694499
6.0882955,0.10896278,7.84532,936.0,2017-01-04 15:34:03,52.91285710612038
5.965712,0.10896278,7.9270425,947.0,2017-01-04 15:34:04,52.94098950323462
5.9248514,0.10896278,7.9270425,989.0,2017-01-04 15:34:05,52.89519899797205
6.0474343,0.14982383,7.9270425,1027.0,2017-01-04 15:34:06,52.940241200073466
6.0882955,0.10896278,7.9679036,1035.0,2017-01-04 15:34:07,52.922034388705
6.0882955,0.19068487,7.84532,990.0,2017-01-04 15:34:08,52.893627537586184
6.0882955,0.14982383,7.9270425,983.0,2017-01-04 15:34:09,53.00071412513148
6.0882955,0.06810174,7.9270425,1043.0,2017-01-04 15:34:10,52.934126686986914
6.0474343,0.14982383,7.804459,999.0,2017-01-04 15:34:11,53.20128550001235
6.0882955,0.14982383,7.9270425,1032.0,2017-01-04 15:34:12,53.132101842642285
6.006573,0.19068487,7.8861814,918.0,2017-01-04 15:34:13,53.1029081532897
6.0882955,0.14982383,7.763598,929.0,2017-01-04 15:34:15,52.92653510901456
6.0474343,0.19068487,7.84532,966.0,2017-01-04 15:34:16,52.900001369997824
6.006573,0.14982383,7.9270425,1010.0,2017-01-04 15:34:17,52.891070439739
6.0882955,0.06810174,7.8861814,1020.0,2017-01-04 15:34:18,52.90050301185232
6.1291566,0.06810174,7.84532,1052.0,2017-01-04 15:34:19,53.00897558067278
6.1291566,0.10896278,7.8861814,880.0,2017-01-04 15:34:20,52.93970761647428
6.0882955,0.10896278,7.9270425,737.0,2017-01-04 15:34:21,53.03619409668062
6.1291566,0.10896278,7.84532,769.0,2017-01-04 15:34:22,52.913457706585525
6.0474343,0.06810174,7.9270425,800.0,2017-01-04 15:34:23,53.00197358662723
6.0474343,0.14982383,7.763598,678.0,2017-01-04 15:34:24,52.9744478163122
5.965712,0.19068487,7.84532,678.0,2017-01-04 15:34:25,52.927546965433514
6.0882955,0.14982383,7.804459,837.0,2017-01-04 15:34:26,52.89738303545683
6.0474343,0.10896278,7.995144,1009.0,2017-01-04 15:34:27,52.890754124295476
6.006573,0.06810174,7.8861814,932.0,2017-01-04 15:34:28,52.90976739409554
6.0474343,0.14982383,7.9679036,1067.0,2017-01-04 15:34:29,52.88227075771935
6.0882955,0.10896278,7.8861814,967.0,2017-01-04 15:34:30,52.95292173099288
6.0882955,0.14982383,7.8861814,857.0,2017-01-04 15:34:31,52.87359296250516
6.1291566,0.10896278,7.84532,979.0,2017-01-04 15:34:32,52.88297565956968
6.0882955,0.19068487,7.9270425,1034.0,2017-01-04 15:34:33,52.89151104584269
6.0474343,0.21792556,7.9270425,1099.0,2017-01-04 15:34:34,52.91285233498694
6.0474343,0.10896278,7.9270425,1124.0,2017-01-04 15:34:35,52.987538219937164
6.0882955,0.14982383,7.84532,1092.0,2017-01-04 15:34:36,53.01814121955273
6.0882955,0.14982383,7.84532,1085.0,2017-01-04 15:34:37,52.998471817609385
6.006573,0.10896278,7.9270425,1067.0,2017-01-04 15:34:38,52.895417398894224
6.0882955,0.10896278,8.036005,1054.0,2017-01-04 15:34:39,52.893208975087205
6.0882955,0.10896278,7.9270425,782.0,2017-01-04 15:34:40,52.937505734563935
6.006573,0.19068487,7.804459,758.0,2017-01-04 15:34:41,52.86890140621988
6.0474343,0.10896278,7.9270425,842.0,2017-01-04 15:34:42,52.90937547460693
6.006573,0.14982383,7.6954966,843.0,2017-01-04 15:34:43,52.90834135620852
6.0474343,0.10896278,7.9270425,769.0,2017-01-04 15:34:44,52.896500923119774
6.0882955,0.14982383,7.84532,816.0,2017-01-04 15:34:46,52.948651981559316
6.006573,0.19068487,7.8861814,890.0,2017-01-04 15:34:47,52.88206781352721
6.0882955,0.10896278,7.9679036,828.0,2017-01-04 15:34:48,52.92920066260686
6.006573,0.10896278,7.9270425,886.0,2017-01-04 15:34:49,52.92532831171337
6.0882955,0.06810174,7.8861814,858.0,2017-01-04 15:34:50,57.08755321447679
6.006573,0.14982383,7.84532,822.0,2017-01-04 15:34:51,54.02936935830107
6.0474343,0.14982383,7.8861814,831.0,2017-01-04 15:34:52,52.87950188772827
6.0882955,0.10896278,7.9270425,838.0,2017-01-04 15:34:53,53.046796093926105
6.0882955,0.14982383,7.804459,861.0,2017-01-04 15:34:54,53.256809207912866
6.006573,0.14982383,7.84532,904.0,2017-01-04 15:34:55,52.903204626018464
6.006573,0.19068487,7.8861814,907.0,2017-01-04 15:34:56,52.94109977902319
6.0882955,0.10896278,7.84532,909.0,2017-01-04 15:34:57,52.94787767646903
6.1291566,0.14982383,7.9270425,922.0,2017-01-04 15:34:58,53.12461387993129
6.1291566,0.14982383,7.84532,934.0,2017-01-04 15:34:59,52.9051535329398
6.006573,0.14982383,8.117727,932.0,2017-01-04 15:35:00,52.93373389491503
6.0474343,0.19068487,7.804459,929.0,2017-01-04 15:35:01,52.88302719384995
6.006573,0.14982383,7.8861814,934.0,2017-01-04 15:35:02,52.903381547045115
5.9248514,0.14982383,7.8861814,939.0,2017-01-04 15:35:03,52.90688331722464
6.006573,0.19068487,7.9270425,922.0,2017-01-04 15:35:04,52.88560989376492
6.0474343,0.14982383,7.84532,935.0,2017-01-04 15:35:05,52.96283005280621
6.0882955,0.06810174,7.9270425,941.0,2017-01-04 15:35:06,53.407191026247844
6.1563973,0.19068487,7.8861814,915.0,2017-01-04 15:35:07,52.92114696642632
6.0474343,0.19068487,7.84532,915.0,2017-01-04 15:35:08,52.87322849245872
6.0474343,0.14982383,7.9270425,921.0,2017-01-04 15:35:09,52.911816701494715
6.006573,0.19068487,7.804459,964.0,2017-01-04 15:35:10,53.062739574445985
6.006573,0.19068487,7.8861814,960.0,2017-01-04 15:35:11,52.904210762864224
6.0474343,0.10896278,7.84532,994.0,2017-01-04 15:35:12,52.874545421192856
6.0882955,0.10896278,7.84532,911.0,2017-01-04 15:35:13,52.87499597637896
6.006573,0.14982383,7.9270425,923.0,2017-01-04 15:35:14,52.888345735869066
6.0882955,0.10896278,7.9270425,911.0,2017-01-04 15:35:15,52.909292780241756
6.0474343,0.14982383,7.8861814,980.0,2017-01-04 15:35:17,52.910353926753544
6.0474343,0.19068487,7.9679036,980.0,2017-01-04 15:35:18,52.886196424788054
6.0474343,0.21792556,7.8861814,938.0,2017-01-04 15:35:19,52.93207285502314
6.0882955,0.06810174,7.8861814,907.0,2017-01-04 15:35:20,52.89650240339715
6.1291566,0.10896278,7.763598,911.0,2017-01-04 15:35:21,52.8694569028599
6.0474343,0.19068487,7.84532,881.0,2017-01-04 15:35:22,52.88778318353814
6.1291566,0.14982383,7.804459,960.0,2017-01-04 15:35:23,52.87742633912252
6.006573,0.06810174,7.9270425,1022.0,2017-01-04 15:35:24,52.91346538270034
6.0882955,0.14982383,7.9270425,555.0,2017-01-04 15:35:25,52.91953380980921
6.0882955,0.14982383,7.8861814,483.0,2017-01-04 15:35:26,52.93192875286781
6.0474343,0.10896278,7.9270425,806.0,2017-01-04 15:35:27,52.88163393718169
6.0882955,0.14982383,7.9679036,805.0,2017-01-04 15:35:28,52.94093119685016
6.0474343,0.10896278,7.84532,965.0,2017-01-04 15:35:29,52.93023565869521
6.0474343,0.10896278,7.9270425,949.0,2017-01-04 15:35:30,52.919644891577526
6.0882955,0.19068487,7.9270425,955.0,2017-01-04 15:35:31,52.93056362602609
6.006573,0.19068487,7.804459,954.0,2017-01-04 15:35:32,52.968473761400816
6.0882955,0.10896278,7.763598,956.0,2017-01-04 15:35:33,52.94429083232494
6.0474343,0.027240695,8.076866,954.0,2017-01-04 15:35:34,52.91768289510922
5.965712,0.14982383,7.9679036,962.0,2017-01-04 15:35:35,52.884439126228735
6.0882955,0.14982383,7.84532,966.0,2017-01-04 15:35:36,52.86993321783103
6.1291566,0.10896278,7.8861814,970.0,2017-01-04 15:35:37,52.88024901727135
6.0882955,0.10896278,7.763598,963.0,2017-01-04 15:35:38,52.93033052639636
5.965712,0.14982383,7.84532,944.0,2017-01-04 15:35:39,52.99184071654671
6.0474343,0.21792556,7.84532,937.0,2017-01-04 15:35:40,53.075724639416435
6.0882955,0.06810174,7.84532,942.0,2017-01-04 15:35:41,52.87927844502405
6.006573,0.14982383,7.84532,940.0,2017-01-04 15:35:42,52.94149681762085
5.9248514,0.14982383,7.9270425,950.0,2017-01-04 15:35:43,52.95477611993094
6.1291566,0.10896278,7.9679036,955.0,2017-01-04 15:35:45,52.955388346836685
6.0474343,0.14982383,7.8861814,961.0,2017-01-04 15:35:46,52.934533167793354
6.0882955,0.19068487,7.84532,960.0,2017-01-04 15:35:47,53.042030395531654
6.0882955,0.10896278,7.8861814,947.0,2017-01-04 15:35:48,52.87523180240167
6.1291566,0.14982383,7.8861814,929.0,2017-01-04 15:35:49,52.95541420339483
6.0474343,0.21792556,7.9679036,899.0,2017-01-04 15:35:50,52.88492720266078
6.0882955,0.06810174,7.9270425,526.0,2017-01-04 15:35:51,52.86642799455977
6.0474343,0.14982383,8.036005,658.0,2017-01-04 15:35:52,52.89454368574205
6.0474343,0.14982383,7.804459,739.0,2017-01-04 15:35:53,52.89832028209717
6.006573,0.19068487,7.8861814,914.0,2017-01-04 15:35:54,52.87477090153055
6.0474343,0.14982383,7.84532,956.0,2017-01-04 15:35:55,52.867040353763855
6.0474343,0.06810174,7.84532,782.0,2017-01-04 15:35:56,52.87679694260415
6.0882955,0.21792556,7.9679036,621.0,2017-01-04 15:35:57,52.90728327900539
6.0882955,0.14982383,7.804459,841.0,2017-01-04 15:35:58,52.88907041188502
6.0882955,0.14982383,7.9679036,1025.0,2017-01-04 15:35:59,52.90591146813366
6.0474343,0.14982383,7.8861814,957.0,2017-01-04 15:36:00,52.900600140628306
6.1291566,0.14982383,7.84532,970.0,2017-01-04 15:36:01,52.87241851273319
6.0474343,0.06810174,7.8861814,980.0,2017-01-04 15:36:02,52.88738923138383
6.0474343,0.06810174,7.9270425,1056.0,2017-01-04 15:36:03,52.8848860369725
6.006573,0.10896278,7.8861814,1008.0,2017-01-04 15:36:04,52.912650684745884
6.0882955,0.06810174,7.84532,1010.0,2017-01-04 15:36:05,52.88931768562885
6.006573,0.10896278,7.9679036,1018.0,2017-01-04 15:36:06,52.89070058902743
6.0882955,0.14982383,7.9679036,1013.0,2017-01-04 15:36:07,52.95297390308534
6.0474343,0.14982383,7.804459,1029.0,2017-01-04 15:36:09,52.90556712257277
6.0474343,0.06810174,7.84532,1046.0,2017-01-04 15:36:10,52.906035497097236
6.006573,0.14982383,7.9270425,1029.0,2017-01-04 15:36:11,52.903911049911414
6.006573,0.14982383,7.8861814,1044.0,2017-01-04 15:36:12,52.90917722253855
6.0474343,0.10896278,7.9270425,1002.0,2017-01-04 15:36:13,52.91877283412626
6.0474343,0.19068487,7.9270425,1020.0,2017-01-04 15:36:14,52.87182543280817
6.0882955,0.14982383,7.84532,1016.0,2017-01-04 15:36:15,52.88269242847802
6.0882955,0.06810174,7.8861814,1053.0,2017-01-04 15:36:16,52.94398999695908
6.0474343,0.14982383,8.185829,1053.0,2017-01-04 15:36:17,52.90054459523954
6.0474343,0.10896278,7.8861814,1024.0,2017-01-04 15:36:18,52.92388301753086
6.006573,0.06810174,7.8861814,990.0,2017-01-04 15:36:19,52.88953433295657
6.006573,0.19068487,7.84532,856.0,2017-01-04 15:36:20,52.883308044929706
6.1291566,0.19068487,7.8861814,829.0,2017-01-04 15:36:21,53.15563257706679
6.0474343,0.10896278,7.9270425,836.0,2017-01-04 15:36:22,52.92838683686978
6.006573,0.14982383,7.8861814,932.0,2017-01-04 15:36:23,52.8901974647706
6.0474343,0.10896278,7.8861814,911.0,2017-01-04 15:36:24,52.92591438996791
6.006573,0.10896278,7.84532,1021.0,2017-01-04 15:36:25,52.934499547602684
6.0474343,0.10896278,7.84532,1010.0,2017-01-04 15:36:26,52.87655450964852
6.1291566,0.10896278,7.804459,995.0,2017-01-04 15:36:27,52.87171609866242
6.0882955,0.10896278,7.8861814,1045.0,2017-01-04 15:36:28,52.89061030126199
6.1291566,0.10896278,7.5456724,1048.0,2017-01-04 15:36:29,52.877029128466376
6.0882955,0.21792556,7.84532,1047.0,2017-01-04 15:36:30,52.8990085729877
6.006573,0.21792556,7.84532,1054.0,2017-01-04 15:36:31,52.88615937341977
6.0474343,0.14982383,7.9270425,1054.0,2017-01-04 15:36:32,52.92252310559094
6.0882955,0.06810174,7.804459,1052.0,2017-01-04 15:36:33,52.88004047201734
6.0474343,0.10896278,7.804459,1061.0,2017-01-04 15:36:34,52.898735393262825
6.0882955,0.19068487,7.8861814,1054.0,2017-01-04 15:36:35,52.89352241060952
6.1291566,0.14982383,7.8861814,1030.0,2017-01-04 15:36:37,52.898403272689755
6.0882955,0.14982383,7.9270425,1032.0,2017-01-04 15:36:38,52.879555211557154
6.0474343,0.21792556,7.995144,1028.0,2017-01-04 15:36:39,52.9523594875051
6.0474343,0.06810174,7.8861814,1010.0,2017-01-04 15:36:40,52.91326853160427
6.0882955,0.027240695,7.804459,1027.0,2017-01-04 15:36:41,52.88503594280898
6.1291566,0.10896278,7.9679036,1017.0,2017-01-04 15:36:42,52.879784627677466
6.1291566,0.14982383,7.84532,1022.0,2017-01-04 15:36:43,52.89551446728403
6.1291566,0.10896278,7.84532,1002.0,2017-01-04 15:36:44,52.898901574565976
6.0474343,0.21792556,8.036005,961.0,2017-01-04 15:36:45,52.87448197128687
5.9248514,0.14982383,7.9270425,945.0,2017-01-04 15:36:46,52.87699764043509
5.965712,0.10896278,7.9679036,974.0,2017-01-04 15:36:47,52.94791244098646
6.0882955,0.14982383,7.84532,991.0,2017-01-04 15:36:48,53.05802134197697
6.0882955,0.10896278,7.8861814,986.0,2017-01-04 15:36:49,52.90998892646874
6.0882955,0.19068487,7.804459,1002.0,2017-01-04 15:36:50,52.95014964940506
6.0882955,0.19068487,7.8861814,997.0,2017-01-04 15:36:51,53.24290230012683
6.1291566,0.10896278,7.9679036,1005.0,2017-01-04 15:36:52,52.91452867537933
6.0474343,0.10896278,7.804459,1014.0,2017-01-04 15:36:53,52.93903242870404
6.006573,0.10896278,7.84532,1005.0,2017-01-04 15:36:54,52.887656145506966
6.0474343,0.21792556,7.8861814,1022.0,2017-01-04 15:36:55,52.916015313593775
5.965712,0.19068487,7.8861814,1020.0,2017-01-04 15:36:56,52.942524752276356
6.0882955,0.10896278,7.9270425,1059.0,2017-01-04 15:36:57,52.88138421583821
5.965712,0.10896278,7.763598,1059.0,2017-01-04 15:36:58,52.87990555905503
6.0882955,0.19068487,7.804459,1051.0,2017-01-04 15:36:59,52.883352282450446
6.006573,0.10896278,7.9270425,980.0,2017-01-04 15:37:00,52.903201713499
6.0882955,0.10896278,7.84532,988.0,2017-01-04 15:37:01,52.92003008295235
6.006573,0.21792556,7.9270425,990.0,2017-01-04 15:37:02,52.91238031385802
6.0882955,0.14982383,7.8861814,988.0,2017-01-04 15:37:03,52.87345920594488
6.006573,0.14982383,7.84532,992.0,2017-01-04 15:37:05,52.92270664153726
6.006573,0.14982383,7.84532,1005.0,2017-01-04 15:37:06,52.898771684773536
6.0474343,0.06810174,7.84532,1014.0,2017-01-04 15:37:07,52.89968966340122
6.006573,0.06810174,7.763598,1012.0,2017-01-04 15:37:08,53.009772282235915
6.0882955,0.06810174,7.84532,1008.0,2017-01-04 15:37:09,52.891447233085024
6.1291566,0.14982383,7.9270425,1006.0,2017-01-04 15:37:10,52.883547175460976
6.0882955,0.14982383,7.9679036,1017.0,2017-01-04 15:37:11,52.9222696219492
6.0474343,0.19068487,7.9270425,1016.0,2017-01-04 15:37:12,52.87767252764495
6.0882955,0.14982383,7.84532,1006.0,2017-01-04 15:37:13,52.93373518989231
6.0474343,0.10896278,7.804459,994.0,2017-01-04 15:37:14,52.91135723736338
6.0882955,0.10896278,7.8861814,1006.0,2017-01-04 15:37:15,52.93791668605077
6.0474343,0.10896278,7.8861814,1030.0,2017-01-04 15:37:16,52.90052954523114
6.0474343,0.10896278,7.84532,1022.0,2017-01-04 15:37:17,52.90870792769047
6.1291566,0.14982383,7.9270425,1025.0,2017-01-04 15:37:18,52.90866373061373
6.0474343,0.06810174,7.8861814,1023.0,2017-01-04 15:37:19,52.89619941493151
6.0474343,0.14982383,7.84532,1014.0,2017-01-04 15:37:20,52.88117257930199
5.965712,0.10896278,7.9679036,1025.0,2017-01-04 15:37:21,52.90379660939038
6.0474343,0.14982383,7.8861814,1027.0,2017-01-04 15:37:22,52.93287670789988
6.0882955,0.19068487,7.9679036,1019.0,2017-01-04 15:37:23,52.87714353305845
6.0882955,0.14982383,7.9679036,1028.0,2017-01-04 15:37:24,52.894888296657655
6.006573,0.06810174,7.84532,1030.0,2017-01-04 15:37:25,52.911462063677426
6.0882955,0.10896278,7.804459,1023.0,2017-01-04 15:37:26,52.887718443467364
6.006573,0.19068487,7.8861814,1020.0,2017-01-04 15:37:27,52.90271942550067
6.006573,0.14982383,7.8861814,1016.0,2017-01-04 15:37:29,52.94535004962674
6.0474343,0.14982383,7.995144,1001.0,2017-01-04 15:37:30,52.89779296973598
6.0882955,0.14982383,7.804459,957.0,2017-01-04 15:37:31,52.874480483484845
6.006573,0.06810174,7.9270425,953.0,2017-01-04 15:37:32,52.89860266992763
6.1291566,0.06810174,7.8861814,975.0,2017-01-04 15:37:33,52.93482119455029
6.0882955,0.10896278,7.84532,970.0,2017-01-04 15:37:34,52.87318870397642
6.0882955,0.14982383,7.8861814,944.0,2017-01-04 15:37:35,52.934431918009736
6.0882955,0.06810174,7.804459,945.0,2017-01-04 15:37:36,52.882139889067965
6.0882955,0.10896278,7.84532,953.0,2017-01-04 15:37:37,52.885348877485
6.0882955,0.10896278,7.84532,940.0,2017-01-04 15:37:38,52.8996006064795
6.0474343,0.10896278,7.84532,964.0,2017-01-04 15:37:39,52.93125961057002
6.0882955,0.14982383,7.8861814,970.0,2017-01-04 15:37:40,52.934754174146875
6.0474343,0.14982383,7.9679036,974.0,2017-01-04 15:37:41,52.88308326943984
6.0474343,0.10896278,7.84532,983.0,2017-01-04 15:37:42,52.88036609015308
6.1291566,0.10896278,7.9270425,984.0,2017-01-04 15:37:43,52.88808318271029
6.006573,0.10896278,7.8861814,994.0,2017-01-04 15:37:44,52.90880912775072
6.1291566,0.06810174,7.804459,998.0,2017-01-04 15:37:45,52.88988091131985
6.006573,0.14982383,7.9270425,995.0,2017-01-04 15:37:46,52.937760228047665
6.0474343,0.10896278,7.9270425,1015.0,2017-01-04 15:37:47,52.89955061720684
6.0474343,0.14982383,7.9270425,1009.0,2017-01-04 15:37:48,52.93805640673568
6.0474343,0.14982383,7.9270425,1007.0,2017-01-04 15:37:49,52.89909211607964
6.0474343,0.14982383,7.8861814,1009.0,2017-01-04 15:37:50,52.91073933549186
6.0474343,0.14982383,7.9270425,1008.0,2017-01-04 15:37:51,52.88417555087851
6.006573,0.19068487,7.804459,997.0,2017-01-04 15:37:52,52.8920290975017
6.0474343,0.14982383,7.995144,994.0,2017-01-04 15:37:53,52.91192706977326
6.0882955,0.14982383,7.8861814,993.0,2017-01-04 15:37:54,52.93524957420218
6.0474343,0.10896278,7.84532,994.0,2017-01-04 15:37:55,52.92548681839455
6.0474343,0.10896278,7.8861814,1013.0,2017-01-04 15:37:56,52.894231630730566
6.0474343,0.10896278,7.8861814,1020.0,2017-01-04 15:37:57,53.3320026855641
6.0474343,0.14982383,7.804459,1021.0,2017-01-04 15:37:59,52.921341079842115
6.0474343,0.10896278,7.9270425,1019.0,2017-01-04 15:38:00,52.86628608183267
6.0882955,0.14982383,7.9270425,1013.0,2017-01-04 15:38:01,52.874177748929235
6.1291566,0.19068487,7.8861814,1016.0,2017-01-04 15:38:02,53.0183227908498
6.1563973,0.14982383,8.036005,1018.0,2017-01-04 15:38:03,52.90555869388843
6.0474343,0.10896278,7.9270425,1018.0,2017-01-04 15:38:04,52.912844831284644
6.006573,0.14982383,7.84532,1020.0,2017-01-04 15:38:05,52.90820671167899
6.0474343,0.027240695,7.9270425,1014.0,2017-01-04 15:38:06,52.88551954375098
6.1291566,0.06810174,7.8861814,1019.0,2017-01-04 15:38:07,52.896876940895936
6.0882955,0.10896278,7.8861814,1014.0,2017-01-04 15:38:08,52.96792564800205
6.006573,0.14982383,7.8861814,1012.0,2017-01-04 15:38:09,52.889216030349516
6.0474343,0.06810174,7.8861814,1010.0,2017-01-04 15:38:10,52.88808824286468
6.1291566,0.10896278,7.995144,1002.0,2017-01-04 15:38:11,52.883123142062914
6.0474343,0.19068487,7.804459,1005.0,2017-01-04 15:38:12,52.9104754854372
5.965712,0.14982383,7.9679036,1000.0,2017-01-04 15:38:13,52.88160986564815
5.965712,0.14982383,7.84532,997.0,2017-01-04 15:38:14,52.92145155264902
6.0474343,0.14982383,7.9270425,992.0,2017-01-04 15:38:15,52.92724345487615
6.006573,0.10896278,7.8861814,969.0,2017-01-04 15:38:16,52.88356045040054
6.006573,0.10896278,7.8861814,972.0,2017-01-04 15:38:17,52.94561441539811
6.006573,0.19068487,7.9270425,984.0,2017-01-04 15:38:18,52.885928111623016
5.965712,0.19068487,7.84532,988.0,2017-01-04 15:38:19,52.886027967255416
6.006573,0.14982383,7.8861814,992.0,2017-01-04 15:38:20,52.87582074275011
6.0474343,0.14982383,7.8861814,1003.0,2017-01-04 15:38:21,52.892130861283306
6.0474343,0.21792556,7.9270425,1003.0,2017-01-04 15:38:22,53.240087440828106
6.0474343,0.14982383,7.84532,1000.0,2017-01-04 15:38:23,52.870308038748476
6.1563973,0.14982383,7.84532,1010.0,2017-01-04 15:38:25,52.87798817950778
6.0882955,0.10896278,7.9679036,1001.0,2017-01-04 15:38:26,52.8722122180213
6.006573,0.19068487,7.9270425,996.0,2017-01-04 15:38:27,52.87877784268438
6.0474343,0.10896278,7.9679036,997.0,2017-01-04 15:38:28,52.89609456790126
6.1563973,0.10896278,7.8861814,1000.0,2017-01-04 15:38:29,52.90495747795419
6.0474343,0.10896278,7.84532,1024.0,2017-01-04 15:38:30,52.90361353305708
6.1563973,0.14982383,7.84532,1042.0,2017-01-04 15:38:31,52.90210659816519
6.0882955,0.10896278,7.763598,1046.0,2017-01-04 15:38:32,52.89790952712173
6.0474343,0.10896278,7.8861814,1042.0,2017-01-04 15:38:33,52.90567960484073
6.006573,0.10896278,7.9270425,1043.0,2017-01-04 15:38:34,52.88167028450764
6.0882955,0.14982383,7.804459,1030.0,2017-01-04 15:38:35,52.88885723055599
6.006573,0.14982383,7.8861814,1025.0,2017-01-04 15:38:36,52.88744494528106
6.1291566,0.10896278,8.036005,1020.0,2017-01-04 15:38:37,52.89534528207746
6.0474343,0.14982383,7.804459,1017.0,2017-01-04 15:38:38,52.87537635436047
6.006573,0.10896278,7.8861814,1015.0,2017-01-04 15:38:39,52.9854412079569
6.0474343,0.14982383,7.84532,1013.0,2017-01-04 15:38:40,52.89268487639389
6.0474343,0.027240695,7.8861814,1014.0,2017-01-04 15:38:41,52.88680360323585
6.0882955,0.10896278,7.763598,1018.0,2017-01-04 15:38:42,52.875231758650344
6.1291566,0.06810174,7.9679036,1009.0,2017-01-04 15:38:43,52.89193060009311
6.0882955,0.10896278,7.9270425,1008.0,2017-01-04 15:38:44,52.90855058752102
6.006573,0.06810174,7.995144,1012.0,2017-01-04 15:38:45,52.91028244813823
6.0882955,0.10896278,7.804459,1008.0,2017-01-04 15:38:46,52.87936682690459
5.9248514,0.21792556,8.308413,1002.0,2017-01-04 15:38:47,52.915966423106795
5.965712,0.21792556,7.8861814,1003.0,2017-01-04 15:38:48,52.91237332988514
6.006573,0.19068487,7.9270425,1003.0,2017-01-04 15:38:49,52.899841103831605
6.1291566,0.10896278,7.8861814,1007.0,2017-01-04 15:38:51,52.92504242282696
6.0474343,0.10896278,7.84532,1005.0,2017-01-04 15:38:52,52.90535088254386
6.0882955,0.19068487,7.7363577,1000.0,2017-01-04 15:38:53,53.21384613007048
6.1563973,0.10896278,7.995144,1005.0,2017-01-04 15:38:54,53.051417637233136
6.1291566,0.06810174,7.995144,1006.0,2017-01-04 15:38:55,52.88585020692384
6.006573,0.14982383,7.9679036,1003.0,2017-01-04 15:38:56,52.882744402876305
6.0474343,0.19068487,7.763598,1000.0,2017-01-04 15:38:57,52.9326690770708
6.006573,0.14982383,7.763598,1000.0,2017-01-04 15:38:58,52.941301017578574
6.0474343,0.14982383,7.84532,999.0,2017-01-04 15:38:59,52.87716828533739
6.0882955,0.14982383,7.9679036,998.0,2017-01-04 15:39:00,52.87872276066352
6.0882955,0.10896278,7.8861814,990.0,2017-01-04 15:39:01,52.882044923832495
6.0882955,0.10896278,7.9679036,992.0,2017-01-04 15:39:02,52.871258415405265
6.0882955,0.19068487,7.8861814,989.0,2017-01-04 15:39:03,52.87980726705675
6.0882955,0.19068487,7.9270425,989.0,2017-01-04 15:39:04,52.91784181104222
6.0474343,0.14982383,7.8861814,989.0,2017-01-04 15:39:05,52.87692254930575
5.965712,0.14982383,7.8861814,991.0,2017-01-04 15:39:06,52.872740456504616
6.0474343,0.19068487,7.8861814,985.0,2017-01-04 15:39:07,52.91722968414731
6.1291566,0.10896278,7.8861814,986.0,2017-01-04 15:39:08,52.91614473203105
6.0882955,0.10896278,7.804459,993.0,2017-01-04 15:39:09,52.89232047985308
6.0882955,0.14982383,7.84532,996.0,2017-01-04 15:39:10,52.87744479281354
6.0882955,0.10896278,7.84532,990.0,2017-01-04 15:39:11,52.94920778021041
6.0882955,0.14982383,7.8861814,992.0,2017-01-04 15:39:12,52.964808364510716
6.0882955,0.10896278,7.8861814,993.0,2017-01-04 15:39:13,52.89739426585595
6.006573,0.14982383,7.9679036,986.0,2017-01-04 15:39:14,52.894711159957566
6.006573,0.10896278,7.9270425,983.0,2017-01-04 15:39:15,52.88420279545257
6.0474343,0.10896278,7.9679036,985.0,2017-01-04 15:39:16,52.90058348143593
6.0474343,0.10896278,7.84532,980.0,2017-01-04 15:39:17,52.88317572270607
6.1291566,0.14982383,7.8861814,957.0,2017-01-04 15:39:18,52.902756031533855
6.006573,0.14982383,7.804459,934.0,2017-01-04 15:39:20,52.87861228850501
6.0474343,0.14982383,7.8861814,962.0,2017-01-04 15:39:21,52.89971106811458
6.0474343,0.10896278,7.9679036,971.0,2017-01-04 15:39:22,52.89117758767942
6.0474343,0.14982383,7.8861814,965.0,2017-01-04 15:39:23,52.973442124682855
5.965712,0.19068487,7.9270425,968.0,2017-01-04 15:39:24,52.904719740720964
5.965712,0.14982383,7.8861814,974.0,2017-01-04 15:39:25,52.919094088673084
6.006573,0.10896278,7.9270425,964.0,2017-01-04 15:39:26,52.96855156828266
6.0474343,0.14982383,7.84532,962.0,2017-01-04 15:39:27,52.92371489061313
5.965712,0.19068487,7.8861814,966.0,2017-01-04 15:39:28,52.87742275332512
6.006573,0.14982383,7.9270425,961.0,2017-01-04 15:39:29,52.9133802507921
6.1563973,0.14982383,7.9270425,962.0,2017-01-04 15:39:30,52.892323356099524
6.1563973,0.06810174,7.9679036,969.0,2017-01-04 15:39:31,52.893727869828396
6.0882955,0.10896278,8.036005,972.0,2017-01-04 15:39:32,52.87565840057986
6.0882955,0.06810174,7.9270425,969.0,2017-01-04 15:39:33,52.90876111119932
6.1563973,0.14982383,7.8861814,955.0,2017-01-04 15:39:34,52.94744258016089
6.0882955,0.14982383,7.9679036,945.0,2017-01-04 15:39:35,52.891274140617654
6.0882955,0.14982383,7.9270425,955.0,2017-01-04 15:39:36,52.95818030940845
6.006573,0.19068487,7.8861814,949.0,2017-01-04 15:39:37,52.907518226890524
6.0882955,0.19068487,7.9270425,950.0,2017-01-04 15:39:38,52.88858659556624
6.0474343,0.10896278,7.9270425,950.0,2017-01-04 15:39:39,53.01519624087107
6.0474343,0.10896278,7.9270425,956.0,2017-01-04 15:39:40,53.144865228185424
6.0474343,0.14982383,7.8861814,965.0,2017-01-04 15:39:41,52.91724619294829
5.965712,0.10896278,7.84532,964.0,2017-01-04 15:39:43,52.87645509204139
6.1291566,0.10896278,7.9679036,974.0,2017-01-04 15:39:44,52.89482732098428
6.1291566,0.10896278,7.9270425,973.0,2017-01-04 15:39:45,52.91484005580962
6.0882955,0.10896278,7.9270425,965.0,2017-01-04 15:39:46,52.90429007728868
6.0474343,0.06810174,7.9270425,962.0,2017-01-04 15:39:47,52.91936529788967
6.006573,0.14982383,7.8861814,963.0,2017-01-04 15:39:48,52.87770868950815
6.0882955,0.10896278,7.84532,971.0,2017-01-04 15:39:49,52.887182075871024
6.1563973,0.14982383,7.8861814,972.0,2017-01-04 15:39:50,53.00517718136607
6.006573,0.14982383,7.8861814,973.0,2017-01-04 15:39:51,52.894500563897225
6.0474343,0.14982383,7.9270425,967.0,2017-01-04 15:39:52,52.88161925836768
5.965712,0.19068487,7.8861814,973.0,2017-01-04 15:39:53,52.90504768520377
6.0474343,0.14982383,7.8861814,969.0,2017-01-04 15:39:54,52.913735859508144
6.0474343,0.10896278,7.9270425,973.0,2017-01-04 15:39:55,52.915541252041834
6.0882955,0.25878662,8.036005,972.0,2017-01-04 15:39:56,52.914366949917174
6.0474343,0.06810174,7.9679036,974.0,2017-01-04 15:39:57,52.93429113113946
6.1291566,0.10896278,7.9270425,970.0,2017-01-04 15:39:58,52.87249031080105
6.0474343,0.14982383,7.9270425,970.0,2017-01-04 15:39:59,52.90467832765849
6.0474343,0.10896278,7.9270425,965.0,2017-01-04 15:40:00,52.918643234086105
6.0882955,0.10896278,7.9679036,967.0,2017-01-04 15:40:01,52.91176628863559
6.0474343,0.10896278,7.8861814,974.0,2017-01-04 15:40:02,52.877810395866966
6.006573,0.06810174,7.9270425,969.0,2017-01-04 15:40:03,52.9646022547323
6.0474343,0.10896278,7.804459,968.0,2017-01-04 15:40:04,52.92594401180585
6.006573,0.14982383,7.84532,985.0,2017-01-04 15:40:05,52.925850042855906
6.0882955,0.14982383,7.84532,1016.0,2017-01-04 15:40:06,52.92573514110529
6.0474343,0.14982383,7.9270425,936.0,2017-01-04 15:40:07,52.89305573461445
6.006573,0.14982383,7.8861814,911.0,2017-01-04 15:40:09,52.883195418447556
6.006573,0.06810174,7.804459,915.0,2017-01-04 15:40:10,52.977481955445484
6.006573,0.10896278,7.9270425,936.0,2017-01-04 15:40:11,52.90455108757308
6.0882955,0.14982383,7.84532,926.0,2017-01-04 15:40:12,52.92205620295857
6.0882955,0.06810174,7.995144,966.0,2017-01-04 15:40:13,52.92239188626646
5.965712,0.14982383,7.9270425,972.0,2017-01-04 15:40:14,52.90423992466483
6.0882955,0.19068487,7.995144,965.0,2017-01-04 15:40:15,52.90011699810292
6.0474343,0.10896278,7.9270425,962.0,2017-01-04 15:40:16,52.97086569633977
6.1291566,0.19068487,7.9270425,968.0,2017-01-04 15:40:17,52.908261724959516
6.0474343,0.14982383,7.9270425,958.0,2017-01-04 15:40:18,52.893646183962005
6.0474343,0.19068487,7.8861814,966.0,2017-01-04 15:40:19,52.874081384066244
6.006573,0.14982383,7.84532,985.0,2017-01-04 15:40:20,52.86645920859986
6.0474343,0.10896278,7.9679036,965.0,2017-01-04 15:40:21,52.980112032837255
6.006573,0.10896278,7.9679036,923.0,2017-01-04 15:40:22,52.95031550904997
6.006573,0.10896278,7.8861814,909.0,2017-01-04 15:40:23,52.90576345415329
6.1291566,0.10896278,7.8861814,923.0,2017-01-04 15:40:24,52.87096276981952
6.0882955,0.10896278,7.8861814,949.0,2017-01-04 15:40:25,52.884465059397485
6.0474343,0.06810174,7.84532,945.0,2017-01-04 15:40:26,52.942560205843456
6.0882955,0.19068487,7.8861814,934.0,2017-01-04 15:40:27,52.91580141364975
6.0474343,0.06810174,7.9270425,937.0,2017-01-04 15:40:28,52.92592308194422
6.1291566,0.027240695,7.8861814,945.0,2017-01-04 15:40:29,52.94699414267417
6.0474343,0.14982383,7.9679036,946.0,2017-01-04 15:40:30,52.879626017596706
6.0882955,0.19068487,7.84532,950.0,2017-01-04 15:40:31,52.883129299795726
6.0882955,0.14982383,7.84532,941.0,2017-01-04 15:40:32,52.88200574023919
6.0882955,0.06810174,7.8861814,944.0,2017-01-04 15:40:34,52.88848221885513
6.0882955,0.14982383,7.8861814,951.0,2017-01-04 15:40:35,52.90350151887391
5.965712,0.21792556,7.9270425,940.0,2017-01-04 15:40:36,52.90274994504141
6.0474343,0.06810174,7.9679036,931.0,2017-01-04 15:40:37,52.89571216828645
6.0474343,0.14982383,7.84532,937.0,2017-01-04 15:40:38,52.891815538344375
6.0474343,0.14982383,7.9679036,937.0,2017-01-04 15:40:39,52.88210354567207
6.0474343,0.10896278,7.9679036,957.0,2017-01-04 15:40:40,52.937762513720585
6.006573,0.19068487,7.804459,965.0,2017-01-04 15:40:41,52.9434035966196
6.1291566,0.10896278,7.9270425,961.0,2017-01-04 15:40:42,52.884281035330496
6.0474343,0.14982383,7.84532,954.0,2017-01-04 15:40:43,52.8847069638707
6.0882955,0.10896278,7.9679036,949.0,2017-01-04 15:40:44,52.897525502669886
6.0882955,0.10896278,7.8861814,944.0,2017-01-04 15:40:45,52.89970841428389
6.0474343,0.10896278,7.9270425,945.0,2017-01-04 15:40:46,52.87385017844815
6.0882955,0.19068487,7.9270425,948.0,2017-01-04 15:40:47,52.95446552771651
6.197258,0.10896278,7.9679036,959.0,2017-01-04 15:40:48,52.89971367843826
6.0882955,0.14982383,7.9679036,955.0,2017-01-04 15:40:49,52.88386916863586
6.1563973,0.14982383,7.84532,950.0,2017-01-04 15:40:50,52.93459894004534
6.006573,0.14982383,7.763598,951.0,2017-01-04 15:40:51,52.930975278097975
6.0882955,0.10896278,7.9679036,962.0,2017-01-04 15:40:52,52.93755119170466
6.0882955,0.14982383,7.84532,964.0,2017-01-04 15:40:53,52.960297258366694
6.0474343,0.10896278,7.9679036,962.0,2017-01-04 15:40:54,52.90304891216408
6.0474343,0.14982383,7.9270425,960.0,2017-01-04 15:40:55,52.91041164693831
5.9248514,0.14982383,7.9270425,955.0,2017-01-04 15:40:56,52.95978145147765
6.006573,0.10896278,7.804459,958.0,2017-01-04 15:40:57,52.92499592625906
6.0474343,0.10896278,7.84532,961.0,2017-01-04 15:40:58,52.87804917344807
6.006573,0.14982383,7.9270425,966.0,2017-01-04 15:41:00,52.915488628322116
6.0474343,0.14982383,7.9679036,979.0,2017-01-04 15:41:01,52.89671211877174
6.0882955,0.19068487,7.9270425,973.0,2017-01-04 15:41:02,52.966370306362045
6.0474343,0.10896278,8.036005,976.0,2017-01-04 15:41:03,52.889147517448365
6.0474343,0.19068487,7.8861814,983.0,2017-01-04 15:41:04,52.881150471339716
6.006573,0.19068487,7.8861814,999.0,2017-01-04 15:41:05,52.90767551761364
6.0474343,0.10896278,7.9270425,985.0,2017-01-04 15:41:06,52.876883800550615
6.0474343,0.06810174,7.9270425,984.0,2017-01-04 15:41:07,52.89247758113048
6.0882955,0.10896278,7.9679036,980.0,2017-01-04 15:41:08,52.884096392196014
6.0882955,0.14982383,7.8861814,974.0,2017-01-04 15:41:09,52.88768371726353
6.0882955,0.10896278,7.9679036,973.0,2017-01-04 15:41:10,53.11587161939271
6.0882955,0.14982383,7.9679036,969.0,2017-01-04 15:41:11,53.021976183432514
6.0474343,0.14982383,7.9270425,959.0,2017-01-04 15:41:12,53.00230094005889
6.006573,0.06810174,7.8861814,970.0,2017-01-04 15:41:13,52.91551472352477
6.0474343,0.19068487,7.8861814,977.0,2017-01-04 15:41:14,52.89681381641577
6.0474343,0.10896278,8.036005,988.0,2017-01-04 15:41:15,52.91070947957947
6.0882955,0.06810174,7.84532,1002.0,2017-01-04 15:41:16,52.88508090482051
6.1291566,0.06810174,7.804459,1006.0,2017-01-04 15:41:17,52.87755923018446
6.0882955,0.10896278,7.804459,1010.0,2017-01-04 15:41:18,52.89322496546474
6.0474343,0.10896278,7.84532,1008.0,2017-01-04 15:41:19,52.87289117612492
6.1563973,0.06810174,8.117727,1010.0,2017-01-04 15:41:20,52.86831809989759
6.0882955,0.14982383,7.763598,1009.0,2017-01-04 15:41:21,52.906921799240685
6.1291566,0.19068487,7.7363577,1006.0,2017-01-04 15:41:22,52.87633445820633
6.1291566,0.10896278,7.84532,1011.0,2017-01-04 15:41:24,52.9002702071254
6.0474343,0.14982383,7.84532,1011.0,2017-01-04 15:41:25,52.91924277509503
6.0474343,0.14982383,7.9679036,1009.0,2017-01-04 15:41:26,53.07942508728865
6.006573,0.10896278,7.804459,1019.0,2017-01-04 15:41:27,52.89576546763321
5.9248514,0.19068487,7.9270425,1018.0,2017-01-04 15:41:28,52.89404514494285
6.1291566,0.06810174,7.9270425,1022.0,2017-01-04 15:41:29,52.869423169385655
6.006573,0.14982383,7.9679036,1024.0,2017-01-04 15:41:30,52.93393357585168
6.1291566,0.10896278,7.8861814,1025.0,2017-01-04 15:41:31,52.907902193836705
6.0882955,0.14982383,8.036005,1024.0,2017-01-04 15:41:32,53.25582278092385
6.0882955,0.10896278,7.995144,1015.0,2017-01-04 15:41:33,53.75252840041094
6.0882955,0.10896278,7.995144,1012.0,2017-01-04 15:41:34,53.03879223868354
5.9248514,0.10896278,7.995144,1009.0,2017-01-04 15:41:35,52.90423779512119
6.0474343,0.06810174,7.8861814,1007.0,2017-01-04 15:41:36,53.086575589712496
6.0882955,0.06810174,7.84532,1002.0,2017-01-04 15:41:37,53.09796334935158
6.1291566,0.027240695,7.9270425,1007.0,2017-01-04 15:41:38,52.879666446453406
6.0474343,0.14982383,7.9270425,998.0,2017-01-04 15:41:39,53.19801312628716
6.0882955,0.10896278,7.84532,996.0,2017-01-04 15:41:40,52.947286206777136
5.965712,0.14982383,7.8861814,997.0,2017-01-04 15:41:41,53.51495782620141
6.0882955,0.14982383,7.8861814,993.0,2017-01-04 15:41:42,52.91971686584971
6.0474343,0.14982383,7.9679036,1006.0,2017-01-04 15:41:43,52.887027793567974
6.006573,0.10896278,7.995144,1004.0,2017-01-04 15:41:44,52.87849376934495
6.0882955,0.19068487,7.9679036,993.0,2017-01-04 15:41:45,52.879716796243834
6.006573,0.19068487,7.9270425,995.0,2017-01-04 15:41:46,52.90020147688657
6.006573,0.06810174,7.84532,998.0,2017-01-04 15:41:48,52.9292945590877
6.006573,0.10896278,7.995144,997.0,2017-01-04 15:41:49,52.911258266157816
6.1291566,0.14982383,7.9270425,988.0,2017-01-04 15:41:50,52.931001409992135
6.0474343,0.10896278,7.84532,971.0,2017-01-04 15:41:51,52.950366895443125
6.0474343,0.06810174,7.84532,954.0,2017-01-04 15:41:52,52.955635352285064
6.1291566,0.14982383,7.9679036,962.0,2017-01-04 15:41:53,52.92599724411926
6.0882955,0.14982383,7.9679036,949.0,2017-01-04 15:41:54,52.91138149169
6.0882955,0.10896278,7.8861814,960.0,2017-01-04 15:41:55,52.894636940711955
6.1291566,0.19068487,7.7363577,960.0,2017-01-04 15:41:56,52.90739241626739
6.0474343,0.19068487,7.9270425,959.0,2017-01-04 15:41:57,53.017637318379975
6.006573,0.14982383,7.8861814,964.0,2017-01-04 15:41:58,52.97058257553431
5.965712,0.19068487,7.9679036,984.0,2017-01-04 15:41:59,52.9009960712413
6.0882955,0.10896278,7.8861814,983.0,2017-01-04 15:42:00,52.94762037596816
6.006573,0.14982383,7.8861814,983.0,2017-01-04 15:42:01,53.036629244726726
6.0474343,0.14982383,7.8861814,980.0,2017-01-04 15:42:02,52.87998479415985
6.0474343,0.10896278,7.8861814,989.0,2017-01-04 15:42:03,52.88236034543348
6.0474343,0.10896278,7.995144,996.0,2017-01-04 15:42:04,52.876361052175085
6.0882955,0.06810174,7.8861814,864.0,2017-01-04 15:42:05,52.93291016795939
6.0474343,0.10896278,7.9679036,951.0,2017-01-04 15:42:06,52.88343542855533
6.1291566,0.19068487,7.8861814,981.0,2017-01-04 15:42:07,53.32882315702369
6.0474343,0.10896278,7.9679036,945.0,2017-01-04 15:42:08,53.10021163259961
6.0882955,0.10896278,7.9270425,948.0,2017-01-04 15:42:09,52.90751874801772
6.1291566,0.14982383,7.9679036,949.0,2017-01-04 15:42:10,52.88208843162222
6.006573,0.10896278,7.84532,940.0,2017-01-04 15:42:11,52.90534232309273
6.0882955,0.19068487,7.9270425,939.0,2017-01-04 15:42:12,52.92417888952487
6.0474343,0.06810174,7.84532,944.0,2017-01-04 15:42:14,52.928675098665266
6.0474343,0.10896278,7.995144,947.0,2017-01-04 15:42:15,52.896726703126376
5.965712,0.19068487,7.9679036,939.0,2017-01-04 15:42:16,52.89213696267624
6.0882955,0.10896278,7.8861814,931.0,2017-01-04 15:42:17,52.909497190902556
6.006573,0.14982383,7.9270425,938.0,2017-01-04 15:42:18,52.913326039588604
6.0882955,0.06810174,7.9679036,936.0,2017-01-04 15:42:19,52.95059647124124
6.006573,0.10896278,7.84532,938.0,2017-01-04 15:42:20,53.394704280759555
6.0882955,0.21792556,7.8861814,936.0,2017-01-04 15:42:21,52.90381477751343
6.0882955,0.10896278,7.9270425,940.0,2017-01-04 15:42:22,52.88642745410457
6.0882955,0.10896278,7.9270425,934.0,2017-01-04 15:42:23,52.89147351673197
6.0882955,0.06810174,7.8861814,925.0,2017-01-04 15:42:24,53.01311627425995
6.0474343,0.10896278,7.9270425,926.0,2017-01-04 15:42:25,52.962652535555975
6.0882955,0.10896278,7.9270425,927.0,2017-01-04 15:42:26,52.983238541007765
6.0882955,0.14982383,7.8861814,931.0,2017-01-04 15:42:27,52.96181137390133
6.0474343,0.10896278,7.7363577,942.0,2017-01-04 15:42:28,52.88317908539996
6.0882955,0.10896278,7.804459,939.0,2017-01-04 15:42:29,52.90007027741078
6.0474343,0.21792556,8.036005,942.0,2017-01-04 15:42:30,52.876550660702996
5.965712,0.21792556,7.84532,928.0,2017-01-04 15:42:31,52.8668432719859
6.0882955,0.19068487,7.8861814,933.0,2017-01-04 15:42:32,52.88360071164672
5.965712,0.19068487,7.8861814,935.0,2017-01-04 15:42:33,53.09813986834831
6.006573,0.10896278,7.9270425,911.0,2017-01-04 15:42:34,52.93896236905204
5.965712,0.14982383,7.8861814,925.0,2017-01-04 15:42:35,53.05597345672523
6.0474343,0.21792556,7.804459,926.0,2017-01-04 15:42:36,52.875319347912544
6.0882955,0.10896278,7.9679036,926.0,2017-01-04 15:42:38,52.88155883879831
6.006573,0.14982383,7.8861814,924.0,2017-01-04 15:42:39,52.87903741823293
6.0474343,0.14982383,7.9270425,927.0,2017-01-04 15:42:40,52.86869936990719
6.0474343,0.10896278,7.9270425,928.0,2017-01-04 15:42:41,53.22065770029715
5.965712,0.21792556,7.84532,937.0,2017-01-04 15:42:42,52.939808355388145
6.0882955,0.10896278,7.804459,943.0,2017-01-04 15:42:43,52.89938781090474
6.0474343,0.027240695,7.84532,932.0,2017-01-04 15:42:44,52.918638642569896
6.1291566,0.027240695,8.076866,949.0,2017-01-04 15:42:45,52.952707664140995
6.0882955,0.06810174,7.8861814,944.0,2017-01-04 15:42:46,52.89817057297974
6.0882955,0.14982383,7.8861814,947.0,2017-01-04 15:42:47,52.96650320253307
6.0882955,0.06810174,7.9679036,954.0,2017-01-04 15:42:48,52.894573130311315
6.0882955,0.14982383,7.8861814,954.0,2017-01-04 15:42:49,52.8727142781228
6.0882955,0.10896278,7.84532,951.0,2017-01-04 15:42:50,52.897864393060814
6.0474343,0.19068487,7.8861814,808.0,2017-01-04 15:42:51,52.87932259247902
6.006573,0.14982383,7.9679036,761.0,2017-01-04 15:42:52,52.866793035742894
6.0474343,0.10896278,7.8861814,871.0,2017-01-04 15:42:53,52.87725465481707
6.0474343,0.19068487,7.9270425,888.0,2017-01-04 15:42:54,52.92658919882315
5.965712,0.19068487,7.8861814,906.0,2017-01-04 15:42:55,52.88028227345752
6.0882955,0.19068487,7.84532,932.0,2017-01-04 15:42:56,52.89509634792198
6.0882955,0.10896278,7.9679036,918.0,2017-01-04 15:42:57,52.89013088581629
6.0474343,0.21792556,7.8861814,920.0,2017-01-04 15:42:58,52.91251934029782
6.006573,0.19068487,7.8861814,908.0,2017-01-04 15:42:59,52.875387554311416
6.0474343,0.14982383,7.8861814,904.0,2017-01-04 15:43:00,52.908636639059466
6.1291566,0.10896278,7.84532,911.0,2017-01-04 15:43:02,52.886376440188094
6.006573,0.10896278,7.8861814,904.0,2017-01-04 15:43:03,52.905815717957594
6.0474343,0.19068487,7.804459,909.0,2017-01-04 15:43:04,52.91680268668935
6.0474343,0.14982383,7.9270425,915.0,2017-01-04 15:43:05,52.915601937582636
6.006573,0.10896278,7.9270425,914.0,2017-01-04 15:43:06,52.921651409516805
6.0882955,0.14982383,7.8861814,915.0,2017-01-04 15:43:07,52.91236495777863
6.1291566,0.14982383,7.84532,915.0,2017-01-04 15:43:08,52.91857206503937
6.0882955,0.10896278,7.9270425,914.0,2017-01-04 15:43:09,52.91411268623614
6.006573,0.10896278,7.8861814,903.0,2017-01-04 15:43:10,52.88442794959647
6.1291566,0.10896278,8.036005,904.0,2017-01-04 15:43:11,52.88302998891207
6.1291566,0.10896278,7.84532,903.0,2017-01-04 15:43:12,52.8772765639664
6.0474343,0.10896278,7.9679036,892.0,2017-01-04 15:43:13,52.977624981354225
6.0474343,0.10896278,7.9270425,891.0,2017-01-04 15:43:14,52.908866825056464
6.0474343,0.10896278,7.8861814,886.0,2017-01-04 15:43:15,52.883957282488325
6.0882955,0.10896278,8.036005,885.0,2017-01-04 15:43:16,52.88924978487603
6.0882955,0.21792556,7.8861814,894.0,2017-01-04 15:43:17,52.900666428792064
6.006573,0.19068487,7.84532,878.0,2017-01-04 15:43:18,52.89007490115118
6.006573,0.06810174,7.804459,872.0,2017-01-04 15:43:19,52.90089451497963
6.0882955,0.10896278,7.8861814,869.0,2017-01-04 15:43:20,52.92077685416217
6.0882955,0.14982383,7.8861814,850.0,2017-01-04 15:43:21,52.9004988360927
6.0474343,0.14982383,7.9270425,866.0,2017-01-04 15:43:22,52.87800706804536
6.0474343,0.14982383,7.804459,889.0,2017-01-04 15:43:23,52.92488913365237
6.0882955,0.06810174,7.8861814,628.0,2017-01-04 15:43:24,52.89672025989514
6.0882955,0.10896278,7.8861814,1042.0,2017-01-04 15:43:25,52.88418026629779
6.0882955,0.10896278,7.9679036,624.0,2017-01-04 15:43:26,52.88825749290823
6.0474343,0.14982383,7.84532,693.0,2017-01-04 15:43:28,52.90257234613116
6.0882955,0.06810174,7.84532,737.0,2017-01-04 15:43:29,52.89457570016809
6.0882955,0.14982383,7.9270425,766.0,2017-01-04 15:43:30,52.88909217428393
6.0882955,0.10896278,7.9270425,767.0,2017-01-04 15:43:31,52.90406438592029
6.0474343,0.10896278,7.9270425,764.0,2017-01-04 15:43:32,52.94507025467653
6.006573,0.19068487,8.267551,787.0,2017-01-04 15:43:33,52.896064567600035
6.006573,0.25878662,7.84532,886.0,2017-01-04 15:43:34,52.88831245413249
5.965712,0.14982383,7.9270425,881.0,2017-01-04 15:43:35,52.906319381935425
6.0474343,0.21792556,8.036005,877.0,2017-01-04 15:43:36,52.88025426136493
6.0474343,0.10896278,7.9270425,876.0,2017-01-04 15:43:37,52.92734461300893
6.0882955,0.10896278,7.8861814,873.0,2017-01-04 15:43:38,52.904197463975095
6.006573,0.14982383,7.8861814,885.0,2017-01-04 15:43:39,52.94810854551458
6.0474343,0.14982383,7.9270425,885.0,2017-01-04 15:43:40,52.88617246581217
6.0882955,0.14982383,7.84532,886.0,2017-01-04 15:43:41,52.87156231686356
6.0474343,0.10896278,7.9270425,886.0,2017-01-04 15:43:42,52.90987694639152
6.1291566,0.14982383,7.8861814,886.0,2017-01-04 15:43:43,52.89753198823381
6.0882955,0.14982383,7.9270425,879.0,2017-01-04 15:43:44,52.8743701221608
6.0882955,0.14982383,7.84532,889.0,2017-01-04 15:43:45,52.878166305645266
6.0474343,0.14982383,7.9270425,879.0,2017-01-04 15:43:46,52.881909854704325
6.0474343,0.10896278,7.8861814,865.0,2017-01-04 15:43:47,52.92197175868158
6.0474343,0.10896278,7.84532,859.0,2017-01-04 15:43:48,52.90035468292892
6.006573,0.06810174,7.9679036,855.0,2017-01-04 15:43:49,52.873591430630704
6.0882955,0.14982383,7.9679036,859.0,2017-01-04 15:43:50,52.909289958621464
6.006573,0.10896278,7.9679036,856.0,2017-01-04 15:43:51,52.9065454773951
6.0474343,0.19068487,7.8861814,856.0,2017-01-04 15:43:53,52.882151115271796
6.006573,0.19068487,7.995144,844.0,2017-01-04 15:43:54,52.88140946822917
6.0474343,0.10896278,7.9270425,839.0,2017-01-04 15:43:55,52.89853426143114
6.0474343,0.14982383,7.995144,851.0,2017-01-04 15:43:56,52.8886743956794
6.0474343,0.14982383,7.9270425,851.0,2017-01-04 15:43:57,52.93869699439901
6.1291566,0.10896278,7.8861814,846.0,2017-01-04 15:43:58,53.02750055450026
6.0882955,0.14982383,7.9679036,850.0,2017-01-04 15:43:59,53.64614166595121
6.0882955,0.14982383,7.9270425,851.0,2017-01-04 15:44:00,52.912431717288015
5.8158884,0.19068487,7.9270425,840.0,2017-01-04 15:44:01,52.95209652064397
6.0474343,0.06810174,7.8861814,850.0,2017-01-04 15:44:02,52.940980798266104
6.0474343,0.10896278,7.9270425,853.0,2017-01-04 15:44:03,52.89087714828203
6.0474343,0.14982383,7.9270425,857.0,2017-01-04 15:44:04,52.911983250661685
6.006573,0.14982383,8.158588,855.0,2017-01-04 15:44:05,53.19267555321929
6.006573,0.19068487,7.8861814,856.0,2017-01-04 15:44:06,52.962939132270925
6.0474343,0.21792556,7.9679036,861.0,2017-01-04 15:44:07,52.89819894847628
6.0474343,0.14982383,7.9270425,859.0,2017-01-04 15:44:08,52.88461004653331
6.0882955,0.10896278,7.9270425,861.0,2017-01-04 15:44:09,52.916354627880764
6.006573,0.10896278,7.8861814,863.0,2017-01-04 15:44:10,53.08782393918306
6.0882955,0.10896278,7.8861814,866.0,2017-01-04 15:44:11,52.93476733663869
6.0882955,0.14982383,7.9270425,871.0,2017-01-04 15:44:12,53.156405286841604
6.0882955,0.14982383,7.84532,874.0,2017-01-04 15:44:13,53.36347995281006
6.0474343,0.10896278,7.9679036,874.0,2017-01-04 15:44:15,52.88574969252182
6.0882955,0.19068487,7.9679036,876.0,2017-01-04 15:44:16,52.87499160100708
6.1291566,0.14982383,7.9679036,871.0,2017-01-04 15:44:17,52.88707609464077
6.0882955,0.14982383,7.8861814,867.0,2017-01-04 15:44:18,52.905508642807334
6.0882955,0.14982383,7.9270425,864.0,2017-01-04 15:44:19,52.96483450790915
6.1563973,0.06810174,7.9270425,865.0,2017-01-04 15:44:20,52.91053867204162
6.0882955,0.06810174,7.9270425,867.0,2017-01-04 15:44:21,52.90729265979303
6.0474343,0.10896278,7.8861814,869.0,2017-01-04 15:44:22,52.93248751608975
5.965712,0.14982383,7.84532,871.0,2017-01-04 15:44:23,52.894182799323175
6.0882955,0.10896278,7.8861814,873.0,2017-01-04 15:44:24,52.89614429218217
6.0882955,0.06810174,7.9270425,871.0,2017-01-04 15:44:25,52.920311106031235
6.0882955,0.14982383,7.9270425,868.0,2017-01-04 15:44:26,52.887220034760425
6.1291566,0.06810174,7.9270425,876.0,2017-01-04 15:44:27,52.90161975293173
6.1291566,0.10896278,7.9679036,872.0,2017-01-04 15:44:28,52.89478232909924
6.0882955,0.14982383,7.84532,871.0,2017-01-04 15:44:29,52.915599943642626
6.0474343,0.10896278,7.9679036,864.0,2017-01-04 15:44:30,52.892784576793225
6.0474343,0.14982383,7.8861814,866.0,2017-01-04 15:44:31,52.92321142275849
6.0882955,0.10896278,7.8861814,851.0,2017-01-04 15:44:32,52.88578574354755
6.0882955,0.10896278,7.84532,860.0,2017-01-04 15:44:33,52.932337080266564
6.0882955,0.14982383,7.84532,860.0,2017-01-04 15:44:34,52.935932771080374
6.0882955,0.10896278,7.8861814,859.0,2017-01-04 15:44:35,52.90131633847572
6.0882955,0.14982383,7.8861814,866.0,2017-01-04 15:44:36,52.918135625568645
6.0882955,0.14982383,7.8861814,871.0,2017-01-04 15:44:37,52.9204431676073
6.006573,0.10896278,7.9679036,876.0,2017-01-04 15:44:38,52.98531968208238
6.0474343,0.14982383,7.84532,875.0,2017-01-04 15:44:39,52.927986998618515
6.0882955,0.14982383,7.763598,877.0,2017-01-04 15:44:40,52.94973826262539
6.0882955,0.06810174,7.9679036,880.0,2017-01-04 15:44:41,52.90227152004909
6.0474343,0.14982383,7.804459,876.0,2017-01-04 15:44:42,52.96218898408016
6.0474343,0.10896278,7.9270425,877.0,2017-01-04 15:44:43,52.89549591602325
6.0882955,0.10896278,7.9270425,866.0,2017-01-04 15:44:44,52.877675894602596
6.006573,0.10896278,7.8861814,865.0,2017-01-04 15:44:45,52.88768175409045
6.0882955,0.10896278,7.84532,852.0,2017-01-04 15:44:47,52.887409736973375
6.0474343,0.06810174,7.8861814,853.0,2017-01-04 15:44:48,52.88003671356591
6.0474343,0.14982383,7.8861814,851.0,2017-01-04 15:44:49,52.91898680433842
6.0882955,0.19068487,7.9679036,859.0,2017-01-04 15:44:50,52.88605367272625
6.006573,0.06810174,7.9270425,865.0,2017-01-04 15:44:51,52.8935542147292
6.1563973,0.14982383,7.8861814,865.0,2017-01-04 15:44:52,52.90126863041873
6.1291566,0.06810174,7.84532,866.0,2017-01-04 15:44:53,52.88328415735454
6.0882955,0.06810174,7.84532,870.0,2017-01-04 15:44:54,52.90431093782822
6.006573,0.19068487,7.9679036,871.0,2017-01-04 15:44:55,52.91058458590685
6.0882955,0.10896278,7.84532,874.0,2017-01-04 15:44:56,52.929994721707814
5.965712,0.10896278,7.9679036,873.0,2017-01-04 15:44:57,52.905776574469186
6.006573,0.14982383,7.84532,877.0,2017-01-04 15:44:58,52.88694528344672
5.965712,0.14982383,7.9270425,881.0,2017-01-04 15:44:59,52.90426591370512
6.0882955,0.14982383,7.84532,876.0,2017-01-04 15:45:00,52.905099132044654
6.0474343,0.10896278,8.036005,858.0,2017-01-04 15:45:01,52.89191926838954
6.0474343,0.06810174,7.8861814,772.0,2017-01-04 15:45:02,52.89876015333118
6.0474343,0.14982383,7.8861814,888.0,2017-01-04 15:45:03,52.905127636113036
6.0882955,0.10896278,7.9270425,895.0,2017-01-04 15:45:04,52.87900598847252
6.0882955,0.10896278,7.84532,897.0,2017-01-04 15:45:05,52.956914994390225
6.0882955,0.10896278,7.84532,876.0,2017-01-04 15:45:06,52.891105400423456
6.0474343,0.14982383,7.804459,865.0,2017-01-04 15:45:07,52.884858796684284
6.0882955,0.10896278,7.9679036,865.0,2017-01-04 15:45:08,52.86815157680682
6.006573,0.06810174,7.9270425,866.0,2017-01-04 15:45:09,52.92335897309676
6.0474343,0.06810174,7.9270425,870.0,2017-01-04 15:45:11,52.96178242457691
6.1563973,0.10896278,7.9679036,874.0,2017-01-04 15:45:12,52.89083316172182
6.1291566,0.10896278,7.8861814,873.0,2017-01-04 15:45:13,52.87490426766223
6.0882955,0.14982383,7.84532,878.0,2017-01-04 15:45:14,52.87809237150552
6.006573,0.10896278,7.84532,870.0,2017-01-04 15:45:15,52.89345732035627
6.0474343,0.10896278,7.8861814,857.0,2017-01-04 15:45:16,52.95465523647277
5.965712,0.14982383,7.804459,844.0,2017-01-04 15:45:17,52.898255655393186
6.0474343,0.10896278,7.84532,836.0,2017-01-04 15:45:18,52.88566593601743
6.0474343,0.06810174,7.8861814,831.0,2017-01-04 15:45:19,52.86822449717765
6.0474343,0.10896278,7.84532,797.0,2017-01-04 15:45:20,52.90416087008957
5.9248514,0.14982383,7.804459,737.0,2017-01-04 15:45:21,52.88780229127216
5.9248514,0.14982383,7.995144,768.0,2017-01-04 15:45:22,52.91207574147556
6.0474343,0.06810174,7.9270425,772.0,2017-01-04 15:45:23,52.892454048984774
6.0474343,0.10896278,7.9270425,786.0,2017-01-04 15:45:24,52.909047422653956
6.0882955,0.14982383,7.9270425,790.0,2017-01-04 15:45:25,52.8783643170204
6.0474343,0.19068487,7.9270425,797.0,2017-01-04 15:45:26,52.872597874343725
6.006573,0.19068487,7.84532,802.0,2017-01-04 15:45:27,52.94210562006866
6.006573,0.10896278,7.9270425,807.0,2017-01-04 15:45:28,52.91900373958718
6.0474343,0.14982383,7.84532,805.0,2017-01-04 15:45:29,52.903235533380766
6.0474343,0.19068487,7.8861814,800.0,2017-01-04 15:45:30,52.89166543048053
6.0474343,0.10896278,7.8861814,832.0,2017-01-04 15:45:31,52.89001734607021
6.0882955,0.14982383,7.9270425,836.0,2017-01-04 15:45:32,52.884147039947315
6.006573,0.14982383,7.8861814,838.0,2017-01-04 15:45:33,52.885828646496904
6.006573,0.06810174,7.84532,832.0,2017-01-04 15:45:35,52.871268049495455
6.0882955,0.10896278,7.9270425,837.0,2017-01-04 15:45:36,52.97504539005466
6.0474343,0.06810174,7.9270425,826.0,2017-01-04 15:45:37,52.91147976588472
6.0474343,0.19068487,7.8861814,823.0,2017-01-04 15:45:38,52.92601008723609
6.006573,0.14982383,7.84532,824.0,2017-01-04 15:45:39,52.9407191239384
6.0474343,0.10896278,7.9679036,824.0,2017-01-04 15:45:40,52.885727957013046
6.006573,0.06810174,7.9679036,825.0,2017-01-04 15:45:41,52.98096575528981
6.0882955,0.14982383,7.9270425,828.0,2017-01-04 15:45:42,53.60029354391432
6.0474343,0.14982383,7.763598,829.0,2017-01-04 15:45:43,52.92356687642882
6.0882955,0.19068487,7.8861814,827.0,2017-01-04 15:45:44,52.87351842524431
6.0882955,0.14982383,7.9270425,828.0,2017-01-04 15:45:45,52.88380755773943
6.0882955,0.14982383,7.84532,837.0,2017-01-04 15:45:46,52.90224991055162
6.006573,0.10896278,7.84532,831.0,2017-01-04 15:45:47,52.98999608172153
6.0882955,0.10896278,7.995144,788.0,2017-01-04 15:45:48,52.91404881445574
6.0474343,0.10896278,7.995144,679.0,2017-01-04 15:45:49,53.114127505169
6.0474343,0.14982383,7.9270425,523.0,2017-01-04 15:45:50,52.942056936246644
6.0474343,0.14982383,7.763598,430.0,2017-01-04 15:45:51,52.91773865498784
6.1291566,0.14982383,7.9270425,404.0,2017-01-04 15:45:52,52.9880388472705
6.1291566,0.10896278,7.84532,312.0,2017-01-04 15:45:53,52.980520766141765
6.0882955,0.06810174,7.804459,509.0,2017-01-04 15:45:54,52.917790601581046
6.0882955,0.10896278,7.804459,639.0,2017-01-04 15:45:55,52.88429854305661
6.0882955,0.10896278,7.9270425,625.0,2017-01-04 15:45:56,52.91473964651405
6.0882955,0.14982383,7.8861814,628.0,2017-01-04 15:45:57,52.895270855918504
6.0882955,0.10896278,7.8861814,673.0,2017-01-04 15:45:58,52.89051360277098
6.1563973,0.10896278,7.804459,693.0,2017-01-04 15:45:59,52.901051523872155
6.0882955,0.10896278,7.8861814,706.0,2017-01-04 15:46:01,52.88127001028491
6.0474343,0.10896278,7.8861814,713.0,2017-01-04 15:46:02,52.913563869952796
6.1291566,0.19068487,7.84532,712.0,2017-01-04 15:46:03,52.93415387896937
5.965712,0.19068487,7.9679036,710.0,2017-01-04 15:46:04,52.94361282521506
6.006573,0.10896278,7.9270425,703.0,2017-01-04 15:46:05,52.92195777825587
6.0882955,0.10896278,7.8861814,703.0,2017-01-04 15:46:06,52.896663881214074
6.006573,0.06810174,7.804459,706.0,2017-01-04 15:46:07,52.932804951393365
6.0882955,0.21792556,7.84532,697.0,2017-01-04 15:46:08,52.95790292813219
6.0474343,0.14982383,7.84532,695.0,2017-01-04 15:46:09,52.89936644810696
6.0882955,0.10896278,7.9270425,692.0,2017-01-04 15:46:10,52.88715921311548
6.0882955,0.06810174,7.9679036,696.0,2017-01-04 15:46:11,52.91062025778088
6.0474343,0.14982383,8.036005,696.0,2017-01-04 15:46:12,52.94545388646529
6.0882955,0.14982383,7.8861814,708.0,2017-01-04 15:46:13,52.88982003971932
6.0474343,0.10896278,7.84532,721.0,2017-01-04 15:46:14,52.911127270111976
6.0882955,0.06810174,7.9679036,712.0,2017-01-04 15:46:15,52.988667501962695
6.1291566,0.10896278,7.9270425,718.0,2017-01-04 15:46:16,53.02201894619465
6.0474343,0.10896278,7.8861814,715.0,2017-01-04 15:46:17,52.93990620395735
6.0882955,0.14982383,7.84532,724.0,2017-01-04 15:46:18,52.962516734248844
6.1291566,0.14982383,7.84532,720.0,2017-01-04 15:46:19,52.97281844895113
6.0882955,0.14982383,7.8861814,722.0,2017-01-04 15:46:20,52.95370497703304
6.0474343,0.10896278,7.8861814,713.0,2017-01-04 15:46:21,53.00223117131605
6.0882955,0.10896278,7.804459,707.0,2017-01-04 15:46:22,52.94499581473212
6.1291566,0.06810174,7.9679036,713.0,2017-01-04 15:46:23,52.89116673351287
6.0474343,0.14982383,7.9270425,710.0,2017-01-04 15:46:24,52.87694214222415
6.347082,0.25878662,8.458236,715.0,2017-01-04 15:46:25,52.96569822301568
6.1291566,0.14982383,7.9270425,689.0,2017-01-04 15:46:27,53.00225585819179
6.0474343,0.19068487,7.84532,693.0,2017-01-04 15:46:28,52.95792310347426
6.1291566,0.06810174,7.804459,702.0,2017-01-04 15:46:29,52.89741872887291
6.0474343,0.06810174,7.9270425,711.0,2017-01-04 15:46:30,52.922363192330494
6.0882955,0.14982383,7.8861814,714.0,2017-01-04 15:46:31,53.58973917895321
6.1291566,0.10896278,7.8861814,738.0,2017-01-04 15:46:32,53.73442032499256
6.0882955,0.10896278,7.8861814,738.0,2017-01-04 15:46:33,53.05057004795582
5.965712,0.19068487,8.117727,742.0,2017-01-04 15:46:34,53.06503845181743
6.006573,0.14982383,7.84532,729.0,2017-01-04 15:46:35,52.90078295258019
6.1291566,0.14982383,7.763598,727.0,2017-01-04 15:46:36,52.913401284556855
6.1291566,0.06810174,7.9270425,742.0,2017-01-04 15:46:37,52.914354766066026
6.0882955,0.14982383,7.8861814,736.0,2017-01-04 15:46:38,52.90093492030354
6.1291566,0.14982383,7.9270425,751.0,2017-01-04 15:46:39,53.608489023155954
6.0474343,0.06810174,7.84532,763.0,2017-01-04 15:46:40,52.927903490836684
6.0474343,0.10896278,8.076866,761.0,2017-01-04 15:46:41,53.01738653145498
6.006573,0.10896278,7.9679036,776.0,2017-01-04 15:46:42,52.91530552401838
6.0474343,0.06810174,7.9270425,780.0,2017-01-04 15:46:43,52.88730044542686
6.0882955,0.19068487,8.036005,772.0,2017-01-04 15:46:44,52.89140316512102
6.006573,0.10896278,7.9270425,771.0,2017-01-04 15:46:45,52.89289425330372
6.0474343,0.14982383,7.804459,769.0,2017-01-04 15:46:46,52.93460394629144
6.0474343,0.10896278,7.995144,755.0,2017-01-04 15:46:47,52.92784366853999
5.965712,0.10896278,7.84532,769.0,2017-01-04 15:46:48,52.900178552065
5.965712,0.19068487,7.9270425,767.0,2017-01-04 15:46:49,52.88922069668858
6.006573,0.14982383,7.9270425,716.0,2017-01-04 15:46:51,52.958214691090234
6.0882955,0.14982383,7.84532,711.0,2017-01-04 15:46:52,52.87738986880113
6.006573,0.10896278,7.9270425,708.0,2017-01-04 15:46:53,52.86807444815913
6.0882955,0.06810174,7.9270425,703.0,2017-01-04 15:46:54,53.127213387689224
6.0882955,0.19068487,7.804459,732.0,2017-01-04 15:46:55,52.903134377243276
6.1563973,0.10896278,7.8861814,711.0,2017-01-04 15:46:56,52.931773547296046
6.0474343,0.14982383,7.804459,714.0,2017-01-04 15:46:57,52.95604600908773
6.0882955,0.06810174,7.9270425,708.0,2017-01-04 15:46:58,52.88727461644402
6.0882955,0.10896278,7.84532,502.0,2017-01-04 15:46:59,52.899906098478354
6.006573,0.14982383,7.804459,482.0,2017-01-04 15:47:00,52.936891240169466
6.0882955,0.14982383,7.804459,488.0,2017-01-04 15:47:01,52.96723504397775
6.1291566,0.027240695,7.8861814,475.0,2017-01-04 15:47:02,52.891165033460226
6.006573,0.14982383,7.9679036,487.0,2017-01-04 15:47:03,52.93785255965123
6.0882955,0.19068487,7.804459,477.0,2017-01-04 15:47:04,53.17021269129774
6.1291566,0.10896278,7.9270425,484.0,2017-01-04 15:47:05,53.176143885805274
6.0474343,0.14982383,7.8861814,500.0,2017-01-04 15:47:06,52.943747797721024
6.0474343,0.21792556,7.9679036,492.0,2017-01-04 15:47:07,52.96408258665939
6.0882955,0.14982383,7.9679036,510.0,2017-01-04 15:47:08,53.157485152277985
6.0474343,0.14982383,7.9270425,529.0,2017-01-04 15:47:09,53.312445067006
5.9248514,0.10896278,7.9679036,520.0,2017-01-04 15:47:10,53.13993740770478
5.965712,0.10896278,7.84532,624.0,2017-01-04 15:47:11,52.93740170751423
6.0474343,0.10896278,7.84532,648.0,2017-01-04 15:47:12,54.333449793567524
6.0474343,0.19068487,7.8861814,656.0,2017-01-04 15:47:13,52.92037501567573
6.0474343,0.10896278,7.8861814,658.0,2017-01-04 15:47:14,53.20316203537934
6.0882955,0.14982383,7.8861814,656.0,2017-01-04 15:47:15,53.08009849831503
6.0882955,0.14982383,7.8861814,660.0,2017-01-04 15:47:17,52.91058545383913
6.0882955,0.14982383,7.804459,647.0,2017-01-04 15:47:18,52.889871885283966
6.0474343,0.14982383,7.84532,647.0,2017-01-04 15:47:19,52.88259603397683
6.006573,0.14982383,8.158588,642.0,2017-01-04 15:47:20,52.9422837637386
6.006573,0.10896278,7.9270425,642.0,2017-01-04 15:47:21,52.90461153576974
6.0882955,0.10896278,7.8861814,653.0,2017-01-04 15:47:22,52.92066229436587
6.1291566,0.06810174,7.8861814,663.0,2017-01-04 15:47:23,53.063237348143446
6.1291566,0.14982383,7.8861814,664.0,2017-01-04 15:47:24,53.576553020050795
6.006573,0.14982383,7.804459,700.0,2017-01-04 15:47:25,52.88803358416069
6.1291566,0.06810174,7.84532,714.0,2017-01-04 15:47:26,52.866941507148404
6.0474343,0.06810174,7.8861814,695.0,2017-01-04 15:47:27,53.07815619971719
6.0882955,0.14982383,7.8861814,692.0,2017-01-04 15:47:28,53.00261301611762
6.0474343,0.10896278,7.84532,686.0,2017-01-04 15:47:29,53.0033063437932
