ACC_X,ACC_Y,ACC_Z,GYRO_X,GYRO_Y,GYRO_Z,LIGH_1,GRAV_X,GRAV_Y,GRAV_Z,LINACC_X,LINACC_Y,LINACC_Z,ROTVEC_X,ROTVEC_Y,ROTVEC_Z,TIME,VOICE
0.022,6.038,7.959,0.0,0.0,0.0,800.0,0.0,0.0,0.0,0.0,0.0,0.0,0.0,0.0,0.0,2016-12-02 10:26:12,13.72940755625412
-0.204,1.431,9.384,-0.96588486,1.9221748,1.95629,1250.0,-0.30793276,2.2807271,9.532777,0.36093864,-1.6517671,0.66382694,0.038326472,0.12084458,0.94607675,2016-12-02 10:26:13,47.09330467800215
-5.955,-1.419,8.026,0.8869936,-0.8422175,-1.3656716,225.0,-5.6749597,-1.7636023,7.800956,-0.33871508,0.7312676,-0.2138753,-0.32749155,-0.04875388,0.93315893,2016-12-02 10:26:14,72.8562072147646
-3.061,-0.37,10.084,-0.35287845,-0.93710023,-0.0010660981,320.0,-2.3969395,-0.007158468,9.509206,0.58992803,0.39101583,0.12436962,-0.10956857,0.020038288,0.96600556,2016-12-02 10:26:15,62.65983548908764
-2.429,-0.038,9.641,0.17803837,0.30490404,-0.0021321962,320.0,-1.8884487,-0.21456927,9.620712,0.099822044,0.23556642,-0.36867905,-0.09651588,0.013135181,0.96699196,2016-12-02 10:26:16,56.92490700994962
-0.569,-0.134,10.012,0.010660981,-0.4339019,-0.030916844,320.0,-0.2844056,-0.27190092,9.798752,0.4973315,0.083405435,0.22241879,-0.01745825,-0.009890688,0.96933866,2016-12-02 10:26:17,75.19586071889678
-0.474,-0.143,10.084,0.0010660981,0.0021321962,0.0,320.0,-0.034349497,-0.19073865,9.804734,0.08925812,-0.0013481528,0.024071693,-0.0040905476,-0.008995503,0.96920913,2016-12-02 10:26:18,77.12608083328905
-0.485,-0.145,10.071,0.0,0.0010660981,-0.0010660981,320.0,-0.03148148,-0.19097614,9.804742,0.08399589,0.0018821061,0.014487267,-0.003951799,-0.009043215,0.969209,2016-12-02 10:26:19,59.18457248795356
-0.467,-0.146,10.084,0.0010660981,-0.0010660981,0.0,320.0,-0.03148148,-0.19097614,9.804742,0.06903213,-0.0023077577,0.0043115616,-0.003951799,-0.009043215,0.969209,2016-12-02 10:26:20,72.34084854182748
-0.502,-0.136,10.083,0.0010660981,0.0010660981,-0.0010660981,320.0,-0.03148148,-0.19097614,9.804742,0.07322199,0.006071955,-0.022024155,-0.003951799,-0.009043215,0.969209,2016-12-02 10:26:21,63.98313458202231
-0.48,-0.141,10.111,0.0010660981,0.0,0.0,320.0,-0.03148148,-0.19097614,9.804742,0.07082778,0.017444417,0.0013189316,-0.003951799,-0.009043215,0.969209,2016-12-02 10:26:22,68.90296546695224
-0.493,-0.141,10.087,0.0010660981,0.0,0.0,320.0,-0.03148148,-0.19097614,9.804742,0.07441909,-0.001110658,0.021669388,-0.003951799,-0.009043215,0.969209,2016-12-02 10:26:23,57.15681741621662
-0.502,-0.137,10.096,0.0,0.0010660981,0.0,320.0,-0.03148148,-0.19097614,9.804742,0.06963068,0.0018821061,0.04261875,-0.003951799,-0.009043215,0.969209,2016-12-02 10:26:24,72.07927672094249
-0.5,-0.137,10.08,0.0010660981,0.0,0.0,320.0,-0.03148148,-0.19097614,9.804742,0.077411845,0.015648752,1.2207031E-4,-0.003951799,-0.009043215,0.969209,2016-12-02 10:26:25,71.50994791789441
-0.49,-0.14,10.068,0.0010660981,0.0021321962,0.0010660981,320.0,-0.03148148,-0.19097614,9.804742,0.07022923,-5.121082E-4,0.03543663,-0.003951799,-0.009043215,0.969209,2016-12-02 10:26:26,51.41764481813114
-0.513,-0.147,10.082,0.0,0.0010660981,0.0,320.0,-0.03148148,-0.19097614,9.804742,0.06903213,-0.008891806,0.026457787,-0.003951799,-0.009043215,0.969209,2016-12-02 10:26:27,50.49058412236537
-0.484,-0.147,10.085,-0.0010660981,0.0021321962,0.0010660981,320.0,-0.03148148,-0.19097614,9.804742,0.06903213,0.010860354,0.024064064,-0.003951799,-0.009043215,0.969209,2016-12-02 10:26:28,62.32665132883212
-0.483,-0.141,10.09,0.0021321962,0.0,0.0,320.0,-0.03148148,-0.19097614,9.804742,0.076813295,-0.004701957,7.200241E-4,-0.003951799,-0.009043215,0.969209,2016-12-02 10:26:29,75.60063082459799
-0.483,-0.137,10.09,0.0010660981,0.0,0.0010660981,320.0,-0.03148148,-0.19097614,9.804742,0.07382054,0.006071955,0.01508522,-0.003951799,-0.009043215,0.969209,2016-12-02 10:26:30,75.06295022707394
-0.483,-0.139,10.087,0.0010660981,0.0021321962,0.0,320.0,-0.03148148,-0.19097614,9.804742,0.07382054,-0.008891806,0.04142189,-0.003951799,-0.009043215,0.969209,2016-12-02 10:26:31,60.09139646039301
-0.481,-0.126,10.101,0.0,0.0010660981,0.0,320.0,-0.03148148,-0.19097614,9.804742,0.06783503,0.0030792058,0.004910469,-0.003951799,-0.009043215,0.969209,2016-12-02 10:26:32,68.39274865984332
-0.494,-0.143,10.112,0.0,0.0,0.0010660981,320.0,-0.03148148,-0.19097614,9.804742,0.06603938,-0.0017092079,0.005508423,-0.003951799,-0.009043215,0.969209,2016-12-02 10:26:33,69.54472121710351
-0.469,-0.147,10.102,0.0010660981,0.0031982942,0.0010660981,320.0,-0.03148148,-0.19097614,9.804742,0.063645184,6.850064E-4,0.017479897,-0.003951799,-0.009043215,0.969209,2016-12-02 10:26:34,56.993647944675494
-0.504,-0.141,10.104,0.0021321962,0.0,0.0021321962,320.0,-0.03148148,-0.19097614,9.804742,0.06783503,0.0048748553,0.043815613,-0.003951799,-0.009043215,0.969209,2016-12-02 10:26:35,74.15028458962288
-0.502,-0.14,10.101,0.0,-0.0010660981,0.0010660981,320.0,-0.03148148,-0.19097614,9.804742,0.063645184,-5.121082E-4,0.021071434,-0.003951799,-0.009043215,0.969209,2016-12-02 10:26:36,76.10595434124576
-0.481,-0.152,10.068,-0.0010660981,0.0,0.0010660981,320.0,-0.03148148,-0.19097614,9.804742,0.052871276,0.012656003,0.016283035,-0.003951799,-0.009043215,0.969209,2016-12-02 10:26:37,65.31774420641584
-0.501,-0.135,10.048,0.0,0.0031982942,0.0,320.0,-0.03148148,-0.19097614,9.804742,0.076214746,0.012656003,0.033041954,-0.003951799,-0.009043215,0.969209,2016-12-02 10:26:38,50.5914726719725
-0.485,-0.141,10.107,0.0,0.0021321962,0.0010660981,320.0,-0.03148148,-0.19097614,9.804742,0.075616196,0.0018821061,0.017479897,-0.003951799,-0.009043215,0.969209,2016-12-02 10:26:39,77.46633412901494
-0.486,-0.14,10.097,0.0010660981,0.0,0.0,320.0,-0.03148148,-0.19097614,9.804742,0.08519299,-0.0076947063,0.061174393,-0.003951799,-0.009043215,0.969209,2016-12-02 10:26:40,56.62623687140747
-0.487,-0.139,10.076,0.0,-0.0021321962,0.0,320.0,-0.03148148,-0.19097614,9.804742,0.063046634,-0.005300507,0.015684128,-0.003951799,-0.009043215,0.969209,2016-12-02 10:26:41,71.22761041136341
-0.506,-0.147,10.108,0.0,0.0010660981,0.0010660981,320.0,-0.03148148,-0.19097614,9.804742,0.046885774,-5.121082E-4,0.027655602,-0.003951799,-0.009043215,0.969209,2016-12-02 10:26:42,60.57609407600762
-0.505,-0.14,10.072,0.0010660981,0.0,0.0010660981,320.0,-0.03148148,-0.19097614,9.804742,0.05646258,-0.004701957,0.07015228,-0.003951799,-0.009043215,0.969209,2016-12-02 10:26:43,51.73000400498072
-0.483,-0.128,10.08,0.0,0.0,0.0010660981,320.0,-0.03148148,-0.19097614,9.804742,0.075616196,0.015050203,0.013888359,-0.003951799,-0.009043215,0.969209,2016-12-02 10:26:44,77.63896667484701
-0.508,-0.135,10.093,-0.0021321962,0.0,0.0,320.0,-0.03148148,-0.19097614,9.804742,0.064842284,-0.0029063076,0.028253555,-0.003951799,-0.009043215,0.969209,2016-12-02 10:26:45,58.17092257155601
-0.501,-0.142,10.087,0.0010660981,-0.0021321962,0.0,320.0,-0.03148148,-0.19097614,9.804742,0.060053878,-0.008891806,0.05039978,-0.003951799,-0.009043215,0.969209,2016-12-02 10:26:46,79.68581686140442
-0.495,-0.151,10.07,0.0021321962,0.0,0.0010660981,320.0,-0.03148148,-0.19097614,9.804742,0.07441909,0.0030792058,0.0372324,-0.003951799,-0.009043215,0.969209,2016-12-02 10:26:47,75.37604057901632
-0.499,-0.139,10.087,0.0,-0.0021321962,0.0,320.0,-0.03148148,-0.19097614,9.804742,0.05586403,0.0030792058,0.030648232,-0.003951799,-0.009043215,0.969209,2016-12-02 10:26:48,75.59923389083369
-0.489,-0.137,10.096,0.0,-0.0021321962,0.0,320.0,-0.03148148,-0.19097614,9.804742,0.06544083,8.645654E-5,0.04561138,-0.003951799,-0.009043215,0.969209,2016-12-02 10:26:49,54.97952847357595
-0.486,-0.16,10.083,0.0010660981,0.0,0.0010660981,320.0,-0.03148148,-0.19097614,9.804742,0.063645184,0.0030792058,0.030049324,-0.003951799,-0.009043215,0.969209,2016-12-02 10:26:50,77.57985299027844
-0.516,-0.139,10.1,0.0,0.0,0.0010660981,320.0,-0.03148148,-0.19097614,9.804742,0.06065243,-0.004701957,0.0085020065,-0.003951799,-0.009043215,0.969209,2016-12-02 10:26:51,72.44166132553946
-0.495,-0.146,10.112,0.0,0.0010660981,0.0,320.0,-0.03148148,-0.19097614,9.804742,0.076214746,-0.0076947063,0.057582855,-0.003951799,-0.009043215,0.969209,2016-12-02 10:26:52,72.17323053934616
-0.501,-0.141,10.071,0.0,0.0010660981,0.0,320.0,-0.03148148,-0.19097614,9.804742,0.08698864,0.014451653,0.025260925,-0.003951799,-0.009043215,0.969209,2016-12-02 10:26:53,57.79236133704471
-0.487,-0.137,10.098,0.0010660981,0.0010660981,0.0010660981,320.0,-0.03148148,-0.19097614,9.804742,0.059455328,0.0048748553,0.016283035,-0.003951799,-0.009043215,0.969209,2016-12-02 10:26:55,79.41456871157014
-0.48,-0.145,10.1,0.0,0.0,0.0010660981,320.0,-0.03148148,-0.19097614,9.804742,0.063046634,-0.0035048574,-0.0040683746,-0.003951799,-0.009043215,0.969209,2016-12-02 10:26:56,78.40280411694054
-0.491,-0.141,10.108,0.0010660981,0.0021321962,0.0021321962,320.0,-0.03148148,-0.19097614,9.804742,0.063046634,-0.0029063076,0.04561138,-0.003951799,-0.009043215,0.969209,2016-12-02 10:26:57,61.178993351540015
-0.501,-0.147,10.096,0.0,0.0,0.0010660981,320.0,-0.03148148,-0.19097614,9.804742,0.06544083,-0.004701957,0.05219555,-0.003951799,-0.009043215,0.969209,2016-12-02 10:26:58,73.94550160562183
-0.488,-0.146,10.079,0.0,0.0010660981,0.0010660981,320.0,-0.03148148,-0.19097614,9.804742,0.06125098,0.0018821061,0.03663349,-0.003951799,-0.009043215,0.969209,2016-12-02 10:26:59,79.00938714253431
-0.511,-0.146,10.073,0.0010660981,0.0010660981,0.0010660981,320.0,-0.03148148,-0.19097614,9.804742,0.06603938,0.017444417,0.025260925,-0.003951799,-0.009043215,0.969209,2016-12-02 10:27:00,76.27564522657767
-0.497,-0.14,10.082,0.0010660981,-0.0010660981,0.0,320.0,-0.03148148,-0.19097614,9.804742,0.06663793,-0.0023077577,0.022867203,-0.003951799,-0.009043215,0.969209,2016-12-02 10:27:01,60.10772032334185
-0.481,-0.125,10.085,-0.0010660981,0.0010660981,0.0,320.0,-0.03148148,-0.19097614,9.804742,0.075616196,0.017444417,0.030648232,-0.003951799,-0.009043215,0.969209,2016-12-02 10:27:02,51.206392786637906
-0.492,-0.138,10.093,0.0,0.0021321962,0.0010660981,320.0,-0.03148148,-0.19097614,9.804742,0.06603938,0.0030792058,-0.0040683746,-0.003951799,-0.009043215,0.969209,2016-12-02 10:27:03,78.30738078515132
-0.495,-0.13,10.084,0.0021321962,0.0021321962,0.0,320.0,-0.03148148,-0.19097614,9.804742,0.07202489,0.013254553,0.04321766,-0.003951799,-0.009043215,0.969209,2016-12-02 10:27:04,61.04010931517784
-0.49,-0.129,10.103,0.0,0.0,0.0010660981,320.0,-0.03148148,-0.19097614,9.804742,0.08399589,0.006071955,0.03543663,-0.003951799,-0.009043215,0.969209,2016-12-02 10:27:05,52.15198550942659
-0.502,-0.128,10.12,0.0010660981,0.0,0.0010660981,320.0,-0.03148148,-0.19097614,9.804742,0.06723648,0.012656003,0.019275665,-0.003951799,-0.009043215,0.969209,2016-12-02 10:27:06,73.77953018526847
-0.496,-0.144,10.099,0.0021321962,0.0,0.0010660981,320.0,-0.03148148,-0.19097614,9.804742,0.083397344,-0.004701957,0.023465157,-0.003951799,-0.009043215,0.969209,2016-12-02 10:27:07,75.22972257059604
-0.495,-0.132,10.088,0.0010660981,0.0010660981,0.0,320.0,-0.03148148,-0.19097614,9.804742,0.06065243,0.010860354,0.010895729,-0.003951799,-0.009043215,0.969209,2016-12-02 10:27:08,55.81979406533573
-0.503,-0.141,10.115,0.0010660981,0.0,0.0,320.0,-0.03148148,-0.19097614,9.804742,0.082798794,-0.0023077577,0.027655602,-0.003951799,-0.009043215,0.969209,2016-12-02 10:27:09,78.63805719640537
-0.511,-0.141,10.078,0.0010660981,-0.0010660981,0.0,320.0,-0.03148148,-0.19097614,9.804742,0.075616196,0.018641517,0.027655602,-0.003951799,-0.009043215,0.969209,2016-12-02 10:27:10,62.09519043884936
-0.485,-0.143,10.078,0.0010660981,0.0,0.0,320.0,-0.03148148,-0.19097614,9.804742,0.06963068,0.012656003,0.030049324,-0.003951799,-0.009043215,0.969209,2016-12-02 10:27:11,68.03314225768413
-0.491,-0.15,10.108,0.0010660981,0.0010660981,0.0,320.0,-0.03148148,-0.19097614,9.804742,0.07322199,-5.121082E-4,0.01508522,-0.003951799,-0.009043215,0.969209,2016-12-02 10:27:12,76.82201300248623
-0.499,-0.131,10.073,0.0,0.0031982942,0.0,320.0,-0.03148148,-0.19097614,9.804742,0.06783503,0.010261804,0.028253555,-0.003951799,-0.009043215,0.969209,2016-12-02 10:27:13,54.20856704230553
-0.505,-0.129,10.071,0.0010660981,0.0010660981,0.0010660981,320.0,-0.03148148,-0.19097614,9.804742,0.081601694,-0.011884555,0.020472527,-0.003951799,-0.009043215,0.969209,2016-12-02 10:27:14,52.576393646567
-0.484,-0.142,10.083,0.0010660981,0.0,0.0,320.0,-0.03148148,-0.19097614,9.804742,0.076813295,0.0048748553,0.0085020065,-0.003951799,-0.009043215,0.969209,2016-12-02 10:27:15,77.4393624037231
-0.501,-0.135,10.108,0.0010660981,0.0,0.0010660981,320.0,-0.03148148,-0.19097614,9.804742,0.07142634,0.0018821061,0.0073041916,-0.003951799,-0.009043215,0.969209,2016-12-02 10:27:16,73.46499230384146
-0.478,-0.141,10.105,0.0021321962,0.0010660981,0.0010660981,320.0,-0.03148148,-0.19097614,9.804742,0.081003144,0.006670505,0.028852463,-0.003951799,-0.009043215,0.969209,2016-12-02 10:27:17,73.3867767133697
-0.49,-0.13,10.104,0.0010660981,0.0010660981,0.0010660981,320.0,-0.03148148,-0.19097614,9.804742,0.07322199,-5.121082E-4,0.055787086,-0.003951799,-0.009043215,0.969209,2016-12-02 10:27:18,77.78482555137644
-0.489,-0.13,10.076,0.0,0.0,0.0010660981,320.0,-0.03148148,-0.19097614,9.804742,0.06065243,0.005473405,0.031246185,-0.003951799,-0.009043215,0.969209,2016-12-02 10:27:19,79.8514865479534
-0.495,-0.134,10.104,0.0021321962,0.0,0.0,320.0,-0.03148148,-0.19097614,9.804742,0.06843358,0.016845867,0.03842926,-0.003951799,-0.009043215,0.969209,2016-12-02 10:27:20,53.23149196100938
-0.502,-0.15,10.078,0.0010660981,0.0031982942,0.0010660981,320.0,-0.03148148,-0.19097614,9.804742,0.060053878,-0.0029063076,0.027056694,-0.003951799,-0.009043215,0.969209,2016-12-02 10:27:21,76.23895003324054
-0.5,-0.132,10.1,0.0010660981,-0.0021321962,0.0,320.0,-0.03148148,-0.19097614,9.804742,0.05706113,0.014451653,0.015684128,-0.003951799,-0.009043215,0.969209,2016-12-02 10:27:22,60.259633384473375
-0.494,-0.129,10.081,0.0,-0.0010660981,0.0,320.0,-0.03148148,-0.19097614,9.804742,0.06783503,0.010860354,0.06476498,-0.003951799,-0.009043215,0.969209,2016-12-02 10:27:23,52.902904321939104
-0.493,-0.134,10.121,0.0021321962,-0.0010660981,0.0010660981,320.0,-0.03148148,-0.19097614,9.804742,0.06783503,0.012656003,0.03962612,-0.003951799,-0.009043215,0.969209,2016-12-02 10:27:24,75.14417501373201
-0.509,-0.151,10.082,0.0,0.0010660981,0.0010660981,320.0,-0.03148148,-0.19097614,9.804742,0.07322199,-0.0064976066,0.029450417,-0.003951799,-0.009043215,0.969209,2016-12-02 10:27:25,72.61321782090319
-0.499,-0.135,10.081,0.0010660981,-0.0010660981,0.0010660981,320.0,-0.03148148,-0.19097614,9.804742,0.064842284,0.011458904,0.040822983,-0.003951799,-0.009043215,0.969209,2016-12-02 10:27:26,55.42054465084913
-0.508,-0.134,10.102,0.0010660981,0.0,0.0,320.0,-0.03148148,-0.19097614,9.804742,0.077411845,0.0036777556,0.021669388,-0.003951799,-0.009043215,0.969209,2016-12-02 10:27:27,74.69848230670054
-0.507,-0.125,10.069,0.0,0.0021321962,0.0,320.0,-0.03148148,-0.19097614,9.804742,0.058258228,0.024627015,0.020472527,-0.003951799,-0.009043215,0.969209,2016-12-02 10:27:28,69.01520750731649
-0.489,-0.141,10.081,0.0010660981,0.0,0.0,320.0,-0.03148148,-0.19097614,9.804742,0.06184953,0.0036777556,0.031246185,-0.003951799,-0.009043215,0.969209,2016-12-02 10:27:29,69.33707306191634
-0.505,-0.133,10.07,0.0010660981,0.0031982942,0.0,320.0,-0.03148148,-0.19097614,9.804742,0.06663793,0.002480656,0.024064064,-0.003951799,-0.009043215,0.969209,2016-12-02 10:27:30,71.5510323862261
-0.497,-0.135,10.115,0.0,0.0010660981,0.0,320.0,-0.03148148,-0.19097614,9.804742,0.060053878,-5.121082E-4,0.030648232,-0.003951799,-0.009043215,0.969209,2016-12-02 10:27:31,55.80983805778385
-0.5,-0.138,10.107,0.0,0.0021321962,0.0010660981,320.0,-0.03148148,-0.19097614,9.804742,0.06544083,0.008466154,0.04261875,-0.003951799,-0.009043215,0.969209,2016-12-02 10:27:32,70.82307770973432
-0.498,-0.128,10.125,0.0,0.0010660981,0.0,320.0,-0.03148148,-0.19097614,9.804742,0.058258228,0.009064704,0.023465157,-0.003951799,-0.009043215,0.969209,2016-12-02 10:27:33,77.49293203340359
-0.484,-0.112,10.051,0.0,0.0,0.0010660981,320.0,-0.03148148,-0.19097614,9.804742,0.07441909,0.022831365,0.017479897,-0.003951799,-0.009043215,0.969209,2016-12-02 10:27:34,74.51814645136282
-0.509,-0.122,10.091,0.0,0.0,0.0010660981,320.0,-0.03148148,-0.19097614,9.804742,0.052871276,0.008466154,0.052794456,-0.003951799,-0.009043215,0.969209,2016-12-02 10:27:35,56.589269124150235
-0.497,-0.14,10.085,0.0,0.0010660981,0.0010660981,320.0,-0.03148148,-0.19097614,9.804742,0.06603938,0.012656003,0.046809196,-0.003951799,-0.009043215,0.969209,2016-12-02 10:27:36,75.40870794829688
-0.498,-0.126,10.092,0.0,-0.0010660981,0.0,320.0,-0.03148148,-0.19097614,9.804742,0.05765968,0.010261804,0.053991318,-0.003951799,-0.009043215,0.969209,2016-12-02 10:27:37,74.80183448027702
-0.487,-0.131,10.061,0.0,0.0,0.0010660981,320.0,-0.03148148,-0.19097614,9.804742,0.07501764,0.013853103,-0.010053635,-0.003951799,-0.009043215,0.969209,2016-12-02 10:27:38,69.93857346421126
-0.495,-0.125,10.093,0.0021321962,0.0,0.0,320.0,-0.03148148,-0.19097614,9.804742,0.060053878,0.008466154,0.024662018,-0.003951799,-0.009043215,0.969209,2016-12-02 10:27:39,78.92478646637672
-0.491,-0.117,10.088,0.0,0.0031982942,0.0010660981,320.0,-0.03148148,-0.19097614,9.804742,0.06783503,0.016247317,0.0085020065,-0.003951799,-0.009043215,0.969209,2016-12-02 10:27:40,57.18978642185819
-0.5,-0.129,10.087,0.0,0.0021321962,0.0010660981,320.0,-0.03148148,-0.19097614,9.804742,0.05706113,0.0072690547,0.010895729,-0.003951799,-0.009043215,0.969209,2016-12-02 10:27:41,75.233957916225
-0.505,-0.138,10.084,0.0021321962,-0.0010660981,0.0010660981,320.0,-0.03148148,-0.19097614,9.804742,0.077411845,0.023429915,0.039027214,-0.003951799,-0.009043215,0.969209,2016-12-02 10:27:42,70.00686650423933
-0.503,-0.131,10.047,0.0010660981,0.0,0.0,320.0,-0.03148148,-0.19097614,9.804742,0.049878523,0.010860354,0.0085020065,-0.003951799,-0.009043215,0.969209,2016-12-02 10:27:43,73.10005605627389
-0.492,-0.131,10.132,0.0,0.0010660981,0.0,320.0,-0.03148148,-0.19097614,9.804742,0.06065243,0.010860354,0.06476498,-0.003951799,-0.009043215,0.969209,2016-12-02 10:27:44,76.14166481481088
-0.499,-0.127,10.112,0.0,0.0,0.0010660981,320.0,-0.03148148,-0.19097614,9.804742,0.06903213,0.020437166,0.03663349,-0.003951799,-0.009043215,0.969209,2016-12-02 10:27:45,58.320808395367685
-0.508,-0.131,10.1,0.0021321962,0.0,0.0010660981,320.0,-0.03148148,-0.19097614,9.804742,0.06903213,0.010860354,0.036034584,-0.003951799,-0.009043215,0.969209,2016-12-02 10:27:46,71.93060441684041
-0.496,-0.135,10.133,0.0,0.0,0.0010660981,320.0,-0.03148148,-0.19097614,9.804742,0.06843358,0.009064704,0.07613754,-0.003951799,-0.009043215,0.969209,2016-12-02 10:27:48,75.43663808882104
-0.485,-0.136,10.093,0.0,0.0031982942,0.0,320.0,-0.03148148,-0.19097614,9.804742,0.06843358,0.002480656,0.028852463,-0.003951799,-0.009043215,0.969209,2016-12-02 10:27:49,76.4097724690397
-0.513,-0.126,10.1,0.0031982942,0.0,0.0,320.0,-0.03148148,-0.19097614,9.804742,0.047484323,0.015648752,0.040822983,-0.003951799,-0.009043215,0.969209,2016-12-02 10:27:50,61.13724626768437
-0.506,-0.12,10.134,0.0010660981,0.0031982942,0.0010660981,320.0,-0.03148148,-0.19097614,9.804742,0.05586403,0.019240066,0.056983948,-0.003951799,-0.009043215,0.969209,2016-12-02 10:27:51,64.16657924657288
-0.498,-0.136,10.11,0.0,0.0,0.0010660981,320.0,-0.03148148,-0.19097614,9.804742,0.048681423,0.010261804,0.01508522,-0.003951799,-0.009043215,0.969209,2016-12-02 10:27:52,74.92381720361831
-0.499,-0.135,10.134,0.0,0.0,0.0010660981,320.0,-0.03148148,-0.19097614,9.804742,0.05765968,-0.0035048574,0.04142189,-0.003951799,-0.009043215,0.969209,2016-12-02 10:27:53,53.089863755702225
-0.478,-0.117,10.084,0.0,0.0,0.0010660981,320.0,-0.03148148,-0.19097614,9.804742,0.07322199,0.018641517,0.021669388,-0.003951799,-0.009043215,0.969209,2016-12-02 10:27:54,77.02010256265586
-0.499,-0.119,10.114,0.0,0.0010660981,0.0,320.0,-0.03148148,-0.19097614,9.804742,0.063645184,0.013853103,0.043815613,-0.003951799,-0.009043215,0.969209,2016-12-02 10:27:55,73.04514512747652
-0.505,-0.123,10.079,0.0021321962,0.0010660981,0.0,320.0,-0.03148148,-0.19097614,9.804742,0.08938285,0.006670505,0.037830353,-0.003951799,-0.009043215,0.969209,2016-12-02 10:27:56,75.27677745472029
-0.498,-0.121,10.109,0.0010660981,0.0010660981,0.0,320.0,-0.03148148,-0.19097614,9.804742,0.06603938,0.012656003,0.061174393,-0.003951799,-0.009043215,0.969209,2016-12-02 10:27:57,73.05794318631456
-0.493,-0.132,10.113,0.0021321962,0.0,0.0,320.0,-0.03148148,-0.19097614,9.804742,0.06544083,0.014451653,0.023465157,-0.003951799,-0.009043215,0.969209,2016-12-02 10:27:58,66.7471740171562
-0.495,-0.134,10.095,0.0,0.0021321962,0.0,320.0,-0.03148148,-0.19097614,9.804742,0.07022923,0.006670505,0.01987362,-0.003951799,-0.009043215,0.969209,2016-12-02 10:27:59,51.94193749289472
-0.495,-0.135,10.093,0.0021321962,0.0010660981,0.0010660981,320.0,-0.03148148,-0.19097614,9.804742,0.05765968,0.006071955,0.039027214,-0.003951799,-0.009043215,0.969209,2016-12-02 10:28:00,69.54134919824776
-0.481,-0.129,10.069,0.0021321962,0.0,0.0,320.0,-0.03148148,-0.19097614,9.804742,0.06843358,0.008466154,0.0372324,-0.003951799,-0.009043215,0.969209,2016-12-02 10:28:01,53.70158498356754
-0.489,-0.124,10.099,0.0010660981,0.0,0.0,320.0,-0.03148148,-0.19097614,9.804742,0.06544083,0.022232816,0.03962612,-0.003951799,-0.009043215,0.969209,2016-12-02 10:28:02,76.8769361799194
-0.511,-0.119,10.085,0.0010660981,0.0,0.0,320.0,-0.03148148,-0.19097614,9.804742,0.040301718,0.011458904,0.006706238,-0.003951799,-0.009043215,0.969209,2016-12-02 10:28:03,70.35461161988782
-0.481,-0.128,10.066,0.0021321962,0.0,0.0,320.0,-0.03148148,-0.19097614,9.804742,0.058258228,0.0012835562,0.029450417,-0.003951799,-0.009043215,0.969209,2016-12-02 10:28:04,80.13636899203686
-0.49,-0.134,10.069,0.0,0.0,0.0010660981,320.0,-0.03148148,-0.19097614,9.804742,0.06663793,0.0072690547,0.009698868,-0.003951799,-0.009043215,0.969209,2016-12-02 10:28:05,55.50711565286847
-0.498,-0.133,10.105,0.0,0.0010660981,0.0010660981,320.0,-0.03148148,-0.19097614,9.804742,0.07501764,0.006670505,0.023465157,-0.003951799,-0.009043215,0.969209,2016-12-02 10:28:06,51.172564189760486
-0.489,-0.144,10.082,0.0,0.0,0.0010660981,320.0,-0.03148148,-0.19097614,9.804742,0.064842284,0.009663254,0.039027214,-0.003951799,-0.009043215,0.969209,2016-12-02 10:28:07,74.35228732961167
-0.497,-0.128,10.083,0.0010660981,-0.0042643924,0.0,320.0,-0.03148148,-0.19097614,9.804742,0.060053878,0.008466154,0.042020798,-0.003951799,-0.009043215,0.969209,2016-12-02 10:28:08,53.31550498002672
-0.499,-0.131,10.085,0.0,-0.0010660981,0.0,320.0,-0.03148148,-0.19097614,9.804742,0.060053878,-5.121082E-4,0.019275665,-0.003951799,-0.009043215,0.969209,2016-12-02 10:28:09,57.830788172359775
-0.507,-0.131,10.097,0.0,0.0021321962,0.0,320.0,-0.03148148,-0.19097614,9.804742,0.052871276,0.027021214,0.024064064,-0.003951799,-0.009043215,0.969209,2016-12-02 10:28:10,72.76339213260057
-0.488,-0.134,10.102,0.0,0.0010660981,0.0,320.0,-0.03148148,-0.19097614,9.804742,0.058856778,0.009064704,0.029450417,-0.003951799,-0.009043215,0.969209,2016-12-02 10:28:11,59.070339364537716
-0.487,-0.131,10.098,0.0,-0.0021321962,0.0010660981,320.0,-0.03148148,-0.19097614,9.804742,0.05466693,0.018042967,0.034238815,-0.003951799,-0.009043215,0.969209,2016-12-02 10:28:12,71.05641708280088
-0.496,-0.139,10.117,0.0,0.0010660981,0.0,320.0,-0.03148148,-0.19097614,9.804742,0.054068375,0.005473405,0.009698868,-0.003951799,-0.009043215,0.969209,2016-12-02 10:28:13,76.43164809024975
-0.496,-0.152,10.087,0.0,-0.0010660981,0.0,320.0,-0.03148148,-0.19097614,9.804742,0.06963068,0.0078676045,0.04022503,-0.003951799,-0.009043215,0.969209,2016-12-02 10:28:14,63.56595687705205
-0.486,-0.131,10.101,0.0,0.0021321962,0.0021321962,320.0,-0.03148148,-0.19097614,9.804742,0.06903213,0.0048748553,0.04321766,-0.003951799,-0.009043215,0.969209,2016-12-02 10:28:15,66.30430809260113
-0.49,-0.148,10.1,0.0010660981,0.0010660981,0.0,320.0,-0.03148148,-0.19097614,9.804742,0.058856778,0.014451653,0.0013189316,-0.003951799,-0.009043215,0.969209,2016-12-02 10:28:16,55.09984180651496
-0.498,-0.123,10.101,0.0,0.0010660981,0.0010660981,320.0,-0.03148148,-0.19097614,9.804742,0.063046634,0.013853103,0.054590225,-0.003951799,-0.009043215,0.969209,2016-12-02 10:28:17,70.2440557572437
-0.492,-0.126,10.088,0.0010660981,0.0,0.0010660981,320.0,-0.03148148,-0.19097614,9.804742,0.07202489,0.010261804,0.010296822,-0.003951799,-0.009043215,0.969209,2016-12-02 10:28:18,53.09712587739212
-0.503,-0.143,10.075,0.0010660981,0.0,0.0,550.0,-0.03148148,-0.19097614,9.804742,0.06184953,0.013254553,0.0073041916,-0.003951799,-0.009043215,0.969209,2016-12-02 10:28:19,73.24776120709487
-0.49,-0.12,10.083,0.0021321962,0.0,0.0,550.0,-0.03148148,-0.19097614,9.804742,0.06184953,0.022232816,0.03543663,-0.003951799,-0.009043215,0.969209,2016-12-02 10:28:20,70.90221399312279
-0.484,-0.126,10.087,-0.0010660981,0.0010660981,0.0,320.0,-0.03148148,-0.19097614,9.804742,0.06603938,0.019838616,0.04022503,-0.003951799,-0.009043215,0.969209,2016-12-02 10:28:21,75.4121852929602
-0.504,-0.125,10.087,0.0,0.0010660981,0.0010660981,320.0,-0.03148148,-0.19097614,9.804742,0.046885774,0.012057453,0.039027214,-0.003951799,-0.009043215,0.969209,2016-12-02 10:28:22,79.13735345934992
-0.493,-0.135,10.082,0.0010660981,-0.0010660981,0.0,320.0,-0.03148148,-0.19097614,9.804742,0.051075622,0.0030792058,0.043815613,-0.003951799,-0.009043215,0.969209,2016-12-02 10:28:23,74.31579411993819
-0.506,-0.126,10.12,0.0010660981,0.0,0.0,320.0,-0.03148148,-0.19097614,9.804742,0.064243734,6.850064E-4,0.04740715,-0.003951799,-0.009043215,0.969209,2016-12-02 10:28:24,77.98543826462877
-0.49,-0.14,10.085,0.0,0.0,0.0010660981,320.0,-0.03148148,-0.19097614,9.804742,0.06903213,0.021035716,0.018078804,-0.003951799,-0.009043215,0.969209,2016-12-02 10:28:25,67.3139246148243
-0.506,-0.117,10.11,0.0021321962,0.0021321962,0.0,320.0,-0.03148148,-0.19097614,9.804742,0.07382054,0.012656003,0.04022503,-0.003951799,-0.009043215,0.969209,2016-12-02 10:28:26,73.87003567581556
-0.496,-0.134,10.09,0.0010660981,0.0,0.0,550.0,-0.03148148,-0.19097614,9.804742,0.050477073,0.013254553,0.025859833,-0.003951799,-0.009043215,0.969209,2016-12-02 10:28:27,50.5312565663
-0.476,-0.134,10.094,0.0,0.0021321962,0.0,550.0,-0.03148148,-0.19097614,9.804742,0.06903213,0.0018821061,0.039027214,-0.003951799,-0.009043215,0.969209,2016-12-02 10:28:28,76.28020902272996
-0.494,-0.134,10.085,0.0,0.0010660981,0.0,550.0,-0.03148148,-0.19097614,9.804742,0.063645184,0.009663254,0.04261875,-0.003951799,-0.009043215,0.969209,2016-12-02 10:28:29,78.30147752639817
-0.503,-0.128,10.099,0.0,0.0010660981,0.0010660981,550.0,-0.03148148,-0.19097614,9.804742,0.063046634,0.012057453,0.05219555,-0.003951799,-0.009043215,0.969209,2016-12-02 10:28:30,51.229405751671024
-0.479,-0.136,10.079,0.0,0.0021321962,0.0010660981,320.0,-0.03148148,-0.19097614,9.804742,0.06783503,0.019838616,0.048006058,-0.003951799,-0.009043215,0.969209,2016-12-02 10:28:31,76.74836303202183
-0.492,-0.12,10.078,0.0010660981,-0.0021321962,0.0,320.0,-0.03148148,-0.19097614,9.804742,0.07142634,0.006071955,0.055787086,-0.003951799,-0.009043215,0.969209,2016-12-02 10:28:32,73.83742091585565
-0.493,-0.119,10.088,0.0010660981,0.0021321962,0.0,320.0,-0.03148148,-0.19097614,9.804742,0.080404595,0.0030792058,0.005508423,-0.003951799,-0.009043215,0.969209,2016-12-02 10:28:33,77.76892899695979
-0.493,-0.134,10.093,0.0,0.0010660981,0.0010660981,320.0,-0.03148148,-0.19097614,9.804742,0.07382054,0.0018821061,0.07853222,-0.003951799,-0.009043215,0.969209,2016-12-02 10:28:34,80.63629958060869
-0.474,-0.134,10.076,0.0010660981,0.0,0.0,320.0,-0.03148148,-0.19097614,9.804742,0.09177706,0.012057453,0.011494637,-0.003951799,-0.009043215,0.969209,2016-12-02 10:28:35,55.00984298314621
-0.505,-0.135,10.075,0.0,0.0,0.0021321962,320.0,-0.03148148,-0.19097614,9.804742,0.051674172,0.008466154,0.015684128,-0.003951799,-0.009043215,0.969209,2016-12-02 10:28:36,76.95863067003955
-0.499,-0.129,10.087,0.0,0.0,0.0021321962,320.0,-0.03148148,-0.19097614,9.804742,0.064243734,-0.001110658,0.019275665,-0.003951799,-0.009043215,0.969209,2016-12-02 10:28:37,73.2374224696217
-0.48,-0.138,10.083,0.0,-0.0010660981,0.0,320.0,-0.03148148,-0.19097614,9.804742,0.076813295,0.017444417,0.019275665,-0.003951799,-0.009043215,0.969209,2016-12-02 10:28:38,76.51220433406957
-0.485,-0.132,10.08,0.0031982942,0.0,0.0,320.0,-0.03148148,-0.19097614,9.804742,0.075616196,0.016845867,0.018676758,-0.003951799,-0.009043215,0.969209,2016-12-02 10:28:39,50.343202622866954
-0.505,-0.136,10.082,0.0,-0.0010660981,0.0010660981,320.0,-0.03148148,-0.19097614,9.804742,0.059455328,0.0078676045,0.05219555,-0.003951799,-0.009043215,0.969209,2016-12-02 10:28:40,70.09733335047113
-0.508,-0.13,10.073,0.0,-0.0010660981,0.0,320.0,-0.03148148,-0.19097614,9.804742,0.049279973,0.009064704,0.04022503,-0.003951799,-0.009043215,0.969209,2016-12-02 10:28:41,51.87104632064273
-0.49,-0.136,10.092,0.0010660981,0.0010660981,0.0010660981,320.0,-0.03148148,-0.19097614,9.804742,0.06544083,0.006071955,0.033041954,-0.003951799,-0.009043215,0.969209,2016-12-02 10:28:42,75.36797845271705
-0.495,-0.143,10.081,0.0021321962,-0.0010660981,0.0010660981,320.0,-0.03148148,-0.19097614,9.804742,0.064842284,-0.0035048574,0.05339241,-0.003951799,-0.009043215,0.969209,2016-12-02 10:28:43,54.200489939431534
-0.499,-0.134,10.078,0.0,-0.0021321962,0.0021321962,320.0,-0.03148148,-0.19097614,9.804742,0.064842284,0.015050203,0.05818081,-0.003951799,-0.009043215,0.969209,2016-12-02 10:28:44,72.28830124518748
-0.487,-0.14,10.098,0.0,0.0010660981,0.0,320.0,-0.03148148,-0.19097614,9.804742,0.07322199,0.014451653,0.063568115,-0.003951799,-0.009043215,0.969209,2016-12-02 10:28:45,75.1188034100356
-0.496,-0.132,10.106,0.0,0.0,0.0010660981,320.0,-0.03148148,-0.19097614,9.804742,0.078010395,0.0036777556,0.012691498,-0.003951799,-0.009043215,0.969209,2016-12-02 10:28:46,51.6859764556936
-0.502,-0.131,10.098,0.0010660981,0.0,0.0,320.0,-0.03148148,-0.19097614,9.804742,0.06663793,0.018641517,0.0025157928,-0.003951799,-0.009043215,0.969209,2016-12-02 10:28:47,65.39883883353893
-0.501,-0.126,10.088,0.0010660981,0.0010660981,0.0010660981,320.0,-0.032735374,-0.19097611,9.804735,0.058913574,0.009064674,0.029457092,-0.0040137735,-0.009027481,0.96920866,2016-12-02 10:28:48,75.51968832766529
-0.485,-0.132,10.104,0.0010660981,0.0031982942,0.0,320.0,-0.032735374,-0.19097611,9.804735,0.072081685,0.019838586,0.03185177,-0.0040137735,-0.009027481,0.96920866,2016-12-02 10:28:49,53.324607500759754
-0.504,-0.123,10.077,0.0,-0.0010660981,0.0010660981,320.0,-0.032735374,-0.19097611,9.804735,0.069088936,0.019240037,0.010902405,-0.0040137735,-0.009027481,0.96920866,2016-12-02 10:28:50,76.28149768113394
-0.49,-0.128,10.086,0.0,0.0,0.0010660981,320.0,-0.032735374,-0.19097611,9.804735,0.073278785,8.6426735E-5,0.035443306,-0.0040137735,-0.009027481,0.96920866,2016-12-02 10:28:51,52.648147297198456
-0.509,-0.142,10.092,0.0010660981,0.0,0.0,320.0,-0.032735374,-0.19097611,9.804735,0.075074434,0.026422635,0.024668694,-0.0040137735,-0.009027481,0.96920866,2016-12-02 10:28:52,76.69401950143973
-0.474,-0.14,10.053,0.0,0.0,0.0010660981,320.0,-0.032735374,-0.19097611,9.804735,0.08405269,0.003079176,0.030654907,-0.0040137735,-0.009027481,0.96920866,2016-12-02 10:28:53,79.65299976684827
-0.506,-0.105,10.099,0.0021321962,0.0021321962,0.0,320.0,-0.032735374,-0.19097611,9.804735,0.060709223,0.027021185,0.052202225,-0.0040137735,-0.009027481,0.96920866,2016-12-02 10:28:55,81.65141465440331
-0.483,-0.134,10.087,0.0,0.0031982942,0.0,320.0,-0.032735374,-0.19097611,9.804735,0.07986283,0.007269025,0.037239075,-0.0040137735,-0.009027481,0.96920866,2016-12-02 10:28:56,52.734388226738304
-0.486,-0.132,10.055,0.0010660981,0.0021321962,0.0010660981,320.0,-0.032735374,-0.19097611,9.804735,0.07806718,8.6426735E-5,0.0067129135,-0.0040137735,-0.009027481,0.96920866,2016-12-02 10:28:57,54.7372647592412
-0.496,-0.123,10.099,0.0010660981,0.0010660981,0.0010660981,320.0,-0.032735374,-0.19097611,9.804735,0.06609618,0.0012835264,0.028859138,-0.0040137735,-0.009027481,0.96920866,2016-12-02 10:28:58,69.72732582565885
-0.486,-0.135,10.099,0.0010660981,0.0021321962,0.0010660981,320.0,-0.032735374,-0.19097611,9.804735,0.07746863,0.0054733753,0.03185177,-0.0040137735,-0.009027481,0.96920866,2016-12-02 10:28:59,71.92070595777825
-0.514,-0.133,10.111,0.0,-0.0010660981,0.0,320.0,-0.032735374,-0.19097611,9.804735,0.04873822,0.008466125,0.042027473,-0.0040137735,-0.009027481,0.96920866,2016-12-02 10:29:00,77.79944212902296
-0.489,-0.136,10.092,0.0,0.0021321962,0.0010660981,320.0,-0.032735374,-0.19097611,9.804735,0.07926428,0.0018820763,0.038435936,-0.0040137735,-0.009027481,0.96920866,2016-12-02 10:29:01,52.767432248221404
-0.49,-0.133,10.099,0.0,0.0021321962,0.0,320.0,-0.032735374,-0.19097611,9.804735,0.073877335,6.849766E-4,0.045618057,-0.0040137735,-0.009027481,0.96920866,2016-12-02 10:29:02,51.11118467695548
-0.51,-0.139,10.122,0.0021321962,0.0010660981,0.0010660981,320.0,-0.032735374,-0.19097611,9.804735,0.05352662,0.008466125,0.029457092,-0.0040137735,-0.009027481,0.96920866,2016-12-02 10:29:03,73.43774854283572
-0.478,-0.138,10.094,0.0021321962,0.0,0.0021321962,320.0,-0.032735374,-0.19097611,9.804735,0.070884585,0.006670475,0.0348444,-0.0040137735,-0.009027481,0.96920866,2016-12-02 10:29:04,77.8519434656672
-0.478,-0.133,10.09,0.0,0.0,0.0021321962,320.0,-0.032735374,-0.19097611,9.804735,0.052928068,0.006670475,0.044421196,-0.0040137735,-0.009027481,0.96920866,2016-12-02 10:29:05,54.618313813171724
-0.502,-0.132,10.081,0.0010660981,0.0,0.0,320.0,-0.032735374,-0.19097611,9.804735,0.060110673,0.006670475,0.03185177,-0.0040137735,-0.009027481,0.96920866,2016-12-02 10:29:06,78.82711391247364
-0.489,-0.128,10.096,0.0,0.0,0.0010660981,320.0,-0.032735374,-0.19097611,9.804735,0.06729328,0.019240037,0.02107811,-0.0040137735,-0.009027481,0.96920866,2016-12-02 10:29:07,75.72230635411442
-0.497,-0.12,10.087,0.0,0.0010660981,0.0,320.0,-0.032735374,-0.19097611,9.804735,0.08584835,0.017444387,0.03304863,-0.0040137735,-0.009027481,0.96920866,2016-12-02 10:29:08,55.27968329090238
-0.472,-0.123,10.086,0.0010660981,0.0010660981,0.0021321962,320.0,-0.032735374,-0.19097611,9.804735,0.072680235,0.014451623,0.044421196,-0.0040137735,-0.009027481,0.96920866,2016-12-02 10:29:09,68.39009089397904
-0.503,-0.132,10.091,0.0,-0.0010660981,0.0,320.0,-0.032735374,-0.19097611,9.804735,0.059512123,0.016247287,0.04082966,-0.0040137735,-0.009027481,0.96920866,2016-12-02 10:29:10,73.06027646114495
-0.484,-0.12,10.093,0.0,0.0021321962,0.0,320.0,-0.032735374,-0.19097611,9.804735,0.06489908,-0.0023077875,0.03424549,-0.0040137735,-0.009027481,0.96920866,2016-12-02 10:29:11,74.69704009822452
-0.499,-0.129,10.072,0.0010660981,0.0010660981,0.0010660981,320.0,-0.032735374,-0.19097611,9.804735,0.06250487,0.015648723,0.015690804,-0.0040137735,-0.009027481,0.96920866,2016-12-02 10:29:12,76.14959055255915
-0.495,-0.128,10.091,0.0,-0.0010660981,0.0,320.0,-0.032735374,-0.19097611,9.804735,0.070286036,0.009064674,0.029457092,-0.0040137735,-0.009027481,0.96920866,2016-12-02 10:29:13,76.44378734404367
-0.481,-0.113,10.076,0.0021321962,0.0,0.0010660981,320.0,-0.032735374,-0.19097611,9.804735,0.052928068,0.030013934,0.013297081,-0.0040137735,-0.009027481,0.96920866,2016-12-02 10:29:14,53.86925578330356
-0.491,-0.132,10.087,0.0,0.0021321962,0.0,320.0,-0.032735374,-0.19097611,9.804735,0.06669473,0.006071925,0.032450676,-0.0040137735,-0.009027481,0.96920866,2016-12-02 10:29:15,74.98326208735624
-0.502,-0.135,10.084,0.0,0.0,0.0010660981,320.0,-0.032735374,-0.19097611,9.804735,0.0852498,0.018641487,0.02407074,-0.0040137735,-0.009027481,0.96920866,2016-12-02 10:29:16,70.60047034193576
-0.498,-0.125,10.103,0.0021321962,0.0,0.0010660981,320.0,-0.032735374,-0.19097611,9.804735,0.06669473,0.006071925,0.033647537,-0.0040137735,-0.009027481,0.96920866,2016-12-02 10:29:17,72.87393783474757
-0.483,-0.137,10.091,0.0031982942,0.0,0.0010660981,320.0,-0.032735374,-0.19097611,9.804735,0.070286036,0.028218284,0.03304863,-0.0040137735,-0.009027481,0.96920866,2016-12-02 10:29:18,79.09651792725842
-0.492,-0.131,10.098,0.0010660981,0.0,0.0,320.0,-0.032735374,-0.19097611,9.804735,0.070884585,0.018641487,0.039632797,-0.0040137735,-0.009027481,0.96920866,2016-12-02 10:29:19,64.69627629870581
-0.478,-0.132,10.1,0.0021321962,0.0,0.0,320.0,-0.032735374,-0.19097611,9.804735,0.06310342,0.013853073,0.01808548,-0.0040137735,-0.009027481,0.96920866,2016-12-02 10:29:20,51.68631332686474
-0.501,-0.133,10.076,0.0010660981,0.0021321962,0.0010660981,320.0,-0.032735374,-0.19097611,9.804735,0.058315024,0.0054733753,0.02107811,-0.0040137735,-0.009027481,0.96920866,2016-12-02 10:29:21,75.30333143058341
-0.505,-0.141,10.088,0.0010660981,0.0021321962,0.0,320.0,-0.032735374,-0.19097611,9.804735,0.070884585,0.0012835264,0.024668694,-0.0040137735,-0.009027481,0.96920866,2016-12-02 10:29:22,77.78358213534742
-0.49,-0.14,10.082,0.0010660981,0.0,0.0010660981,320.0,-0.032735374,-0.19097611,9.804735,0.057117924,0.021634236,0.006114006,-0.0040137735,-0.009027481,0.96920866,2016-12-02 10:29:23,59.29153418493507
-0.496,-0.15,10.1,0.0,0.0021321962,0.0,320.0,-0.032735374,-0.19097611,9.804735,0.06370198,-0.0011106879,0.038435936,-0.0040137735,-0.009027481,0.96920866,2016-12-02 10:29:24,50.090995095231165
-0.493,-0.121,10.09,0.0010660981,0.0010660981,0.0,320.0,-0.032735374,-0.19097611,9.804735,0.07746863,0.023429886,0.017486572,-0.0040137735,-0.009027481,0.96920866,2016-12-02 10:29:25,74.76108133041417
-0.502,-0.149,10.108,0.0010660981,0.0021321962,0.0010660981,320.0,-0.032735374,-0.19097611,9.804735,0.051730968,0.0036777258,0.058187485,-0.0040137735,-0.009027481,0.96920866,2016-12-02 10:29:26,72.75476105289647
-0.491,-0.137,10.083,0.0010660981,-0.0010660981,0.0,320.0,-0.032735374,-0.19097611,9.804735,0.072680235,0.015050173,0.027662277,-0.0040137735,-0.009027481,0.96920866,2016-12-02 10:29:27,79.15820165099363
-0.501,-0.123,10.118,0.0,-0.0021321962,0.0,320.0,-0.032735374,-0.19097611,9.804735,0.060709223,0.018042937,0.058187485,-0.0040137735,-0.009027481,0.96920866,2016-12-02 10:29:28,78.28259381659058
-0.484,-0.123,10.073,0.0,0.0021321962,0.0,320.0,-0.032735374,-0.19097611,9.804735,0.052329518,0.013254523,0.05758953,-0.0040137735,-0.009027481,0.96920866,2016-12-02 10:29:29,80.17266039340097
-0.486,-0.15,10.091,0.0,0.0010660981,0.0010660981,320.0,-0.032735374,-0.19097611,9.804735,0.06430052,0.014451623,0.025267601,-0.0040137735,-0.009027481,0.96920866,2016-12-02 10:29:30,73.2060950915629
-0.501,-0.134,10.088,0.0010660981,0.0,0.0,320.0,-0.032735374,-0.19097611,9.804735,0.069687486,-0.0029063374,0.039632797,-0.0040137735,-0.009027481,0.96920866,2016-12-02 10:29:31,72.12756623017097
-0.488,-0.129,10.101,0.0010660981,0.0,0.0021321962,320.0,-0.032735374,-0.19097611,9.804735,0.08046139,0.013853073,0.041428566,-0.0040137735,-0.009027481,0.96920866,2016-12-02 10:29:32,51.14359572430268
-0.506,-0.123,10.091,0.0,0.0,0.0010660981,320.0,-0.032735374,-0.19097611,9.804735,0.06489908,0.015050173,0.026464462,-0.0040137735,-0.009027481,0.96920866,2016-12-02 10:29:33,70.4614581098931
-0.504,-0.141,10.1,0.0,0.0031982942,0.0,320.0,-0.032735374,-0.19097611,9.804735,0.06370198,0.025225535,0.016887665,-0.0040137735,-0.009027481,0.96920866,2016-12-02 10:29:34,77.77024739601517
-0.488,-0.122,10.091,0.0,0.0031982942,0.0021321962,320.0,-0.032735374,-0.19097611,9.804735,0.08405269,0.031809583,0.029457092,-0.0040137735,-0.009027481,0.96920866,2016-12-02 10:29:35,75.47246568682425
-0.496,-0.129,10.108,0.0,0.0010660981,0.0010660981,320.0,-0.032735374,-0.19097611,9.804735,0.06370198,0.0048748255,0.035443306,-0.0040137735,-0.009027481,0.96920866,2016-12-02 10:29:36,52.54956527656634
-0.481,-0.122,10.1,0.0010660981,0.0,0.0,320.0,-0.032735374,-0.19097611,9.804735,0.08105994,0.017444387,0.029457092,-0.0040137735,-0.009027481,0.96920866,2016-12-02 10:29:37,74.13827498657574
-0.497,-0.137,10.123,0.0021321962,0.0,0.0010660981,320.0,-0.032735374,-0.19097611,9.804735,0.058315024,0.007867575,0.052202225,-0.0040137735,-0.009027481,0.96920866,2016-12-02 10:29:38,53.764981552685484
-0.489,-0.123,10.115,0.0,-0.0010660981,0.0010660981,320.0,-0.032735374,-0.19097611,9.804735,0.052928068,0.016845837,0.020479202,-0.0040137735,-0.009027481,0.96920866,2016-12-02 10:29:39,76.20818600520161
-0.5,-0.135,10.09,0.0010660981,0.0,0.0,320.0,-0.032735374,-0.19097611,9.804735,0.08584835,0.006071925,0.030056,-0.0040137735,-0.009027481,0.96920866,2016-12-02 10:29:40,75.14737410765125
-0.499,-0.119,10.088,0.0010660981,0.0010660981,0.0,320.0,-0.032735374,-0.19097611,9.804735,0.068490386,0.010860324,0.048610687,-0.0040137735,-0.009027481,0.96920866,2016-12-02 10:29:41,77.988402773742
-0.492,-0.135,10.091,0.0010660981,0.0010660981,0.0010660981,320.0,-0.032735374,-0.19097611,9.804735,0.06789183,0.006670475,0.030056,-0.0040137735,-0.009027481,0.96920866,2016-12-02 10:29:42,57.49857797161276
-0.486,-0.138,10.088,0.0,0.0,0.0010660981,320.0,-0.032735374,-0.19097611,9.804735,0.05472372,0.010261774,0.040231705,-0.0040137735,-0.009027481,0.96920866,2016-12-02 10:29:43,78.17271974333762
-0.495,-0.127,10.094,0.0,0.0031982942,0.0021321962,320.0,-0.032735374,-0.19097611,9.804735,0.06430052,0.003079176,0.040231705,-0.0040137735,-0.009027481,0.96920866,2016-12-02 10:29:44,76.88843218500469
-0.497,-0.117,10.095,0.0010660981,0.0,0.0010660981,320.0,-0.032735374,-0.19097611,9.804735,0.06609618,0.002480626,0.028859138,-0.0040137735,-0.009027481,0.96920866,2016-12-02 10:29:45,74.14844941434049
-0.484,-0.134,10.076,0.0,0.0021321962,0.0,320.0,-0.032735374,-0.19097611,9.804735,0.07866573,0.006670475,0.023471832,-0.0040137735,-0.009027481,0.96920866,2016-12-02 10:29:46,58.89039424598685
-0.501,-0.108,10.096,0.0,0.0021321962,0.0,320.0,-0.032735374,-0.19097611,9.804735,0.05352662,0.006071925,0.053399086,-0.0040137735,-0.009027481,0.96920866,2016-12-02 10:29:47,77.64511225062064
-0.483,-0.14,10.094,0.0010660981,0.0010660981,0.0,320.0,-0.032735374,-0.19097611,9.804735,0.06430052,0.021035686,0.040231705,-0.0040137735,-0.009027481,0.96920866,2016-12-02 10:29:48,71.48354854858069
-0.501,-0.119,10.086,0.0,0.0,0.0010660981,320.0,-0.032735374,-0.19097611,9.804735,0.06549763,0.011458874,0.037239075,-0.0040137735,-0.009027481,0.96920866,2016-12-02 10:29:49,78.3730188647487
-0.488,-0.132,10.075,0.0010660981,0.0010660981,0.0010660981,320.0,-0.032735374,-0.19097611,9.804735,0.073877335,0.0042762756,0.016887665,-0.0040137735,-0.009027481,0.96920866,2016-12-02 10:29:50,77.06957481174666
-0.494,-0.122,10.107,0.0021321962,0.0,0.0,320.0,-0.032735374,-0.19097611,9.804735,0.075074434,0.015050173,0.019880295,-0.0040137735,-0.009027481,0.96920866,2016-12-02 10:29:51,76.02972119111543
-0.495,-0.12,10.107,0.0010660981,0.0,0.0,320.0,-0.032735374,-0.19097611,9.804735,0.075074434,0.015050173,0.016887665,-0.0040137735,-0.009027481,0.96920866,2016-12-02 10:29:52,78.13290396888672
-0.502,-0.119,10.071,0.0010660981,0.0,0.0010660981,320.0,-0.032735374,-0.19097611,9.804735,0.05053387,0.011458874,0.019880295,-0.0040137735,-0.009027481,0.96920866,2016-12-02 10:29:53,76.77659627342797
-0.497,-0.134,10.117,0.0,0.0010660981,0.0010660981,320.0,-0.032735374,-0.19097611,9.804735,0.06430052,0.008466125,0.06537056,-0.0040137735,-0.009027481,0.96920866,2016-12-02 10:29:54,60.1894632925072
-0.487,-0.12,10.102,0.0,0.0021321962,0.0010660981,320.0,-0.032735374,-0.19097611,9.804735,0.068490386,0.0042762756,0.03424549,-0.0040137735,-0.009027481,0.96920866,2016-12-02 10:29:55,79.6389813340973
-0.505,-0.126,10.115,0.0,0.0031982942,0.0,320.0,-0.032735374,-0.19097611,9.804735,0.06310342,0.0042762756,0.06357479,-0.0040137735,-0.009027481,0.96920866,2016-12-02 10:29:57,78.14469889100852
-0.498,-0.113,10.091,0.0010660981,0.0021321962,0.0,320.0,-0.032735374,-0.19097611,9.804735,0.057117924,0.028816834,0.020479202,-0.0040137735,-0.009027481,0.96920866,2016-12-02 10:29:58,66.01606634971105
-0.486,-0.124,10.089,0.0010660981,0.0,-0.0010660981,320.0,-0.032735374,-0.19097611,9.804735,0.070884585,0.015648723,0.027662277,-0.0040137735,-0.009027481,0.96920866,2016-12-02 10:29:59,52.145706419617134
-0.492,-0.109,10.078,0.0,0.0010660981,0.0,320.0,-0.032735374,-0.19097611,9.804735,0.073877335,0.025824085,0.03185177,-0.0040137735,-0.009027481,0.96920866,2016-12-02 10:30:00,50.685381770775095
-0.501,-0.124,10.092,0.0010660981,0.0,0.0,320.0,-0.032735374,-0.19097611,9.804735,0.074475884,0.025824085,0.030654907,-0.0040137735,-0.009027481,0.96920866,2016-12-02 10:30:01,49.923212405144426
-0.49,-0.125,10.084,0.0021321962,0.0021321962,0.0,320.0,-0.035034288,-0.19097611,9.804728,0.0767748,0.006670475,0.07256031,-0.0041273986,-0.008998636,0.9692082,2016-12-02 10:30:02,65.31179904616658
-0.49,-0.134,10.085,0.0010660981,-0.0010660981,-0.0010660981,320.0,-0.035034288,-0.19097611,9.804728,0.07198639,0.010261774,0.025874138,-0.0041273986,-0.008998636,0.9692082,2016-12-02 10:30:03,72.41502603318634
-0.497,-0.119,10.086,-0.0010660981,0.0031982942,0.0,320.0,-0.035034288,-0.19097611,9.804728,0.0875487,0.016845837,0.027071,-0.0041273986,-0.008998636,0.9692082,2016-12-02 10:30:04,51.56952367926645
-0.489,-0.125,10.06,0.0021321962,0.0010660981,0.0010660981,320.0,-0.035034288,-0.19097611,9.804728,0.060613938,0.020437136,0.040837288,-0.0041273986,-0.008998636,0.9692082,2016-12-02 10:30:05,77.93820927161636
-0.502,-0.139,10.083,0.0010660981,0.0,0.0010660981,320.0,-0.035034288,-0.19097611,9.804728,0.062409587,0.006071925,-4.6253204E-4,-0.0041273986,-0.008998636,0.9692082,2016-12-02 10:30:06,78.52822255980789
-0.491,-0.132,10.104,0.0,0.0,0.0010660981,320.0,-0.035034288,-0.19097611,9.804728,0.07198639,0.013254523,0.039640427,-0.0041273986,-0.008998636,0.9692082,2016-12-02 10:30:07,52.9551501113545
-0.493,-0.132,10.108,0.0,0.0010660981,0.0010660981,320.0,-0.035034288,-0.19097611,9.804728,0.07617625,0.026422635,0.01629734,-0.0041273986,-0.008998636,0.9692082,2016-12-02 10:30:08,76.39690263612638
-0.495,-0.114,10.089,0.0010660981,0.0010660981,0.0,320.0,-0.035034288,-0.19097611,9.804728,0.061212488,0.013254523,0.03904152,-0.0041273986,-0.008998636,0.9692082,2016-12-02 10:30:09,52.17906566450818
-0.495,-0.123,10.073,0.0,0.0031982942,0.0,320.0,-0.035034288,-0.19097611,9.804728,0.06779654,0.015648723,0.034852028,-0.0041273986,-0.008998636,0.9692082,2016-12-02 10:30:10,50.50962341259634
-0.498,-0.134,10.099,0.0021321962,0.0,0.0,320.0,-0.035034288,-0.19097611,9.804728,0.060015388,0.008466125,0.031859398,-0.0041273986,-0.008998636,0.9692082,2016-12-02 10:30:11,76.04127137753544
-0.509,-0.126,10.087,0.0010660981,0.0,0.0,320.0,-0.035034288,-0.19097611,9.804728,0.079169005,0.014451623,0.033655167,-0.0041273986,-0.008998636,0.9692082,2016-12-02 10:30:12,78.58300710375855
-0.498,-0.13,10.075,0.0,-0.0010660981,0.0,320.0,-0.035034288,-0.19097611,9.804728,0.079169005,0.024626985,0.008516312,-0.0041273986,-0.008998636,0.9692082,2016-12-02 10:30:13,73.19329760047508
-0.499,-0.124,10.085,0.0,0.0021321962,0.0,320.0,-0.035034288,-0.19097611,9.804728,0.061212488,0.022831336,0.021683693,-0.0041273986,-0.008998636,0.9692082,2016-12-02 10:30:14,76.80678704082572
-0.493,-0.131,10.105,0.0010660981,0.0,0.0,320.0,-0.035034288,-0.19097611,9.804728,0.07198639,0.015648723,0.023479462,-0.0041273986,-0.008998636,0.9692082,2016-12-02 10:30:15,56.27832805932109
-0.486,-0.112,10.073,0.0021321962,0.0,0.0,320.0,-0.035034288,-0.19097611,9.804728,0.064205244,0.010860324,0.045027733,-0.0041273986,-0.008998636,0.9692082,2016-12-02 10:30:16,79.64684117575291
-0.51,-0.115,10.087,0.0010660981,0.0,0.0010660981,320.0,-0.035034288,-0.19097611,9.804728,0.080964655,0.017444387,0.031859398,-0.0041273986,-0.008998636,0.9692082,2016-12-02 10:30:17,55.53260125194198
-0.497,-0.126,10.081,0.0010660981,0.0,0.0010660981,320.0,-0.035034288,-0.19097611,9.804728,0.07438059,0.0036777258,0.012705803,-0.0041273986,-0.008998636,0.9692082,2016-12-02 10:30:18,66.43243919561442
-0.489,-0.124,10.084,0.0,0.0010660981,0.0,320.0,-0.035034288,-0.19097611,9.804728,0.07497915,0.017444387,0.02407837,-0.0041273986,-0.008998636,0.9692082,2016-12-02 10:30:19,75.07278108114537
-0.495,-0.121,10.09,0.0010660981,0.0,0.0,320.0,-0.035034288,-0.19097611,9.804728,0.06719799,0.024626985,0.045625687,-0.0041273986,-0.008998636,0.9692082,2016-12-02 10:30:20,52.13996774600412
-0.502,-0.125,10.09,0.0010660981,0.0,-0.0010660981,320.0,-0.035034288,-0.19097611,9.804728,0.07497915,0.028218284,0.032458305,-0.0041273986,-0.008998636,0.9692082,2016-12-02 10:30:21,78.6028796892196
-0.483,-0.111,10.076,0.0,-0.0021321962,0.0,320.0,-0.035034288,-0.19097611,9.804728,0.082161754,0.013254523,0.033655167,-0.0041273986,-0.008998636,0.9692082,2016-12-02 10:30:22,75.37055718784559
-0.49,-0.127,10.087,-0.0031982942,0.0031982942,0.0010660981,320.0,-0.03023261,-0.18993138,9.804763,0.06479052,0.0068228394,0.017458916,-0.0038769655,-0.009007247,0.9692096,2016-12-02 10:30:23,63.03137041825109
-0.477,-0.125,10.076,-0.0010660981,0.0010660981,0.0,320.0,-0.03023261,-0.18993138,9.804763,0.06538907,0.017596751,0.064743996,-0.0038769655,-0.009007247,0.9692096,2016-12-02 10:30:24,72.06984714270826
-0.493,-0.123,10.07,0.0,0.0031982942,-0.0010660981,320.0,-0.03023261,-0.18993138,9.804763,0.06538907,0.007421389,0.03242302,-0.0038769655,-0.009007247,0.9692096,2016-12-02 10:30:25,69.75487080507872
-0.486,-0.13,10.1,0.0,0.0,0.0010660981,320.0,-0.03023261,-0.18993138,9.804763,0.06538907,0.03675036,0.0150642395,-0.0038769655,-0.009007247,0.9692096,2016-12-02 10:30:26,77.77389982575704
-0.506,-0.125,10.099,0.0010660981,0.0010660981,0.0,320.0,-0.03023261,-0.18993138,9.804763,0.05820646,0.013406888,0.0072832108,-0.0038769655,-0.009007247,0.9692096,2016-12-02 10:30:27,56.479051351080585
-0.506,-0.116,10.086,0.0,-0.0010660981,0.0,320.0,-0.03023261,-0.18993138,9.804763,0.07676152,0.018195301,0.030028343,-0.0038769655,-0.009007247,0.9692096,2016-12-02 10:30:28,78.85077238151158
-0.492,-0.132,10.104,0.0010660981,0.0,0.0010660981,320.0,-0.03023261,-0.18993138,9.804763,0.08035283,0.008618489,0.027035713,-0.0038769655,-0.009007247,0.9692096,2016-12-02 10:30:29,52.71988219224356
-0.483,-0.119,10.072,0.0010660981,0.0,0.0,320.0,-0.03023261,-0.18993138,9.804763,0.07736007,0.018793851,0.037809372,-0.0038769655,-0.009007247,0.9692096,2016-12-02 10:30:30,75.74365958297679
-0.509,-0.134,10.096,0.0,0.0021321962,0.0,320.0,-0.03023261,-0.18993138,9.804763,0.051023856,0.018793851,0.04020405,-0.0038769655,-0.009007247,0.9692096,2016-12-02 10:30:31,53.813382581124564
-0.49,-0.119,10.098,-0.0010660981,0.0,0.0,320.0,-0.03023261,-0.18993138,9.804763,0.07496587,0.011611238,0.019852638,-0.0038769655,-0.009007247,0.9692096,2016-12-02 10:30:32,68.62841429811476
-0.478,-0.121,10.076,0.0010660981,0.0,0.0,320.0,-0.03023261,-0.18993138,9.804763,0.06538907,0.012209788,0.019852638,-0.0038769655,-0.009007247,0.9692096,2016-12-02 10:30:33,52.04493568591596
-0.509,-0.113,10.086,0.0021321962,0.0010660981,0.0,320.0,-0.03023261,-0.18993138,9.804763,0.06060066,0.02118805,0.027035713,-0.0038769655,-0.009007247,0.9692096,2016-12-02 10:30:34,50.41446074188119
-0.482,-0.125,10.111,0.0,0.0,0.0010660981,320.0,-0.03023261,-0.18993138,9.804763,0.07616297,0.015202552,0.044992447,-0.0038769655,-0.009007247,0.9692096,2016-12-02 10:30:35,72.78798962401376
-0.496,-0.12,10.1,0.0010660981,0.0,0.0010660981,320.0,-0.03023261,-0.18993138,9.804763,0.06598762,0.0038300902,0.052773476,-0.0038769655,-0.009007247,0.9692096,2016-12-02 10:30:36,80.25037344848317
-0.502,-0.12,10.091,0.0,-0.0010660981,0.0,320.0,-0.03023261,-0.18993138,9.804763,0.05760791,0.0253779,0.023444176,-0.0038769655,-0.009007247,0.9692096,2016-12-02 10:30:37,74.22000836447214
-0.499,-0.119,10.066,0.0,-0.0010660981,0.0,320.0,-0.03023261,-0.18993138,9.804763,0.06299487,0.02238515,0.025239944,-0.0038769655,-0.009007247,0.9692096,2016-12-02 10:30:38,72.65700075174176
-0.488,-0.126,10.093,0.0010660981,0.0021321962,0.0,320.0,-0.03023261,-0.18993138,9.804763,0.06419197,0.0140054375,0.0120716095,-0.0038769655,-0.009007247,0.9692096,2016-12-02 10:30:39,79.52847957730947
-0.496,-0.132,10.1,0.0,0.0021321962,0.0,320.0,-0.03023261,-0.18993138,9.804763,0.07077602,0.008019939,0.020451546,-0.0038769655,-0.009007247,0.9692096,2016-12-02 10:30:40,77.75591930392844
-0.49,-0.117,10.08,0.0,0.0010660981,0.0021321962,320.0,-0.03023261,-0.18993138,9.804763,0.055812262,0.010414138,0.03721142,-0.0038769655,-0.009007247,0.9692096,2016-12-02 10:30:41,72.70918503734832
-0.493,-0.12,10.093,0.0021321962,0.0,0.0,320.0,-0.03023261,-0.18993138,9.804763,0.06060066,0.019392401,0.013867378,-0.0038769655,-0.009007247,0.9692096,2016-12-02 10:30:42,55.24380094164955
-0.487,-0.126,10.1,0.0010660981,0.0,0.0010660981,320.0,-0.03023261,-0.18993138,9.804763,0.07197312,0.014603987,0.040802002,-0.0038769655,-0.009007247,0.9692096,2016-12-02 10:30:43,50.806018177636886
-0.493,-0.119,10.092,0.0010660981,0.0,0.0,320.0,-0.03023261,-0.18993138,9.804763,0.06538907,0.0241808,0.049780846,-0.0038769655,-0.009007247,0.9692096,2016-12-02 10:30:44,79.83427573798113
-0.486,-0.121,10.088,0.0,0.0021321962,0.0,320.0,-0.03023261,-0.18993138,9.804763,0.069578916,0.02118805,0.025239944,-0.0038769655,-0.009007247,0.9692096,2016-12-02 10:30:45,78.93355566596367
-0.478,-0.132,10.103,0.0010660981,0.0,0.0010660981,320.0,-0.03023261,-0.18993138,9.804763,0.06598762,0.014603987,0.027035713,-0.0038769655,-0.009007247,0.9692096,2016-12-02 10:30:46,77.17935987738704
-0.499,-0.122,10.089,0.0,0.0,0.0031982942,320.0,-0.03023261,-0.18993138,9.804763,0.06778327,0.0068228394,0.005487442,-0.0038769655,-0.009007247,0.9692096,2016-12-02 10:30:47,54.687515164000935
-0.494,-0.116,10.073,0.0010660981,0.0,0.0010660981,320.0,-0.03023261,-0.18993138,9.804763,0.061199214,0.0229837,0.027035713,-0.0038769655,-0.009007247,0.9692096,2016-12-02 10:30:48,73.94931613369617
-0.495,-0.133,10.088,0.0010660981,0.0021321962,0.0,320.0,-0.03023261,-0.18993138,9.804763,0.07077602,0.019392401,0.03721142,-0.0038769655,-0.009007247,0.9692096,2016-12-02 10:30:50,75.06687896811131
-0.499,-0.129,10.078,0.0010660981,0.0,0.0010660981,320.0,-0.03023261,-0.18993138,9.804763,0.049228206,0.017596751,0.016262054,-0.0038769655,-0.009007247,0.9692096,2016-12-02 10:30:51,70.02661292532386
-0.483,-0.139,10.09,0.0010660981,0.0021321962,0.0,320.0,-0.03023261,-0.18993138,9.804763,0.068381816,0.02358225,0.04259777,-0.0038769655,-0.009007247,0.9692096,2016-12-02 10:30:52,74.44062799180314
-0.448,-0.099,10.056,0.0042643924,-0.0042643924,-0.0042643924,320.0,-0.019164894,-0.18575284,9.804873,0.06928511,0.02119936,0.034706116,-0.0032775123,-0.008939586,0.96921366,2016-12-02 10:30:53,62.15937821817525
-0.468,-0.119,10.102,-0.0021321962,0.0074626864,0.0010660981,320.0,-0.015603669,-0.18662442,9.804861,0.06811809,0.018479645,0.04609108,-0.0031230573,-0.009023677,0.9689235,2016-12-02 10:30:54,79.77142429048502
-0.501,-0.11,10.107,-0.0010660981,0.0,0.0,320.0,-0.015603669,-0.18662442,9.804861,0.07111084,0.028056458,0.034718513,-0.0031230573,-0.009023677,0.9689235,2016-12-02 10:30:55,74.84951906964665
-0.469,-0.109,10.082,0.0031982942,-0.0010660981,0.0,320.0,-0.015603669,-0.18662442,9.804861,0.07111084,0.020873845,0.022747993,-0.0031230573,-0.009023677,0.9689235,2016-12-02 10:30:56,78.82491605911666
-0.497,-0.1,10.099,0.0010660981,-0.0010660981,0.0,320.0,-0.015451592,-0.18662867,9.804862,0.050608046,0.037038952,0.022148132,-0.003178801,-0.009009558,0.9688891,2016-12-02 10:30:57,53.08140140701038
-0.487,-0.114,10.082,0.0,-0.0021321962,0.0010660981,320.0,-0.01795943,-0.18662868,9.804859,0.064488344,0.017885357,0.05028248,-0.0032407553,-0.008993744,0.96888894,2016-12-02 10:30:58,52.920266637180376
-0.505,-0.114,10.068,0.0010660981,0.0,0.0,320.0,-0.01795943,-0.18662868,9.804859,0.063291244,0.023870856,0.013771057,-0.0032407553,-0.008993744,0.96888894,2016-12-02 10:30:59,53.4706545238436
-0.473,-0.109,10.099,0.0010660981,0.0010660981,0.0010660981,320.0,-0.01795943,-0.18662868,9.804859,0.07047385,0.020279557,0.0035953522,-0.0032407553,-0.008993744,0.96888894,2016-12-02 10:31:00,53.17563026713189
-0.462,-0.128,10.069,0.0010660981,0.0,0.0,320.0,-0.01795943,-0.18662868,9.804859,0.082444854,0.010702744,0.024544716,-0.0032407553,-0.008993744,0.96888894,2016-12-02 10:31:01,76.80620888099112
-0.493,-0.121,10.081,0.0,-0.0010660981,0.0,320.0,-0.01795943,-0.18662868,9.804859,0.050721686,0.014294058,0.040107727,-0.0032407553,-0.008993744,0.96888894,2016-12-02 10:31:02,77.34839203299613
-0.485,-0.104,10.088,0.0010660981,0.0,0.0,320.0,-0.01795943,-0.18662868,9.804859,0.048926033,0.03225057,0.015566826,-0.0032407553,-0.008993744,0.96888894,2016-12-02 10:31:03,71.37949458113431
-0.483,-0.123,10.104,0.0,0.0010660981,0.0,320.0,-0.01795943,-0.18662868,9.804859,0.06807965,0.023870856,0.02574253,-0.0032407553,-0.008993744,0.96888894,2016-12-02 10:31:04,70.93212514597215
-0.48,-0.11,10.084,0.0031982942,0.0,-0.0010660981,320.0,-0.01795943,-0.18662868,9.804859,0.052517336,0.022075206,0.013173103,-0.0032407553,-0.008993744,0.96888894,2016-12-02 10:31:05,76.94256521331937
-0.472,-0.111,10.069,0.0,0.008528785,0.0010660981,320.0,-0.01795943,-0.18662868,9.804859,0.0722695,0.029257819,0.0071868896,-0.0032407553,-0.008993744,0.96888894,2016-12-02 10:31:06,77.35693428893418
-0.477,-0.111,10.083,-0.0010660981,0.0053304904,0.0,320.0,-0.01795943,-0.18662868,9.804859,0.06807965,0.023870856,0.023347855,-0.0032407553,-0.008993744,0.96888894,2016-12-02 10:31:07,55.24078039321003
-0.487,-0.114,10.073,0.0010660981,0.0,-0.0010660981,320.0,-0.01795943,-0.18662868,9.804859,0.05491154,0.025666505,0.041903496,-0.0032407553,-0.008993744,0.96888894,2016-12-02 10:31:08,51.96459890821744
-0.458,-0.111,10.103,0.0,-0.0021321962,0.0,320.0,-0.01795943,-0.18662868,9.804859,0.066284,0.016089708,0.03053093,-0.0032407553,-0.008993744,0.96888894,2016-12-02 10:31:09,69.5122809729788
-0.466,-0.109,10.093,0.0,-0.0021321962,-0.0010660981,550.0,-0.01795943,-0.18662868,9.804859,0.0710724,0.02806072,0.020954132,-0.0032407553,-0.008993744,0.96888894,2016-12-02 10:31:10,71.57274225291955
-0.512,-0.12,10.077,0.0021321962,0.0010660981,-0.0010660981,550.0,-0.023010813,-0.18660058,9.804848,0.04320351,0.010674641,0.040717125,-0.0034841287,-0.008930935,0.96905,2016-12-02 10:31:11,65.77987676918097
-0.484,-0.117,10.112,0.0021321962,0.0031982942,0.0,550.0,-0.023010813,-0.18660058,9.804848,0.070138276,0.016660154,0.030542374,-0.0034841287,-0.008930935,0.96905,2016-12-02 10:31:12,77.51197872048101
-0.481,-0.111,10.099,0.0010660981,-0.0010660981,0.0,550.0,-0.023010813,-0.18660058,9.804848,0.06056147,0.022645652,-0.0041742325,-0.0034841287,-0.008930935,0.96905,2016-12-02 10:31:13,77.27496588874864
-0.474,-0.099,10.055,-0.0010660981,0.0021321962,0.0,550.0,-0.021569453,-0.18559149,9.80487,0.02679839,0.02642496,0.011366844,-0.0034072176,-0.0088965185,0.96885604,2016-12-02 10:31:14,63.893155973221994
-0.483,-0.121,10.099,0.0,0.0,0.0010660981,550.0,-0.022148764,-0.18552324,9.80487,0.06748058,0.018575564,0.03052044,-0.0034211013,-0.0088911895,0.9692411,2016-12-02 10:31:15,76.6329278772286
-0.493,-0.131,10.094,0.0,0.0021321962,0.0,550.0,-0.022148764,-0.18552324,9.80487,0.06448782,0.007203102,0.028125763,-0.0034211013,-0.0088911895,0.9692411,2016-12-02 10:31:16,76.98343533109988
-0.484,-0.116,10.095,0.0,0.0010660981,-0.0010660981,550.0,-0.022148764,-0.18552324,9.80487,0.08005013,0.011392966,0.041294098,-0.0034211013,-0.0088911895,0.9692411,2016-12-02 10:31:17,69.44605806856521
-0.478,-0.117,10.092,0.0021321962,-0.0021321962,-0.0031982942,550.0,-0.022148764,-0.18552324,9.80487,0.07945158,0.018575564,0.012563705,-0.0034211013,-0.0088911895,0.9692411,2016-12-02 10:31:18,73.08404648052499
-0.487,-0.133,10.108,-0.0021321962,0.0053304904,0.0010660981,550.0,-0.021775093,-0.18815173,9.804821,0.068304,0.017612755,0.041941643,-0.0034396339,-0.009024255,0.96912986,2016-12-02 10:31:19,55.90914449548806
-0.486,-0.11,10.094,0.0,0.0021321962,0.0,550.0,-0.026164046,-0.18919607,9.8047905,0.07209441,0.022846937,0.02042389,-0.0036696608,-0.009020726,0.9691286,2016-12-02 10:31:20,73.25880534649257
-0.477,-0.114,10.091,0.0,-0.0021321962,0.0,320.0,-0.026164046,-0.18919607,9.8047905,0.0589263,0.026438236,0.036584854,-0.0036696608,-0.009020726,0.9691286,2016-12-02 10:31:21,70.75936920964166
-0.48,-0.116,10.094,0.0,-0.0021321962,0.0,320.0,-0.026164046,-0.18919607,9.8047905,0.07389006,0.019255638,0.025811195,-0.0036696608,-0.009020726,0.9691286,2016-12-02 10:31:22,68.26324439632691
-0.483,-0.117,10.076,0.0010660981,0.0,0.0,320.0,-0.026164046,-0.18919607,9.8047905,0.065510355,0.025241137,0.028204918,-0.0036696608,-0.009020726,0.9691286,2016-12-02 10:31:23,63.42416818925264
-0.484,-0.109,10.07,0.0,0.0010660981,0.0,320.0,-0.026164046,-0.18919607,9.8047905,0.064313255,0.0012991279,0.01862812,-0.0036696608,-0.009020726,0.9691286,2016-12-02 10:31:24,78.7281061151421
-0.486,-0.122,10.076,0.0,0.0,0.0010660981,320.0,-0.026164046,-0.18919607,9.8047905,0.067306004,0.024044037,0.033592224,-0.0036696608,-0.009020726,0.9691286,2016-12-02 10:31:25,78.58378516561801
-0.499,-0.129,10.082,-0.0010660981,0.0042643924,0.0010660981,320.0,-0.026164046,-0.18919607,9.8047905,0.052342243,0.009678826,0.056337357,-0.0036696608,-0.009020726,0.9691286,2016-12-02 10:31:26,53.50405473037341
-0.489,-0.116,10.075,0.0,0.0,0.0021321962,320.0,-0.026164046,-0.18919607,9.8047905,0.066108905,0.026438236,0.022219658,-0.0036696608,-0.009020726,0.9691286,2016-12-02 10:31:27,78.05724075017336
-0.503,-0.111,10.094,0.0,0.0010660981,0.0,320.0,-0.026164046,-0.18919607,9.8047905,0.050546594,0.024642587,0.039577484,-0.0036696608,-0.009020726,0.9691286,2016-12-02 10:31:28,72.58720723891572
-0.488,-0.119,10.074,0.0010660981,0.0,0.0,320.0,-0.026164046,-0.18919607,9.8047905,0.066707455,0.012671575,0.034789085,-0.0036696608,-0.009020726,0.9691286,2016-12-02 10:31:29,73.06932134730319
-0.493,-0.131,10.09,-0.0010660981,0.0,0.0010660981,320.0,-0.026164046,-0.18919607,9.8047905,0.066707455,0.018657088,0.041373253,-0.0036696608,-0.009020726,0.9691286,2016-12-02 10:31:30,52.65505484401484
-0.477,-0.112,10.084,0.0,0.0010660981,0.0,320.0,-0.026164046,-0.18919607,9.8047905,0.07748136,0.019854188,0.035387993,-0.0036696608,-0.009020726,0.9691286,2016-12-02 10:31:31,73.49501941224749
-0.494,-0.122,10.1,0.0,0.0021321962,0.0,320.0,-0.026164046,-0.18919607,9.8047905,0.07508716,0.021051288,0.050351143,-0.0036696608,-0.009020726,0.9691286,2016-12-02 10:31:32,75.49206852220182
-0.503,-0.124,10.085,0.0010660981,0.0021321962,-0.0021321962,320.0,-0.026164046,-0.18919607,9.8047905,0.052342243,0.014467239,0.031197548,-0.0036696608,-0.009020726,0.9691286,2016-12-02 10:31:33,65.98635365200191
-0.495,-0.122,10.085,0.0010660981,0.0,-0.0010660981,550.0,-0.026164046,-0.18919607,9.8047905,0.06072195,0.018058538,0.025212288,-0.0036696608,-0.009020726,0.9691286,2016-12-02 10:31:34,69.31855298354297
-0.494,-0.126,10.085,0.0021321962,0.0,0.0,550.0,-0.026164046,-0.18919607,9.8047905,0.068503104,0.005488977,0.04316902,-0.0036696608,-0.009020726,0.9691286,2016-12-02 10:31:35,70.08629736485075
-0.483,-0.11,10.085,0.0,0.0010660981,0.0,550.0,-0.026164046,-0.18919607,9.8047905,0.062517606,0.027036786,0.02940178,-0.0036696608,-0.009020726,0.9691286,2016-12-02 10:31:36,72.17775197876648
-0.501,-0.113,10.08,0.0010660981,-0.0010660981,0.0,320.0,-0.026164046,-0.18919607,9.8047905,0.05952485,0.0318252,0.013839722,-0.0036696608,-0.009020726,0.9691286,2016-12-02 10:31:37,73.19229297657569
-0.482,-0.121,10.094,0.0021321962,0.0010660981,0.0021321962,320.0,-0.026164046,-0.18919607,9.8047905,0.07867847,0.020452738,0.025811195,-0.0036696608,-0.009020726,0.9691286,2016-12-02 10:31:38,65.16671434461594
-0.488,-0.146,10.081,0.0010660981,0.0,0.0,320.0,-0.026164046,-0.18919607,9.8047905,0.07149586,0.010277376,0.0054597855,-0.0036696608,-0.009020726,0.9691286,2016-12-02 10:31:39,76.57843656035779
-0.494,-0.134,10.075,0.0,0.0,0.0010660981,320.0,-0.026164046,-0.18919607,9.8047905,0.053539347,0.016861439,0.009051323,-0.0036696608,-0.009020726,0.9691286,2016-12-02 10:31:40,53.468235184483945
-0.5,-0.134,10.115,0.0010660981,0.0021321962,0.0010660981,320.0,-0.026164046,-0.18919607,9.8047905,0.067904554,0.009678826,0.027008057,-0.0036696608,-0.009020726,0.9691286,2016-12-02 10:31:42,76.16663161692465
-0.487,-0.122,10.082,0.0010660981,0.0010660981,0.0010660981,320.0,-0.026164046,-0.18919607,9.8047905,0.07448861,0.025839686,0.041373253,-0.0036696608,-0.009020726,0.9691286,2016-12-02 10:31:43,79.86188298407554
-0.499,-0.125,10.097,0.0,-0.0021321962,0.0010660981,320.0,-0.026164046,-0.18919607,9.8047905,0.066108905,0.026438236,0.030599594,-0.0036696608,-0.009020726,0.9691286,2016-12-02 10:31:44,75.83701715542698
-0.495,-0.119,10.105,0.0010660981,0.0,0.0010660981,320.0,-0.026164046,-0.18919607,9.8047905,0.05832775,0.027635336,0.0036640167,-0.0036696608,-0.009020726,0.9691286,2016-12-02 10:31:45,68.91977319950647
-0.495,-0.119,10.112,0.0,0.0010660981,0.0,320.0,-0.026164046,-0.18919607,9.8047905,0.065510355,0.016861439,0.027606964,-0.0036696608,-0.009020726,0.9691286,2016-12-02 10:31:46,55.92700065431738
-0.502,-0.113,10.099,0.0010660981,0.0,0.0010660981,320.0,-0.026164046,-0.18919607,9.8047905,0.079277016,0.012073025,0.032993317,-0.0036696608,-0.009020726,0.9691286,2016-12-02 10:31:47,71.16303556607683
-0.493,-0.12,10.112,0.0010660981,0.0010660981,0.0,320.0,-0.026164046,-0.18919607,9.8047905,0.07149586,0.03362085,0.028204918,-0.0036696608,-0.009020726,0.9691286,2016-12-02 10:31:48,66.58783803979149
-0.491,-0.107,10.085,0.0010660981,0.0,-0.0010660981,320.0,-0.026164046,-0.18919607,9.8047905,0.06072195,0.018058538,0.013241768,-0.0036696608,-0.009020726,0.9691286,2016-12-02 10:31:49,71.97722327631688
-0.511,-0.141,10.079,0.0010660981,0.0010660981,0.0010660981,320.0,-0.026164046,-0.18919607,9.8047905,0.05593355,0.005488977,0.01264286,-0.0036696608,-0.009020726,0.9691286,2016-12-02 10:31:50,58.73535617257037
-0.498,-0.131,10.063,0.0,0.0,0.0010660981,320.0,-0.026164046,-0.18919607,9.8047905,0.049948044,0.009080276,0.0012702942,-0.0036696608,-0.009020726,0.9691286,2016-12-02 10:31:51,75.97042425747902
-0.49,-0.114,10.054,0.0,0.0010660981,0.0,320.0,-0.026164046,-0.18919607,9.8047905,0.064313255,0.025241137,-0.010102272,-0.0036696608,-0.009020726,0.9691286,2016-12-02 10:31:52,78.73801782336146
-0.501,-0.123,10.095,0.0,0.0,0.0010660981,320.0,-0.026164046,-0.18919607,9.8047905,0.0565321,0.018058538,0.035985947,-0.0036696608,-0.009020726,0.9691286,2016-12-02 10:31:53,61.83731066886119
-0.505,-0.122,10.099,0.0010660981,0.0010660981,0.0,320.0,-0.026164046,-0.18919607,9.8047905,0.054137897,0.015065789,0.038978577,-0.0036696608,-0.009020726,0.9691286,2016-12-02 10:31:54,69.93270596071517
-0.473,-0.125,10.091,0.0,0.0031982942,0.0021321962,320.0,-0.026164046,-0.18919607,9.8047905,0.061919056,0.015664339,0.01563549,-0.0036696608,-0.009020726,0.9691286,2016-12-02 10:31:55,80.73766507700051
-0.5,-0.116,10.095,0.0021321962,0.0031982942,0.0010660981,320.0,-0.026164046,-0.18919607,9.8047905,0.064313255,0.016861439,0.02640915,-0.0036696608,-0.009020726,0.9691286,2016-12-02 10:31:56,65.96726413193642
-0.492,-0.138,10.1,0.0,0.0,0.0010660981,320.0,-0.026164046,-0.18919607,9.8047905,0.0565321,0.010875925,0.031197548,-0.0036696608,-0.009020726,0.9691286,2016-12-02 10:31:57,58.03158119205232
-0.49,-0.131,10.103,0.0,0.0021321962,0.0010660981,320.0,-0.026164046,-0.18919607,9.8047905,0.068503104,0.015664339,0.01563549,-0.0036696608,-0.009020726,0.9691286,2016-12-02 10:31:58,72.16179786812981
-0.493,-0.111,10.118,0.0010660981,-0.0010660981,0.0,320.0,-0.026164046,-0.18919607,9.8047905,0.07748136,0.010277376,0.025811195,-0.0036696608,-0.009020726,0.9691286,2016-12-02 10:31:59,51.79211790521403
-0.493,-0.12,10.089,0.0,0.0010660981,0.0,320.0,-0.026164046,-0.18919607,9.8047905,0.06072195,0.008481726,0.05573845,-0.0036696608,-0.009020726,0.9691286,2016-12-02 10:32:00,71.02911989859008
-0.49,-0.132,10.088,0.0010660981,0.0031982942,0.0010660981,320.0,-0.026164046,-0.18919607,9.8047905,0.07089731,0.022248387,0.022818565,-0.0036696608,-0.009020726,0.9691286,2016-12-02 10:32:01,71.27059741235094
-0.494,-0.134,10.093,0.0021321962,0.0010660981,0.0021321962,320.0,-0.026164046,-0.18919607,9.8047905,0.067904554,0.018058538,0.01862812,-0.0036696608,-0.009020726,0.9691286,2016-12-02 10:32:02,73.8113833797515
-0.505,-0.114,10.088,0.0,0.0,0.0021321962,320.0,-0.026164046,-0.18919607,9.8047905,0.066707455,0.025241137,0.025811195,-0.0036696608,-0.009020726,0.9691286,2016-12-02 10:32:03,80.13579653604664
-0.502,-0.125,10.091,0.0,-0.0010660981,0.0010660981,320.0,-0.026164046,-0.18919607,9.8047905,0.052940797,0.015065789,0.031796455,-0.0036696608,-0.009020726,0.9691286,2016-12-02 10:32:04,78.50609602316032
-0.497,-0.12,10.064,0.0010660981,-0.0031982942,0.0,550.0,-0.026164046,-0.18919607,9.8047905,0.051743694,0.024642587,0.022219658,-0.0036696608,-0.009020726,0.9691286,2016-12-02 10:32:05,71.84755154710587
-0.488,-0.122,10.073,0.0010660981,0.0,0.0,550.0,-0.026164046,-0.18919607,9.8047905,0.0577292,0.023445487,0.04017639,-0.0036696608,-0.009020726,0.9691286,2016-12-02 10:32:06,79.1503507865535
-0.506,-0.12,10.105,0.0010660981,0.0,0.0,550.0,-0.026164046,-0.18919607,9.8047905,0.0589263,0.024642587,0.041373253,-0.0036696608,-0.009020726,0.9691286,2016-12-02 10:32:07,75.57126088613668
-0.484,-0.134,10.085,0.0010660981,0.0031982942,0.0,550.0,-0.026164046,-0.18919607,9.8047905,0.0613205,0.021051288,0.031796455,-0.0036696608,-0.009020726,0.9691286,2016-12-02 10:32:08,76.37282234475502
-0.487,-0.141,10.095,0.0,0.0010660981,0.0,550.0,-0.026164046,-0.18919607,9.8047905,0.0577292,0.0018976778,0.030599594,-0.0036696608,-0.009020726,0.9691286,2016-12-02 10:32:09,56.490691602527505
-0.484,-0.129,10.082,-0.0010660981,-0.0010660981,0.0,550.0,-0.026164046,-0.18919607,9.8047905,0.0613205,0.010875925,0.02042389,-0.0036696608,-0.009020726,0.9691286,2016-12-02 10:32:10,77.8251381806868
-0.489,-0.126,10.078,0.0010660981,-0.0021321962,0.0,550.0,-0.026164046,-0.18919607,9.8047905,0.07389006,0.0066860765,0.044365883,-0.0036696608,-0.009020726,0.9691286,2016-12-02 10:32:11,76.6720765869867
-0.489,-0.12,10.109,0.0,0.0021321962,0.0,550.0,-0.026164046,-0.18919607,9.8047905,0.063714705,0.024642587,0.013839722,-0.0036696608,-0.009020726,0.9691286,2016-12-02 10:32:12,76.55321366822045
-0.489,-0.12,10.083,0.0021321962,0.0,0.0,550.0,-0.026164046,-0.18919607,9.8047905,0.064313255,0.008481726,0.038978577,-0.0036696608,-0.009020726,0.9691286,2016-12-02 10:32:13,77.96667562893002
-0.506,-0.123,10.073,0.0010660981,0.0,0.0010660981,550.0,-0.026164046,-0.18919607,9.8047905,0.05952485,0.013270125,0.019824982,-0.0036696608,-0.009020726,0.9691286,2016-12-02 10:32:14,78.54390895979057
-0.491,-0.125,10.09,0.0,0.0010660981,0.0010660981,550.0,-0.026164046,-0.18919607,9.8047905,0.068503104,0.014467239,0.032993317,-0.0036696608,-0.009020726,0.9691286,2016-12-02 10:32:15,75.5059379846318
-0.495,-0.129,10.08,0.0,0.0010660981,0.0,550.0,-0.026164046,-0.18919607,9.8047905,0.0565321,0.008481726,0.05274582,-0.0036696608,-0.009020726,0.9691286,2016-12-02 10:32:16,78.59943497838626
-0.481,-0.124,10.086,0.0,0.0010660981,0.0021321962,550.0,-0.026164046,-0.18919607,9.8047905,0.065510355,0.010277376,0.04975319,-0.0036696608,-0.009020726,0.9691286,2016-12-02 10:32:17,52.00512449433295
-0.49,-0.139,10.103,0.0010660981,0.0,0.0,550.0,-0.026164046,-0.18919607,9.8047905,0.0577292,0.014467239,0.042570114,-0.0036696608,-0.009020726,0.9691286,2016-12-02 10:32:18,78.97389812937894
-0.504,-0.128,10.087,0.0,0.0021321962,0.0,550.0,-0.026164046,-0.18919607,9.8047905,0.04635674,0.008481726,0.031796455,-0.0036696608,-0.009020726,0.9691286,2016-12-02 10:32:19,77.67848495770905
-0.486,-0.13,10.076,0.0,0.0021321962,0.0,550.0,-0.026164046,-0.18919607,9.8047905,0.07149586,0.0024962276,0.013241768,-0.0036696608,-0.009020726,0.9691286,2016-12-02 10:32:20,75.90162062846859
-0.496,-0.142,10.085,0.0,-0.0031982942,-0.0010660981,550.0,-0.026164046,-0.18919607,9.8047905,0.064911805,0.009678826,0.034789085,-0.0036696608,-0.009020726,0.9691286,2016-12-02 10:32:21,53.147861154151144
-0.506,-0.112,10.073,0.0021321962,0.0,0.0,550.0,-0.026164046,-0.18919607,9.8047905,0.055335,0.019255638,0.00965023,-0.0036696608,-0.009020726,0.9691286,2016-12-02 10:32:22,75.03242639826587
-0.489,-0.125,10.093,0.0010660981,0.0031982942,0.0010660981,550.0,-0.026164046,-0.18919607,9.8047905,0.065510355,0.019854188,0.037781715,-0.0036696608,-0.009020726,0.9691286,2016-12-02 10:32:23,53.695890221751135
-0.493,-0.118,10.083,0.0010660981,0.0,0.0,550.0,-0.026164046,-0.18919607,9.8047905,0.07269296,0.015664339,0.039577484,-0.0036696608,-0.009020726,0.9691286,2016-12-02 10:32:24,72.73910456485382
-0.503,-0.118,10.062,0.0010660981,0.0021321962,0.0,550.0,-0.026164046,-0.18919607,9.8047905,0.066108905,-0.0052849352,0.02162075,-0.0036696608,-0.009020726,0.9691286,2016-12-02 10:32:25,73.60996531851737
-0.497,-0.122,10.064,0.0,0.0031982942,0.0,550.0,-0.026164046,-0.18919607,9.8047905,0.0577292,0.018058538,0.019227028,-0.0036696608,-0.009020726,0.9691286,2016-12-02 10:32:26,77.71497066170062
-0.502,-0.113,10.07,0.0,0.0010660981,0.0,550.0,-0.026164046,-0.18919607,9.8047905,0.05713065,0.022846937,0.02341652,-0.0036696608,-0.009020726,0.9691286,2016-12-02 10:32:27,52.76731135094795
-0.503,-0.14,10.086,0.0010660981,0.0,0.0,550.0,-0.026164046,-0.18919607,9.8047905,0.05952485,0.005488977,0.012043953,-0.0036696608,-0.009020726,0.9691286,2016-12-02 10:32:28,72.88047436664941
-0.48,-0.112,10.088,0.0021321962,0.0,0.0,550.0,-0.026164046,-0.18919607,9.8047905,0.07329151,0.017459989,0.035387993,-0.0036696608,-0.009020726,0.9691286,2016-12-02 10:32:29,77.04722928610606
-0.487,-0.13,10.097,0.0,0.0010660981,0.0,550.0,-0.026164046,-0.18919607,9.8047905,0.064313255,0.005488977,0.009051323,-0.0036696608,-0.009020726,0.9691286,2016-12-02 10:32:30,67.65534822565307
-0.493,-0.132,10.075,0.0,0.0010660981,0.0,550.0,-0.026164046,-0.18919607,9.8047905,0.055335,0.0036933273,0.016832352,-0.0036696608,-0.009020726,0.9691286,2016-12-02 10:32:31,69.9267794922959
-0.482,-0.132,10.108,0.0,-0.0010660981,0.0,550.0,-0.026164046,-0.18919607,9.8047905,0.07149586,0.012073025,0.014438629,-0.0036696608,-0.009020726,0.9691286,2016-12-02 10:32:32,65.60914102948493
-0.481,-0.131,10.103,0.0021321962,-0.0021321962,0.0,550.0,-0.026164046,-0.18919607,9.8047905,0.063116156,-0.0028907359,0.040774345,-0.0036696608,-0.009020726,0.9691286,2016-12-02 10:32:33,78.90929412671034
-0.496,-0.128,10.085,0.0,-0.0010660981,0.0,550.0,-0.026164046,-0.18919607,9.8047905,0.066108905,0.013270125,0.037781715,-0.0036696608,-0.009020726,0.9691286,2016-12-02 10:32:34,73.68496420575947
-0.48,-0.118,10.081,0.0010660981,0.0,0.0,550.0,-0.026164046,-0.18919607,9.8047905,0.0589263,0.0060875267,0.006058693,-0.0036696608,-0.009020726,0.9691286,2016-12-02 10:32:35,61.10949109089654
-0.489,-0.125,10.105,0.0,0.0031982942,0.0,550.0,-0.026164046,-0.18919607,9.8047905,0.07568571,0.018058538,0.04316902,-0.0036696608,-0.009020726,0.9691286,2016-12-02 10:32:36,67.5739556397086
-0.492,-0.125,10.097,0.0,0.0031982942,0.0010660981,550.0,-0.026164046,-0.18919607,9.8047905,0.064313255,0.019255638,0.036584854,-0.0036696608,-0.009020726,0.9691286,2016-12-02 10:32:37,52.59445261326772
-0.486,-0.113,10.082,0.0,0.0021321962,0.0,550.0,-0.026164046,-0.18919607,9.8047905,0.055335,0.022248387,0.019227028,-0.0036696608,-0.009020726,0.9691286,2016-12-02 10:32:38,73.87084554300971
-0.498,-0.134,10.098,0.0,-0.0010660981,0.0010660981,550.0,-0.026164046,-0.18919607,9.8047905,0.06072195,0.009080276,0.016234398,-0.0036696608,-0.009020726,0.9691286,2016-12-02 10:32:39,51.798887034038884
-0.486,-0.131,10.082,0.0,0.0021321962,0.0,550.0,-0.026164046,-0.18919607,9.8047905,0.064313255,0.017459989,0.041373253,-0.0036696608,-0.009020726,0.9691286,2016-12-02 10:32:40,77.4933703220391
-0.493,-0.126,10.071,0.0010660981,0.0,0.0,550.0,-0.026164046,-0.18919607,9.8047905,0.080474116,0.025839686,0.02940178,-0.0036696608,-0.009020726,0.9691286,2016-12-02 10:32:41,79.11857775521717
-0.499,-0.122,10.11,0.0010660981,0.0,0.0,550.0,-0.026164046,-0.18919607,9.8047905,0.053539347,0.016861439,0.035985947,-0.0036696608,-0.009020726,0.9691286,2016-12-02 10:32:42,74.82254241606245
-0.483,-0.125,10.095,0.0,0.0010660981,0.0,550.0,-0.026164046,-0.18919607,9.8047905,0.07269296,0.015065789,0.035387993,-0.0036696608,-0.009020726,0.9691286,2016-12-02 10:32:43,76.52331028557565
-0.499,-0.126,10.076,0.0,-0.0021321962,0.0,550.0,-0.026164046,-0.18919607,9.8047905,0.05593355,0.014467239,0.0012702942,-0.0036696608,-0.009020726,0.9691286,2016-12-02 10:32:44,75.55401058765922
-0.501,-0.125,10.087,0.0010660981,0.0,0.0021321962,550.0,-0.026164046,-0.18919607,9.8047905,0.054137897,0.012671575,0.034190178,-0.0036696608,-0.009020726,0.9691286,2016-12-02 10:32:45,75.70502932903536
-0.487,-0.117,10.081,0.0010660981,0.0,0.0010660981,550.0,-0.026164046,-0.18919607,9.8047905,0.07867847,0.0072846264,0.02042389,-0.0036696608,-0.009020726,0.9691286,2016-12-02 10:32:46,63.46133680313468
-0.48,-0.125,10.075,0.0010660981,0.0,0.0,550.0,-0.026164046,-0.18919607,9.8047905,0.054137897,0.015664339,0.019227028,-0.0036696608,-0.009020726,0.9691286,2016-12-02 10:32:47,68.36803912829822
-0.487,-0.137,10.091,0.0,0.0010660981,0.0010660981,550.0,-0.026164046,-0.18919607,9.8047905,0.08825527,7.005781E-4,0.033592224,-0.0036696608,-0.009020726,0.9691286,2016-12-02 10:32:48,78.85921870685392
-0.496,-0.117,10.066,0.0021321962,0.0010660981,0.0010660981,550.0,-0.026164046,-0.18919607,9.8047905,0.07029876,0.009080276,0.02042389,-0.0036696608,-0.009020726,0.9691286,2016-12-02 10:32:50,76.2037751142052
-0.487,-0.133,10.095,0.0010660981,0.0010660981,0.0,550.0,-0.026164046,-0.18919607,9.8047905,0.062517606,0.012073025,0.032993317,-0.0036696608,-0.009020726,0.9691286,2016-12-02 10:32:51,78.30386320479195
-0.498,-0.122,10.082,0.0,0.0010660981,0.0,550.0,-0.026164046,-0.18919607,9.8047905,0.05832775,0.012671575,0.02162075,-0.0036696608,-0.009020726,0.9691286,2016-12-02 10:32:52,77.98287502329549
-0.496,-0.119,10.119,0.0010660981,-0.0010660981,0.0010660981,550.0,-0.026164046,-0.18919607,9.8047905,0.067306004,0.017459989,0.05813217,-0.0036696608,-0.009020726,0.9691286,2016-12-02 10:32:53,78.23940164105056
-0.489,-0.135,10.088,0.0,0.0010660981,0.0010660981,550.0,-0.026164046,-0.18919607,9.8047905,0.069101654,0.0036933273,0.021022797,-0.0036696608,-0.009020726,0.9691286,2016-12-02 10:32:54,73.48284992183223
-0.491,-0.133,10.09,0.0021321962,0.0,0.0,550.0,-0.026164046,-0.18919607,9.8047905,0.0565321,0.010277376,0.02162075,-0.0036696608,-0.009020726,0.9691286,2016-12-02 10:32:55,59.998134177224046
-0.489,-0.114,10.075,0.0,0.0010660981,0.0,550.0,-0.026164046,-0.18919607,9.8047905,0.07029876,0.010875925,0.019824982,-0.0036696608,-0.009020726,0.9691286,2016-12-02 10:32:56,75.28729445429538
-0.506,-0.129,10.08,0.0,0.0,0.0010660981,550.0,-0.026164046,-0.18919607,9.8047905,0.048152395,0.009080276,0.019227028,-0.0036696608,-0.009020726,0.9691286,2016-12-02 10:32:57,72.78567879932231
-0.503,-0.122,10.09,0.0010660981,0.0031982942,0.0,550.0,-0.026164046,-0.18919607,9.8047905,0.0589263,0.018058538,0.018030167,-0.0036696608,-0.009020726,0.9691286,2016-12-02 10:32:58,80.01430391719389
-0.482,-0.13,10.094,0.0021321962,0.0,0.0021321962,550.0,-0.026164046,-0.18919607,9.8047905,0.066108905,-4.965216E-4,0.028204918,-0.0036696608,-0.009020726,0.9691286,2016-12-02 10:32:59,55.53360869298406
-0.491,-0.111,10.087,0.0,0.0010660981,0.0,550.0,-0.026164046,-0.18919607,9.8047905,0.053539347,7.005781E-4,0.04197216,-0.0036696608,-0.009020726,0.9691286,2016-12-02 10:33:00,76.57495535792242
-0.476,-0.127,10.108,0.0010660981,0.0021321962,0.0010660981,550.0,-0.026164046,-0.18919607,9.8047905,0.05832775,0.015065789,0.010248184,-0.0036696608,-0.009020726,0.9691286,2016-12-02 10:33:01,79.89107404721736
-0.484,-0.132,10.085,0.0010660981,0.0010660981,0.0,550.0,-0.026164046,-0.18919607,9.8047905,0.068503104,1.0202825E-4,0.038380623,-0.0036696608,-0.009020726,0.9691286,2016-12-02 10:33:02,77.94724794372104
-0.49,-0.139,10.08,0.0010660981,0.0,0.0021321962,550.0,-0.026164046,-0.18919607,9.8047905,0.05832775,0.004291877,-0.0017223358,-0.0036696608,-0.009020726,0.9691286,2016-12-02 10:33:03,60.26869157519408
-0.488,-0.14,10.081,0.0,-0.0010660981,0.0010660981,550.0,-0.026164046,-0.18919607,9.8047905,0.065510355,0.014467239,0.01862812,-0.0036696608,-0.009020726,0.9691286,2016-12-02 10:33:04,71.53580344992845
-0.486,-0.13,10.082,0.0010660981,0.0,-0.0010660981,550.0,-0.026164046,-0.18919607,9.8047905,0.069101654,0.009678826,0.022818565,-0.0036696608,-0.009020726,0.9691286,2016-12-02 10:33:05,68.82428190358739
-0.5,-0.127,10.1,0.0010660981,-0.0021321962,0.0,120.0,-0.026164046,-0.18919607,9.8047905,0.0613205,0.013868675,0.038978577,-0.0036696608,-0.009020726,0.9691286,2016-12-02 10:33:06,57.48412093139187
-0.503,-0.114,10.073,0.0,0.0010660981,0.0,550.0,-0.026164046,-0.18919607,9.8047905,0.07149586,0.026438236,0.031796455,-0.0036696608,-0.009020726,0.9691286,2016-12-02 10:33:07,76.62750178676747
-0.497,-0.114,10.074,0.0010660981,0.0,0.0,550.0,-0.02616404,-0.19086665,9.804756,0.0708973,0.016137823,0.043203354,-0.0036906493,-0.00910329,0.9691278,2016-12-02 10:33:08,59.13518846458967
-0.496,-0.137,10.103,-0.0010660981,0.0010660981,0.0,550.0,-0.02616404,-0.19086665,9.804756,0.07269295,0.016736373,-0.0070753098,-0.0036906493,-0.00910329,0.9691278,2016-12-02 10:33:09,74.59516143647788
-0.509,-0.125,10.087,0.0021321962,-0.0010660981,0.0,550.0,-0.02616404,-0.19086665,9.804756,0.06670745,0.017334923,0.03422451,-0.0036906493,-0.00910329,0.9691278,2016-12-02 10:33:10,69.39330756001978
-0.485,-0.144,10.087,0.0,-0.0010660981,0.0,550.0,-0.02616404,-0.19086665,9.804756,0.07029875,-0.0054100007,0.03422451,-0.0036906493,-0.00910329,0.9691278,2016-12-02 10:33:11,79.27577904588031
-0.503,-0.14,10.091,0.0010660981,0.0010660981,0.0010660981,550.0,-0.02616404,-0.19086665,9.804756,0.055334993,0.0041668117,0.030633926,-0.0036906493,-0.00910329,0.9691278,2016-12-02 10:33:12,75.78313968095485
-0.499,-0.132,10.079,0.0010660981,0.0031982942,0.0010660981,550.0,-0.02616404,-0.19086665,9.804756,0.06551035,0.013743609,0.025845528,-0.0036906493,-0.00910329,0.9691278,2016-12-02 10:33:13,74.74310370022057
-0.487,-0.126,10.103,0.0031982942,0.0,0.0,550.0,-0.02616404,-0.19086665,9.804756,0.0685031,0.014940709,0.043801308,-0.0036906493,-0.00910329,0.9691278,2016-12-02 10:33:14,71.27764942908999
-0.479,-0.139,10.087,0.0010660981,0.0,0.0,550.0,-0.02616404,-0.19086665,9.804756,0.055334993,0.013145059,0.018662453,-0.0036906493,-0.00910329,0.9691278,2016-12-02 10:33:15,72.90803798372897
-0.491,-0.114,10.113,0.0,-0.0010660981,-0.0010660981,550.0,-0.02616404,-0.19086665,9.804756,0.08107266,0.01075086,0.036619186,-0.0036906493,-0.00910329,0.9691278,2016-12-02 10:33:16,51.43374002766946
-0.489,-0.143,10.095,0.0,-0.0010660981,0.0,550.0,-0.02616404,-0.19086665,9.804756,0.061320495,-2.3037195E-5,0.045597076,-0.0036906493,-0.00910329,0.9691278,2016-12-02 10:33:17,78.55836347721335
-0.491,-0.119,10.096,0.0010660981,0.0,0.0,550.0,-0.02616404,-0.19086665,9.804756,0.07269295,0.0059624612,0.006093025,-0.0036906493,-0.00910329,0.9691278,2016-12-02 10:33:18,70.80035944237866
-0.496,-0.117,10.078,0.0,-0.0031982942,0.0,550.0,-0.02616404,-0.19086665,9.804756,0.057729192,0.02870737,0.015070915,-0.0036906493,-0.00910329,0.9691278,2016-12-02 10:33:19,68.69441292871944
-0.49,-0.147,10.084,0.0010660981,0.0021321962,-0.0010660981,550.0,-0.02616404,-0.19086665,9.804756,0.0649118,-0.0054100007,0.024647713,-0.0036906493,-0.00910329,0.9691278,2016-12-02 10:33:20,53.44614315369793
-0.491,-0.127,10.08,0.0010660981,0.0021321962,0.0,550.0,-0.02616404,-0.19086665,9.804756,0.0661089,0.013743609,0.020458221,-0.0036906493,-0.00910329,0.9691278,2016-12-02 10:33:21,51.76681837110932
-0.496,-0.126,10.095,0.0010660981,0.0010660981,0.0,550.0,-0.02616404,-0.19086665,9.804756,0.06311615,0.020926222,0.030633926,-0.0036906493,-0.00910329,0.9691278,2016-12-02 10:33:22,77.21958713985654
-0.502,-0.126,10.09,0.0,0.0010660981,0.0,550.0,-0.02616404,-0.19086665,9.804756,0.061320495,0.013145059,0.035422325,-0.0036906493,-0.00910329,0.9691278,2016-12-02 10:33:23,79.23842647189458
-0.503,-0.137,10.072,0.0021321962,-0.0010660981,0.0,550.0,-0.02616404,-0.19086665,9.804756,0.0697002,0.0017726123,0.018662453,-0.0036906493,-0.00910329,0.9691278,2016-12-02 10:33:24,75.92757609372813
-0.486,-0.14,10.081,0.0,0.0010660981,0.0,550.0,-0.02616404,-0.19086665,9.804756,0.06311615,-0.0018187016,0.017465591,-0.0036906493,-0.00910329,0.9691278,2016-12-02 10:33:25,71.58618295851998
-0.501,-0.119,10.069,0.0010660981,0.0,0.0,550.0,-0.02616404,-0.19086665,9.804756,0.057729192,0.01075086,0.028838158,-0.0036906493,-0.00910329,0.9691278,2016-12-02 10:33:26,80.61688545183236
-0.495,-0.12,10.091,0.0031982942,-0.0010660981,0.0,550.0,-0.02616404,-0.19086665,9.804756,0.08346686,0.013743609,0.009085655,-0.0036906493,-0.00910329,0.9691278,2016-12-02 10:33:27,55.07324634400733
-0.488,-0.134,10.078,0.0,0.0021321962,-0.0010660981,550.0,-0.02616404,-0.19086665,9.804756,0.048750937,0.024517521,0.02524662,-0.0036906493,-0.00910329,0.9691278,2016-12-02 10:33:28,73.18071648244279
-0.499,-0.126,10.079,0.0010660981,-0.0010660981,0.0,550.0,-0.02616404,-0.19086665,9.804756,0.067306,0.01134941,0.01926136,-0.0036906493,-0.00910329,0.9691278,2016-12-02 10:33:29,77.21600039499837
-0.478,-0.133,10.076,0.0,0.0010660981,0.0,550.0,-0.02616404,-0.19086665,9.804756,0.08286831,0.0059624612,0.031830788,-0.0036906493,-0.00910329,0.9691278,2016-12-02 10:33:30,65.70506942709733
-0.475,-0.117,10.079,0.0010660981,0.0,0.0,550.0,-0.02616404,-0.19086665,9.804756,0.08047411,0.025116071,0.020458221,-0.0036906493,-0.00910329,0.9691278,2016-12-02 10:33:31,76.67954416344419
-0.487,-0.123,10.073,0.0021321962,0.0,-0.0010660981,550.0,-0.02616404,-0.19086665,9.804756,0.0661089,0.002969712,0.02524662,-0.0036906493,-0.00910329,0.9691278,2016-12-02 10:33:32,74.38392030275347
-0.494,-0.134,10.094,0.0031982942,0.0010660981,0.0010660981,550.0,-0.02616404,-0.19086665,9.804756,0.061320495,0.0017726123,0.030035019,-0.0036906493,-0.00910329,0.9691278,2016-12-02 10:33:33,60.43038584005331
-0.503,-0.133,10.089,0.0010660981,0.0,0.0,550.0,-0.02616404,-0.19086665,9.804756,0.067306,0.016137823,0.044400215,-0.0036906493,-0.00910329,0.9691278,2016-12-02 10:33:34,73.32225288577668
-0.49,-0.134,10.056,0.0010660981,0.0,0.0,550.0,-0.02616404,-0.19086665,9.804756,0.046955287,0.01134941,0.02225399,-0.0036906493,-0.00910329,0.9691278,2016-12-02 10:33:35,78.01197395475376
-0.495,-0.125,10.078,0.0010660981,0.0021321962,0.0010660981,550.0,-0.02616404,-0.19086665,9.804756,0.06311615,0.015539259,0.0132761,-0.0036906493,-0.00910329,0.9691278,2016-12-02 10:33:36,70.54942356317417
-0.484,-0.127,10.071,0.0021321962,-0.0021321962,0.0010660981,550.0,-0.02616404,-0.19086665,9.804756,0.054137893,0.016137823,0.03123188,-0.0036906493,-0.00910329,0.9691278,2016-12-02 10:33:37,52.216621384865
-0.487,-0.129,10.101,0.0021321962,0.0,0.0,550.0,-0.02616404,-0.19086665,9.804756,0.0685031,0.0125465095,0.041407585,-0.0036906493,-0.00910329,0.9691278,2016-12-02 10:33:38,67.36181133667587
-0.503,-0.135,10.08,0.0010660981,0.0,0.0,550.0,-0.02616404,-0.19086665,9.804756,0.058926295,0.019130573,0.02823925,-0.0036906493,-0.00910329,0.9691278,2016-12-02 10:33:39,70.21957887267808
-0.465,-0.113,10.121,0.0010660981,0.0,-0.0010660981,550.0,-0.02616404,-0.19086665,9.804756,0.052940793,0.01075086,0.030035019,-0.0036906493,-0.00910329,0.9691278,2016-12-02 10:33:40,51.785361151654044
-0.501,-0.117,10.067,0.0010660981,0.0010660981,0.0,550.0,-0.02616404,-0.19086665,9.804756,0.054137893,0.023918971,0.0072898865,-0.0036906493,-0.00910329,0.9691278,2016-12-02 10:33:41,72.68087529277355
-0.502,-0.122,10.066,0.0,-0.0010660981,-0.0010660981,550.0,-0.02616404,-0.19086665,9.804756,0.054736443,0.022123322,0.038414955,-0.0036906493,-0.00910329,0.9691278,2016-12-02 10:33:42,74.84890646182664
-0.498,-0.12,10.085,0.0,-0.0031982942,0.0010660981,550.0,-0.02616404,-0.19086665,9.804756,0.06431325,0.023320422,0.043203354,-0.0036906493,-0.00910329,0.9691278,2016-12-02 10:33:43,62.70393114690628
-0.503,-0.138,10.072,0.0,0.0021321962,0.0010660981,550.0,-0.02616404,-0.19086665,9.804756,0.06790455,0.019130573,-0.017848969,-0.0036906493,-0.00910329,0.9691278,2016-12-02 10:33:44,77.42419024730627
-0.478,-0.123,10.075,0.0,-0.0021321962,0.0010660981,550.0,-0.02616404,-0.19086665,9.804756,0.054736443,0.00895521,0.05457592,-0.0036906493,-0.00910329,0.9691278,2016-12-02 10:33:45,76.57145852626222
-0.485,-0.135,10.108,0.0010660981,0.0,0.0010660981,550.0,-0.02616404,-0.19086665,9.804756,0.07269295,0.0053639114,0.042604446,-0.0036906493,-0.00910329,0.9691278,2016-12-02 10:33:46,74.61002255121932
-0.492,-0.129,10.124,0.0010660981,0.0010660981,0.0,550.0,-0.02616404,-0.19086665,9.804756,0.061320495,0.017334923,0.045597076,-0.0036906493,-0.00910329,0.9691278,2016-12-02 10:33:47,52.687685216393454
-0.49,-0.132,10.071,0.0021321962,0.0031982942,0.0,550.0,-0.02616404,-0.19086665,9.804756,0.0661089,0.0035682619,0.031830788,-0.0036906493,-0.00910329,0.9691278,2016-12-02 10:33:48,65.9325246363904
-0.512,-0.117,10.1,0.0,0.0,-0.0010660981,550.0,-0.02616404,-0.19086665,9.804756,0.08406541,0.017334923,0.06235695,-0.0036906493,-0.00910329,0.9691278,2016-12-02 10:33:49,51.31883323980803
-0.501,-0.131,10.099,0.0010660981,0.0021321962,0.0,550.0,-0.02616404,-0.19086665,9.804756,0.055334993,0.02930592,0.03422451,-0.0036906493,-0.00910329,0.9691278,2016-12-02 10:33:50,52.58012347482762
-0.509,-0.135,10.093,0.0,0.0053304904,0.0,550.0,-0.02616404,-0.19086665,9.804756,0.05114514,0.01075086,0.0102825165,-0.0036906493,-0.00910329,0.9691278,2016-12-02 10:33:52,51.81181963177633
-0.493,-0.135,10.087,0.0010660981,0.0021321962,0.0,320.0,-0.02616404,-0.19086665,9.804756,0.058926295,0.01015231,-0.01904583,-0.0036906493,-0.00910329,0.9691278,2016-12-02 10:33:53,76.85038590202859
-0.508,-0.137,10.095,0.0021321962,0.0021321962,-0.0010660981,320.0,-0.02616404,-0.19086665,9.804756,0.07029875,0.022123322,0.042006493,-0.0036906493,-0.00910329,0.9691278,2016-12-02 10:33:54,76.63336962596874
-0.495,-0.123,10.061,0.0,0.0031982942,0.0010660981,320.0,-0.02616404,-0.19086665,9.804756,0.06910165,0.014342159,0.04679489,-0.0036906493,-0.00910329,0.9691278,2016-12-02 10:33:55,52.22707021137356
-0.49,-0.133,10.096,0.0,0.0042643924,0.0010660981,320.0,-0.02616404,-0.19086665,9.804756,0.06551035,0.008356661,0.036619186,-0.0036906493,-0.00910329,0.9691278,2016-12-02 10:33:56,76.6592145220484
-0.491,-0.112,10.071,0.0010660981,0.0,0.0,320.0,-0.02616404,-0.19086665,9.804756,0.057729192,-0.00840275,0.023450851,-0.0036906493,-0.00910329,0.9691278,2016-12-02 10:33:57,75.41814471544723
-0.501,-0.116,10.06,0.0010660981,0.0010660981,0.0,320.0,-0.02616404,-0.19086665,9.804756,0.054736443,0.015539259,0.042604446,-0.0036906493,-0.00910329,0.9691278,2016-12-02 10:33:58,71.45156019040293
-0.471,-0.129,10.06,0.0010660981,0.0031982942,-0.0010660981,320.0,-0.02616404,-0.19086665,9.804756,0.053539343,0.01194796,0.043801308,-0.0036906493,-0.00910329,0.9691278,2016-12-02 10:33:59,54.889723512876984
-0.491,-0.128,10.085,0.0031982942,-0.0021321962,0.0,320.0,-0.02616404,-0.19086665,9.804756,0.06670745,0.00955376,-0.013659477,-0.0036906493,-0.00910329,0.9691278,2016-12-02 10:34:00,79.01663625498153
-0.505,-0.126,10.085,0.0,0.0,0.0010660981,320.0,-0.02616404,-0.19086665,9.804756,0.058926295,0.020926222,0.047392845,-0.0036906493,-0.00910329,0.9691278,2016-12-02 10:34:01,67.96302818300495
-0.491,-0.133,10.098,0.0010660981,0.0021321962,0.0010660981,320.0,-0.02616404,-0.19086665,9.804756,0.060123395,0.014940709,0.043801308,-0.0036906493,-0.00910329,0.9691278,2016-12-02 10:34:02,60.71103320770072
-0.49,-0.119,10.079,0.0021321962,-0.0010660981,0.0,320.0,-0.02616404,-0.19086665,9.804756,0.0649118,0.0125465095,1.077652E-4,-0.0036906493,-0.00910329,0.9691278,2016-12-02 10:34:03,50.84336940926975
-0.485,-0.129,10.053,0.0010660981,0.0,0.0,320.0,-0.02616404,-0.19086665,9.804756,0.08526251,0.002969712,0.02524662,-0.0036906493,-0.00910329,0.9691278,2016-12-02 10:34:04,52.09401087882222
-0.492,-0.132,10.086,0.0,0.0031982942,0.0,320.0,-0.02616404,-0.19086665,9.804756,0.06311615,0.0017726123,0.024049759,-0.0036906493,-0.00910329,0.9691278,2016-12-02 10:34:05,75.00525593750568
-0.493,-0.131,10.102,0.0,0.0031982942,0.0,320.0,-0.02616404,-0.19086665,9.804756,0.061320495,0.0077581108,0.021057129,-0.0036906493,-0.00910329,0.9691278,2016-12-02 10:34:06,52.865568051596526
-0.496,-0.128,10.09,0.0,0.0021321962,0.0,320.0,-0.02616404,-0.19086665,9.804756,0.0625176,0.00955376,0.025845528,-0.0036906493,-0.00910329,0.9691278,2016-12-02 10:34:07,78.17781581314576
-0.497,-0.134,10.081,0.0,-0.0010660981,0.0,320.0,-0.02616404,-0.19086665,9.804756,0.0637147,0.0035682619,0.01926136,-0.0036906493,-0.00910329,0.9691278,2016-12-02 10:34:08,75.30153816406333
-0.495,-0.138,10.093,0.0,0.0021321962,0.0,320.0,-0.02616404,-0.19086665,9.804756,0.060123395,0.002969712,0.033626556,-0.0036906493,-0.00910329,0.9691278,2016-12-02 10:34:09,80.23944868065307
-0.501,-0.13,10.111,0.0,-0.0010660981,0.0010660981,320.0,-0.02616404,-0.19086665,9.804756,0.07149585,0.00895521,0.018064499,-0.0036906493,-0.00910329,0.9691278,2016-12-02 10:34:10,78.76770608487152
-0.505,-0.125,10.081,0.0,0.0010660981,0.0,320.0,-0.02616404,-0.19086665,9.804756,0.08286831,-0.00959985,0.038414955,-0.0036906493,-0.00910329,0.9691278,2016-12-02 10:34:11,72.83580344124492
-0.489,-0.131,10.067,0.0010660981,0.0,0.0,320.0,-0.02616404,-0.19086665,9.804756,0.06670745,0.01075086,0.007888794,-0.0036906493,-0.00910329,0.9691278,2016-12-02 10:34:12,75.49096720217614
-0.503,-0.123,10.076,0.0,-0.0021321962,0.0,320.0,-0.02616404,-0.19086665,9.804756,0.07269295,0.017933473,0.044400215,-0.0036906493,-0.00910329,0.9691278,2016-12-02 10:34:13,69.64009610050269
-0.502,-0.11,10.096,0.0010660981,0.0,0.0010660981,320.0,-0.02616404,-0.19086665,9.804756,0.06790455,0.022721872,0.030035019,-0.0036906493,-0.00910329,0.9691278,2016-12-02 10:34:14,50.88648118513932
-0.505,-0.12,10.105,0.0,0.0031982942,0.0,320.0,-0.02616404,-0.19086665,9.804756,0.07628426,0.02810882,0.024049759,-0.0036906493,-0.00910329,0.9691278,2016-12-02 10:34:15,70.42057261594854
-0.508,-0.12,10.066,0.0010660981,-0.0031982942,0.0010660981,320.0,-0.02616404,-0.19086665,9.804756,0.0697002,0.019130573,0.013874054,-0.0036906493,-0.00910329,0.9691278,2016-12-02 10:34:16,72.78334419860867
-0.502,-0.127,10.078,0.0,0.0010660981,0.0021321962,320.0,-0.02616404,-0.19086665,9.804756,0.048152387,0.025116071,0.012677193,-0.0036906493,-0.00910329,0.9691278,2016-12-02 10:34:17,73.45872941831777
-0.487,-0.118,10.094,-0.0010660981,-0.0021321962,0.0010660981,320.0,-0.02616404,-0.19086665,9.804756,0.052940793,0.0035682619,-0.008272171,-0.0036906493,-0.00910329,0.9691278,2016-12-02 10:34:18,67.05678353205487
-0.49,-0.134,10.078,0.0010660981,0.0021321962,0.0,320.0,-0.02616404,-0.19086665,9.804756,0.056532092,-0.0030158013,-0.0034837723,-0.0036906493,-0.00910329,0.9691278,2016-12-02 10:34:19,52.967404064514206
-0.501,-0.113,10.087,0.0010660981,0.0,0.0010660981,320.0,-0.02616404,-0.19086665,9.804756,0.059524845,0.01194796,0.027641296,-0.0036906493,-0.00910329,0.9691278,2016-12-02 10:34:20,75.29384198851338
-0.492,-0.125,10.097,0.0,0.0010660981,0.0,320.0,-0.02616404,-0.19086665,9.804756,0.057729192,0.025714621,0.012078285,-0.0036906493,-0.00910329,0.9691278,2016-12-02 10:34:21,73.14044445956395
-0.503,-0.129,10.069,0.0010660981,0.0021321962,0.0010660981,320.0,-0.02616404,-0.19086665,9.804756,0.07508716,0.02810882,0.0132761,-0.0036906493,-0.00910329,0.9691278,2016-12-02 10:34:22,72.68594509681095
-0.506,-0.135,10.096,0.0,0.0010660981,0.0010660981,320.0,-0.02616404,-0.19086665,9.804756,0.058327746,0.019130573,0.059962273,-0.0036906493,-0.00910329,0.9691278,2016-12-02 10:34:23,60.30964950156499
-0.499,-0.12,10.075,0.0,0.0010660981,0.0,320.0,-0.02616404,-0.19086665,9.804756,0.06191905,0.02930592,0.0066919327,-0.0036906493,-0.00910329,0.9691278,2016-12-02 10:34:24,77.092854357793
-0.489,-0.122,10.073,0.0,0.0,0.0010660981,320.0,-0.02616404,-0.19086665,9.804756,0.05234224,0.015539259,0.011480331,-0.0036906493,-0.00910329,0.9691278,2016-12-02 10:34:25,52.526094800075434
-0.506,-0.118,10.052,0.0010660981,0.0,0.0010660981,320.0,-0.02616404,-0.19086665,9.804756,0.049948037,0.017334923,0.009684563,-0.0036906493,-0.00910329,0.9691278,2016-12-02 10:34:26,73.26418351040799
-0.508,-0.129,10.076,0.0,0.0,0.0021321962,320.0,-0.02616404,-0.19086665,9.804756,0.047553837,0.01194796,0.01626873,-0.0036906493,-0.00910329,0.9691278,2016-12-02 10:34:27,74.47355780262171
-0.482,-0.134,10.094,0.0,0.0010660981,0.0,320.0,-0.02616404,-0.19086665,9.804756,0.06910165,0.014342159,0.016866684,-0.0036906493,-0.00910329,0.9691278,2016-12-02 10:34:28,54.4888392014774
-0.485,-0.132,10.1,0.0,0.0021321962,0.0010660981,320.0,-0.02616404,-0.19086665,9.804756,0.0720944,0.016137823,0.026443481,-0.0036906493,-0.00910329,0.9691278,2016-12-02 10:34:29,75.37535861922987
-0.498,-0.134,10.078,0.0,-0.0010660981,0.0,320.0,-0.02616404,-0.19086665,9.804756,0.07568571,0.002969712,0.030633926,-0.0036906493,-0.00910329,0.9691278,2016-12-02 10:34:30,74.08301362737046
-0.483,-0.129,10.067,0.0010660981,0.0,0.0,320.0,-0.02616404,-0.19086665,9.804756,0.049349487,0.022123322,0.049188614,-0.0036906493,-0.00910329,0.9691278,2016-12-02 10:34:31,53.91294766866849
-0.492,-0.123,10.089,0.0,0.0,0.0010660981,320.0,-0.02616404,-0.19086665,9.804756,0.06311615,0.017933473,0.029436111,-0.0036906493,-0.00910329,0.9691278,2016-12-02 10:34:32,74.57049739858508
-0.484,-0.122,10.108,0.0010660981,0.0021321962,0.0010660981,320.0,-0.02616404,-0.19086665,9.804756,0.06670745,0.016736373,0.037816048,-0.0036906493,-0.00910329,0.9691278,2016-12-02 10:34:33,79.11140663587145
-0.492,-0.116,10.061,0.0,0.0,0.0010660981,320.0,-0.02616404,-0.19086665,9.804756,0.0649118,0.0011740625,0.04978752,-0.0036906493,-0.00910329,0.9691278,2016-12-02 10:34:34,71.26674087001409
-0.499,-0.114,10.103,0.0,0.0010660981,0.0010660981,320.0,-0.02616404,-0.19086665,9.804756,0.067306,0.01075086,-0.0040826797,-0.0036906493,-0.00910329,0.9691278,2016-12-02 10:34:35,78.22836930196023
-0.484,-0.126,10.103,0.0,0.0,0.0010660981,320.0,-0.02616404,-0.19086665,9.804756,0.07389006,0.022123322,0.04679489,-0.0036906493,-0.00910329,0.9691278,2016-12-02 10:34:36,73.74629786267859
-0.489,-0.135,10.1,0.0,0.0010660981,0.0010660981,320.0,-0.02616404,-0.19086665,9.804756,0.06551035,0.020327672,0.009085655,-0.0036906493,-0.00910329,0.9691278,2016-12-02 10:34:37,77.49832185329784
-0.685,-0.145,10.063,-0.0042643924,0.011727079,0.015991472,320.0,-0.021450894,-0.18759342,9.8048315,-0.051131725,0.005083427,-0.041267395,-0.0034318385,-0.008994935,0.96871144,2016-12-02 10:34:38,78.64882545235047
-0.488,-0.129,10.083,0.0010660981,0.0,0.0010660981,320.0,-0.024690384,-0.18926445,9.804792,0.06403669,0.011542857,0.021618843,-0.003613002,-0.009036513,0.9687101,2016-12-02 10:34:39,80.38577226249232
-0.483,-0.125,10.104,0.0,0.0,0.0010660981,320.0,-0.024690384,-0.18926445,9.804792,0.071219295,0.01812692,0.023414612,-0.003613002,-0.009036513,0.9687101,2016-12-02 10:34:40,71.5689613263734
-0.488,-0.113,10.082,0.0031982942,0.0,0.0,320.0,-0.01503426,-0.18792196,9.804837,0.053183466,0.025164127,0.01858139,-0.003171088,-0.009074285,0.96727467,2016-12-02 10:34:41,70.89739689123455
-0.491,-0.128,10.103,0.0010660981,0.0010660981,0.0,320.0,-0.010248389,-0.18559387,9.804887,0.03582804,0.026427343,0.023919106,-0.002904976,-0.009021311,0.9672748,2016-12-02 10:34:42,77.314926256452
-0.499,-0.123,10.097,0.0,0.0010660981,0.0010660981,320.0,-0.010248389,-0.18559387,9.804887,0.054383103,0.022836044,0.0011739731,-0.002904976,-0.009021311,0.9672748,2016-12-02 10:34:43,75.8883696181756
-0.456,-0.116,10.055,0.0,0.0042643924,0.010660981,320.0,-0.009952028,-0.18561001,9.804889,0.028947625,0.017465234,0.016734123,-0.002956573,-0.00900803,0.96713156,2016-12-02 10:34:44,53.91969697111008
-0.479,-0.127,10.1,0.0010660981,0.0010660981,0.0,320.0,-0.011188538,-0.18560487,9.804887,0.05532325,0.010876045,0.05324745,-0.002956573,-0.00900803,0.96713156,2016-12-02 10:34:45,74.42092161657419
-0.48,-0.125,10.059,0.0010660981,0.0010660981,0.0,320.0,-0.011188538,-0.18560487,9.804887,0.064301506,0.00848183,0.016138077,-0.002956573,-0.00900803,0.96713156,2016-12-02 10:34:46,73.57765565265022
-0.495,-0.128,10.084,0.0,0.0,0.0010660981,320.0,-0.011188538,-0.18560487,9.804887,0.058316,0.018058643,0.01972866,-0.002956573,-0.00900803,0.96713156,2016-12-02 10:34:47,76.85605054422976
-0.489,-0.126,10.064,0.0,-0.0010660981,0.0010660981,320.0,-0.011188538,-0.18560487,9.804887,0.053527597,0.0036934316,0.051452637,-0.002956573,-0.00900803,0.96713156,2016-12-02 10:34:48,77.0297937573325
-0.492,-0.123,10.082,0.0,0.0010660981,0.0010660981,320.0,-0.011188538,-0.18560487,9.804887,0.052330498,0.016262993,0.034692764,-0.002956573,-0.00900803,0.96713156,2016-12-02 10:34:49,61.67037665915742
-0.465,-0.114,10.099,0.0010660981,-0.0021321962,0.0,320.0,-0.011188538,-0.18560487,9.804887,0.058914553,0.012073144,0.010151863,-0.002956573,-0.00900803,0.96713156,2016-12-02 10:34:50,76.32075829055664
-0.477,-0.123,10.078,0.0010660981,0.0010660981,0.0010660981,320.0,-0.011103542,-0.18560998,9.804887,0.060625207,0.016268104,0.033495903,-0.0029545105,-0.0090087075,0.9670733,2016-12-02 10:34:51,66.41865677502369
-0.493,-0.132,10.093,0.0,0.0,0.0010660981,320.0,-0.011103542,-0.18560998,9.804887,0.0486542,0.016268104,0.05683899,-0.0029545105,-0.0090087075,0.9670733,2016-12-02 10:34:52,80.66705848756415
-0.541,-0.134,10.091,0.0,-0.0010660981,0.011727079,320.0,-0.009400796,-0.1857041,9.804888,0.023009438,0.01696077,0.03948021,-0.0029131689,-0.009022165,0.965897,2016-12-02 10:34:53,71.41079080172004
-0.492,-0.134,10.08,0.0,0.0,0.0021321962,320.0,-0.011918211,-0.18568055,9.804884,0.056651473,0.020528525,0.0466671,-0.003026509,-0.008991278,0.96619374,2016-12-02 10:34:54,75.74434817418346
-0.489,-0.119,10.092,0.0010660981,0.0,0.0010660981,320.0,-0.011918211,-0.18568055,9.804884,0.04408192,-0.0022163838,0.013746262,-0.003026509,-0.008991278,0.96619374,2016-12-02 10:34:56,52.614695440598716
-0.495,-0.114,10.085,0.0,0.0042643924,0.0063965884,320.0,-0.011957792,-0.185678,9.804883,0.044121496,0.016336128,0.027514458,-0.003027947,-0.008990795,0.966235,2016-12-02 10:34:57,76.1913593066426
-0.486,-0.126,10.063,0.0,0.0010660981,0.0021321962,320.0,-0.014416673,-0.18567282,9.804881,0.059748486,0.010943994,0.026917458,-0.0031472151,-0.008958877,0.9662593,2016-12-02 10:34:58,77.75928793015864
-0.489,-0.136,10.095,0.0,0.0021321962,0.0010660981,320.0,-0.014416673,-0.18567282,9.804881,0.057354283,-0.0022241175,0.039486885,-0.0031472151,-0.008958877,0.9662593,2016-12-02 10:34:59,75.20297970347566
-0.508,-0.119,10.105,0.0010660981,0.0010660981,0.0,320.0,-0.014416673,-0.18567282,9.804881,0.03580647,0.017528042,0.045472145,-0.0031472151,-0.008958877,0.9662593,2016-12-02 10:35:00,52.782667871402055
-0.489,-0.121,10.078,0.0,0.0010660981,0.0,320.0,-0.014416673,-0.18567282,9.804881,0.057354283,0.00854978,0.0017786026,-0.0031472151,-0.008958877,0.9662593,2016-12-02 10:35:01,50.73858926422243
-0.49,-0.131,10.093,0.0,-0.0010660981,0.0010660981,320.0,-0.014416673,-0.18567282,9.804881,0.048376027,0.009746879,0.03409958,-0.0031472151,-0.008958877,0.9662593,2016-12-02 10:35:02,50.811301175173824
-0.503,-0.117,10.088,0.0,0.0,0.0010660981,320.0,-0.014416673,-0.18567282,9.804881,0.045981824,0.0025642812,0.018537521,-0.0031472151,-0.008958877,0.9662593,2016-12-02 10:35:03,76.18843440293917
-0.486,-0.12,10.057,0.0021321962,0.0,0.0010660981,320.0,-0.014416673,-0.18567282,9.804881,0.078303546,0.00675413,0.022129059,-0.0031472151,-0.008958877,0.9662593,2016-12-02 10:35:04,75.10423838474625
-0.492,-0.123,10.088,0.0010660981,0.0010660981,0.0,320.0,-0.014416673,-0.18567282,9.804881,0.047777478,0.019323692,0.029910088,-0.0031472151,-0.008958877,0.9662593,2016-12-02 10:35:05,67.29519773982823
-0.504,-0.121,10.101,0.0010660981,-0.0010660981,0.0,320.0,-0.014416673,-0.18567282,9.804881,0.057952832,0.0091483295,0.040683746,-0.0031472151,-0.008958877,0.9662593,2016-12-02 10:35:06,78.51175918155089
-0.498,-0.123,10.105,0.0,0.0010660981,0.0010660981,320.0,-0.014416673,-0.18567282,9.804881,0.04538328,0.012739643,0.04487419,-0.0031472151,-0.008958877,0.9662593,2016-12-02 10:35:07,66.63513072717944
-0.486,-0.111,10.1,0.0,0.0010660981,0.0010660981,320.0,-0.014416673,-0.18567282,9.804881,0.056755733,0.021717891,0.033501625,-0.0031472151,-0.008958877,0.9662593,2016-12-02 10:35:08,76.82111891146975
-0.486,-0.105,10.102,0.0,0.0010660981,0.0010660981,320.0,-0.014416673,-0.18567282,9.804881,0.05256588,0.012739643,0.028114319,-0.0031472151,-0.008958877,0.9662593,2016-12-02 10:35:09,54.66270173378681
-0.493,-0.12,10.088,0.0010660981,0.0,0.0010660981,320.0,-0.014416673,-0.18567282,9.804881,0.06453689,0.014535293,0.026917458,-0.0031472151,-0.008958877,0.9662593,2016-12-02 10:35:10,73.28947619045718
-0.495,-0.119,10.077,0.0021321962,0.0,0.0010660981,320.0,-0.014416673,-0.18567282,9.804881,0.054960083,0.016330943,0.041282654,-0.0031472151,-0.008958877,0.9662593,2016-12-02 10:35:11,51.78031128770526
-0.483,-0.104,10.056,0.0,0.0,0.0010660981,550.0,-0.014416673,-0.18567282,9.804881,0.047178928,0.018126592,0.016741753,-0.0031472151,-0.008958877,0.9662593,2016-12-02 10:35:12,60.607030134280144
-0.486,-0.109,10.078,0.0,0.0,0.0010660981,550.0,-0.014416673,-0.18567282,9.804881,0.047777478,0.012739643,0.013749123,-0.0031472151,-0.008958877,0.9662593,2016-12-02 10:35:13,73.78825597756146
-0.497,-0.124,10.103,-0.0010660981,-0.0021321962,0.0010660981,550.0,-0.014416673,-0.18567282,9.804881,0.046580378,0.012141094,0.043676376,-0.0031472151,-0.008958877,0.9662593,2016-12-02 10:35:14,61.19228352467218
-0.501,-0.113,10.098,0.0021321962,0.0,0.0,550.0,-0.014416673,-0.18567282,9.804881,0.056157183,0.010345429,0.032304764,-0.0031472151,-0.008958877,0.9662593,2016-12-02 10:35:15,51.05998102689726
-0.496,-0.121,10.093,0.0,0.0021321962,0.0,550.0,-0.014416673,-0.18567282,9.804881,0.042390525,0.0091483295,0.029910088,-0.0031472151,-0.008958877,0.9662593,2016-12-02 10:35:16,77.51536975130793
-0.489,-0.122,10.105,0.0010660981,0.0,0.0,550.0,-0.014416673,-0.18567282,9.804881,0.054960083,0.015732393,0.017939568,-0.0031472151,-0.008958877,0.9662593,2016-12-02 10:35:17,74.88269202491591
-0.49,-0.131,10.085,0.0021321962,0.0010660981,0.0,550.0,-0.014416673,-0.18567282,9.804881,0.056755733,0.019922242,0.012552261,-0.0031472151,-0.008958877,0.9662593,2016-12-02 10:35:18,50.857476054932
-0.479,-0.119,10.079,0.0010660981,0.0,0.0010660981,550.0,-0.014416673,-0.18567282,9.804881,0.047777478,0.015732393,0.02033329,-0.0031472151,-0.008958877,0.9662593,2016-12-02 10:35:19,67.03945194550752
-0.499,-0.115,10.095,0.0021321962,0.0,0.0010660981,550.0,-0.014416673,-0.18567282,9.804881,0.07471225,0.019922242,0.02931118,-0.0031472151,-0.008958877,0.9662593,2016-12-02 10:35:20,51.8975639972863
-0.503,-0.122,10.084,0.0010660981,0.0,0.0,550.0,-0.014416673,-0.18567282,9.804881,0.06633254,0.010943994,0.041282654,-0.0031472151,-0.008958877,0.9662593,2016-12-02 10:35:21,80.80564537977979
-0.491,-0.122,10.103,0.0010660981,0.0010660981,0.0,550.0,-0.014416673,-0.18567282,9.804881,0.042989075,0.016330943,0.032304764,-0.0031472151,-0.008958877,0.9662593,2016-12-02 10:35:22,74.31146448940387
-0.482,-0.117,10.093,0.0,0.0021321962,0.0,550.0,-0.014416673,-0.18567282,9.804881,0.060347036,0.02650629,0.037093163,-0.0031472151,-0.008958877,0.9662593,2016-12-02 10:35:23,78.6756374517198
-0.488,-0.133,10.075,0.0010660981,0.0010660981,0.0,320.0,-0.014416673,-0.18567282,9.804881,0.047178928,0.010345429,0.028713226,-0.0031472151,-0.008958877,0.9662593,2016-12-02 10:35:24,67.56020101501952
-0.505,-0.116,10.114,-0.0010660981,-0.0010660981,0.0,320.0,-0.014416673,-0.18567282,9.804881,0.056755733,0.015732393,0.033501625,-0.0031472151,-0.008958877,0.9662593,2016-12-02 10:35:25,69.54239174086365
-0.496,-0.141,10.081,0.0,0.0,0.0010660981,320.0,-0.014416673,-0.18567282,9.804881,0.06513544,0.003761381,0.020932198,-0.0031472151,-0.008958877,0.9662593,2016-12-02 10:35:26,71.0063651201431
-0.486,-0.127,10.088,0.0021321962,0.0,0.0,320.0,-0.014416673,-0.18567282,9.804881,0.05256588,0.00854978,0.034698486,-0.0031472151,-0.008958877,0.9662593,2016-12-02 10:35:27,68.66105963765642
-0.495,-0.127,10.081,0.0010660981,0.0,0.0,320.0,-0.014416673,-0.18567282,9.804881,0.040594872,0.0061555803,0.02033329,-0.0031472151,-0.008958877,0.9662593,2016-12-02 10:35:28,75.7072198387699
-0.49,-0.125,10.081,0.0,0.0,0.0010660981,320.0,-0.014416673,-0.18567282,9.804881,0.05256588,0.00795123,0.027516365,-0.0031472151,-0.008958877,0.9662593,2016-12-02 10:35:29,50.440888613622874
-0.489,-0.125,10.075,0.0,0.0,0.0010660981,320.0,-0.014416673,-0.18567282,9.804881,0.04538328,0.019922242,0.033501625,-0.0031472151,-0.008958877,0.9662593,2016-12-02 10:35:30,78.68001188462625
-0.502,-0.122,10.072,0.0,0.0,0.0010660981,320.0,-0.014416673,-0.18567282,9.804881,0.026828215,0.019323692,0.009559631,-0.0031472151,-0.008958877,0.9662593,2016-12-02 10:35:31,51.629653432620586
-0.489,-0.12,10.083,0.0010660981,0.0,0.0,320.0,-0.014416673,-0.18567282,9.804881,0.054361533,0.015732393,0.02332592,-0.0031472151,-0.008958877,0.9662593,2016-12-02 10:35:32,76.91594789883531
-0.486,-0.119,10.118,0.0021321962,0.0,0.0,320.0,-0.014416673,-0.18567282,9.804881,0.046580378,0.019922242,0.0017786026,-0.0031472151,-0.008958877,0.9662593,2016-12-02 10:35:33,72.60832255001571
-0.503,-0.126,10.084,0.0,-0.0010660981,0.0,320.0,-0.014416673,-0.18567282,9.804881,0.03520792,0.016330943,0.016741753,-0.0031472151,-0.008958877,0.9662593,2016-12-02 10:35:34,50.86135370279186
-0.487,-0.113,10.073,0.0,0.0021321962,-0.0010660981,320.0,-0.014416673,-0.18567282,9.804881,0.038799223,0.0043599308,0.030508995,-0.0031472151,-0.008958877,0.9662593,2016-12-02 10:35:35,74.33757322065779
-0.485,-0.124,10.085,0.0010660981,0.0,0.0,320.0,-0.014416673,-0.18567282,9.804881,0.06393834,0.021717891,0.025720596,-0.0031472151,-0.008958877,0.9662593,2016-12-02 10:35:36,54.790363517564046
-0.484,-0.13,10.098,0.0,0.0021321962,0.0,320.0,-0.014416673,-0.18567282,9.804881,0.03700357,0.00795123,0.021530151,-0.0031472151,-0.008958877,0.9662593,2016-12-02 10:35:37,73.95828494080281
-0.483,-0.131,10.073,0.0,0.0010660981,0.0,320.0,-0.014416673,-0.18567282,9.804881,0.05077023,0.019323692,0.027516365,-0.0031472151,-0.008958877,0.9662593,2016-12-02 10:35:38,68.72667266378716
-0.495,-0.115,10.086,0.0,0.0010660981,0.0021321962,320.0,-0.014416673,-0.18567282,9.804881,0.049573127,0.019922242,0.019136429,-0.0031472151,-0.008958877,0.9662593,2016-12-02 10:35:39,67.0509736426091
-0.486,-0.125,10.079,0.0,0.0,-0.0010660981,320.0,-0.014416673,-0.18567282,9.804881,0.03640502,0.00795123,0.027516365,-0.0031472151,-0.008958877,0.9662593,2016-12-02 10:35:40,76.47453103111604
-0.501,-0.123,10.088,0.0010660981,0.0010660981,0.0,320.0,-0.014416673,-0.18567282,9.804881,0.048974577,0.015732393,0.022129059,-0.0031472151,-0.008958877,0.9662593,2016-12-02 10:35:41,74.66398382378833
-0.506,-0.119,10.1,0.0,-0.0010660981,0.0,320.0,-0.014416673,-0.18567282,9.804881,0.05196733,0.012141094,0.024522781,-0.0031472151,-0.008958877,0.9662593,2016-12-02 10:35:42,65.01947900352941
-0.485,-0.12,10.082,-0.0010660981,0.0021321962,0.0,320.0,-0.014416673,-0.18567282,9.804881,0.041791975,0.020520791,0.031106949,-0.0031472151,-0.008958877,0.9662593,2016-12-02 10:35:43,54.843884538014436
-0.488,-0.132,10.081,0.0010660981,0.0,0.0010660981,320.0,-0.014416673,-0.18567282,9.804881,0.045981824,0.013936743,0.05265522,-0.0031472151,-0.008958877,0.9662593,2016-12-02 10:35:44,50.760455420805556
-0.495,-0.12,10.069,0.0010660981,-0.0010660981,0.0,320.0,-0.014416673,-0.18567282,9.804881,0.041193426,0.02411209,0.042479515,-0.0031472151,-0.008958877,0.9662593,2016-12-02 10:35:45,79.5003471266481
-0.486,-0.118,10.085,0.0,0.0010660981,0.0010660981,320.0,-0.014416673,-0.18567282,9.804881,0.039996322,0.012739643,-1.7166138E-5,-0.0031472151,-0.008958877,0.9662593,2016-12-02 10:35:46,74.43269284300948
-0.504,-0.13,10.063,0.0,0.0010660981,0.0010660981,320.0,-0.014416673,-0.18567282,9.804881,0.05256588,0.0025642812,0.014945984,-0.0031472151,-0.008958877,0.9662593,2016-12-02 10:35:47,78.02945643415734
-0.489,-0.121,10.083,0.0010660981,0.0042643924,0.0,320.0,-0.014416673,-0.18567282,9.804881,0.054361533,0.018725142,0.022727966,-0.0031472151,-0.008958877,0.9662593,2016-12-02 10:35:48,79.04345373950717
-0.489,-0.126,10.08,0.0010660981,0.0,0.0,320.0,-0.014416673,-0.18567282,9.804881,0.040594872,0.013338193,0.052056313,-0.0031472151,-0.008958877,0.9662593,2016-12-02 10:35:49,77.10360040533533
-0.495,-0.129,10.075,0.0,0.0010660981,0.0,320.0,-0.014416673,-0.18567282,9.804881,0.044186175,0.022316441,0.042479515,-0.0031472151,-0.008958877,0.9662593,2016-12-02 10:35:50,66.54594005333503
-0.505,-0.121,10.075,0.0,-0.0010660981,0.0,320.0,-0.014416673,-0.18567282,9.804881,0.041193426,0.013936743,0.02931118,-0.0031472151,-0.008958877,0.9662593,2016-12-02 10:35:51,75.40309847042528
-0.495,-0.125,10.076,0.0,-0.0010660981,0.0,320.0,-0.014416673,-0.18567282,9.804881,0.047777478,0.0043599308,0.022727966,-0.0031472151,-0.008958877,0.9662593,2016-12-02 10:35:52,58.61129446548095
-0.483,-0.137,10.11,0.0,-0.0010660981,-0.0010660981,320.0,-0.014416673,-0.18567282,9.804881,0.059149936,0.0013671815,0.039486885,-0.0031472151,-0.008958877,0.9662593,2016-12-02 10:35:53,50.72460819709285
-0.489,-0.125,10.076,0.0010660981,0.0,0.0010660981,320.0,-0.014416673,-0.18567282,9.804881,0.05316443,0.013338193,0.012552261,-0.0031472151,-0.008958877,0.9662593,2016-12-02 10:35:54,74.55046576544382
-0.494,-0.122,10.108,0.0,-0.0010660981,0.0,320.0,-0.014416673,-0.18567282,9.804881,0.059748486,0.00854978,0.028114319,-0.0031472151,-0.008958877,0.9662593,2016-12-02 10:35:56,70.77798572508028
-0.492,-0.118,10.096,0.0,0.0021321962,0.0010660981,320.0,-0.014416673,-0.18567282,9.804881,0.06932529,0.012141094,0.038887978,-0.0031472151,-0.008958877,0.9662593,2016-12-02 10:35:57,63.89015476058441
-0.497,-0.123,10.089,0.0,-0.0031982942,0.0010660981,320.0,-0.014416673,-0.18567282,9.804881,0.042989075,0.014535293,0.015544891,-0.0031472151,-0.008958877,0.9662593,2016-12-02 10:35:58,76.46496085843769
-0.495,-0.13,10.066,0.0010660981,-0.0021321962,0.0,320.0,-0.014416673,-0.18567282,9.804881,0.048376027,0.021119341,0.035895348,-0.0031472151,-0.008958877,0.9662593,2016-12-02 10:35:59,51.46671154765227
-0.498,-0.134,10.092,0.0,-0.0010660981,0.0,320.0,-0.014416673,-0.18567282,9.804881,0.05316443,0.012739643,0.023924828,-0.0031472151,-0.008958877,0.9662593,2016-12-02 10:36:00,78.19752926513817
-0.49,-0.114,10.082,0.0,-0.0010660981,0.0010660981,320.0,-0.014416673,-0.18567282,9.804881,0.054960083,0.021717891,0.034698486,-0.0031472151,-0.008958877,0.9662593,2016-12-02 10:36:01,50.681626326340265
-0.485,-0.116,10.078,0.0010660981,0.0010660981,0.0,550.0,-0.014416673,-0.18567282,9.804881,0.06274124,0.0025642812,0.023924828,-0.0031472151,-0.008958877,0.9662593,2016-12-02 10:36:02,69.69541578175452
-0.484,-0.129,10.084,0.0010660981,-0.0010660981,0.0,550.0,-0.014416673,-0.18567282,9.804881,0.06453689,0.011542544,0.02631855,-0.0031472151,-0.008958877,0.9662593,2016-12-02 10:36:03,49.99567899607881
-0.478,-0.123,10.078,0.0,0.0031982942,0.0,550.0,-0.014416673,-0.18567282,9.804881,0.054960083,0.00795123,0.027516365,-0.0031472151,-0.008958877,0.9662593,2016-12-02 10:36:04,70.81621498194079
-0.5,-0.108,10.08,0.0,0.0010660981,0.0,550.0,-0.014416673,-0.18567282,9.804881,0.043587625,0.027703404,0.02033329,-0.0031472151,-0.008958877,0.9662593,2016-12-02 10:36:05,73.28292097323484
-0.502,-0.114,10.075,0.0,0.0010660981,0.0,550.0,-0.014416673,-0.18567282,9.804881,0.044784725,0.00854978,0.0113554,-0.0031472151,-0.008958877,0.9662593,2016-12-02 10:36:06,74.02045308275079
-0.493,-0.113,10.086,0.0021321962,0.0021321962,0.0,550.0,-0.014416673,-0.18567282,9.804881,0.055558633,0.010345429,0.032902718,-0.0031472151,-0.008958877,0.9662593,2016-12-02 10:36:07,70.50281498838474
-0.497,-0.12,10.093,0.0010660981,0.0,0.0010660981,320.0,-0.014416673,-0.18567282,9.804881,0.044186175,0.011542544,0.017939568,-0.0031472151,-0.008958877,0.9662593,2016-12-02 10:36:08,79.27638256912655
-0.497,-0.132,10.08,0.0,-0.0010660981,0.0,320.0,-0.014416673,-0.18567282,9.804881,0.047777478,0.017528042,0.020932198,-0.0031472151,-0.008958877,0.9662593,2016-12-02 10:36:09,78.02489792340496
-0.496,-0.113,10.084,0.0,0.0021321962,0.0010660981,320.0,-0.014416673,-0.18567282,9.804881,0.040594872,0.016330943,0.013151169,-0.0031472151,-0.008958877,0.9662593,2016-12-02 10:36:10,71.47646162741219
-0.489,-0.115,10.1,0.0,-0.0010660981,0.0,320.0,-0.014416673,-0.18567282,9.804881,0.05017168,0.0019657314,0.007164955,-0.0031472151,-0.008958877,0.9662593,2016-12-02 10:36:11,53.76773614893524
-0.499,-0.122,10.088,0.0010660981,-0.0010660981,0.0,320.0,-0.014416673,-0.18567282,9.804881,0.06752964,0.012739643,0.043676376,-0.0031472151,-0.008958877,0.9662593,2016-12-02 10:36:12,76.3474608945034
-0.484,-0.114,10.096,0.0,0.0021321962,0.0,320.0,-0.014416673,-0.18567282,9.804881,0.048376027,0.018725142,-6.160736E-4,-0.0031472151,-0.008958877,0.9662593,2016-12-02 10:36:13,69.76177859975878
-0.493,-0.113,10.071,0.0,0.0021321962,0.0021321962,320.0,-0.014416673,-0.18567282,9.804881,0.047178928,0.019922242,0.040683746,-0.0031472151,-0.008958877,0.9662593,2016-12-02 10:36:14,70.99977781803848
-0.493,-0.123,10.09,0.0010660981,0.0021321962,0.0010660981,320.0,-0.014416673,-0.18567282,9.804881,0.06274124,0.013338193,0.028713226,-0.0031472151,-0.008958877,0.9662593,2016-12-02 10:36:15,50.56232345624682
-0.502,-0.116,10.096,0.0010660981,0.0010660981,0.0,320.0,-0.014416673,-0.18567282,9.804881,0.0705224,0.018126592,0.037691116,-0.0031472151,-0.008958877,0.9662593,2016-12-02 10:36:16,73.29733738113474
-0.478,-0.111,10.111,0.0,0.0,0.0021321962,320.0,-0.014416673,-0.18567282,9.804881,0.06812819,0.019323692,0.035895348,-0.0031472151,-0.008958877,0.9662593,2016-12-02 10:36:17,53.2526112337044
-0.487,-0.128,10.067,0.0010660981,0.0010660981,0.0,320.0,-0.014416673,-0.18567282,9.804881,0.056157183,0.00854978,0.007164955,-0.0031472151,-0.008958877,0.9662593,2016-12-02 10:36:18,70.49512164252731
-0.503,-0.119,10.089,0.0010660981,0.0,0.0010660981,320.0,-0.014416673,-0.18567282,9.804881,0.06333979,0.028301954,0.02631855,-0.0031472151,-0.008958877,0.9662593,2016-12-02 10:36:19,76.05990376272126
-0.483,-0.125,10.085,0.0010660981,0.0,0.0021321962,320.0,-0.014416673,-0.18567282,9.804881,0.061544135,0.019922242,-0.00899601,-0.0031472151,-0.008958877,0.9662593,2016-12-02 10:36:20,58.45658811371762
-0.481,-0.121,10.088,0.0010660981,0.0,0.0,320.0,-0.014416673,-0.18567282,9.804881,0.05256588,0.030097604,0.028114319,-0.0031472151,-0.008958877,0.9662593,2016-12-02 10:36:21,75.65083840850824
-0.493,-0.116,10.092,0.0010660981,0.0,0.0010660981,320.0,-0.014416673,-0.18567282,9.804881,0.054960083,0.018725142,0.037093163,-0.0031472151,-0.008958877,0.9662593,2016-12-02 10:36:22,70.66646190001075
-0.483,-0.119,10.079,0.0010660981,0.0,0.0010660981,320.0,-0.014416673,-0.18567282,9.804881,0.031616617,0.00735268,-0.0024118423,-0.0031472151,-0.008958877,0.9662593,2016-12-02 10:36:23,50.44498185111198
-0.497,-0.126,10.087,0.0,0.0021321962,0.0,320.0,-0.014416673,-0.18567282,9.804881,0.06752964,0.022316441,0.035297394,-0.0031472151,-0.008958877,0.9662593,2016-12-02 10:36:24,50.361603807976095
-0.495,-0.116,10.105,0.0010660981,0.0010660981,0.0010660981,320.0,-0.014416673,-0.18567282,9.804881,0.048376027,0.019922242,0.045472145,-0.0031472151,-0.008958877,0.9662593,2016-12-02 10:36:25,50.91144005255971
-0.489,-0.126,10.084,0.0,0.0021321962,0.0,550.0,-0.014416673,-0.18567282,9.804881,0.056755733,0.018725142,0.02931118,-0.0031472151,-0.008958877,0.9662593,2016-12-02 10:36:26,64.28865810482702
-0.502,-0.125,10.077,0.0010660981,0.0010660981,0.0010660981,550.0,-0.014416673,-0.18567282,9.804881,0.047178928,0.018725142,0.037691116,-0.0031472151,-0.008958877,0.9662593,2016-12-02 10:36:27,50.97513090377045
-0.489,-0.122,10.093,0.0,-0.0010660981,0.0,550.0,-0.014416673,-0.18567282,9.804881,0.047178928,0.017528042,0.02332592,-0.0031472151,-0.008958877,0.9662593,2016-12-02 10:36:28,78.62741055402799
-0.487,-0.135,10.088,0.0,-0.0010660981,0.0,550.0,-0.014416673,-0.18567282,9.804881,0.058551386,0.0091483295,0.031106949,-0.0031472151,-0.008958877,0.9662593,2016-12-02 10:36:29,79.52401173345088
