ACC_X,ACC_Y,ACC_Z,GYRO_X,GYRO_Y,GYRO_Z,LIGH_1,GRAV_X,GRAV_Y,GRAV_Z,LINACC_X,LINACC_Y,LINACC_Z,ROTVEC_X,ROTVEC_Y,ROTVEC_Z,TIME,VOICE
2.1260512,-5.094861,8.714894,-0.0567232,0.018544123,-0.106901415,10.24,2.087744,-4.793192,8.298303,0.038307227,-0.30166942,0.4165911,0.04701814,-0.2889611,0.89522576,2017-10-26 08:03:09,28.567977816005374
2.3463178,-5.3486466,8.532935,0.0010908308,0.0283616,0.0032724924,3.84,2.3391352,-5.044583,8.078036,0.007182605,-0.30406362,0.45489833,0.0046110153,-0.2968995,0.8744136,2017-10-26 08:03:10,60.41816472500307
2.5570073,-5.401319,8.183381,0.0,-0.025089107,-0.009817477,2.56,2.4420857,-5.0182467,8.063671,0.11492168,-0.38307226,0.11971009,1.616776E-5,-0.29875368,0.86200696,2017-10-26 08:03:11,66.6507492377554
2.8203697,-5.7269306,8.451532,-0.040360738,-0.030543262,-0.0141808,3.84,2.6551697,-5.2504845,7.845799,0.16519992,-0.47644615,0.60573304,-1.0327995E-4,-0.31695747,0.8508336,2017-10-26 08:03:12,52.97859515126621
2.0685902,-4.855441,6.4787097,-0.3228859,1.7813267,-1.225003,5.12,1.5251064,-4.975151,8.312668,0.5434838,0.11971009,-1.8339585,-0.07586078,-0.26959407,0.8095386,2017-10-26 08:03:13,54.84056762212266
-0.05746084,-0.08140286,10.716447,-0.0021816615,-0.0425424,-0.008726646,17.92,-0.16280572,0.2681506,9.801862,0.10534488,-0.34955344,0.91458505,0.0014732778,0.011487441,0.6688166,2017-10-26 08:03:14,54.60242241142638
-0.25857377,-0.05267244,10.160992,0.0054541538,-0.0076358155,-0.018544123,23.039999,-0.16998832,0.22984336,9.8042555,-0.088585466,-0.2825158,0.35673606,0.00110739,0.012293618,0.67538345,2017-10-26 08:03:15,52.16625570524041
-0.19153613,-0.04309563,10.16578,0.0010908308,-0.009817477,-0.0109083075,23.039999,-0.17238252,0.23942018,9.8042555,-0.019153614,-0.2825158,0.36152446,0.001784076,0.013521096,0.6760539,2017-10-26 08:03:16,35.685703877343244
-0.22505496,0.05746084,10.127473,0.0054541538,-0.0076358155,-0.008726646,24.32,-0.17956513,0.19393034,9.8042555,-0.045489833,-0.1364695,0.32321724,-3.3314433E-4,0.012663789,0.67583376,2017-10-26 08:03:17,55.946037047714235
-0.08140286,0.047884032,10.108319,0.006544985,-0.0054541538,0.004363323,23.039999,-0.18435353,0.1436521,9.8042555,0.10295067,-0.095768064,0.30406362,-0.0025517568,0.011322828,0.6738387,2017-10-26 08:03:18,61.7774591671186
-0.1388637,-0.019153614,10.160992,0.004363323,0.0054541538,-0.006544985,23.039999,-0.15562311,0.11971009,9.80665,0.016759412,-0.1388637,0.35434186,-0.0026728082,0.009435553,0.67238086,2017-10-26 08:03:19,61.02436407685276
-0.21547815,-0.05267244,10.237606,-0.0010908308,0.021816615,0.025089107,21.76,-0.17717093,0.09816227,9.80665,-0.038307227,-0.15083471,0.4309563,-0.003940152,0.009555565,0.6736859,2017-10-26 08:03:20,59.93128137285989
-0.22026655,-0.009576807,10.19451,-0.009817477,-0.006544985,0.0076358155,24.32,-0.17956513,0.074220255,9.80665,-0.04070143,-0.08379706,0.3878607,-0.004826691,0.00883819,0.67468125,2017-10-26 08:03:21,59.910138274967714
-0.2873042,0.023942016,10.19451,-0.006544985,0.025089107,0.0,23.039999,-0.16519992,0.06943185,9.80665,-0.12210429,-0.045489833,0.3878607,-0.004375482,0.008123716,0.67487216,2017-10-26 08:03:22,70.00430761280116
-0.30166942,0.019153614,10.151415,0.0109083075,-0.004363323,0.0021816615,23.039999,-0.15801731,0.062249243,9.80665,-0.1436521,-0.04309563,0.34476504,-0.0043581463,0.0076683853,0.67506844,2017-10-26 08:03:23,62.37845324575978
-0.20111294,0.06703765,10.060435,-0.0021816615,0.0021816615,0.019634955,21.76,-0.16519992,0.05267244,9.80665,-0.035913024,0.01436521,0.25378537,-0.004940085,0.0076563144,0.6753587,2017-10-26 08:03:24,57.25929323618402
-0.14844051,-0.019153614,10.132261,0.008726646,0.01308997,0.009817477,21.76,-0.15562311,0.04070143,9.80665,0.007182605,-0.059855044,0.32561144,-0.004996272,0.0068757655,0.675266,2017-10-26 08:03:25,65.55427098916789
-0.17717093,-0.04309563,10.184934,0.006544985,0.017453292,0.0032724924,23.039999,-0.1412579,0.033518825,9.80665,-0.035913024,-0.076614454,0.37828386,-0.0047887536,0.0061397487,0.67567974,2017-10-26 08:03:26,68.94809019504781
-0.33039984,0.0,10.0748005,-0.0021816615,0.0032724924,-0.0021816615,21.76,-0.14844051,0.02873042,9.80665,-0.18195933,-0.02873042,0.2681506,-0.0051675607,0.006266144,0.6752894,2017-10-26 08:03:27,43.799361014027696
-0.36870706,0.095768064,10.232818,0.0010908308,0.017453292,0.0054541538,24.32,-0.17238252,0.02633622,9.80665,-0.19632454,0.06943185,0.4261679,-0.006059275,0.007157037,0.6753009,2017-10-26 08:03:28,58.73719899537428
-0.22505496,0.0,10.213664,-0.011999139,-0.0109083075,0.01308997,21.76,-0.1316811,0.0023942017,9.80665,-0.093373865,-0.0023942017,0.40701428,-0.0057108244,0.004882971,0.6750224,2017-10-26 08:03:29,64.74820467719071
-0.17238252,0.05746084,10.170568,0.008726646,-0.018544123,0.0054541538,25.599998,-0.1316811,-0.016759412,9.80665,-0.04070143,0.074220255,0.36391866,-0.006366537,0.004284613,0.6755559,2017-10-26 08:03:30,54.671121594313554
-0.23463176,-0.038307227,10.151415,0.0054541538,-0.0021816615,-0.0021816615,24.32,-0.1316811,-0.04070143,9.80665,-0.10295067,0.0023942017,0.34476504,-0.0072914036,0.003649027,0.6754663,2017-10-26 08:03:31,56.10512119815848
-0.24899697,-0.04309563,10.160992,-0.004363323,0.0032724924,-0.004363323,21.76,-0.1316811,-0.04309563,9.80665,-0.11731588,0.0,0.35434186,-0.0073421337,0.003716926,0.6764966,2017-10-26 08:03:32,41.85558090024912
-0.2681506,0.07182605,10.084377,0.011999139,0.025089107,0.009817477,21.76,-0.1388637,-0.047884032,9.80665,-0.12928689,0.11971009,0.2777274,-0.007858664,0.003963476,0.6770112,2017-10-26 08:03:33,52.88580466803402
-0.2825158,0.04309563,10.280702,-0.0010908308,-0.015271631,0.008726646,21.76,-0.12210429,-0.05267244,9.80665,-0.1604115,0.095768064,0.47405192,-0.007383938,0.0033004424,0.6778368,2017-10-26 08:03:34,59.362922842750095
-0.2633622,0.0047884034,10.089166,0.0109083075,-0.0076358155,-0.0141808,23.039999,-0.11971009,-0.062249243,9.80665,-0.1436521,0.06703765,0.2825158,-0.007608141,0.0030742008,0.67793417,2017-10-26 08:03:35,61.24898094752324
-0.1340753,0.023942016,10.1226845,-0.0032724924,-0.016362462,0.0021816615,24.32,-0.11252748,-0.06703765,9.80665,-0.021547815,0.090979666,0.31603462,-0.0075408975,0.0028081788,0.67880124,2017-10-26 08:03:36,67.18597993421893
-0.33039984,0.0,9.9550905,0.0,0.038179077,0.0109083075,21.76,-0.11731588,-0.079008654,9.80665,-0.21308395,0.079008654,0.14844051,-0.008083429,0.0027611246,0.6784705,2017-10-26 08:03:37,58.31092071414155
-0.2777274,0.090979666,10.213664,-0.0010908308,-0.0076358155,-0.0141808,21.76,-0.12928689,-0.08619126,9.80665,-0.14844051,0.17717093,0.40701428,-0.008723019,0.0031490196,0.677709,2017-10-26 08:03:38,69.00186344550495
-0.2825158,-0.07182605,10.237606,0.015271631,-0.006544985,-0.004363323,23.039999,-0.107739076,-0.07182605,9.80665,-0.17477672,0.0,0.4309563,-0.0074085873,0.0030491892,0.6771437,2017-10-26 08:03:39,64.87525836935988
-0.23463176,-0.02873042,10.180145,-0.006544985,0.020725785,0.008726646,24.32,-0.10055647,-0.055066638,9.80665,-0.1340753,0.02633622,0.37349546,-0.0065780757,0.0036149556,0.67653763,2017-10-26 08:03:40,65.04344516204053
-0.19153613,-0.033518825,10.151415,0.0010908308,-0.0010908308,0.0021816615,23.039999,-0.09816227,-0.059855044,9.80665,-0.093373865,0.02633622,0.34476504,-0.0067397384,0.0035539074,0.6758342,2017-10-26 08:03:41,59.45847378910024
-0.23942018,0.06703765,10.160992,-0.011999139,-0.0054541538,0.015271631,23.039999,-0.088585466,-0.055066638,9.80665,-0.15083471,0.12210429,0.35434186,-0.0062402664,0.003510289,0.6760348,2017-10-26 08:03:42,56.44323711817556
-0.1436521,-0.019153614,10.237606,0.008726646,0.023998277,0.0,21.76,-0.076614454,-0.06943185,9.80665,-0.06703765,0.050278235,0.4309563,-0.0064574303,0.0027654022,0.67497635,2017-10-26 08:03:43,58.08762530699224
-0.20111294,0.08619126,10.180145,-0.0021816615,-0.0032724924,0.0021816615,23.039999,-0.06464344,-0.06464344,9.80665,-0.1364695,0.15083471,0.37349546,-0.0059772637,0.0027015135,0.67405236,2017-10-26 08:03:44,67.56815252468246
-0.22026655,-0.019153614,10.275913,0.0032724924,-0.0021816615,0.0010908308,23.039999,-0.05746084,-0.06464344,9.80665,-0.16280572,0.045489833,0.46926352,-0.0057747466,0.0027425895,0.6741031,2017-10-26 08:03:46,45.58598970830359
-0.22505496,-0.090979666,10.232818,0.004363323,0.0141808,0.004363323,23.039999,-0.02873042,-0.08379706,9.80665,-0.19632454,-0.007182605,0.4261679,-0.005599891,0.0011964832,0.67420256,2017-10-26 08:03:47,56.94559599731822
-0.19632454,-0.04309563,10.180145,-0.015271631,0.020725785,-0.009817477,23.039999,-0.031124622,-0.107739076,9.80665,-0.16519992,0.06464344,0.37349546,-0.0067439163,8.4217545E-4,0.6747795,2017-10-26 08:03:48,57.639493954133556
-0.1340753,-0.08140286,10.386047,0.0010908308,-0.0054541538,-0.0109083075,21.76,-0.035913024,-0.107739076,9.80665,-0.09816227,0.02633622,0.5793968,-0.0069566434,0.0014132252,0.67380726,2017-10-26 08:03:49,35.347211984727934
-0.16759412,-0.0047884034,10.189722,0.0054541538,0.0032724924,-0.0109083075,23.039999,-0.04309563,-0.10534488,9.80665,-0.12449849,0.10055647,0.38307226,-0.007183131,0.002049909,0.6744686,2017-10-26 08:03:50,50.48702555656305
-0.19153613,-0.16280572,10.299856,-0.006544985,0.004363323,-0.004363323,23.039999,-0.01436521,-0.10534488,9.80665,-0.17717093,-0.05746084,0.49320555,-0.0063002445,0.0011923909,0.67404866,2017-10-26 08:03:51,61.90976223591775
-0.32561144,-0.047884032,10.295067,-0.006544985,-0.0141808,0.009817477,21.76,0.011971008,-0.110133275,9.80665,-0.33758244,0.062249243,0.48841715,-0.005654257,4.0822756E-4,0.67301834,2017-10-26 08:03:52,34.45197348122525
-0.21068975,0.0,10.160992,0.0,0.0,0.0032724924,21.76,0.019153614,-0.11731588,9.80665,-0.22984336,0.11731588,0.35434186,-0.0056569157,2.6564952E-4,0.6723523,2017-10-26 08:03:53,60.587748070253454
-0.2633622,-0.01436521,10.089166,0.0141808,0.004363323,0.0010908308,21.76,0.038307227,-0.12210429,9.80665,-0.30166942,0.107739076,0.2825158,-0.005378782,-2.4329126E-4,0.6716627,2017-10-26 08:03:54,51.138908579648074
-0.1436521,-0.009576807,10.180145,0.0,0.019634955,-0.004363323,24.32,0.033518825,-0.12449849,9.80665,-0.17717093,0.11492168,0.37349546,-0.0057388246,2.759425E-4,0.6720341,2017-10-26 08:03:55,38.44188948412222
-0.1388637,-0.095768064,10.204087,0.0,-0.0054541538,-0.0010908308,21.76,0.031124622,-0.12210429,9.80665,-0.16998832,0.02633622,0.39743748,-0.0057595847,8.5612293E-4,0.6721185,2017-10-26 08:03:56,40.53296916954174
-0.2681506,0.12449849,10.251971,-0.0054541538,0.009817477,-0.008726646,21.76,0.023942016,-0.12928689,9.80665,-0.29209262,0.25378537,0.44532153,-0.0064189527,0.0011949483,0.67236906,2017-10-26 08:03:57,41.32424700491069
-0.30645782,-0.05267244,10.223241,0.0,-0.01308997,-0.008726646,21.76,0.01436521,-0.1340753,9.80665,-0.320823,0.08140286,0.4165911,-0.007011432,0.0016617505,0.6722195,2017-10-26 08:03:58,53.05630638352902
-0.22026655,0.047884032,10.146626,0.0109083075,-0.0021816615,0.0032724924,23.039999,0.007182605,-0.1364695,9.80665,-0.22744916,0.18435353,0.33997664,-0.007281799,0.0021605045,0.6721178,2017-10-26 08:03:59,63.6591461993709
-0.320823,-0.11971009,10.275913,0.004363323,0.0,-0.004363323,23.039999,0.009576807,-0.1388637,9.80665,-0.33039984,0.019153614,0.46926352,-0.0072655687,0.0021574954,0.6728908,2017-10-26 08:04:00,59.58302054842622
-0.16280572,-0.0047884034,10.28549,0.009817477,-0.015271631,-0.017453292,24.32,0.04070143,-0.15083471,9.80665,-0.20350714,0.14604631,0.47884035,-0.006743815,7.801214E-4,0.67203206,2017-10-26 08:04:01,63.2453956936902
-0.19632454,0.023942016,10.156203,0.0,-0.015271631,0.0032724924,21.76,0.038307227,-0.16280572,9.80665,-0.23463176,0.18674773,0.34955344,-0.007211921,8.026846E-4,0.6725415,2017-10-26 08:04:02,62.327233196282876
-0.22505496,0.023942016,10.333375,0.011999139,0.0021816615,0.0032724924,23.039999,0.01436521,-0.15083471,9.80665,-0.23942018,0.17477672,0.5267244,-0.0076111676,0.0024363538,0.673213,2017-10-26 08:04:03,64.63033636802352
-0.24899697,-0.07182605,10.170568,0.008726646,-0.0032724924,-0.0054541538,23.039999,0.016759412,-0.14844051,9.80665,-0.2657564,0.076614454,0.36391866,-0.007399195,0.0026284251,0.6735958,2017-10-26 08:04:04,69.72415896564206
-0.32561144,-0.009576807,10.223241,0.0021816615,-0.0021816615,0.006544985,23.039999,-0.009576807,-0.12928689,9.80665,-0.31603462,0.11971009,0.4165911,-0.0076709064,0.0043981103,0.6739984,2017-10-26 08:04:05,31.88601146243094
-0.20590134,-0.009576807,10.271125,-0.0032724924,0.008726646,0.011999139,23.039999,-0.011971008,-0.11731588,9.80665,-0.19393034,0.107739076,0.46447513,-0.007311457,0.004954798,0.67359334,2017-10-26 08:04:06,65.41500800026627
-0.19632454,-0.038307227,10.0748005,-0.008726646,-0.0021816615,0.0,21.76,-0.033518825,-0.095768064,9.80665,-0.16280572,0.05746084,0.2681506,-0.007180415,0.00643929,0.6735007,2017-10-26 08:04:07,69.32833064453378
-0.25378537,0.038307227,10.170568,-0.0021816615,0.0076358155,-0.0021816615,23.039999,-0.04070143,-0.107739076,9.80665,-0.21308395,0.14604631,0.36391866,-0.00788565,0.00622785,0.67374617,2017-10-26 08:04:08,57.629361738584976
-0.19153613,-0.07182605,10.247183,0.008726646,0.0032724924,0.0076358155,24.32,-0.011971008,-0.09816227,9.80665,-0.17956513,0.02633622,0.4405331,-0.0066102995,0.0054384796,0.6736523,2017-10-26 08:04:09,63.5986619686137
-0.20590134,0.019153614,10.16578,0.02727077,-0.0076358155,-0.009817477,23.039999,-0.007182605,-0.107739076,9.80665,-0.19871874,0.12689269,0.35913026,-0.006819808,0.0050230743,0.6735066,2017-10-26 08:04:10,66.64318028950919
-0.272939,0.07182605,10.16578,-0.0141808,0.018544123,0.0010908308,23.039999,0.0023942017,-0.10295067,9.80665,-0.2753332,0.17477672,0.35913026,-0.0064631663,0.004857135,0.6726268,2017-10-26 08:04:11,62.63763809813723
-0.23942018,0.08140286,10.228029,-0.0076358155,0.006544985,0.016362462,21.76,0.007182605,-0.11731588,9.80665,-0.24660277,0.19871874,0.4213795,-0.006864452,0.0043023396,0.67155224,2017-10-26 08:04:12,49.65239385494533
-0.08619126,-0.038307227,10.04607,-0.0010908308,0.004363323,0.0032724924,23.039999,-0.0023942017,-0.1388637,9.80665,-0.08379706,0.10055647,0.23942018,-0.008048246,0.0040375944,0.6712614,2017-10-26 08:04:13,60.21442092798508
-0.16280572,-0.02873042,10.1226845,-0.006544985,-0.0032724924,0.006544985,24.32,0.01436521,-0.1388637,9.80665,-0.17717093,0.110133275,0.31603462,-0.007403774,0.003476033,0.6711124,2017-10-26 08:04:14,70.62317651237231
-0.24420857,-0.023942016,10.060435,-0.0021816615,-0.006544985,0.0021816615,21.76,0.016759412,-0.1388637,9.80665,-0.260968,0.11492168,0.25378537,-0.007295546,0.0035181,0.6715085,2017-10-26 08:04:15,70.73297187202012
-0.25378537,0.01436521,10.089166,0.0021816615,0.011999139,0.004363323,24.32,0.04309563,-0.11731588,9.80665,-0.29688102,0.1316811,0.2825158,-0.0057943296,0.0034064865,0.67103785,2017-10-26 08:04:16,70.70336461285692
-0.25378537,-0.1388637,10.079589,-0.008726646,0.034906585,0.0032724924,21.76,0.009576807,-0.14844051,9.80665,-0.2633622,0.009576807,0.272939,-0.00807346,0.0038254159,0.671188,2017-10-26 08:04:17,66.82822345639259
-0.21068975,0.047884032,10.184934,-0.011999139,-0.004363323,-0.011999139,21.76,0.016759412,-0.16998832,9.80665,-0.22744916,0.21787235,0.37828386,-0.008520726,0.0029910514,0.67094505,2017-10-26 08:04:18,68.68679156415723
-0.272939,0.019153614,10.237606,0.0,0.0021816615,0.0032724924,23.039999,0.06703765,-0.17477672,9.80665,-0.33997664,0.19393034,0.4309563,-0.0069726342,0.0010800818,0.6712903,2017-10-26 08:04:19,59.60514849885158
-0.20590134,-0.08140286,10.232818,-0.0010908308,0.01308997,-0.023998277,23.039999,0.050278235,-0.18674773,9.80665,-0.25617957,0.10534488,0.4261679,-0.008032566,0.0017460342,0.67075056,2017-10-26 08:04:20,68.27622610504943
-0.24899697,0.08619126,10.189722,-0.0076358155,0.019634955,-0.01308997,23.039999,0.023942016,-0.20829555,9.80665,-0.272939,0.29448682,0.38307226,-0.009611033,0.0022371681,0.67026925,2017-10-26 08:04:21,62.0311760920242
-0.25857377,-0.04309563,10.218452,0.004363323,-0.0054541538,0.0032724924,21.76,0.009576807,-0.20590134,9.80665,-0.2681506,0.16280572,0.41180268,-0.009882655,0.0031047352,0.670297,2017-10-26 08:04:22,60.541978157336054
-0.14844051,0.009576807,10.022128,-0.0021816615,-0.0010908308,-0.004363323,23.039999,0.0047884034,-0.19393034,9.80665,-0.15322891,0.20350714,0.21547815,-0.009337768,0.0037799682,0.6701057,2017-10-26 08:04:23,54.715403069572154
-0.19632454,0.023942016,10.0508585,0.0032724924,0.0076358155,-0.004363323,21.76,-0.031124622,-0.19871874,9.80665,-0.16519992,0.22266077,0.24420857,-0.010625102,0.0050509106,0.6689318,2017-10-26 08:04:24,64.18338922414739
-0.34476504,0.11971009,10.089166,-0.016362462,-0.004363323,0.011999139,21.76,-0.0023942017,-0.21547815,9.8042555,-0.34237084,0.33518824,0.28491,-0.009985881,0.0034688218,0.66884226,2017-10-26 08:04:25,62.44853730087137
-0.1340753,-0.0047884034,10.304645,0.0,-0.0109083075,0.008726646,23.039999,0.019153614,-0.20590134,9.80665,-0.15322891,0.20111294,0.49799395,-0.008774361,0.003301424,0.6679953,2017-10-26 08:04:26,68.3178248057211
-0.20111294,0.0,9.92636,-0.0054541538,-0.008726646,-0.0076358155,21.76,0.0047884034,-0.19632454,9.80665,-0.20590134,0.19632454,0.11971009,-0.008785808,0.004280055,0.6681178,2017-10-26 08:04:27,64.7802175072101
-0.18195933,-0.023942016,10.180145,-0.006544985,-0.009817477,0.0054541538,23.039999,0.0023942017,-0.21787235,9.8042555,-0.18435353,0.19393034,0.37588966,-0.009550989,0.0037513003,0.66850644,2017-10-26 08:04:28,62.67131070080637
-0.23942018,-0.02873042,10.04607,-0.006544985,0.031634092,-0.0054541538,23.039999,0.0,-0.21787235,9.8042555,-0.23942018,0.18914193,0.24181437,-0.009572966,0.0040279273,0.6690623,2017-10-26 08:04:29,66.62044709713017
-0.1340753,0.033518825,10.151415,0.006544985,-0.0032724924,0.018544123,21.76,0.009576807,-0.22984336,9.8042555,-0.1436521,0.2633622,0.34715924,-0.009524643,0.003414262,0.6681606,2017-10-26 08:04:30,67.97725370578065
-0.15801731,-0.02873042,10.036493,-0.008726646,-0.0021816615,-0.006544985,21.76,-0.0047884034,-0.22984336,9.8042555,-0.15322891,0.20111294,0.23223756,-0.009933721,0.0040605282,0.6682175,2017-10-26 08:04:31,65.33074124597103
-0.22984336,-0.01436521,10.0748005,0.016362462,0.006544985,0.0,21.76,-0.016759412,-0.25139117,9.8042555,-0.21308395,0.23702596,0.2705448,-0.010832839,0.0038771145,0.6676814,2017-10-26 08:04:33,54.95727982818287
-0.16280572,0.038307227,10.055647,0.0054541538,0.0032724924,0.0010908308,23.039999,-0.011971008,-0.24660277,9.8042555,-0.15083471,0.28491,0.25139117,-0.01034385,0.0039511817,0.6675956,2017-10-26 08:04:34,58.9664475994871
-0.21547815,-0.12449849,10.108319,0.0076358155,-0.011999139,0.015271631,23.68,0.02633622,-0.23223756,9.8042555,-0.24181437,0.107739076,0.30406362,-0.008350557,0.0031537628,0.6674073,2017-10-26 08:04:35,61.25227333035424
-0.23942018,0.05746084,10.304645,-0.006544985,0.025089107,0.004363323,22.4,0.031124622,-0.23223756,9.8042555,-0.2705448,0.2896984,0.50038815,-0.008180549,0.0032660682,0.66727686,2017-10-26 08:04:36,60.842147353882574
-0.29688102,0.05267244,10.0987425,0.009817477,0.004363323,-0.0054541538,22.4,0.031124622,-0.23702596,9.8042555,-0.32800564,0.2896984,0.29448682,-0.008293521,0.0032032384,0.6672872,2017-10-26 08:04:37,59.99236361836217
-0.23942018,-0.009576807,10.19451,0.0021816615,0.015271631,0.009817477,24.96,0.007182605,-0.23463176,9.8042555,-0.24660277,0.22505496,0.39025488,-0.008990495,0.0043811826,0.6674062,2017-10-26 08:04:38,72.00077973048234
-0.22505496,-0.10055647,9.907207,0.0054541538,-0.032724924,-0.01308997,23.68,-0.04070143,-0.22505496,9.8042555,-0.18435353,0.12449849,0.10295067,-0.009976536,0.0064402353,0.6678959,2017-10-26 08:04:39,69.72079244872052
-0.22505496,0.0047884034,10.108319,-0.009817477,0.0109083075,0.008726646,23.68,-0.05746084,-0.21308395,9.8042555,-0.16759412,0.21787235,0.30406362,-0.009983994,0.007454953,0.66814566,2017-10-26 08:04:40,57.90078742619727
-0.24420857,0.076614454,10.247183,-0.0010908308,-0.015271631,-0.018544123,21.119999,-0.047884032,-0.20590134,9.80665,-0.19632454,0.2825158,0.4405331,-0.009246027,0.007190888,0.6677219,2017-10-26 08:04:41,65.65507642047382
-0.20590134,-0.0047884034,10.141838,0.0010908308,-0.006544985,-0.01308997,22.4,-0.06943185,-0.21787235,9.8042555,-0.1364695,0.21308395,0.33758244,-0.010235641,0.0074212635,0.6677223,2017-10-26 08:04:42,31.935198247976476
-0.22984336,-0.076614454,10.213664,0.006544985,0.0032724924,0.0,23.68,-0.08140286,-0.20350714,9.8042555,-0.14844051,0.12689269,0.40940848,-0.00989756,0.008178363,0.66744673,2017-10-26 08:04:43,41.74967245000278
-0.18674773,0.090979666,10.208876,0.0021816615,-0.0032724924,-0.004363323,23.68,-0.074220255,-0.22026655,9.8042555,-0.11252748,0.31124622,0.40462008,-0.010157589,0.007293633,0.66790056,2017-10-26 08:04:44,51.64348440310816
-0.15801731,0.02873042,10.213664,-0.008726646,0.020725785,0.03926991,23.68,-0.076614454,-0.22266077,9.8042555,-0.08140286,0.25139117,0.40940848,-0.010063179,0.0071573844,0.6682556,2017-10-26 08:04:45,58.402970908358576
-0.2633622,-0.023942016,10.093954,0.0,0.0021816615,0.011999139,21.119999,-0.059855044,-0.22505496,9.8042555,-0.20350714,0.20111294,0.2896984,-0.009395396,0.006421524,0.66821235,2017-10-26 08:04:46,52.252098939858776
-0.2825158,0.01436521,10.160992,-0.0010908308,-0.02617994,-0.006544985,22.4,-0.08619126,-0.23223756,9.8042555,-0.19632454,0.24660277,0.35673606,-0.010436529,0.0070757596,0.6679696,2017-10-26 08:04:47,61.30095268813969
-0.17717093,-0.095768064,10.1226845,-0.004363323,-0.004363323,-0.0109083075,23.68,-0.090979666,-0.23942018,9.8042555,-0.08619126,0.1436521,0.3184288,-0.010651097,0.00694054,0.6679249,2017-10-26 08:04:48,65.43462199561134
-0.24899697,-0.04309563,10.13705,0.0,0.008726646,-0.009817477,22.4,-0.06943185,-0.22984336,9.8042555,-0.17956513,0.18674773,0.33279404,-0.009452129,0.006394715,0.6673149,2017-10-26 08:04:49,55.412227859096895
-0.15322891,0.023942016,10.180145,0.0010908308,0.0010908308,0.02727077,23.68,-0.055066638,-0.24181437,9.8042555,-0.09816227,0.2657564,0.37588966,-0.009262303,0.0054478394,0.66740483,2017-10-26 08:04:50,50.905049524427184
-0.1388637,-0.019153614,10.184934,0.0054541538,-0.0010908308,0.0109083075,21.119999,-0.04309563,-0.23463176,9.8042555,-0.095768064,0.21547815,0.38067806,-0.008501938,0.0053022876,0.6677062,2017-10-26 08:04:51,56.85378916217209
-0.24899697,0.033518825,10.070012,0.004363323,-0.0054541538,0.0010908308,23.68,-0.038307227,-0.22984336,9.8042555,-0.21068975,0.2633622,0.2657564,-0.008091163,0.005411758,0.66737247,2017-10-26 08:04:52,48.40117577298953
-0.19153613,-0.05267244,10.232818,0.004363323,0.015271631,0.009817477,23.68,-0.04070143,-0.22984336,9.8042555,-0.15083471,0.17717093,0.4285621,-0.008182405,0.005549619,0.66761816,2017-10-26 08:04:53,57.80736579960963
-0.20590134,-0.14844051,10.184934,-0.0032724924,0.0141808,0.0021816615,23.68,-0.05746084,-0.23223756,9.8042555,-0.14844051,0.08379706,0.38067806,-0.008752231,0.006093122,0.66798496,2017-10-26 08:04:54,53.14093015216297
-0.20590134,-0.033518825,10.146626,-0.0021816615,0.011999139,-0.0021816615,21.119999,-0.02633622,-0.24181437,9.8042555,-0.17956513,0.20829555,0.34237084,-0.008085044,0.0046753576,0.66778946,2017-10-26 08:04:55,55.097079043393286
-0.2633622,0.04309563,10.079589,0.004363323,0.021816615,0.004363323,23.68,-0.02633622,-0.24660277,9.8042555,-0.23702596,0.2896984,0.2753332,-0.008236473,0.0046634097,0.6683947,2017-10-26 08:04:56,45.15039728263797
-0.22026655,0.009576807,9.988609,0.01308997,-0.02727077,-0.0010908308,23.68,-0.02873042,-0.25139117,9.8042555,-0.19153613,0.260968,0.18435353,-0.008378375,0.00474084,0.66793424,2017-10-26 08:04:57,55.42903799386078
-0.23463176,-0.033518825,10.0029745,0.0109083075,-0.0109083075,-0.0076358155,22.4,-0.031124622,-0.24420857,9.8042555,-0.20350714,0.21068975,0.19871874,-0.008226508,0.0051113395,0.6673177,2017-10-26 08:04:58,55.00776253544069
-0.23942018,-0.04309563,9.993398,0.0010908308,-0.004363323,0.0109083075,24.96,-0.031124622,-0.24899697,9.8042555,-0.20829555,0.20590134,0.18914193,-0.008341743,0.0050841896,0.66745955,2017-10-26 08:04:59,63.35471465597977
-0.2633622,0.033518825,10.19451,-0.0109083075,0.006544985,0.021816615,23.68,-0.0023942017,-0.24660277,9.8042555,-0.260968,0.2801216,0.39025488,-0.007297827,0.004303585,0.66695905,2017-10-26 08:05:00,67.72521963973992
-0.23463176,0.0047884034,10.242394,-0.009817477,-0.011999139,-0.006544985,24.96,-0.021547815,-0.25378537,9.8042555,-0.21308395,0.25857377,0.4381389,-0.008226082,0.0048727114,0.6681023,2017-10-26 08:05:01,70.78397913662698
-0.2633622,-0.009576807,10.299856,0.0,-0.004363323,-0.0054541538,22.4,0.01436521,-0.24899697,9.8042555,-0.2777274,0.23942018,0.49559975,-0.0069059813,0.0036970451,0.66761607,2017-10-26 08:05:02,53.07046224017074
-0.22026655,-0.08619126,10.223241,-0.0010908308,-0.01308997,-0.0141808,24.96,-0.007182605,-0.24660277,9.8042555,-0.21308395,0.1604115,0.4189853,-0.0076721124,0.004784678,0.66739374,2017-10-26 08:05:03,59.755959591802615
-0.17238252,-0.07182605,10.1226845,-0.0076358155,0.009817477,0.011999139,24.96,-0.05746084,-0.2633622,9.8042555,-0.11492168,0.19153613,0.3184288,-0.0099241175,0.0062700054,0.6676717,2017-10-26 08:05:04,64.00938740320542
-0.23463176,-0.033518825,10.184934,-0.008726646,-0.0032724924,-0.006544985,23.68,-0.059855044,-0.260968,9.8042555,-0.17477672,0.22744916,0.38067806,-0.009894308,0.006375936,0.6683042,2017-10-26 08:05:05,65.13754416997494
-0.21547815,-0.009576807,10.103531,0.0054541538,-0.008726646,-0.006544985,23.68,-0.07182605,-0.2777274,9.8042555,-0.1436521,0.2681506,0.29927522,-0.010704365,0.0061918804,0.6681722,2017-10-26 08:05:06,45.54388108153128
-0.2825158,-0.08619126,10.199299,0.008726646,-0.018544123,-0.0021816615,23.68,-0.110133275,-0.28491,9.801862,-0.17238252,0.19871874,0.39743748,-0.01198625,0.007279245,0.6686468,2017-10-26 08:05:07,48.397650990750236
-0.22026655,0.019153614,10.132261,0.008726646,-0.019634955,-0.004363323,23.68,-0.095768064,-0.2825158,9.8042555,-0.12449849,0.30166942,0.32800564,-0.011070456,0.0067563867,0.6686513,2017-10-26 08:05:08,47.13044232718182
-0.19153613,-0.062249243,10.295067,0.0,0.0054541538,0.0076358155,23.68,-0.11492168,-0.30406362,9.801862,-0.076614454,0.24181437,0.49320555,-0.012282303,0.006666703,0.66836613,2017-10-26 08:05:09,65.00404450706358
-0.16759412,-0.10534488,10.13705,0.0,-0.025089107,-0.0032724924,22.4,-0.093373865,-0.29927522,9.801862,-0.074220255,0.19393034,0.33518824,-0.011101339,0.0060159955,0.6680767,2017-10-26 08:05:10,66.18215458166809
-0.15322891,-0.05746084,10.204087,-0.0141808,-0.0032724924,-0.009817477,21.119999,-0.079008654,-0.29688102,9.801862,-0.074220255,0.23942018,0.40222588,-0.010263434,0.005403855,0.66882265,2017-10-26 08:05:11,58.82474095606281
-0.30645782,-0.033518825,10.1226845,-0.004363323,-0.017453292,-0.0010908308,23.68,-0.047884032,-0.31124622,9.801862,-0.25857377,0.2777274,0.320823,-0.009625755,0.0039815307,0.6683459,2017-10-26 08:05:12,61.39017529760339
-0.22026655,-0.04309563,9.9550905,0.015271631,-0.019634955,-0.016362462,22.4,-0.023942016,-0.31603462,9.801862,-0.19632454,0.272939,0.15322891,-0.008896619,0.003063864,0.66766346,2017-10-26 08:05:13,57.760671327905364
-0.2873042,-0.01436521,10.070012,-0.0109083075,0.0076358155,0.008726646,29.439999,-0.0047884034,-0.33039984,9.801862,-0.2825158,0.31603462,0.2681506,-0.008809097,0.0021949224,0.6681095,2017-10-26 08:05:14,44.84314545483681
-0.24420857,-0.01436521,10.204087,-0.0109083075,-0.011999139,0.0010908308,29.439999,-0.01436521,-0.33758244,9.801862,-0.22984336,0.32321724,0.40222588,-0.009313893,0.0025649173,0.6682452,2017-10-26 08:05:15,61.90506336118492
-0.24420857,-0.04309563,10.151415,0.0021816615,0.004363323,-0.004363323,26.88,0.04070143,-0.33997664,9.801862,-0.28491,0.29688102,0.34955344,-0.0075183306,8.183792E-4,0.6682701,2017-10-26 08:05:16,63.20481430414326
-0.24420857,-0.12449849,10.0748005,0.0,-0.02617994,0.0021816615,30.08,0.021547815,-0.34955344,9.801862,-0.2657564,0.22505496,0.272939,-0.00846109,0.0015991209,0.6678184,2017-10-26 08:05:17,65.09188686957471
-0.21547815,-0.1340753,10.208876,0.0021816615,0.0141808,0.0032724924,30.08,0.021547815,-0.35673606,9.801862,-0.23702596,0.22266077,0.40701428,-0.00880388,0.0017681364,0.66799337,2017-10-26 08:05:18,61.18483109948418
-0.21547815,-0.05267244,10.060435,0.0,0.006544985,0.033815753,28.16,-0.011971008,-0.35434186,9.801862,-0.20350714,0.30166942,0.25857377,-0.009627184,0.0033078846,0.6698626,2017-10-26 08:05:19,46.41242741214005
-0.30645782,0.047884032,10.175357,0.004363323,-0.015271631,-0.0010908308,30.08,-0.02633622,-0.34715924,9.801862,-0.2801216,0.39504328,0.37349546,-0.00975444,0.0042270822,0.6708224,2017-10-26 08:05:21,66.57220725217181
-0.2633622,0.047884032,10.25676,-0.0021816615,-0.0109083075,0.0,27.519999,-0.033518825,-0.35434186,9.801862,-0.22984336,0.40222588,0.45489833,-0.010087609,0.0043113334,0.6721588,2017-10-26 08:05:22,69.2243582570129
-0.22505496,0.04309563,10.070012,0.0054541538,-0.0021816615,-0.004363323,28.16,-0.04309563,-0.35194764,9.801862,-0.18195933,0.39504328,0.2681506,-0.010194389,0.0048763864,0.6725138,2017-10-26 08:05:23,71.07463776538006
-0.272939,-0.02873042,10.223241,0.006544985,-0.020725785,0.011999139,28.16,-0.06703765,-0.34955344,9.801862,-0.20590134,0.320823,0.4213795,-0.010607978,0.005830313,0.67324865,2017-10-26 08:05:24,67.65821578424085
-0.25378537,-0.076614454,10.266336,-0.004363323,0.019634955,-0.0010908308,26.88,-0.045489833,-0.36391866,9.801862,-0.20829555,0.2873042,0.46447513,-0.010326359,0.004559666,0.67241746,2017-10-26 08:05:25,68.76183638283736
-0.22984336,0.009576807,10.127473,-0.0054541538,0.008726646,0.018544123,30.08,-0.035913024,-0.37828386,9.799467,-0.19393034,0.3878607,0.32800564,-0.010365512,0.00385175,0.67202556,2017-10-26 08:05:26,54.57629796588934
-0.21547815,0.0,10.16578,0.0054541538,-0.0021816615,-0.009817477,28.8,-0.04309563,-0.3878607,9.799467,-0.17238252,0.3878607,0.36631286,-0.010785611,0.003938839,0.67213666,2017-10-26 08:05:27,62.23046778674043
-0.15801731,-0.05267244,10.031705,-0.0141808,0.0141808,0.011999139,29.439999,-0.04070143,-0.37349546,9.799467,-0.11731588,0.320823,0.23223756,-0.010010228,0.0044224625,0.6718855,2017-10-26 08:05:28,69.50016231050913
-0.05746084,-0.08140286,10.141838,-0.009817477,-0.020725785,-0.009817477,29.439999,-0.016759412,-0.37110126,9.801862,-0.04070143,0.2896984,0.33997664,-0.009026397,0.0037120199,0.6713251,2017-10-26 08:05:29,70.48597271923836
-0.23942018,-0.08140286,10.170568,-0.0010908308,-0.034906585,-0.019634955,26.24,-0.0047884034,-0.36391866,9.801862,-0.23463176,0.2825158,0.36870706,-0.00834815,0.003633554,0.67131805,2017-10-26 08:05:30,65.32408388258447
-0.19153613,-0.0047884034,10.151415,-0.0054541538,-0.009817477,0.0010908308,28.16,-0.019153614,-0.37828386,9.799467,-0.17238252,0.37349546,0.35194764,-0.009373518,0.003941411,0.6702742,2017-10-26 08:05:31,68.28301165008018
-0.17238252,-0.038307227,10.065224,0.0021816615,0.011999139,0.004363323,28.16,-0.031124622,-0.36870706,9.801862,-0.1412579,0.33039984,0.2633622,-0.009342624,0.004695202,0.67039484,2017-10-26 08:05:32,38.287083210531044
-0.14844051,0.023942016,10.261548,0.0054541538,-0.0010908308,0.0076358155,27.519999,-0.04070143,-0.39025488,9.799467,-0.107739076,0.4141969,0.46208093,-0.010375354,0.004441387,0.6710173,2017-10-26 08:05:33,62.37664432553913
-0.33518824,-0.04309563,10.0269165,0.0032724924,-0.021816615,0.0032724924,28.8,-0.038307227,-0.39983168,9.799467,-0.29688102,0.35673606,0.22744916,-0.010452619,0.0041808216,0.6712324,2017-10-26 08:05:34,68.28680242839758
-0.14844051,-0.02873042,10.242394,-0.0032724924,-0.0032724924,0.0054541538,35.2,-0.031124622,-0.39983168,9.799467,-0.11731588,0.37110126,0.4429273,-0.010072222,0.0040887007,0.6718523,2017-10-26 08:05:35,67.66404302897936
-0.15322891,-0.11492168,9.940725,0.0021816615,-0.0021816615,-0.0076358155,34.559998,-0.031124622,-0.39264908,9.799467,-0.12210429,0.2777274,0.1412579,-0.009597952,0.004386425,0.67290145,2017-10-26 08:05:36,68.33437064404586
-0.18674773,-0.10055647,10.031705,-0.0032724924,-0.018544123,0.006544985,33.92,-0.021547815,-0.39264908,9.799467,-0.16519992,0.29209262,0.23223756,-0.009111637,0.0039863167,0.67322165,2017-10-26 08:05:37,52.93042904664329
-0.16759412,0.02873042,10.213664,-0.0032724924,-0.019634955,0.0032724924,36.48,-0.0047884034,-0.4189853,9.799467,-0.16280572,0.44771573,0.4141969,-0.009466471,0.0027515339,0.6725971,2017-10-26 08:05:38,51.26078198259151
-0.1388637,0.076614454,10.113108,-0.009817477,-0.020725785,-0.004363323,37.12,-0.01436521,-0.4237737,9.799467,-0.12449849,0.50038815,0.31364042,-0.009781081,0.0030794814,0.67263323,2017-10-26 08:05:39,60.93164621248286
-0.30645782,-0.07182605,10.180145,-0.016362462,0.0021816615,0.006544985,34.559998,-0.033518825,-0.4309563,9.797073,-0.272939,0.35913026,0.38307226,-0.010639528,0.0036985632,0.6722711,2017-10-26 08:05:40,63.078804887468394
-0.17238252,-0.009576807,10.160992,0.0,-0.0141808,-0.0076358155,37.12,-0.007182605,-0.4429273,9.797073,-0.16519992,0.4333505,0.36391866,-0.009914156,0.0025237063,0.6722004,2017-10-26 08:05:41,63.8794538474777
-0.24899697,0.04309563,10.232818,-0.0021816615,0.0032724924,0.011999139,34.559998,-0.007182605,-0.46208093,9.797073,-0.24181437,0.50517654,0.4357447,-0.010589955,0.0021053143,0.67216235,2017-10-26 08:05:42,68.44859177227109
-0.23942018,-0.095768064,10.093954,-0.006544985,-0.004363323,-0.006544985,37.12,-0.011971008,-0.45250413,9.797073,-0.22744916,0.35673606,0.29688102,-0.010287771,0.0029034205,0.672413,2017-10-26 08:05:43,37.72066933333007
-0.15801731,-0.033518825,10.19451,-0.011999139,0.0054541538,0.009817477,34.559998,0.0023942017,-0.45250413,9.797073,-0.1604115,0.4189853,0.39743748,-0.009625891,0.002585196,0.6720623,2017-10-26 08:05:44,58.43917459149941
-0.10534488,-0.11971009,10.132261,-0.0021816615,0.004363323,0.015271631,35.84,0.023942016,-0.45489833,9.797073,-0.12928689,0.33518824,0.33518824,-0.009028694,0.0018981304,0.6711154,2017-10-26 08:05:45,60.55880922802669
-0.2681506,-0.110133275,10.19451,0.006544985,0.011999139,-0.01308997,37.76,0.011971008,-0.45729253,9.797073,-0.2801216,0.34715924,0.39743748,-0.009458387,0.0024851207,0.6717397,2017-10-26 08:05:46,58.292825160086764
-0.18674773,0.0047884034,10.04607,0.008726646,-0.006544985,-0.0010908308,33.28,0.019153614,-0.45010993,9.797073,-0.20590134,0.45489833,0.24899697,-0.008915424,0.0027696658,0.671381,2017-10-26 08:05:47,56.683250625624495
-0.19153613,-0.009576807,10.01734,-0.0010908308,-0.011999139,-0.023998277,36.48,0.009576807,-0.44532153,9.797073,-0.20111294,0.4357447,0.22026655,-0.009050945,0.0035338532,0.6709693,2017-10-26 08:05:48,45.95950532815572
-0.20111294,0.0,10.141838,0.0109083075,-0.021816615,-0.0054541538,32.0,0.031124622,-0.4381389,9.797073,-0.23223756,0.4381389,0.34476504,-0.008147899,0.003150397,0.6702575,2017-10-26 08:05:49,69.26461581390117
-0.14844051,-0.019153614,10.079589,0.0109083075,0.0109083075,0.0,31.359999,0.047884032,-0.4405331,9.797073,-0.19632454,0.4213795,0.2825158,-0.00764413,0.0027466798,0.6707026,2017-10-26 08:05:50,67.82170604893639
-0.30645782,-0.01436521,10.223241,-0.011999139,0.0054541538,0.0010908308,35.84,0.05746084,-0.45250413,9.797073,-0.36391866,0.4381389,0.4261679,-0.007794015,0.0021799095,0.67147887,2017-10-26 08:05:51,65.86148742984884
-0.16280572,0.023942016,10.299856,-0.004363323,0.008726646,0.004363323,28.16,0.05267244,-0.45489833,9.797073,-0.21547815,0.47884035,0.50278234,-0.0080937445,0.0025569964,0.67192006,2017-10-26 08:05:52,66.90090189421623
-0.33039984,-0.023942016,10.093954,-0.006544985,-0.0010908308,-0.0054541538,35.84,0.079008654,-0.44771573,9.797073,-0.40940848,0.4237737,0.29688102,-0.0071118325,0.0019864421,0.67083275,2017-10-26 08:05:53,45.29927918906186
-0.23463176,-0.05746084,10.132261,0.0076358155,-0.0141808,-0.009817477,36.48,0.06464344,-0.4261679,9.797073,-0.29927522,0.36870706,0.33518824,-0.006964068,0.0036346065,0.6706952,2017-10-26 08:05:54,65.5049700475646
-0.320823,0.02873042,10.022128,0.0076358155,0.0032724924,0.006544985,36.48,0.07182605,-0.4189853,9.799467,-0.39264908,0.44771573,0.22266077,-0.006613112,0.0037376704,0.66921294,2017-10-26 08:05:55,51.996546716226305
-0.30166942,-0.12928689,10.113108,0.0054541538,-0.0021816615,-0.0054541538,35.2,0.047884032,-0.4357447,9.797073,-0.34955344,0.30645782,0.31603462,-0.008173255,0.0042859046,0.6691103,2017-10-26 08:05:56,63.676014266278486
-0.21068975,-0.047884032,10.036493,-0.01308997,0.0021816615,0.0,36.48,0.033518825,-0.45250413,9.797073,-0.24420857,0.40462008,0.23942018,-0.009278107,0.004283769,0.6691281,2017-10-26 08:05:57,62.27112584648542
-0.22505496,-0.06703765,10.060435,0.004363323,0.009817477,0.0141808,37.76,0.021547815,-0.45489833,9.797073,-0.24660277,0.3878607,0.2633622,-0.009758074,0.0047510536,0.6691062,2017-10-26 08:05:58,64.60584300758215
-0.21547815,0.047884032,10.189722,-0.004363323,-0.0032724924,-0.004363323,33.92,0.02633622,-0.46208093,9.797073,-0.24181437,0.50996494,0.39264908,-0.009749016,0.004517339,0.6685582,2017-10-26 08:05:59,68.56915667624915
-0.16280572,0.08140286,10.113108,-0.008726646,0.02727077,-0.0021816615,33.92,0.02873042,-0.46208093,9.797073,-0.19153613,0.5434838,0.31603462,-0.009587759,0.004507458,0.66816837,2017-10-26 08:06:00,66.52143029319289
-0.33997664,0.01436521,10.323798,0.009817477,0.009817477,0.0032724924,35.84,0.050278235,-0.46447513,9.797073,-0.39025488,0.47884035,0.5267244,-0.008812081,0.0037106192,0.66800314,2017-10-26 08:06:01,65.35068108222845
-0.15801731,-0.06703765,10.299856,0.004363323,0.025089107,0.008726646,34.559998,0.033518825,-0.46926352,9.797073,-0.19153613,0.40222588,0.50278234,-0.009593409,0.004373463,0.6672973,2017-10-26 08:06:02,70.38082603921809
-0.25378537,-0.023942016,10.184934,0.0032724924,0.004363323,-0.0010908308,32.0,0.02633622,-0.46447513,9.797073,-0.2801216,0.4405331,0.3878607,-0.009601638,0.0049435524,0.6671432,2017-10-26 08:06:03,62.01553378203975
-0.29209262,-0.090979666,10.151415,0.0010908308,0.023998277,0.004363323,32.64,0.011971008,-0.47405192,9.797073,-0.30406362,0.38307226,0.35434186,-0.010293754,0.00520056,0.66678685,2017-10-26 08:06:04,50.25493843871297
-0.24899697,0.01436521,10.223241,0.0010908308,-0.01308997,-0.022907447,36.48,0.031124622,-0.47165772,9.797073,-0.2801216,0.48602295,0.4261679,-0.009402739,0.004596983,0.66664785,2017-10-26 08:06:05,38.75087229806317
-0.20111294,-0.02873042,10.242394,0.004363323,0.0,-0.006544985,32.64,0.031124622,-0.46926352,9.797073,-0.23223756,0.4405331,0.44532153,-0.009254284,0.0047984794,0.6661557,2017-10-26 08:06:06,65.80103808755959
-0.320823,-0.023942016,9.907207,-0.0054541538,-0.0109083075,-0.009817477,35.2,0.02873042,-0.47165772,9.797073,-0.34955344,0.44771573,0.110133275,-0.009404914,0.0049138656,0.66575205,2017-10-26 08:06:08,57.92821777147232
-0.11492168,0.0047884034,10.103531,0.0010908308,0.0021816615,-0.0054541538,32.64,0.05746084,-0.46208093,9.797073,-0.17238252,0.46686932,0.30645782,-0.008099528,0.0042076595,0.66535956,2017-10-26 08:06:09,62.520161047085054
-0.23942018,-0.062249243,10.0508585,0.0021816615,0.025089107,0.0032724924,33.92,0.05746084,-0.46208093,9.797073,-0.29688102,0.39983168,0.25378537,-0.008128457,0.004256456,0.6655066,2017-10-26 08:06:10,69.41779537807305
-0.20111294,0.047884032,10.13705,0.0,-0.018544123,-0.009817477,36.48,0.04070143,-0.47884035,9.797073,-0.24181437,0.5267244,0.33997664,-0.009313231,0.004436597,0.66509926,2017-10-26 08:06:11,63.517259499114985
-0.320823,-0.095768064,10.103531,0.006544985,0.006544985,0.01308997,33.28,0.045489833,-0.48123455,9.794679,-0.36631286,0.3854665,0.30885202,-0.009077296,0.004320341,0.66624486,2017-10-26 08:06:12,56.89516061242401
-0.31124622,-0.062249243,10.093954,-0.0032724924,0.008726646,0.0032724924,33.92,0.055066638,-0.48123455,9.794679,-0.36631286,0.4189853,0.29927522,-0.008789631,0.0041000815,0.66579807,2017-10-26 08:06:13,66.90315598013444
-0.110133275,-0.04309563,10.089166,0.008726646,-0.004363323,-0.01308997,33.92,0.07182605,-0.48841715,9.794679,-0.18195933,0.44532153,0.29448682,-0.008402767,0.0033009816,0.6659076,2017-10-26 08:06:14,66.66522465335935
-0.21068975,-0.038307227,10.108319,0.0141808,-0.0054541538,0.017453292,32.64,0.076614454,-0.47884035,9.794679,-0.2873042,0.4405331,0.31364042,-0.007864781,0.0035830615,0.66598344,2017-10-26 08:06:15,63.94153842381903
-0.24899697,-0.01436521,10.271125,0.006544985,-0.0032724924,-0.0021816615,34.559998,0.06464344,-0.48123455,9.794679,-0.31364042,0.46686932,0.47644615,-0.008532923,0.004108849,0.6655645,2017-10-26 08:06:16,51.107084990530396
-0.22505496,0.047884032,10.323798,-0.0076358155,0.009817477,0.008726646,35.2,0.04309563,-0.47884035,9.797073,-0.2681506,0.5267244,0.5267244,-0.009063628,0.00509407,0.6664405,2017-10-26 08:06:17,60.31091391836903
-0.2681506,-0.07182605,10.0987425,0.0,-0.022907447,0.011999139,32.64,0.047884032,-0.49559975,9.794679,-0.31603462,0.4237737,0.30406362,-0.009514021,0.0044594137,0.66551614,2017-10-26 08:06:18,32.89765878123931
-0.21547815,-0.110133275,10.132261,-0.006544985,-0.029452432,-0.01308997,32.0,0.08140286,-0.50038815,9.794679,-0.29688102,0.39025488,0.33758244,-0.0086022355,0.0032109227,0.664761,2017-10-26 08:06:19,34.1743328592228
-0.22505496,-0.019153614,10.170568,0.009817477,-0.02617994,0.006544985,34.559998,0.1340753,-0.49559975,9.794679,-0.35913026,0.47644615,0.37588966,-0.006735662,0.0017236238,0.6643431,2017-10-26 08:06:20,59.4649797038269
-0.2873042,-0.15801731,10.247183,0.0032724924,-0.0010908308,-0.0054541538,33.28,0.110133275,-0.50517654,9.794679,-0.39743748,0.34715924,0.45250413,-0.008023851,0.0026736055,0.6637612,2017-10-26 08:06:21,67.1438914118518
-0.30166942,-0.009576807,9.9550905,-0.0010908308,-0.0054541538,-0.011999139,33.92,0.090979666,-0.51954174,9.792285,-0.39264908,0.50996494,0.16280572,-0.009288855,0.0030533848,0.66251427,2017-10-26 08:06:22,33.25048162997443
-0.19153613,-0.0047884034,10.0748005,0.0,0.0021816615,0.011999139,33.92,0.076614454,-0.5267244,9.792285,-0.2681506,0.521936,0.2825158,-0.009911032,0.0036580125,0.6627109,2017-10-26 08:06:23,44.59075699189636
-0.17717093,0.0047884034,10.160992,-0.004363323,0.02617994,0.0,32.0,0.033518825,-0.5434838,9.792285,-0.21068975,0.5482722,0.36870706,-0.011652311,0.0047457376,0.66291827,2017-10-26 08:06:24,47.00168129351993
-0.30645782,0.07182605,10.170568,0.008726646,0.0032724924,0.006544985,33.28,0.055066638,-0.533907,9.792285,-0.2753332,0.48602295,0.48362875,-0.01038645,0.004300884,0.6630309,2017-10-26 08:06:25,56.89608423972138
-0.18674773,-0.1388637,10.036493,0.0010908308,0.0054541538,-0.009817477,35.2,0.055066638,-0.5243302,9.794679,-0.24181437,0.3854665,0.24181437,-0.009929474,0.0048191743,0.66226894,2017-10-26 08:06:26,46.59033603489996
-0.21068975,0.0,10.103531,0.004363323,-0.01308997,0.0076358155,32.64,0.06464344,-0.5315128,9.792285,-0.2753332,0.5315128,0.31124622,-0.009780284,0.004357191,0.6618757,2017-10-26 08:06:27,61.16479650976531
-0.21068975,-0.01436521,10.184934,0.011999139,0.006544985,-0.01308997,33.28,0.05267244,-0.5291186,9.792285,-0.2633622,0.51475334,0.39264908,-0.00996534,0.005000828,0.6631966,2017-10-26 08:06:28,67.4791813444249
-0.22984336,-0.08619126,10.117896,-0.0021816615,-0.019634955,-0.0032724924,33.92,0.07182605,-0.5410896,9.792285,-0.30166942,0.45489833,0.32561144,-0.009494768,0.0038978187,0.66404015,2017-10-26 08:06:29,63.12309196231163
-0.29209262,-0.18674773,10.1226845,0.0021816615,0.02617994,-0.0010908308,33.92,0.08140286,-0.5386954,9.792285,-0.37349546,0.35194764,0.33039984,-0.009138623,0.0038684458,0.66234034,2017-10-26 08:06:30,63.63351367031581
-0.21068975,-0.038307227,10.31901,-0.0010908308,0.0141808,-0.006544985,34.559998,0.062249243,-0.5626374,9.792285,-0.272939,0.5243302,0.5267244,-0.010583462,0.0038851742,0.66271037,2017-10-26 08:06:31,69.07958986795462
-0.25378537,-0.095768064,10.170568,0.0,-0.006544985,-0.0032724924,32.0,0.07182605,-0.5530606,9.792285,-0.32561144,0.45729253,0.37828386,-0.009684676,0.0040132534,0.66257733,2017-10-26 08:06:32,69.56351547395718
-0.23463176,-0.02873042,10.01734,-0.0010908308,-0.006544985,0.015271631,36.48,0.09816227,-0.5434838,9.792285,-0.33279404,0.51475334,0.22505496,-0.008491762,0.0035625296,0.6615704,2017-10-26 08:06:33,42.066337222858095
-0.31124622,-0.05267244,10.184934,-0.011999139,0.0054541538,0.011999139,32.64,0.107739076,-0.5410896,9.792285,-0.4189853,0.48841715,0.39264908,-0.008071998,0.0033923257,0.66163146,2017-10-26 08:06:34,36.11867794396937
-0.18195933,-0.02873042,10.184934,-0.004363323,-0.0109083075,-0.009817477,33.92,0.11252748,-0.545878,9.792285,-0.29448682,0.51714754,0.39264908,-0.0081383865,0.0033053923,0.6616303,2017-10-26 08:06:35,57.61775408263019
-0.22026655,-0.0047884034,10.223241,-0.0010908308,-0.01308997,-0.021816615,38.399998,0.12210429,-0.5363012,9.792285,-0.34237084,0.5315128,0.4309563,-0.007559565,0.003547418,0.6609657,2017-10-26 08:06:36,68.48183574503715
-0.2777274,0.0047884034,10.146626,0.0032724924,0.0054541538,0.006544985,32.0,0.12689269,-0.545878,9.792285,-0.40462008,0.5506664,0.35434186,-0.007861428,0.0032027643,0.66074044,2017-10-26 08:06:37,55.18702405814654
-0.17238252,-0.10055647,10.251971,-0.006544985,-0.019634955,-0.016362462,34.559998,0.14604631,-0.5626374,9.78989,-0.3184288,0.46208093,0.46208093,-0.007916147,0.002188676,0.6614312,2017-10-26 08:06:38,60.278503995673475
-0.22505496,-0.05267244,10.184934,-0.0109083075,0.0054541538,0.009817477,37.76,0.1604115,-0.5746084,9.78989,-0.3854665,0.521936,0.39504328,-0.007879255,0.0014790818,0.6616499,2017-10-26 08:06:39,65.45160381188532
-0.19153613,0.0,10.237606,-0.011999139,-0.016362462,-0.0054541538,31.359999,0.17717093,-0.5746084,9.78989,-0.36870706,0.5746084,0.44771573,-0.0073140403,0.001222318,0.66157895,2017-10-26 08:06:40,69.63132848072019
-0.12449849,0.009576807,10.117896,0.0054541538,-0.022907447,-0.004363323,37.12,0.15562311,-0.56982,9.78989,-0.2801216,0.5793968,0.32800564,-0.008061642,0.0025211582,0.6612948,2017-10-26 08:06:41,57.57431891485352
-0.22505496,-0.10055647,10.0029745,-0.008726646,-0.0010908308,0.008726646,33.28,0.1364695,-0.5746084,9.78989,-0.36152446,0.47405192,0.21308395,-0.008863706,0.0033197403,0.66195554,2017-10-26 08:06:42,65.58676311235159
-0.21068975,0.02873042,10.0029745,-0.016362462,0.044724062,0.006544985,33.28,0.16519992,-0.5793968,9.78989,-0.37588966,0.60812724,0.21308395,-0.00811499,0.0023934795,0.66044647,2017-10-26 08:06:43,58.37457435768674
-0.29209262,0.02873042,10.160992,0.0,-0.019634955,-0.023998277,39.04,0.18195933,-0.56982,9.78989,-0.47405192,0.59855044,0.37110126,-0.0072171874,0.0023649726,0.65972686,2017-10-26 08:06:44,61.57637244662344
-0.21547815,-0.07182605,10.108319,0.0,0.0141808,0.011999139,33.92,0.19871874,-0.5722142,9.78989,-0.4141969,0.50038815,0.3184288,-0.00689572,0.001979813,0.6593776,2017-10-26 08:06:45,57.70524826497421
-0.19632454,-0.033518825,10.213664,-0.011999139,0.021816615,0.0141808,36.48,0.18195933,-0.59376204,9.787497,-0.37828386,0.5602432,0.4261679,-0.008425759,0.0021300241,0.6589911,2017-10-26 08:06:46,57.371312674274144
-0.2777274,0.023942016,10.266336,-0.0010908308,-0.0141808,0.004363323,33.92,0.20111294,-0.60333884,9.787497,-0.47884035,0.62728083,0.47884035,-0.008212196,0.0013975604,0.6585267,2017-10-26 08:06:47,32.411061888049495
-0.19632454,0.04309563,10.041282,0.006544985,0.0010908308,0.0076358155,33.28,0.21308395,-0.60573304,9.787497,-0.40940848,0.6488287,0.25378537,-0.007758067,0.0012351805,0.65894926,2017-10-26 08:06:48,61.87351242421972
-0.17238252,-0.033518825,10.19451,0.008726646,-0.0054541538,-0.0054541538,34.559998,0.20350714,-0.61530983,9.785102,-0.37588966,0.581791,0.40940848,-0.008555764,0.0016880548,0.6595485,2017-10-26 08:06:49,57.81720673451102
-0.2825158,0.06703765,9.974244,-0.006544985,-0.01308997,-0.020725785,32.0,0.19393034,-0.61052144,9.787497,-0.47644615,0.6775591,0.18674773,-0.008679273,0.002456339,0.6592511,2017-10-26 08:06:50,53.63767210074024
-0.2633622,-0.0047884034,10.170568,-0.009817477,0.025089107,0.004363323,34.559998,0.21068975,-0.61052144,9.787497,-0.47405192,0.60573304,0.38307226,-0.008062156,0.0021762047,0.6593144,2017-10-26 08:06:51,60.92616467180511
-0.17238252,-0.095768064,10.031705,-0.0076358155,0.0010908308,0.01308997,32.64,0.19153613,-0.60573304,9.787497,-0.36391866,0.50996494,0.24420857,-0.008637851,0.0032334793,0.6590749,2017-10-26 08:06:52,59.974984880288616
-0.22026655,-0.076614454,9.9790325,0.0054541538,0.008726646,0.004363323,33.92,0.19153613,-0.61770403,9.787497,-0.41180268,0.5410896,0.19153613,-0.008967565,0.0030439636,0.65920997,2017-10-26 08:06:53,59.256480199498725
-0.32561144,0.009576807,10.141838,0.009817477,0.0032724924,0.004363323,37.76,0.19632454,-0.61530983,9.787497,-0.521936,0.62488663,0.35434186,-0.008829085,0.0031664772,0.6587472,2017-10-26 08:06:55,64.95655248420123
-0.2681506,0.08140286,10.127473,0.0032724924,-0.0021816615,0.0054541538,32.0,0.18674773,-0.61530983,9.787497,-0.45489833,0.6967127,0.33997664,-0.009054432,0.003665247,0.6596094,2017-10-26 08:06:56,69.06534044165876
-0.24420857,-0.10534488,10.170568,-0.0076358155,0.009817477,0.0010908308,33.28,0.18674773,-0.62009823,9.785102,-0.4309563,0.51475334,0.3854665,-0.009098684,0.0035883635,0.6599681,2017-10-26 08:06:57,55.30010682128085
-0.17238252,0.033518825,10.19451,-0.0032724924,0.0054541538,0.0010908308,36.48,0.19153613,-0.61770403,9.787497,-0.36391866,0.6512229,0.40701428,-0.008815421,0.003674604,0.65991056,2017-10-26 08:06:58,32.27306910464318
-0.21547815,-0.10055647,10.093954,0.0076358155,0.0076358155,-0.0010908308,33.92,0.19871874,-0.61291564,9.787497,-0.4141969,0.51235914,0.30645782,-0.008338554,0.0036848327,0.6591932,2017-10-26 08:06:59,31.338960166213774
-0.24420857,-0.08619126,10.031705,0.0,-0.025089107,0.0109083075,35.84,0.16998832,-0.61052144,9.787497,-0.4141969,0.5243302,0.24420857,-0.009141147,0.004894886,0.66004485,2017-10-26 08:07:00,52.67980680639718
-0.18195933,-0.08619126,10.117896,-0.0021816615,0.0054541538,-0.015271631,34.559998,0.19871874,-0.62967503,9.785102,-0.38067806,0.5434838,0.33279404,-0.008956196,0.003258573,0.6594568,2017-10-26 08:07:01,59.7884121220103
-0.33997664,-0.02873042,10.0508585,-0.0054541538,-0.015271631,-0.0076358155,34.559998,0.18435353,-0.61291564,9.787497,-0.5243302,0.58418524,0.2633622,-0.008717407,0.0045378963,0.6600716,2017-10-26 08:07:02,61.17895562600283
-0.16280572,0.02873042,10.261548,0.006544985,0.020725785,-0.0032724924,37.12,0.17717093,-0.61291564,9.787497,-0.33997664,0.641646,0.47405192,-0.008858159,0.004795702,0.6602111,2017-10-26 08:07:03,68.29062203243629
-0.30166942,-0.02873042,10.199299,0.004363323,0.015271631,-0.011999139,33.28,0.18435353,-0.62488663,9.785102,-0.48602295,0.59615624,0.4141969,-0.0091884155,0.0041700266,0.65968454,2017-10-26 08:07:04,64.7572954136331
-0.17717093,-0.033518825,10.28549,-0.0032724924,-0.021816615,-0.006544985,37.12,0.20111294,-0.6392518,9.785102,-0.37828386,0.60573304,0.50038815,-0.009122893,0.0033150353,0.65939575,2017-10-26 08:07:05,63.56697050554193
-0.24899697,-0.009576807,10.156203,-0.0109083075,0.031634092,0.018544123,35.84,0.19393034,-0.62728083,9.785102,-0.4429273,0.61770403,0.37110126,-0.008822944,0.0041145124,0.65894055,2017-10-26 08:07:06,68.4274482519914
-0.17238252,-0.02873042,9.988609,0.0076358155,0.0010908308,-0.0032724924,33.28,0.20590134,-0.62249243,9.785102,-0.37828386,0.59376204,0.20350714,-0.008211771,0.0038470607,0.6598341,2017-10-26 08:07:07,34.662773366819934
-0.23942018,-0.038307227,10.204087,0.0010908308,-0.008726646,0.0054541538,34.559998,0.20111294,-0.6344634,9.785102,-0.4405331,0.59615624,0.4189853,-0.008705061,0.0037570773,0.6606514,2017-10-26 08:07:08,52.82706437565837
-0.18195933,-0.08140286,10.170568,0.008726646,-0.01308997,-0.011999139,33.92,0.21068975,-0.6464345,9.785102,-0.39264908,0.5650316,0.3854665,-0.008920366,0.0032065753,0.6603886,2017-10-26 08:07:09,63.993500869525796
-0.21547815,-0.0047884034,10.103531,0.004363323,-0.0021816615,0.0054541538,33.28,0.22266077,-0.6392518,9.785102,-0.4381389,0.6344634,0.3184288,-0.008214915,0.0031309705,0.65978515,2017-10-26 08:07:10,65.29774440356047
-0.19153613,0.047884032,10.180145,-0.0076358155,-0.006544985,-0.0032724924,33.92,0.23463176,-0.6464345,9.782708,-0.4261679,0.6943185,0.39743748,-0.008109592,0.002705683,0.66026765,2017-10-26 08:07:11,64.42816963285736
-0.2825158,-0.06703765,9.959879,-0.0021816615,0.0076358155,0.019634955,33.28,0.19632454,-0.6584055,9.782708,-0.47884035,0.59136784,0.17717093,-0.009807417,0.003896311,0.660823,2017-10-26 08:07:12,66.87499299761362
-0.4213795,-0.05746084,10.295067,-0.0021816615,-0.032724924,0.006544985,33.28,0.22026655,-0.6607997,9.782708,-0.641646,0.60333884,0.51235914,-0.009079108,0.0031326655,0.65966856,2017-10-26 08:07:13,68.07336145256407
-0.18195933,-0.07182605,10.1226845,0.0010908308,-0.0032724924,-0.006544985,36.48,0.23942018,-0.6512229,9.782708,-0.4213795,0.5793968,0.33997664,-0.008071255,0.0030033663,0.6598972,2017-10-26 08:07:14,63.29704816815958
-0.29688102,-0.047884032,10.108319,-0.0021816615,0.006544985,-0.0021816615,35.2,0.25139117,-0.6512229,9.782708,-0.5482722,0.60333884,0.32561144,-0.007757687,0.002790602,0.65901244,2017-10-26 08:07:15,65.29346681011943
-0.23942018,0.06703765,10.055647,-0.008726646,-0.017453292,-0.0054541538,35.84,0.23463176,-0.6440403,9.782708,-0.47405192,0.7110779,0.272939,-0.008199953,0.0037700152,0.65841573,2017-10-26 08:07:16,59.78122625700503
-0.21547815,0.0047884034,10.175357,0.0076358155,-0.008726646,0.016362462,35.2,0.24899697,-0.6344634,9.785102,-0.46447513,0.6392518,0.39025488,-0.0073299566,0.0036081998,0.6585587,2017-10-26 08:07:17,59.45156337599204
-0.31124622,-0.033518825,10.0748005,-0.0032724924,-0.0076358155,0.004363323,35.2,0.23942018,-0.6440403,9.782708,-0.5506664,0.61052144,0.29209262,-0.008128177,0.0039102053,0.65919024,2017-10-26 08:07:18,63.499973505784254
-0.2633622,0.047884032,10.242394,0.0,-0.020725785,-0.004363323,33.28,0.22744916,-0.641646,9.785102,-0.49081135,0.6895301,0.45729253,-0.008351551,0.004559245,0.65949494,2017-10-26 08:07:19,67.81899680572297
-0.2873042,0.038307227,10.180145,0.0141808,-0.0010908308,-0.008726646,35.84,0.22984336,-0.6488287,9.782708,-0.51714754,0.6871359,0.39743748,-0.008674433,0.0042219143,0.6584738,2017-10-26 08:07:20,57.07836762249515
-0.20590134,-0.12928689,9.993398,-0.0032724924,-0.0054541538,0.0010908308,34.559998,0.23463176,-0.641646,9.785102,-0.4405331,0.51235914,0.20829555,-0.00822087,0.004458814,0.65836763,2017-10-26 08:07:21,63.50578469872364
-0.2681506,-0.05746084,10.242394,0.0021816615,0.022907447,-0.0010908308,35.2,0.25857377,-0.6488287,9.782708,-0.5267244,0.59136784,0.45968673,-0.0078026494,0.0033051474,0.6578533,2017-10-26 08:07:22,62.550207724572
-0.16759412,0.023942016,10.151415,-0.008726646,0.029452432,-0.0021816615,36.48,0.25857377,-0.6655881,9.782708,-0.4261679,0.6895301,0.36870706,-0.008512476,0.0030271085,0.65832436,2017-10-26 08:07:23,56.39078731274648
-0.24420857,0.0047884034,10.175357,0.006544985,-0.0109083075,-0.01308997,34.559998,0.24660277,-0.6823475,9.7803135,-0.49081135,0.6871359,0.39504328,-0.00947462,0.003190728,0.6582081,2017-10-26 08:07:24,63.23143275332384
-0.16280572,0.038307227,10.170568,-0.0054541538,-0.0021816615,0.006544985,33.28,0.2633622,-0.7182605,9.77792,-0.4261679,0.7565677,0.39264908,-0.010195257,0.0014948808,0.65850765,2017-10-26 08:07:25,68.54515439980501
-0.19153613,-0.110133275,10.16578,-0.0010908308,0.0109083075,0.008726646,36.48,0.2657564,-0.7254431,9.77792,-0.45729253,0.61530983,0.3878607,-0.010120362,0.0014099842,0.658955,2017-10-26 08:07:26,69.31622858932445
-0.32561144,-0.01436521,10.338163,0.0021816615,-0.006544985,0.0,33.92,0.2825158,-0.7158663,9.77792,-0.60812724,0.7015011,0.5602432,-0.0090796705,0.0014720587,0.6588648,2017-10-26 08:07:27,63.93756383069713
-0.37828386,-0.07182605,10.19451,-0.0032724924,0.01308997,0.004363323,33.92,0.30885202,-0.7326257,9.775525,-0.6871359,0.6607997,0.4189853,-0.008874007,3.0902587E-4,0.6585535,2017-10-26 08:07:28,54.10060718196093
-0.21547815,-0.02873042,10.160992,-0.0021816615,0.0054541538,0.0010908308,32.0,0.29209262,-0.7278373,9.775525,-0.50757074,0.6991069,0.3854665,-0.009203332,0.0014746562,0.6580816,2017-10-26 08:07:29,68.70264498869594
-0.22984336,-0.02873042,10.0508585,0.0,0.016362462,0.006544985,35.84,0.29209262,-0.7230489,9.775525,-0.521936,0.6943185,0.2753332,-0.008864041,0.001907926,0.65845865,2017-10-26 08:07:30,70.56419007438448
-0.272939,0.06703765,9.873688,0.006544985,-0.004363323,0.0010908308,30.72,0.2873042,-0.7302315,9.775525,-0.5602432,0.79726917,0.09816227,-0.009123335,0.002105835,0.6591196,2017-10-26 08:07:31,63.55589021550654
-0.21068975,-0.023942016,10.13705,-0.0010908308,0.018544123,-0.0032724924,29.439999,0.2873042,-0.7302315,9.775525,-0.49799395,0.7062895,0.36152446,-0.009043731,0.0022423435,0.6599091,2017-10-26 08:07:32,63.90536287549726
-0.1436521,-0.05267244,10.228029,-0.004363323,-0.008726646,-0.004363323,37.76,0.29688102,-0.7206547,9.775525,-0.4405331,0.6679823,0.45250413,-0.008372776,0.0024718763,0.6597437,2017-10-26 08:07:33,60.28094132160203
-0.24420857,0.05746084,10.084377,-0.0021816615,0.006544985,0.01308997,30.72,0.2753332,-0.7278373,9.77792,-0.51954174,0.78529817,0.30645782,-0.00920831,0.0032456946,0.66000575,2017-10-26 08:07:34,70.81096019641045
-0.22026655,0.019153614,10.19451,0.0010908308,0.0032724924,-0.0010908308,34.559998,0.29209262,-0.7038953,9.77792,-0.51235914,0.7230489,0.4165911,-0.007746733,0.0034953253,0.66034937,2017-10-26 08:07:35,66.55552221093697
-0.14844051,0.0047884034,10.070012,0.0010908308,-0.0021816615,0.0010908308,35.2,0.35434186,-0.6823475,9.77792,-0.58418524,0.581791,0.35434186,-0.005187832,0.002142747,0.659413,2017-10-26 08:07:36,69.50585921912585
-0.17717093,-0.019153614,10.175357,0.0076358155,-0.0109083075,0.0032724924,30.08,0.35194764,-0.6679823,9.77792,-0.5291186,0.6488287,0.39743748,-0.0050059427,0.002957006,0.65910137,2017-10-26 08:07:37,41.56538078044174
-0.14844051,-0.05267244,10.19451,0.0032724924,-0.0032724924,-0.0141808,36.48,0.37828386,-0.6751649,9.77792,-0.5267244,0.62249243,0.4165911,-0.004819707,0.0018726727,0.659233,2017-10-26 08:07:38,48.12124887520752
-0.20111294,-0.033518825,10.117896,0.0141808,-0.0021816615,-0.01308997,37.76,0.40701428,-0.6607997,9.77792,-0.60812724,0.62728083,0.33997664,-0.0035536168,0.001574507,0.65939283,2017-10-26 08:07:39,66.53296099879097
-0.24899697,-0.062249243,10.180145,0.0032724924,0.018544123,-0.0032724924,35.84,0.40701428,-0.6799533,9.775525,-0.6560113,0.61770403,0.40462008,-0.004573076,0.001207211,0.659817,2017-10-26 08:07:40,63.67003449061527
-0.22505496,-0.04309563,10.036493,0.0109083075,-0.0021816615,0.008726646,37.12,0.4189853,-0.6679823,9.775525,-0.6440403,0.62488663,0.260968,-0.004144133,0.0014793808,0.6593294,2017-10-26 08:07:41,66.45738847006167
-0.22026655,-0.038307227,10.19451,0.01308997,0.0,-0.004363323,37.76,0.39504328,-0.6727707,9.77792,-0.61530983,0.6344634,0.4165911,-0.0053871227,0.002620359,0.6600024,2017-10-26 08:07:42,66.40920977540917
-0.18195933,-0.0047884034,10.237606,-0.0054541538,-0.0283616,0.011999139,34.559998,0.36870706,-0.6607997,9.77792,-0.5506664,0.6560113,0.45968673,-0.0059823953,0.0041349726,0.660784,2017-10-26 08:07:44,54.270185517302714
-0.18674773,-0.01436521,10.299856,0.0010908308,-0.004363323,-0.0109083075,37.76,0.38307226,-0.6751649,9.77792,-0.56982,0.6607997,0.521936,-0.0062459083,0.0031471392,0.66052777,2017-10-26 08:07:45,50.46339171487568
-0.25378537,-0.0047884034,10.208876,-0.011999139,0.0054541538,0.0021816615,34.559998,0.37349546,-0.6727707,9.77792,-0.62728083,0.6679823,0.4309563,-0.006670582,0.0037938617,0.66033477,2017-10-26 08:07:46,67.85260561296215
-0.05746084,0.019153614,10.117896,-0.006544985,-0.006544985,0.004363323,33.28,0.3878607,-0.6703765,9.77792,-0.44532153,0.6895301,0.33997664,-0.00641066,0.0034272373,0.6596848,2017-10-26 08:07:47,61.22812622505948
-0.04309563,-0.06703765,10.13705,0.0032724924,0.0010908308,0.018544123,37.76,0.37828386,-0.6799533,9.77792,-0.4213795,0.61291564,0.35913026,-0.0071811015,0.003597483,0.65932614,2017-10-26 08:07:48,66.15194864977164
-0.25857377,-0.02873042,10.333375,0.0,0.0010908308,0.0032724924,35.2,0.39743748,-0.6607997,9.77792,-0.6560113,0.63206923,0.5554548,-0.0059429826,0.0036030728,0.6596992,2017-10-26 08:07:49,68.28479820000992
-0.12928689,0.01436521,10.117896,0.011999139,0.0,0.0021816615,32.0,0.40940848,-0.6560113,9.77792,-0.5386954,0.6703765,0.33997664,-0.0055849943,0.0034008818,0.6597033,2017-10-26 08:07:50,64.27274410457645
-0.30645782,-0.062249243,10.113108,-0.0054541538,-0.023998277,-0.0141808,34.559998,0.40940848,-0.6584055,9.77792,-0.7158663,0.59615624,0.33518824,-0.00584648,0.0034386748,0.6598496,2017-10-26 08:07:51,55.800591040596885
-0.21547815,-0.090979666,10.093954,0.0021816615,0.030543262,0.011999139,33.28,0.38067806,-0.6512229,9.77792,-0.59615624,0.5602432,0.31603462,-0.006580877,0.004816179,0.6606138,2017-10-26 08:07:52,53.97155779503244
-0.1436521,-0.11492168,10.036493,0.0021816615,0.017453292,0.0076358155,30.72,0.36870706,-0.641646,9.7803135,-0.51235914,0.5267244,0.25617957,-0.0066856984,0.0056062555,0.66148967,2017-10-26 08:07:53,62.739415137069344
-0.21068975,-0.16759412,10.204087,-0.0032724924,-0.004363323,0.008726646,35.2,0.39025488,-0.63206923,9.7803135,-0.60094464,0.46447513,0.4237737,-0.0059115905,0.0050651813,0.6607062,2017-10-26 08:07:54,47.15908918689752
-0.2633622,-0.06703765,10.295067,-0.004363323,-0.004363323,0.006544985,30.72,0.37828386,-0.6464345,9.77792,-0.641646,0.5793968,0.51714754,-0.006975226,0.0049110763,0.66078013,2017-10-26 08:07:55,62.39076347222287
-0.18674773,-0.0047884034,10.132261,-0.006544985,0.018544123,0.0076358155,37.12,0.40462008,-0.6560113,9.77792,-0.59136784,0.6512229,0.35434186,-0.0064977165,0.0036470992,0.66185623,2017-10-26 08:07:56,67.29869139411852
-0.22026655,-0.038307227,10.0987425,-0.006544985,0.016362462,-0.0109083075,29.439999,0.41180268,-0.6488287,9.77792,-0.63206923,0.61052144,0.320823,-0.0062213447,0.0037660887,0.66101694,2017-10-26 08:07:57,67.61691019857021
-0.24899697,0.04309563,10.271125,-0.011999139,0.0,0.0021816615,39.04,0.40222588,-0.6607997,9.77792,-0.6512229,0.7038953,0.49320555,-0.0072046556,0.0037901923,0.6603671,2017-10-26 08:07:58,71.40679214021455
-0.12928689,-0.019153614,10.089166,0.009817477,-0.006544985,0.009817477,33.92,0.40222588,-0.6631939,9.77792,-0.5315128,0.6440403,0.31124622,-0.007357709,0.003787906,0.66049445,2017-10-26 08:07:59,62.33199001216115
-0.2873042,0.009576807,10.146626,0.004363323,0.0010908308,0.0109083075,32.64,0.4165911,-0.6584055,9.77792,-0.7038953,0.6679823,0.36870706,-0.006840205,0.0035136295,0.6604215,2017-10-26 08:08:00,46.652585800769444
-0.19153613,-0.019153614,10.309433,0.0109083075,-0.0032724924,0.0141808,35.84,0.40701428,-0.6560113,9.77792,-0.59855044,0.6368576,0.5315128,-0.0072149467,0.0040231477,0.66003513,2017-10-26 08:08:01,51.78443683541576
-0.22984336,-0.08619126,10.132261,-0.0021816615,-0.015271631,0.0054541538,30.72,0.37349546,-0.6703765,9.77792,-0.60333884,0.58418524,0.35434186,-0.008823715,0.0049190847,0.6606997,2017-10-26 08:08:02,62.09851570396652
-0.272939,-0.06703765,10.175357,0.0,0.0032724924,0.0076358155,34.559998,0.41180268,-0.6727707,9.775525,-0.6847417,0.60573304,0.39983168,-0.007708451,0.003385622,0.6604328,2017-10-26 08:08:03,67.53500992844069
-0.21547815,-0.033518825,10.084377,0.0010908308,0.0109083075,-0.01308997,34.559998,0.4141969,-0.6775591,9.775525,-0.62967503,0.6440403,0.30885202,-0.007919289,0.0032307021,0.6598862,2017-10-26 08:08:04,65.57450701601277
-0.20111294,0.04309563,10.065224,0.0076358155,-0.030543262,-0.0054541538,34.559998,0.40940848,-0.6751649,9.775525,-0.61052144,0.7182605,0.2896984,-0.007980907,0.0036552781,0.6601807,2017-10-26 08:08:05,65.15164380998405
-0.20111294,0.023942016,10.036493,0.004363323,-0.0141808,-0.0054541538,36.48,0.40940848,-0.6679823,9.775525,-0.61052144,0.6919243,0.260968,-0.0076927347,0.003912854,0.65987384,2017-10-26 08:08:06,69.72092474768198
-0.17238252,0.009576807,10.170568,-0.009817477,0.02617994,0.008726646,35.2,0.40701428,-0.6799533,9.775525,-0.5793968,0.6895301,0.39504328,-0.008178458,0.0037265345,0.6601,2017-10-26 08:08:07,72.08855145350472
-0.2681506,-0.023942016,10.290278,-0.0021816615,-0.020725785,0.017453292,36.48,0.39743748,-0.6775591,9.775525,-0.6655881,0.6536171,0.51475334,-0.008447543,0.004226826,0.660411,2017-10-26 08:08:08,63.14349361443363
-0.15322891,-0.047884032,9.993398,0.0,0.009817477,0.0010908308,32.0,0.40222588,-0.6631939,9.77792,-0.5554548,0.61530983,0.21547815,-0.0077863717,0.004607261,0.6600038,2017-10-26 08:08:09,66.12447854445733
-0.29209262,-0.047884032,10.065224,-0.0021816615,0.004363323,0.02727077,35.2,0.39983168,-0.6560113,9.77792,-0.6919243,0.60812724,0.2873042,-0.0076665077,0.004854018,0.6596427,2017-10-26 08:08:10,72.01346751646993
-0.1436521,-0.08140286,10.304645,0.004363323,0.0054541538,-0.004363323,34.559998,0.39504328,-0.6823475,9.775525,-0.5386954,0.60094464,0.5291186,-0.008880543,0.00419131,0.65989476,2017-10-26 08:08:11,54.59678436082498
-0.2633622,-0.033518825,10.280702,0.0010908308,-0.006544985,-0.004363323,33.92,0.39264908,-0.7062895,9.775525,-0.6560113,0.6727707,0.50517654,-0.009677641,0.003468818,0.66026896,2017-10-26 08:08:12,31.47242392621335
-0.22984336,0.019153614,10.419566,0.0109083075,0.0054541538,0.0032724924,35.84,0.39743748,-0.7134721,9.773131,-0.62728083,0.7326257,0.6464345,-0.009670397,0.0032353597,0.66001296,2017-10-26 08:08:13,33.60593413565249
-0.21068975,0.110133275,10.070012,-0.011999139,0.0010908308,0.0032724924,36.48,0.37828386,-0.7086837,9.775525,-0.58897364,0.81881696,0.29448682,-0.009988405,0.0042626215,0.65994054,2017-10-26 08:08:14,60.57960813478801
-0.20590134,0.0047884034,10.0748005,-0.0021816615,-0.0076358155,-0.01308997,35.2,0.39743748,-0.6967127,9.775525,-0.60333884,0.7015011,0.29927522,-0.008672766,0.0039168987,0.66068447,2017-10-26 08:08:15,68.97548057535762
-0.14844051,0.033518825,10.170568,0.0010908308,0.0109083075,-0.004363323,35.2,0.39264908,-0.7086837,9.773131,-0.5410896,0.7422025,0.39743748,-0.00920552,0.0037077824,0.6606478,2017-10-26 08:08:16,61.146743668585984
-0.22026655,-0.023942016,10.084377,-0.0032724924,-0.0141808,-0.0032724924,36.48,0.4165911,-0.6919243,9.775525,-0.6368576,0.6679823,0.30885202,-0.007814586,0.003476479,0.6600502,2017-10-26 08:08:17,64.90421743449144
-0.24899697,-0.095768064,10.141838,-0.017453292,0.0,0.019634955,35.2,0.40222588,-0.7015011,9.775525,-0.6512229,0.60573304,0.36631286,-0.008681057,0.0038279435,0.66026765,2017-10-26 08:08:18,64.998717932879
-0.23463176,0.023942016,10.16578,0.0076358155,-0.0076358155,-0.006544985,36.48,0.39504328,-0.7015011,9.775525,-0.62967503,0.7254431,0.39025488,-0.008929452,0.004131253,0.659565,2017-10-26 08:08:19,64.88051230212005
-0.12449849,-0.047884032,10.28549,0.0010908308,0.008726646,0.004363323,33.28,0.39025488,-0.7086837,9.773131,-0.51475334,0.6607997,0.51235914,-0.0091939885,0.0041373316,0.65967,2017-10-26 08:08:20,66.71064765816608
-0.21547815,-0.06703765,10.362105,-0.0021816615,-0.019634955,-0.0054541538,35.2,0.40701428,-0.7062895,9.773131,-0.62249243,0.6392518,0.58897364,-0.008544918,0.0036446713,0.65965813,2017-10-26 08:08:21,66.62178784574708
-0.19632454,0.047884032,10.237606,0.0010908308,-0.017453292,-0.006544985,37.12,0.40462008,-0.7254431,9.773131,-0.60094464,0.7733272,0.46447513,-0.00918651,0.0031610485,0.66030806,2017-10-26 08:08:22,64.02991548859293
-0.23942018,-0.047884032,9.993398,0.0076358155,-0.018544123,0.009817477,32.64,0.39743748,-0.7110779,9.773131,-0.6368576,0.6631939,0.22026655,-0.008847041,0.0040520374,0.6602549,2017-10-26 08:08:23,35.63602138491526
-0.12928689,-0.08140286,10.0748005,0.0,0.011999139,0.015271631,36.48,0.39025488,-0.6943185,9.775525,-0.51954174,0.61291564,0.29927522,-0.00838867,0.004914808,0.65977925,2017-10-26 08:08:24,43.07674973695072
-0.20111294,-0.033518825,10.084377,0.0010908308,-0.011999139,-0.009817477,34.559998,0.4141969,-0.6895301,9.775525,-0.61530983,0.6560113,0.30885202,-0.0074406546,0.0040710103,0.6595874,2017-10-26 08:08:25,62.91724070042085
-0.25378537,0.009576807,10.0029745,0.0054541538,0.0021816615,0.008726646,33.92,0.38067806,-0.6991069,9.775525,-0.6344634,0.7086837,0.22744916,-0.008737827,0.0049883546,0.6607263,2017-10-26 08:08:26,68.00589576185021
-0.16759412,0.0,10.103531,0.0,0.009817477,-0.020725785,36.48,0.39264908,-0.7062895,9.773131,-0.5602432,0.7062895,0.33039984,-0.008530226,0.0042346492,0.6615698,2017-10-26 08:08:27,56.80727557196866
-0.22026655,0.023942016,10.0508585,-0.011999139,0.0010908308,-0.006544985,33.28,0.39504328,-0.7015011,9.775525,-0.61530983,0.7254431,0.2753332,-0.008172601,0.0043253377,0.6622323,2017-10-26 08:08:28,51.149806974095085
-0.23942018,0.01436521,10.093954,-0.0054541538,0.0021816615,-0.02617994,32.0,0.38307226,-0.7182605,9.773131,-0.62249243,0.7326257,0.320823,-0.009190356,0.0042019906,0.6622348,2017-10-26 08:08:29,63.883878044775884
-0.29688102,-0.01436521,10.079589,-0.0010908308,-0.01308997,-0.0076358155,35.2,0.37588966,-0.7374141,9.773131,-0.6727707,0.7230489,0.30645782,-0.009882087,0.0039044535,0.6633747,2017-10-26 08:08:30,66.51471619342236
-0.19632454,-0.05746084,10.089166,-0.0076358155,-0.0109083075,-0.015271631,33.28,0.37828386,-0.7302315,9.773131,-0.5746084,0.6727707,0.31603462,-0.009401996,0.004073333,0.6632859,2017-10-26 08:08:31,50.08568942417644
-0.24899697,-0.01436521,10.175357,0.004363323,0.0141808,0.0021816615,35.2,0.36870706,-0.7350199,9.773131,-0.61770403,0.7206547,0.40222588,-0.009907046,0.0043573435,0.6626824,2017-10-26 08:08:33,65.81059248338333
-0.18674773,-0.01436521,10.180145,0.0054541538,-0.0054541538,0.004363323,34.559998,0.37588966,-0.7374141,9.773131,-0.5626374,0.7230489,0.40701428,-0.009515291,0.0039774524,0.66360044,2017-10-26 08:08:34,63.68710136053677
-0.17238252,-0.12928689,10.204087,0.0032724924,0.020725785,0.0021816615,36.48,0.39264908,-0.7302315,9.773131,-0.5650316,0.60094464,0.4309563,-0.008619836,0.0036892314,0.6634123,2017-10-26 08:08:35,66.86096534095475
-0.17717093,-0.062249243,9.911995,-0.008726646,-0.008726646,-0.01308997,36.48,0.39264908,-0.7326257,9.773131,-0.56982,0.6703765,0.1388637,-0.008652579,0.003602134,0.66340274,2017-10-26 08:08:36,66.27259845457282
-0.19632454,0.05267244,10.117896,-0.004363323,0.0054541538,0.006544985,33.28,0.40222588,-0.7254431,9.773131,-0.59855044,0.7781156,0.34476504,-0.008062677,0.0034336932,0.6627374,2017-10-26 08:08:37,65.98994674600127
-0.18195933,0.038307227,10.208876,-0.0021816615,-0.016362462,0.0021816615,36.48,0.39983168,-0.7326257,9.773131,-0.581791,0.770933,0.4357447,-0.008488463,0.0033834456,0.66323906,2017-10-26 08:08:38,55.64050793520685
-0.18195933,-0.01436521,10.156203,0.0,0.004363323,-0.01308997,33.92,0.40462008,-0.7422025,9.770737,-0.58657944,0.7278373,0.3854665,-0.008640951,0.002935553,0.66279405,2017-10-26 08:08:39,60.79296117578557
-0.30645782,0.0047884034,10.280702,-0.0032724924,0.0054541538,-0.0021816615,33.92,0.40462008,-0.7493851,9.770737,-0.7110779,0.7541735,0.50996494,-0.008923499,0.002868955,0.6628601,2017-10-26 08:08:40,63.23317531802684
-0.22984336,0.01436521,10.127473,-0.004363323,0.0010908308,0.0076358155,36.48,0.4285621,-0.7493851,9.770737,-0.6584055,0.7637503,0.35673606,-0.00798016,0.0021386985,0.66276187,2017-10-26 08:08:41,53.48642855550259
-0.22984336,-0.05267244,10.065224,0.01308997,0.0032724924,-0.006544985,34.559998,0.41180268,-0.7278373,9.773131,-0.641646,0.6751649,0.29209262,-0.007819494,0.0036001708,0.6622373,2017-10-26 08:08:42,57.14251217550001
-0.30166942,-0.076614454,10.228029,0.004363323,0.0010908308,-0.0141808,36.48,0.41180268,-0.7374141,9.770737,-0.7134721,0.6607997,0.45729253,-0.008163495,0.0032875706,0.6627461,2017-10-26 08:08:43,56.94672776641744
-0.15322891,-0.04309563,10.28549,0.0021816615,-0.023998277,-0.0141808,32.64,0.4309563,-0.7326257,9.770737,-0.58418524,0.6895301,0.51475334,-0.0074370382,0.0028971117,0.66246134,2017-10-26 08:08:44,59.757813143884306
-0.272939,0.01436521,10.108319,0.0054541538,-0.022907447,0.0010908308,33.92,0.47405192,-0.7278373,9.768343,-0.7469909,0.7422025,0.33997664,-0.0060012126,0.0016582124,0.6618416,2017-10-26 08:08:45,62.49064320160534
-0.1388637,0.0,10.108319,-0.0032724924,0.0032724924,0.011999139,34.559998,0.47405192,-0.7302315,9.768343,-0.61291564,0.7302315,0.33997664,-0.006297351,0.0018277289,0.66163176,2017-10-26 08:08:46,64.87709347218345
-0.22026655,-0.023942016,9.945514,0.0109083075,-0.006544985,0.011999139,32.0,0.45489833,-0.7158663,9.770737,-0.6751649,0.6919243,0.17477672,-0.006634346,0.0031950595,0.66149235,2017-10-26 08:08:47,56.97091788941931
-0.23463176,-0.05267244,10.338163,-0.004363323,-0.015271631,0.0032724924,35.2,0.5315128,-0.7254431,9.765948,-0.7661445,0.6727707,0.5722142,-0.0046988614,2.8368365E-4,0.66059774,2017-10-26 08:08:48,54.387164445161645
-0.08619126,0.0047884034,10.43872,-0.0032724924,0.015271631,0.0076358155,32.64,0.50517654,-0.7134721,9.768343,-0.59136784,0.7182605,0.6703765,-0.0053084455,0.0018967837,0.66177684,2017-10-26 08:08:49,59.19255561716645
-0.23942018,0.095768064,10.13705,-0.0109083075,-0.009817477,-0.006544985,33.92,0.48123455,-0.7206547,9.768343,-0.7206547,0.81642276,0.36870706,-0.006581459,0.0027874662,0.66199315,2017-10-26 08:08:50,70.45644323009552
-0.21547815,0.05746084,10.204087,0.0,-0.0109083075,-0.011999139,34.559998,0.49081135,-0.7278373,9.768343,-0.7062895,0.78529817,0.4357447,-0.0067695165,0.002361904,0.6613302,2017-10-26 08:08:51,61.17571517064036
-0.16280572,-0.1436521,10.141838,0.01308997,-0.004363323,0.01308997,33.28,0.51714754,-0.7230489,9.768343,-0.6799533,0.5793968,0.37349546,-0.006065258,0.0017146794,0.66034275,2017-10-26 08:08:52,46.57594903676799
-0.33039984,-0.1340753,10.146626,-0.011999139,0.008726646,0.0010908308,33.28,0.5386954,-0.7350199,9.765948,-0.8690952,0.60094464,0.38067806,-0.005974124,8.421941E-4,0.65981233,2017-10-26 08:08:53,58.25342887260834
-0.22505496,0.023942016,10.036493,-0.0021816615,0.0,-0.0021816615,36.48,0.50038815,-0.7158663,9.768343,-0.7254431,0.7398083,0.2681506,-0.0065165376,0.0031183874,0.6606564,2017-10-26 08:08:54,66.11698920731817
-0.2873042,0.023942016,10.170568,0.0032724924,-0.0021816615,-0.011999139,32.64,0.50757074,-0.7110779,9.768343,-0.79487497,0.7350199,0.40222588,-0.0063559413,0.0030824477,0.66009015,2017-10-26 08:08:55,68.51122322328968
-0.22026655,-0.05746084,10.204087,0.006544985,-0.008726646,-0.008726646,35.84,0.51475334,-0.7158663,9.768343,-0.7350199,0.6584055,0.4357447,-0.0064746737,0.0027991962,0.65950984,2017-10-26 08:08:56,66.99686794772197
-0.2633622,-0.062249243,10.189722,0.0,-0.023998277,-0.022907447,33.28,0.5434838,-0.7374141,9.765948,-0.80684596,0.6751649,0.4237737,-0.006421419,0.0012629498,0.6595807,2017-10-26 08:08:57,65.87484930170801
-0.22984336,-0.0047884034,10.13705,-0.0054541538,0.0,0.0010908308,33.28,0.5410896,-0.7445967,9.763555,-0.770933,0.7398083,0.37349546,-0.0068631815,0.001426422,0.6599559,2017-10-26 08:08:58,63.38622585082887
-0.15801731,0.01436521,10.299856,0.009817477,-0.006544985,0.015271631,37.12,0.5243302,-0.7326257,9.765948,-0.6823475,0.7469909,0.533907,-0.0071200607,0.0026297662,0.6595951,2017-10-26 08:08:59,57.20683863679666
-0.18195933,-0.10055647,10.19451,0.004363323,-0.004363323,0.017453292,34.559998,0.5386954,-0.7086837,9.768343,-0.7206547,0.60812724,0.4261679,-0.0057587735,0.0029252311,0.6596526,2017-10-26 08:09:00,68.12948718570934
-0.272939,-0.019153614,10.127473,-0.0109083075,0.0054541538,-0.0021816615,34.559998,0.5506664,-0.7038953,9.765948,-0.82360536,0.6847417,0.36152446,-0.005300409,0.0027329437,0.66024995,2017-10-26 08:09:01,66.63968725251253
-0.21068975,-0.033518825,10.012551,0.0010908308,0.015271631,-0.0032724924,33.92,0.5530606,-0.7158663,9.765948,-0.7637503,0.6823475,0.24660277,-0.0059539545,0.002422466,0.6603006,2017-10-26 08:09:02,56.199224662034325
-0.24420857,0.0,10.141838,-0.004363323,0.017453292,0.009817477,34.559998,0.545878,-0.7158663,9.765948,-0.79008657,0.7158663,0.37588966,-0.0063477186,0.0028623054,0.65987855,2017-10-26 08:09:03,54.904659489677876
-0.25857377,0.04309563,10.199299,-0.004363323,0.004363323,0.0010908308,36.48,0.50996494,-0.7254431,9.768343,-0.7685388,0.7685388,0.4309563,-0.0080193,0.00395229,0.65969074,2017-10-26 08:09:04,64.57954039236586
-0.24899697,-0.15801731,10.151415,0.004363323,0.0010908308,0.0,33.28,0.5482722,-0.7302315,9.765948,-0.79726917,0.5722142,0.3854665,-0.006965854,0.002441342,0.6592448,2017-10-26 08:09:05,59.99142860356486
-0.21547815,-0.02873042,10.055647,0.004363323,-0.008726646,-0.0010908308,34.559998,0.56982,-0.7302315,9.763555,-0.78529817,0.7015011,0.29209262,-0.006325707,0.0017921608,0.65922165,2017-10-26 08:09:06,57.663103919130464
-0.29209262,-0.009576807,10.16578,0.0141808,0.01308997,-0.011999139,34.559998,0.5602432,-0.7302315,9.763555,-0.8523358,0.7206547,0.40222588,-0.006734116,0.0022872956,0.6594479,2017-10-26 08:09:07,63.84795580544204
-0.18195933,-0.1436521,10.041282,0.0076358155,0.0076358155,0.0032724924,33.28,0.5626374,-0.7254431,9.763555,-0.7445967,0.581791,0.2777274,-0.006715188,0.0024705604,0.6588613,2017-10-26 08:09:08,64.45007642104974
-0.19632454,0.1388637,10.089166,-0.011999139,0.0,-0.0076358155,35.2,0.5722142,-0.7374141,9.763555,-0.7685388,0.8762778,0.32561144,-0.0068827467,0.0019155182,0.65933806,2017-10-26 08:09:09,48.967662135713034
-0.16280572,0.0,10.0029745,0.0,-0.018544123,-0.006544985,35.2,0.5602432,-0.7326257,9.763555,-0.7230489,0.7326257,0.23942018,-0.007194017,0.0027303603,0.65877825,2017-10-26 08:09:10,68.64177297708154
-0.08140286,-0.08619126,10.156203,-0.006544985,0.0010908308,0.0054541538,33.28,0.5267244,-0.7350199,9.765948,-0.60812724,0.6488287,0.39025488,-0.008376267,0.0040060924,0.6589458,2017-10-26 08:09:11,70.76892462747024
-0.24899697,0.07182605,10.16578,0.020725785,0.004363323,0.0032724924,37.76,0.49320555,-0.7469909,9.765948,-0.7422025,0.81881696,0.39983168,-0.0097812,0.0047842665,0.65982664,2017-10-26 08:09:12,71.47308891437862
-0.24420857,0.02873042,10.141838,-0.006544985,-0.0109083075,-0.0010908308,32.64,0.47884035,-0.7422025,9.768343,-0.7230489,0.770933,0.37349546,-0.009947393,0.005388015,0.65962636,2017-10-26 08:09:13,64.78214858805289
-0.24899697,0.08619126,10.251971,0.01308997,-0.0141808,0.011999139,37.76,0.47165772,-0.7278373,9.768343,-0.7206547,0.81402856,0.48362875,-0.0094338395,0.006080725,0.6600873,2017-10-26 08:09:14,44.158806075542216
-0.32561144,0.10534488,10.251971,0.0,-0.0109083075,-0.0054541538,36.48,0.47165772,-0.7302315,9.768343,-0.79726917,0.8355764,0.48362875,-0.009528372,0.0058446387,0.6592042,2017-10-26 08:09:15,56.27140587938723
-0.2777274,-0.076614454,10.084377,0.0076358155,0.02617994,-0.0021816615,33.92,0.4285621,-0.7637503,9.768343,-0.7062895,0.6871359,0.31603462,-0.012074625,0.006242618,0.6589379,2017-10-26 08:09:16,63.46048741955288
-0.1388637,-0.11971009,10.141838,0.009817477,-0.004363323,0.0,35.2,0.4357447,-0.78290397,9.765948,-0.5746084,0.6631939,0.37588966,-0.01218099,0.0053005014,0.65874755,2017-10-26 08:09:17,57.64435255902938
-0.29209262,0.02873042,10.036493,-0.006544985,0.015271631,-0.0021816615,33.92,0.47405192,-0.7613561,9.765948,-0.7661445,0.79008657,0.2705448,-0.009951601,0.004517584,0.6585565,2017-10-26 08:09:18,65.5592254898776
-0.2681506,-0.047884032,10.19451,0.0021816615,-0.015271631,0.0021816615,33.28,0.49320555,-0.7398083,9.768343,-0.7613561,0.6919243,0.4261679,-0.008406019,0.004477636,0.65801406,2017-10-26 08:09:19,67.71354628635375
-0.2825158,0.0047884034,9.974244,0.006544985,0.0010908308,0.011999139,33.28,0.49799395,-0.7134721,9.768343,-0.78050977,0.7182605,0.20590134,-0.007288305,0.0052430555,0.6578116,2017-10-26 08:09:20,31.700484589335236
-0.31124622,-0.07182605,9.921572,0.008726646,-0.006544985,0.0109083075,35.84,0.50517654,-0.6967127,9.770737,-0.81642276,0.62488663,0.15083471,-0.006408681,0.0054640574,0.6584569,2017-10-26 08:09:22,53.02418679210372
-0.1388637,-0.0047884034,10.0987425,0.01308997,-0.02727077,-0.004363323,35.84,0.48841715,-0.6895301,9.770737,-0.62728083,0.6847417,0.32800564,-0.0068428256,0.0062497463,0.65814644,2017-10-26 08:09:23,64.48667071279306
-0.2825158,0.062249243,10.204087,0.0,-0.0010908308,0.0010908308,35.84,0.50757074,-0.6679823,9.770737,-0.79008657,0.7302315,0.4333505,-0.00552292,0.0059186313,0.6581476,2017-10-26 08:09:24,59.71092467345222
-0.24420857,-0.01436521,10.117896,0.0,-0.006544985,-0.0021816615,37.76,0.5363012,-0.6536171,9.770737,-0.78050977,0.6392518,0.34715924,-0.004297277,0.0053142337,0.658362,2017-10-26 08:09:25,52.885438035077385
-0.22984336,0.07182605,10.323798,-0.006544985,-0.019634955,-0.016362462,39.68,0.5315128,-0.6488287,9.770737,-0.7613561,0.7206547,0.5530606,-0.004548896,0.0055665867,0.65840065,2017-10-26 08:09:26,61.5455624520896
-0.16759412,-0.023942016,10.079589,0.0021816615,-0.020725785,-0.0076358155,42.239998,0.533907,-0.6584055,9.770737,-0.7015011,0.6344634,0.30885202,-0.0050804596,0.0051169274,0.65814495,2017-10-26 08:09:27,68.24409095066822
-0.21547815,-0.08140286,10.093954,-0.006544985,0.0021816615,0.031634092,37.76,0.50996494,-0.6584055,9.773131,-0.7254431,0.5770026,0.320823,-0.0060080094,0.005882307,0.6583683,2017-10-26 08:09:28,65.352296599597
-0.18195933,-0.06703765,10.036493,0.0021816615,-0.0141808,0.009817477,42.879997,0.50038815,-0.6751649,9.770737,-0.6823475,0.60812724,0.2657564,-0.0070513785,0.005531012,0.6589074,2017-10-26 08:09:29,65.04836584997018
-0.22984336,0.05267244,10.180145,0.0032724924,0.0054541538,-0.011999139,40.96,0.45968673,-0.6847417,9.773131,-0.6895301,0.7374141,0.40701428,-0.008745905,0.006578394,0.6591221,2017-10-26 08:09:30,39.0707479326099
-0.18195933,-0.009576807,10.19451,0.0010908308,0.0076358155,0.008726646,43.52,0.45489833,-0.6967127,9.773131,-0.6368576,0.6871359,0.4213795,-0.009213259,0.0061711567,0.65921617,2017-10-26 08:09:31,48.482306963874926
-0.110133275,-0.06703765,10.1226845,-0.0010908308,0.0076358155,0.008726646,42.879997,0.4213795,-0.7110779,9.773131,-0.5315128,0.6440403,0.34955344,-0.010750042,0.0068282876,0.6591194,2017-10-26 08:09:32,59.81021483904078
-0.21068975,-0.0047884034,10.117896,0.009817477,-0.01308997,0.009817477,42.239998,0.39983168,-0.7206547,9.773131,-0.61052144,0.7158663,0.34476504,-0.011420885,0.0070140082,0.6599189,2017-10-26 08:09:33,58.98579184137687
-0.19153613,-0.11971009,10.170568,0.0021816615,0.034906585,0.021816615,42.239998,0.39264908,-0.7206547,9.773131,-0.58418524,0.60094464,0.39743748,-0.011266388,0.0070651863,0.6600938,2017-10-26 08:09:34,59.40591707983525
-0.23463176,-0.047884032,10.01734,0.0109083075,0.023998277,0.02727077,42.879997,0.4141969,-0.7254431,9.773131,-0.6488287,0.6775591,0.24420857,-0.0106042195,0.0060031144,0.6598951,2017-10-26 08:09:35,62.726581046793186
-0.22505496,-0.01436521,10.19451,-0.009817477,-0.0010908308,-0.021816615,42.239998,0.39983168,-0.7278373,9.773131,-0.62488663,0.7134721,0.4213795,-0.010939442,0.006383879,0.6593606,2017-10-26 08:09:36,58.83430513789421
-0.22026655,0.0047884034,10.290278,-0.0010908308,0.029452432,0.029452432,42.239998,0.38067806,-0.7398083,9.773131,-0.60094464,0.7445967,0.51714754,-0.011697555,0.006434177,0.6596489,2017-10-26 08:09:37,63.13173519270448
-0.2873042,-0.062249243,10.323798,-0.0010908308,0.0109083075,-0.008726646,42.879997,0.37349546,-0.7541735,9.770737,-0.6607997,0.6919243,0.5530606,-0.0120988805,0.0061309757,0.6601678,2017-10-26 08:09:38,63.27652029264147
-0.2777274,-0.08140286,10.170568,0.017453292,0.0032724924,0.0054541538,38.399998,0.38067806,-0.7637503,9.770737,-0.6584055,0.6823475,0.39983168,-0.011765998,0.0053699156,0.6606107,2017-10-26 08:09:39,71.02456075902109
-0.12928689,0.047884032,10.175357,-0.0109083075,0.009817477,0.011999139,42.239998,0.40222588,-0.7637503,9.770737,-0.5315128,0.81163436,0.40462008,-0.010837713,0.0045358613,0.66031384,2017-10-26 08:09:40,62.7929270888179
-0.21068975,0.009576807,10.103531,-0.01308997,-0.004363323,0.0109083075,42.879997,0.40701428,-0.7589619,9.770737,-0.61770403,0.7685388,0.33279404,-0.01017331,0.004503133,0.6600742,2017-10-26 08:09:41,65.49886416680978
-0.24899697,0.009576807,10.16578,-0.004363323,-0.0021816615,-0.004363323,35.84,0.41180268,-0.7398083,9.770737,-0.6607997,0.7493851,0.39504328,-0.009320773,0.0049783364,0.6596661,2017-10-26 08:09:42,66.55697776427631
-0.095768064,-0.1388637,9.940725,-0.0054541538,-0.0010908308,0.009817477,42.239998,0.40701428,-0.7398083,9.770737,-0.50278234,0.60094464,0.16998832,-0.009359967,0.005112606,0.6593338,2017-10-26 08:09:43,61.5101793913879
-0.22505496,-0.12449849,10.13705,-0.0032724924,0.023998277,0.006544985,39.04,0.3878607,-0.7302315,9.773131,-0.61291564,0.60573304,0.36391866,-0.009564789,0.0060254913,0.6592072,2017-10-26 08:09:44,63.84240434763707
-0.25378537,-0.110133275,10.180145,-0.0021816615,-0.017453292,-0.011999139,41.6,0.39025488,-0.7206547,9.773131,-0.6440403,0.61052144,0.40701428,-0.009048816,0.006168035,0.65840614,2017-10-26 08:09:45,63.14027092278006
-0.2873042,0.08140286,10.160992,0.006544985,0.0010908308,-0.0021816615,41.6,0.3854665,-0.7445967,9.770737,-0.6727707,0.82599956,0.39025488,-0.010061435,0.0054184115,0.6579805,2017-10-26 08:09:46,66.36797756421907
-0.22505496,-0.009576807,10.156203,-0.004363323,-0.0021816615,-0.0010908308,37.12,0.38067806,-0.7733272,9.770737,-0.60573304,0.7637503,0.3854665,-0.011088112,0.0045918683,0.6579772,2017-10-26 08:09:47,65.03140147048775
-0.18674773,0.019153614,10.251971,0.0054541538,-0.0076358155,0.0,36.48,0.37588966,-0.78529817,9.768343,-0.5626374,0.80445176,0.48362875,-0.011292502,0.004323777,0.6585442,2017-10-26 08:09:48,72.27299460317138
-0.12449849,-0.10055647,10.151415,-0.015271631,0.0021816615,0.018544123,44.16,0.37588966,-0.79248077,9.768343,-0.50038815,0.6919243,0.38307226,-0.011303514,0.004129746,0.65887594,2017-10-26 08:09:49,68.62332939521829
-0.18195933,-0.01436521,10.089166,-0.008726646,0.0021816615,-0.0010908308,40.96,0.35194764,-0.80924016,9.768343,-0.533907,0.79487497,0.320823,-0.012312759,0.0043945853,0.65960974,2017-10-26 08:09:50,50.102753638594365
-0.34476504,-0.07182605,10.103531,-0.006544985,0.0032724924,-0.004363323,39.68,0.35434186,-0.79966336,9.768343,-0.6991069,0.7278373,0.33518824,-0.011450844,0.004582974,0.65992886,2017-10-26 08:09:51,41.47403065517082
-0.21547815,0.04309563,10.041282,0.0054541538,0.016362462,-0.0010908308,42.239998,0.35673606,-0.79726917,9.768343,-0.5722142,0.8403648,0.272939,-0.010980183,0.004540312,0.66017276,2017-10-26 08:09:52,64.39914780808618
-0.16280572,0.0047884034,10.213664,-0.008726646,-0.0076358155,-0.008726646,40.32,0.39983168,-0.78529817,9.768343,-0.5626374,0.79008657,0.44532153,-0.00884233,0.0033664024,0.65969086,2017-10-26 08:09:53,69.80050723585738
-0.20111294,0.062249243,10.247183,0.004363323,0.011999139,0.009817477,44.8,0.40462008,-0.79248077,9.768343,-0.60573304,0.85473,0.47884035,-0.008966509,0.003103193,0.6598743,2017-10-26 08:09:54,65.26738736843231
-0.19632454,-0.090979666,10.127473,-0.0054541538,-0.011999139,-0.0032724924,40.96,0.36870706,-0.80205756,9.768343,-0.5650316,0.7110779,0.35913026,-0.010484396,0.004306826,0.6599647,2017-10-26 08:09:55,59.29248702410398
-0.2777274,-0.04309563,9.988609,-0.0032724924,-0.009817477,-0.006544985,42.879997,0.33997664,-0.82360536,9.765948,-0.61770403,0.78050977,0.22266077,-0.011982806,0.00452934,0.660203,2017-10-26 08:09:56,64.02635209804603
-0.15322891,-0.05746084,10.055647,0.0021816615,-0.0010908308,-0.019634955,42.879997,0.320823,-0.830788,9.768343,-0.47405192,0.7733272,0.2873042,-0.012582883,0.005031065,0.66021436,2017-10-26 08:09:57,43.89756826995046
-0.23463176,-0.076614454,10.251971,0.0054541538,0.020725785,-0.0054541538,42.239998,0.33279404,-0.8331822,9.765948,-0.5674258,0.7565677,0.48602295,-0.011964234,0.0044498723,0.6603222,2017-10-26 08:09:58,66.35331418425976
-0.2825158,0.0047884034,10.1226845,-0.0109083075,-0.0021816615,-0.020725785,42.239998,0.36631286,-0.82360536,9.765948,-0.6488287,0.8283938,0.35673606,-0.010295024,0.003693862,0.6596422,2017-10-26 08:09:59,53.38447005760279
-0.19632454,0.038307227,10.304645,0.0010908308,-0.0141808,-0.02617994,39.68,0.37828386,-0.81881696,9.765948,-0.5746084,0.8571242,0.5386954,-0.009538021,0.0033329614,0.66001993,2017-10-26 08:10:00,62.139177155369254
-0.20590134,-0.033518825,10.247183,-0.0021816615,-0.0010908308,0.0032724924,42.879997,0.3878607,-0.82121116,9.765948,-0.59376204,0.78769237,0.48123455,-0.009291453,0.0030976646,0.6591943,2017-10-26 08:10:01,68.88657360417884
-0.35913026,0.047884032,10.13705,0.011999139,0.011999139,0.004363323,37.76,0.38307226,-0.830788,9.765948,-0.7422025,0.878672,0.37110126,-0.009670204,0.003120604,0.65922606,2017-10-26 08:10:02,51.37167054613961
-0.23463176,-0.10055647,10.127473,0.0,-0.0054541538,-0.0010908308,42.239998,0.39025488,-0.830788,9.765948,-0.62488663,0.7302315,0.36152446,-0.0093405,0.0029791575,0.6587758,2017-10-26 08:10:03,65.49679597137637
-0.25857377,0.0047884034,10.127473,-0.006544985,-0.0010908308,-0.0021816615,39.04,0.4285621,-0.8331822,9.763555,-0.6871359,0.8379706,0.36391866,-0.008142211,0.0016082264,0.65880686,2017-10-26 08:10:04,69.33377771914164
-0.22984336,0.05267244,10.19451,0.0076358155,0.0109083075,0.0021816615,35.2,0.4237737,-0.82121116,9.763555,-0.6536171,0.8738836,0.4309563,-0.008004645,0.0024863174,0.65860665,2017-10-26 08:10:05,61.84548625047021
-0.272939,-0.06703765,10.103531,0.009817477,0.0032724924,0.0076358155,35.2,0.44532153,-0.82599956,9.763555,-0.7182605,0.7589619,0.33997664,-0.007405174,0.0016816873,0.6590891,2017-10-26 08:10:06,63.19038132020261
-0.2825158,-0.023942016,10.280702,-0.0076358155,0.0109083075,0.004363323,38.399998,0.41180268,-0.8355764,9.763555,-0.6943185,0.81163436,0.51714754,-0.008898729,0.002784377,0.6594911,2017-10-26 08:10:07,64.76799735877363
-0.18195933,0.062249243,10.079589,-0.004363323,-0.0021816615,-0.0141808,36.48,0.4165911,-0.8379706,9.763555,-0.59855044,0.90021986,0.31603462,-0.008729983,0.00266477,0.65985525,2017-10-26 08:10:08,66.09734158101678
-0.272939,-0.02873042,10.113108,-0.004363323,-0.0054541538,-0.009817477,35.84,0.4165911,-0.8451532,9.763555,-0.6895301,0.81642276,0.34955344,-0.00906639,0.0026595667,0.6595021,2017-10-26 08:10:10,64.6577193073702
-0.1388637,-0.038307227,10.213664,-0.008726646,0.0076358155,0.01308997,40.96,0.4309563,-0.8331822,9.763555,-0.56982,0.79487497,0.45010993,-0.008074477,0.002647345,0.6594558,2017-10-26 08:10:11,65.23327647388481
-0.22026655,-0.033518825,10.13705,0.01308997,-0.016362462,-0.0076358155,40.32,0.4333505,-0.8331822,9.763555,-0.7302315,0.79008657,0.48841715,-0.008010093,0.0026388764,0.6591978,2017-10-26 08:10:12,65.39542821371909
-0.2681506,-0.019153614,10.184934,0.0054541538,-0.018544123,-0.022907447,40.96,0.41180268,-0.8379706,9.763555,-0.6799533,0.81881696,0.4213795,-0.008828018,0.0034851497,0.65993637,2017-10-26 08:10:13,70.40860744209832
-0.30645782,0.038307227,10.0029745,-0.0010908308,0.0,0.0021816615,38.399998,0.40940848,-0.8355764,9.763555,-0.7158663,0.8738836,0.23942018,-0.008768652,0.003699217,0.66066873,2017-10-26 08:10:14,67.69540500219338
-0.20590134,-0.009576807,10.280702,0.016362462,-0.008726646,-0.011999139,38.399998,0.4333505,-0.8283938,9.763555,-0.6392518,0.81881696,0.51714754,-0.0076642083,0.0031104572,0.6603424,2017-10-26 08:10:15,56.08173189811416
-0.23463176,0.009576807,10.055647,0.009817477,-0.015271631,-0.008726646,40.96,0.44771573,-0.81881696,9.763555,-0.6823475,0.8283938,0.29209262,-0.0068793166,0.003072815,0.66041756,2017-10-26 08:10:16,42.86849793766423
-0.22984336,-0.12928689,10.055647,0.006544985,0.004363323,0.004363323,40.32,0.45968673,-0.81881696,9.763555,-0.6895301,0.6895301,0.29209262,-0.0067050867,0.0026614545,0.6600585,2017-10-26 08:10:17,31.812020299389403
-0.19632454,-0.05746084,10.180145,-0.006544985,-0.0010908308,-0.017453292,40.32,0.45968673,-0.80924016,9.763555,-0.6560113,0.7517793,0.4165911,-0.0065653594,0.0031053005,0.65901244,2017-10-26 08:10:18,56.30005056940291
-0.24899697,0.033518825,10.19451,0.0109083075,-0.011999139,-0.011999139,40.32,0.4357447,-0.80684596,9.763555,-0.6847417,0.8403648,0.4309563,-0.0075264145,0.0042180493,0.6591438,2017-10-26 08:10:19,65.23932073813103
-0.18674773,0.01436521,10.151415,0.0021816615,-0.015271631,-0.0076358155,37.12,0.46926352,-0.80445176,9.763555,-0.6560113,0.81881696,0.3878607,-0.006558261,0.0031719152,0.6577697,2017-10-26 08:10:20,62.07725453157043
-0.23942018,0.01436521,10.189722,0.0109083075,-0.0021816615,-0.008726646,36.48,0.48362875,-0.78050977,9.763555,-0.7230489,0.79487497,0.4261679,-0.005547259,0.003530601,0.6562501,2017-10-26 08:10:21,67.7161911488554
-0.19153613,-0.02873042,10.199299,0.0109083075,0.0141808,-0.004363323,42.879997,0.49320555,-0.78769237,9.763555,-0.6847417,0.7589619,0.4357447,-0.005704917,0.0030444488,0.65595347,2017-10-26 08:10:22,64.1736022875376
-0.29688102,0.11492168,10.25676,-0.004363323,-0.022907447,0.0021816615,41.6,0.49799395,-0.80205756,9.76116,-0.79487497,0.91697925,0.49559975,-0.0062403325,0.0026063295,0.65676147,2017-10-26 08:10:23,48.42070180758036
-0.22026655,0.04309563,10.180145,-0.0076358155,-0.0141808,-0.008726646,44.8,0.47405192,-0.79966336,9.763555,-0.6943185,0.842759,0.4165911,-0.0069899373,0.003618014,0.6581903,2017-10-26 08:10:24,56.39425143019433
-0.19153613,-0.05267244,10.041282,0.0,0.008726646,-0.0076358155,42.239998,0.46926352,-0.79726917,9.763555,-0.6607997,0.7445967,0.2777274,-0.007111557,0.003970065,0.6582146,2017-10-26 08:10:25,63.01399092908902
-0.25857377,-0.047884032,10.218452,-0.0054541538,0.009817477,0.006544985,42.879997,0.46686932,-0.79726917,9.763555,-0.7254431,0.7493851,0.45489833,-0.0073453,0.004063527,0.65843564,2017-10-26 08:10:26,63.10483733609579
-0.32561144,-0.07182605,10.228029,-0.0109083075,0.006544985,-0.0283616,42.879997,0.45250413,-0.80924016,9.763555,-0.7781156,0.7374141,0.46447513,-0.008129956,0.004187298,0.6589144,2017-10-26 08:10:27,53.69455282652061
-0.25378537,-0.062249243,10.180145,0.018544123,-0.018544123,0.0010908308,42.239998,0.48602295,-0.80924016,9.76116,-0.7398083,0.7469909,0.4189853,-0.0072210366,0.0029856917,0.65885967,2017-10-26 08:10:28,65.75651453637698
-0.24899697,0.033518825,10.151415,0.006544985,0.01308997,0.0,38.399998,0.47884035,-0.80924016,9.763555,-0.7278373,0.842759,0.3878607,-0.007456257,0.0033972673,0.65863883,2017-10-26 08:10:29,60.11707872010781
-0.21547815,-0.05746084,10.228029,-0.0021816615,-0.021816615,0.0076358155,37.12,0.49081135,-0.81163436,9.76116,-0.7062895,0.7541735,0.46686932,-0.007183713,0.002862312,0.65912616,2017-10-26 08:10:30,57.47999208430177
-0.2681506,0.02873042,10.204087,0.01308997,0.0010908308,-0.008726646,39.68,0.44532153,-0.82121116,9.763555,-0.7134721,0.8499416,0.4405331,-0.008977149,0.0044169705,0.6600029,2017-10-26 08:10:31,60.82510096636294
-0.17717093,-0.12449849,10.151415,-0.0010908308,-0.0032724924,-0.0109083075,34.559998,0.45729253,-0.82121116,9.763555,-0.6344634,0.6967127,0.3878607,-0.008516822,0.0038778055,0.6602803,2017-10-26 08:10:32,56.56018518622922
-0.23942018,0.023942016,10.084377,-0.011999139,0.0054541538,-0.0054541538,35.84,0.4213795,-0.8283938,9.763555,-0.6607997,0.8523358,0.320823,-0.009795692,0.005028284,0.66066307,2017-10-26 08:10:33,67.1816107998352
-0.31603462,-0.11492168,10.199299,-0.009817477,0.0054541538,0.015271631,35.2,0.40222588,-0.82599956,9.763555,-0.7182605,0.7110779,0.4357447,-0.010180647,0.0057987124,0.66135126,2017-10-26 08:10:34,61.61481324269008
-0.21068975,-0.02873042,10.084377,0.0076358155,0.0076358155,0.0141808,36.48,0.37349546,-0.82599956,9.765948,-0.58418524,0.79726917,0.3184288,-0.01096027,0.0066691674,0.6616131,2017-10-26 08:10:35,61.82693486805104
-0.16280572,-0.16759412,10.041282,0.0141808,-0.0076358155,-0.0054541538,34.559998,0.40701428,-0.8403648,9.763555,-0.56982,0.6727707,0.2777274,-0.010172499,0.0047800075,0.66113746,2017-10-26 08:10:36,66.47647920482083
-0.30166942,0.076614454,10.247183,-0.0076358155,0.019634955,0.01308997,36.48,0.4333505,-0.8499416,9.76116,-0.7350199,0.92655605,0.48602295,-0.0096387435,0.0034180647,0.6606754,2017-10-26 08:10:37,63.86982759876358
-0.18674773,-0.02873042,10.237606,-0.004363323,-0.0010908308,-0.01308997,35.2,0.46926352,-0.8523358,9.758766,-0.6560113,0.82360536,0.47884035,-0.008489063,0.002108749,0.6606858,2017-10-26 08:10:38,60.559451133826094
-0.23463176,-0.038307227,10.247183,-0.006544985,0.01308997,0.018544123,37.12,0.46926352,-0.85473,9.758766,-0.7038953,0.81642276,0.48841715,-0.008676518,0.0022017928,0.65970105,2017-10-26 08:10:39,66.15427757552149
-0.17238252,-0.10055647,10.247183,-0.017453292,-0.0054541538,0.008726646,37.76,0.46686932,-0.8523358,9.758766,-0.6392518,0.7517793,0.48841715,-0.008533923,0.002462807,0.6600458,2017-10-26 08:10:40,58.222097909328966
-0.22505496,-0.023942016,9.974244,-0.006544985,-0.0076358155,-0.0021816615,35.2,0.45489833,-0.8643068,9.758766,-0.6799533,0.8403648,0.21547815,-0.009299403,0.00260475,0.66033626,2017-10-26 08:10:41,58.75715953571158
-0.2873042,0.08140286,9.9790325,-0.01308997,0.017453292,-0.0141808,44.16,0.45010993,-0.8475474,9.76116,-0.7374141,0.92895025,0.21787235,-0.008723475,0.0035068998,0.6604772,2017-10-26 08:10:42,70.31580561441073
-0.18195933,-0.019153614,10.132261,0.0032724924,0.0076358155,0.0021816615,35.84,0.46926352,-0.8499416,9.758766,-0.6512229,0.830788,0.37349546,-0.008243071,0.0027438402,0.660022,2017-10-26 08:10:43,72.45348342556827
-0.17238252,-0.038307227,10.132261,-0.006544985,0.009817477,0.0,35.2,0.45729253,-0.8379706,9.76116,-0.62967503,0.79966336,0.37110126,-0.008040652,0.003634736,0.66082597,2017-10-26 08:10:44,62.09515852720119
-0.20111294,-0.0047884034,10.151415,0.0,0.006544985,0.0054541538,42.879997,0.47644615,-0.8451532,9.758766,-0.6775591,0.8403648,0.39264908,-0.007775951,0.0026799012,0.6599812,2017-10-26 08:10:45,57.48098086987956
-0.272939,-0.047884032,10.213664,0.0010908308,0.029452432,0.0032724924,36.48,0.45729253,-0.8403648,9.76116,-0.7302315,0.79248077,0.45250413,-0.0083813835,0.0038106982,0.65936196,2017-10-26 08:10:46,65.97744498785838
-0.30166942,-0.05746084,10.022128,-0.004363323,-0.0283616,-0.01308997,44.8,0.4429273,-0.8403648,9.76116,-0.7445967,0.78290397,0.260968,-0.008691231,0.0044125402,0.65995693,2017-10-26 08:10:47,63.803607557767855
-0.24420857,0.10534488,10.295067,-0.0021816615,-0.009817477,-0.02617994,42.879997,0.4285621,-0.8355764,9.763555,-0.6727707,0.94092125,0.5315128,-0.00905332,0.005147705,0.6595334,2017-10-26 08:10:48,67.83560432354894
-0.1388637,0.05267244,10.151415,-0.009817477,0.006544985,0.0054541538,35.2,0.4261679,-0.8331822,9.763555,-0.5650316,0.8858546,0.3878607,-0.008996058,0.0052253436,0.65983576,2017-10-26 08:10:49,66.94362540261227
-0.21068975,-0.08140286,10.275913,0.0032724924,0.0109083075,-0.0076358155,44.16,0.4237737,-0.8475474,9.76116,-0.6344634,0.7661445,0.51475334,-0.009497693,0.0047977753,0.6595641,2017-10-26 08:10:50,71.00162745066791
-0.16280572,0.07182605,10.218452,0.0010908308,-0.025089107,0.006544985,40.96,0.40940848,-0.8331822,9.763555,-0.5722142,0.90500826,0.45489833,-0.009304859,0.0058073755,0.65983003,2017-10-26 08:10:51,62.33210302365642
-0.20111294,0.076614454,10.0508585,0.0032724924,0.0054541538,-0.0109083075,40.32,0.4261679,-0.8379706,9.763555,-0.62728083,0.91458505,0.2873042,-0.008945413,0.004777223,0.65969384,2017-10-26 08:10:52,60.42184432617976
-0.20111294,-0.047884032,10.055647,0.015271631,-0.011999139,-0.009817477,37.12,0.4285621,-0.8451532,9.76116,-0.62967503,0.79726917,0.29448682,-0.008963721,0.00450717,0.66004044,2017-10-26 08:10:53,68.22202037444751
-0.320823,-0.019153614,10.089166,0.009817477,-0.0032724924,0.0032724924,45.44,0.4357447,-0.8331822,9.763555,-0.7565677,0.81402856,0.32561144,-0.0081951395,0.0045677545,0.6603685,2017-10-26 08:10:54,72.009891297061
-0.15801731,-0.07182605,10.117896,0.0109083075,0.015271631,0.0076358155,36.48,0.45250413,-0.82360536,9.763555,-0.61052144,0.7517793,0.35434186,-0.007522678,0.0042316485,0.6598413,2017-10-26 08:10:55,64.9500498243994
-0.18674773,0.05267244,10.184934,-0.006544985,0.0,-0.004363323,42.239998,0.4429273,-0.81881696,9.763555,-0.62967503,0.8714894,0.4213795,-0.0076117776,0.0047467425,0.65987957,2017-10-26 08:10:56,64.39770418188606
-0.21068975,-0.07182605,9.964667,-0.006544985,0.019634955,0.0054541538,44.8,0.4285621,-0.80445176,9.765948,-0.6392518,0.7326257,0.19871874,-0.007777511,0.005732896,0.6594985,2017-10-26 08:10:58,67.2577283295356
-0.25378537,0.08619126,10.199299,-0.0010908308,-0.009817477,-0.011999139,42.879997,0.4381389,-0.80445176,9.765948,-0.6919243,0.89064306,0.4333505,-0.007552618,0.0051691504,0.65938306,2017-10-26 08:10:59,62.6372607477979
-0.23942018,-0.019153614,10.04607,0.0054541538,-0.006544985,-0.009817477,39.68,0.4213795,-0.79248077,9.765948,-0.6607997,0.7733272,0.2801216,-0.0077222157,0.006109221,0.659679,2017-10-26 08:11:00,53.32039723365624
-0.19153613,-0.019153614,10.266336,0.006544985,0.0032724924,-0.006544985,16.0,0.40222588,-0.79008657,9.768343,-0.59376204,0.770933,0.49799395,-0.008238459,0.006676174,0.6596508,2017-10-26 08:11:01,54.40664230681242
-0.22505496,0.019153614,9.916783,-0.0054541538,0.025089107,0.011999139,16.0,0.40701428,-0.80924016,9.765948,-0.63206923,0.8283938,0.15083471,-0.0089445785,0.005787964,0.65857756,2017-10-26 08:11:02,54.2510216416629
-0.30166942,-0.009576807,10.070012,0.006544985,0.018544123,0.0010908308,14.08,0.39983168,-0.8283938,9.763555,-0.7015011,0.81881696,0.30645782,-0.009894658,0.0051519824,0.6584743,2017-10-26 08:11:03,69.51259529231086
-0.15322891,-0.0047884034,10.180145,0.0109083075,-0.006544985,0.0109083075,15.36,0.40462008,-0.8283938,9.763555,-0.557849,0.82360536,0.4165911,-0.009567961,0.004902794,0.65862715,2017-10-26 08:11:04,60.663360830510136
-0.30166942,0.01436521,10.089166,-0.0032724924,0.0109083075,0.0,16.0,0.3878607,-0.8379706,9.763555,-0.6895301,0.8523358,0.32561144,-0.010399248,0.005205037,0.65841794,2017-10-26 08:11:05,57.15802251887294
-0.14844051,-0.02873042,10.04607,-0.011999139,0.004363323,-0.016362462,17.92,0.4381389,-0.8355764,9.76116,-0.58657944,0.80684596,0.28491,-0.008564159,0.0034190044,0.6573823,2017-10-26 08:11:06,59.05344891267873
-0.22984336,-0.10534488,10.304645,0.0010908308,0.0021816615,-0.004363323,15.36,0.46447513,-0.8355764,9.76116,-0.6943185,0.7302315,0.5434838,-0.0077284146,0.0024264697,0.6575621,2017-10-26 08:11:07,63.61550993482541
-0.29209262,0.033518825,10.151415,-0.006544985,0.023998277,0.0021816615,14.719999,0.45968673,-0.842759,9.76116,-0.7517793,0.8762778,0.39025488,-0.008110572,0.0025442988,0.6580446,2017-10-26 08:11:08,69.34753449415322
-0.23463176,0.076614454,10.0987425,0.004363323,-0.015271631,-0.008726646,14.08,0.48841715,-0.8451532,9.758766,-0.7230489,0.92176765,0.33997664,-0.0073248036,0.0015817219,0.6575593,2017-10-26 08:11:09,72.1319649598504
-0.023942016,-0.05267244,10.247183,0.0,-0.01308997,-0.011999139,16.64,0.48362875,-0.842759,9.758766,-0.50757074,0.79008657,0.48841715,-0.0073500276,0.0019129654,0.65843225,2017-10-26 08:11:10,69.07353043133406
-0.24899697,0.009576807,10.204087,0.0,-0.017453292,0.019634955,19.84,0.45968673,-0.8523358,9.758766,-0.7086837,0.8619126,0.44532153,-0.0083912,0.0026048329,0.65945375,2017-10-26 08:11:11,67.32130423026527
-0.18674773,0.033518825,10.189722,-0.009817477,0.008726646,0.01308997,16.0,0.45010993,-0.8475474,9.76116,-0.6368576,0.8810662,0.4285621,-0.008471161,0.003274504,0.65977526,2017-10-26 08:11:12,68.23001852161319
-0.20111294,-0.01436521,10.084377,-0.004363323,-0.021816615,0.015271631,13.44,0.48841715,-0.8403648,9.758766,-0.6895301,0.82599956,0.32561144,-0.0070584435,0.0022825804,0.65898174,2017-10-26 08:11:13,55.89614125135157
-0.21547815,-0.05267244,9.974244,-0.01308997,-0.004363323,-0.006544985,14.719999,0.49320555,-0.8331822,9.758766,-0.7086837,0.78050977,0.21547815,-0.0066667954,0.0024094926,0.6596033,2017-10-26 08:11:14,62.57931157018759
-0.22505496,-0.033518825,10.1226845,-0.0141808,0.016362462,-0.015271631,15.36,0.47884035,-0.842759,9.758766,-0.7038953,0.80924016,0.36391866,-0.0076823626,0.0027949372,0.6595384,2017-10-26 08:11:15,67.97554315771919
-0.20590134,-0.110133275,10.160992,0.0032724924,0.0054541538,-0.0032724924,17.92,0.45010993,-0.8403648,9.76116,-0.6560113,0.7302315,0.39983168,-0.008734856,0.004144931,0.65882427,2017-10-26 08:11:16,71.46350561318543
-0.19153613,0.0,10.213664,-0.0076358155,0.0,0.01308997,14.719999,0.47165772,-0.8379706,9.76116,-0.6631939,0.8379706,0.45250413,-0.007873286,0.0034273844,0.6596598,2017-10-26 08:11:17,71.13726856163049
-0.29209262,-0.019153614,10.299856,-0.006544985,-0.0010908308,0.0021816615,15.36,0.46208093,-0.8355764,9.76116,-0.7541735,0.81642276,0.5386954,-0.008138476,0.003956672,0.659096,2017-10-26 08:11:18,70.97446221903941
-0.22505496,0.0047884034,10.127473,-0.0054541538,-0.0141808,0.006544985,15.36,0.44771573,-0.8379706,9.76116,-0.6727707,0.842759,0.36631286,-0.008652264,0.00448629,0.6592099,2017-10-26 08:11:19,71.26502669686407
-0.1436521,0.019153614,10.04607,-0.0109083075,-0.0141808,0.004363323,16.0,0.45729253,-0.8379706,9.76116,-0.60094464,0.8571242,0.28491,-0.008270333,0.003987384,0.6598072,2017-10-26 08:11:20,63.56023711722862
-0.20590134,0.02873042,10.151415,0.006544985,0.009817477,0.0076358155,14.08,0.47644615,-0.8403648,9.76116,-0.6823475,0.8690952,0.39025488,-0.0077396045,0.0031859465,0.6600552,2017-10-26 08:11:21,31.460834406517407
-0.2681506,-0.023942016,10.170568,-0.004363323,0.025089107,-0.0032724924,15.36,0.45729253,-0.8499416,9.76116,-0.7254431,0.82599956,0.40940848,-0.008764012,0.0036454704,0.6595728,2017-10-26 08:11:22,31.399931523984343
-0.19153613,0.038307227,10.28549,0.01308997,0.018544123,0.0010908308,16.0,0.47165772,-0.8643068,9.758766,-0.6631939,0.90261406,0.5267244,-0.008728426,0.0027460344,0.66011167,2017-10-26 08:11:23,47.348018290984335
-0.272939,0.033518825,10.266336,-0.011999139,-0.0141808,0.0010908308,17.92,0.48362875,-0.8762778,9.7563715,-0.7565677,0.90979666,0.50996494,-0.008784559,0.0020543784,0.6594729,2017-10-26 08:11:24,66.9589093638916
-0.16280572,-0.08140286,10.261548,-0.0021816615,-0.0032724924,-0.01308997,14.08,0.47165772,-0.8643068,9.758766,-0.6344634,0.78290397,0.50278234,-0.008688871,0.0030934028,0.659706,2017-10-26 08:11:25,69.77239654768002
-0.11971009,0.0047884034,10.132261,0.0021816615,-0.0141808,-0.016362462,14.719999,0.48602295,-0.85473,9.758766,-0.60573304,0.8595184,0.37349546,-0.007699283,0.0029753065,0.66023564,2017-10-26 08:11:26,56.51631942737968
-0.1340753,0.05746084,9.993398,-0.021816615,0.02617994,0.004363323,15.36,0.48602295,-0.8475474,9.758766,-0.62009823,0.90500826,0.23463176,-0.007435048,0.0031985277,0.6604674,2017-10-26 08:11:27,61.00118472389277
-0.19153613,-0.08140286,10.132261,0.0,0.0021816615,-0.0054541538,15.36,0.49799395,-0.866701,9.7563715,-0.6895301,0.78529817,0.37588966,-0.007903025,0.0022069886,0.6599013,2017-10-26 08:11:28,64.97159591889093
-0.23942018,0.038307227,10.204087,-0.0141808,-0.0076358155,-0.0021816615,15.36,0.47884035,-0.8595184,9.758766,-0.6655881,0.90261406,0.35913026,-0.008383088,0.0032952568,0.659693,2017-10-26 08:11:29,67.46274651274776
-0.15322891,-0.047884032,10.117896,-0.008726646,-0.0032724924,0.0109083075,14.719999,0.45729253,-0.8619126,9.758766,-0.61052144,0.81402856,0.35913026,-0.009029983,0.0040999986,0.6602746,2017-10-26 08:11:30,51.55565376636553
-0.14844051,-0.0047884034,10.160992,-0.011999139,-0.0032724924,0.0032724924,14.08,0.46686932,-0.8643068,9.758766,-0.61530983,0.8595184,0.40222588,-0.008831099,0.0036563622,0.6602064,2017-10-26 08:11:31,67.44283620625541
-0.24420857,-0.02873042,10.242394,0.017453292,-0.022907447,0.009817477,17.279999,0.45250413,-0.8571242,9.758766,-0.6967127,0.8283938,0.48362875,-0.00893827,0.004342408,0.6601367,2017-10-26 08:11:32,70.25611218442559
-0.16280572,0.038307227,10.208876,0.004363323,0.0010908308,-0.006544985,16.0,0.4261679,-0.866701,9.76116,-0.58897364,0.90500826,0.44771573,-0.009930998,0.004935099,0.66171813,2017-10-26 08:11:33,46.248060471054224
-0.18674773,-0.06703765,10.247183,-0.0076358155,-0.004363323,0.017453292,16.64,0.4405331,-0.8690952,9.758766,-0.62728083,0.80205756,0.48841715,-0.009228302,0.0041370094,0.6626315,2017-10-26 08:11:34,60.36589931726163
-0.25857377,-0.062249243,10.13705,-0.011999139,-0.011999139,0.0,14.719999,0.45010993,-0.8810662,9.758766,-0.7086837,0.81881696,0.37828386,-0.009328064,0.0033418862,0.66240346,2017-10-26 08:11:35,64.33161434438856
-0.16280572,0.04309563,10.146626,0.0,-0.0021816615,-0.011999139,14.719999,0.45250413,-0.8762778,9.758766,-0.61530983,0.91937345,0.3878607,-0.008990504,0.0035177516,0.66203797,2017-10-26 08:11:36,70.97193649837416
-0.25378537,-0.10534488,10.1226845,0.0010908308,0.017453292,-0.0109083075,16.64,0.45010993,-0.8762778,9.758766,-0.7038953,0.770933,0.36391866,-0.008988569,0.0035356013,0.6624299,2017-10-26 08:11:37,72.54571046891327
-0.17238252,-0.023942016,10.352529,-0.0021816615,-0.0109083075,-0.004363323,16.0,0.45250413,-0.866701,9.758766,-0.62488663,0.842759,0.59376204,-0.008448318,0.0038347961,0.662422,2017-10-26 08:11:38,69.0074712726111
-0.2873042,-0.1388637,10.247183,0.0141808,0.0109083075,0.0054541538,16.0,0.4189853,-0.8643068,9.76116,-0.7062895,0.7254431,0.48602295,-0.009413578,0.005092522,0.6632895,2017-10-26 08:11:39,67.75530163225908
-0.22026655,-0.0047884034,10.113108,0.0032724924,0.0021816615,-0.006544985,15.36,0.4405331,-0.8595184,9.76116,-0.6607997,0.85473,0.35194764,-0.008564539,0.0045043463,0.6623331,2017-10-26 08:11:40,66.52039092619832
-0.22505496,-0.06703765,10.280702,-0.011999139,0.020725785,0.004363323,14.719999,0.4381389,-0.8690952,9.758766,-0.6631939,0.80205756,0.521936,-0.009057514,0.004208464,0.6619702,2017-10-26 08:11:41,43.56193139551712
-0.19632454,0.05267244,10.251971,0.0,-0.04363323,-0.023998277,14.719999,0.4429273,-0.878672,9.758766,-0.6392518,0.93134445,0.49320555,-0.009187775,0.0037219757,0.66229606,2017-10-26 08:11:42,55.04516196835996
-0.23463176,-0.07182605,10.127473,0.01308997,-0.008726646,-0.009817477,15.36,0.44532153,-0.8882488,9.7563715,-0.6799533,0.81642276,0.37110126,-0.009356482,0.0032853605,0.6628657,2017-10-26 08:11:43,49.930395627902826
-0.23942018,-0.04309563,10.28549,0.0032724924,-0.022907447,0.0021816615,16.0,0.4285621,-0.89064306,9.758766,-0.6679823,0.8475474,0.5267244,-0.009753158,0.0038654637,0.66304076,2017-10-26 08:11:44,46.76510538778275
-0.2633622,-0.06703765,10.127473,-0.004363323,0.02617994,0.0021816615,16.0,0.4237737,-0.8810662,9.758766,-0.6871359,0.81402856,0.36870706,-0.009479666,0.0043737534,0.66233414,2017-10-26 08:11:46,59.5076037759093
-0.11492168,-0.02873042,10.189722,-0.0021816615,-0.006544985,-0.004363323,15.36,0.45968673,-0.8738836,9.758766,-0.5746084,0.8451532,0.4309563,-0.008115904,0.003357293,0.6613254,2017-10-26 08:11:47,67.99165958142054
-0.20590134,-0.06703765,10.151415,0.0076358155,0.0109083075,0.019634955,18.56,0.46686932,-0.8643068,9.758766,-0.6727707,0.79726917,0.39264908,-0.0074888375,0.003478011,0.66182864,2017-10-26 08:11:48,70.04346953068382
-0.272939,-0.038307227,10.19451,-0.0032724924,0.011999139,0.023998277,14.719999,0.4429273,-0.866701,9.758766,-0.7158663,0.8283938,0.4357447,-0.008431228,0.0042255726,0.6617891,2017-10-26 08:11:49,67.2120319365628
-0.22026655,-0.06703765,10.184934,-0.0076358155,0.0076358155,-0.006544985,15.36,0.44532153,-0.8714894,9.758766,-0.6655881,0.80445176,0.4261679,-0.008498114,0.003954107,0.6618205,2017-10-26 08:11:50,71.14093034968435
-0.20111294,-0.01436521,10.041282,-0.0021816615,0.016362462,-0.011999139,18.56,0.47165772,-0.878672,9.7563715,-0.6727707,0.8643068,0.28491,-0.008019062,0.002806032,0.66146755,2017-10-26 08:11:51,59.17265132005977
-0.23463176,-0.0047884034,10.0987425,0.0032724924,0.0054541538,0.0010908308,16.0,0.46447513,-0.89064306,9.7563715,-0.6991069,0.8858546,0.34237084,-0.008649636,0.0027937097,0.6614777,2017-10-26 08:11:52,65.52830546101256
-0.17717093,-0.12449849,10.362105,0.004363323,-0.0032724924,-0.01308997,17.92,0.44532153,-0.8858546,9.7563715,-0.62249243,0.7613561,0.60573304,-0.009062855,0.003699283,0.6616028,2017-10-26 08:11:53,65.22579298626415
-0.24420857,0.07182605,10.089166,0.004363323,-0.0076358155,-0.016362462,14.719999,0.45729253,-0.866701,9.758766,-0.7015011,0.93852705,0.33039984,-0.007986344,0.003991332,0.66105,2017-10-26 08:11:54,31.61192002433905
-0.16759412,-0.0047884034,9.993398,-0.0032724924,0.0109083075,0.0032724924,14.719999,0.46208093,-0.8714894,9.758766,-0.62967503,0.866701,0.23463176,-0.008060735,0.0036541093,0.6613248,2017-10-26 08:11:55,46.04235117671805
-0.20111294,0.0,10.113108,0.011999139,0.004363323,0.0010908308,16.64,0.4357447,-0.89543146,9.7563715,-0.6368576,0.89543146,0.35673606,-0.009728875,0.003812991,0.6617435,2017-10-26 08:11:56,66.4100758744849
-0.17238252,-0.019153614,10.175357,-0.0054541538,0.004363323,-0.01308997,16.0,0.4165911,-0.90261406,9.7563715,-0.58897364,0.8834604,0.4189853,-0.010648398,0.004325063,0.6617139,2017-10-26 08:11:57,60.785038786107236
-0.18195933,0.023942016,10.141838,0.0010908308,0.009817477,0.0021816615,18.56,0.40940848,-0.90021986,9.758766,-0.59136784,0.92416185,0.38307226,-0.010719398,0.004581989,0.6609976,2017-10-26 08:11:58,64.8586853301279
-0.20590134,0.019153614,10.084377,-0.0010908308,0.006544985,-0.009817477,14.08,0.4189853,-0.92895025,9.753978,-0.62488663,0.94810385,0.33039984,-0.011212932,0.0031924872,0.66079164,2017-10-26 08:11:59,68.89004330087643
-0.18674773,0.009576807,10.0748005,-0.0010908308,0.0,0.0,16.0,0.4261679,-0.92176765,9.753978,-0.61291564,0.93134445,0.320823,-0.0105367005,0.003259831,0.66079676,2017-10-26 08:12:00,71.03715555624217
-0.25378537,0.04309563,10.237606,0.0032724924,0.0141808,-0.022907447,16.0,0.4237737,-0.91937345,9.753978,-0.6775591,0.9624691,0.48362875,-0.010376051,0.003439825,0.66077757,2017-10-26 08:12:01,64.01293465968715
-0.17717093,0.019153614,10.089166,0.017453292,0.015271631,0.004363323,14.08,0.40701428,-0.91458505,9.7563715,-0.58418524,0.93373865,0.33279404,-0.010467198,0.0042700972,0.66154814,2017-10-26 08:12:02,69.27431184952933
-0.16280572,0.02873042,10.218452,-0.0021816615,0.0,0.0,16.0,0.4141969,-0.91697925,9.7563715,-0.5770026,0.94570965,0.46208093,-0.010289222,0.0039299773,0.66054773,2017-10-26 08:12:03,71.60318719457175
-0.17238252,0.0,10.151415,-0.0021816615,-0.0032724924,-0.0141808,16.0,0.4261679,-0.92176765,9.753978,-0.59855044,0.92176765,0.39743748,-0.009924874,0.003278301,0.6607032,2017-10-26 08:12:04,69.41599248354603
-0.21547815,-0.05746084,10.28549,-0.019634955,0.0010908308,0.0021816615,15.36,0.40940848,-0.92176765,9.7563715,-0.62488663,0.8643068,0.5291186,-0.010201871,0.0039177043,0.66148657,2017-10-26 08:12:05,68.24261339145343
-0.08140286,-0.02873042,10.0987425,-0.0054541538,0.021816615,0.0010908308,16.0,0.40462008,-0.91697925,9.7563715,-0.48602295,0.8882488,0.34237084,-0.010033468,0.0042027086,0.6615646,2017-10-26 08:12:06,60.45169458756473
-0.21068975,0.02873042,10.146626,-0.004363323,-0.008726646,0.015271631,16.0,0.4213795,-0.90740246,9.7563715,-0.63206923,0.93613285,0.39025488,-0.009127282,0.0038660737,0.6613543,2017-10-26 08:12:07,66.4649532708629
-0.22984336,-0.08619126,10.19451,-0.0021816615,0.016362462,0.009817477,15.36,0.4381389,-0.91697925,9.753978,-0.6679823,0.830788,0.4405331,-0.0088217,0.0029671853,0.66110843,2017-10-26 08:12:08,33.34100806338625
-0.23942018,-0.090979666,10.156203,0.004363323,-0.01308997,-0.004363323,15.36,0.45250413,-0.92655605,9.753978,-0.6919243,0.8355764,0.40222588,-0.008795906,0.002253158,0.66113204,2017-10-26 08:12:09,62.66284723446635
-0.17238252,-0.12449849,10.127473,0.0032724924,0.009817477,0.011999139,15.36,0.4213795,-0.93134445,9.753978,-0.59376204,0.80684596,0.37349546,-0.009858875,0.003292567,0.66154563,2017-10-26 08:12:10,69.8797943798179
-0.110133275,-0.10055647,10.103531,0.006544985,0.0141808,0.0010908308,14.719999,0.44771573,-0.93134445,9.753978,-0.557849,0.830788,0.34955344,-0.008899597,0.0024453448,0.6616823,2017-10-26 08:12:11,68.09508170142932
-0.20590134,-0.08619126,10.223241,0.0032724924,-0.0076358155,-0.01308997,16.0,0.4357447,-0.92655605,9.753978,-0.641646,0.8403648,0.46926352,-0.009175625,0.003154547,0.66091764,2017-10-26 08:12:12,73.512484126377
-0.24420857,0.009576807,10.242394,0.0010908308,0.0021816615,0.023998277,17.279999,0.4333505,-0.92176765,9.753978,-0.6775591,0.93134445,0.48841715,-0.009046398,0.0034620129,0.66106826,2017-10-26 08:12:13,66.30121269624757
-0.23463176,0.009576807,10.0987425,0.006544985,0.0076358155,-0.01308997,16.64,0.4429273,-0.93613285,9.753978,-0.6775591,0.94570965,0.34476504,-0.009104824,0.0026602065,0.661314,2017-10-26 08:12:14,60.756559239319174
-0.15322891,-0.019153614,10.16578,0.006544985,-0.0141808,-0.0010908308,15.36,0.4429273,-0.92416185,9.753978,-0.59615624,0.90500826,0.41180268,-0.008602871,0.0030823909,0.6612912,2017-10-26 08:12:15,31.959670734686192
-0.17238252,0.02873042,10.275913,-0.015271631,0.009817477,0.021816615,18.56,0.47165772,-0.90740246,9.753978,-0.6440403,0.93613285,0.521936,-0.0070398813,0.002665503,0.66105604,2017-10-26 08:12:16,57.9870324069902
-0.23942018,0.01436521,10.055647,-0.0010908308,-0.004363323,-0.015271631,14.08,0.46208093,-0.89064306,9.7563715,-0.7015011,0.90500826,0.29927522,-0.00698502,0.003686876,0.66078854,2017-10-26 08:12:17,64.92873233108986
-0.22984336,-0.1436521,10.132261,-0.011999139,-0.022907447,-0.004363323,15.36,0.46447513,-0.89064306,9.7563715,-0.6943185,0.7469909,0.37588966,-0.007017195,0.003573495,0.66047335,2017-10-26 08:12:18,53.21430751653563
-0.12928689,0.04309563,10.132261,0.0,0.006544985,0.004363323,17.279999,0.49559975,-0.8882488,9.753978,-0.62488663,0.93134445,0.37828386,-0.0060683116,0.0025581578,0.6607557,2017-10-26 08:12:19,51.30679975288153
-0.22026655,-0.02873042,10.156203,-0.0109083075,-0.008726646,-0.0054541538,15.36,0.51714754,-0.89064306,9.753978,-0.7374141,0.8619126,0.40222588,-0.0056035286,0.0017331969,0.66060936,2017-10-26 08:12:20,51.25224491473685
-0.23942018,0.023942016,10.132261,-0.0141808,-0.004363323,-0.0021816615,16.64,0.50517654,-0.89064306,9.753978,-0.7445967,0.91458505,0.37828386,-0.0063559096,0.0024234988,0.65997595,2017-10-26 08:12:21,52.92560064554452
-0.23463176,-0.01436521,10.084377,0.0076358155,0.02617994,0.009817477,16.0,0.49799395,-0.89303726,9.753978,-0.7326257,0.878672,0.33039984,-0.006854765,0.0026872326,0.6599951,2017-10-26 08:12:22,58.93382864856594
-0.23942018,0.0047884034,10.189722,-0.004363323,0.008726646,-0.0054541538,15.36,0.49559975,-0.90500826,9.753978,-0.7350199,0.90979666,0.4357447,-0.007513973,0.002497049,0.66010445,2017-10-26 08:12:23,55.453971076357355
-0.23463176,-0.023942016,10.141838,0.0010908308,0.0076358155,-0.0054541538,18.56,0.50996494,-0.8858546,9.753978,-0.7445967,0.8619126,0.3878607,-0.0065401215,0.0027434602,0.65988624,2017-10-26 08:12:24,67.25172111701144
-0.17717093,0.019153614,10.13705,0.0,0.009817477,-0.011999139,15.36,0.5243302,-0.8690952,9.753978,-0.7015011,0.8882488,0.38307226,-0.005567463,0.002911782,0.659795,2017-10-26 08:12:25,70.859416594675
-0.25378537,-0.07182605,10.175357,0.0010908308,0.029452432,0.011999139,15.36,0.5291186,-0.8619126,9.7563715,-0.78290397,0.79008657,0.4189853,-0.0054130405,0.003115598,0.65922403,2017-10-26 08:12:26,70.63221235002058
-0.22984336,-0.033518825,10.103531,-0.006544985,-0.015271631,-0.004363323,15.36,0.51954174,-0.8523358,9.7563715,-0.7493851,0.81881696,0.34715924,-0.0055540865,0.0037437398,0.6600901,2017-10-26 08:12:27,63.898387586465226
-0.25378537,0.07182605,10.022128,-0.006544985,-0.0032724924,0.009817477,16.0,0.51714754,-0.8595184,9.7563715,-0.770933,0.93134445,0.2657564,-0.006035312,0.0036291974,0.66029555,2017-10-26 08:12:28,72.43906312814391
-0.24420857,-0.033518825,10.184934,0.006544985,-0.02727077,-0.022907447,17.279999,0.5554548,-0.8523358,9.753978,-0.79966336,0.81881696,0.4309563,-0.0047828397,0.002470591,0.65978295,2017-10-26 08:12:29,50.615939045356185
-0.34476504,-0.14844051,10.208876,-0.009817477,0.0,0.0010908308,15.36,0.5434838,-0.85473,9.7563715,-0.8882488,0.7062895,0.45250413,-0.005464308,0.0029044095,0.6602729,2017-10-26 08:12:30,64.01493427805106
-0.20590134,-0.090979666,10.19451,0.0,-0.0109083075,-0.0032724924,16.0,0.521936,-0.8451532,9.7563715,-0.7278373,0.7541735,0.4381389,-0.0060789045,0.0041285167,0.66005594,2017-10-26 08:12:31,63.76975780220477
-0.30645782,-0.08619126,10.132261,0.0076358155,-0.0054541538,-0.0021816615,16.0,0.51714754,-0.8403648,9.758766,-0.82360536,0.7541735,0.37349546,-0.0063818935,0.004497689,0.65942556,2017-10-26 08:12:32,65.09243441817677
-0.22984336,0.023942016,10.16578,-0.0010908308,-0.015271631,-0.0010908308,15.36,0.51714754,-0.830788,9.758766,-0.7469909,0.85473,0.40701428,-0.0062174685,0.0047510667,0.6588096,2017-10-26 08:12:33,66.86820020139481
-0.11971009,-0.033518825,10.323798,-0.017453292,0.0141808,0.019634955,14.719999,0.47644615,-0.830788,9.76116,-0.59615624,0.79726917,0.5626374,-0.007696053,0.0061917137,0.6586247,2017-10-26 08:12:35,68.65077061380275
