ACC_X,ACC_Y,ACC_Z,GYRO_X,GYRO_Y,GYRO_Z,LIGH_1,GRAV_X,GRAV_Y,GRAV_Z,LINACC_X,LINACC_Y,LINACC_Z,ROTVEC_X,ROTVEC_Y,ROTVEC_Z,TIME,VOICE
1.6735687,2.5794373,9.392334,0.049240112,0.04219055,0.015731812,197.0,1.6230596,2.6119187,9.312033,0.045683503,-0.040247202,0.052615166,0.15909308,-9.4444636E-4,0.51389384,2017-03-11 12:39:03,44.525569647766865
1.4414673,1.9632874,10.001312,-1.0466309,-0.34143066,-0.17851257,193.0,1.2286206,1.9124309,9.539575,0.19375432,0.7570895,1.6360779,0.116682746,-0.0014808926,0.5261687,2017-03-11 12:39:04,46.73819864892841
-1.0111847,3.428894,10.624634,0.487854,0.06417847,-0.22496033,221.0,-0.41884202,3.5400877,9.135794,-0.6762418,0.11467099,1.2785892,0.15148127,0.07793934,0.36043397,2017-03-11 12:39:05,50.23066094970639
1.5132446,3.3295898,9.3038025,-0.2354126,-0.39883423,-0.003829956,214.0,0.7373229,3.755157,9.029149,-0.7349834,-0.14751029,0.4229021,0.18820533,0.064963564,0.49223933,2017-03-11 12:39:06,44.58141289400507
1.0861359,3.0568085,8.972397,-0.08024597,0.16802979,-0.0074768066,204.0,0.98045737,3.1629164,9.230658,0.16969532,-0.101630926,-0.070254326,0.16613756,0.0420206,0.5135461,2017-03-11 12:39:07,41.55334946033065
-1.9958191,3.7028656,8.682861,-0.64346313,0.5027771,0.9881897,208.0,-2.930919,6.040804,7.1476426,0.9663696,-2.4023876,1.458961,0.12334372,0.34692648,0.65219986,2017-03-11 12:39:08,47.66685148587483
-6.314865,7.1545105,0.48146057,0.13964844,0.44169617,-0.47418213,75.0,-6.1311927,7.6388755,-0.47587085,0.04306507,-0.20358515,-0.4705588,0.34428707,0.6369687,0.26791424,2017-03-11 12:39:09,50.29486758208243
-0.91426086,-0.9164734,-9.234589,0.27893066,1.5791168,0.06825256,10.0,-1.0729165,-0.5285252,-9.733443,-0.22971034,-0.38240814,-2.5361118,0.29973745,0.9520635,-0.042209763,2017-03-11 12:39:10,44.73902430331431
1.5192261,-0.16871643,-9.247757,0.006500244,0.0067596436,-0.003829956,19.0,1.5874184,-0.42035958,-9.668185,0.012947917,0.14863399,0.09471893,-0.33740747,-0.9376014,-0.00726461,2017-03-11 12:39:11,44.28211052199151
1.5288086,-0.1890564,-9.40448,0.005279541,0.001876831,-0.003829956,19.0,1.5921166,-0.23637351,-9.673659,-0.0018755198,0.05149263,0.043729782,-0.37180328,-0.92465216,-0.019167604,2017-03-11 12:39:12,45.389229586718486
1.5407715,-0.18547058,-9.452347,0.005279541,0.001876831,-0.003829956,19.0,1.5868869,-0.20785515,-9.675173,-0.0028938055,0.017038524,-0.046689987,-0.3900495,-0.91714185,-0.02198478,2017-03-11 12:39:13,44.47622540947302
1.5742645,-0.18188477,-9.397308,0.005279541,0.0043182373,-0.003829956,19.0,1.6253444,-0.19410627,-9.669072,-0.0035026073,0.018930733,-0.027031898,-0.40176773,-0.9119036,-0.02444093,2017-03-11 12:39:14,43.458435841512966
1.5563202,-0.18307495,-9.442764,0.005279541,0.001876831,-0.003829956,19.0,1.6150925,-0.18530117,-9.670963,-0.012445927,0.022713378,-0.009795189,-0.40654874,-0.90983516,-0.025055448,2017-03-11 12:39:15,43.423595061211124
1.5479431,-0.18786621,-9.493027,0.0028381348,0.0055236816,-0.003829956,19.0,1.5944313,-0.21980326,-9.673668,-0.029008746,0.031350568,2.07901E-4,-0.40733552,-0.909559,-0.023076855,2017-03-11 12:39:16,45.28361009320431
1.539566,-0.18666077,-9.482254,0.004043579,0.0043182373,-0.0050354004,19.0,1.5797837,-0.20224431,-9.6764555,-0.0037287474,0.010277331,-0.02255249,-0.40849268,-0.9091235,-0.023699043,2017-03-11 12:39:17,49.97926008888656
1.5407715,-0.1770935,-9.471481,0.004043579,0.0055236816,-0.0050354004,19.0,1.5920659,-0.19346878,-9.674621,-0.013779759,0.018140018,-0.035448074,-0.4089774,-0.90884864,-0.02439703,2017-03-11 12:39:18,44.709351241136844
1.5359802,-0.17948914,-9.430801,0.005279541,0.0030822754,-0.0050354004,19.0,1.5861868,-0.20468971,-9.675355,-0.009061694,0.019891039,-0.0064201355,-0.4092138,-0.9087628,-0.023769379,2017-03-11 12:39:19,48.74620955189519
1.5323944,-0.16513062,-9.447556,0.005279541,0.0030822754,-0.003829956,19.0,1.5920143,-0.20372352,-9.674418,-0.014187932,0.013052329,0.0038223267,-0.4093292,-0.9086846,-0.02394825,2017-03-11 12:39:20,53.15243103355311
1.5491486,-0.16871643,-9.40448,0.004043579,0.0043182373,-0.003829956,19.0,1.5961211,-0.1980922,-9.673859,-0.009001851,0.021525308,-0.010177612,-0.4092399,-0.9087091,-0.024290342,2017-03-11 12:39:21,43.431301461704386
1.5455475,-0.17829895,-9.459518,0.005279541,0.001876831,-0.003829956,19.0,1.5925647,-0.19262955,-9.674555,-0.009529352,0.0012904555,-0.006772995,-0.40896124,-0.90885407,-0.024445362,2017-03-11 12:39:22,43.90909921486043
1.5515289,-0.16992188,-9.397308,0.0016021729,0.0067596436,-0.003829956,19.0,1.5999411,-0.19097911,-9.673371,-0.011261582,0.011276603,0.06923199,-0.4090924,-0.9087618,-0.024690386,2017-03-11 12:39:23,42.40145263295158
1.5742645,-0.15795898,-9.433197,-7.6293945E-5,0.0013885498,4.119873E-4,19.0,1.6055651,-0.16836172,-9.672859,-0.0060966015,-0.00210765,0.0132780075,-0.4084591,-0.9090323,-0.02580976,2017-03-11 12:39:24,43.7789409299371
1.5539246,-0.17111206,-9.408081,0.0011444092,-0.0010528564,-7.9345703E-4,19.0,1.6052634,-0.16482854,-9.67297,-0.008135319,-0.010719657,0.0045547485,-0.40833038,-0.90909326,-0.02595704,2017-03-11 12:39:25,48.59075051934532
1.5515289,-0.18307495,-9.415253,-0.0013122559,0.0013885498,4.119873E-4,19.0,1.5970274,-0.17507006,-9.674152,0.0010983944,-0.011765286,-0.012087822,-0.40846464,-0.9090741,-0.02522139,2017-03-11 12:39:26,46.70239748665008
1.5515289,-0.16273499,-9.396118,-7.6293945E-5,-0.0010528564,4.119873E-4,19.0,1.6001958,-0.16772975,-9.673759,-0.0053691864,5.378574E-4,0.010544777,-0.4092382,-0.9087029,-0.025802856,2017-03-11 12:39:27,44.33415800643995
1.5575256,-0.17590332,-9.415253,-7.6293945E-5,1.5258789E-4,4.119873E-4,19.0,1.6014082,-0.15952244,-9.673698,6.968975E-4,0.0069423616,-5.531311E-5,-0.40942463,-0.9086214,-0.0262167,2017-03-11 12:39:28,43.915711870173695
1.559906,-0.16033936,-9.417648,-7.6293945E-5,-0.0010528564,-7.9345703E-4,19.0,1.5981413,-0.16404642,-9.674163,-0.014197707,-0.01377064,-0.015563011,-0.41022295,-0.9082743,-0.026004821,2017-03-11 12:39:29,44.3157889774945
1.5515289,-0.16033936,-9.411667,-7.6293945E-5,1.5258789E-4,4.119873E-4,19.0,1.6023964,-0.16143155,-9.673502,-0.008121371,-0.0032142103,0.0037822723,-0.41024113,-0.90824753,-0.026218947,2017-03-11 12:39:30,42.89028026192837
1.5635071,-0.15316772,-9.430801,-7.6293945E-5,1.5258789E-4,4.119873E-4,19.0,1.5978281,-0.15808691,-9.674314,-9.723902E-4,0.010595173,0.01613903,-0.4100089,-0.90837514,-0.026257508,2017-03-11 12:39:32,41.86240893680119
1.5587158,-0.15435791,-9.422424,1.5258789E-5,0.0012969971,6.713867E-4,19.0,1.6012174,-0.15939029,-9.673732,-0.0032037497,0.0069835186,-0.006468773,-0.41014048,-0.9082994,-0.026280284,2017-03-11 12:39:33,43.545851387015674
1.5646973,-0.14001465,-9.416443,-0.0012207031,6.1035156E-5,-5.340576E-4,19.0,1.5975829,-0.15967129,-9.674329,0.01265192,-0.0020017326,-0.009029388,-0.4100574,-0.9083537,-0.026182601,2017-03-11 12:39:34,47.045607597333614
1.5575256,-0.15197754,-9.42363,1.5258789E-5,6.1035156E-5,6.713867E-4,19.0,1.6005894,-0.16283084,-9.673779,-9.198189E-4,0.005308643,-0.010383606,-0.41022676,-0.90825784,-0.026190214,2017-03-11 12:39:35,44.920660628267875
1.5527344,-0.15795898,-9.400894,1.5258789E-5,0.0012969971,6.713867E-4,19.0,1.6044599,-0.16132045,-9.673162,-0.008748174,-0.0016368628,0.010550499,-0.41027844,-0.9082194,-0.026311,2017-03-11 12:39:36,42.18268461013923
1.5706787,-0.14718628,-9.355438,0.0012359619,6.1035156E-5,-5.340576E-4,19.0,1.615485,-0.16216809,-9.671313,0.004532337,0.010029018,0.020503044,-0.41059974,-0.908024,-0.026494822,2017-03-11 12:39:37,41.71519035826275
1.5658875,-0.15914917,-9.42482,1.5258789E-5,6.1035156E-5,6.713867E-4,19.0,1.6072711,-0.1573689,-9.672761,0.0044157505,0.014193475,-0.015655518,-0.41022497,-0.908234,-0.02651081,2017-03-11 12:39:38,43.0606856546612
1.559906,-0.15316772,-9.446365,-0.0012207031,0.0012969971,-5.340576E-4,19.0,1.6055574,-0.15670659,-9.673057,-0.013154149,-3.3292174E-4,-0.011097908,-0.41015846,-0.9082723,-0.026499407,2017-03-11 12:39:39,43.75766603827685
1.5587158,-0.14239502,-9.40448,1.5258789E-5,6.1035156E-5,6.713867E-4,19.0,1.6009558,-0.15181093,-9.673897,0.0027450323,0.0024563372,-0.011598587,-0.40987203,-0.9084252,-0.026604906,2017-03-11 12:39:40,41.89215415091189
1.6017914,-0.20939636,-9.353043,0.002456665,-0.0060424805,-5.340576E-4,19.0,1.5608728,-0.18719254,-9.679825,0.072124004,-0.024626553,0.12070656,-0.4101763,-0.9084443,-0.024097146,2017-03-11 12:39:41,43.33419279989927
1.5012817,-0.18067932,-9.410461,1.5258789E-5,0.0012969971,-5.340576E-4,19.0,1.5541117,-0.18884303,-9.6808815,0.010674834,0.007231295,0.011269569,-0.40995216,-0.9085851,-0.023888685,2017-03-11 12:39:42,44.643719085281205
1.5096588,-0.1842804,-9.451141,1.5258789E-5,-0.0011444092,-5.340576E-4,19.0,1.5573215,-0.18973781,-9.680347,-0.0083504915,6.6778064E-4,-0.015158653,-0.41006613,-0.9085187,-0.0239249,2017-03-11 12:39:43,43.34341801593225
1.5192261,-0.19026184,-9.416443,1.5258789E-5,-0.0011444092,-5.340576E-4,19.0,1.5545853,-0.19193658,-9.680744,-0.0049905777,-0.002050504,0.02517891,-0.41007197,-0.90852714,-0.023764709,2017-03-11 12:39:44,41.26218695902967
1.4893188,-0.1615448,-9.378159,1.5258789E-5,6.1035156E-5,6.713867E-4,19.0,1.534837,-0.1949066,-9.683836,9.319782E-4,0.0073010325,0.07099247,-0.40966403,-0.90879786,-0.023172168,2017-03-11 12:39:45,43.72603338350039
1.4953003,-0.19384766,-9.44397,-0.0012207031,6.1035156E-5,6.713867E-4,19.0,1.5412582,-0.19654717,-9.682782,0.00665164,-0.008311629,-0.034088135,-0.40988773,-0.90866745,-0.023250898,2017-03-11 12:39:46,61.71906811542284
0.7678833,0.40675354,-9.38176,-0.40315247,-0.10131836,0.12895203,21.0,1.5114701,0.20010404,-9.687405,-0.1801883,-0.0054070354,-0.8143091,-0.41861153,-0.90481186,-0.041744795,2017-03-11 12:39:47,65.61945223584269
-1.5112762,0.36367798,4.649765,-7.4561768,-4.3443756,-3.016983,89.0,-6.791387,6.835334,1.8236344,5.0297422,-6.2196674,2.8933601,0.30035466,0.5628566,0.22641674,2017-03-11 12:39:48,43.5218499117012
-0.2885437,-0.013183594,9.947464,1.5258789E-5,-0.0011444092,-5.340576E-4,173.0,-0.18234912,-0.118102655,9.804243,-0.09617226,0.11478105,0.18335915,-0.008148002,0.0075048353,0.24906135,2017-03-11 12:39:49,45.741061227876514
-0.27539063,-0.0024261475,10.002502,1.5258789E-5,6.1035156E-5,-5.340576E-4,181.0,-0.26807743,-0.00584521,9.802983,-0.0037428439,0.0041215452,0.031033516,-0.0046122167,0.0128168035,0.3157995,2017-03-11 12:39:50,50.54774197601371
-0.272995,-0.0024261475,9.974991,-0.0012207031,6.1035156E-5,-5.340576E-4,184.0,-0.27156195,0.0013620746,9.80289,0.0015685558,9.820128E-4,-0.011517525,-0.0048181205,0.01298205,0.35261044,2017-03-11 12:39:51,49.97960712826647
-0.28614807,-0.0048065186,9.928329,1.5258789E-5,6.1035156E-5,-5.340576E-4,176.0,-0.27666685,-0.0025252495,9.802747,0.009786099,0.007564562,-0.021733284,-0.0050945473,0.013156114,0.35254735,2017-03-11 12:39:52,56.529285205273695
-0.27418518,-3.0517578E-5,9.911575,1.5258789E-5,6.1035156E-5,-5.340576E-4,177.0,-0.27452955,-0.0010868044,9.802807,-0.0050839186,-0.012085116,-1.1253357E-4,-0.004987919,0.013079803,0.35257947,2017-03-11 12:39:53,46.138124155249855
-0.277771,0.008346558,9.898422,0.0012359619,6.1035156E-5,-5.340576E-4,179.0,-0.27149346,0.0011006912,9.802891,-0.0036517382,0.0072352206,7.209778E-4,-0.004829503,0.01297403,0.35262072,2017-03-11 12:39:54,47.41508232982977
0.84924316,0.34931946,7.920746,3.0469666,1.5492096,2.07576,229.0,1.1059511,0.69831157,9.719034,-0.5636312,-0.100260556,-1.9512091,0.06488141,-0.03655255,0.679506,2017-03-11 12:39:55,47.91563749314497
0.72361755,-0.93203735,10.327927,1.200943,-1.1446686,1.0409546,218.0,1.0544297,-0.37714005,9.742501,-0.83781564,-1.403247,-0.6622782,0.036509413,-0.04401984,0.8589119,2017-03-11 12:39:56,44.5840418767433
-0.17248535,-0.06463623,9.97139,-0.0073242188,0.008621216,7.6293945E-5,16.0,-0.10231979,0.13861087,9.805137,-0.055329487,-0.15417919,0.04734993,-0.0020701215,0.008537054,0.921803,2017-03-11 12:39:57,42.76612718260453
-0.19163513,-0.061050415,9.923538,0.0012207031,-0.0011444092,7.6293945E-5,14.0,-0.18331496,-0.047815666,9.80482,-0.0043629557,-0.0056405365,-0.058128357,-0.009463524,0.00193655,0.8973384,2017-03-11 12:39:58,45.91963427960199
-0.1736908,-0.03831482,9.82663,0.0012207031,6.1035156E-5,7.6293945E-5,147.0,-0.17707121,-0.040799744,9.804967,0.0063552707,-0.006674636,0.026575089,-0.008927705,0.0024774268,0.8789078,2017-03-11 12:39:59,61.6183798720908
-0.18565369,-0.028747559,9.921143,0.0012207031,6.1035156E-5,7.6293945E-5,65.0,-0.18068984,-0.036657758,9.804916,-0.0035413802,0.008198783,0.039037704,-0.008966061,0.0028254474,0.8749246,2017-03-11 12:40:00,45.54900261777124
-0.17608643,-0.049072266,9.88765,0.0,6.1035156E-5,7.6293945E-5,97.0,-0.17700082,-0.038944956,9.804975,-0.0047038645,0.0057631843,-0.008166313,-0.00885793,0.0026323544,0.87492466,2017-03-11 12:40:01,44.70972934186644
-0.18086243,-0.039505005,9.880463,1.0681152E-4,5.79834E-4,-0.0012054443,141.0,-0.17781031,-0.035962712,9.804972,0.005487621,0.009887483,-0.0011405945,-0.008820109,0.0027863646,0.8748708,2017-03-11 12:40:02,46.45323034128243
-0.1736908,-0.044296265,9.88765,-0.0011138916,5.79834E-4,-0.0012054443,159.0,-0.17946638,-0.03711881,9.804937,-0.003662467,0.0026658513,0.010985374,-0.008922817,0.0027747995,0.87491816,2017-03-11 12:40:03,46.35366785087939
-0.16770935,-0.028747559,9.905594,-0.0011138916,5.79834E-4,3.0517578E-5,144.0,-0.17738731,-0.038758248,9.80497,-0.0018798858,-0.0016036481,4.8542023E-4,-0.00887057,0.002650202,0.8749258,2017-03-11 12:40:04,45.42500342764113
-0.17727661,-0.046691895,9.896027,1.0681152E-4,5.79834E-4,3.0517578E-5,147.0,-0.17941923,-0.03720181,9.804938,0.003713861,-0.009164296,0.005223274,-0.008922769,0.0027699112,0.87491935,2017-03-11 12:40:05,48.72907249475594
-0.17608643,-0.04548645,9.886444,-0.0011138916,5.79834E-4,3.0517578E-5,131.0,-0.17822823,-0.037930973,9.804957,0.0012472868,0.0011410676,-0.005870819,-0.00888763,0.0027079873,0.8749192,2017-03-11 12:40:06,46.32735913046605
-0.17608643,-0.046691895,9.898422,-0.0011138916,5.79834E-4,3.0517578E-5,138.0,-0.17885154,-0.037729915,9.804946,0.003054127,-0.007444486,0.011178017,-0.0089105,0.0027322685,0.87492317,2017-03-11 12:40:07,45.451967888709305
-0.17727661,-0.026351929,9.900803,1.0681152E-4,5.79834E-4,-0.0012054443,176.0,-0.17728655,-0.036094572,9.804981,-0.0032548308,0.01244906,-5.6552887E-4,-0.008799973,0.0027676278,0.8748666,2017-03-11 12:40:08,43.80445262243812
-0.17967224,-0.037109375,9.878082,-0.0011138916,0.0018157959,3.0517578E-5,124.0,-0.17922376,-0.035219703,9.804949,0.004678294,-0.006378114,7.9345703E-4,-0.0088648405,0.0028543521,0.87487364,2017-03-11 12:40:09,43.70584411799363
-0.18206787,-0.029937744,9.864914,-0.0011138916,5.79834E-4,3.0517578E-5,131.0,-0.17804964,-0.034598183,9.804973,0.011792809,0.0037524998,-0.0044984818,-0.008796935,0.002853626,0.8748444,2017-03-11 12:40:10,46.1236725396202
-0.17608643,-0.03352356,9.886444,1.0681152E-4,0.0018157959,-0.0012054443,157.0,-0.17802548,-0.034105197,9.8049755,0.0033102632,8.4432587E-4,0.0059480667,-0.008783616,0.0028752214,0.87483335,2017-03-11 12:40:11,46.497015354320425
-0.1665039,-0.028747559,9.923538,-0.0047912598,0.0030212402,3.0517578E-5,76.0,-0.17522502,-0.031571988,9.805035,0.0028171241,0.0054512136,-0.03822899,-0.008595552,0.0029207256,0.8747406,2017-03-11 12:40:12,44.70626693089258
-0.17488098,-0.05027771,9.870895,0.0013275146,-6.2561035E-4,3.0517578E-5,96.0,-0.17372118,-0.043932904,9.805013,0.0026404262,0.0023874827,0.02369976,-0.008835054,0.002327706,0.8749887,2017-03-11 12:40:13,46.94146548588413
-0.16531372,-0.039505005,9.906784,1.0681152E-4,0.0018157959,-0.0012054443,106.0,-0.1697791,-0.03701551,9.805111,0.004542768,0.0013726763,-0.00981617,-0.008487342,0.002542622,0.87478566,2017-03-11 12:40:14,46.613278105658765
-0.17129517,-0.04071045,9.884064,1.0681152E-4,0.0018157959,3.0517578E-5,116.0,-0.1669268,-0.035336114,9.805166,0.0028622001,-3.1865388E-4,-0.013624191,-0.00831822,0.0025483787,0.87471086,2017-03-11 12:40:15,45.91312411283204
-0.16889954,-0.04548645,9.863724,1.0681152E-4,0.0018157959,-0.0012054443,75.0,-0.16985372,-0.035994314,9.805113,0.011812702,0.011121463,0.010392189,-0.008465332,0.0025903862,0.8747645,2017-03-11 12:40:16,43.557848776813934
-0.17010498,-0.032333374,9.955841,1.0681152E-4,0.0018157959,-0.0012054443,50.0,-0.17107789,-0.035315298,9.805094,0.0025635064,0.0033102669,0.059584618,-0.008503177,0.002650878,0.87476623,2017-03-11 12:40:17,47.54560079104347
-0.17488098,-0.026351929,9.892441,1.0681152E-4,0.0018157959,3.0517578E-5,28.0,-0.17053169,-0.02995588,9.805121,0.008431375,0.011146244,0.07506943,-0.008345677,0.0028785798,0.8746423,2017-03-11 12:40:18,47.273339976728145
-0.1736908,-0.03112793,9.885254,0.0013275146,5.79834E-4,-0.0012054443,46.0,-0.17267363,-0.029019648,9.805087,0.0024723262,-4.5089982E-4,-0.02768135,-0.0085212765,0.0029520558,0.87470067,2017-03-11 12:40:19,44.99518670665559
-0.18684387,-0.017974854,9.857742,0.0013275146,5.79834E-4,-0.0012054443,50.0,-0.17754367,-0.030978942,9.804994,0.0015758276,0.003665192,-0.0015850067,-0.008684448,0.0030041197,0.87475884,2017-03-11 12:40:20,44.64841598303443
-0.17129517,-0.03831482,9.823044,1.0681152E-4,0.0018157959,3.0517578E-5,56.0,-0.18024375,-0.032506987,9.80494,0.009759277,-0.012833253,-0.012844086,-0.00884308,0.0030013756,0.8748284,2017-03-11 12:40:21,44.636071196381664
-0.17608643,-0.023956299,9.840988,1.0681152E-4,5.79834E-4,-0.0012054443,142.0,-0.17903134,-0.030664777,9.804969,0.0034976155,0.0068031456,0.005750656,-0.008743135,0.0030546368,0.874772,2017-03-11 12:40:22,46.51578093340311
-0.16889954,-0.032333374,9.864914,1.0681152E-4,5.79834E-4,3.0517578E-5,140.0,-0.17372888,-0.03000584,9.805065,-0.0025535226,-0.006931821,0.016904831,-0.008489788,0.0029545783,0.87468636,2017-03-11 12:40:23,45.35882231042153
-0.17848206,-0.026351929,9.879272,1.0681152E-4,5.79834E-4,-0.0012054443,139.0,-0.17551072,-0.028309448,9.805038,0.010257423,0.0057450533,0.005558014,-0.008527267,0.0030744872,0.8746734,2017-03-11 12:40:24,44.207054922608506
-0.17010498,-0.022766113,9.880463,1.0681152E-4,0.0018157959,-0.0012054443,141.0,-0.17439179,-0.027909935,9.805059,-4.63441E-4,-0.011398027,0.009780884,-0.008467333,0.0030650767,0.87464964,2017-03-11 12:40:25,45.42847747753109
-0.16052246,-0.026351929,9.881668,1.0681152E-4,5.79834E-4,3.0517578E-5,142.0,-0.17098999,-0.027779156,9.80512,0.0045315027,0.0040260702,0.0072155,-0.008312066,0.00298769,0.8746011,2017-03-11 12:40:27,47.109849018237185
-0.16412354,-0.029937744,9.882858,0.0013275146,5.79834E-4,-0.0012054443,141.0,-0.17312737,-0.029406182,9.805078,0.01025784,-0.0027141944,-0.005203247,-0.008448008,0.0029668321,0.87466526,2017-03-11 12:40:28,49.34833882019689
-0.17727661,-0.037109375,9.880463,-2.1362305E-4,7.9345703E-4,-1.2207031E-4,140.0,-0.1709345,-0.033349354,9.805104,-0.0049894005,-0.0034961067,-0.0022354126,-0.008447961,0.0027358064,0.8747216,2017-03-11 12:40:29,51.0845441189898
-0.16052246,-0.03352356,9.896027,-2.1362305E-4,7.9345703E-4,-1.2207031E-4,141.0,-0.16633713,-0.039647244,9.80516,0.012050584,-0.0030956008,1.8119812E-5,-0.008398855,0.0023400409,0.8747965,2017-03-11 12:40:30,46.97693448585006
-0.16770935,-0.03112793,9.869705,-2.1362305E-4,7.9345703E-4,-1.2207031E-4,141.0,-0.16955326,-0.037310977,9.805113,-0.002740264,-0.0030919984,-0.0042476654,-0.008484583,0.002523806,0.87478906,2017-03-11 12:40:31,47.35945338858113
-0.1736908,-0.04071045,9.836197,0.0010070801,-4.4250488E-4,-1.2207031E-4,142.0,-0.17488837,-0.03455484,9.805029,0.0037197918,-0.006321743,-0.01453495,-0.008654577,0.0027782859,0.8748009,2017-03-11 12:40:32,45.34819167380395
-0.1736908,-0.034729004,9.820648,-2.1362305E-4,-4.4250488E-4,0.0011138916,142.0,-0.17403744,-0.035918105,9.805039,0.0018719286,6.492436E-5,-0.01318264,-0.0086503895,0.002696137,0.8748191,2017-03-11 12:40:33,52.21216592146477
-0.17608643,-0.041900635,9.808685,-2.1362305E-4,7.9345703E-4,-1.2207031E-4,141.0,-0.17411356,-0.031315282,9.805055,-7.1553886E-4,0.004972685,0.0018997192,-0.008539506,0.0029050855,0.87472004,2017-03-11 12:40:34,55.7345498029871
-0.17129517,-0.044296265,9.794327,-2.1362305E-4,-4.4250488E-4,-1.2207031E-4,142.0,-0.17263523,-0.035157595,9.805067,0.0011703074,-0.0091732405,-0.0010995865,-0.008568851,0.0026960643,0.87478375,2017-03-11 12:40:35,50.94538217676881
-0.1736908,-0.037109375,9.776382,-2.1362305E-4,-4.4250488E-4,-1.2207031E-4,141.0,-0.17050877,-0.036509003,9.8050995,-0.008348212,-0.012643538,0.020354271,-0.008507376,0.0025832555,0.87478447,2017-03-11 12:40:36,47.59823360354968
-0.17248535,-0.037109375,9.772797,-2.1362305E-4,7.9345703E-4,-0.0013275146,155.0,-0.18129513,-0.03272116,9.804919,0.0071151704,-0.0028750412,-0.0071907043,-0.008879866,0.002915178,0.87486535,2017-03-11 12:40:37,45.24342156525667
-0.17488098,-0.037109375,9.763214,-2.1362305E-4,-4.4250488E-4,-1.2207031E-4,176.0,-0.17941274,-0.033462286,9.804952,-0.00668478,0.014214471,0.011235237,-0.008829658,0.0029380678,0.874838,2017-03-11 12:40:38,42.14926015278222
-0.1736908,-0.029937744,9.812271,-2.1362305E-4,-4.4250488E-4,-1.2207031E-4,187.0,-0.17913279,-0.034960054,9.804952,-0.012450755,-0.007178843,0.028434753,-0.00885433,0.002863815,0.8748668,2017-03-11 12:40:39,44.492488731161615
-0.17727661,-0.04548645,9.863724,0.0010070801,-4.4250488E-4,-1.2207031E-4,158.0,-0.17669627,-0.039328635,9.80498,1.7851591E-4,-0.005988911,0.016634941,-0.008853836,0.0026076422,0.8749289,2017-03-11 12:40:40,44.858597160776995
-0.18086243,-0.03831482,9.837402,-2.1362305E-4,-4.4250488E-4,-1.2207031E-4,140.0,-0.17855844,-0.034472663,9.804964,8.504093E-5,0.008352183,-0.038183212,-0.008816559,0.0028717122,0.8748485,2017-03-11 12:40:41,44.07078510188419
-0.18206787,-0.039505005,9.946274,-2.1362305E-4,7.9345703E-4,-1.2207031E-4,198.0,-0.17843693,-0.032743063,9.804972,-0.009812012,0.0053827167,-0.08301926,-0.008768186,0.00294658,0.8748092,2017-03-11 12:40:42,44.47016183888182
-0.17010498,-0.044296265,9.820648,-2.1362305E-4,7.9345703E-4,-1.2207031E-4,204.0,-0.1763757,-0.03223456,9.805011,0.006413281,-0.010998733,-0.012314796,-0.008671428,0.0028667054,0.8747867,2017-03-11 12:40:43,51.25921365594813
-0.19044495,-0.032333374,9.799118,-2.1362305E-4,-4.4250488E-4,-1.2207031E-4,205.0,-0.17549674,-0.033836428,9.805022,0.0017395467,-0.009267196,-0.014156342,-0.008663928,0.0028254876,0.87479347,2017-03-11 12:40:44,45.86506517400104
-0.17010498,-0.034729004,9.795517,-2.1362305E-4,7.9345703E-4,-1.2207031E-4,182.0,-0.17789476,-0.032717567,9.804982,0.0066859275,-0.016338822,0.037229538,-0.00874332,0.002934471,0.8748014,2017-03-11 12:40:45,45.2807341262464
1.6939087,-1.194046,7.211273,-0.15170288,-0.54896545,-0.09051514,10.0,1.6495278,-0.42153636,9.65773,0.052493453,-0.77458286,-2.3989592,0.06268827,-0.060522605,0.86569,2017-03-11 12:40:46,52.65185397857042
-0.17967224,-0.0622406,9.947464,-2.1362305E-4,-4.4250488E-4,-1.2207031E-4,176.0,-0.135961,-0.16522151,9.804316,-0.030003518,0.10219005,0.14939785,-0.0107875895,-0.0016305841,0.74364233,2017-03-11 12:40:47,45.7406103397523
-2.8165588,1.6306763,10.960831,0.562973,-0.22276306,-0.37028503,33.0,-0.30018142,0.34590498,9.795949,1.0558224,0.55970705,1.702405,-6.651698E-4,0.02334813,0.7734074,2017-03-11 12:40:48,43.625523304141836
0.68533325,-1.0576477,9.754852,-0.012435913,-0.028533936,0.5569763,152.0,0.010740291,0.027925666,9.806604,0.6824022,-1.0950171,-0.099167824,0.001054954,0.0015825682,0.87289524,2017-03-11 12:40:49,45.59088093654296
-0.12223816,0.022705078,9.807495,0.0071258545,0.011779785,-0.0013275146,148.0,-0.088792376,0.07941118,9.805926,-0.016486004,-0.07245236,-0.008481979,-0.0022610084,0.005637148,0.8961838,2017-03-11 12:40:50,48.888560681832345
-0.09831238,-0.9069061,10.215469,-0.04296875,0.0826416,-0.45214844,172.0,-0.21816537,-0.20957924,9.801983,0.12034641,-0.69685286,0.39131737,-0.015057387,-0.003352867,0.8543874,2017-03-11 12:40:51,42.37236341843794
-1.9192505,0.65919495,9.584961,-0.1614685,-0.037094116,0.8611908,161.0,-1.4641253,0.3316485,9.691065,-0.553059,0.60931504,-0.007009506,-0.048581485,0.059439555,0.7859325,2017-03-11 12:40:52,43.98068296598436
-0.29093933,0.047836304,9.825439,0.0071258545,-0.0053253174,0.0011138916,118.0,-0.29757613,0.05003558,9.802007,-6.171465E-4,-0.019342396,-0.08867073,-0.01190426,0.009749216,0.8679076,2017-03-11 12:40:53,43.00361856000076
-0.28137207,0.04663086,9.820648,-2.1362305E-4,-4.4250488E-4,-1.2207031E-4,136.0,-0.2884055,0.0503678,9.802279,0.009454519,0.006823465,0.0033740997,-0.011306073,0.009748955,0.85829127,2017-03-11 12:40:54,44.961816313479055
-0.3376007,-0.022766113,9.452148,-0.0038757324,-0.0016479492,0.0011138916,35.0,-0.3167659,-0.015066517,9.801521,-0.0042349696,-0.0076496014,0.010528564,-0.014184997,0.0077643488,0.8532771,2017-03-11 12:40:55,44.69340091264152
-0.32084656,-0.027542114,9.823044,-2.1362305E-4,7.9345703E-4,-1.2207031E-4,35.0,-0.3161175,-0.028104296,9.801514,-0.004949689,4.367195E-4,0.0057621,-0.0144140385,0.007274066,0.8494202,2017-03-11 12:40:56,45.02732184070534
-0.29452515,-0.027542114,9.869705,0.009567261,0.019119263,0.0011138916,43.0,-0.29380232,-0.017201068,9.802233,6.5645576E-4,-0.010260293,0.021454811,-0.013173772,0.0071878023,0.8482469,2017-03-11 12:40:57,43.74150665489918
-0.29333496,0.015533447,9.890045,0.0010070801,-4.4250488E-4,-1.2207031E-4,78.0,-0.27991396,0.019664014,9.802635,-0.011046618,-0.004513381,-0.013590813,-0.011541706,0.008414327,0.84767145,2017-03-11 12:40:58,44.18204828278748
-0.29692078,0.035858154,9.885254,0.0034484863,-4.4250488E-4,0.0011138916,140.0,-0.2920292,0.03075885,9.802253,0.0059429705,0.010557331,0.049095154,-0.011777649,0.009246043,0.8468321,2017-03-11 12:40:59,42.867579039236134
-0.29452515,0.035858154,9.905594,-2.1362305E-4,-4.4250488E-4,-1.2207031E-4,145.0,-0.28216907,0.03265532,9.802535,-2.130568E-4,-6.810762E-4,0.0064048767,-0.011296258,0.009065619,0.84659934,2017-03-11 12:41:00,45.20628846418522
-0.28735352,0.043045044,9.911575,-2.1362305E-4,-4.4250488E-4,0.0011138916,143.0,-0.28154415,0.034123685,9.802548,-0.008553684,-0.007019695,-0.0060768127,-0.011228741,0.009112909,0.8465591,2017-03-11 12:41:01,45.99933008294138
-0.28256226,0.033477783,9.896027,-2.1362305E-4,-4.4250488E-4,0.0011138916,143.0,-0.28065613,0.032704663,9.802578,0.0010775328,4.254356E-4,-0.010763168,-0.011229284,0.00902707,0.8465823,2017-03-11 12:41:02,46.1111165313109
-0.27539063,0.043045044,9.942688,-2.1362305E-4,-4.4250488E-4,-1.2207031E-4,142.0,-0.28202575,0.032507684,9.802541,0.0041660666,0.0029456168,0.006102562,-0.011294104,0.009055316,0.84660125,2017-03-11 12:41:03,43.33872071940489
-0.29212952,0.035858154,9.917557,-0.0014343262,7.9345703E-4,0.0011138916,143.0,-0.28466982,0.031976003,9.8024645,-0.0037915707,0.0034701228,-0.011218071,-0.011408883,0.00912978,0.8466282,2017-03-11 12:41:04,43.6858602772334
-0.277771,0.0370636,9.90918,1.2207031E-4,-6.1035156E-5,-8.392334E-4,83.0,-0.27873427,0.033831894,9.802629,0.0030970871,0.001620952,-0.0037002563,-0.011114912,0.009024562,0.8465363,2017-03-11 12:41:05,45.989654336798694
-0.2765808,0.028686523,9.943878,-0.0010986328,-6.1035156E-5,-8.392334E-4,86.0,-0.27841404,0.034497198,9.802636,-0.0057579875,-0.005014695,5.083084E-4,-0.011082713,0.0090449825,0.8465176,2017-03-11 12:41:06,44.06219823349349
-0.27059937,0.03227234,9.894821,1.2207031E-4,-6.1035156E-5,3.9672852E-4,71.0,-0.27975434,0.03520408,9.802596,-0.0022506416,0.0014879256,0.010300636,-0.011121378,0.009111906,0.84651554,2017-03-11 12:41:07,45.534729904669206
-0.26820374,0.0370636,9.903198,-0.0010986328,-6.1035156E-5,3.9672852E-4,77.0,-0.27592507,0.03276769,9.802713,0.010498285,0.0039661303,0.0018291473,-0.011022377,0.008902512,0.8465311,2017-03-11 12:41:08,44.28395818923136
-0.28137207,0.038253784,9.90918,-0.0010986328,-6.1035156E-5,3.9672852E-4,82.0,-0.2789752,0.03533004,9.802618,3.874302E-5,0.0033469237,0.0037984848,-0.0110847745,0.009049151,0.8465174,2017-03-11 12:41:09,45.92577267634782
-0.27178955,0.043045044,9.905594,-3.5095215E-4,7.6293945E-5,1.2207031E-4,80.0,-0.27726415,0.04025158,9.802647,-0.0058963895,-0.004827138,-0.008658409,-0.010874392,0.009265134,0.84637356,2017-03-11 12:41:10,43.847358635212416
-0.2897339,0.03945923,9.849365,-3.5095215E-4,0.0013122559,1.2207031E-4,104.0,-0.28317386,0.044284925,9.802461,-0.0010792017,-0.0065160133,0.02571392,-0.0110195335,0.009600266,0.846343,2017-03-11 12:41:11,43.782932613056104
-0.28375244,0.047836304,9.902008,-3.5095215E-4,7.6293945E-5,1.2207031E-4,158.0,-0.28780228,0.037706282,9.802353,0.0027998984,-0.008293539,0.01611805,-0.0114015415,0.009437699,0.8465428,2017-03-11 12:41:12,57.328507273662055
-0.2957306,0.0370636,9.885254,-0.0015869141,7.6293945E-5,1.2207031E-4,159.0,-0.28837898,0.039287616,9.80233,-0.0035782456,-0.002858296,-0.029790878,-0.011397628,0.00954229,0.8465131,2017-03-11 12:41:13,49.622601045092466
-0.29452515,0.027496338,9.904404,-3.5095215E-4,7.6293945E-5,1.2207031E-4,147.0,-0.2887654,0.03753084,9.802326,-0.0025992095,-0.010445278,-0.005208969,-0.0114481505,0.009455949,0.8465569,2017-03-11 12:41:14,47.95956327037344
-0.2897339,0.043045044,9.899612,-3.5095215E-4,-0.0011291504,1.2207031E-4,144.0,-0.28784505,0.03838639,9.80235,0.005420089,0.0028259233,-2.5749207E-4,-0.011384664,0.009468543,0.8465276,2017-03-11 12:41:15,48.55758336006137
-0.28256226,0.03945923,9.893631,-3.5095215E-4,7.6293945E-5,1.2207031E-4,67.0,-0.28709435,0.040041618,9.802365,0.0075601637,-0.0010047182,-0.012122154,-0.01131365,0.009487501,0.8464935,2017-03-11 12:41:16,59.05648022269907
-0.28614807,0.027496338,9.903198,-3.5095215E-4,-0.0011291504,1.2207031E-4,123.0,-0.2823594,0.028410543,9.802544,-0.0061131716,0.0022384003,-0.0031356812,-0.011396935,0.008916616,0.8452397,2017-03-11 12:41:17,55.46466583951847
-0.2957306,0.014328003,9.973785,-3.5095215E-4,7.6293945E-5,1.2207031E-4,103.0,-0.28220233,0.01845704,9.802571,0.010035217,0.0043012165,-0.0011339188,-0.011653165,0.008494478,0.84472746,2017-03-11 12:41:18,58.071962153727
-0.2885437,0.015533447,9.977386,-3.5095215E-4,-0.0011291504,1.2207031E-4,111.0,-0.2828595,0.019187994,9.80255,-6.387234E-4,-0.00399681,-1.6212463E-5,-0.01166586,0.008538,0.8449976,2017-03-11 12:41:19,44.545868734283765
-0.2897339,0.011932373,9.967804,-3.5095215E-4,7.6293945E-5,1.2207031E-4,109.0,-0.28317437,0.019824257,9.802541,0.0044633746,0.0061136987,0.005104065,-0.011661906,0.008574246,0.84498614,2017-03-11 12:41:20,45.06064616703949
-0.28735352,0.022705078,9.965408,-3.5095215E-4,7.6293945E-5,1.2207031E-4,108.0,-0.2832435,0.024079768,9.802529,-0.0018837452,-0.0017663222,-1.335144E-4,-0.011547278,0.008761613,0.84488857,2017-03-11 12:41:21,47.22762307798127
-0.32803345,0.13995361,9.224838,-1.9836426E-4,6.1035156E-5,0.0,145.0,-0.27165326,0.024657616,9.802856,-0.040842652,0.1064522,-0.70482445,-0.011333157,0.009132278,0.84602606,2017-03-11 12:41:23,49.15192442077368
1.2344818,-1.4763947,11.824631,-0.61961365,0.19921875,-0.58032227,189.0,-0.2678716,-0.69013906,9.778667,1.3739252,-1.1009427,2.530964,-0.031131996,-0.021389525,0.82555467,2017-03-11 12:41:24,52.14324606343379
0.35632324,1.3363647,8.169601,0.47381592,0.15768433,-0.8979645,214.0,0.96913517,0.43275195,9.749046,-0.76868004,0.5966228,-1.4483213,0.05127673,-0.017541716,0.7308948,2017-03-11 12:41:25,54.86266916791382
0.96409607,-0.29792786,9.741684,-0.28486633,-0.20028687,-0.09284973,207.0,0.5631103,0.5060092,9.777386,0.39534694,-0.80900407,-0.13360882,0.038526163,0.0028044253,0.7897855,2017-03-11 12:41:26,54.809265771709136
1.362503,-2.0913544,10.436798,-0.5059967,-0.07199097,0.17102051,200.0,0.7992332,-1.1744517,9.70321,0.6103164,-1.1419365,0.64575577,-0.0010615961,-0.06149541,0.7715203,2017-03-11 12:41:27,50.4184399962726
-2.4373016,-0.14958191,10.108978,0.4078369,-0.05368042,-0.008560181,207.0,-0.19326177,0.0137848025,9.804735,-2.249042,-0.16574657,0.35160637,-0.008091798,0.005314894,0.8796877,2017-03-11 12:41:28,51.212746524901604
-0.16889954,-0.10292053,9.910385,-1.9836426E-4,6.1035156E-5,0.0,194.0,-0.03532257,-0.05628856,9.806425,-0.12851726,-0.05455694,0.08381939,-0.0029222977,-0.0017146881,0.8871031,2017-03-11 12:41:29,63.14296019683431
-0.17248535,-0.11009216,9.958237,-1.9836426E-4,6.1035156E-5,0.0,196.0,-0.15846276,-0.10512448,9.804807,-0.003558591,0.008389808,-0.020907402,-0.0096437,-0.0010059209,0.88611776,2017-03-11 12:41:30,49.80302599126918
-0.1461792,-0.10531616,9.903198,-1.9836426E-4,6.1035156E-5,0.0,195.0,-0.14867283,-0.10712093,9.804938,0.004603982,0.0033253059,-0.040916443,-0.009253173,-0.0012944099,0.8844612,2017-03-11 12:41:31,46.29186197942989
-0.14497375,-0.11967468,9.939087,-1.9836426E-4,6.1035156E-5,0.0,196.0,-0.15084678,-0.10670703,9.804909,-0.0017845482,0.0063428283,0.0040683746,-0.009343007,-0.001211533,0.8838357,2017-03-11 12:41:32,50.53651751584021
-0.16531372,-0.11967468,9.924744,-1.9836426E-4,6.1035156E-5,0.0,195.0,-0.15682788,-0.10851611,9.804796,0.006195247,0.006158784,-0.009593964,-0.0096554775,-0.0011525247,0.88393474,2017-03-11 12:41:33,53.20437976491586
-0.15454102,-0.09812927,9.937897,3.0517578E-5,-4.4250488E-4,-0.001159668,197.0,-0.15500356,-0.105177246,9.804861,0.0019670427,0.002087392,-0.006398201,-0.009493818,-0.0010439293,0.8838578,2017-03-11 12:41:34,49.13727042739871
-0.14378357,-0.11967468,9.873291,3.0517578E-5,7.6293945E-4,7.6293945E-5,198.0,-0.15759681,-0.10647587,9.804806,-0.009049103,0.0018781796,-0.051508904,-0.009641554,-0.0010417076,0.88390934,2017-03-11 12:41:35,47.327728982349306
-0.15454102,-0.09812927,9.845779,3.0517578E-5,7.6293945E-4,7.6293945E-5,193.0,-0.14959836,-0.10319921,9.804966,0.008962274,0.005588606,-0.010860443,-0.009203247,-0.0010817512,0.8837625,2017-03-11 12:41:36,64.72176885800747
-0.14976501,-0.09933472,9.820648,3.0517578E-5,7.6293945E-4,7.6293945E-5,195.0,-0.155598,-0.104451016,9.804859,0.0061792135,0.005348712,-0.0060281754,-0.009503302,-9.969161E-4,0.8838524,2017-03-11 12:41:37,46.68175227526464
-0.16531372,-0.10531616,9.802704,3.0517578E-5,7.6293945E-4,7.6293945E-5,196.0,-0.16093384,-0.10051362,9.804814,0.0015781522,0.004765369,-0.009061813,-0.009649901,-6.9214497E-4,0.88384753,2017-03-11 12:41:38,50.23319971998153
-0.1617279,-0.09335327,9.766815,3.0517578E-5,7.6293945E-4,7.6293945E-5,194.0,-0.15664881,-0.10399036,9.804848,-0.005229205,0.010537438,-0.028636932,-0.009520094,-9.1427966E-4,0.883843,2017-03-11 12:41:39,49.74303800206172
-0.15933228,-0.09335327,9.775192,3.0517578E-5,0.0032043457,7.6293945E-5,189.0,-0.15950757,-0.09921596,9.804851,-0.0013395548,0.0060611665,-0.025615692,-0.009495138,-7.119804E-4,0.8837967,2017-03-11 12:41:40,53.7853934445651
-0.14736938,-0.11488342,9.823044,0.0012512207,-4.4250488E-4,7.6293945E-5,193.0,-0.1464313,-0.094595455,9.805101,-0.0012055486,-0.022165328,0.022594452,-0.0087967245,-7.6282606E-4,0.8875187,2017-03-11 12:41:41,66.74204001240233
-0.13420105,-0.10531616,9.78595,3.0517578E-5,7.6293945E-4,7.6293945E-5,197.0,-0.14377318,-0.101981446,9.805066,0.0067083687,-0.004856959,0.015205383,-0.008902162,-0.0012363626,0.8874415,2017-03-11 12:41:42,64.9021685937341
-0.14976501,-0.09573364,9.747665,3.0517578E-5,-4.4250488E-4,7.6293945E-5,197.0,-0.14536424,-0.102462806,9.8050375,-0.005206406,0.006161295,-0.003030777,-0.008986502,-0.0012131842,0.8870521,2017-03-11 12:41:43,55.54933389899668
-0.1509552,-0.09214783,9.770401,3.0517578E-5,-4.4250488E-4,7.6293945E-5,199.0,-0.14489068,-0.10130024,9.805057,-0.0062170327,0.008633815,0.018465042,-0.008967229,-0.0011578164,0.8870351,2017-03-11 12:41:44,59.64798716867079
-0.14855957,-0.11846924,9.727325,0.0012512207,7.6293945E-4,-0.001159668,197.0,-0.14808162,-0.09914142,9.805031,-0.0059797615,0.00891351,0.0028505325,-0.009031291,-9.985405E-4,0.8870285,2017-03-11 12:41:45,46.882492105489646
-0.14138794,-0.10292053,9.721344,3.0517578E-5,7.6293945E-4,7.6293945E-5,124.0,-0.14853176,-0.1000174,9.805016,0.008645892,-0.0022993982,0.01120472,-0.009072227,-0.001027966,0.88704854,2017-03-11 12:41:46,47.654813040507875
-0.1401825,-0.11846924,9.748871,-7.6293945E-5,-0.0010223389,1.0681152E-4,174.0,-0.1429497,-0.101025596,9.805088,0.0021785498,-0.016866714,-0.008174896,-0.008873968,-0.0012504274,0.88701886,2017-03-11 12:41:47,50.09653142760689
-0.13182068,-0.11846924,9.74408,-0.0013122559,-0.0022583008,-0.0011291504,179.0,-0.13762087,-0.10490603,9.805123,0.005055353,-0.014130987,-0.007976532,-0.008693919,-0.0015049475,0.8870015,2017-03-11 12:41:48,58.54966177101253
-0.14257813,-0.10650635,9.771591,-0.0013122559,1.8310547E-4,1.0681152E-4,181.0,-0.13915041,-0.10399462,9.805112,-0.0030681193,-0.0026576072,0.028722763,-0.008810304,-0.001422196,0.88702774,2017-03-11 12:41:49,51.5024413934664
-0.13061523,-0.1005249,9.741684,-7.6293945E-5,1.8310547E-4,1.0681152E-4,185.0,-0.13732898,-0.098521166,9.805193,-0.0063168555,-0.003959909,0.0031576157,-0.008530693,-0.0012209705,0.88689095,2017-03-11 12:41:50,51.668405725221845
-0.13780212,-0.10531616,9.740494,-7.6293945E-5,1.8310547E-4,1.0681152E-4,182.0,-0.1364782,-0.101608545,9.805175,-0.008404836,-0.0045261756,0.011914253,-0.008564809,-0.0013814094,0.8869327,2017-03-11 12:41:51,47.819991706381956
-0.13301086,-0.09335327,9.74408,-7.6293945E-5,1.8310547E-4,1.0681152E-4,177.0,-0.13853389,-0.10301823,9.805131,0.006926164,-0.004226178,0.011591911,-0.008690834,-0.001397677,0.88698065,2017-03-11 12:41:52,49.70485898539401
-0.13780212,-0.1005249,9.730911,-7.6293945E-5,-0.0010223389,1.0681152E-4,150.0,-0.13342687,-0.09693038,9.805263,-0.0050178617,-0.004702829,-0.003025055,-0.008322328,-0.0012133899,0.88681513,2017-03-11 12:41:53,47.24812324584023
-0.13061523,-0.11607361,9.709381,-7.6293945E-5,1.8310547E-4,-0.0011291504,149.0,-0.13165519,-0.099485464,9.805262,8.3757937E-4,-0.017294236,-0.0082092285,-0.008345748,-0.0013827329,0.88685477,2017-03-11 12:41:54,50.53978910579785
-0.14257813,-0.1005249,9.698608,-7.6293945E-5,1.8310547E-4,1.0681152E-4,151.0,-0.13365388,-0.09789967,9.805251,-6.20082E-4,-0.004275888,-9.832382E-4,-0.008349999,-0.0012784215,0.88683707,2017-03-11 12:41:55,50.7283540154434
-0.12702942,-0.1005249,9.708191,-7.6293945E-5,0.0014190674,1.0681152E-4,152.0,-0.13511732,-0.09889549,9.805221,0.0038728714,-0.0044579804,-0.012928009,-0.008439544,-0.0012896123,0.88687104,2017-03-11 12:41:56,49.03388080417208
-0.13899231,-0.10769653,9.70459,-7.6293945E-5,1.8310547E-4,-0.0011291504,147.0,-0.13692735,-0.100384995,9.805181,-0.0026939064,-0.0072051734,0.004962921,-0.008623138,-0.0013499337,0.8869477,2017-03-11 12:41:57,53.40394147649843
-0.13061523,-0.09573364,9.706985,-7.6293945E-5,1.8310547E-4,-0.0011291504,157.0,-0.13290295,-0.099527895,9.805244,0.0021246374,0.0015753806,0.0027866364,-0.008354345,-0.0013700754,0.8868555,2017-03-11 12:41:58,56.479835182482894
-0.13780212,-0.10650635,9.7034,-7.6293945E-5,1.8310547E-4,1.0681152E-4,168.0,-0.13229394,-0.09703669,9.805278,-0.006990701,-0.010557078,0.008002281,-0.008268254,-0.0012708758,0.8868064,2017-03-11 12:41:59,54.50028090815329
-0.1354065,-0.10292053,9.762024,0.0011444092,1.8310547E-4,1.0681152E-4,167.0,-0.13198717,-0.09951293,9.805257,-0.004145682,-0.003720753,0.014940262,-0.008321743,-0.0014021309,0.88684976,2017-03-11 12:42:00,50.4019344537914
-0.11387634,-0.10531616,9.787155,-7.6293945E-5,1.8310547E-4,1.0681152E-4,169.0,-0.12771818,-0.1017417,9.805291,-6.430894E-4,-0.0024818704,-0.013240814,-0.008172113,-0.0015918665,0.88683134,2017-03-11 12:42:01,51.68623740009246
-0.1354065,-0.08377075,9.760834,-7.6293945E-5,0.0014190674,1.0681152E-4,192.0,-0.13592932,-0.098767385,9.805211,-4.862547E-4,0.015129089,-0.012823105,-0.008457934,-0.0012987847,0.8868793,2017-03-11 12:42:02,48.1737160423042
-0.1354065,-0.10411072,9.74527,-7.6293945E-5,1.8310547E-4,1.0681152E-4,198.0,-0.1367178,-0.09879038,9.8052,0.006943047,0.0128984675,-0.03186035,-0.0085094,-0.0012474869,0.8868882,2017-03-11 12:42:03,46.88757703796489
-0.1354065,-0.10411072,9.74527,0.0011444092,0.0026245117,1.0681152E-4,196.0,-0.13636397,-0.09510794,9.805242,-0.0036001801,0.0010768548,-0.0367527,-0.008406818,-0.0010880728,0.88682216,2017-03-11 12:42:04,47.96450511714971
-0.13659668,-0.09573364,9.733307,0.0011444092,1.8310547E-4,-0.0023345947,194.0,-0.13485257,-0.091450945,9.805297,-0.0027502477,-0.004965022,0.001168251,-0.008252475,-9.5687323E-4,0.8867428,2017-03-11 12:42:05,50.70272362735161
-0.13301086,-0.09335327,9.7357025,-7.6293945E-5,1.8310547E-4,1.0681152E-4,193.0,-0.13499573,-0.0951635,9.80526,-0.006261781,-0.0061192214,0.0013542175,-0.008346291,-0.0011225357,0.8868069,2017-03-11 12:42:06,49.23812014718371
-0.12702942,-0.087371826,9.741684,0.0011444092,1.8310547E-4,-0.0011291504,195.0,-0.1341837,-0.098187014,9.80524,2.503991E-4,0.0022251904,0.010204315,-0.008380698,-0.0012791397,0.88684815,2017-03-11 12:42:07,44.41281554040906
-0.13420105,-0.09812927,9.730911,-7.6293945E-5,1.8310547E-4,1.0681152E-4,195.0,-0.1333161,-0.095398165,9.80528,-0.0019824654,-0.0027837232,0.0053892136,-0.008292459,-0.0012059327,0.8868031,2017-03-11 12:42:08,45.49485632921899
-0.13182068,-0.1005249,9.746475,-7.6293945E-5,1.8310547E-4,1.0681152E-4,194.0,-0.13348512,-0.09456074,9.805286,6.623268E-4,-0.009069689,0.014801025,-0.008263848,-0.0011303584,0.88677895,2017-03-11 12:42:09,47.858663866353666
-0.1401825,-0.10411072,9.776382,-7.6293945E-5,0.0014190674,1.0681152E-4,194.0,-0.13510366,-0.09655516,9.805244,-0.0054406524,-0.007814147,-0.0026025772,-0.008383899,-0.0011833748,0.8868316,2017-03-11 12:42:10,49.749932211297676
-0.13780212,-0.10531616,9.808685,-7.6293945E-5,1.8310547E-4,1.0681152E-4,194.0,-0.131449,-0.09917788,9.805267,-0.005533397,-0.005155526,-0.009467125,-0.008329613,-0.0014117466,0.88685435,2017-03-11 12:42:11,51.73183485748908
-0.1234436,-0.09335327,9.807495,0.0011444092,1.8310547E-4,-0.0011291504,193.0,-0.13192338,-0.09467323,9.8053055,0.0025802702,-0.005792856,0.01044178,-0.008195922,-0.0011719419,0.8867623,2017-03-11 12:42:12,49.598474963749254
-0.13659668,-0.1005249,9.80629,-7.6293945E-5,1.8310547E-4,-0.0011291504,195.0,-0.12976936,-0.09597817,9.805322,0.0111527,-0.0033301488,-0.008900642,-0.008129285,-0.0012816351,0.8867588,2017-03-11 12:42:13,50.32622707705468
-0.12583923,-0.1005249,9.7847595,0.0011444092,0.0014190674,-0.0011291504,189.0,-0.1339344,-0.09846129,9.805241,-0.0041007847,-0.010612011,-0.021364212,-0.00837588,-0.0012974452,0.88684976,2017-03-11 12:42:14,55.25291847080737
-0.13182068,-0.09573364,9.791931,0.0011444092,1.8310547E-4,-0.0011291504,188.0,-0.1329496,-0.09340339,9.805305,0.012758896,0.0034172982,0.004009247,-0.008212421,-0.0010901794,0.88675314,2017-03-11 12:42:15,49.000530051485185
-0.1354065,-0.10769653,9.74527,0.0011444092,1.8310547E-4,-0.0011291504,188.0,-0.13350199,-0.09352318,9.805295,-0.0024716705,-0.014570683,-0.018367767,-0.008240202,-0.0010827347,0.88676167,2017-03-11 12:42:16,45.12722304462784
-0.13420105,-0.09454346,9.773987,-7.6293945E-5,1.8310547E-4,-0.0011291504,188.0,-0.13450265,-0.095746204,9.805261,0.008191854,8.6706877E-4,0.0043087006,-0.008337714,-0.0011605724,0.8868109,2017-03-11 12:42:17,47.55159514339404
-0.1354065,-0.09693909,9.758438,0.0011444092,1.8310547E-4,-0.0011291504,188.0,-0.13419208,-0.093580104,9.805285,0.0041406006,-0.002590388,0.009697914,-0.008272726,-0.0010692141,0.8867708,2017-03-11 12:42:19,47.01993773928503
-0.12942505,-0.0897522,9.759628,0.0011444092,1.8310547E-4,-0.0011291504,189.0,-0.13550988,-0.09312233,9.805271,0.0066807866,-0.012612671,0.0032491684,-0.008321511,-0.001017611,0.88677865,2017-03-11 12:42:20,45.66202050501061
-0.1234436,-0.09095764,9.748871,0.0011444092,1.8310547E-4,-0.0011291504,189.0,-0.13370897,-0.0923267,9.805305,-9.281933E-5,-0.008744337,-8.277893E-4,-0.008221403,-0.0010234395,0.88674396,2017-03-11 12:42:21,47.41924141223609
-0.13659668,-0.09693909,9.7560425,0.0011444092,1.8310547E-4,-0.0011291504,189.0,-0.1334306,-0.09113697,9.805319,-0.0033129603,-0.017621562,0.017645836,-0.008180826,-9.757876E-4,0.88672066,2017-03-11 12:42:22,46.51904147937299
-0.14138794,-0.09812927,9.770401,0.0011444092,1.8310547E-4,-0.0011291504,188.0,-0.13280903,-0.09301865,9.805309,-0.009159505,-0.0055172667,0.0079574585,-0.008197017,-0.0010759496,0.886745,2017-03-11 12:42:23,49.71100932851109
-0.14378357,-0.09214783,9.768005,0.0011444092,1.8310547E-4,-0.0011291504,189.0,-0.13250843,-0.09484481,9.805296,-0.006896436,0.0035918802,-0.010349274,-0.008226396,-0.001166092,0.88677216,2017-03-11 12:42:24,49.110938503628134
-0.12942505,-0.08616638,9.781174,0.0011444092,1.8310547E-4,-0.0011291504,188.0,-0.13302511,-0.09668753,9.805272,0.0018970072,5.8112293E-4,-0.035351753,-0.008293083,-0.0012379137,0.88680923,2017-03-11 12:42:25,46.56189793856258
-0.13780212,-0.09933472,9.741684,0.0011444092,1.8310547E-4,-0.0011291504,196.0,-0.13589619,-0.09249836,9.805272,-0.0012871474,-0.015597478,0.017024994,-0.008324288,-9.801874E-4,0.88677275,2017-03-11 12:42:26,45.680076420404355
-0.13780212,-0.09812927,9.829025,0.0011444092,-0.0010223389,-0.0023345947,197.0,-0.1390487,-0.099694446,9.805158,8.2066655E-4,1.8128753E-4,0.059700966,-0.008615679,-0.0011857643,0.8869148,2017-03-11 12:42:27,48.11401450277205
-0.14257813,-0.09812927,9.783554,0.0011444092,1.8310547E-4,-0.0011291504,163.0,-0.14419784,-0.092624314,9.805152,9.043962E-4,-0.005964428,0.027041435,-0.008702473,-7.922074E-4,0.886873,2017-03-11 12:42:28,47.42828526534143
-0.14257813,-0.09573364,9.740494,-7.6293945E-5,0.0014190674,-0.0011291504,202.0,-0.14372192,-0.09568182,9.80513,-0.0093149245,-0.017389297,-0.06707001,-0.008752877,-9.4255956E-4,0.88691884,2017-03-11 12:42:29,46.39499811744737
-0.13899231,-0.1005249,9.770401,0.0011444092,1.8310547E-4,-0.0011291504,199.0,-0.14337775,-0.097146146,9.80512,-0.0019641519,-0.0080544725,-0.008705139,-0.008771753,-0.0010172816,0.8869394,2017-03-11 12:42:30,53.64245046511019
-0.1509552,-0.0897522,9.74408,0.0011444092,0.0014190674,-0.0011291504,196.0,-0.1435482,-0.09487364,9.8051405,-0.0044554174,-0.012051895,0.024131775,-0.0087260185,-9.098013E-4,0.88690317,2017-03-11 12:42:31,55.34782797071532
-0.14736938,-0.10411072,9.747665,0.0011444092,0.0038604736,-0.0011291504,200.0,-0.14371735,-0.09588534,9.805128,-0.0064937174,0.013007171,-0.16820526,-0.008757456,-9.5193594E-4,0.8869222,2017-03-11 12:42:32,54.93186824179379
-0.13301086,-0.0897522,9.863724,0.0011444092,-0.0010223389,-0.0011291504,198.0,-0.1427687,-0.09560887,9.805145,0.006062284,-0.009780772,0.0110759735,-0.008708074,-9.6146594E-4,0.8869063,2017-03-11 12:42:33,64.88784255305647
-0.13659668,-0.11369324,9.796722,0.0011444092,1.8310547E-4,-0.0011291504,196.0,-0.13323897,-0.096928686,9.805265,-0.0034248084,-0.016813368,-0.003604889,-0.008308419,-0.0012439004,0.88681585,2017-03-11 12:42:34,48.4589584636387
-0.13659668,-0.11129761,9.772797,0.0023651123,1.8310547E-4,-0.0011291504,198.0,-0.13462165,-0.103514515,9.80518,-0.0010558218,-0.011577271,0.0029029846,-0.008525697,-0.0015115057,0.8869427,2017-03-11 12:42:35,49.57392623052971
-0.14378357,-0.09693909,9.771591,0.0011444092,0.0014190674,-0.0011291504,196.0,-0.13681164,-0.10163198,9.805169,0.005854532,-0.002732709,0.0088682175,-0.0085804295,-0.0013747,0.886937,2017-03-11 12:42:36,50.144229270345974
-0.13301086,-0.10531616,9.791931,0.0011444092,0.0014190674,-0.0023345947,197.0,-0.13359636,-0.10244435,9.805205,0.0014386922,-0.010301851,-0.012467384,-0.008454222,-0.0014866882,0.88691264,2017-03-11 12:42:37,51.81097190790058
-0.1461792,-0.10890198,9.779968,0.0011444092,1.8310547E-4,-0.0011291504,204.0,-0.13960898,-0.10172409,9.805128,0.0069775432,-0.0017561913,0.0021018982,-0.008709015,-0.0013136674,0.88697165,2017-03-11 12:42:38,48.06890284933839
-0.14378357,-0.10650635,9.775192,0.0011444092,1.8310547E-4,-0.0011291504,205.0,-0.1431742,-0.10210039,9.805073,-0.0011018962,-0.0047571883,0.0038490295,-0.008878996,-0.0012477046,0.8870201,2017-03-11 12:42:39,54.04139768715412
-0.15335083,-0.10650635,9.770401,-2.1362305E-4,-5.187988E-4,7.6293945E-5,206.0,-0.14396425,-0.10499551,9.805032,0.005544126,0.0064155236,-0.0057086945,-0.008982712,-0.0013611976,0.887078,2017-03-11 12:42:40,47.70625385600133
-0.14138794,-0.10292053,9.768005,-2.1362305E-4,-5.187988E-4,7.6293945E-5,180.0,-0.1414366,-0.10760526,9.80504,-0.008946747,0.0042143017,0.002245903,-0.008929751,-0.0015389891,0.8870918,2017-03-11 12:42:41,51.256692820299236
-0.13301086,-0.11607361,9.787155,0.0010070801,-5.187988E-4,0.0013122559,193.0,-0.14079672,-0.10654685,9.80506,-0.0034930408,0.01043015,0.0029878616,-0.008875981,-0.001505676,0.88706654,2017-03-11 12:42:42,57.01784368768337
-0.14257813,-0.11607361,9.794327,-2.1362305E-4,7.171631E-4,7.6293945E-5,196.0,-0.14031607,-0.10524284,9.805081,0.0036379248,0.0010710284,-0.012233734,-0.008823634,-0.0014574697,0.887039,2017-03-11 12:42:43,56.3853379481468
-0.14736938,-0.10769653,9.845779,-2.1362305E-4,7.171631E-4,7.6293945E-5,196.0,-0.1390709,-0.110071704,9.805046,-0.010485381,0.004920751,-0.0050964355,-0.008880734,-0.0017064757,0.8871051,2017-03-11 12:42:44,46.2510612494369
-0.14378357,-0.11967468,9.870895,0.0010070801,-5.187988E-4,7.6293945E-5,195.0,-0.14000735,-0.11128835,9.805018,-0.0029347688,-0.00771749,0.0069475174,-0.008951608,-0.0017400959,0.8871365,2017-03-11 12:42:45,45.622117985031196
-0.1401825,-0.11488342,9.831421,-2.1362305E-4,-5.187988E-4,7.6293945E-5,196.0,-0.1415529,-0.108311996,9.805031,0.0019400716,-0.006135531,-0.013069153,-0.008946025,-0.0015928613,0.8871075,2017-03-11 12:42:46,48.711244365432734
-0.14257813,-0.10171509,9.80629,0.0010070801,-5.187988E-4,7.6293945E-5,196.0,-0.1394653,-0.10846905,9.8050585,-0.0017240942,0.0084653795,-0.013861656,-0.008950083,-0.0016672155,0.8871226,2017-03-11 12:42:47,52.74953558634518
-0.14257813,-0.09573364,9.824234,0.0010070801,7.171631E-4,7.6293945E-5,197.0,-0.13776636,-0.10882103,9.805078,-0.0034788847,-0.007139884,-0.006547928,-0.0087924255,-0.0016798924,0.88706875,2017-03-11 12:42:48,47.61408492576214
-0.14378357,-0.10769653,9.836197,0.0010070801,-5.187988E-4,7.6293945E-5,197.0,-0.13757163,-0.10509953,9.805122,0.007196158,-0.0012236536,0.002023697,-0.0086962385,-0.0015149089,0.88700414,2017-03-11 12:42:49,46.551905266073845
-0.13301086,-0.10292053,9.821838,0.0010070801,-5.187988E-4,-0.0011291504,197.0,-0.13770953,-0.105173856,9.8051195,0.004946813,0.0024428442,-9.498596E-4,-0.008713711,-0.0014610982,0.8870005,2017-03-11 12:42:50,46.38404246097902
-0.13659668,-0.10769653,9.801514,0.0010070801,-5.187988E-4,-0.0011291504,198.0,-0.1393302,-0.10601873,9.805087,0.002686128,-0.0017138645,-2.3937225E-4,-0.0087973,-0.0015157908,0.8870403,2017-03-11 12:42:51,50.058466776876884
-0.13899231,-0.09454346,9.771591,0.0010070801,-5.187988E-4,-0.0011291504,196.0,-0.13999727,-0.10436539,9.805096,-4.6995282E-4,-0.014316112,0.0067777634,-0.008788617,-0.0014249281,0.8870205,2017-03-11 12:42:52,52.33594864314818
-0.1354065,-0.11248779,9.742889,-2.1362305E-4,-5.187988E-4,-0.0011291504,198.0,-0.14110968,-0.10732854,9.805048,0.0077144206,-0.010242887,0.008817673,-0.008908479,-0.001533998,0.8870833,2017-03-11 12:42:53,54.11616094718059
-0.1401825,-0.10411072,9.76561,-2.1362305E-4,-5.187988E-4,-0.0011291504,198.0,-0.14060791,-0.10483534,9.805081,-4.2372942E-4,0.0021355227,-0.019164085,-0.00884029,-0.0015194521,0.88705635,2017-03-11 12:42:54,46.61482255968516
-0.14736938,-0.10890198,9.796722,0.0010070801,-5.187988E-4,7.6293945E-5,199.0,-0.14063725,-0.10540185,9.805076,0.006071314,0.00699912,3.3187866E-4,-0.008841884,-0.0014572287,0.88704544,2017-03-11 12:42:55,47.72470797918203
-0.14257813,-0.10171509,9.812271,0.0010070801,7.171631E-4,7.6293945E-5,198.0,-0.14075251,-0.104716934,9.805081,-0.0019885749,0.0028806105,0.018541336,-0.008831007,-0.0014233406,0.88703537,2017-03-11 12:42:56,44.540380948585046
-0.14497375,-0.11967468,9.892441,0.0010070801,-5.187988E-4,7.6293945E-5,199.0,-0.13877869,-0.1085235,9.805067,-0.0027630776,-0.011530936,0.026114464,-0.008831188,-0.0016427495,0.8870757,2017-03-11 12:42:57,47.04540621905367
-0.12702942,-0.09933472,9.937897,0.0010070801,-5.187988E-4,-0.0011291504,198.0,-0.13758096,-0.10553537,9.805117,0.012143552,0.0058572143,0.024730682,-0.008675306,-0.0014649294,0.8869875,2017-03-11 12:42:58,44.638736803612915
-0.1354065,-0.11967468,9.935501,0.0010070801,7.171631E-4,-0.0011291504,198.0,-0.14135332,-0.10919942,9.805023,-0.007806465,0.004080087,-0.045498848,-0.008963412,-0.0016135641,0.8871175,2017-03-11 12:42:59,45.48200025677076
-0.1354065,-0.11009216,9.890045,0.0022277832,-5.187988E-4,-0.0011291504,199.0,-0.1382302,-0.10362325,9.805128,0.0055763125,-0.012495995,-0.017656326,-0.008691324,-0.0014323142,0.8869872,2017-03-11 12:43:00,45.50772428532646
-0.14138794,-0.09933472,9.851761,0.0010070801,7.171631E-4,-0.0011291504,199.0,-0.13840237,-0.107712515,9.805081,0.0019592047,-0.008508921,-0.0053300858,-0.008795142,-0.0016145728,0.8870577,2017-03-11 12:43:01,48.478723862158674
-0.1509552,-0.09693909,9.886444,0.0010070801,7.171631E-4,-0.0011291504,195.0,-0.14123853,-0.103781134,9.805083,-0.008568749,0.0076855347,0.00166893,-0.0088309925,-0.0013693837,0.8870254,2017-03-11 12:43:02,42.35609987825445
-0.1401825,-0.10531616,9.913971,0.0010070801,-5.187988E-4,-0.0011291504,198.0,-0.1399843,-0.10458381,9.805094,-0.012180209,-0.0022264197,0.02457714,-0.00879316,-0.00143518,0.88702404,2017-03-11 12:43:03,46.72522055165495
-0.14497375,-0.11009216,9.928329,0.0010070801,0.0019226074,-0.0011291504,198.0,-0.13968553,-0.104612984,9.805097,0.009447023,0.005273007,-0.008167267,-0.008780344,-0.0014434727,0.887021,2017-03-11 12:43:04,48.74810566941104
-0.13659668,-0.1232605,9.943878,0.0010070801,7.171631E-4,-0.0011291504,201.0,-0.14112434,-0.10425336,9.80508,-0.0010116547,-0.004621692,-0.0067853928,-0.008836924,-0.0013935571,0.887032,2017-03-11 12:43:05,55.18901257730185
-0.14138794,-0.12086487,9.939087,0.0010070801,7.171631E-4,-0.0011291504,201.0,-0.13878295,-0.10651738,9.80509,-2.8926134E-4,-0.011964269,0.0055446625,-0.008829353,-0.0015842281,0.88706434,2017-03-11 12:43:06,50.431097832507746
-0.1401825,-0.11727905,9.900803,0.0010070801,7.171631E-4,-0.0011291504,203.0,-0.14048694,-0.10482817,9.805083,0.0016237944,-0.011466414,0.0036373138,-0.008821618,-0.0014345973,0.88703406,2017-03-11 12:43:07,48.13518410380601
-0.1461792,-0.11607361,9.821838,0.0010070801,7.171631E-4,-0.0011291504,198.0,-0.14074117,-0.100395136,9.805126,0.0027293265,0.004155442,0.04651928,-0.008728955,-0.00122674,0.8869628,2017-03-11 12:43:08,49.46793281320925
-0.12942505,-0.11607361,9.84816,0.0010070801,7.171631E-4,-0.0011291504,146.0,-0.12561408,-0.09699068,9.805366,0.0061489493,0.003940597,-0.012972832,-0.007965357,-0.0014247635,0.8867267,2017-03-11 12:43:09,53.06844575812464