ACC_X,ACC_Y,ACC_Z,GYRO_X,GYRO_Y,GYRO_Z,LIGH_1,GRAV_X,GRAV_Y,GRAV_Z,LINACC_X,LINACC_Y,LINACC_Z,ROTVEC_X,ROTVEC_Y,ROTVEC_Z,TIME,VOICE
-2.4956207,7.955551,3.597931,0.038406372,-0.52908325,0.21072388,0.0,-2.7809765,9.314158,1.2973102,0.13803506,-1.0658083,1.1254576,0.4496282,0.48134196,0.37992248,2017-01-02 20:58:28,38.679057842248696
-2.5803833,5.2246857,7.9552765,0.12394714,0.14712524,-0.20809937,0.0,-3.034769,6.8753257,6.3000364,0.73469687,-1.423461,2.5607185,0.32282764,0.2730748,0.25602219,2017-01-02 20:58:28,39.745697367907965
-1.3940582,7.262375,4.9137726,-0.14909363,0.42118835,0.2781067,0.0,-2.1542494,7.884778,5.4184756,0.41084075,-0.11690807,0.09699774,0.42442885,0.20879368,0.16680425,2017-01-02 20:58:28,38.67194740526984
-1.0764465,7.147629,5.406143,-0.040374756,0.04020691,0.061050415,0.0,-1.5381559,7.9863763,5.4792576,0.54884386,-0.24961758,0.21534061,0.39467838,0.2546853,0.32974494,2017-01-02 20:58:29,42.348949019252885
-0.884079,7.5622253,4.9327393,-0.07476807,-0.38653564,-0.06271362,0.0,-1.2454363,8.258474,5.1397343,0.12787569,-0.01894188,-0.13977146,0.4095398,0.26499745,0.35964203,2017-01-02 20:58:30,43.98743722673824
-1.107254,8.2426605,4.0131226,0.24528503,0.33831787,0.004058838,0.0,-1.1881051,8.639013,4.4862294,0.38069046,0.10579109,-0.20674372,0.45307326,0.25688633,0.31594226,2017-01-02 20:58:31,28.952222049906844
-1.0983582,8.245926,3.7836456,0.015609741,0.05569458,0.01789856,0.0,-1.1510731,8.849959,4.0649285,-0.13975918,0.09552193,-0.07606149,0.46572903,0.2743508,0.33056954,2017-01-02 20:58:32,39.60437280547272
-1.3601379,8.393646,3.580368,-0.046676636,0.12858582,-0.01914978,0.0,-1.4466722,8.921682,3.8054051,0.07027638,0.038781166,-0.026284218,0.46579698,0.29834795,0.33124965,2017-01-02 20:58:33,40.29376928360748
-1.427124,8.270691,4.0082397,0.24833679,-0.08151245,-0.0105896,0.0,-1.4717705,8.960589,3.7029874,0.025408387,0.038986206,0.2477026,0.47076172,0.2993052,0.32588592,2017-01-02 20:58:34,25.519478499057243
-0.9954376,8.622269,3.206665,-0.029571533,-0.016571045,0.0022125244,0.0,-1.0509516,9.131589,3.4175966,0.012248933,0.125453,-0.45566535,0.4988451,0.27731684,0.31430027,2017-01-02 20:58:35,29.376933797314166
-0.982193,8.640533,3.2317047,0.16322327,0.15179443,-0.076553345,0.0,-0.97269005,9.103003,3.5156236,0.1431675,-0.11714363,0.07173467,0.49788004,0.26994178,0.31362092,2017-01-02 20:58:36,25.86746666755034
-0.9984131,8.723282,2.8116608,0.008270264,-0.0029296875,-0.0014343262,0.0,-1.1999786,9.2477,3.0348794,0.025110722,0.024058342,-0.043941498,0.51062024,0.29074252,0.3065618,2017-01-02 20:58:37,36.37090108197582
-1.0874786,8.722107,2.7612152,0.023345947,-0.010864258,-0.026275635,0.0,-1.221406,9.262033,2.982162,0.06357384,-0.0346756,0.07200956,0.51169634,0.2934602,0.30669686,2017-01-02 20:58:38,27.14876126718902
-2.1163635,8.638687,1.784256,0.42997742,0.7610321,-0.14904785,0.0,-1.8679703,9.210425,2.8016322,-0.06520939,-0.08014202,-0.0011005402,0.49182755,0.33950287,0.3152378,2017-01-02 20:58:39,36.44037510796346
-2.1289978,8.744415,2.4512787,-0.004547119,-0.06401062,-0.0073394775,0.0,-2.2616365,9.169904,2.6397462,-0.003787756,0.0147304535,-0.102737665,0.48640892,0.35891056,0.30572405,2017-01-02 20:58:40,34.89126397742501
-8.176559,10.292862,8.435455,1.7026062,0.9302521,0.4055786,0.0,-2.2469254,9.325242,2.0399945,-2.6368666,1.3555746,5.9110713,0.5032221,0.37783164,0.30806938,2017-01-02 20:58:41,40.005400892288
8.053467,-2.3841553,-6.9323425,-0.08230591,-0.2128601,0.055755615,0.0,8.703184,-1.4713085,-4.2731977,-0.27105904,-1.0079825,-2.649695,-0.78001535,-0.33083004,-0.44758043,2017-01-02 20:58:42,27.419751363114866
9.022751,-4.3550873,-3.7722626,0.48291016,0.31062317,0.10951233,0.0,8.48977,-3.2335017,-3.6930568,0.13891602,-0.31747842,-0.836952,-0.8253338,-0.084366426,-0.49883264,2017-01-02 20:58:43,32.024605029772495
9.403778,-2.6280975,-3.6700287,-0.19979858,0.13632202,0.06575012,0.0,9.098082,-2.0980046,-2.9989455,-0.4844923,-0.31609344,-0.68669796,-0.8039292,-0.081249736,-0.5578617,2017-01-02 20:58:44,45.00828210674967
9.52803,-2.8694305,-3.1059875,0.084625244,-0.055252075,-0.023406982,0.0,9.050145,-2.6267147,-2.7139707,-0.11444569,-0.46175432,0.029747486,-0.7962316,0.066251084,-0.5894304,2017-01-02 20:58:45,37.33787062074161
9.489304,-2.9532013,-3.0813293,0.002380371,-0.009841919,0.024810791,0.0,8.986022,-2.7536702,-2.7998366,-0.08358574,-0.048229694,-0.06881642,-0.79844314,0.07239132,-0.58495045,2017-01-02 20:58:46,36.14879647130771
9.208954,-3.5243073,-3.6003113,-0.0074005127,0.027191162,-0.008758545,0.0,8.60755,-3.293544,-3.3515718,0.05503273,0.011945009,-0.02619338,-0.81877565,0.022114508,-0.5411436,2017-01-02 20:58:47,37.51311347611599
9.186295,-3.2722473,-3.567505,0.032913208,0.0471344,0.028076172,0.0,8.672303,-3.126686,-3.3444564,0.0610981,-0.04638672,-0.05044198,-0.8182004,0.032678254,-0.5473195,2017-01-02 20:58:48,40.06521662611203
9.197632,-3.4255066,-3.5713348,0.009902954,-0.010253906,-0.0063171387,0.0,8.646635,-3.1829636,-3.3578022,-0.015031815,-0.065182686,0.029977798,-0.818533,0.034697957,-0.5460158,2017-01-02 20:58:49,25.549331207600066
9.172272,-3.4620056,-3.6103516,0.005432129,-0.0019226074,-0.04133606,0.0,8.596131,-3.2261848,-3.4450905,0.047533035,0.014503002,-0.0076858997,-0.8212803,0.0339026,-0.5410013,2017-01-02 20:58:50,38.453175875841396
9.203995,-3.4707947,-3.6466675,-0.0025177002,-0.0012969971,0.0010070801,0.0,8.626174,-3.1952791,-3.3984838,-0.02104187,-0.045268774,-0.013950348,-0.81989,0.03247797,-0.543447,2017-01-02 20:58:51,33.5011389627929
9.282959,-3.493515,-3.5533447,-0.00881958,-0.008621216,0.01260376,0.0,8.62609,-3.232046,-3.363752,-0.050358772,-0.027260065,0.07981467,-0.81883025,0.031947345,-0.54414123,2017-01-02 20:58:52,37.19923996826972
9.172882,-3.611969,-3.6490479,0.0017547607,-0.008224487,-0.024230957,0.0,8.576017,-3.3289392,-3.3971274,-0.039157867,-0.12796354,0.05139613,-0.8197434,0.035015292,-0.54126155,2017-01-02 20:58:53,27.322261756102378
9.214767,-3.6358948,-3.5808563,0.009490967,-0.022064209,-0.017929077,0.0,8.614352,-3.2899566,-3.3375916,-0.023334503,0.0026464462,-0.036229134,-0.81803465,0.031450607,-0.543988,2017-01-02 20:58:54,42.59855579102804
9.189636,-3.6071777,-3.6095734,0.0035858154,-0.019424438,-0.009155273,0.0,8.591066,-3.3366485,-3.3512294,-0.0050344467,-0.014755011,-0.050608397,-0.81828964,0.03559862,-0.5433064,2017-01-02 20:58:55,44.04239111412505
9.184845,-3.7591248,-3.5796661,0.016830444,0.0048217773,-0.0028533936,0.0,8.547273,-3.4199522,-3.379119,-0.010752678,-0.022572994,-0.001680851,-0.81890374,0.04103391,-0.5414722,2017-01-02 20:58:56,37.202911227949606
9.182449,-3.6490479,-3.6071777,-0.003540039,5.340576E-4,-0.00793457,0.0,8.581712,-3.3736684,-3.3381093,0.02584076,-0.01646638,-0.064059734,-0.8176943,0.039650794,-0.544018,2017-01-02 20:58:57,41.46390601049575
9.169296,-3.5940247,-3.5988007,0.010910034,0.0027770996,0.011581421,0.0,8.577351,-3.3649874,-3.358022,0.06112957,0.060482502,-0.079770565,-0.818344,0.039045386,-0.54316664,2017-01-02 20:58:58,43.85196546347302
9.04364,-3.8772736,-3.6060028,0.011947632,0.00440979,-0.023223877,0.0,8.494102,-3.5626178,-3.3657658,-0.038321495,-0.021114826,-0.010431528,-0.81857365,0.042026844,-0.53887105,2017-01-02 20:58:59,43.71342366656968
9.159729,-3.7220306,-3.6107635,0.005004883,-0.01473999,-0.022399902,0.0,8.538299,-3.4868567,-3.3331184,-0.033257484,-0.046401024,0.03816247,-0.81748235,0.04079577,-0.5420307,2017-01-02 20:59:00,45.25195838548172
9.060425,-3.8356934,-3.4983063,0.030883789,-0.0019073486,-0.005493164,0.0,8.5199995,-3.5315223,-3.3329177,0.0012168884,0.009637594,0.006519079,-0.8174477,0.0413615,-0.54116875,2017-01-02 20:59:01,39.92407145206033
8.994614,-3.8703918,-3.620346,0.0062408447,0.004211426,-0.011810303,0.0,8.471973,-3.59505,-3.3869846,-0.022337914,-8.921623E-4,-0.039414406,-0.81904316,0.043086916,-0.53766924,2017-01-02 20:59:02,42.21984933868966
9.094376,-3.8434143,-3.5488586,0.0113220215,0.0015716553,-1.5258789E-5,0.0,8.518168,-3.5240095,-3.3455265,-0.051150322,-3.3187866E-4,-0.008075476,-0.8178476,0.041227154,-0.5407355,2017-01-02 20:59:03,41.97472845964154
9.060425,-3.7746735,-3.5198364,-0.0059814453,0.0019683838,3.9672852E-4,0.0,8.514801,-3.5482428,-3.3284416,-0.024040222,-0.06750965,0.013424158,-0.8172311,0.04285552,-0.5413454,2017-01-02 20:59:04,44.286934738894594
9.008972,-3.8859406,-3.5760803,0.006652832,-0.0078125,-0.009979248,0.0,8.488544,-3.5722241,-3.3696,0.019422531,-0.024071217,0.042871952,-0.81845605,0.04394885,-0.5391895,2017-01-02 20:59:05,44.45369415845859
9.065201,-3.7818604,-3.5617218,0.019470215,-0.0019073486,-0.01914978,0.0,8.51632,-3.5262065,-3.3479154,-0.045663834,-0.10852933,0.080340385,-0.8179054,0.041556306,-0.54065496,2017-01-02 20:59:06,38.04579668049057
9.124512,-3.8289948,-3.6074524,0.0037994385,-0.0016937256,-0.014465332,0.0,8.517257,-3.5354009,-3.3358152,-0.040589333,-0.021400213,-0.002314806,-0.8175427,0.04127067,-0.5409281,2017-01-02 20:59:07,35.90912623766314
9.0221405,-3.9098663,-3.5066833,0.008880615,-0.011672974,-0.0028533936,0.0,8.504955,-3.5506043,-3.3510199,-0.0034074783,0.007871866,-0.056005955,-0.81783,0.044815894,-0.5407288,2017-01-02 20:59:08,49.049425711049665
9.051147,-3.9067383,-3.5739288,0.01133728,0.006652832,-0.032577515,0.0,8.474023,-3.6243703,-3.3504138,-0.008117676,-0.032057524,0.007874966,-0.81776404,0.045667723,-0.5392744,2017-01-02 20:59:09,39.21500061602294
9.061615,-3.8476563,-3.509079,0.016616821,0.00440979,0.004852295,0.0,8.509576,-3.5813863,-3.3062348,0.012687683,-0.06484461,-0.048721075,-0.81648874,0.043786187,-0.54181725,2017-01-02 20:59:10,39.16602197521877
9.002991,-3.9242249,-3.4624176,-0.0074005127,-0.010253906,0.013198853,0.0,8.503729,-3.624354,-3.274301,-0.0054864883,-0.00542593,-0.03330016,-0.81550723,0.043483976,-0.54219705,2017-01-02 20:59:11,40.929414484532984
9.049652,-4.0026245,-3.5094452,0.0113220215,-6.866455E-4,-0.024841309,0.0,8.456451,-3.7133825,-3.29691,-0.026809692,-0.020245552,-0.011469841,-0.8159246,0.04860741,-0.54033595,2017-01-02 20:59:12,41.89045181794572
9.120239,-3.9888306,-3.4588318,0.020690918,0.0017547607,-0.0046844482,0.0,8.501551,-3.6853049,-3.2113154,0.032369614,-0.049364567,-0.026044369,-0.81339,0.046132505,-0.5442547,2017-01-02 20:59:13,44.291389510522386
9.027588,-3.9789886,-3.4109344,-4.8828125E-4,-0.014724731,-0.020767212,0.0,8.498672,-3.7136,-3.186242,-0.04059124,-0.03241253,-0.003916025,-0.8127538,0.04340956,-0.5440308,2017-01-02 20:59:14,36.99230322035846
9.058029,-4.0498505,-3.3846436,0.01927185,-0.0072021484,-8.239746E-4,0.0,8.489761,-3.7190928,-3.2035432,-0.018758774,0.053435326,-0.06625366,-0.813244,0.044379022,-0.543366,2017-01-02 20:59:15,47.39035704176025
9.011368,-4.0127563,-3.3918304,0.020080566,-0.0074157715,-0.024230957,0.0,8.487561,-3.724779,-3.2027652,-0.009619713,-0.052262068,-0.022225618,-0.81317824,0.045130488,-0.5434527,2017-01-02 20:59:16,46.398712239086905
-5.234192,8.275848,4.846649,-0.19898987,-0.6321106,-1.2251892,0.0,0.03593498,9.48241,2.5005984,-2.318781,-4.409295,0.34049726,0.5632811,0.23498793,0.30775765,2017-01-02 20:59:17,36.23527528864052
1.506012,7.1024475,5.2326355,0.21290588,-1.499939,1.9060669,0.0,2.0883904,7.519864,5.938069,-1.4741011,-0.7162137,-0.97607136,0.44135845,0.049451787,0.334386,2017-01-02 20:59:18,50.58087177089797
8.333328,0.8279724,2.93161,0.018463135,-0.21653748,0.24655151,0.0,9.134363,1.2821594,3.3301444,-0.7490387,0.54508233,-0.34574032,0.46491098,-0.33773905,0.5888407,2017-01-02 20:59:19,36.38411043626216
8.599304,0.08894348,3.9293976,0.013153076,-0.031021118,0.0018157959,0.0,8.914731,0.31669164,4.074024,-0.16151428,-0.15266308,-0.064218044,0.4586138,-0.2862795,0.6973691,2017-01-02 20:59:20,43.480554291477944
8.558838,0.57948303,3.879959,0.003189087,0.23875427,0.03276062,0.0,8.777771,0.36196136,4.357764,-0.06818867,-0.058030218,-0.11288023,0.4740058,-0.23050898,0.7482775,2017-01-02 20:59:21,38.52376668666979