ACC_X,ACC_Y,ACC_Z,GYRO_X,GYRO_Y,GYRO_Z,LIGH_1,GRAV_X,GRAV_Y,GRAV_Z,LINACC_X,LINACC_Y,LINACC_Z,ROTVEC_X,ROTVEC_Y,ROTVEC_Z,TIME,VOICE
4.663905,1.1492168,8.599973,-0.20422941,-0.2743112,0.8764683,1.0,-0.43878824,2.700955,9.4171505,5.056086,-1.5704663,-0.9180533,0.015605833,0.1400553,0.9536182,2016-12-12 17:07:08,5.812098523548422
4.4244847,1.5227122,8.494628,0.039750297,-0.26100206,0.7604643,2.0,2.7546499,1.6002048,9.274786,1.1816306,-0.34713286,-0.35345814,0.1432013,0.08130793,0.98630005,2016-12-12 17:07:09,8.953880110720402
4.0892963,1.7046716,8.791509,0.023464235,0.0104768975,-0.066339925,2.0,4.2659883,1.4527849,8.709831,-0.19350469,0.05907371,0.04805196,-0.21780199,-0.09211171,-0.9691283,2016-12-12 17:07:10,8.957332372284569
3.8115692,1.3694834,8.916007,-0.011977977,-8.841031E-4,-0.02016992,2.0,4.1746407,1.5946289,8.729257,-0.30646196,-0.123631425,0.055868033,-0.21304628,-0.09768885,-0.97009003,2016-12-12 17:07:11,8.527848686805479
3.8881836,2.5953147,7.8146744,-0.010109472,0.0104112085,-0.105180115,3.0,3.9678755,1.4660699,8.847429,-0.54916835,1.5304065,-0.6888409,-0.20308998,-0.08752803,-0.9738707,2016-12-12 17:07:12,11.793363138688285
3.2752678,2.6144683,8.7532015,-0.016666653,0.013425509,-0.17920132,2.0,3.5238392,2.0776625,8.912703,-0.13237275,-0.116332434,-0.2365413,0.18534078,0.105958894,0.9768574,2016-12-12 17:07:13,11.83714589734886
3.514688,2.1930888,7.920019,-0.083987765,0.030462008,-0.01850899,3.0,3.1394107,2.265786,9.010034,0.020509912,-0.31807613,0.10197886,0.16911767,0.1096146,0.97825336,2016-12-12 17:07:14,11.183060697500277
2.9879637,1.7812861,9.404425,0.0040677083,-0.0030257185,0.027433155,3.0,3.3096306,2.22345,8.95952,-0.2859134,-0.153157,0.002667706,0.17487021,0.11230312,0.97795683,2016-12-12 17:07:15,17.221195383899374
3.2369606,1.8291701,8.954314,-0.037303735,0.030634107,4.3572083E-5,4.0,3.2376325,2.0623372,9.024129,-0.07771201,-0.18272933,0.019782092,0.1697546,0.105265655,0.9797765,2016-12-12 17:07:16,19.805004792127615
1.8579005,1.2066777,9.3661175,-0.039433233,0.07433894,-0.0101144705,2.0,2.7990248,1.7727407,9.230019,-1.1918238,-0.6422519,0.5630115,0.14702931,0.088217236,0.98490286,2016-12-12 17:07:17,15.61101383649056
2.2984335,2.825158,9.002198,0.005950694,0.09630426,0.06410968,2.0,2.0675116,1.486085,9.470341,0.030022083,1.1290218,-0.35832804,0.10731665,0.07503467,0.9913051,2016-12-12 17:07:18,16.393308225828434
2.3080103,2.566584,9.203311,0.09324687,-0.031964786,0.036528576,2.0,2.0879765,2.1687858,9.333118,0.22748263,0.3918396,-0.15300445,-0.1056343,-0.11395118,-0.98767847,2016-12-12 17:07:19,14.0595433948413
3.4763808,1.7621324,8.322245,0.0052422294,-0.006211308,-0.007721607,1.0,2.2842503,2.643474,9.163222,0.49430057,-0.123709776,0.28929853,-0.11453996,-0.14030772,-0.9830749,2016-12-12 17:07:20,9.908104165617992
2.873042,2.3175871,9.088389,-0.06035781,-0.06824681,-0.05099515,1.0,2.809211,2.4057229,9.082468,0.18726544,-0.52611506,0.11126637,-0.14530268,-0.12573837,-0.9813518,2016-12-12 17:07:21,9.555975635242909
3.1890767,2.135628,8.983045,-0.029560076,-8.686163E-4,-0.028249403,1.0,3.1920133,2.0543242,9.04219,0.11773134,-0.28367904,-0.08000125,0.16809349,0.1035431,0.9801267,2016-12-12 17:07:22,9.930226823166379
3.7541082,1.5801731,8.494628,-0.0075168842,-0.049063783,-0.018175138,1.0,3.256584,2.009976,9.029122,0.48901156,0.08755753,-0.012452343,0.1729127,0.09871235,0.97940356,2016-12-12 17:07:23,9.398311337680386
3.7062242,1.1875241,8.896853,-0.05168163,-0.035236742,0.021273866,2.0,3.6008518,1.7356977,8.954977,0.21284536,-0.6052089,-0.0064086462,0.19086196,0.08363554,0.977408,2016-12-12 17:07:24,11.142564325668713
3.371036,1.1779473,9.203311,-0.02270784,0.0014666506,-0.010745268,2.0,3.8020651,1.2401612,8.954144,-0.2880154,0.04015151,-0.073677406,0.20058586,0.056842234,0.9772759,2016-12-12 17:07:25,15.809962123659954
3.7062242,0.5267244,8.848969,-0.020754747,0.014090723,-0.016426276,1.0,3.6375186,1.1606473,9.032815,-0.21881133,0.18776713,-0.15234771,0.19190079,0.051271114,0.97895527,2016-12-12 17:07:27,17.717252428116424
3.323152,1.4556746,8.916007,-7.751648E-4,-0.0040845373,0.018450843,2.0,3.565748,1.0237437,9.077872,-0.13342063,0.25656885,0.04776017,0.18755929,0.044483796,0.980175,2016-12-12 17:07:28,21.25450766421681
1.0821792,1.8387469,10.25676,0.09001887,0.04686722,0.023307668,2.0,3.3964396,1.3610915,9.098463,-1.1627027,0.21886879,0.20423372,0.17788813,0.06680829,0.9815454,2016-12-12 17:07:29,27.906589398412702
1.7046716,1.6567876,9.356541,0.026742516,0.10960917,-0.002994644,2.0,2.365218,1.795388,9.346268,-0.6626745,-0.06560383,0.106253505,0.122609,0.091867745,0.9881747,2016-12-12 17:07:30,38.950411277174034
3.6774938,2.6048915,8.341399,0.121919855,-0.16673644,-0.02530812,3.0,2.0901172,2.171117,9.332098,2.2139125,1.7243022,-1.541259,0.10819496,0.11175702,0.98782414,2016-12-12 17:07:31,15.412281097283667
2.1452048,1.9919758,9.3182335,0.006828172,-0.08146555,-0.07402524,4.0,2.932982,2.7105963,8.9566,-0.8354484,-0.7220256,0.4141994,0.15574919,0.1381411,0.97788495,2016-12-12 17:07:32,13.20405953970451
2.0494366,2.0973208,8.762778,-0.06531129,0.11950967,-0.008874986,5.0,2.2929127,2.1483939,9.289636,-0.11365704,-0.009999325,-0.16400282,0.12347491,0.10542432,0.98568034,2016-12-12 17:07:33,14.96107652992325
0.5554548,1.2641385,9.643845,-0.061689317,0.08861803,-0.052139144,2.0,1.5414695,1.7053347,9.533421,-0.8740725,-0.42502192,0.06892475,0.08478171,0.08211544,0.99082184,2016-12-12 17:07:34,11.569464670980175
1.9536686,2.4612393,9.375694,-0.007313772,0.01832721,0.01947391,4.0,0.68291765,1.2277951,9.70549,1.4690973,1.482654,-0.7569219,0.039717916,0.059835065,0.99435353,2016-12-12 17:07:35,26.609632543729553
1.7525556,2.633622,9.203311,0.100420594,-0.069877006,0.050139524,4.0,1.2286814,1.9417527,9.533642,0.44662127,0.75507617,-0.33990765,0.06951582,0.09532632,0.9908594,2016-12-12 17:07:36,17.754966719762887
1.8483237,2.8443117,9.107543,0.03086373,-0.006288837,0.0047987946,3.0,1.8075595,2.6669786,9.262307,-0.009673656,0.111572295,-0.08219344,0.10104494,0.13245249,0.9844769,2016-12-12 17:07:37,13.288253929600003
1.8770541,2.72939,9.069236,0.005820881,-0.0011407613,0.010480297,5.0,1.8542678,2.7948456,9.215254,0.011719742,-0.029915052,-0.062380593,0.103450626,0.13946593,0.983455,2016-12-12 17:07:38,10.171638168367615
1.7238252,2.8060043,9.107543,-0.0,-0.0,0.0,3.0,1.8602624,2.7997646,9.212552,-0.07599679,0.0060268627,-0.12778054,0.1035381,0.13989443,0.9834734,2016-12-12 17:07:39,10.276044006725918
1.6663644,2.825158,9.088389,0.0034672148,0.0124978395,9.864985E-4,3.0,1.7740108,2.8216748,9.222876,-0.09870803,0.011357495,-0.083622485,0.099230945,0.14112933,0.98369676,2016-12-12 17:07:40,13.852151431282183
1.8674773,2.920926,9.011775,3.8487572E-4,1.3552989E-4,0.0021604442,3.0,1.7098898,2.8385475,9.229806,0.19695884,0.048966207,-0.1858948,0.095566995,0.14240043,0.98400676,2016-12-12 17:07:41,13.461083703991694
1.8962077,2.8634653,9.059659,0.0046855076,-0.011142907,0.008159573,4.0,1.831704,2.8710277,9.196328,0.04790399,0.002865768,-0.08431581,0.10225541,0.14374158,0.98306656,2016-12-12 17:07:42,17.16029442278592
1.8962077,2.8538885,9.14585,0.004408829,0.005202994,0.021584671,3.0,1.9257691,2.8998346,9.16803,-0.018920429,-0.025941133,-0.05601767,0.105719455,0.1462326,0.9828083,2016-12-12 17:07:43,30.11682755725753
1.7429788,2.8538885,9.155427,-0.0051900377,0.0037961365,-0.015616025,3.0,1.8934042,2.8801966,9.180952,-0.081898116,-0.060784455,-0.10980075,0.104036935,0.14518288,0.983124,2016-12-12 17:07:44,14.997729709766197
1.733402,2.7581203,9.136273,-0.0030601637,0.0039089588,-0.016585082,2.0,1.8012373,2.8694673,9.202831,-0.057832856,-0.036434885,-0.11805991,0.10071816,0.1436734,0.9832138,2016-12-12 17:07:45,10.875817880740561
1.9057846,2.719813,9.088389,-0.0027712828,0.002250349,0.0067278636,2.0,1.7640486,2.8576732,9.213697,0.06107791,-0.079122335,-0.074444704,0.09900763,0.14293243,0.9833978,2016-12-12 17:07:46,16.107931986191492
1.8674773,2.834735,9.136273,0.005844447,-0.0068075517,0.019211039,4.0,1.8405168,2.8431644,9.203223,0.14805394,-0.010132128,-0.13207181,0.10133956,0.14316602,0.9836505,2016-12-12 17:07:47,19.00793702192291
1.8579005,2.8443117,9.155427,-1.6771506E-4,-0.006733746,-0.017397651,3.0,1.9025397,2.8800702,9.179102,-0.050172452,-0.01979747,-0.08071037,0.104282275,0.14533126,0.9831382,2016-12-12 17:07:48,22.16841898464999
1.7812861,2.8921957,9.136273,-0.0034021656,0.0021026547,-0.021394828,2.0,1.8587707,2.8883905,9.185454,-0.088125534,-0.02811753,-0.08706165,0.102458194,0.14551458,0.98318255,2016-12-12 17:07:49,10.480045698497193
1.8195933,3.1794999,8.916007,0.017409552,-0.004616131,0.003739051,2.0,1.8234679,2.9151168,9.184086,0.2604453,0.25842434,-0.35810107,0.100947686,0.14680418,0.98307425,2016-12-12 17:07:50,10.542778214395838
0.5650316,1.9536686,9.5385,-0.06948863,0.067213506,-0.033822257,2.0,1.5850831,2.8769844,9.240176,-0.97216743,-0.87479335,0.18510422,0.08938238,0.14454392,0.9842094,2016-12-12 17:07:51,12.78110254553043
0.37349546,1.8579005,9.519346,-0.08367456,0.081700206,-0.020267935,2.0,0.7477299,2.2021987,9.52689,-0.37998056,-0.34983152,0.020974204,0.045551877,0.11040326,0.9908102,2016-12-12 17:07:52,15.742121860731402
0.41180268,1.934515,9.490616,-0.0054292935,0.012362236,-0.0011792943,2.0,0.37462017,1.8879836,9.615902,-0.047731824,0.005244798,6.318033E-5,0.025249872,0.09533051,0.9931486,2016-12-12 17:07:53,10.155954931995764
3.1316159,4.012682,8.303091,0.095129244,-0.13898505,0.012934241,3.0,0.54295623,2.0197065,9.581042,2.4943812,1.9438148,-1.1909083,0.033406146,0.10191579,0.9927759,2016-12-12 17:07:54,12.659963704950792
3.265691,4.7405195,7.843405,0.20547064,-0.20674345,0.03382185,2.0,2.2818754,3.4648037,8.885864,1.0414894,1.0980124,-0.8089983,0.12754543,0.17515491,0.97516596,2016-12-12 17:07:55,9.891437903454268
2.5378537,3.7541082,8.494628,0.041706193,-0.03219417,-0.017694786,3.0,3.3006134,4.6029296,8.005586,-0.20879455,-0.27165917,0.24834523,0.18780817,0.23781702,0.9519567,2016-12-12 17:07:56,9.88726132532917
0.37349546,1.8770541,9.56723,-0.20802116,0.15993915,-0.07189106,3.0,2.509665,3.8617563,8.657876,-2.1010547,-1.9004263,0.8627464,0.14604795,0.1929798,0.9677898,2016-12-12 17:07:57,9.335505545808303
-0.41180268,1.8483237,12.210428,-0.12803496,0.120739184,0.010301845,2.0,0.7934066,2.1654139,9.531626,-0.34393513,-0.25856528,0.80621827,0.049928676,0.10737551,0.98945946,2016-12-12 17:07:58,10.602255243941677
2.96881,2.7868507,8.781932,0.05026999,-0.1690503,0.1017768,3.0,1.7085197,2.1764002,9.408221,1.2470957,0.73835415,-0.5549959,0.0917828,0.10904187,0.9892144,2016-12-12 17:07:59,9.164539485499251
3.9935284,4.156334,7.632715,0.036420472,-0.06231613,-0.005939011,2.0,3.1119776,2.774236,8.876351,0.64723855,0.87601715,-0.58155906,0.16388975,0.14343114,0.9759548,2016-12-12 17:08:00,10.452006939817096
1.4652514,1.4460979,9.710882,0.025976637,-0.03321661,8.959745E-4,2.0,3.3787892,3.3617053,8.570478,-1.1995337,-1.5229584,1.1680695,0.17919771,0.17582789,0.96795005,2016-12-12 17:08:01,14.287926244213551
3.6583402,0.33518824,8.2169,-0.22120987,0.058153935,0.036529526,1.0,2.9593127,2.197371,9.087598,0.7181811,-1.6934183,-0.42505643,0.15450653,0.113090634,0.9814748,2016-12-12 17:08:02,16.830751943853734
1.2449849,1.6184803,9.682152,-0.027743064,-0.04798352,-0.04982285,4.0,2.9223666,0.8645748,9.321088,-1.1925825,0.6745244,0.049711276,0.15126812,0.043299254,0.9875053,2016-12-12 17:08:03,11.750948587227017
0.82360536,1.5035586,9.548077,0.0047129407,0.17793742,-0.13648899,5.0,2.0040736,1.2771214,9.514359,-1.118751,0.11215401,-0.08907926,0.10819626,0.056535367,0.9888642,2016-12-12 17:08:04,9.95498085052006
0.89064306,1.5227122,9.710882,0.0014626188,0.030343125,0.0049624974,4.0,0.8025292,1.4009386,9.672833,0.041932356,0.17902164,-0.1385902,0.048947554,0.06653493,0.9901087,2016-12-12 17:08:05,14.761701949392014
-0.23942018,0.18195933,9.797073,-0.0033490406,-0.004761195,-0.040480815,3.0,0.8433557,1.5303924,9.649718,-0.734393,-0.8629954,-0.08823381,0.05229632,0.07257041,0.9887365,2016-12-12 17:08:06,32.4664242932723
0.59376204,0.45010993,9.059659,-0.090791896,0.08092349,-0.033219136,3.0,0.28465316,0.8497883,9.765614,-0.92480946,-0.99961215,0.4632672,0.020632342,0.040823523,0.98850787,2016-12-12 17:08:07,30.601688119451474
2.030283,1.6950948,9.32781,0.06457795,-0.1339566,-0.12236306,5.0,0.5745675,0.7230176,9.763069,1.3186609,0.7071189,-0.22882582,0.035712656,0.03076779,0.9812593,2016-12-12 17:08:08,12.180593320852056
1.9919758,1.685518,9.433155,0.011114032,-0.06821101,-0.09520669,5.0,1.7625428,1.4839737,9.532139,0.076203994,6.441691E-4,0.029345598,0.106813446,0.050863735,0.96077204,2016-12-12 17:08:09,11.617422327466302
1.6472107,1.6089035,9.461885,-0.0018718971,0.010001348,-0.015637096,4.0,1.8972863,1.5926318,9.488636,-0.2628447,-0.026291847,0.004746006,0.11631128,0.051825628,0.9534639,2016-12-12 17:08:10,24.14999446614611
-0.21068975,0.10534488,9.682152,0.0022570905,0.021126267,0.0017277136,4.0,1.7175035,1.5810313,9.524754,-0.16478384,0.46202075,-0.37187937,0.106981464,0.054108728,0.95527065,2016-12-12 17:08:11,17.15872826884935
-1.1875241,-0.17238252,9.653421,-0.11701052,0.19909571,0.05282816,3.0,0.43586808,0.74703884,9.768436,-1.6208383,-0.9377237,-0.08436901,0.031333536,0.031090137,0.9651579,2016-12-12 17:08:12,14.486580193454014
1.7238252,3.1986535,8.820239,0.1320177,-0.05176818,0.041634537,4.0,-0.66154283,0.16795707,9.782869,2.3640862,3.087306,-1.1339488,-0.03092902,0.015995745,0.97338027,2016-12-12 17:08:13,26.660233848604406
2.183512,3.217807,8.954314,0.22698298,-0.21914095,0.01866634,3.0,0.9491585,2.2017286,9.509042,1.230097,0.95819193,-0.5740938,0.072382376,0.0996724,0.96823215,2016-12-12 17:08:14,29.352001407805123
2.5570073,3.5051112,8.676587,0.030205525,-0.06760042,-0.01098023,3.0,2.1225712,3.2639513,9.00065,0.4652948,0.22285758,-0.3381095,0.14601314,0.14062266,0.953981,2016-12-12 17:08:15,14.514506098932706
3.2944214,4.012682,8.264784,0.05752857,-0.034287885,0.06604073,1.0,2.5197814,3.5676596,8.780256,0.6265189,0.51844484,-0.41736254,0.17046157,0.15255947,0.9487644,2016-12-12 17:08:16,9.873310318089707
3.217807,4.4244847,8.523358,0.063888796,-0.01381284,0.06545179,2.0,2.985924,3.9207485,8.478348,0.20123723,0.15173544,-0.26527837,0.19484222,0.17251402,0.9472,2016-12-12 17:08:17,9.855106750362308
3.1794999,4.10845,8.236053,0.009853953,-0.0048145084,-0.0038823588,2.0,3.180182,4.0994916,8.321719,0.04784039,-0.013387578,-0.43553773,0.20519045,0.18332294,0.94554794,2016-12-12 17:08:18,16.080577915028293
3.3327289,4.1659107,8.054094,0.006880031,-0.013201001,-0.013220775,2.0,3.2089393,4.192335,8.264227,0.059943993,0.20703736,0.11228722,0.20866543,0.18735123,0.943342,2016-12-12 17:08:19,12.844307338445196
3.1794999,4.2999864,8.379706,0.004475196,9.006075E-4,0.01367569,2.0,3.256203,4.231196,8.225845,0.06716193,-0.18595257,-0.28518268,0.21125206,0.18966092,0.9427924,2016-12-12 17:08:20,35.74868287050179
3.916914,2.2505496,9.902418,0.018239014,0.06859489,0.13118787,1.0,3.2127895,4.180389,8.268781,1.595193,-0.69358027,0.9249541,0.20246807,0.19343281,0.9487871,2016-12-12 17:08:21,12.930170813960334
5.2768207,0.7374141,7.785944,-0.15941694,0.08157273,0.38991007,1.0,3.2715316,2.7895076,8.813972,1.1550814,-3.2117383,-0.3284961,0.18325715,0.13049634,0.97065973,2016-12-12 17:08:22,13.629652270073112
5.257667,1.3694834,7.881712,0.08471558,-0.070820585,0.33678135,1.0,4.2152247,0.83197105,8.815333,0.9332669,0.72074854,-0.643125,-0.21750228,-0.056884598,-0.9725922,2016-12-12 17:08:23,15.87184611201115
5.305551,0.9864111,8.082825,0.11764322,-0.023920191,0.066211864,1.0,5.148403,0.9087161,8.296902,0.12267125,0.12643038,-0.1110735,-0.2625435,-0.08970322,-0.9492934,2016-12-12 17:08:24,13.330692435877198
5.1906295,1.0821792,8.389283,-0.03316352,-0.005602272,-0.004392819,1.0,5.348675,1.0752012,8.148988,-0.0776004,-0.08091581,-0.072122,-0.27107844,-0.105041526,-0.9428045,2016-12-12 17:08:25,35.487179325336186
5.056554,0.32561144,8.264784,-0.032712698,0.016511044,-0.034360558,1.0,5.2592616,0.9911292,8.217556,-0.34231597,-0.24201013,-0.045347676,-0.26717693,-0.0981719,-0.94547844,2016-12-12 17:08:26,8.543060418010807
4.8937483,0.81402856,8.504205,-0.12189561,-0.010019893,-0.20807512,2.0,5.0858817,0.6880218,8.356484,0.13071135,0.18368043,-0.45668232,-0.26283288,-0.069690675,-0.9548459,2016-12-12 17:08:27,10.059308672192124
4.510676,0.545878,8.6095495,-0.10119674,0.011386364,-0.19003342,2.0,4.9033284,0.73879284,8.460612,-0.3132713,-0.12587723,0.09296653,-0.25902596,-0.039171904,-0.9650756,2016-12-12 17:08:28,8.774073435888798
4.4915223,0.36391866,8.552089,-0.04219892,0.047254,0.036968764,3.0,4.634974,0.6957123,8.61414,-0.30370325,-0.30072224,0.18460459,0.24505244,0.027394114,0.96843547,2016-12-12 17:08:29,13.997277886434986
3.0550013,-0.05746084,9.481039,0.005316384,-0.010203995,0.0111273425,2.0,4.60377,0.47480503,8.6458235,-1.3485067,-0.4475643,0.806698,0.24233428,0.021444151,0.9698537,2016-12-12 17:08:30,13.928068316870458
3.323152,0.41180268,9.078813,0.031218862,0.10593999,0.12832136,1.0,4.0056453,0.27062324,8.947177,-0.84572434,0.11074648,0.3963817,-0.20848085,-0.018887011,-0.97758794,2016-12-12 17:08:31,10.84576277934331
3.323152,0.33518824,9.203311,0.026849106,0.011259434,0.07027665,1.0,3.240823,0.17965506,9.253928,0.06892142,0.13361295,-0.14191547,-0.16621134,-0.023553882,-0.9822166,2016-12-12 17:08:32,12.116877449796185
3.265691,0.20111294,9.165004,-0.013528222,-0.0023491546,-0.0049158554,1.0,3.31613,0.29214272,9.224334,-0.101727806,-0.060596816,-0.003358533,-0.16948459,-0.031062584,-0.9807503,2016-12-12 17:08:33,15.290772824506448
3.1986535,0.1436521,9.155427,-0.002757357,0.009355248,0.009411117,1.0,3.2632847,0.1991895,9.245631,-0.089743696,-0.03574533,-0.011035774,-0.16707389,-0.02627461,-0.98114806,2016-12-12 17:08:34,15.206472629903855
3.2082303,0.1340753,9.241618,-0.005821744,0.005253163,-0.004548614,1.0,3.1812801,0.16304299,9.274873,-0.02135973,-0.05408021,-0.09475885,-0.16287896,-0.024156716,-0.98180574,2016-12-12 17:08:35,11.078456777124416
3.1603463,0.10534488,9.337387,-0.004527631,5.542747E-4,-0.0028631184,1.0,3.1582053,0.12557402,9.283338,-0.03914561,-0.043851938,-0.007880914,-0.16179854,-0.022421924,-0.981839,2016-12-12 17:08:36,8.531656617622899
3.8977604,0.90021986,8.523358,-0.03174686,0.0069270884,-0.08908287,2.0,3.1517882,0.0992315,9.285837,-0.1553118,0.20041615,0.42547044,-0.1618001,-0.019359706,-0.9828494,2016-12-12 17:08:37,9.025807497064294
3.8977604,0.6991069,9.088389,-0.01957903,-0.11138262,-0.18007416,2.0,3.773779,0.48262775,9.038588,0.42128804,0.3890745,-0.32156456,-0.19599877,-0.027292125,-0.9801633,2016-12-12 17:08:38,7.25809577428663
4.7405195,0.39264908,8.207323,0.14221236,-0.11086803,0.22909816,2.0,4.960228,1.0002365,8.400361,0.7603182,-0.50990397,-1.8217331,-0.26163653,-0.056982193,-0.9633677,2016-12-12 17:08:39,8.522130522952368
1.685518,-0.5267244,9.605537,-0.056733895,0.19612291,0.07814008,2.0,4.25466,0.43349957,8.824984,-2.6202185,-0.9102117,0.83184296,-0.22061951,-0.037122775,-0.9725845,2016-12-12 17:08:41,12.152574224832025
1.2258313,-1.6663644,11.032481,-0.04299786,0.106585436,0.011958831,2.0,1.9479865,-0.3551483,9.604666,-0.19096169,-0.14880458,-0.015941393,-0.100383274,0.014883917,-0.9942914,2016-12-12 17:08:42,23.438638227031507
5.9184666,0.81402856,7.6710224,0.044718318,-0.30499426,-0.10019154,1.0,3.462987,-0.12547788,9.1740055,2.4482436,0.9290784,-1.6010916,-0.1795476,0.0043114303,-0.98366654,2016-12-12 17:08:43,18.213292580610553
5.48751,0.5650316,8.00621,0.018778363,-0.110884145,-0.059921827,1.0,5.7614565,0.6842412,7.9061894,-0.23159495,-0.13942727,0.0072324844,0.30992794,0.029003443,0.95002294,2016-12-12 17:08:44,10.450783747351881
5.554548,0.62249243,7.9391727,-0.01599893,0.0328185,0.0032930882,1.0,5.7398934,0.6678118,7.9232597,-0.22365253,-0.09575721,-0.009837842,0.30880028,0.025857138,0.9502799,2016-12-12 17:08:45,17.394734501124443
4.654328,0.10534488,8.504205,-0.0021272267,0.0027718018,0.001514621,2.0,5.607895,0.58661675,8.023578,-0.40492228,-0.109904565,0.026047751,0.30068228,0.022396445,0.9530358,2016-12-12 17:08:46,16.430206347574813
1.3311762,-0.92895025,9.643845,-0.11514378,0.29498908,-0.035026968,2.0,4.3642025,0.14938128,8.780763,-3.0838897,-0.9666021,0.82158196,0.22865105,-0.004935184,0.97198105,2016-12-12 17:08:47,9.48932292411184
2.1930888,-2.9975405,9.050082,-0.16477066,0.18158707,0.12588777,2.0,2.0439699,-1.1417563,9.523076,0.05356361,-1.7457576,-0.56088746,0.10236925,-0.063077874,0.9918349,2016-12-12 17:08:48,6.772646741146479
2.0973208,-1.484405,9.279925,-0.07743824,-0.10637721,0.014385734,3.0,2.145838,-2.497721,9.23727,0.0061769155,0.7951774,0.29697245,-0.11139912,0.12892243,-0.9853738,2016-12-12 17:08:49,9.47556248191123
1.388637,0.02873042,9.787497,0.22734962,-0.05558442,-0.02357109,3.0,2.8225617,-1.616003,9.251598,-0.37089923,2.0382338,-0.13958612,-0.14895807,0.07817475,-0.98508555,2016-12-12 17:08:50,12.369464239833386
0.2873042,-0.34476504,9.691729,0.036696717,0.140121,-0.09956275,2.0,2.1251733,-0.21737179,9.571143,-1.6212204,-0.23209967,0.05844263,-0.109296516,0.007861573,-0.9935271,2016-12-12 17:08:51,14.984828586845023
2.825158,0.0,9.385271,-0.0036061052,-0.0059069833,-6.661365E-4,3.0,0.78583866,-0.26940694,9.771401,2.1970174,0.39199007,-0.85007375,-0.040262252,0.013273702,-0.99903125,2016-12-12 17:08:52,42.14958282144643
1.7142484,-0.33518824,9.595961,0.015538818,-0.10353344,-0.052619014,3.0,1.8478631,-0.096624576,9.630496,0.045365132,-0.28474513,-9.1029546E-4,-0.09465054,0.004759408,-0.9954972,2016-12-12 17:08:53,39.57145124525631
2.1452048,-0.5746084,9.404425,-0.07828236,0.038814776,-0.15263438,3.0,2.2033951,-0.28296393,9.551722,0.4525727,-0.31633136,-0.31712532,0.11193961,-0.021617373,0.9915061,2016-12-12 17:08:54,9.629018131343317
2.0111294,-0.92895025,9.624691,-0.024348339,0.041926555,0.004244275,3.0,1.7430742,-0.700711,9.625025,-0.2175952,-0.26633364,0.086283535,0.084934585,-0.04523809,0.9896478,2016-12-12 17:08:55,10.74176225435349
4.2042184,0.12449849,8.714894,0.038847543,-0.15661035,-0.02551004,2.0,2.286547,-0.73288506,9.508153,1.9357609,0.84184784,-0.79113066,0.11328447,-0.048844244,0.98770547,2016-12-12 17:08:56,14.783409934952605
3.8498764,1.532289,8.925584,0.112693965,-0.113144,-0.12439333,3.0,3.900608,0.090132244,8.997084,-0.291216,0.44106132,0.26475215,0.20225216,-0.019247415,0.9723374,2016-12-12 17:08:57,12.254708195673768
2.6431987,0.8619126,9.184157,0.05235667,0.06722,-0.06582383,3.0,3.7959402,1.0562173,8.980292,-1.04463,-0.034691297,0.41774747,0.20405835,0.02219844,0.9657302,2016-12-12 17:08:58,10.26967137928898
-0.05746084,-0.78529817,9.816227,-0.16151786,0.217741,-0.031872727,3.0,2.4283652,0.77763265,9.469357,-2.264921,-1.3633075,0.2010905,0.13030626,0.014746387,0.9721461,2016-12-12 17:08:59,12.425724837156025
2.327164,0.7278373,9.509769,-0.019549742,0.0193353,-0.03067093,3.0,1.0782765,-0.15705995,9.745926,1.291664,0.783596,-0.29340443,0.052201033,-0.019266877,0.9767361,2016-12-12 17:09:00,26.881137946814455
2.566584,1.3120226,9.346964,0.12337843,-0.16512136,-0.061270162,3.0,1.9691023,0.49808422,9.594006,0.67324513,0.918432,-0.40027145,0.10408523,0.0028528853,0.9705165,2016-12-12 17:09:01,13.218313585920878
0.7278373,-1.1300632,9.634268,-0.030653752,0.056277942,-0.03701628,2.0,2.3775563,1.0751805,9.453126,-1.573956,-2.2192895,0.21732035,0.13198611,0.024583578,0.96241426,2016-12-12 17:09:02,12.234472650635254
0.5650316,-1.2258313,9.634268,-0.15092708,0.124907345,0.09558861,2.0,1.393628,-0.21965986,9.704635,-0.67174965,-0.9244493,-0.02056769,0.066888295,-0.026968297,0.9718272,2016-12-12 17:09:03,12.28528677357182
0.7374141,-1.1875241,9.586384,-0.01584653,0.0021738464,0.04018633,2.0,0.73084426,-1.1725929,9.708826,0.09999694,0.028483728,-0.21544322,0.025524687,-0.06584977,0.9800077,2016-12-12 17:09:04,39.90792534295097
1.13964,-1.3120226,9.414001,-0.028108746,0.016897196,-0.0132815745,1.0,0.6692389,-1.3076738,9.696005,0.16160227,-0.27228653,-0.2843447,0.021342583,-0.072013,0.9801778,2016-12-12 17:09:05,39.76183704569425
1.283292,-0.51714754,9.653421,0.0038218107,-0.025559973,-0.0048319693,1.0,0.76406175,-1.3924538,9.677173,0.35280678,0.6297143,0.08861622,0.024662588,-0.07741624,0.97810215,2016-12-12 17:09:06,16.638775276890264
1.8483237,0.076614454,9.433155,0.049553968,-0.017988656,0.08628551,2.0,1.1640432,-0.9078688,9.694905,-0.16975783,-0.004694464,0.09812486,0.050484717,-0.056113794,0.98178256,2016-12-12 17:09:07,14.194910690972568
3.7924154,-0.076614454,8.935161,0.08436,-0.16096056,-0.101657644,1.0,2.2029874,0.1782986,9.554343,1.501747,0.8023664,-0.37422872,0.11283024,-0.011553957,0.97699237,2016-12-12 17:09:08,12.51638220448212
3.2369606,-2.930503,8.954314,-0.2757448,-0.09014415,-0.0029727204,1.0,3.7585428,-0.24321972,9.054534,0.13687642,-2.0858598,-0.37837198,0.18867004,-0.052448727,0.9597999,2016-12-12 17:09:09,13.122831657914784
6.196194,-0.4309563,7.5465236,0.020026587,-0.18052875,0.08286421,1.0,4.3951287,-1.9190729,8.55397,1.5705835,1.4696013,-0.92657524,0.21467604,-0.13335352,0.9575015,2016-12-12 17:09:10,13.398239598269816
6.253655,-0.31603462,7.4603324,0.20984003,-0.204356,0.07714492,1.0,5.7179694,-0.77011734,7.9298253,0.4111867,0.32064587,-0.39777333,0.304404,-0.05504192,0.9499884,2016-12-12 17:09:11,28.734404958895418
5.3821654,-0.45010993,7.929596,0.007966598,-0.015041928,-0.0038493234,1.0,6.279708,-0.37475014,7.5229797,-0.3957175,0.061482143,0.6492285,0.34020218,-0.02640482,0.9398317,2016-12-12 17:09:12,21.08955932638125
1.7429788,-1.5897499,9.356541,-0.1895658,0.2547761,-0.16356009,2.0,5.45367,-0.5253977,8.133377,-3.056489,-1.0273219,1.2646623,0.28801027,-0.048613127,0.9539714,2016-12-12 17:09:13,13.61078269059741
1.2354081,-1.3694834,9.787497,-0.09632555,0.28803793,-0.07697851,1.0,2.7439492,-1.2716092,9.328673,-1.4091551,-0.43093428,0.36901465,0.12820092,-0.08907624,0.972948,2016-12-12 17:09:14,10.672568892381499
4.912902,2.7581203,7.9870567,0.29121125,-0.15846278,0.2836766,1.0,1.9630064,-0.9197041,9.5640545,2.4908473,3.8480792,-1.4735681,0.09391417,-0.059574027,0.9857743,2016-12-12 17:09:15,10.726863629728381
3.7349546,3.41892,8.331821,0.36825198,-0.08243705,0.064222656,2.0,3.4482229,1.9720781,8.966105,0.32461324,1.8552395,-0.112879954,0.1817461,0.09911699,0.97813714,2016-12-12 17:09:16,13.499449728387159
6.6846113,3.5625722,5.506664,0.12634972,0.015342671,0.004938886,1.0,3.7216988,3.5909233,8.332143,1.5221349,0.0048482586,-0.7047482,0.19849624,0.18915413,0.961657,2016-12-12 17:09:17,28.465188034688428
1.3599066,0.9768343,9.595961,-0.102046624,0.017795758,0.07200293,2.0,4.6464243,3.536873,7.878559,-3.1618066,-2.6379302,1.6148235,-0.2368045,-0.20549682,-0.94762594,2016-12-12 17:09:18,28.857286315176328
0.41180268,1.9632454,9.490616,-0.14520214,0.3493338,-0.10460987,5.0,2.584153,2.2254903,9.194549,-2.1346815,-0.5093265,0.36693466,-0.12700114,-0.12279732,-0.9826393,2016-12-12 17:09:19,14.819797893399912
0.15322891,2.0494366,9.519346,0.058724754,0.083282664,-0.04035502,4.0,0.5821234,1.7777473,9.626586,-0.3914385,0.21082337,-0.17406511,-0.027242934,-0.09186188,-0.9950049,2016-12-12 17:09:20,18.03307715869398
0.10534488,1.982399,9.519346,9.607992E-4,0.014360266,-8.5003243E-4,5.0,0.14044403,1.9772792,9.604219,-0.017860897,-0.02956943,-0.09721706,-0.0050781807,-0.1014658,-0.99460876,2016-12-12 17:09:21,14.03120521175818
0.06703765,1.8770541,9.576807,-0.003491114,0.0040918128,-0.0022152478,5.0,0.064492516,1.9859936,9.603232,0.030849915,-0.011043255,-0.1098498,-0.0012642189,-0.10183252,-0.9946008,2016-12-12 17:09:22,12.585774254457922
0.009576807,1.9057846,9.509769,-0.001958212,-8.1334356E-4,-0.002274184,6.0,0.057137318,1.9684641,9.606888,-0.029896624,-0.0071341805,-0.045403376,-0.0011584795,-0.10091464,-0.99474144,2016-12-12 17:09:23,12.670249825047081
-0.02873042,1.6759412,9.375694,-0.0068271463,0.0012357954,-4.5063198E-4,5.0,0.053606875,1.9358704,9.613529,-0.06722723,-0.15160492,-0.09290583,-9.67431E-4,-0.09922478,-0.9949046,2016-12-12 17:09:24,13.240250955971815
-2.0207062,4.175488,9.797073,-0.037523832,0.041154854,-0.16241816,4.0,-0.4357604,1.4832691,9.68403,-9.069182E-5,1.3497632,-1.6752653,-0.021187441,0.076177694,0.9967648,2016-12-12 17:09:25,16.409160108574902
-0.7182605,1.934515,9.548077,0.04571322,-0.0025478748,-0.11014153,4.0,-0.8943021,1.6981992,9.617003,0.28138646,0.3312326,-0.21896306,-0.038217973,0.090602115,0.99151516,2016-12-12 17:09:26,14.026374647907103
-0.60333884,2.0207062,9.414001,-0.01041486,-0.03480311,-0.034971323,4.0,-0.6765686,2.1678977,9.540066,-0.058930095,-0.1657066,0.08951987,-0.021191284,0.11464263,0.9860713,2016-12-12 17:09:27,12.468984694995326
-0.6512229,2.0015526,9.557653,0.0016955382,0.0025936104,2.576206E-4,4.0,-0.671411,2.025666,9.571639,0.04487502,-0.023474814,-0.0373961,-0.020899706,0.1074497,0.9858658,2016-12-12 17:09:28,15.327543789924977
-0.6991069,1.9536686,9.528923,-3.8079932E-5,2.2101363E-4,0.0031012476,4.0,-0.6703934,2.0278583,9.571246,0.09833883,0.0015736888,-0.077863924,-0.021270076,0.107470244,0.9863623,2016-12-12 17:09:29,19.308535573499906
-0.61291564,1.982399,9.442732,-0.0028141888,-0.0025509358,2.740819E-4,4.0,-0.652791,2.0026922,9.57776,-0.08270772,-0.041362327,0.11992789,-0.020660074,0.10603462,0.98667777,2016-12-12 17:09:30,11.598678470925668
-0.61291564,1.9919758,9.471462,0.0,0.0,-0.0,5.0,-0.62679386,1.9836879,9.583449,0.04111891,-0.035978075,-0.10368722,-0.019328147,0.104911886,0.9866769,2016-12-12 17:09:31,17.210631424042013
-0.7757214,2.0111294,9.509769,-0.0021718873,0.0037537725,-0.0054343618,4.0,-0.6370571,1.9570189,9.588254,0.13310426,0.07241296,-0.27193642,-0.019883642,0.103632666,0.98664033,2016-12-12 17:09:32,11.590217270420249
-0.29688102,1.9249382,9.433155,3.3646913E-5,-0.023119621,0.016661318,1.0,-0.5649983,1.9732779,9.589438,0.22448966,-0.011947939,0.012906244,-0.016632399,0.1039137,0.9872779,2016-12-12 17:09:33,21.080891192962326
-0.29688102,1.934515,9.509769,-0.004838996,-0.011645869,-0.003870739,1.0,-0.3739599,1.9843959,9.596496,-0.048270855,-0.07754719,-0.08949327,-0.0074879015,0.103241794,0.9881875,2016-12-12 17:09:34,22.54767042141824
-0.38307226,1.8866309,9.461885,-0.0016346585,0.0032247219,-0.008313085,1.0,-0.38468358,1.9339287,9.606369,0.016934171,-0.054320738,-0.09936686,-0.008218403,0.10071721,0.9883175,2016-12-12 17:09:35,15.12259030216305
-0.4213795,1.8291701,9.5385,-0.0026797804,-2.4909608E-4,-0.0015571651,1.0,-0.39081576,1.9214253,9.60863,-0.058655705,-0.08267852,-0.060767,-0.008446046,0.10012427,0.98819435,2016-12-12 17:09:36,20.149010097429162
-0.4309563,1.8579005,9.548077,-7.982862E-4,0.0023326352,-0.005709088,1.0,-0.4052946,1.8912867,9.614009,-0.04417687,-0.011678799,-0.06614564,-0.009165597,0.09868123,0.98809993,2016-12-12 17:09:37,14.189741748659188
-1.0630256,1.5897499,9.481039,-0.0039777947,0.016733795,-0.005733314,4.0,-0.46218437,1.8751786,9.614597,-0.46399927,-0.30883852,0.0013683528,-0.012404535,0.09817386,0.98840785,2016-12-12 17:09:38,22.820411926486134
-0.6991069,1.7429788,9.528923,-0.009623103,0.015821168,-0.018534264,1.0,-0.7252579,1.7354808,9.624578,-0.010240875,-0.032937314,-0.09033539,-0.025765106,0.09284004,0.98756516,2016-12-12 17:09:39,26.06737308432562
-0.7374141,1.5897499,9.56723,-0.0014307509,-0.015499507,0.034755316,1.0,-0.8050853,1.6739297,9.629132,0.110447615,-0.025867667,-0.06764784,-0.030067101,0.09026004,0.9874798,2016-12-12 17:09:40,19.240207004740675
-0.6703765,1.7046716,9.586384,-0.003087671,-0.0015203505,-0.007141223,1.0,-0.70715564,1.6824068,9.635343,-0.0011024342,-0.07520578,-0.073858626,-0.025464013,0.08992131,0.98822945,2016-12-12 17:09:42,33.40167014994496
0.009576807,1.9536686,9.77792,-0.0012925947,4.029389E-4,0.012748473,2.0,-0.70212066,1.6633922,9.639011,0.034723617,-0.028950408,0.15401867,-0.02485593,0.08904707,0.9876716,2016-12-12 17:09:43,15.49577953762292
5.861006,0.5267244,6.4068837,0.045672327,-0.19907144,0.37306502,1.0,0.57939345,1.9977787,9.583505,3.2343037,-0.86728984,-2.5690258,0.03399423,0.10110206,0.99341464,2016-12-12 17:09:44,10.42870716585625
5.717354,0.6703765,7.929596,0.062347133,-0.4128189,0.30006453,1.0,4.9916587,1.5911078,8.289879,1.1783587,-0.7875073,-0.48542023,-0.24949592,-0.12282314,-0.9499286,2016-12-12 17:09:45,16.079573882005896
6.8569937,0.91937345,6.895301,0.060586337,-0.07865195,0.08490258,1.0,6.590258,0.8101153,7.216828,0.3016374,0.21141076,-0.51561713,-0.34101048,-0.1255232,-0.90702546,2016-12-12 17:09:46,33.904719879680606
6.7229185,0.8523358,6.9623384,0.08017291,-0.025833845,0.07492805,1.0,6.665659,0.90074885,7.1363883,0.09003363,-0.05628733,-0.17639114,-0.3393686,-0.14482562,-0.8960043,2016-12-12 17:09:47,23.889444490027927
6.3685765,0.047884032,7.1826053,0.003040913,0.019997828,0.0050894166,1.0,6.822055,0.8823052,6.9893847,-0.13446435,0.24818364,0.011473879,-0.34962496,-0.14629744,-0.8924397,2016-12-12 17:09:48,33.11705529864748
6.081272,0.39264908,7.575254,-0.012023461,0.05300471,0.026829945,1.0,6.585634,0.6607757,7.236242,-0.38837612,-0.15682286,0.22770855,-0.33731434,-0.13142826,-0.8980182,2016-12-12 17:09:49,32.26259875483698
6.2345014,0.2873042,7.469909,-0.013543731,0.031297892,0.008632739,1.0,6.2963896,0.4036355,7.507528,-0.099131174,-0.1176082,-0.05719731,-0.32269272,-0.11442064,-0.9038153,2016-12-12 17:09:50,9.956351945975499
7.575254,1.6567876,7.5848308,-0.006224123,-0.026603052,-0.0068058437,1.0,6.2876153,0.34062794,7.5179954,-1.0846428,-0.10908205,-1.5659035,-0.32289085,-0.11149186,-0.90367085,2016-12-12 17:09:51,11.246672176986099
5.21936,1.2354081,8.331821,-0.07556418,0.03717224,-0.22764054,1.0,6.2311044,1.1164167,7.4898157,-0.93278927,0.3682012,0.627911,-0.32199267,-0.1201931,-0.92391396,2016-12-12 17:09:52,11.198536226949576
5.0278234,0.2873042,8.37013,-0.040171232,0.084479414,-0.027096285,1.0,5.5738378,1.4700799,7.933573,-0.60241103,-1.238534,0.38845924,-0.2909629,-0.1041198,-0.94755554,2016-12-12 17:09:53,28.579465586385076
5.257667,1.091756,8.513782,-0.03945273,0.023357265,0.071892284,1.0,5.216845,0.39157465,8.294672,-0.2590385,-0.2689915,-0.14970411,-0.27234405,-0.05401958,-0.95367104,2016-12-12 17:09:54,21.217034363468198
6.0525417,-0.35434186,7.153875,-0.018569462,-0.034525666,-0.047415685,0.0,5.1332226,0.426845,8.344952,0.5192213,-0.30426186,-0.55411303,-0.26743612,-0.054806944,-0.95519227,2016-12-12 17:09:55,30.953633452912193
3.2369606,0.11492168,9.825804,0.0073029967,0.027896317,-0.038333736,2.0,5.3779254,0.5437932,8.182458,-0.78786814,-0.23052521,1.7059145,-0.28276214,-0.053445294,-0.9541577,2016-12-12 17:09:56,17.37142926663025
2.1739352,-0.30645782,9.5385,-0.049979903,0.24225703,0.0089897085,2.0,3.928108,0.20274168,8.983277,-1.5445473,-0.62497246,0.44200373,-0.20298676,-0.027870215,-0.9752609,2016-12-12 17:09:57,25.601757324382394
2.2409728,-0.34476504,9.548077,-0.02511343,0.07083316,0.0075001135,2.0,2.4397945,-0.40361497,9.489726,-0.21967798,0.09034701,0.017276492,-0.12683986,0.008385743,-0.9871355,2016-12-12 17:09:58,25.384637639615132
1.1300632,-1.5514427,11.042058,0.0063653495,0.012502043,0.0077061323,2.0,2.2243052,-0.33810043,9.545079,-0.18125293,-0.016028604,0.016404439,-0.115316674,0.0062012,-0.9886281,2016-12-12 17:09:59,15.196229347597257
6.8091097,1.292869,6.885724,0.107963316,-0.33293742,0.02506254,1.0,3.7710147,0.13917525,9.051545,3.0255384,1.1002764,-2.2549922,-0.19383031,-0.030487083,-0.9736126,2016-12-12 17:10:00,9.40298535946144
6.7324953,1.0630256,7.0006456,0.0724131,-0.2574527,-0.008533806,1.0,6.401451,1.0771881,7.350611,0.27251917,0.14864315,-0.36337247,-0.33806095,-0.10458457,-0.92699575,2016-12-12 17:10:01,8.806349805234298
5.401319,-0.6703765,8.226477,-0.13075142,-0.0037172937,0.07315166,1.0,6.8207846,0.7999743,7.000524,-1.2364419,-1.2358254,1.2942672,-0.36463627,-0.100563176,-0.9149814,2016-12-12 17:10:02,11.487375797510715
1.292869,2.5378537,9.107543,0.037783973,0.34265625,-0.09132807,3.0,5.7469783,0.45742747,7.9330587,-4.044434,1.4766618,2.513748,-0.3006669,-0.07159644,-0.9397325,2016-12-12 17:10:03,13.20405953970451
1.8195933,2.3175871,9.586384,0.15731484,0.24671876,-0.23735684,5.0,2.9151232,1.9234471,9.163667,-0.9674133,1.1138903,0.04368753,-0.14221898,-0.11205701,-0.9799973,2016-12-12 17:10:04,10.606978403536116
2.0685902,2.7868507,9.184157,-0.0023932923,-0.071332745,-0.032776132,5.0,1.7819407,2.69141,9.260205,0.39731488,-0.035442293,-0.28439626,-0.085958794,-0.14308053,-0.9850239,2016-12-12 17:10:05,12.02845768103023
1.8387469,3.0071173,9.126697,0.005726705,-6.8088673E-4,-0.010571747,5.0,2.0489874,2.7697375,9.181536,-0.12851834,0.036053933,-0.09676399,-0.10093358,-0.14725626,-0.98329574,2016-12-12 17:10:06,12.981022331105512
1.8866309,2.930503,9.11712,0.00953138,0.017475119,-4.0391035E-4,5.0,1.900958,2.925227,9.165141,-0.062211003,0.044009045,-0.17571196,-0.09327931,-0.15494144,-0.9829296,2016-12-12 17:10:07,15.316385547878141
1.9536686,3.0933087,9.069236,0.008185991,-0.002220448,-7.5461995E-4,5.0,1.8685157,2.9837058,9.152953,0.02471265,0.053631987,-0.17714348,-0.09104736,-0.15823938,-0.98250765,2016-12-12 17:10:08,18.934496567754465
1.9919758,3.064578,9.050082,0.0091347415,-0.006797613,-0.006661363,5.0,1.9301842,3.0556889,9.116334,-0.023335569,0.0633707,-0.16776538,-0.094584405,-0.16201884,-0.98164374,2016-12-12 17:10:09,9.881686299121954
2.4229321,3.2944214,8.762778,0.0049156975,8.076165E-4,-0.01388217,5.0,1.9592919,3.123389,9.087133,0.23358409,0.104633465,-0.1521856,-0.096762426,-0.16529408,-0.98102546,2016-12-12 17:10:10,10.52838169905007
3.6391866,3.6583402,8.1402855,0.03262212,-0.066615224,0.027363371,4.0,2.2367277,3.2553449,8.976089,1.2500813,0.40852836,-0.62681526,-0.11162432,-0.17287807,-0.9781952,2016-12-12 17:10:11,9.223361307758797
3.5529952,3.6583402,8.37013,0.042812243,-0.06825826,0.0335644,4.0,3.1016908,3.535227,8.605352,0.35787764,0.1967481,-0.07901447,-0.15530722,-0.19268847,-0.9680461,2016-12-12 17:10:12,10.423785981398762
3.9456444,3.4572272,8.054094,-0.011650427,-0.020082481,0.011316262,3.0,3.6217585,3.639133,8.355237,0.273661,-0.07060193,-0.019584237,-0.18255584,-0.20168017,-0.96121025,2016-12-12 17:10:13,13.11157621112034
3.7828386,2.566584,8.599973,-0.076807156,-0.012951508,0.0030706604,6.0,3.8161275,3.3517148,8.388896,-0.0024303643,-0.8728116,0.1919227,-0.19279341,-0.18739264,-0.96195173,2016-12-12 17:10:14,9.957722608703945
3.7062242,2.8443117,8.504205,-0.06667243,0.00397567,-0.038283587,6.0,3.798544,2.8500984,8.580116,-0.09380948,-0.044306863,-0.06739927,-0.19542752,-0.1560254,-0.9677902,2016-12-12 17:10:15,11.719091990722553
3.8498764,2.7389667,8.42759,0.016941067,-8.9377444E-4,-0.009946025,5.0,3.7620962,2.7866197,8.616947,0.07884198,-0.048929833,-0.14509112,-0.19527392,-0.15008697,-0.9690436,2016-12-12 17:10:16,12.236905900200654
3.6583402,3.0262709,8.552089,0.003544479,-0.0017918195,0.0036373301,5.0,3.812517,2.8446717,8.575719,-0.08054161,0.07008277,0.018720496,-0.19805537,-0.15340817,-0.9679544,2016-12-12 17:10:17,9.377998912579557
3.7253778,2.8921957,8.532935,0.009527568,0.006068887,-0.0027832752,5.0,3.8147156,2.8980048,8.556864,-0.028259063,0.030369991,-0.1258685,-0.19797786,-0.15660861,-0.96742946,2016-12-12 17:10:18,12.143470382906758
3.6296098,3.122039,8.647857,0.004738436,0.007214959,0.0027694607,5.0,3.7659469,2.9434855,8.56294,-0.11569356,0.039370693,-0.14556497,-0.19527498,-0.15899447,-0.967583,2016-12-12 17:10:19,14.275266803024946
3.9360676,2.6144683,8.513782,-0.023612382,-0.011636415,0.02415029,5.0,3.8040378,2.9134386,8.5563755,0.105001956,-0.5026371,0.051684,-0.19726613,-0.15758252,-0.9673999,2016-12-12 17:10:20,14.651503970822716
3.715801,3.0358477,8.418014,-0.011925691,-0.0043327147,0.0036097474,5.0,3.90581,2.7037647,8.579319,-0.09211275,0.31995243,-0.12108259,-0.2024879,-0.1468849,-0.9679705,2016-12-12 17:10:21,15.36637340651846
1.1587936,2.0590134,9.481039,-0.024329837,0.12723675,-0.039503366,3.0,3.4276364,2.6985495,8.782911,-2.0111203,-0.8189415,0.61512864,-0.17721887,-0.14418557,-0.9734271,2016-12-12 17:10:22,20.39674320439822
0.25857377,1.6280571,9.586384,-0.09482803,0.20564154,-0.058923103,2.0,1.5958167,2.1432662,9.435579,-1.3506505,-0.49520424,0.18038563,0.08231866,0.11019575,0.99049383,2016-12-12 17:10:23,15.038332254955657
2.1547816,2.4708161,9.078813,-0.023690047,0.048292965,0.0067594047,3.0,0.39681044,1.6841908,9.652795,1.2376312,0.9717771,-0.540782,0.02184715,0.085832365,0.99591136,2016-12-12 17:10:24,24.89699266014756
4.912902,1.484405,8.063671,0.002092226,-0.3077094,0.019107979,1.0,2.0924652,1.602686,9.445812,2.9743042,-0.049966488,-1.3280853,0.10859822,0.08126537,0.9906963,2016-12-12 17:10:25,17.8472870447051
3.0550013,1.5227122,9.184157,0.01864297,-0.042830985,0.031141069,1.0,4.4715295,1.6290772,8.574492,-1.3388497,-0.07635757,0.56476057,0.2370812,0.081333116,0.9679064,2016-12-12 17:10:26,10.187264973182252
3.122039,1.5227122,9.222465,0.040700212,0.1465858,0.10987342,1.0,3.7066677,1.6347214,8.930772,-0.54674715,-0.17734426,0.0858978,-0.19036868,-0.09174498,-0.97686046,2016-12-12 17:10:27,14.677930297856623
3.964798,2.135628,9.050082,0.010428264,-0.0042117937,0.004833912,1.0,3.142354,1.493601,9.168705,0.072048016,0.23618312,-0.015831659,-0.15703587,-0.08868975,-0.9811653,2016-12-12 17:10:28,16.163442079217592
4.060566,0.9768343,9.030929,0.101294175,-0.14847016,-0.07490243,1.0,4.1142945,2.3943772,8.573793,0.76179016,0.13900751,-0.11555764,-0.20836501,-0.13943563,-0.96615905,2016-12-12 17:10:29,16.21987228871595
2.2026656,1.5897499,9.490616,-0.09313684,0.09328784,-0.11006356,2.0,4.4030957,2.5153177,8.393826,-2.3464231,-0.96259815,1.1131774,-0.22971144,-0.13880427,-0.96302027,2016-12-12 17:10:30,16.283889300503116
2.078167,1.2545617,9.481039,-0.052990623,0.16584978,-0.008161126,2.0,2.5784166,1.4690692,9.346871,-0.6170866,-0.4475432,0.18737206,-0.13158377,-0.07828074,-0.988035,2016-12-12 17:10:31,32.23316624434562
1.9728222,1.0534488,9.500193,-0.02028638,0.009694246,0.018967777,2.0,2.009757,1.1829536,9.525329,-0.0075658434,-0.07970551,-0.01832562,-0.101810336,-0.06307204,-0.9925479,2016-12-12 17:10:32,18.030728409011157
2.0207062,1.1109096,9.346964,-0.007834644,-0.005062257,6.532606E-5,1.0,2.0231442,1.0956494,9.532934,-0.061814256,-0.08774365,-0.06679324,-0.10233063,-0.05902642,-0.9926394,2016-12-12 17:10:33,20.491695495988772
2.0494366,1.1109096,9.385271,-2.596475E-4,3.1652476E-4,0.0021601883,1.0,2.0530896,1.0559016,9.531016,-0.09175965,-0.11609768,-0.051255036,-0.103781186,-0.057296034,-0.9925188,2016-12-12 17:10:34,16.99485423063942
2.030283,0.94810385,9.471462,-6.798904E-4,-0.002948718,-7.147338E-4,1.0,2.0740287,1.0507159,9.527056,0.023504741,-0.0019492377,-0.06091498,-0.10482162,-0.057164636,-0.9923897,2016-12-12 17:10:35,15.375830013018152
2.0590134,1.0151415,9.442732,-0.001763777,-0.0013061318,-1.3087271E-4,1.0,2.087885,1.0375623,9.525472,-0.01759198,-0.111378595,-0.07295,-0.105514094,-0.056594443,-0.9923255,2016-12-12 17:10:36,13.908799340763212
2.1260512,0.94810385,9.481039,-0.004860946,1.9485627E-4,7.094535E-4,1.0,2.0857694,1.0049132,9.529434,-0.06995787,-0.09234989,-0.06329255,-0.10550196,-0.054803766,-0.9924576,2016-12-12 17:10:37,13.538080763981
4.4436383,3.3997664,7.8912888,0.020096477,0.015001237,0.04668716,1.0,2.0608683,0.9602318,9.5394535,0.9083676,2.4584754,-0.005210714,-0.10399372,-0.05299594,-0.9925471,2016-12-12 17:10:38,11.347347635963983
5.659893,1.484405,7.536947,0.095435776,-0.23585233,0.102027096,1.0,3.169743,1.8821809,9.087382,2.1966739,-0.02981363,-1.323785,-0.15871653,-0.107151836,-0.979843,2016-12-12 17:10:39,23.443738501686916
5.995081,1.7046716,7.4986396,-0.028789023,-0.124661446,0.1436521,1.0,5.29167,2.1083364,7.982703,0.74214435,-0.5011355,-0.5187528,-0.27109098,-0.13966058,-0.94793063,2016-12-12 17:10:40,10.615231592862104
6.1100025,1.6663644,7.335834,0.016560746,-0.030687425,0.024528109,1.0,5.9615235,1.6032076,7.6197352,0.1403925,0.017613802,-0.19664627,-0.30857125,-0.12761423,-0.93471706,2016-12-12 17:10:41,15.43252977832834
6.2249246,1.6567876,7.326257,-0.0025286449,-0.014560726,-0.0019890177,1.0,6.155317,1.6147494,7.461572,0.08280197,0.06055325,-0.13382506,-0.31990463,-0.1312509,-0.9300547,2016-12-12 17:10:42,41.46357627575557
6.081272,1.4748282,7.469909,-0.026053688,-0.00481694,-0.014712894,1.0,6.2182937,1.5749195,7.417738,-0.23896128,-0.09030151,0.23689711,-0.32444283,-0.12859812,-0.9292986,2016-12-12 17:10:43,14.807253789884879
6.0525417,1.5035586,7.479486,-0.04433174,0.0032744503,-0.03634308,1.0,6.1639905,1.4931921,7.4797044,-0.10293571,-0.008574131,-0.015754346,-0.3237063,-0.11770918,-0.9330193,2016-12-12 17:10:44,12.693669874086435
6.0046577,1.4652514,7.5848308,0.0059754862,0.003383912,0.005494269,1.0,6.1050854,1.4798151,7.5305033,-0.084892325,-0.02243795,0.028789444,-0.3207448,-0.11477821,-0.9349238,2016-12-12 17:10:45,9.374865474623258
5.947197,1.5227122,7.536947,0.013217198,0.0074151508,0.011527059,1.0,6.0667334,1.4943622,7.558573,-0.06015972,0.044737075,7.199231E-4,-0.31765798,-0.11710438,-0.9350845,2016-12-12 17:10:46,9.333923704662046
5.7269306,1.541866,7.6710224,-0.0037299262,0.01429842,-0.009790529,1.0,5.985983,1.5203183,7.6175485,-0.22457613,-0.008459616,0.064327545,-0.31252146,-0.11808262,-0.9365807,2016-12-12 17:10:47,8.9052580695003
5.554548,1.6663644,7.9391727,-0.030328237,0.021333816,-0.03868471,1.0,5.800945,1.5186983,7.7597027,-0.24384281,0.08850264,0.18096009,-0.30251798,-0.113349624,-0.94141835,2016-12-12 17:10:48,10.574996938920107
5.506664,1.6472107,7.929596,-0.023133753,0.005822705,-0.022451777,1.0,5.6525707,1.5226436,7.86768,-0.14995019,-0.14698839,-0.049600713,-0.29529193,-0.10799383,-0.9456537,2016-12-12 17:10:49,12.844307338445196
5.3821654,1.8579005,8.772355,-0.023311784,-0.058314186,-0.07658089,2.0,5.697095,1.5583236,7.8284817,0.03707147,0.7707557,-0.77314174,-0.29909107,-0.10678498,-0.9454989,2016-12-12 17:10:50,12.145127046981408
5.1235914,-0.5363012,8.178593,-0.08911275,0.02047962,0.10589627,2.0,5.675947,1.4761143,7.859715,-0.32315072,-1.9255857,0.4486975,-0.29938668,-0.09815167,-0.9472246,2016-12-12 17:10:51,9.812805005345279
4.6351743,-0.5746084,8.590396,-0.08726747,0.07102402,0.14150023,2.0,5.2447147,0.025977468,8.286295,-0.5456947,-0.59803206,0.28090388,-0.27622226,-0.03489722,-0.9534702,2016-12-12 17:10:52,12.492748109573526
4.7788267,-0.38307226,8.475474,-0.0020575263,0.030697005,9.6520525E-4,2.0,4.78737,-0.5340201,8.542032,-0.020248462,0.15265037,-0.042935185,-0.25382715,-0.007027511,-0.9579264,2016-12-12 17:10:53,18.87476638154133
4.5394063,-0.23942018,8.7532015,0.016800521,0.012733133,5.8324024E-4,2.0,4.7018957,-0.44943336,8.594218,-0.23442186,0.17702638,0.09556356,-0.24843648,-0.009807473,-0.9598179,2016-12-12 17:10:54,31.022482075768302
4.4340615,-0.16280572,8.839393,3.5073236E-4,0.029997947,-0.027795354,2.0,4.5405126,-0.30430445,8.68686,-0.14114027,0.09999923,-0.05156013,-0.23839796,-0.016119493,-0.96227264,2016-12-12 17:10:55,13.31996365589154
2.6144683,0.30645782,9.998186,0.008032028,0.007611079,-0.053072367,1.0,4.487257,-0.13763627,8.718714,-1.654225,0.5734874,1.1968997,-0.23447789,-0.022123175,-0.9643189,2016-12-12 17:10:56,12.459750932156775
4.261679,2.0494366,8.408437,0.08029217,0.010914378,-0.1359651,1.0,4.1282015,0.4389453,8.884574,0.1894487,1.6177272,-0.35823658,-0.21235129,-0.043814328,-0.97157013,2016-12-12 17:10:57,12.08844289340738
3.4093432,1.043872,8.887277,0.023678716,-0.003993352,-0.053165473,1.0,3.9163425,1.2304984,8.9060955,-0.52487594,-0.29069442,0.396602,-0.20144424,-0.073046595,-0.975851,2016-12-12 17:10:58,14.476908783557956
3.9552212,1.3790601,8.858546,0.025060304,0.03785744,0.14085051,1.0,3.7224433,1.2962059,8.979625,0.20021679,0.1475509,-0.19450063,-0.18811865,-0.08232814,-0.97575617,2016-12-12 17:10:59,14.665896125678724
4.003105,1.436521,8.8777,0.014514362,-0.035435554,-0.0064712744,1.0,3.8477328,1.4066132,8.909926,0.18389007,0.009902892,-0.08394088,-0.19190837,-0.09429419,-0.97136605,2016-12-12 17:11:00,15.833050667242592
3.9264908,1.2737153,8.820239,-0.0040462296,3.9939656E-5,0.008687509,1.0,3.9560168,1.3905072,8.864921,-0.01973637,-0.11019448,-0.011695011,-0.19755775,-0.09479354,-0.96986693,2016-12-12 17:11:02,17.978948059234597
3.9264908,1.2737153,8.868123,-0.010314661,0.003908554,-0.0057462747,1.0,3.9556735,1.3126638,8.876934,0.007847661,-0.018730784,-0.010088069,-0.19786271,-0.09084434,-0.9701111,2016-12-12 17:11:02,10.81437326351849
3.9456444,1.292869,8.820239,-0.0076777814,-0.0025629813,-0.018713871,1.0,3.9269714,1.2916131,8.892751,0.036549818,0.0023199024,-0.06676581,-0.19703111,-0.088173866,-0.9712472,2016-12-12 17:11:03,7.792807555246135
4.0222588,1.2641385,8.762778,-4.124665E-4,-0.0099329,0.0027414975,1.0,3.9661336,1.301649,8.873888,0.07910966,-0.0077160005,-0.047903158,-0.19936594,-0.088379234,-0.9710409,2016-12-12 17:11:05,6.984267966580666
4.060566,1.3215994,8.7532015,0.0014297452,-0.012305483,0.0032996403,1.0,4.061442,1.2863863,8.83291,0.092764094,-0.0060735205,-0.17036824,-0.20450696,-0.08845257,-0.9698447,2016-12-12 17:11:06,6.829343953950322
4.261679,1.2354081,8.628703,0.0042914418,-0.007830048,0.008080498,1.0,4.137433,1.2895436,8.797108,0.11211556,0.07249121,-0.1345666,-0.20849714,-0.08944971,-0.96874845,2016-12-12 17:11:07,7.341495008069866
4.1276035,1.2641385,8.7532015,8.1198954E-4,-0.0061738333,-0.003092674,1.0,4.209536,1.2962846,8.76184,-0.028089473,-0.015971944,-0.08567834,-0.21205552,-0.09112033,-0.9674232,2016-12-12 17:11:08,9.859314351032811
4.146757,1.2449849,8.743625,-1.3862184E-4,0.006042146,0.0034370678,1.0,4.2148924,1.2973404,8.759109,-0.08792706,-0.003407373,0.012394981,-0.2124311,-0.09100991,-0.9674506,2016-12-12 17:11:09,13.61137360764289
4.280833,1.2641385,8.676587,9.438899E-4,-0.004208161,0.0032256106,1.0,4.1864057,1.2680895,8.777035,0.07676326,-0.042258285,-0.0055316035,-0.21076791,-0.089847915,-0.96763843,2016-12-12 17:11:10,15.74646082852454
4.261679,1.283292,8.7053175,0.0021202497,-0.009172347,-0.0028377748,1.0,4.257867,1.2761347,8.741421,-0.008318189,0.07227964,-0.010778064,-0.21476959,-0.090474285,-0.96685064,2016-12-12 17:11:11,10.542778214395838
4.261679,1.2641385,8.695741,0.006233108,0.0019023031,0.011678543,1.0,4.2893577,1.2906936,8.72387,-0.053429767,-0.0376217,-0.08856967,-0.21617183,-0.09206602,-0.96609396,2016-12-12 17:11:12,8.47225516680614
4.1946416,1.2449849,8.6095495,-0.0013850126,0.0015042279,8.081188E-4,1.0,4.2827764,1.2683799,8.730373,-0.06046897,-0.042548623,-0.05421204,-0.2159514,-0.09077352,-0.9663008,2016-12-12 17:11:13,8.23433471394296
4.367024,1.2066777,8.6095495,0.0023405075,0.0025417244,0.008087394,1.0,4.2684193,1.2508131,8.739933,0.09009181,-0.024981894,-0.09101291,-0.21558361,-0.088944264,-0.9669433,2016-12-12 17:11:14,8.321095614303697
4.5202527,1.1492168,8.542512,0.006506744,-0.014959905,0.01716423,1.0,4.3642583,1.2322909,8.695119,0.07597517,-0.0064596687,-0.114299856,-0.22020838,-0.0904467,-0.9648876,2016-12-12 17:11:15,7.819796423992048
4.4915223,1.1683705,8.504205,-0.0054865945,-0.009092066,-0.0071825027,1.0,4.4820356,1.207871,8.638448,0.026299225,0.00434001,-0.07124911,-0.22679801,-0.090135284,-0.96335125,2016-12-12 17:11:16,8.447101038724252
4.501099,1.1013328,8.599973,-0.004072937,0.0061379997,0.00193504,1.0,4.481966,1.1709582,8.643566,-0.06897338,-0.06771008,-0.03550651,-0.22721113,-0.08761233,-0.96376723,2016-12-12 17:11:17,12.109368754549262
4.232949,1.0534488,8.619126,-0.0045923567,0.0012975738,-0.0011818022,1.0,4.4586964,1.1286203,8.661215,-0.004842855,-0.066233136,-0.066775784,-0.22608066,-0.085372925,-0.9641556,2016-12-12 17:11:18,7.065044222332765
3.5434184,1.0630256,8.896853,-0.018856052,0.026742259,-0.036427975,1.0,4.3676143,1.1114368,8.70971,-0.45857483,-0.18525323,0.116275065,-0.22144094,-0.08301987,-0.9658136,2016-12-12 17:11:19,8.934843462184862
2.4708161,1.3120226,9.404425,-0.017885718,0.119381376,-0.093798086,2.0,3.5316963,1.1456593,9.076617,-1.1208946,0.16189407,0.26694104,-0.17908733,-0.07175679,-0.9789843,2016-12-12 17:11:20,8.840161060446265
2.4133554,1.3215994,9.404425,0.0031385908,0.066118285,-0.036237124,2.0,2.5893898,1.2825881,9.371255,-0.21944936,0.038585614,0.054025825,-0.13125657,-0.07050312,-0.9882993,2016-12-12 17:11:21,9.552968055608146
2.3942018,1.3311762,9.528923,0.0029157188,0.002673134,0.010018453,2.0,2.4370658,1.302864,9.409232,-0.02626431,0.031930067,0.07052919,-0.12330284,-0.071127355,-0.98930115,2016-12-12 17:11:22,12.887800284527787
3.7349546,1.13964,9.107543,0.02157571,-0.082585014,0.090412244,1.0,2.7646353,1.2904805,9.319971,0.81751597,-0.28257483,-0.7936329,-0.13837628,-0.075271465,-0.98564976,2016-12-12 17:11:23,14.438006319256422
3.8019924,1.1300632,8.944737,0.006146318,-0.080353,0.043674145,1.0,3.585275,1.1789829,9.051309,0.20118152,-0.034873668,-0.21170314,-0.17979124,-0.07865634,-0.9761618,2016-12-12 17:11:24,11.513315374705925
3.5913026,1.0726024,8.992621,-0.009885013,0.014735874,-0.031469543,1.0,3.7601383,1.14449,8.984537,-0.15074618,-0.068482585,-0.035968725,-0.18907471,-0.0785295,-0.9741027,2016-12-12 17:11:25,12.233661264398608
4.9224787,2.3080103,7.5082164,0.02201987,-0.03919893,0.017839719,2.0,3.7216482,1.1452233,9.000455,1.0590938,0.8705882,-2.2856238,-0.1872791,-0.07765983,-0.97485656,2016-12-12 17:11:26,11.128981183921866
5.947197,2.4420857,6.588843,0.066333,-0.19760166,-0.062390618,1.0,4.710844,1.7054833,8.430283,1.3638308,1.16841,-1.5792478,-0.24335472,-0.10465986,-0.9626075,2016-12-12 17:11:27,9.490849174283596
4.721366,2.3080103,7.0485296,0.02429337,0.06953518,-0.11650693,2.0,5.0166826,2.7166457,7.97641,-0.6717918,1.4103194,0.4273442,0.27085066,0.14126681,0.9520841,2016-12-12 17:11:28,9.116568935030385
3.3901896,3.514688,8.360553,-0.025773851,0.07207409,-0.14486992,2.0,3.9759786,3.2533064,8.353322,-0.47554916,0.23350263,0.036812514,0.22369348,0.15511382,0.95920074,2016-12-12 17:11:29,26.154436930955747
3.1603463,3.4859576,8.542512,-5.2896264E-4,0.023536317,-0.039535806,2.0,3.4236777,3.4220107,8.528697,-0.23651616,0.06479828,-0.07046103,0.19936763,0.15940535,0.9609559,2016-12-12 17:11:30,27.980504004172122
3.0454245,3.6487634,8.676587,7.648631E-4,0.015511802,7.0713984E-4,2.0,3.2245595,3.5076118,8.571421,-0.09187978,0.033678435,-0.045083318,0.18977399,0.16421005,0.9617027,2016-12-12 17:11:31,15.643331156147052
4.156334,3.1316159,8.389283,0.019548217,-0.036580607,0.07025916,1.0,3.336206,3.5002625,8.531606,0.8179998,-0.5310269,-0.6726651,0.19319561,0.16638713,0.96227086,2016-12-12 17:11:32,34.24216828929388
4.817134,3.5242648,7.5944076,0.0126377,-0.05564928,0.11835095,1.0,3.9481761,3.2018213,8.386336,0.34223324,0.8570424,0.14000095,0.21789092,0.1579221,0.9616959,2016-12-12 17:11:33,34.26438567885361
1.8100165,1.0151415,8.264784,-0.08871122,0.08567217,0.08161897,1.0,4.5780153,2.4076545,8.331589,-3.1342587,-2.0126646,-0.10489845,-0.24226196,-0.12852061,-0.9616548,2016-12-12 17:11:34,15.899844886199308
3.0454245,2.087744,9.11712,0.005862642,0.1732262,0.108155146,1.0,3.3208272,1.5278068,9.099907,-0.32435095,0.47438434,-0.02875536,-0.16404706,-0.095511496,-0.9772924,2016-12-12 17:11:35,14.525530632289254
3.1986535,2.1452048,8.963891,0.051530484,-0.074849226,-0.027177982,1.0,2.8870409,1.8327656,9.191102,0.31374082,0.31924933,-0.2425343,-0.13520661,-0.114470005,-0.9749746,2016-12-12 17:11:36,21.98124199676695
3.3518825,2.3463178,8.820239,0.01250948,-0.015018141,-0.006207137,1.0,3.1316166,2.1424346,9.042862,0.0691652,0.1457836,-0.09429331,-0.14671914,-0.13196932,-0.9717392,2016-12-12 17:11:37,23.631064188966867
3.8881836,2.873042,8.446744,0.040618,-0.0539713,-0.01587616,1.0,3.453519,2.3677964,8.867758,0.48276126,0.46523598,-0.45038342,-0.16295649,-0.1459978,-0.967594,2016-12-12 17:11:38,18.489200259868216
3.9360676,2.8443117,8.552089,0.027340172,-0.05351732,-0.033336755,1.0,3.8618734,2.7684195,8.5785885,0.060786538,0.25529778,-0.18845443,-0.18519004,-0.16828059,-0.96172017,2016-12-12 17:11:39,11.686079582296706
3.8594532,1.8579005,8.90643,0.011002124,0.0051844306,0.02078842,1.0,4.024649,2.8920033,8.462205,-0.53783995,0.10447303,0.30929843,-0.19467562,-0.17506862,-0.9593548,2016-12-12 17:11:40,13.57339188585991
4.3382936,3.0550013,7.9870567,0.019608373,-0.0070156883,0.02852148,1.0,4.164178,2.8117023,8.4216585,0.04450971,0.103052296,-0.11324657,-0.1999407,-0.1750388,-0.9565013,2016-12-12 17:11:41,14.60427979590622
4.4244847,3.1411927,8.121132,0.035855368,-0.011321469,-0.0035015268,1.0,4.364451,2.9781468,8.261514,-0.07404152,0.10005186,-0.034823164,-0.20862877,-0.18776076,-0.95119655,2016-12-12 17:11:42,15.41579243946581
4.1180267,3.4859576,8.0924015,0.017926425,-0.010438253,-0.031784154,1.0,4.3671865,3.1736505,8.186942,-0.14487872,0.25867707,-0.11007592,-0.20855573,-0.19770333,-0.9497038,2016-12-12 17:11:43,13.937396776066803
4.012682,3.514688,8.0924015,0.009407909,9.17766E-5,-0.03831509,1.0,4.255452,3.4190955,8.146859,-0.25106987,0.13581525,0.025349442,-0.20365192,-0.20772994,-0.95004654,2016-12-12 17:11:44,15.370316161958604
0.4213795,4.414908,8.207323,-0.09451825,0.07128157,-0.18932472,2.0,4.0458913,3.380554,8.268798,-3.7734842,1.127781,-0.85932887,-0.20139988,-0.19454241,-0.9575059,2016-12-12 17:11:45,12.045438914078858
2.7006595,2.3942018,9.346964,-0.11064033,0.21259494,-0.15282577,4.0,2.4053044,3.4172466,8.871715,-1.1113714,-1.0336858,-0.84933054,0.1271401,0.17749293,0.9758415,2016-12-12 17:11:46,10.220931380681826
2.681506,2.777274,8.896853,-0.074194916,-0.07984416,-0.02383815,4.0,2.043511,3.045813,9.094915,0.54435503,-0.38984522,-0.03738446,0.1120524,0.15405393,0.98098284,2016-12-12 17:11:47,10.651594071159739
2.6048915,2.5378537,8.714894,0.025320588,-0.024000188,-0.0054810503,5.0,2.6715364,2.7122748,9.037523,-0.12453154,-0.06992752,0.033627726,0.14372115,0.13623053,0.97961944,2016-12-12 17:11:48,15.79104480791323
2.72939,2.9879637,8.916007,0.012611606,-0.023227617,-0.020089455,5.0,2.724393,2.8392723,8.982572,0.013296965,0.116343245,-0.18382731,0.14865857,0.14112733,0.97770256,2016-12-12 17:11:49,16.20526432062427
3.1986535,3.8115692,8.197746,0.008817796,-0.023874523,-0.031861685,4.0,2.8081815,3.000527,8.904008,0.27001712,0.51352257,-0.35042965,0.15650958,0.14671993,0.9746315,2016-12-12 17:11:50,10.597526942092987
3.1028855,3.4572272,8.590396,0.029252574,-0.034899388,-0.023478057,5.0,2.9899013,3.3425336,8.721144,0.12915824,0.11703469,-0.12670481,0.1713215,0.16122767,0.9683437,2016-12-12 17:11:51,10.589240006572407
3.5529952,3.7732618,8.408437,-0.020063406,-0.044522136,-0.059513785,3.0,3.140592,3.5339117,8.59177,0.53690183,0.45684984,-0.48766398,0.18347703,0.16815993,0.9634614,2016-12-12 17:11:52,38.97365886326769
3.5051112,3.8307228,8.42759,-0.019535474,-0.07534151,-0.091527335,3.0,3.3718245,3.6601355,8.450124,0.1558455,0.1671822,-0.046369366,0.20509408,0.16462085,0.95396286,2016-12-12 17:11:53,38.952234142224945
3.6774938,3.4955344,8.264784,-0.043504708,-0.04705531,-0.0513025,2.0,3.6819675,3.7329702,8.287246,0.10448903,-0.24616133,-0.08779654,0.23085445,0.15548088,0.941424,2016-12-12 17:11:54,14.875802256342368
4.663905,4.2042184,7.680599,-0.0064888536,-0.021892307,8.346187E-4,1.0,3.8301008,3.594516,8.281315,0.6509934,0.36900508,-0.8582249,0.24128611,0.13982663,0.9353739,2016-12-12 17:11:55,18.016394891757727
4.654328,1.541866,7.469909,0.20053278,-0.080543175,0.16209957,1.0,4.3864455,4.311259,7.6382284,2.2330432,-1.8187354,0.9834516,0.27203137,0.19120066,0.9304306,2016-12-12 17:11:56,28.096417683406813
6.5026517,1.0151415,7.1251445,0.03519815,-0.03432422,0.37312835,1.0,5.7721906,3.3520944,7.1844053,0.84729844,-1.9764392,-0.07458437,0.31626177,0.18349911,0.9307559,2016-12-12 17:11:57,43.85346658148981
6.8665705,1.0247183,6.789956,0.017906357,-0.050094895,0.11091112,1.0,6.597456,1.1746757,7.159895,0.199097,-0.12590903,-0.30886033,-0.34651113,-0.12197143,-0.9178668,2016-12-12 17:11:58,35.97583102101273
6.2823853,0.9576807,7.517793,-0.0071837483,-0.004233501,-0.0074937125,1.0,6.781239,1.1218953,6.9947515,-0.27071312,-0.11398956,0.033347573,-0.35670775,-0.12699036,-0.9109111,2016-12-12 17:11:59,27.477467225351376
6.3589997,0.8810662,7.2209125,-0.04271939,0.031213332,-0.024575965,1.0,6.5861177,1.0419728,7.19081,-0.252656,-0.10216881,0.1914181,-0.3465751,-0.11513657,-0.9184633,2016-12-12 17:12:00,16.513688864271213
6.301539,0.89064306,7.345411,-0.023570018,0.00416793,-0.016669516,1.0,6.415939,0.92111903,7.3591886,-0.10971845,-0.06303713,-0.099543095,-0.33804935,-0.10251066,-0.92476577,2016-12-12 17:12:01,10.233810823155057
6.4547677,0.91937345,7.335834,0.016919695,-0.0012867893,0.01871257,1.0,6.406059,0.8916308,7.3714185,-0.0044957786,0.02093243,-0.11177347,-0.33741024,-0.10157099,-0.92477137,2016-12-12 17:12:02,8.388490907372553
7.1059904,3.6966474,8.130709,0.010833089,-0.018411739,-0.020341545,1.0,6.4670086,0.9197252,7.314527,0.30230454,0.82367927,-0.06850243,-0.339568,-0.108427495,-0.9211872,2016-12-12 17:12:03,9.268567089496923
4.7979803,1.8962077,8.312668,-0.03266229,0.06579284,-0.16356938,1.0,6.163378,1.8329846,7.404279,-0.83782136,0.30540994,0.2503562,-0.3266433,-0.1256625,-0.933895,2016-12-12 17:12:04,8.452918782151553
6.4260373,0.15322891,7.07726,-0.032828994,0.14736305,0.14290038,1.0,5.0210423,1.9501817,8.194897,0.83570695,-2.5630975,-0.8126685,-0.26157197,-0.11728902,-0.95678264,2016-12-12 17:12:05,6.577130150020201
4.1659107,1.436521,8.322245,0.02486448,-0.053124055,0.10181516,1.0,5.184346,0.5129313,8.30842,-0.55342805,0.98530686,0.027232382,-0.2667045,-0.07250663,-0.9477044,2016-12-12 17:12:06,12.797524715667487
3.323152,1.2545617,9.050082,0.05477846,0.21019961,-0.054798644,1.0,4.711607,0.8766524,8.555853,-1.4563442,0.45814162,0.59702,-0.23729151,-0.08640387,-0.95440805,2016-12-12 17:12:07,17.100644507673216
3.2561142,1.2545617,9.222465,-0.008434461,0.03226679,0.0020922637,1.0,3.420502,1.322174,9.095186,-0.16523899,-0.08272227,-0.010414777,-0.1647609,-0.095542796,-0.9696753,2016-12-12 17:12:08,24.957610838113172
5.803545,1.982399,7.728483,0.0068961377,-0.15877411,-0.040049892,1.0,3.6798708,1.2749894,9.000185,2.1360173,0.65910006,-1.7269194,-0.17846856,-0.096266456,-0.96653956,2016-12-12 17:12:09,31.07716492418717
5.90889,2.432509,7.2687964,0.020529363,-0.17856878,-0.009676117,1.0,5.042117,1.5969739,8.258154,0.89635414,0.6640038,-0.7942033,-0.25317508,-0.12187589,-0.95006436,2016-12-12 17:12:10,9.671675679969358
5.717354,1.292869,7.8625584,-0.0954692,0.013298801,-0.05448359,1.0,5.607618,1.7859638,7.844447,-0.05051599,-0.58737314,-0.06722885,-0.28889912,-0.12877035,-0.9428254,2016-12-12 17:12:11,10.325432160474847
6.2823853,2.0015526,7.2113357,-0.060450315,-0.028152956,-0.01123555,1.0,5.6451697,1.5476704,7.8681107,0.42950523,0.31831723,-0.40416035,-0.29599184,-0.105956934,-0.9465427,2016-12-12 17:12:12,12.617088327015116
6.0238113,0.2681506,7.4124484,0.047161076,-0.04231925,0.01576681,1.0,6.229806,1.771777,7.363472,-0.27771452,-1.1997224,0.3592649,-0.3301488,-0.12477697,-0.932326,2016-12-12 17:12:13,11.179958963180336
6.0716953,-0.7086837,6.6846113,-0.20046785,0.0017121293,0.058483865,1.0,6.411164,0.76264626,7.381447,-0.13218363,-1.7977926,0.014401788,-0.34340274,-0.07566772,-0.9315992,2016-12-12 17:12:15,24.822034104158877
5.6886234,0.2873042,7.565677,0.0012073638,0.058892686,0.024993522,1.0,5.996302,-0.51159894,7.742933,-0.24851564,0.79762626,0.10238703,-0.324264,-0.00855216,-0.9400561,2016-12-12 17:12:16,14.481263583473984
5.6120086,0.49799395,7.97748,0.07638829,0.02076097,-0.021176537,1.0,5.7760444,0.11413733,7.924309,-0.082739204,0.30809343,-0.05174801,-0.307006,-0.041473098,-0.9445757,2016-12-12 17:12:17,12.606675369900122
5.995081,0.7374141,7.5848308,0.017243577,-0.019473553,4.5177594E-4,1.0,5.8744392,0.51700586,7.835436,0.050412077,0.055048767,-0.15355977,-0.3106875,-0.06306511,-0.9424242,2016-12-12 17:12:18,14.126180241278503
5.449203,1.0342951,8.054094,-0.004257129,-0.008867394,-0.028496398,1.0,5.9900494,0.63950473,7.738265,-0.6236322,0.49098408,0.774452,-0.31716618,-0.06974191,-0.94007665,2016-12-12 17:12:19,10.235096669150838
4.7788267,0.61291564,8.341399,0.032547347,0.0936171,0.02656042,1.0,5.617559,0.7991859,7.99842,-0.89129806,-0.104548156,0.5279173,-0.29325944,-0.0786958,-0.94583887,2016-12-12 17:12:20,10.006780555349302
5.995081,0.35434186,7.6231384,-0.03612146,0.007878175,0.007039108,1.0,4.9800878,0.69641167,8.4192705,0.99924463,-0.26056054,-1.1596249,-0.2558704,-0.072573975,-0.95489275,2016-12-12 17:12:21,9.549958391718443
5.8801594,0.19153613,7.833828,-0.061970923,-0.09017049,-0.043293215,1.0,5.487204,0.36384213,8.119643,0.4376472,-0.20039795,-0.4922487,-0.28862858,-0.05202853,-0.95002204,2016-12-12 17:12:22,14.565083703178093
5.8705826,-0.1436521,7.8529816,-0.012857305,-0.0029901746,0.015694227,1.0,5.917725,0.17499234,7.8179464,-0.088216774,-0.0796499,0.122716144,-0.3160205,-0.039073355,-0.94381076,2016-12-12 17:12:23,10.760029136463828
6.205771,0.17238252,7.517793,-0.005506735,-0.024914837,0.001233169,1.0,6.034019,0.1288647,7.72945,0.095137514,-0.1288647,-0.17015709,-0.3231127,-0.038805876,-0.94101137,2016-12-12 17:12:24,7.879915051310249
6.349423,-0.17238252,7.297527,-0.002039558,-0.032097366,0.006602279,1.0,6.2291675,0.08445224,7.5736876,0.21325728,0.06537158,-0.24594103,-0.3352299,-0.03834464,-0.93662167,2016-12-12 17:12:25,8.124955649012527
6.3589997,-0.095768064,7.422025,-0.015385317,-0.020947795,-0.006318118,1.0,6.3670893,-0.04937814,7.458427,0.061715122,0.06299849,-0.18516158,-0.3444307,-0.03306947,-0.9332109,2016-12-12 17:12:26,29.478685338927594
6.301539,-0.009576807,7.4028716,-0.008075022,2.27032E-4,-0.0041134893,1.0,6.443634,-0.12074293,7.3915753,-0.055691376,0.066261545,-0.09106862,-0.34973514,-0.028633995,-0.9316928,2016-12-12 17:12:27,11.24157661753843
6.3206925,-0.08619126,7.383718,0.00394293,0.0057887547,0.0037129303,1.0,6.410644,-0.09554697,7.4205728,-0.0635619,0.041065574,0.043377448,-0.347434,-0.03075171,-0.9322153,2016-12-12 17:12:28,9.573977504827582
6.4643445,0.15322891,7.28795,-0.010949651,-7.039244E-4,-0.008542275,1.0,6.390588,-0.07867125,7.438051,-0.029885124,-0.13925432,-0.15116557,-0.3460627,-0.031710647,-0.93263936,2016-12-12 17:12:29,9.587430106660014
6.9623384,1.0534488,6.4739213,0.050893318,-0.0020016485,-0.007411768,1.0,6.417148,0.014953092,7.4155493,0.18872005,0.80226773,-0.4146907,-0.3473191,-0.035800055,-0.9323461,2016-12-12 17:12:30,10.763445639709932
6.694188,0.62249243,7.144298,0.050098445,-0.033011872,-0.021244647,1.0,6.6835084,0.5117759,7.1581554,-0.077639475,0.19648212,0.08786886,-0.3614012,-0.06651982,-0.924854,2016-12-12 17:12:31,9.812805005345279
6.703765,0.6512229,7.0485296,-0.020358853,0.009592741,-0.0024296674,1.0,6.8144937,0.7209155,7.015223,-0.19500482,-0.12162015,0.108218744,-0.36869118,-0.079937555,-0.9207016,2016-12-12 17:12:32,7.64596394810861
6.7708025,0.49799395,6.5218053,-0.0010573658,-0.0016155784,-0.0010516178,1.0,6.7155886,0.6479238,7.116984,0.053724054,0.22377841,-0.19784752,-0.36230925,-0.07659515,-0.92306894,2016-12-12 17:12:33,7.6319393563115865
6.703765,0.6512229,6.933608,-0.001395168,-0.0041193096,6.487424E-4,1.0,6.78656,0.6362621,7.050402,-0.12621018,-0.02334648,0.018558389,-0.36709124,-0.07598405,-0.92140913,2016-12-12 17:12:34,22.76059493369205
6.8091097,0.545878,6.9048777,0.019229202,0.004794649,0.021848926,1.0,6.8073854,0.6204151,7.031713,-0.05169314,-0.07560118,-0.09895618,-0.3683745,-0.07604358,-0.92068595,2016-12-12 17:12:35,23.812617770402113
6.885724,0.62249243,6.7612257,0.015558253,-0.0153601635,0.019556697,1.0,6.881375,0.59486115,6.961553,-0.016719509,-0.050047234,-0.19224027,-0.37226203,-0.08050213,-0.91721356,2016-12-12 17:12:36,28.612318824300655
6.8665705,0.6703765,6.8665705,3.5226814E-4,-0.0021309871,-4.108748E-4,1.0,6.946198,0.5882666,6.8974385,-0.09516328,0.011028707,-0.15536664,-0.3761717,-0.082603425,-0.91487205,2016-12-12 17:12:37,12.602950397702442
7.0581064,0.92895025,7.07726,0.015423556,3.4471892E-4,0.01001882,1.0,6.9347663,0.64802504,6.903585,-0.015629647,-0.17131287,0.042792615,-0.37509844,-0.08553575,-0.91511834,2016-12-12 17:12:38,9.136483122704476
7.1251445,0.90021986,6.5218053,0.031614408,-0.020152379,-0.005912437,1.0,7.0482483,0.7247629,6.77992,0.061573382,0.29676315,-0.32387564,-0.381756,-0.0926426,-0.9111663,2016-12-12 17:12:39,9.40298535946144
3.5913026,1.8674773,8.743625,0.017491931,0.27321315,-0.081131615,1.0,6.789777,1.0253911,7.0012784,-3.2757266,0.64991164,1.9200492,-0.36469522,-0.10015752,-0.919272,2016-12-12 17:12:40,7.393745332501778
3.8115692,1.4939818,8.868123,-0.014386052,0.2516716,-0.118474275,1.0,4.5703683,1.5105443,8.544026,-0.8111522,-0.039546724,0.40454194,-0.23305595,-0.10030378,-0.9636,2016-12-12 17:12:41,11.600556501146945
5.6120086,1.4077905,7.9391727,-0.039188907,-0.18746403,-0.08203064,1.0,4.082919,1.5714841,8.776709,1.7738299,-0.11410678,-1.2174158,-0.20837665,-0.09535007,-0.97153586,2016-12-12 17:12:42,30.960394663820363
5.6215854,1.6376339,7.6135616,-0.0070196087,-0.13696752,-0.003967328,1.0,5.3166776,1.5421777,8.094753,0.24042441,-0.12566161,-0.11322912,-0.28009766,-0.093956396,-0.9545467,2016-12-12 17:12:43,29.253523856593077
4.8458643,2.834735,8.408437,0.10601191,0.018982198,-0.004224544,1.0,5.6481833,1.7601061,7.8211546,0.0859826,1.4679163,-1.1608046,-0.29888314,-0.109092034,-0.9469469,2016-12-12 17:12:44,14.655222643698133
3.2561142,1.6089035,9.174581,0.0075822305,0.10034707,-0.064597525,1.0,5.2291436,2.5721333,7.8873677,-1.6742328,-0.6925253,1.0612009,-0.27551222,-0.1481525,-0.94918865,2016-12-12 17:12:45,13.155767845039282
3.4093432,1.4173675,9.040505,-0.09946889,0.15043469,0.03793495,1.0,4.0163426,2.1421292,8.686234,-0.65211654,-0.8345759,0.2759542,-0.20691662,-0.11962836,-0.97044873,2016-12-12 17:12:46,15.474285467247519
4.2999864,1.9057846,8.236053,0.026359161,0.007975728,0.09533559,1.0,3.4022145,1.5489029,9.066215,0.8064727,-0.064284936,-0.6352191,-0.1712875,-0.091719046,-0.9789094,2016-12-12 17:12:47,33.957369000161506
4.55856,1.6950948,8.992621,0.081566595,-0.09614801,0.09064719,1.0,4.23314,1.7993196,8.661026,0.69742554,0.14839001,-0.36623386,-0.21046276,-0.11881078,-0.96427494,2016-12-12 17:12:48,12.031859243623575
4.711789,3.323152,7.3166804,0.048134565,-0.03406777,-0.07089278,1.0,4.8203964,2.1040158,8.276914,0.34171534,1.1921083,0.16770136,-0.23913498,-0.14425449,-0.9519536,2016-12-12 17:12:49,10.982109460284747
2.2122424,2.3750482,9.050082,0.02670617,0.10015427,-0.13521394,1.0,4.291539,3.217415,8.20983,-1.7853953,-0.6976506,0.80683935,-0.21925794,-0.18259524,-0.9571773,2016-12-12 17:12:50,13.656634455956915
3.2273839,3.2369606,8.389283,-0.013336502,0.06048954,0.098925106,1.0,3.1055274,3.1482038,8.752994,0.29955953,-0.056384902,0.12747295,-0.15629204,-0.17115614,-0.9720461,2016-12-12 17:12:51,13.023850497489473
2.5187001,3.5434184,8.686164,0.06999358,-0.027331972,-0.08084675,2.0,3.0116374,3.0754392,8.811476,-0.5599747,0.4113698,0.0145098595,-0.15342835,-0.16492252,-0.9739804,2016-12-12 17:12:52,14.104608843415614
2.4899697,3.4572272,8.734048,-0.008328567,0.06169393,-0.021123007,2.0,2.5912478,3.4984322,8.78731,-0.16682598,-0.07972483,-0.029426236,0.13799524,0.18146387,0.97358954,2016-12-12 17:12:53,14.75035258627429
2.3654714,3.41892,8.781932,-8.421955E-4,0.0068668723,-6.906211E-4,2.0,2.4637027,3.5035338,8.821894,-0.039280705,-0.0712063,-0.104871854,0.131283,0.18158576,0.97448874,2016-12-12 17:12:54,21.77229788403816
2.3654714,3.4572272,8.743625,-0.0078211455,-0.0011101717,-0.0187969,3.0,2.4216025,3.4730408,8.845576,-0.13338405,-0.09519446,0.04851085,0.12991449,0.17922984,0.9750279,2016-12-12 17:12:55,20.19855934932245
2.1452048,3.2465374,8.858546,-0.0136439735,0.0199081,0.007125135,3.0,2.3307734,3.414031,8.892821,-0.21961936,-0.18600869,0.028505964,0.1252937,0.17576657,0.9762253,2016-12-12 17:12:56,23.85148056806798
2.2218192,3.265691,8.839393,-0.014357657,0.015781103,0.002011708,3.0,2.1708243,3.2996376,8.976096,-0.100531325,-0.16695754,-0.013907153,0.11596835,0.16999346,0.97846013,2016-12-12 17:12:57,11.51235740738782
-0.30645782,1.4077905,9.921572,-0.03787157,-0.010156019,-0.056909602,3.0,2.1323838,3.2469215,9.00449,-2.0779023,-1.5443782,0.4480316,0.11537308,0.16609584,0.979006,2016-12-12 17:12:58,13.098297054408508
-0.7086837,1.3982137,9.595961,-0.1313441,0.16863255,-0.077136606,2.0,0.6976307,2.3251884,9.5014305,-1.4058887,-0.8950519,0.005571507,0.04300347,0.11710051,0.99037564,2016-12-12 17:12:59,14.281347940287887
1.8579005,4.807557,8.42759,0.25948393,-0.11095136,-0.13438293,1.0,-0.18458284,2.3210623,9.526227,1.7781634,2.9227715,-1.4493608,0.00358809,0.11951888,0.9868933,2016-12-12 17:13:00,11.236475072468043
1.0630256,5.0661306,8.312668,0.24536571,-0.1553689,-0.05744105,0.0,0.8895757,4.533826,8.650056,0.17281137,0.492082,-0.47784692,0.08392313,0.22787452,0.9578115,2016-12-12 17:13:01,26.2201963527999
0.92895025,4.8937483,8.379706,-0.021849003,0.046208292,-0.008669393,0.0,1.202114,5.1422343,8.263337,-0.20782866,-0.19804828,0.031454656,0.109890975,0.2580912,0.9455415,2016-12-12 17:13:02,20.155038325967208
0.842759,4.9224787,8.341399,-0.013545698,0.011841257,-0.011001322,0.0,0.9953064,5.0212183,8.3646345,-0.16446523,-0.11789324,-0.12432475,0.09845754,0.25264293,0.94768107,2016-12-12 17:13:03,15.745376492914305
1.2066777,4.903325,8.312668,0.0,0.0,0.0,0.0,0.87499875,4.9615717,8.413535,0.44617495,-0.085487135,-0.07788305,0.09298956,0.24976397,0.9479387,2016-12-12 17:13:04,13.642577710622959
1.0342951,4.960786,8.350976,0.0023199276,-0.0033884647,0.016818017,0.0,1.0091374,4.965294,8.396301,-0.042092748,-0.08920936,-0.033408258,0.098458275,0.24942677,0.9485849,2016-12-12 17:13:05,10.292569208179712
1.0055647,4.8841715,8.264784,-0.004969963,0.01260632,-0.007931917,0.0,1.0634389,4.9579587,8.393934,-0.041912872,-0.081874214,-0.15362379,0.10110147,0.24861008,0.9486079,2016-12-12 17:13:06,12.003716351027611
0.842759,4.855441,8.39886,-3.8730077E-4,0.008205898,-4.35327E-4,0.0,0.970435,4.9340887,8.4192295,-0.12597346,-0.085244805,-0.042715717,0.09648146,0.247851,0.94891715,2016-12-12 17:13:07,11.784373392528611
-0.08619126,3.4476504,9.040505,-0.072082564,0.02787344,-0.031896204,2.0,0.8313476,4.860716,8.476597,-0.885829,-1.8233783,0.9350638,0.088190906,0.24502288,0.9505663,2016-12-12 17:13:08,12.513339861227033
-0.8619126,3.2369606,9.174581,-0.11023581,0.08636288,-0.05481927,2.0,0.12696971,4.0341434,8.937558,-0.9578109,-0.6835379,0.17445417,0.04716603,0.20515044,0.9591566,2016-12-12 17:13:09,10.615231592862104
0.5554548,4.8745947,8.475474,0.09548734,0.018646786,0.073055655,0.0,-0.3719172,3.7621744,9.048652,0.84862936,1.1139098,-0.6585177,0.017908683,0.19577137,0.9628858,2016-12-12 17:13:10,10.908970292255331
0.06703765,4.9703627,8.322245,0.09593869,-0.03391437,0.031257767,0.0,0.12842558,4.707197,8.602103,0.02139823,0.332331,-0.19834964,0.047591798,0.24320734,0.9554939,2016-12-12 17:13:11,10.833458226873041
-0.047884032,4.7500963,8.542512,4.4053976E-4,0.025516918,-0.01604654,0.0,0.06778408,4.9955335,8.438628,-0.04054338,-0.24203219,0.06046856,0.049478002,0.25942558,0.9497821,2016-12-12 17:13:13,13.730270021716002
0.08619126,4.4819455,8.7053175,-0.0057153516,0.0014917912,-0.003667356,1.0,-0.088150725,4.925372,8.479583,0.1698728,-0.10376911,-0.17117046,0.04137351,0.25680697,0.9503834,2016-12-12 17:13:14,10.788418208784103
-0.7661445,4.280833,8.7532015,-0.036271494,0.018845072,-0.044918302,1.0,-0.31464222,4.6829076,8.610561,-0.3255141,-0.29715577,0.02473842,0.030591115,0.24504644,0.95135444,2016-12-12 17:13:15,10.763445639709932
-0.9672575,4.2425256,8.762778,-0.016442081,0.035914827,-0.016635016,1.0,-0.773068,4.34278,8.758597,-0.12587494,-0.07961137,-0.06881584,0.0068755206,0.23105972,0.95236194,2016-12-12 17:13:16,11.787072270804405
-1.0151415,4.175488,8.676587,-0.00550085,0.010225707,-7.2672433E-4,1.0,-0.93577373,4.2679534,8.779481,-0.031270932,-0.0728864,-0.04883839,-0.0020099082,0.22883838,0.9526692,2016-12-12 17:13:17,11.608060511340508
0.33518824,4.711789,8.494628,0.0038875842,-0.0027158873,0.011910809,1.0,-0.96954626,4.2438736,8.787485,0.9423055,0.30532223,-0.3292493,-0.0042614806,0.22791396,0.9531039,2016-12-12 17:13:18,17.08872170380527
0.34476504,4.6160207,8.552089,0.035550304,-0.069975175,0.052936275,0.0,-0.2503309,4.528066,8.695074,0.59083956,0.15733314,-0.10063545,0.030972755,0.23604073,0.95455086,2016-12-12 17:13:19,9.49999542859922
0.22026655,4.548983,8.542512,0.0030212898,-9.300837E-4,0.0037652152,0.0,0.26437497,4.7104306,8.597229,-0.16903253,0.0022096487,0.06531183,0.056206696,0.24187626,0.9543414,2016-12-12 17:13:20,9.292592292675941
0.15322891,4.644751,8.542512,-0.0018890811,0.013671016,-0.0035445108,0.0,0.14743,4.683874,8.614522,-0.10656897,-0.066576265,-0.06094324,0.04981247,0.2414547,0.9548356,2016-12-12 17:13:21,15.352941200427706
0.1340753,4.721366,8.456321,3.3715597E-4,0.005759175,-7.459002E-4,0.0,0.093313515,4.6764603,8.619304,-0.038832128,0.06342058,-0.024864782,0.0472396,0.24146686,0.95474935,2016-12-12 17:13:22,15.998830720736878
0.16280572,4.596867,8.523358,-0.004059981,7.9163106E-4,0.0014919576,0.0,0.0673853,4.6899505,8.612213,0.068818174,-0.045412105,-0.017773623,0.045802396,0.24249017,0.9547202,2016-12-12 17:13:23,17.790099420787755
0.095768064,4.663905,8.475474,-0.0026641986,-0.0028541028,-0.005752941,0.0,0.07937808,4.658857,8.628971,-0.02489669,0.012922454,0.07443058,0.046796214,0.24053071,0.9546852,2016-12-12 17:13:24,12.636360685881083
0.076614454,4.5298295,8.532935,-0.001967952,0.006219715,0.014111817,0.0,0.08392404,4.638906,8.63967,0.011418396,-0.062469546,0.17269427,0.046065103,0.2395359,0.95550066,2016-12-12 17:13:25,14.88506650295556
0.16280572,4.5777135,8.7532015,-0.0026349183,0.0012007107,0.0033093155,0.0,0.10870529,4.612755,8.653385,-0.06784425,-0.022697946,-0.058945578,0.04680976,0.23792651,0.9560548,2016-12-12 17:13:26,29.030526632061257
0.1436521,4.654328,8.63828,0.0,-0.0,0.0,0.0,0.10952653,4.5853124,8.667947,-0.055045143,-0.036116283,-0.10074767,0.047470316,0.23622929,0.9558102,2016-12-12 17:13:27,13.548284633221147
0.095768064,4.5681367,8.599973,0.0024719168,0.002953895,0.0057882904,0.0,0.11374035,4.586348,8.667344,-0.018397918,-0.037152108,0.022437328,0.04770254,0.2362475,0.95579183,2016-12-12 17:13:28,11.608997601606099
0.047884032,4.596867,8.810662,-1.8023232E-4,9.811947E-4,0.0019592831,0.0,0.111878954,4.598775,8.660784,0.03794486,0.113865495,-0.06634433,0.047161575,0.23706286,0.9560219,2016-12-12 17:13:29,24.299086543667414
0.047884032,4.6160207,8.619126,0.003116698,0.0018078898,-0.005068517,0.0,0.098046385,4.6006618,8.659948,0.06539778,0.016635962,-0.16085127,0.04616662,0.2373483,0.9562073,2016-12-12 17:13:30,30.29005634849152
0.076614454,4.5777135,8.552089,0.0019090316,0.0024238832,3.8525538E-4,0.0,0.075537175,4.6204705,8.649621,-0.021055784,0.078549355,0.026540725,0.045697592,0.23854525,0.9555874,2016-12-12 17:13:31,14.286914845788152
0.02873042,4.55856,8.6574335,3.324689E-4,0.002518091,0.001793521,0.0,0.06798033,4.631223,8.64393,1.2141169E-4,-0.06840683,-0.049490977,0.0456241,0.2391665,0.9552907,2016-12-12 17:13:32,11.491228487778045
0.16280572,4.510676,8.66701,-0.0031311573,0.0029514325,9.060739E-4,0.0,0.05030454,4.6238847,8.64798,0.0041768504,-0.12917009,0.014561402,0.04458353,0.23893113,0.95543337,2016-12-12 17:13:33,8.29303772831025
0.047884032,4.6160207,8.590396,-0.0051078526,-0.0012561429,0.0011558811,0.0,0.06845262,4.58806,8.666915,0.06775086,-0.12058587,-0.09971601,0.04493192,0.23683631,0.9560947,2016-12-12 17:13:34,10.553544368751506
2.528277,3.1028855,9.835381,-8.756713E-5,-0.06266819,-0.007798726,1.0,0.14947656,4.562583,8.679337,1.1716971,0.32712153,-0.5343692,0.049226258,0.23463543,0.9561684,2016-12-12 17:13:35,15.331919553337002
4.060566,0.7661445,3.5817258,-0.09392786,-0.19248255,0.5111958,1.0,2.1711364,3.48664,8.905049,2.9501143,-2.5604565,-1.9586723,0.116689265,0.17986777,0.9765771,2016-12-12 17:13:36,14.008616469515067
-1.7046716,1.3790601,8.7532015,-0.11085245,0.38852483,-0.3562174,1.0,1.892391,1.8720883,9.438461,-5.311098,-1.2727929,0.0957822,-0.09412016,-0.09956839,-0.990013,2016-12-12 17:13:37,9.413871887537379
-0.17238252,1.1875241,9.595961,-0.017783267,0.1570322,-0.01702482,1.0,-1.5706425,1.465177,9.568527,1.3799576,-0.3074475,0.08829866,-0.07469046,0.08100741,0.99109626,2016-12-12 17:13:38,17.107782510200117
-0.15322891,1.2354081,9.643845,-0.012646089,-0.06342909,-0.002827263,1.0,-0.25318936,1.1991024,9.729771,0.103365526,0.013108463,-0.032083135,-0.010098399,0.061788253,0.9969783,2016-12-12 17:13:39,19.74036495226339
2.6719291,2.6623523,6.253655,-0.011908286,0.011917844,0.1446375,1.0,-0.15198013,1.1825589,9.733902,0.7104144,0.51998454,-0.4039642,-0.005731432,0.060632378,0.9975814,2016-12-12 17:13:40,16.37458457182567
4.912902,3.064578,7.795521,0.1675429,-0.3017044,0.17983727,1.0,2.1215808,2.1734095,9.324462,2.890707,0.904789,-1.4519004,-0.10584788,-0.1156764,-0.9871169,2016-12-12 17:13:41,13.012335235042617
5.3342814,2.96881,7.383718,0.04074325,-0.11688615,0.027418695,1.0,4.7749224,3.1595852,7.9616294,0.82304054,-0.39465463,-0.68836373,-0.24356912,-0.18639745,-0.94956183,2016-12-12 17:13:42,29.163815601037367
5.0278234,2.7485435,7.9391727,0.007427562,-0.0111955395,0.044879336,1.0,5.1404877,3.0158083,7.787855,-0.060098205,-0.29173908,0.016603954,-0.26018873,-0.18770139,-0.94292235,2016-12-12 17:13:43,15.955306664051935
2.4420857,3.9935284,8.992621,-0.015560297,0.102471896,-0.20787531,1.0,5.032051,3.0459876,7.8467073,-2.485046,1.0537368,1.3197862,-0.25660372,-0.1846179,-0.9457353,2016-12-12 17:13:44,15.26016021340753
6.8761473,0.8810662,4.10845,0.07059794,0.09738087,0.23131904,1.0,3.8177168,3.5926664,8.287833,2.6110873,-2.4213166,-2.3766026,-0.1869812,-0.20609744,-0.95750874,2016-12-12 17:13:45,8.474184078594027
4.5394063,4.0892963,8.0445175,-0.06373007,-0.09491649,0.019574292,1.0,5.0388026,2.4992578,8.033341,-0.6394306,1.8183923,-0.5012893,-0.24639228,-0.17234989,-0.9430215,2016-12-12 17:13:46,10.202835751089141
4.3382936,4.405331,7.642292,0.13606933,0.1531917,-0.20528989,1.0,4.9456525,3.407055,7.752605,-0.53266,1.0467986,-0.37037632,-0.25149685,-0.20365761,-0.9433528,2016-12-12 17:13:47,13.378958322146632
4.223372,4.1180267,7.833828,0.018954175,0.027981091,0.019382695,1.0,4.597489,4.297493,7.5209737,-0.40242165,-0.26587027,0.2834851,-0.2235887,-0.25796354,-0.9347529,2016-12-12 17:13:48,16.377085727934848
3.514688,3.2848446,9.088389,-0.07318864,0.037756458,4.3297742E-4,2.0,4.2176013,4.0769014,7.8588243,-1.5616335,-2.2381542,2.6969452,-0.20314415,-0.24092309,-0.94412965,2016-12-12 17:13:49,28.583585858122774
4.5872903,3.8115692,8.082825,-0.07086607,-0.07026306,-0.07520625,1.0,4.0995617,3.4167175,8.227395,0.5041154,0.42422053,-0.4774171,-0.2062361,-0.19490081,-0.9570321,2016-12-12 17:13:50,33.22126868067769
4.5872903,3.8307228,7.680599,0.1015953,-0.054152347,-0.028862895,1.0,4.496754,3.4949615,7.98341,-0.17910416,0.48217976,-0.19257113,-0.23646048,-0.19247231,-0.95214576,2016-12-12 17:13:51,50.594708790856586
4.951209,3.5913026,7.6135616,-0.0014875033,-0.0074693435,6.689476E-5,1.0,4.583489,3.8596747,7.76305,0.061049648,-0.032357056,-0.040313203,-0.2434866,-0.21191736,-0.94634414,2016-12-12 17:13:52,17.281000312211944
3.916914,4.223372,7.929596,0.0017429928,0.02926191,-0.07579016,2.0,4.4203634,4.0024467,7.78532,-0.51132375,0.51950854,-0.021721562,0.23878044,0.21457273,0.9470638,2016-12-12 17:13:53,17.9309160017658
3.8881836,4.3861775,7.824251,0.002959493,0.026076354,-0.03301813,2.0,3.9369235,4.2994533,7.885793,-6.43026E-4,0.072678156,0.1638324,0.21854386,0.22399837,0.9492942,2016-12-12 17:13:54,10.903462435056682
3.9935284,4.1946416,7.824251,-0.006803972,-0.0035528587,0.0029596356,2.0,3.9392195,4.2399936,7.916779,0.06516261,0.050415818,0.06474404,0.2182384,0.22074547,0.95014364,2016-12-12 17:13:55,28.73908855398772
4.213795,4.1946416,7.843405,-0.006823019,-0.007639185,-0.0063332333,2.0,3.962947,4.1771684,7.938306,-0.06752771,0.05875978,-0.065744944,0.21941657,0.21706058,0.95070064,2016-12-12 17:13:56,24.32257570828794
3.964798,4.0797195,7.8912888,-0.010439545,-0.005878226,-0.018435432,2.0,3.971933,4.1749163,7.934999,0.0052086357,-0.02071026,0.12824692,0.22139534,0.21543375,0.9503832,2016-12-12 17:13:57,7.79957051246906
3.916914,4.0797195,7.9870567,-0.005931101,0.008920336,-0.0024698388,2.0,3.9288974,4.15739,7.9655676,0.03462365,0.16026022,-0.21558954,0.22072738,0.21248192,0.95084524,2016-12-12 17:13:58,12.71405932383356
3.964798,3.9935284,7.967903,-0.0016509986,0.0030371249,0.009961552,1.0,3.939413,4.128441,7.9754233,-0.030373525,-0.028716289,0.15592405,0.22084738,0.21117018,0.9511735,2016-12-12 17:13:59,31.8758504946723
3.9839516,4.050989,7.9487495,-0.006396394,-0.0029088964,-0.0052885492,1.0,3.9390566,4.094678,7.9929886,0.03808485,-0.02219375,-0.038705427,0.22041717,0.20949303,0.9516886,2016-12-12 17:14:00,27.74473625356194
3.2944214,4.357447,8.063671,-0.019061962,-0.026289161,-0.05041907,3.0,3.915758,4.101383,8.000993,0.18396655,0.09368395,0.11673396,0.22001114,0.20894507,0.9517165,2016-12-12 17:14:01,8.597760554700695
3.6104562,4.0318356,8.082825,-0.025827501,-0.010561307,-0.06345476,2.0,3.7071412,4.172337,8.063442,-0.056888063,-0.031751435,-0.054678414,0.21790546,0.2034603,0.95038056,2016-12-12 17:14:02,9.509122461350454
3.6104562,4.146757,7.9487495,-0.0067574647,-0.0017163217,0.0144081265,2.0,3.5876584,4.1485133,8.129511,0.021733616,-0.08964955,-0.01178313,0.21559459,0.1975584,0.94986296,2016-12-12 17:14:03,15.284345971955073
3.715801,4.0318356,8.1402855,-0.0041433084,-0.008917003,2.042435E-5,2.0,3.6649067,4.0898185,8.124792,0.1487905,-0.017334685,-0.020684905,0.21907985,0.19430636,0.9498923,2016-12-12 17:14:04,15.935629522589743
3.6966474,4.0701427,8.274361,-0.0010368441,-0.0029642545,0.0021541133,2.0,3.7136695,4.055857,8.119673,-0.090657115,0.08472814,0.025295407,0.22132693,0.1924222,0.9498477,2016-12-12 17:14:05,16.348549722995433
3.7062242,3.9552212,8.283937,6.159305E-4,0.0019238098,-0.0049923635,2.0,3.7084858,4.0574217,8.12126,-0.030992026,-0.025799187,-0.04439415,0.22116828,0.19239438,0.94982404,2016-12-12 17:14:06,14.09140277346043
3.6008794,4.0701427,8.1402855,0.0015143544,0.0019011572,0.004273456,2.0,3.7021854,4.0595317,8.123079,-0.065552495,-6.679657E-4,0.021888657,0.22050484,0.19291408,0.9500582,2016-12-12 17:14:07,8.824178010972826
3.6487634,4.10845,7.8529816,-0.0017401878,4.986784E-4,-0.0012478314,2.0,3.6791582,4.031296,8.147568,0.08005778,-0.067774616,-0.19328439,0.21850745,0.19194834,0.95096135,2016-12-12 17:14:09,16.623445833158154
3.1890767,3.667917,8.418014,-0.0034058269,-0.005174045,-0.0100904,2.0,3.6701474,4.0150256,8.159656,-0.18333848,-0.037884083,-0.17813192,0.21811005,0.19079126,0.95114356,2016-12-12 17:14:10,21.69067967256794
0.31603462,2.1452048,9.5385,-0.1393117,0.17526485,-0.06353907,2.0,2.9039066,3.695617,8.606982,-2.454435,-1.5163615,0.8727796,0.17658298,0.17316046,0.96086115,2016-12-12 17:14:11,26.233429896641557
-0.2777274,1.9728222,9.548077,-0.14024594,0.22004706,-0.031674407,2.0,0.92008555,2.584887,9.414998,-1.1924925,-0.5826959,0.09200385,0.065516554,0.12520492,0.9802616,2016-12-12 17:14:12,11.0305502938442
-0.40222588,1.8866309,9.548077,-0.014501882,0.03957472,-0.03235175,2.0,-0.086389475,2.029002,9.594065,-0.32222095,-0.13577367,-0.032581095,0.010658204,0.103562765,0.9841135,2016-12-12 17:14:13,15.26137270557092
-0.4213795,1.8770541,9.528923,-0.004038077,0.00898199,-0.0072713397,2.0,-0.33461466,1.9434679,9.606318,-0.0603754,-0.009378538,-0.14017719,-0.0016790304,0.101050764,0.983123,2016-12-12 17:14:14,16.151277420194628
-0.8523358,1.6280571,9.528923,-0.018503726,0.025768314,-0.017145382,2.0,-0.52860266,1.8505538,9.615947,-0.37034032,-0.2024917,0.013639467,-0.011409701,0.09794397,0.9820542,2016-12-12 17:14:15,11.263952495144034
-0.58418524,1.5897499,9.586384,-0.011996505,0.0057088565,-0.008074273,2.0,-0.7716534,1.689237,9.629196,0.22683956,-0.041174866,-0.10857372,-0.02384928,0.09208067,0.9802506,2016-12-12 17:14:16,8.491505840254538
0.22026655,2.7581203,9.14585,0.007436001,-0.010045484,0.03869159,2.0,-0.66420585,1.6764789,9.639432,0.31007683,0.6526006,-0.24139205,-0.01871682,0.090418294,0.9808476,2016-12-12 17:14:17,8.366800786006044
0.4405331,3.5434184,9.069236,0.119869776,-0.052104954,0.08399378,4.0,-0.12914993,2.4008663,9.507342,0.59224176,1.1131834,-0.4225708,0.010713692,0.12306782,0.9825512,2016-12-12 17:14:18,8.931373270374952
0.5746084,3.3039982,9.097966,0.058253475,-0.016028726,0.009549869,4.0,0.44534042,3.3971999,9.18864,-0.26827592,0.021507496,0.07319607,0.04277094,0.17228007,0.9778429,2016-12-12 17:14:19,10.060647228164822
1.7142484,2.9017725,9.174581,-0.010832821,-0.027144494,0.045448966,1.0,0.49071765,3.4475474,9.167552,0.74873394,-0.19228454,-0.24622454,0.044739306,0.17488097,0.97772825,2016-12-12 17:14:20,16.580412235505623
2.0015526,2.7389667,9.040505,-0.028800486,-0.08121206,0.05916506,2.0,1.3696018,3.1610785,9.181621,0.6870706,-0.27356476,-0.20581156,0.08425522,0.15738069,0.98057604,2016-12-12 17:14:21,15.888317255942074
2.480393,2.528277,8.896853,-0.046525706,-0.022365576,0.0072033466,2.0,2.029411,2.7763174,9.183895,-0.068080954,-0.39275652,0.17328367,0.11534905,0.13581695,0.98138434,2016-12-12 17:14:22,12.36238014159363
1.982399,2.183512,9.337387,-0.0315703,-0.0013113789,0.016076297,2.0,2.1458266,2.4268367,9.256149,-0.048293047,-0.13861845,0.032927755,0.119847074,0.11706603,0.98323226,2016-12-12 17:14:23,12.887102230227637
3.8019924,2.0111294,8.916007,-0.07346466,0.0019112598,0.0636029,3.0,2.1307495,2.103916,9.3383,1.7782902,-0.44223356,-0.9209247,0.117335126,0.10055708,0.985533,2016-12-12 17:14:24,11.5219275849472
3.9935284,2.2601264,8.63828,0.04813167,-0.14599323,0.08743341,3.0,3.2674077,1.9351274,9.041554,0.9957612,0.28498918,-0.28367135,0.17349286,0.09438843,0.9796507,2016-12-12 17:14:25,13.339508043872472
3.5913026,2.3750482,8.801085,0.03353944,-0.024983637,-0.029265799,4.0,4.1587343,2.3391688,8.567591,-0.5221018,0.1669752,0.217534,0.22197388,0.11790699,0.96761656,2016-12-12 17:14:26,16.97937328152542
3.1794999,2.27928,8.992621,-0.011391118,0.041958146,-0.020622142,4.0,3.7896643,2.3684955,8.729208,-0.5071605,-0.039416,0.21936041,0.20216472,0.11859017,0.9717617,2016-12-12 17:14:27,34.68978832312065
3.1890767,2.480393,8.896853,-0.010906019,0.02740068,-0.02583581,4.0,3.4524286,2.3611124,8.869965,-0.26526737,0.06330939,0.14670554,0.18494275,0.11642117,0.9751241,2016-12-12 17:14:28,13.920370982602478
3.217807,2.6048915,8.916007,0.0067596496,0.014233769,-0.020227086,5.0,3.1613383,2.4113834,8.964461,-0.19210248,0.067519814,0.05220856,0.17085849,0.117248125,0.977062,2016-12-12 17:14:29,12.848535420705836
2.7868507,4.1180267,7.9391727,0.057421822,0.0218239,-0.28835565,4.0,2.5841444,2.9936674,8.973882,-0.73177695,1.2286403,1.7998128,0.15480232,0.13599867,0.969256,2016-12-12 17:14:30,12.204349939507884
2.0494366,3.41892,8.858546,0.02712322,0.0020125017,-0.15263483,5.0,1.9442388,3.833125,8.814618,0.30311862,-0.41441804,0.1611913,0.1488258,0.16861339,0.94318354,2016-12-12 17:14:31,11.475797177493416
1.982399,3.3997664,9.002198,-0.046451673,0.0038664443,0.025120804,6.0,2.0964742,3.5345628,8.904048,-0.026181385,-0.27929986,-0.09168296,0.15222724,0.1511517,0.9454825,2016-12-12 17:14:32,17.00135605180619
1.934515,3.3806129,8.887277,-0.010570773,0.0036201659,-0.004491518,6.0,2.051533,3.363465,8.980463,-0.17192508,-0.053720523,-0.05913512,0.14759189,0.14262015,0.94710577,2016-12-12 17:14:33,36.27859790433692
1.8195933,3.2082303,9.040505,-0.0069632283,0.012338073,-0.0071172067,6.0,1.9757009,3.3168402,9.014742,-0.1233336,-0.08881803,-0.06617391,0.14331235,0.14084631,0.9474666,2016-12-12 17:14:34,35.71005663463516
1.7142484,3.2273839,9.155427,-0.0059151337,0.0042124307,-6.6394854E-4,6.0,1.9137317,3.2645772,9.04713,-0.047744162,-0.009314317,0.06488287,0.13947052,0.13882633,0.9481223,2016-12-12 17:14:35,8.560110168751201
1.1492168,-1.5993267,9.11712,-0.1505366,0.040805396,0.08274899,2.0,1.8781068,3.1002734,9.112157,-0.78847903,-4.5576506,0.8987983,0.13464563,0.13145283,0.9509361,2016-12-12 17:14:36,11.001550678212036
-0.16280572,-1.6280571,9.471462,-0.3047138,0.14275283,0.23719914,1.0,1.1754639,0.25304157,9.732659,-1.2980472,-2.0236866,-0.19841614,0.061407346,0.0012888254,0.979952,2016-12-12 17:14:37,10.797463658175438
-0.2681506,-1.5610195,9.519346,-0.02657212,0.074729785,0.09136558,2.0,-0.03326774,-1.6887507,9.660094,-0.22551887,0.14965144,-0.18033244,-0.010334836,-0.08582257,0.99126506,2016-12-12 17:14:38,15.614740726635201
4.2904096,2.6527755,8.504205,0.20202687,-0.21692066,-0.052384228,3.0,-0.02362661,-1.321492,9.717176,4.150592,3.7731547,-1.2589403,-0.0072726943,-0.06714966,0.99367774,2016-12-12 17:14:39,13.104277700043614
3.5051112,2.566584,8.599973,0.2707423,-0.26292357,-0.036222458,4.0,2.423995,0.9999951,9.449585,1.2398785,1.6151116,-0.8551457,0.12931193,0.038518935,0.9857295,2016-12-12 17:14:40,15.247611265925386
3.371036,2.5378537,8.772355,-0.006455646,0.0326998,-0.053639337,5.0,3.6262505,2.5605407,8.744388,-0.27564493,8.479464E-5,0.013495649,0.20552883,0.10917051,0.96476614,2016-12-12 17:14:41,12.683439139510646
3.1890767,2.4708161,8.7532015,-0.010776902,0.017069748,-0.008711191,4.0,3.3345885,2.5600266,8.859864,-0.079325594,-0.053882632,-0.17008226,0.19072959,0.10906385,0.9666493,2016-12-12 17:14:42,13.762917436214872
3.016694,2.480393,8.954314,-0.005715449,0.019326173,-0.009059212,4.0,3.1883657,2.5239108,8.9238205,-0.24637063,-0.11310941,-0.09783556,0.18294403,0.10743937,0.9678658,2016-12-12 17:14:43,13.617278360175929
2.9879637,2.4899697,8.963891,-0.0045837783,0.016741997,0.001799463,4.0,3.0230844,2.4870915,8.991425,-0.16281153,-0.06266969,0.09334727,0.17406215,0.10614733,0.96930635,2016-12-12 17:14:44,11.53147671988284
2.7964275,2.4516625,9.021352,-0.00295338,0.006907938,-0.006343369,4.0,2.943214,2.4521534,9.027449,-0.1374224,0.040370148,-0.024398413,0.16945739,0.1049401,0.9703244,2016-12-12 17:14:45,10.773679052841565
2.7485435,2.4133554,9.050082,3.8152342E-5,0.008171672,-9.479492E-4,4.0,2.8606863,2.459981,9.051815,-0.08213546,-0.04917944,0.03295602,0.16555743,0.10524553,0.9704237,2016-12-12 17:14:46,11.11745448080854
2.7964275,2.4037786,8.944737,-4.7060777E-4,0.0053642904,0.002200236,4.0,2.7918983,2.4523928,9.075322,-0.0814492,0.06737142,-0.017791081,0.16216539,0.104832105,0.9706153,2016-12-12 17:14:47,11.274085362127659
2.6431987,2.4133554,9.107543,-5.2244886E-4,0.0030801902,-0.004386751,4.0,2.7184834,2.4471364,9.098997,-0.008034293,-0.049955267,-0.05508659,0.1586902,0.104391895,0.9706145,2016-12-12 17:14:48,10.990760747645641
1.0151415,-0.49799395,9.624691,-0.07081125,0.048948035,-0.0073354123,4.0,2.6044798,2.3675823,9.153231,-1.8144996,-3.1984236,0.88496506,0.15235105,0.100520164,0.971481,2016-12-12 17:14:49,11.235454043941173
0.5746084,-0.25857377,9.77792,-0.15814255,0.14067248,0.09333826,3.0,1.7079359,0.871831,9.617342,-1.0950203,-1.1306176,0.20292854,0.092097566,0.034206823,0.9884337,2016-12-12 17:14:50,10.376754486392738
2.4037786,3.0933087,8.858546,0.18353027,0.024778942,-0.13170324,4.0,0.7726344,0.16115727,9.7748375,0.07182714,3.5435774,-0.7717875,0.040016104,0.0045493413,0.9949235,2016-12-12 17:14:51,11.456430613320247
2.480393,2.9113493,8.37013,0.20846903,-0.1454421,-0.028444815,5.0,1.5818673,2.1264248,9.441738,0.8970359,0.46144122,-0.3161053,0.095722765,0.09717267,0.981196,2016-12-12 17:14:52,22.898257657312257
2.9017725,2.930503,8.90643,-0.0151149575,-0.04976131,0.023731638,5.0,2.7167482,2.9960153,8.933844,0.1435247,0.06856291,0.12368795,0.16243333,0.13459636,0.9676176,2016-12-12 17:14:53,12.017384166617118
3.2848446,2.8921957,8.580819,-0.007960915,-0.026549214,-0.01245247,4.0,2.9058373,2.928434,8.896671,-0.059184585,-0.040920272,0.02465612,0.17273097,0.12868567,0.9657104,2016-12-12 17:14:54,26.10759943557155
2.9879637,2.9783869,8.868123,0.0020635033,-0.0074823783,-0.0027262142,4.0,2.997093,2.91388,8.87114,-0.027857117,0.041735176,-0.12687689,0.17727661,0.12755696,0.96524847,2016-12-12 17:14:55,24.745622501804746
2.920926,2.882619,8.868123,4.814233E-4,0.01125161,-0.01115969,4.0,3.0083232,2.9564517,8.853235,-0.20253158,-0.014456863,0.02723155,0.17842676,0.12951659,0.9646111,2016-12-12 17:14:56,11.36026568293208
2.9496565,3.016694,8.628703,-0.010421586,0.0025084727,-0.014949238,4.0,2.8784122,2.9459414,8.899807,-0.14072253,-0.044807523,0.03514073,0.17235671,0.12856641,0.9647341,2016-12-12 17:14:57,46.34608527418786
2.7581203,2.882619,8.686164,-0.0030918585,0.0058201696,2.6870528E-4,4.0,2.8267145,2.9284348,8.922127,0.019937964,-0.095402494,-0.20510411,0.16975226,0.12760225,0.96494424,2016-12-12 17:14:58,51.15624259955371
2.7006595,2.8443117,8.801085,-0.0039688754,0.012184671,3.7220708E-4,5.0,2.7540414,2.8954582,8.955555,-0.16617547,0.005675838,0.12921706,0.16547482,0.12653796,0.9659436,2016-12-12 17:14:59,8.880741380413914
2.815581,2.834735,8.868123,0.0019594505,0.007879644,0.011072424,5.0,2.7054706,2.8660746,8.979779,0.07308051,-0.073903516,-0.2082756,0.16246125,0.12555885,0.96677136,2016-12-12 17:15:00,9.902555848262873
2.3654714,2.6623523,9.126697,-0.0056737186,0.0019272427,0.0016633669,4.0,2.724588,2.8456275,8.980502,-0.15034236,-0.08069686,0.0089275455,0.16307203,0.124616854,0.96703845,2016-12-12 17:15:01,11.857545757350607
1.982399,2.5761611,9.270349,-0.0040449,0.06281248,0.01819105,2.0,2.3853753,2.8172934,9.085331,-0.5193878,-0.29752925,0.094782956,0.14483827,0.12569387,0.969903,2016-12-12 17:15:02,9.302165282927552
1.388637,2.5474305,9.375694,-0.006744371,0.048685417,0.032408066,2.0,1.8887246,2.6722643,9.244574,-0.24066257,-0.111639,-0.009977503,0.11455057,0.1246442,0.9775095,2016-12-12 17:15:03,8.335056872587943
3.763685,2.8921957,8.408437,0.023304718,-0.077726685,0.093824856,4.0,1.8453707,2.5934691,9.275716,1.3417907,0.280424,-0.39524943,0.110246696,0.122130096,0.9797578,2016-12-12 17:15:04,12.044591427527427
3.5529952,2.767697,8.599973,0.02683883,-0.14243716,0.025865054,4.0,3.0914693,2.7501948,8.8909855,0.39533964,0.055596814,-0.3510282,0.17480592,0.12699908,0.971622,2016-12-12 17:15:05,12.59175627306078
3.514688,2.72939,8.552089,-0.010587169,-0.0073653427,-0.025028883,4.0,3.6223443,2.8320591,8.661897,0.23221387,0.0418341,6.44273E-4,0.20619206,0.12590092,0.96392554,2016-12-12 17:15:06,9.846679299815445
3.4859576,2.72939,8.628703,-0.0046401923,-0.006094001,-0.0043215794,4.0,3.6442018,2.823287,8.65559,-0.06205014,-0.15369882,0.034191363,0.20766069,0.12475879,0.9634485,2016-12-12 17:15:07,15.057433347844745
3.3423057,2.681506,8.571242,-0.0070615946,0.0156099945,-0.011053874,4.0,3.6099412,2.7974417,8.6783085,-0.19123395,-0.114233345,0.011473048,0.20602861,0.1228073,0.9636241,2016-12-12 17:15:08,15.386836758132407
3.3614593,2.7006595,8.7053175,0.008296607,-0.013004763,0.0072169146,4.0,3.701937,2.7959638,8.639945,-0.35133123,-0.099134915,0.008975762,0.21012707,0.1238226,0.9634656,2016-12-12 17:15:09,10.762307103900808
3.4093432,2.633622,8.772355,-0.0013640845,0.010691061,-0.004380991,4.0,3.6458032,2.7957528,8.66385,-0.28157723,-0.11254431,0.13489498,0.20686202,0.124397606,0.9642647,2016-12-12 17:15:10,10.557127164075588
3.122039,2.7006595,8.944737,-0.01340443,0.0016056973,-0.021007918,4.0,3.3465872,2.7316768,8.803903,-0.036842857,-0.10294984,0.008462838,0.19171652,0.11987791,0.9664078,2016-12-12 17:15:11,17.023766771434282
2.4899697,2.777274,9.126697,-0.015404892,0.022457555,-0.045197047,5.0,3.2410407,2.7101226,8.849931,-0.5442118,-0.08139558,0.0169157,0.18676674,0.117886916,0.96664333,2016-12-12 17:15:12,16.77435847137387
2.384625,2.777274,9.107543,-0.01745072,0.04210081,-0.04773387,5.0,2.812893,2.700524,8.998066,-0.36123037,0.037165824,0.032224458,0.16594528,0.11699783,0.96803975,2016-12-12 17:15:13,10.070005586021246
2.4037786,2.3942018,9.232041,-0.0052313684,0.007143617,-0.001944183,5.0,2.4997506,2.6770375,9.096985,0.06087466,-0.19813432,0.31467542,0.15099585,0.115685716,0.9682671,2016-12-12 17:15:14,12.648178230095365
4.3382936,-0.35434186,8.801085,-5.0719513E-4,-0.02256243,0.17419899,4.0,2.834207,2.5960534,9.022094,0.03968639,-2.3645074,0.8935194,0.16210155,0.117151,0.9732367,2016-12-12 17:15:15,9.573977504827582
3.6104562,-1.3503298,7.728483,-0.16723698,-0.0899532,0.12423121,5.0,3.5397859,0.75320476,9.114439,0.6008,-1.3661205,-0.46551844,0.1851764,0.031665232,0.9813977,2016-12-12 17:15:16,10.872488677956579
4.960786,-1.0247183,8.350976,-0.034693405,-0.12546587,0.043412387,4.0,4.0137835,-0.7154977,8.918967,0.9985043,-0.34688944,-0.5969352,0.20836325,-0.042940695,0.97675663,2016-12-12 17:15:17,31.968227566622595
4.213795,-1.0630256,8.724471,-0.011077896,-0.032030568,0.0013508989,4.0,4.6163588,-0.95459205,8.599324,-0.35319006,-0.094174735,0.15855934,0.24212675,-0.054140065,0.96860784,2016-12-12 17:15:18,36.94352335237994
3.7541082,-0.8714894,8.963891,-0.00992668,0.087104425,-0.029996676,5.0,4.281317,-1.0042119,8.765402,-0.41313863,0.14613007,0.27850884,0.22188418,-0.06209914,0.97221506,2016-12-12 17:15:19,31.604976056661364
3.1794999,-0.7661445,9.279925,0.009416256,0.050024584,-0.011631472,4.0,3.8128207,-0.9050056,8.989647,-0.32601172,0.046923652,-0.054699194,0.1955366,-0.05848972,0.97732675,2016-12-12 17:15:20,29.683910014813716
4.6926355,-0.2777274,8.552089,0.0034528074,-0.076056,-0.057542954,5.0,3.8597538,-0.7206551,8.986287,0.7847848,0.4346278,-0.29650524,0.19830991,-0.050000712,0.976958,2016-12-12 17:15:21,9.091547098084257
4.175488,-0.047884032,8.724471,-0.004636073,-0.06989287,-0.08742567,5.0,4.400747,-0.33054686,8.757544,-0.2329205,0.33054686,3.3917857E-4,0.22817789,-0.0377419,0.96904147,2016-12-12 17:15:22,9.587430106660014
3.8594532,0.10534488,9.059659,0.011090792,0.04259543,-0.014116579,5.0,4.2886195,-0.07486088,8.818873,-0.33871844,0.10210158,0.12969507,0.22223434,-0.031217046,0.96723807,2016-12-12 17:15:23,20.071340849619475
4.3957543,0.12449849,8.523358,4.3238286E-4,-0.032142334,-0.01894434,5.0,4.299304,0.013628203,8.813978,0.12730919,0.16343631,-0.20591797,0.22317377,-0.028385181,0.966184,2016-12-12 17:15:24,25.959024938952894
4.510676,0.15322891,8.6574335,-0.0014057131,-0.017348494,-0.016647441,5.0,4.5615263,0.0943329,8.680666,0.02853049,0.041870564,-0.09984736,0.23794982,-0.028090652,0.9616163,2016-12-12 17:15:25,19.6069369461718
4.55856,0.21068975,8.6095495,0.0,0.0,-0.0,5.0,4.5145693,0.13400449,8.704659,0.061867665,-0.011421363,-0.17832148,0.23563705,-0.02571162,0.962217,2016-12-12 17:15:26,21.621535141945202
4.3957543,0.46926352,8.647857,-8.1687124E-4,0.0040467605,-0.038364608,5.0,4.5077367,0.22387925,8.706352,-0.08112395,0.19835152,-0.07105209,0.23573507,-0.02299036,0.9610895,2016-12-12 17:15:27,19.635960109337617
4.7979803,0.038307227,8.475474,-0.0035040919,0.0048352554,-0.013305588,5.0,4.475273,0.38474596,8.71747,0.101163745,-0.37112564,-0.06854982,0.23508257,-0.016398612,0.96012545,2016-12-12 17:15:28,26.30335692086828
1.6280571,0.32561144,10.620679,-0.060981914,0.14885193,-0.07988203,3.0,4.353207,0.16614787,8.785918,-2.3510158,0.4059067,0.93900925,0.22561412,-0.033779882,0.956699,2016-12-12 17:15:29,33.10983895094809
5.3342814,-0.60333884,6.694188,0.13362901,-0.01612731,0.46717194,1.0,3.2115269,-0.003521014,9.265877,2.822287,0.09886345,-2.3331196,0.16493446,-0.019193787,0.979632,2016-12-12 17:15:30,35.28422135771876
3.9935284,0.8714894,9.279925,0.045590248,-0.21634397,0.04268177,1.0,4.3304753,0.051219612,8.798565,-0.3397135,0.520835,-0.55825466,-0.22663285,-0.0059662284,-0.97385967,2016-12-12 17:15:31,18.026668483425247
5.3247046,0.10534488,9.3182335,0.03411523,0.002288715,0.029917471,1.0,4.954793,0.43756825,8.451566,0.32990187,-0.5329107,-0.2793576,0.261967,0.021527287,0.9648188,2016-12-12 17:15:33,28.411716944995323
5.755661,0.019153614,7.7667904,0.08072071,-0.08371557,0.17272829,1.0,5.361726,0.15959594,8.209556,0.195376,-0.023392463,-0.105449624,-0.28158808,-0.04623086,-0.94996053,2016-12-12 17:15:34,36.908724763117206
5.7843914,-0.076614454,7.8529816,0.0011118203,-0.038988564,0.006328738,1.0,5.692015,0.0055815997,7.985694,0.0557716,-0.06006299,-0.1403742,-0.30000418,-0.05329533,-0.9379284,2016-12-12 17:15:35,38.594118977098375
6.129156,-0.23942018,7.6135616,-0.0030466223,-0.013564368,0.005393607,1.0,5.7955565,-0.028409667,7.9108224,0.033951942,-0.09417346,-0.51497364,-0.30645618,-0.052392054,-0.9360531,2016-12-12 17:15:36,14.963241183718267
4.5202527,0.4405331,8.973468,-0.016965581,0.09537042,-0.07884813,3.0,5.7068396,0.16763592,7.9733486,-1.0350599,0.5406222,0.9752199,-0.3000143,-0.0588543,-0.9392883,2016-12-12 17:15:37,11.072099696478684
4.8267107,-0.80445176,8.552089,-0.026480196,0.08173619,0.02085311,3.0,4.961855,0.27414414,8.454303,-0.058529917,-0.81895804,0.07203472,-0.2569315,-0.054191947,-0.9536845,2016-12-12 17:15:38,9.26374605867545
4.903325,-0.80445176,8.446744,-0.028535265,-0.019934248,0.076143876,3.0,4.8022895,-0.48070005,8.536821,0.073795035,-0.3092801,-0.037725303,-0.25352696,-0.021616442,-0.95061606,2016-12-12 17:15:39,16.047996019106822
4.8841715,-0.6895301,8.446744,-0.01784318,-0.00211888,-0.021677474,3.0,4.9054246,-0.79616064,8.45419,-0.08382158,0.019800797,-0.091297224,-0.26252663,-0.006003351,-0.94866,2016-12-12 17:15:40,26.227319651647193
5.085284,-0.7374141,8.236053,0.0031004446,-0.017534617,0.0034114702,2.0,4.955423,-0.7596392,8.428352,0.20668861,0.024140444,-0.28338453,-0.26495463,-0.008525795,-0.94789785,2016-12-12 17:15:41,13.287617367514724
5.056554,-0.78529817,8.360553,0.005630495,-0.0069116587,0.015162584,2.0,5.047232,-0.7699619,8.372754,-0.0077034268,0.0072224564,-0.077962026,-0.27014938,-0.0113005955,-0.9448417,2016-12-12 17:15:42,9.423181526298498
5.0374002,-0.7757214,8.341399,-0.0017365456,0.007082208,-3.065049E-5,2.0,5.0525312,-0.7798522,8.36864,0.05509906,0.04435347,-0.060228307,-0.27056146,-0.010704171,-0.9448285,2016-12-12 17:15:43,9.744253318550824
5.094861,-0.7757214,8.255207,0.0074736746,-0.0061755995,0.012924526,2.0,5.068099,-0.7912072,8.358155,-0.0013296964,0.0012270804,-0.06336321,-0.2716037,-0.009173091,-0.94529575,2016-12-12 17:15:44,10.384214456424594
5.0374002,-0.92895025,8.274361,-0.006904638,7.545711E-5,-8.126878E-4,2.0,5.100385,-0.8040607,8.337263,-0.07447713,-0.12212289,-0.0016102669,-0.27354047,-0.009671779,-0.9441926,2016-12-12 17:15:45,9.84949026743399
5.0757074,-0.89064306,8.264784,-0.011102696,0.003369337,-0.0044795508,2.0,5.0806384,-0.8679484,8.342911,-0.013868912,-0.0037538258,-0.034498952,-0.27315184,-0.004239071,-0.9455965,2016-12-12 17:15:46,9.287797872885582
5.085284,-0.91937345,8.207323,0.00667053,-0.0049032206,0.012402719,2.0,5.082365,-0.9023225,8.338212,-0.0019752164,-0.037481517,-0.057041027,-0.27357486,-0.005131751,-0.9437076,2016-12-12 17:15:47,8.41398580228568
5.046977,-0.9959879,8.207323,0.004651323,-0.005217773,0.016583716,2.0,5.117105,-0.9314654,8.313723,-0.00947497,-0.03557925,-0.11427325,-0.27582994,-0.0059935297,-0.9416858,2016-12-12 17:15:48,7.952280865507966
5.046977,-0.91937345,8.226477,-0.0011798462,-0.0011469267,0.0034343232,2.0,5.137056,-0.96514916,8.297563,-0.070286445,-0.0018955136,-0.08449288,-0.27734545,-0.004644829,-0.94113535,2016-12-12 17:15:49,8.156192500187805
5.0374002,-0.9959879,8.274361,0.013565679,0.0049054762,0.02050201,2.0,5.099982,-0.9570121,8.321341,-0.10131422,-0.010032578,0.0415527,-0.27515292,-0.0045390716,-0.94184434,2016-12-12 17:15:50,7.939212817075036
4.4436383,-0.60333884,9.136273,0.022704156,0.0303754,0.016816013,2.0,5.0090785,-0.94635063,8.377585,-1.2362419,0.64670295,0.27133453,-0.26985404,-0.0063881534,-0.94164723,2016-12-12 17:15:51,7.7337498641711155
