ACC_X,ACC_Y,ACC_Z,GYRO_X,GYRO_Y,GYRO_Z,LIGH_1,GRAV_X,GRAV_Y,GRAV_Z,LINACC_X,LINACC_Y,LINACC_Z,ROTVEC_X,ROTVEC_Y,ROTVEC_Z,TIME,VOICE
5.324,-0.13,8.265,0.09645617,0.15174527,0.20157208,2.0,5.32,-0.118,8.236,-0.003,0.002,0.012,0.220339,-0.177432,0.760249,2017-05-01 20:14:48,49.497072555716585
3.636,-0.531,9.12,0.0102584595,0.03157474,0.021715961,2.0,3.696,-0.508,9.069,-0.032,-0.014,0.03,0.145567,-0.128099,0.817859,2017-05-01 20:14:49,70.41002590912962
4.585,-0.523,8.672,0.17092992,-0.22155608,-0.19944045,2.0,4.631,-0.579,8.624,-0.249,-0.166,0.243,0.184425,-0.162069,0.801959,2017-05-01 20:14:50,66.09242114351903
4.973,-0.134,8.498,-0.009325872,0.014521716,-0.0023980816,2.0,4.986,-0.153,8.442,-0.011,0.012,0.057,0.212448,-0.156234,0.794325,2017-05-01 20:14:51,41.37651833115171
4.916,-0.174,8.527,0.007460698,-0.0059952037,-0.0011990408,2.0,4.932,-0.159,8.474,-0.023,-0.022,0.057,0.209931,-0.154417,0.795761,2017-05-01 20:14:52,53.48353159153624
5.363,-0.011,8.293,-0.100452974,-0.40154544,-0.13162804,2.0,5.177,-0.123,8.327,0.071,0.036,0.036,0.221978,-0.161714,0.790414,2017-05-01 20:14:53,68.55908401381826
5.387,-0.282,8.338,0.022915002,0.12390088,0.018252065,2.0,5.409,-0.256,8.175,0.28,-0.066,-0.051,0.22642,-0.178622,0.778964,2017-05-01 20:14:54,69.29326354816898
5.096,-0.304,8.412,-0.0014654943,0.009992006,2.664535E-4,2.0,5.036,-0.263,8.41,0.058,-0.041,-0.004,0.210024,-0.164566,0.788607,2017-05-01 20:14:55,67.7580760077051
5.124,-0.312,8.392,0.004396483,-0.0070610177,-3.9968026E-4,2.0,5.042,-0.277,8.406,0.066,-0.035,0.001,0.209814,-0.165406,0.788383,2017-05-01 20:14:56,70.80438208630353
5.13,-0.312,8.407,0.0025313082,0.0017319478,-5.32907E-4,2.0,5.043,-0.285,8.405,0.083,-0.025,0.002,0.209761,-0.165685,0.788726,2017-05-01 20:14:57,65.29898394804387
5.123,-0.299,8.397,-0.004396483,0.006661338,-0.0017319478,2.0,5.081,-0.303,8.381,0.041,0.003,0.014,0.211156,-0.167526,0.788729,2017-05-01 20:14:58,54.01386516967379
5.14,-0.303,8.387,0.0,0.0062616575,-0.003197442,2.0,5.088,-0.308,8.377,0.042,0.005,0.009,0.211334,-0.167938,0.788736,2017-05-01 20:14:59,68.35803552982713
5.176,-0.316,8.374,-0.002664535,-0.011723954,0.0035971224,2.0,5.091,-0.305,8.375,0.089,-0.014,0.001,0.211526,-0.167997,0.788519,2017-05-01 20:15:00,70.80404968241336
5.189,-0.3,8.364,-0.0018651745,0.008792966,-0.0014654943,2.0,5.097,-0.299,8.372,0.091,-0.006,-0.008,0.211975,-0.167902,0.78842,2017-05-01 20:15:01,71.89360290395874
5.199,-0.302,8.361,-9.3258725E-4,-5.32907E-4,-0.0019984012,2.0,5.105,-0.299,8.367,0.07,-0.007,-0.013,0.21244,-0.168107,0.788589,2017-05-01 20:15:02,71.20872646368659
5.208,-0.309,8.35,0.004662936,-0.005861977,0.00492939,2.0,5.12,-0.3,8.358,0.091,-0.008,-0.014,0.213248,-0.168468,0.788795,2017-05-01 20:15:03,71.08208948340292
5.224,-0.311,8.331,-0.0017319478,-0.001598721,-0.0018651745,2.0,5.131,-0.302,8.351,0.092,-0.006,-0.015,0.213829,-0.168757,0.789038,2017-05-01 20:15:04,71.25396369707853
5.236,-0.309,8.34,0.0,0.0023980816,0.001598721,2.0,5.14,-0.302,8.345,0.098,-0.006,-0.012,0.214334,-0.168951,0.789185,2017-05-01 20:15:05,71.6539854440436
5.239,-0.309,8.327,-0.003197442,-0.0013322675,0.001598721,2.0,5.148,-0.302,8.34,0.087,-0.006,-0.012,0.214802,-0.169101,0.789352,2017-05-01 20:15:06,72.12828337198806
5.252,-0.31,8.32,0.0013322675,0.0065281107,0.0,2.0,5.158,-0.304,8.334,0.093,-0.003,-0.017,0.215274,-0.169421,0.789492,2017-05-01 20:15:07,70.7421894913427
5.272,-0.314,8.313,-0.0018651745,-0.002664535,1.3322676E-4,2.0,5.165,-0.304,8.33,0.094,-0.006,-0.016,0.215587,-0.169652,0.789411,2017-05-01 20:15:08,64.97551005342636
5.284,-0.318,8.297,3.9968026E-4,0.00492939,1.3322676E-4,2.0,5.172,-0.305,8.326,0.101,-0.008,-0.029,0.215934,-0.169875,0.78948,2017-05-01 20:15:09,68.46830666161183
5.281,-0.314,8.299,2.664535E-4,-0.0035971224,-9.3258725E-4,2.0,5.179,-0.306,8.321,0.102,-0.006,-0.02,0.21635,-0.17007,0.789595,2017-05-01 20:15:10,65.1786968224113
5.308,-0.324,8.282,1.3322676E-4,0.015054623,-0.00985878,2.0,5.187,-0.307,8.316,0.108,-0.01,-0.024,0.216739,-0.170247,0.789716,2017-05-01 20:15:11,65.96027725817648
5.305,-0.32,8.276,-0.00492939,-0.0023980816,1.3322676E-4,2.0,5.197,-0.307,8.31,0.105,-0.016,-0.034,0.217295,-0.170499,0.789893,2017-05-01 20:15:12,71.42510676519775
5.303,-0.32,8.285,9.3258725E-4,0.003330669,3.9968026E-4,2.0,5.196,-0.307,8.31,0.109,-0.009,-0.022,0.217315,-0.170402,0.790058,2017-05-01 20:15:13,66.52967463028577
5.309,-0.323,8.293,1.3322676E-4,-0.0050626164,-0.0019984012,2.0,5.21,-0.309,8.301,0.096,-0.01,-0.01,0.218001,-0.17086,0.790099,2017-05-01 20:15:14,71.66874653992124
5.309,-0.314,8.279,1.3322676E-4,-2.664535E-4,0.0038635759,2.0,5.213,-0.31,8.3,0.087,-0.003,-0.014,0.218143,-0.170911,0.790214,2017-05-01 20:15:15,70.71045290061198
5.276,-0.304,8.308,3.9968026E-4,-0.0050626164,0.003730349,2.0,5.209,-0.308,8.302,0.062,0.008,0.004,0.218072,-0.170608,0.790442,2017-05-01 20:15:16,68.56651432043802
5.278,-0.31,8.305,-3.9968026E-4,-0.0030642152,0.001598721,2.0,5.219,-0.31,8.296,0.062,0.001,0.002,0.218542,-0.171014,0.790434,2017-05-01 20:15:17,50.58494474451375
5.294,-0.314,8.293,-5.32907E-4,-0.004130029,-0.0017319478,2.0,5.222,-0.31,8.294,0.072,-0.007,-0.009,0.218736,-0.171067,0.790515,2017-05-01 20:15:18,63.40582973490136
5.294,-0.314,8.285,7.993605E-4,-0.0062616575,-0.0014654943,2.0,5.223,-0.308,8.293,0.07,-0.006,-0.005,0.218845,-0.170983,0.790587,2017-05-01 20:15:19,67.13660777988889
5.272,-0.3,8.302,0.0019984012,-0.005861977,-2.664535E-4,2.0,5.223,-0.309,8.294,0.052,0.003,0.009,0.218844,-0.170938,0.790697,2017-05-01 20:15:20,70.08896646215369
5.29,-0.302,8.289,3.9968026E-4,-0.0023980816,0.001065814,2.0,5.23,-0.31,8.289,0.057,0.005,0.001,0.219204,-0.171178,0.790786,2017-05-01 20:15:21,67.50396345639396
5.298,-0.306,8.286,0.0011990408,-0.003197442,-5.32907E-4,2.0,5.232,-0.309,8.288,0.063,0.002,-0.002,0.219392,-0.171121,0.790928,2017-05-01 20:15:22,65.27809361635495
5.285,-0.301,8.302,0.0011990408,0.003730349,-1.3322676E-4,2.0,5.229,-0.307,8.29,0.058,0.004,0.001,0.219316,-0.170903,0.791031,2017-05-01 20:15:23,72.34954413403227
5.263,-0.302,8.3,-0.004796163,-0.014788169,0.002131628,2.0,5.235,-0.309,8.286,0.037,0.006,0.002,0.219613,-0.171158,0.791056,2017-05-01 20:15:24,72.53424972749629
5.285,-0.306,8.299,-0.003197442,-0.015321077,0.004263256,2.0,5.238,-0.307,8.284,0.047,0.004,0.011,0.219823,-0.171145,0.791066,2017-05-01 20:15:25,66.9786740785015
5.288,-0.303,8.295,0.001598721,-0.006661338,-0.0011990408,2.0,5.224,-0.309,8.292,0.056,0.008,0.006,0.219135,-0.170744,0.791366,2017-05-01 20:15:26,71.22537509580245
5.263,-0.306,8.315,-3.9968026E-4,-0.0077271517,-0.0022648547,2.0,5.233,-0.309,8.287,0.024,0.003,0.025,0.219557,-0.171017,0.791235,2017-05-01 20:15:27,69.74979543536931
5.26,-0.302,8.313,-0.0018651745,-0.005861977,6.6613377E-4,2.0,5.241,-0.306,8.282,0.018,0.003,0.026,0.220031,-0.171121,0.791263,2017-05-01 20:15:28,68.93093519907052
5.279,-0.305,8.3,0.0013322675,0.0045297095,-7.993605E-4,2.0,5.243,-0.308,8.281,0.035,-0.002,0.016,0.220088,-0.17122,0.791326,2017-05-01 20:15:29,68.73752919012486
5.26,-0.304,8.311,3.9968026E-4,-2.664535E-4,7.993605E-4,2.0,5.241,-0.308,8.282,0.011,0.006,0.03,0.220008,-0.171135,0.791407,2017-05-01 20:15:30,67.95591392456005
5.279,-0.302,8.303,-3.9968026E-4,-0.0019984012,0.0018651745,2.0,5.249,-0.31,8.277,0.027,0.009,0.021,0.220407,-0.171438,0.791429,2017-05-01 20:15:31,72.71009376194957
5.288,-0.312,8.304,0.0,-0.0013322675,0.0011990408,2.0,5.245,-0.309,8.279,0.042,-0.002,0.016,0.220273,-0.171252,0.791535,2017-05-01 20:15:32,70.62651623528994
5.281,-0.309,8.293,-0.0025313082,-0.013988809,0.0025313082,2.0,5.242,-0.309,8.281,0.036,-0.002,0.004,0.220142,-0.171099,0.791642,2017-05-01 20:15:33,71.9411639146735
5.289,-0.31,8.289,0.0018651745,0.015321077,-0.0062616575,2.0,5.25,-0.308,8.276,0.041,-0.003,0.013,0.22058,-0.17128,0.791657,2017-05-01 20:15:34,68.70188399811805
5.304,-0.309,8.29,0.0030642152,0.0023980816,-0.001598721,2.0,5.251,-0.309,8.276,0.049,-0.005,0.015,0.220632,-0.17132,0.791696,2017-05-01 20:15:35,73.00011513812919
5.311,-0.318,8.281,0.0013322675,0.013988809,-0.005861977,2.0,5.248,-0.31,8.278,0.048,-0.006,0.007,0.220471,-0.171201,0.79185,2017-05-01 20:15:36,73.9078869425295
5.313,-0.316,8.279,0.003330669,0.012789768,-7.993605E-4,2.0,5.25,-0.309,8.276,0.061,-0.007,0.006,0.22065,-0.171239,0.791896,2017-05-01 20:15:37,73.38574311857437
5.325,-0.317,8.268,0.0039968025,0.010125233,-0.001598721,2.0,5.255,-0.309,8.273,0.064,-0.004,-0.001,0.220912,-0.171382,0.791901,2017-05-01 20:15:38,71.78551481505994
5.309,-0.311,8.283,0.001065814,0.0,-0.001598721,2.0,5.244,-0.311,8.28,0.056,0.001,0.004,0.220327,-0.171083,0.792073,2017-05-01 20:15:39,72.43942085229956
5.312,-0.324,8.276,0.004263256,0.0057287505,-0.001598721,2.0,5.247,-0.31,8.278,0.062,-0.013,-0.004,0.220529,-0.171102,0.79211,2017-05-01 20:15:40,73.41868715064501
5.226,-0.282,8.367,0.0,-0.042899013,0.014255263,2.0,5.158,-0.309,8.334,-0.055,0.077,0.091,0.21626,-0.168214,0.793125,2017-05-01 20:15:41,71.30072909935204
5.291,-0.255,8.273,0.0019984012,-0.0023980816,0.008926192,2.0,5.269,-0.272,8.266,0.094,-0.009,-0.034,0.222337,-0.170577,0.790767,2017-05-01 20:15:42,66.6435349003339
5.406,-0.283,8.229,0.0050626164,0.027178258,-0.003730349,2.0,5.259,-0.243,8.273,0.155,-0.04,-0.046,0.222724,-0.169026,0.790882,2017-05-01 20:15:43,70.73532921452056
5.395,-0.265,8.228,-0.0014654943,0.0039968025,-0.0023980816,2.0,5.258,-0.231,8.273,0.138,-0.03,-0.044,0.223038,-0.168512,0.790827,2017-05-01 20:15:44,72.30141351546182
5.443,-0.291,8.197,-0.0011990408,0.011723954,-0.001598721,2.0,5.279,-0.257,8.26,0.147,-0.03,-0.046,0.223133,-0.170418,0.790202,2017-05-01 20:15:45,65.4723232613067
5.518,-0.324,8.134,-0.006394884,-0.019451106,-3.9968026E-4,2.0,5.334,-0.272,8.223,0.18,-0.05,-0.086,0.225435,-0.172829,0.789718,2017-05-01 20:15:46,67.63328043839924
5.601,-0.351,8.095,-0.0022648547,0.004796163,3.9968026E-4,2.0,5.333,-0.274,8.224,0.257,-0.076,-0.132,0.225408,-0.172776,0.789953,2017-05-01 20:15:47,72.78362082721483
5.649,-0.382,8.057,-0.004130029,0.017985612,-0.011723954,2.0,5.341,-0.278,8.219,0.308,-0.108,-0.166,0.225674,-0.173154,0.789981,2017-05-01 20:15:48,72.82796541269447
5.646,-0.369,8.067,0.01065814,0.022248868,0.0050626164,2.0,5.386,-0.275,8.189,0.26,-0.09,-0.125,0.228002,-0.174482,0.78944,2017-05-01 20:15:49,73.68272046220537
5.773,-0.376,7.964,-0.004130029,-0.027577939,0.0030642152,2.0,5.505,-0.27,8.11,0.239,-0.099,-0.127,0.23421,-0.177823,0.788645,2017-05-01 20:15:50,73.31325410633563
5.708,-0.383,7.994,0.003197442,-0.001065814,-0.002131628,2.0,5.46,-0.277,8.141,0.239,-0.104,-0.135,0.231671,-0.176762,0.788982,2017-05-01 20:15:51,72.0116115047758
5.708,-0.389,8.017,2.664535E-4,0.006927791,5.32907E-4,2.0,5.474,-0.279,8.131,0.229,-0.107,-0.115,0.232362,-0.177288,0.788916,2017-05-01 20:15:52,70.64066417557524
5.708,-0.38,8.015,-0.0025313082,-0.016120438,0.0023980816,2.0,5.467,-0.274,8.136,0.246,-0.106,-0.12,0.232245,-0.176727,0.789221,2017-05-01 20:15:53,74.10416044996673
5.716,-0.367,8.01,-0.0023980816,-0.013855582,7.993605E-4,2.0,5.452,-0.272,8.146,0.261,-0.095,-0.14,0.231566,-0.176086,0.789508,2017-05-01 20:15:54,69.62803766703315
5.713,-0.371,8.017,7.993605E-4,-0.002664535,3.9968026E-4,2.0,5.466,-0.278,8.137,0.245,-0.089,-0.114,0.232047,-0.176852,0.789256,2017-05-01 20:15:55,69.784950757292
5.881,-0.198,7.682,-0.10378364,-0.34998667,-0.16160405,2.0,5.559,-0.114,8.077,0.335,-0.118,0.072,0.23887,-0.176354,0.779757,2017-05-01 20:15:56,69.18917708756035
3.515,-0.683,9.057,-0.040900614,0.10538236,0.016919797,2.0,3.498,-0.776,9.128,0.283,-0.129,-0.169,0.127,-0.135837,0.810597,2017-05-01 20:15:57,70.2063607457297
3.496,-0.901,9.14,-0.009059419,0.008526512,0.002131628,2.0,3.492,-0.818,9.127,-0.262,-0.161,0.119,0.123747,-0.139047,0.803452,2017-05-01 20:15:58,68.07536971135414
3.56,-0.874,9.121,-0.002664535,0.012789768,0.008393286,2.0,3.531,-0.842,9.109,0.028,-0.031,0.017,0.124737,-0.141278,0.803092,2017-05-01 20:15:59,68.51762955941588
3.542,-0.887,9.13,0.009992006,-0.013589129,0.00532907,2.0,3.566,-0.861,9.094,-0.024,-0.02,0.029,0.125727,-0.143226,0.802785,2017-05-01 20:16:00,69.7979876963802
3.54,-0.886,9.127,6.6613377E-4,-0.002131628,-1.3322676E-4,2.0,3.564,-0.872,9.093,-0.024,-0.016,0.033,0.125252,-0.143682,0.802464,2017-05-01 20:16:01,70.17360859505955
3.537,-0.879,9.143,-7.993605E-4,-0.002131628,0.0011990408,2.0,3.563,-0.869,9.094,-0.03,-0.01,0.039,0.125247,-0.143561,0.802365,2017-05-01 20:16:02,70.38561341887815
3.543,-0.885,9.152,0.003330669,0.011857181,-0.0030642152,2.0,3.563,-0.868,9.094,-0.009,-0.009,0.049,0.125203,-0.14356,0.802132,2017-05-01 20:16:03,68.55430866862312
3.542,-0.874,9.13,-2.664535E-4,2.664535E-4,0.002664535,2.0,3.556,-0.87,9.097,-0.022,-0.002,0.028,0.124799,-0.143498,0.801961,2017-05-01 20:16:04,55.32167558176901
3.542,-0.888,9.129,-0.0023980816,0.0034638955,-0.0014654943,2.0,3.551,-0.874,9.098,-0.011,-0.009,0.028,0.12445,-0.143511,0.801865,2017-05-01 20:16:05,63.71793058748758
3.531,-0.873,9.133,-0.0035971224,0.0061284304,0.0,2.0,3.542,-0.876,9.102,0.003,0.016,0.026,0.124109,-0.143177,0.802502,2017-05-01 20:16:06,68.72649574323256
3.519,-0.876,9.126,1.3322676E-4,7.993605E-4,-7.993605E-4,2.0,3.533,-0.879,9.105,-0.013,0.004,0.02,0.123497,-0.143144,0.802121,2017-05-01 20:16:07,68.1865799016762
3.525,-0.88,9.136,-0.0018651745,0.00532907,3.9968026E-4,2.0,3.534,-0.881,9.104,-0.011,0.001,0.025,0.123482,-0.143268,0.801955,2017-05-01 20:16:08,68.98617002922559
3.533,-0.874,9.13,-0.0017319478,-6.6613377E-4,7.993605E-4,2.0,3.534,-0.88,9.105,-0.001,0.004,0.024,0.123433,-0.143268,0.801772,2017-05-01 20:16:09,58.782818935049335
3.528,-0.882,9.136,-0.0029309886,-6.6613377E-4,3.9968026E-4,2.0,3.533,-0.88,9.105,-0.002,-0.002,0.029,0.123358,-0.143266,0.801646,2017-05-01 20:16:10,70.75232108833492
3.534,-0.885,9.129,-9.3258725E-4,-0.0017319478,5.32907E-4,2.0,3.533,-0.879,9.105,-0.004,-0.001,0.039,0.123372,-0.143277,0.801491,2017-05-01 20:16:11,69.81164998467575
3.533,-0.877,9.14,-0.0019984012,0.0011990408,0.001598721,2.0,3.532,-0.879,9.105,-0.004,0.003,0.033,0.123279,-0.14326,0.801361,2017-05-01 20:16:12,70.82345381745763
3.53,-0.889,9.139,-7.993605E-4,-0.00532907,-5.32907E-4,2.0,3.53,-0.88,9.106,-0.001,-0.006,0.032,0.123139,-0.143271,0.801228,2017-05-01 20:16:13,71.07017920253418
3.525,-0.883,9.134,0.003330669,-0.0030642152,-3.9968026E-4,2.0,3.53,-0.879,9.106,-0.001,-0.002,0.021,0.123109,-0.143268,0.801079,2017-05-01 20:16:14,70.56052589636161
3.524,-0.879,9.133,7.993605E-4,-7.993605E-4,-6.6613377E-4,2.0,3.529,-0.878,9.107,-0.006,-0.001,0.025,0.123108,-0.143226,0.800992,2017-05-01 20:16:15,67.87726650904365
3.527,-0.88,9.141,-7.993605E-4,0.0030642152,0.0023980816,2.0,3.528,-0.879,9.107,0.004,-0.001,0.032,0.122966,-0.143247,0.80084,2017-05-01 20:16:16,44.47080418807068
3.534,-0.879,9.137,6.6613377E-4,6.6613377E-4,0.001598721,2.0,3.529,-0.879,9.107,-0.003,-0.003,0.029,0.122963,-0.143317,0.8007,2017-05-01 20:16:17,69.38553886694953
3.531,-0.879,9.136,9.3258725E-4,7.993605E-4,-0.0023980816,2.0,3.527,-0.878,9.108,0.002,-0.006,0.028,0.122892,-0.143231,0.800587,2017-05-01 20:16:18,65.42358388649531
3.527,-0.882,9.137,0.0,9.3258725E-4,-2.664535E-4,2.0,3.526,-0.878,9.108,0.003,-0.004,0.029,0.122809,-0.143249,0.800478,2017-05-01 20:16:19,67.42143603309201
3.527,-0.889,9.135,-0.0018651745,0.0013322675,0.0017319478,2.0,3.527,-0.878,9.108,-0.001,-0.004,0.036,0.122818,-0.143278,0.800378,2017-05-01 20:16:20,67.80412267630312
3.533,-0.879,9.133,0.0,9.3258725E-4,5.32907E-4,2.0,3.526,-0.878,9.108,0.005,-0.001,0.017,0.122764,-0.14325,0.800314,2017-05-01 20:16:21,69.86135082526998
3.524,-0.884,9.13,0.0039968025,-0.0061284304,-0.001598721,2.0,3.533,-0.872,9.105,-0.014,-0.012,0.028,0.123244,-0.143289,0.800179,2017-05-01 20:16:22,70.92967768760778
3.527,-0.883,9.131,-1.3322676E-4,-0.0017319478,0.001598721,2.0,3.536,-0.871,9.105,-0.009,-0.005,0.034,0.123389,-0.143329,0.800101,2017-05-01 20:16:23,70.16689189127901
3.525,-0.879,9.137,0.0019984012,0.0,5.32907E-4,2.0,3.534,-0.872,9.105,-0.007,-0.006,0.028,0.123266,-0.143323,0.800014,2017-05-01 20:16:24,67.62293225557777
3.523,-0.879,9.136,0.001065814,-6.6613377E-4,6.6613377E-4,2.0,3.534,-0.872,9.105,-0.009,-0.006,0.027,0.123223,-0.143335,0.7999,2017-05-01 20:16:25,60.7085917536564
3.527,-0.878,9.136,-9.3258725E-4,6.6613377E-4,3.9968026E-4,2.0,3.533,-0.872,9.106,-0.003,-0.006,0.029,0.123186,-0.143325,0.799867,2017-05-01 20:16:26,49.53175247929291
3.521,-0.877,9.141,0.0013322675,-0.0018651745,-0.0017319478,2.0,3.531,-0.873,9.107,-0.006,-0.002,0.04,0.123,-0.143317,0.799824,2017-05-01 20:16:27,67.74896323675765
3.52,-0.873,9.137,0.0,0.001065814,0.0017319478,2.0,3.532,-0.872,9.106,-0.013,-0.007,0.032,0.123086,-0.143334,0.79968,2017-05-01 20:16:28,65.2460457223252
3.524,-0.883,9.141,0.0019984012,-0.002131628,0.0013322675,2.0,3.53,-0.874,9.107,-0.007,-0.005,0.029,0.122906,-0.143374,0.799674,2017-05-01 20:16:29,70.66001102901988
3.517,-0.882,9.139,-0.002664535,0.001065814,3.9968026E-4,2.0,3.53,-0.875,9.107,-0.009,0.004,0.032,0.122871,-0.143424,0.799554,2017-05-01 20:16:30,69.88774783055719
3.519,-0.874,9.146,7.993605E-4,-7.993605E-4,-0.0035971224,2.0,3.53,-0.872,9.107,-0.007,-0.003,0.035,0.122892,-0.143345,0.799417,2017-05-01 20:16:31,70.20323509252277
3.524,-0.873,9.14,-9.3258725E-4,-7.993605E-4,-2.664535E-4,2.0,3.529,-0.873,9.107,-0.005,-0.001,0.028,0.122831,-0.143364,0.799359,2017-05-01 20:16:32,70.29744091110024
3.527,-0.88,9.142,-0.0019984012,-6.6613377E-4,-3.9968026E-4,2.0,3.529,-0.873,9.107,-0.001,-0.005,0.032,0.122801,-0.143363,0.799304,2017-05-01 20:16:33,70.5625503571401
3.53,-0.879,9.137,2.664535E-4,2.664535E-4,0.0027977617,2.0,3.528,-0.873,9.107,0.001,-0.006,0.029,0.122739,-0.143379,0.799237,2017-05-01 20:16:34,64.14837663581913
3.524,-0.874,9.14,-0.0022648547,-0.0018651745,-2.664535E-4,2.0,3.528,-0.872,9.108,-0.004,-0.003,0.027,0.122737,-0.143318,0.799171,2017-05-01 20:16:35,60.63346486912239
3.529,-0.88,9.149,0.0,0.001065814,-6.6613377E-4,2.0,3.527,-0.873,9.108,-0.004,-0.003,0.04,0.122675,-0.143323,0.799142,2017-05-01 20:16:36,69.46864985277679
3.518,-0.873,9.149,1.3322676E-4,-0.0019984012,0.0023980816,2.0,3.526,-0.873,9.108,-0.006,0.002,0.038,0.122615,-0.143339,0.799043,2017-05-01 20:16:37,68.88124918320018
3.528,-0.876,9.143,-0.0018651745,0.0011990408,6.6613377E-4,2.0,3.526,-0.872,9.108,0.003,-0.001,0.025,0.122608,-0.143335,0.798965,2017-05-01 20:16:38,70.90818128857424
3.527,-0.87,9.148,-1.3322676E-4,-0.0018651745,-0.0014654943,2.0,3.526,-0.871,9.109,-0.002,-0.003,0.032,0.122594,-0.143288,0.798905,2017-05-01 20:16:39,70.27279915253811
3.529,-0.874,9.145,-0.0013322675,0.0014654943,-5.32907E-4,2.0,3.526,-0.872,9.109,0.002,0.001,0.03,0.122567,-0.143318,0.798819,2017-05-01 20:16:40,69.27166689165907
3.524,-0.876,9.143,0.0018651745,5.32907E-4,-5.32907E-4,2.0,3.525,-0.872,9.109,-0.004,-0.005,0.036,0.122531,-0.143323,0.798737,2017-05-01 20:16:41,62.36129627279421
3.524,-0.881,9.146,9.3258725E-4,-9.3258725E-4,-0.002664535,2.0,3.524,-0.872,9.109,0.002,-0.004,0.038,0.12245,-0.143303,0.798664,2017-05-01 20:16:42,68.27617592322201
3.514,-0.879,9.139,-6.6613377E-4,0.0,1.3322676E-4,2.0,3.523,-0.873,9.11,-0.01,-0.004,0.025,0.122363,-0.143322,0.798603,2017-05-01 20:16:43,71.06808719444405
3.527,-0.871,9.149,0.0022648547,-9.3258725E-4,0.001598721,2.0,3.523,-0.872,9.11,-0.007,-0.007,0.03,0.122338,-0.143333,0.79851,2017-05-01 20:16:44,71.30453154902098
3.516,-0.877,9.146,2.664535E-4,0.0014654943,0.0038635759,2.0,3.524,-0.872,9.109,-0.007,-0.003,0.039,0.12237,-0.143386,0.798429,2017-05-01 20:16:46,70.92695633298943
3.527,-0.875,9.151,0.003330669,-0.004263256,5.32907E-4,2.0,3.525,-0.872,9.109,-0.003,-0.004,0.036,0.122434,-0.14341,0.798348,2017-05-01 20:16:47,70.00902246902002
3.521,-0.891,9.16,0.002664535,2.664535E-4,-0.0025313082,2.0,3.522,-0.873,9.11,0.001,0.004,0.038,0.122275,-0.143368,0.798416,2017-05-01 20:16:48,71.13721326877047
3.518,-0.874,9.146,0.0030642152,0.001598721,-0.0014654943,2.0,3.526,-0.871,9.109,-0.009,-0.004,0.037,0.122463,-0.143413,0.798253,2017-05-01 20:16:49,64.76819857302863
3.512,-0.885,9.132,0.0022648547,-1.3322676E-4,3.9968026E-4,2.0,3.525,-0.87,9.109,-0.008,-0.013,0.026,0.122432,-0.143349,0.798209,2017-05-01 20:16:50,50.20375663088607
3.521,-0.877,9.145,-0.0013322675,-9.3258725E-4,-0.0018651745,2.0,3.525,-0.87,9.109,-0.003,-0.001,0.033,0.122395,-0.143409,0.79806,2017-05-01 20:16:51,68.85674734221227
3.511,-0.885,9.145,0.0119904075,-0.013855582,-0.0029309886,2.0,3.525,-0.867,9.109,-0.015,-0.023,0.038,0.122434,-0.14331,0.797907,2017-05-01 20:16:52,69.61842812435961
3.52,-0.877,9.136,-0.001598721,-0.0011990408,5.32907E-4,2.0,3.523,-0.862,9.11,-0.003,-0.016,0.03,0.122501,-0.143051,0.797809,2017-05-01 20:16:53,68.70938497537492
3.516,-0.873,9.143,0.0,-5.32907E-4,0.0017319478,2.0,3.522,-0.863,9.111,-0.014,-0.012,0.031,0.1224,-0.143066,0.797712,2017-05-01 20:16:54,71.36549185988201
3.519,-0.87,9.143,-0.0017319478,0.003330669,-5.32907E-4,2.0,3.522,-0.864,9.111,-0.001,-0.006,0.032,0.122313,-0.143123,0.797613,2017-05-01 20:16:55,71.41256536526774
3.516,-0.882,9.14,7.993605E-4,-0.0013322675,2.664535E-4,2.0,3.523,-0.858,9.111,-0.008,-0.022,0.028,0.122503,-0.142935,0.797419,2017-05-01 20:16:56,65.33557068788107
3.515,-0.882,9.146,0.0017319478,0.003197442,0.0011990408,2.0,3.523,-0.858,9.111,-0.006,-0.015,0.034,0.122475,-0.142974,0.797286,2017-05-01 20:16:57,43.45963387037604
3.51,-0.89,9.154,5.32907E-4,-2.664535E-4,6.6613377E-4,2.0,3.524,-0.855,9.111,-0.008,-0.031,0.043,0.122552,-0.142928,0.797076,2017-05-01 20:16:58,68.89877031510613
3.526,-0.882,9.143,0.001065814,-6.6613377E-4,3.9968026E-4,2.0,3.525,-0.855,9.11,-0.003,-0.026,0.032,0.122596,-0.142974,0.797016,2017-05-01 20:16:59,69.66084550727008
3.519,-0.878,9.15,-0.0029309886,-6.6613377E-4,-2.664535E-4,2.0,3.525,-0.854,9.111,-0.01,-0.014,0.037,0.122576,-0.142971,0.796911,2017-05-01 20:17:00,69.82921724854627
3.519,-0.877,9.147,-2.664535E-4,0.0018651745,3.9968026E-4,2.0,3.529,-0.849,9.109,-0.011,-0.027,0.035,0.122868,-0.142935,0.796749,2017-05-01 20:17:01,61.00485490337612
3.519,-0.883,9.156,2.664535E-4,-0.0027977617,0.0013322675,2.0,3.528,-0.851,9.11,-0.011,-0.031,0.039,0.122766,-0.142979,0.796704,2017-05-01 20:17:02,67.10636052622593
3.531,-0.868,9.139,-1.3322676E-4,-0.0034638955,-9.3258725E-4,2.0,3.539,-0.839,9.106,-0.009,-0.028,0.034,0.123582,-0.142827,0.796576,2017-05-01 20:17:03,67.65294708752778
3.537,-0.872,9.146,0.0,1.3322676E-4,0.001598721,2.0,3.528,-0.85,9.11,0.006,-0.017,0.03,0.122768,-0.142959,0.796611,2017-05-01 20:17:04,69.45452312776835
3.532,-0.862,9.15,0.0050626164,-0.0018651745,-0.0017319478,2.0,3.535,-0.844,9.107,-0.003,-0.02,0.041,0.123258,-0.14292,0.796533,2017-05-01 20:17:05,68.75108857677608
3.532,-0.863,9.144,6.6613377E-4,-3.9968026E-4,3.9968026E-4,2.0,3.533,-0.846,9.108,-0.001,-0.016,0.034,0.123056,-0.14297,0.796471,2017-05-01 20:17:06,66.54390933982737
3.53,-0.867,9.145,-1.3322676E-4,0.0013322675,-0.001065814,2.0,3.534,-0.845,9.108,0.001,-0.019,0.035,0.123131,-0.142972,0.796387,2017-05-01 20:17:07,64.6915412210407
3.525,-0.87,9.14,0.001065814,-0.004263256,-0.001598721,2.0,3.534,-0.846,9.108,-0.01,-0.027,0.031,0.123099,-0.143002,0.796358,2017-05-01 20:17:08,69.54895484383621
3.53,-0.868,9.151,0.003330669,-6.6613377E-4,5.32907E-4,2.0,3.533,-0.847,9.108,-0.009,-0.02,0.037,0.123012,-0.143037,0.796319,2017-05-01 20:17:09,71.33500973056361
3.532,-0.866,9.141,-0.0025313082,0.006927791,6.6613377E-4,2.0,3.532,-0.847,9.109,0.002,-0.017,0.035,0.12295,-0.142982,0.79631,2017-05-01 20:17:10,69.30205606047627
3.524,-0.871,9.155,6.6613377E-4,0.002664535,-3.9968026E-4,2.0,3.531,-0.847,9.109,-0.005,-0.022,0.044,0.122902,-0.143011,0.796266,2017-05-01 20:17:11,66.65007199505585
3.527,-0.869,9.149,-0.0014654943,7.993605E-4,0.0014654943,2.0,3.529,-0.85,9.109,-0.006,-0.024,0.044,0.122716,-0.143078,0.796252,2017-05-01 20:17:12,66.35839849382579
3.52,-0.877,9.152,0.0045297095,-0.0014654943,-0.0014654943,2.0,3.528,-0.851,9.11,-0.009,-0.027,0.043,0.122631,-0.143069,0.796223,2017-05-01 20:17:13,67.53429549415873
4.071,-0.635,8.954,-0.26978418,0.061017852,-0.6309619,2.0,3.53,-0.853,9.109,0.317,0.124,-0.082,0.121223,-0.144458,0.79037,2017-05-01 20:17:14,71.00314341437648
3.492,-0.876,9.152,-7.993605E-4,-5.32907E-4,0.0014654943,2.0,3.503,-0.864,9.118,-0.006,-0.014,0.027,0.11986,-0.143947,0.79112,2017-05-01 20:17:15,66.478921406539
3.494,-0.874,9.157,0.0,0.0014654943,7.993605E-4,2.0,3.502,-0.862,9.118,-0.005,-0.013,0.038,0.119858,-0.143855,0.791004,2017-05-01 20:17:16,62.48832798992267
3.497,-0.867,9.153,0.0019984012,0.001065814,-6.6613377E-4,2.0,3.501,-0.863,9.119,-0.004,-0.004,0.03,0.119757,-0.143826,0.790979,2017-05-01 20:17:17,70.39979469991556
3.505,-0.876,9.154,-9.3258725E-4,-0.0011990408,1.3322676E-4,2.0,3.501,-0.863,9.119,-0.006,-0.009,0.029,0.119748,-0.143855,0.790879,2017-05-01 20:17:18,66.51050997533578
3.496,-0.873,9.152,0.0011990408,3.9968026E-4,0.0025313082,2.0,3.501,-0.863,9.119,-0.01,-0.014,0.032,0.119728,-0.143907,0.790786,2017-05-01 20:17:19,64.29672089031925
3.501,-0.87,9.157,-0.0019984012,-1.3322676E-4,0.0017319478,2.0,3.503,-0.863,9.118,-0.003,-0.006,0.042,0.119794,-0.143986,0.7907,2017-05-01 20:17:20,65.52592390079062
3.497,-0.878,9.15,0.0,0.0017319478,5.32907E-4,2.0,3.504,-0.862,9.118,-0.013,-0.011,0.041,0.11985,-0.143958,0.790697,2017-05-01 20:17:21,69.74303782904946
3.497,-0.874,9.15,9.3258725E-4,-9.3258725E-4,-5.32907E-4,2.0,3.503,-0.862,9.118,-0.013,-0.015,0.031,0.119776,-0.143949,0.790666,2017-05-01 20:17:22,67.75468777437504
3.488,-0.879,9.155,3.9968026E-4,0.0,3.9968026E-4,2.0,3.501,-0.864,9.119,-0.011,-0.015,0.035,0.119664,-0.143987,0.790652,2017-05-01 20:17:23,69.54434858797879
3.487,-0.879,9.155,9.3258725E-4,-0.003330669,-3.9968026E-4,2.0,3.5,-0.863,9.119,-0.01,-0.014,0.036,0.119633,-0.14392,0.790596,2017-05-01 20:17:24,62.72425907602468
3.496,-0.876,9.157,-1.3322676E-4,-0.0027977617,-0.0034638955,2.0,3.502,-0.864,9.119,-0.011,-0.016,0.044,0.119659,-0.144006,0.790571,2017-05-01 20:17:25,51.655952016957485
3.487,-0.877,9.162,-0.006661338,0.008792966,0.003197442,2.0,3.5,-0.865,9.119,-0.015,-0.009,0.035,0.119549,-0.143994,0.790553,2017-05-01 20:17:26,67.23317155525636
3.481,-0.882,9.157,-0.0011990408,0.004130029,0.0014654943,2.0,3.504,-0.861,9.118,-0.023,-0.023,0.037,0.119833,-0.143953,0.790453,2017-05-01 20:17:27,69.84160064212689
3.485,-0.882,9.161,0.0023980816,-0.0018651745,0.001598721,2.0,3.505,-0.859,9.118,-0.021,-0.023,0.041,0.11992,-0.143894,0.790442,2017-05-01 20:17:28,69.98106801654303
3.492,-0.879,9.153,-0.0018651745,0.0017319478,0.0023980816,2.0,3.502,-0.859,9.119,-0.014,-0.019,0.033,0.119803,-0.143847,0.790418,2017-05-01 20:17:29,61.69545643909463
3.488,-0.871,9.16,-0.02131628,0.022515321,0.0022648547,2.0,3.502,-0.859,9.119,-0.02,-0.019,0.046,0.119796,-0.143842,0.790358,2017-05-01 20:17:30,59.26800873414002
3.487,-0.881,9.158,6.6613377E-4,0.0022648547,7.993605E-4,2.0,3.509,-0.85,9.117,-0.02,-0.025,0.037,0.120313,-0.143737,0.790178,2017-05-01 20:17:31,70.011828831668
3.482,-0.886,9.161,0.003730349,-0.002664535,-3.9968026E-4,2.0,3.502,-0.856,9.119,-0.02,-0.03,0.047,0.119818,-0.143776,0.790165,2017-05-01 20:17:32,71.45938724777393
3.473,-0.885,9.159,0.0018651745,-0.0070610177,-1.3322676E-4,2.0,3.502,-0.855,9.119,-0.013,-0.023,0.035,0.11981,-0.143746,0.79009,2017-05-01 20:17:33,65.63230256476041
3.491,-0.878,9.164,-0.0019984012,-7.993605E-4,-6.6613377E-4,2.0,3.503,-0.859,9.118,-0.012,-0.02,0.044,0.119797,-0.143906,0.790168,2017-05-01 20:17:34,69.23362681126251
3.493,-0.877,9.158,0.0019984012,0.0,-1.3322676E-4,2.0,3.502,-0.858,9.119,-0.009,-0.02,0.037,0.119748,-0.143876,0.790101,2017-05-01 20:17:35,70.2460048158779
3.494,-0.878,9.158,-9.3258725E-4,0.002131628,5.32907E-4,2.0,3.502,-0.859,9.119,-0.008,-0.013,0.045,0.119689,-0.143908,0.790063,2017-05-01 20:17:36,63.990245548722584
3.517,-0.871,9.145,-0.0027977617,0.004130029,0.0018651745,2.0,3.513,-0.854,9.115,-0.032,0.011,0.045,0.120267,-0.144093,0.789733,2017-05-01 20:17:37,69.80121324657884
3.491,-0.88,9.165,0.0027977617,0.007993605,0.001598721,2.0,3.505,-0.864,9.117,-0.015,-0.017,0.043,0.119357,-0.144502,0.788617,2017-05-01 20:17:38,67.94985369065779
3.499,-0.874,9.155,0.0,-6.6613377E-4,-1.3322676E-4,2.0,3.503,-0.866,9.118,-0.006,-0.004,0.038,0.119198,-0.144519,0.788687,2017-05-01 20:17:39,67.31365358254128
3.494,-0.869,9.162,1.3322676E-4,6.6613377E-4,-6.6613377E-4,2.0,3.504,-0.865,9.118,-0.01,-0.004,0.041,0.119255,-0.144496,0.788644,2017-05-01 20:17:40,67.10147584247247
3.503,-0.868,9.163,-0.0018651745,0.0011990408,7.993605E-4,2.0,3.503,-0.866,9.118,-0.001,-0.003,0.042,0.119183,-0.144509,0.788601,2017-05-01 20:17:41,64.79158306920792
3.502,-0.872,9.157,-2.664535E-4,1.3322676E-4,5.32907E-4,2.0,3.502,-0.864,9.118,-0.004,-0.003,0.041,0.119187,-0.14441,0.788606,2017-05-01 20:17:42,70.54188678226018
3.493,-0.87,9.153,-9.3258725E-4,0.0,-2.664535E-4,2.0,3.501,-0.864,9.119,-0.013,-0.008,0.038,0.119108,-0.144406,0.788546,2017-05-01 20:17:43,70.27005746869433
3.499,-0.88,9.162,-9.3258725E-4,-9.3258725E-4,-5.32907E-4,2.0,3.501,-0.866,9.119,-0.004,-0.013,0.043,0.11908,-0.144478,0.788519,2017-05-01 20:17:44,63.79277955287459
3.495,-0.863,9.158,-6.6613377E-4,0.002131628,5.32907E-4,2.0,3.501,-0.865,9.119,-0.004,-0.004,0.044,0.119074,-0.144473,0.788478,2017-05-01 20:17:45,69.96585857271582
3.491,-0.875,9.161,0.0034638955,0.001065814,-0.003330669,2.0,3.501,-0.863,9.119,-0.011,-0.012,0.053,0.119153,-0.144396,0.788447,2017-05-01 20:17:46,68.499153463245
3.494,-0.876,9.154,-0.0029309886,0.0023980816,0.0017319478,2.0,3.501,-0.866,9.119,-0.003,-0.009,0.037,0.119028,-0.144486,0.788437,2017-05-01 20:17:47,68.55748480869768
3.491,-0.873,9.163,0.0017319478,0.0018651745,-3.9968026E-4,2.0,3.502,-0.863,9.118,-0.014,-0.004,0.038,0.119192,-0.144421,0.78843,2017-05-01 20:17:48,69.059371379735
3.496,-0.879,9.169,-0.001598721,7.993605E-4,-0.0014654943,2.0,3.503,-0.861,9.118,-0.009,-0.014,0.045,0.119244,-0.144365,0.78837,2017-05-01 20:17:49,64.16602747211809
3.475,-0.88,9.163,-0.0017319478,0.0019984012,0.0034638955,2.0,3.502,-0.861,9.119,-0.025,-0.018,0.038,0.119186,-0.144351,0.788253,2017-05-01 20:17:50,59.24518063692945
3.485,-0.877,9.162,1.3322676E-4,-9.3258725E-4,-0.0014654943,2.0,3.502,-0.861,9.119,-0.017,-0.019,0.041,0.119197,-0.144322,0.7883,2017-05-01 20:17:51,65.90479503662729
3.489,-0.872,9.164,6.6613377E-4,0.0013322675,-3.9968026E-4,2.0,3.504,-0.858,9.118,-0.014,-0.016,0.048,0.119378,-0.144302,0.788235,2017-05-01 20:17:52,67.93117591715648
3.492,-0.882,9.155,9.3258725E-4,0.0,-0.0025313082,2.0,3.502,-0.859,9.119,-0.011,-0.023,0.038,0.119261,-0.144287,0.7882,2017-05-01 20:17:53,68.04452509368573
3.485,-0.875,9.167,0.0017319478,0.0018651745,-2.664535E-4,2.0,3.502,-0.859,9.119,-0.018,-0.021,0.04,0.119253,-0.144307,0.788122,2017-05-01 20:17:54,68.47810401516708
3.489,-0.874,9.164,0.0,-0.0023980816,-2.664535E-4,2.0,3.501,-0.859,9.119,-0.011,-0.019,0.043,0.119174,-0.144286,0.788047,2017-05-01 20:17:55,65.6250339122607
3.489,-0.877,9.174,0.0,9.3258725E-4,-2.664535E-4,2.0,3.5,-0.859,9.12,-0.01,-0.015,0.054,0.119108,-0.144285,0.788017,2017-05-01 20:17:56,58.0540347551858
3.482,-0.874,9.158,6.6613377E-4,-3.9968026E-4,5.32907E-4,2.0,3.504,-0.857,9.118,-0.019,-0.024,0.039,0.11932,-0.144297,0.787932,2017-05-01 20:17:57,68.97534657676927
3.489,-0.876,9.163,7.993605E-4,0.0011990408,2.664535E-4,2.0,3.504,-0.856,9.119,-0.014,-0.016,0.046,0.119337,-0.144278,0.787905,2017-05-01 20:17:58,69.10242960089519
3.492,-0.879,9.156,9.3258725E-4,-7.993605E-4,-2.664535E-4,2.0,3.508,-0.852,9.117,-0.018,-0.024,0.038,0.119592,-0.144269,0.787765,2017-05-01 20:17:59,66.13427765952564
3.491,-0.87,9.151,0.018252065,-0.002664535,-0.0067945644,2.0,3.51,-0.851,9.117,-0.025,-0.019,0.045,0.119695,-0.144318,0.78764,2017-05-01 20:18:00,65.5660867704297
3.487,-0.885,9.169,-0.0029309886,0.014122035,5.32907E-4,2.0,3.516,-0.848,9.115,-0.037,-0.032,0.056,0.119992,-0.144411,0.78747,2017-05-01 20:18:01,69.78990119189245
3.493,-0.876,9.163,-7.993605E-4,-0.0027977617,0.001598721,2.0,3.515,-0.849,9.115,-0.023,-0.023,0.048,0.119948,-0.144442,0.787434,2017-05-01 20:18:02,47.068187084800044
3.487,-0.868,9.161,-0.0023980816,0.0034638955,-0.0013322675,2.0,3.514,-0.849,9.115,-0.025,-0.025,0.059,0.119883,-0.144414,0.787359,2017-05-01 20:18:03,69.04184216514635
3.494,-0.872,9.16,-1.3322676E-4,-0.0014654943,0.001598721,2.0,3.515,-0.849,9.115,-0.02,-0.023,0.043,0.11991,-0.144445,0.787372,2017-05-01 20:18:04,70.39085746105857
3.494,-0.875,9.162,0.0,1.3322676E-4,0.002664535,2.0,3.513,-0.851,9.115,-0.022,-0.022,0.045,0.119797,-0.144473,0.787336,2017-05-01 20:18:05,69.03780666091127
3.491,-0.88,9.166,-0.006661338,0.001598721,-1.3322676E-4,2.0,3.512,-0.849,9.116,-0.025,-0.026,0.044,0.119745,-0.144372,0.787271,2017-05-01 20:18:06,70.05024468419464
3.492,-0.871,9.167,0.004396483,-0.01598721,-3.9968026E-4,2.0,3.509,-0.851,9.117,-0.015,-0.019,0.041,0.119592,-0.144372,0.787299,2017-05-01 20:18:07,67.15569773400217
3.502,-0.869,9.155,-0.0017319478,0.0029309886,0.0018651745,2.0,3.512,-0.848,9.116,-0.012,-0.019,0.038,0.119776,-0.144335,0.787255,2017-05-01 20:18:08,66.35469962197602
3.502,-0.878,9.161,0.00492939,0.003197442,-0.0023980816,2.0,3.508,-0.852,9.117,-0.011,-0.021,0.037,0.119488,-0.144345,0.787252,2017-05-01 20:18:09,68.29051651375208
3.394,-0.824,9.194,0.024114043,-0.08046896,-0.0062616575,2.0,3.501,-0.849,9.12,-0.073,0.021,0.039,0.120658,-0.142871,0.792981,2017-05-01 20:18:10,61.12794510449115
3.494,-0.868,9.162,-0.0011990408,2.664535E-4,3.9968026E-4,2.0,3.498,-0.853,9.121,-0.002,-0.011,0.04,0.119896,-0.143362,0.790865,2017-05-01 20:18:11,59.65052541996231
3.505,-0.874,9.161,-0.0013322675,1.3322676E-4,5.32907E-4,2.0,3.498,-0.852,9.121,-0.003,-0.019,0.041,0.119922,-0.143324,0.790897,2017-05-01 20:18:12,67.9373780118349
3.493,-0.866,9.163,0.0,0.0022648547,0.0,2.0,3.497,-0.853,9.121,-0.003,-0.016,0.037,0.119859,-0.143352,0.790843,2017-05-01 20:18:13,66.14799311321708
3.498,-0.874,9.167,-7.993605E-4,2.664535E-4,5.32907E-4,2.0,3.497,-0.854,9.121,-0.007,-0.02,0.044,0.119828,-0.143394,0.790846,2017-05-01 20:18:14,68.19713315268892
3.496,-0.869,9.164,7.993605E-4,-9.3258725E-4,5.32907E-4,2.0,3.495,-0.854,9.122,0.003,-0.017,0.038,0.119753,-0.143332,0.790811,2017-05-01 20:18:15,67.9774878375206
3.498,-0.871,9.169,-0.001598721,9.3258725E-4,6.6613377E-4,2.0,3.495,-0.855,9.122,0.001,-0.018,0.043,0.119677,-0.143394,0.790786,2017-05-01 20:18:16,71.41025311067469
3.499,-0.86,9.152,-0.002664535,0.0013322675,-5.32907E-4,2.0,3.495,-0.854,9.122,0.003,-0.007,0.025,0.119694,-0.143348,0.790798,2017-05-01 20:18:17,63.252043099826516
3.5,-0.867,9.153,-0.003197442,0.0,0.0017319478,2.0,3.494,-0.855,9.122,0.004,-0.014,0.035,0.119615,-0.143363,0.790741,2017-05-01 20:18:18,64.84666967216616
3.497,-0.869,9.163,0.0019984012,9.3258725E-4,3.9968026E-4,2.0,3.493,-0.856,9.123,0.007,-0.012,0.04,0.119547,-0.143366,0.79073,2017-05-01 20:18:19,70.56995349351598
3.485,-0.873,9.163,-0.0022648547,0.0013322675,-2.664535E-4,2.0,3.494,-0.856,9.122,-0.007,-0.015,0.039,0.119593,-0.143405,0.79068,2017-05-01 20:18:20,69.93037274884111
3.496,-0.875,9.155,0.0,0.0,-0.0023980816,2.0,3.493,-0.856,9.123,0.005,-0.018,0.034,0.119516,-0.143397,0.790673,2017-05-01 20:18:21,66.25442006270013
3.503,-0.865,9.169,0.0011990408,-9.3258725E-4,-5.32907E-4,2.0,3.493,-0.858,9.123,0.004,-0.005,0.043,0.119456,-0.143451,0.790632,2017-05-01 20:18:22,68.69135213888929
3.502,-0.873,9.164,-6.6613377E-4,-5.32907E-4,-2.664535E-4,2.0,3.493,-0.858,9.123,0.008,-0.012,0.04,0.119442,-0.143481,0.790609,2017-05-01 20:18:23,67.94805657895681
3.502,-0.871,9.151,-1.3322676E-4,-5.32907E-4,-0.0013322675,2.0,3.493,-0.857,9.123,0.005,-0.012,0.03,0.11947,-0.143427,0.790589,2017-05-01 20:18:24,70.04019050930141
3.494,-0.868,9.163,0.0,0.0011990408,3.9968026E-4,2.0,3.491,-0.862,9.123,0.001,-0.008,0.045,0.11907,-0.143715,0.789867,2017-05-01 20:18:25,67.08418327504305
3.496,-0.867,9.16,0.0,-9.3258725E-4,0.0014654943,2.0,3.491,-0.861,9.123,0.005,-0.005,0.033,0.119078,-0.143676,0.789835,2017-05-01 20:18:26,68.08515984721745
3.494,-0.876,9.164,0.0,-5.32907E-4,-0.0017319478,2.0,3.495,-0.859,9.122,0.003,-0.016,0.039,0.119308,-0.143767,0.789778,2017-05-01 20:18:27,69.123162964187
3.494,-0.875,9.165,-5.32907E-4,2.664535E-4,6.6613377E-4,2.0,3.494,-0.858,9.122,-0.004,-0.013,0.043,0.119296,-0.14372,0.789728,2017-05-01 20:18:28,68.93564080645655
3.495,-0.87,9.158,-9.3258725E-4,-0.0022648547,0.0017319478,2.0,3.493,-0.86,9.122,0.004,-0.008,0.037,0.119179,-0.143736,0.789726,2017-05-01 20:18:29,70.55505872089262
3.493,-0.876,9.163,0.0022648547,-9.3258725E-4,-2.664535E-4,2.0,3.493,-0.86,9.122,0.003,-0.007,0.033,0.119158,-0.143764,0.789693,2017-05-01 20:18:30,71.45646650403219
3.495,-0.873,9.164,0.0017319478,-7.993605E-4,3.9968026E-4,2.0,3.493,-0.86,9.122,0.002,-0.012,0.049,0.119166,-0.143748,0.78967,2017-05-01 20:18:31,69.3812471282612
3.493,-0.865,9.164,0.0029309886,-9.3258725E-4,-0.0014654943,2.0,3.492,-0.86,9.123,0.005,-0.006,0.042,0.119135,-0.143736,0.789631,2017-05-01 20:18:32,66.48035500824642
3.494,-0.874,9.163,0.004396483,-0.004130029,9.3258725E-4,2.0,3.49,-0.862,9.123,0.005,-0.008,0.047,0.118946,-0.143783,0.789584,2017-05-01 20:18:33,67.77921107564342
3.484,-0.87,9.164,-9.3258725E-4,2.664535E-4,-0.001598721,2.0,3.492,-0.861,9.123,-0.006,-0.008,0.039,0.119067,-0.143784,0.78959,2017-05-01 20:18:34,64.24754343246363
3.499,-0.869,9.156,-1.3322676E-4,2.664535E-4,-2.664535E-4,2.0,3.491,-0.861,9.123,0.008,-0.008,0.031,0.119016,-0.143757,0.789544,2017-05-01 20:18:35,66.39988312197548
3.49,-0.864,9.158,0.0,1.3322676E-4,0.0017319478,2.0,3.49,-0.861,9.123,-0.004,-0.003,0.046,0.118979,-0.143749,0.789517,2017-05-01 20:18:36,69.27216386257388
3.494,-0.865,9.163,0.0018651745,0.0,-0.0025313082,2.0,3.49,-0.861,9.123,0.009,-0.006,0.04,0.118949,-0.143728,0.789493,2017-05-01 20:18:37,68.9499269969997
3.488,-0.869,9.161,-7.993605E-4,1.3322676E-4,-0.0025313082,2.0,3.49,-0.862,9.123,-0.003,-0.007,0.039,0.118925,-0.143771,0.789435,2017-05-01 20:18:38,63.169538589146526
3.502,-0.869,9.167,-0.0019984012,0.0,-0.001598721,2.0,3.489,-0.862,9.124,-0.001,-0.004,0.037,0.118876,-0.143758,0.78942,2017-05-01 20:18:39,66.3645234900718
3.491,-0.874,9.164,-1.3322676E-4,-7.993605E-4,7.993605E-4,2.0,3.489,-0.861,9.124,0.003,-0.006,0.041,0.118891,-0.143746,0.789349,2017-05-01 20:18:40,66.07955163847758
3.499,-0.881,9.165,-1.3322676E-4,2.664535E-4,0.0029309886,2.0,3.489,-0.861,9.124,0.005,-0.015,0.044,0.118895,-0.143748,0.789267,2017-05-01 20:18:41,67.57192069709751
3.499,-0.864,9.161,-0.0023980816,0.003197442,-1.3322676E-4,2.0,3.489,-0.859,9.124,0.01,-0.007,0.028,0.118907,-0.143703,0.789196,2017-05-01 20:18:42,58.452759840132096
3.498,-0.871,9.169,0.0017319478,-0.001065814,-5.32907E-4,2.0,3.488,-0.86,9.124,0.008,-0.01,0.05,0.11881,-0.143711,0.789173,2017-05-01 20:18:43,69.07530001932868
3.496,-0.867,9.171,0.003197442,0.0011990408,5.32907E-4,2.0,3.488,-0.861,9.124,0.006,-0.006,0.046,0.118765,-0.143763,0.789113,2017-05-01 20:18:44,70.92203744861608
3.491,-0.873,9.163,-1.3322676E-4,0.0,-0.0011990408,2.0,3.487,-0.861,9.124,0.007,-0.01,0.038,0.118744,-0.143734,0.78908,2017-05-01 20:18:45,67.80829492572518
3.494,-0.866,9.168,9.3258725E-4,0.0,-3.9968026E-4,2.0,3.487,-0.861,9.124,0.008,-0.004,0.037,0.118721,-0.143745,0.789054,2017-05-01 20:18:46,65.9939710276025
3.493,-0.873,9.162,5.32907E-4,-5.32907E-4,-0.0011990408,2.0,3.489,-0.859,9.124,0.003,-0.013,0.035,0.118846,-0.143735,0.789021,2017-05-01 20:18:47,69.38825161351404
3.502,-0.874,9.174,-1.3322676E-4,1.3322676E-4,0.001598721,2.0,3.488,-0.86,9.124,0.01,-0.009,0.048,0.118787,-0.143739,0.789017,2017-05-01 20:18:48,68.46981606095692
3.488,-0.867,9.171,0.004130029,1.3322676E-4,-0.0013322675,2.0,3.488,-0.861,9.124,0.004,-0.006,0.046,0.118761,-0.143766,0.789022,2017-05-01 20:18:49,72.17343154681551
3.492,-0.87,9.16,0.0023980816,-0.0022648547,-0.001598721,2.0,3.489,-0.862,9.124,-0.002,-0.008,0.036,0.118769,-0.143841,0.789021,2017-05-01 20:18:50,67.68678492199624
3.497,-0.867,9.164,0.0022648547,-0.002664535,3.9968026E-4,2.0,3.49,-0.861,9.123,-0.002,-0.008,0.034,0.118835,-0.143842,0.789022,2017-05-01 20:18:51,67.6837326570798
3.491,-0.868,9.164,0.0029309886,0.0013322675,-0.0011990408,2.0,3.487,-0.861,9.125,-0.002,-0.007,0.037,0.118694,-0.143731,0.789037,2017-05-01 20:18:52,69.1840168167059
3.486,-0.873,9.17,2.664535E-4,0.0,-5.32907E-4,2.0,3.49,-0.858,9.124,-0.005,-0.015,0.044,0.118906,-0.143722,0.788977,2017-05-01 20:18:53,69.21595470731296
3.48,-0.873,9.16,0.0029309886,-5.32907E-4,6.6613377E-4,2.0,3.489,-0.858,9.124,-0.013,-0.021,0.039,0.11884,-0.143701,0.788953,2017-05-01 20:18:54,67.67144503620062
3.49,-0.874,9.167,0.001598721,-3.9968026E-4,-0.0014654943,2.0,3.487,-0.86,9.125,0.003,-0.017,0.04,0.118722,-0.143703,0.788948,2017-05-01 20:18:55,68.71342690570009
3.483,-0.871,9.164,0.001065814,-0.0050626164,-5.32907E-4,2.0,3.488,-0.855,9.125,-0.008,-0.014,0.038,0.118881,-0.143559,0.788883,2017-05-01 20:18:56,71.27394984762292
3.489,-0.874,9.157,-0.0022648547,0.001065814,0.001598721,2.0,3.487,-0.86,9.125,0.004,-0.013,0.04,0.118724,-0.143697,0.789054,2017-05-01 20:18:57,59.50126982290823
3.482,-0.875,9.17,-0.0075939246,0.019850787,0.0023980816,2.0,3.487,-0.86,9.125,-0.005,-0.006,0.038,0.118715,-0.143699,0.788993,2017-05-01 20:18:58,68.6855287986852
3.478,-0.876,9.16,0.0022648547,-0.004130029,3.9968026E-4,2.0,3.489,-0.857,9.124,-0.014,-0.02,0.042,0.118928,-0.143664,0.788937,2017-05-01 20:18:59,69.75468206007534
3.485,-0.868,9.173,-0.0014654943,0.003330669,-2.664535E-4,2.0,3.488,-0.854,9.125,0.001,-0.016,0.038,0.118944,-0.143509,0.788912,2017-05-01 20:19:00,71.94415503018479
3.496,-0.869,9.172,5.32907E-4,-6.6613377E-4,-0.001065814,2.0,3.487,-0.856,9.125,0.009,-0.01,0.049,0.118834,-0.143567,0.78891,2017-05-01 20:19:01,69.90072910311466
3.49,-0.866,9.179,0.0,0.0,0.0025313082,2.0,3.486,-0.856,9.125,0.004,-0.01,0.049,0.118804,-0.14355,0.788916,2017-05-01 20:19:02,69.02956582725284
3.484,-0.871,9.164,1.3322676E-4,1.3322676E-4,-0.0013322675,2.0,3.486,-0.856,9.125,0.005,-0.016,0.032,0.118785,-0.143558,0.788898,2017-05-01 20:19:03,60.95526408486479
3.49,-0.876,9.17,0.001065814,2.664535E-4,-0.0013322675,2.0,3.486,-0.856,9.125,0.005,-0.021,0.044,0.118792,-0.143559,0.788903,2017-05-01 20:19:04,69.65739377665399
3.487,-0.863,9.157,-0.002131628,-6.6613377E-4,6.6613377E-4,2.0,3.486,-0.856,9.125,0.002,-0.005,0.028,0.118781,-0.143546,0.788907,2017-05-01 20:19:05,66.50348524930453
3.488,-0.87,9.164,-0.0019984012,0.0,0.001598721,2.0,3.485,-0.857,9.126,-0.003,-0.009,0.042,0.118694,-0.143538,0.788907,2017-05-01 20:19:06,66.78529626585222
3.491,-0.865,9.162,-0.0013322675,2.664535E-4,6.6613377E-4,2.0,3.485,-0.857,9.126,0.001,-0.005,0.031,0.118713,-0.143536,0.788879,2017-05-01 20:19:07,67.06547976461204
3.493,-0.867,9.168,0.0,-0.0027977617,-0.0013322675,2.0,3.485,-0.856,9.126,0.002,-0.013,0.043,0.11872,-0.143526,0.788869,2017-05-01 20:19:08,67.62295428366008
3.493,-0.867,9.166,1.3322676E-4,-9.3258725E-4,-5.32907E-4,2.0,3.484,-0.858,9.126,0.008,-0.009,0.033,0.118647,-0.143572,0.788879,2017-05-01 20:19:09,69.76604415104404
3.491,-0.862,9.177,-0.001598721,-0.006661338,0.002131628,2.0,3.484,-0.857,9.126,0.002,-0.004,0.048,0.118647,-0.143544,0.788839,2017-05-01 20:19:10,71.55814665429956
3.492,-0.869,9.158,-7.993605E-4,-0.003197442,-6.6613377E-4,2.0,3.482,-0.859,9.127,0.006,-0.011,0.033,0.118533,-0.143516,0.788984,2017-05-01 20:19:11,65.05497692027812
3.486,-0.868,9.174,3.9968026E-4,-0.0011990408,-1.3322676E-4,2.0,3.483,-0.859,9.126,0.001,-0.005,0.04,0.118532,-0.143557,0.788863,2017-05-01 20:19:12,68.92749431936453
3.49,-0.861,9.163,-0.002664535,0.008260058,2.664535E-4,2.0,3.484,-0.858,9.126,0.006,-0.004,0.04,0.118666,-0.143542,0.788977,2017-05-01 20:19:13,68.50693306245108
3.493,-0.862,9.164,0.0013322675,0.0019984012,-6.6613377E-4,2.0,3.482,-0.861,9.127,0.01,-0.002,0.035,0.118469,-0.143567,0.788976,2017-05-01 20:19:14,65.76112892176207
3.483,-0.862,9.165,-7.993605E-4,0.0,-5.32907E-4,2.0,3.482,-0.86,9.127,0.007,-0.003,0.037,0.118486,-0.143546,0.788971,2017-05-01 20:19:15,69.48807479428858
3.487,-0.86,9.161,0.0038635759,-3.9968026E-4,-0.0035971224,2.0,3.483,-0.858,9.126,0.001,-0.002,0.039,0.118613,-0.143538,0.788946,2017-05-01 20:19:16,67.44840523707155
3.489,-0.865,9.172,-7.993605E-4,0.003330669,0.0014654943,2.0,3.482,-0.86,9.126,0.008,-0.006,0.038,0.118537,-0.143557,0.788964,2017-05-01 20:19:17,68.15081490734448
3.487,-0.864,9.164,-9.3258725E-4,0.0011990408,3.9968026E-4,2.0,3.481,-0.86,9.127,0.004,-0.006,0.042,0.118459,-0.14356,0.788923,2017-05-01 20:19:18,67.58697490039415
3.483,-0.868,9.169,-1.3322676E-4,-6.6613377E-4,0.001598721,2.0,3.481,-0.859,9.127,0.001,-0.005,0.041,0.118486,-0.14353,0.788915,2017-05-01 20:19:19,66.45964016147846
3.488,-0.862,9.163,0.0013322675,1.3322676E-4,5.32907E-4,2.0,3.481,-0.86,9.127,0.003,-0.001,0.035,0.118413,-0.143545,0.788868,2017-05-01 20:19:20,65.99676462443205
3.49,-0.873,9.17,1.3322676E-4,-7.993605E-4,-2.664535E-4,2.0,3.481,-0.86,9.127,0.018,-0.014,0.035,0.118405,-0.14355,0.788856,2017-05-01 20:19:21,69.73632181645921
3.493,-0.87,9.165,0.0,-0.0029309886,-0.0017319478,2.0,3.48,-0.86,9.127,0.009,-0.007,0.036,0.11841,-0.14352,0.78884,2017-05-01 20:19:22,59.68576827362817
3.491,-0.87,9.158,-6.6613377E-4,-0.003330669,-0.001065814,2.0,3.479,-0.861,9.128,0.011,-0.006,0.03,0.118284,-0.143535,0.788786,2017-05-01 20:19:23,57.477452263838494
3.489,-0.858,9.16,-7.993605E-4,-7.993605E-4,-9.3258725E-4,2.0,3.482,-0.856,9.127,0.007,-0.001,0.035,0.11854,-0.143458,0.788659,2017-05-01 20:19:24,69.13778152838988
3.491,-0.866,9.167,0.0011990408,0.0023980816,-0.002664535,2.0,3.48,-0.858,9.127,0.006,-0.005,0.04,0.118426,-0.143476,0.788664,2017-05-01 20:19:25,66.63410949106931
3.484,-0.863,9.155,0.001065814,-0.0017319478,-5.32907E-4,2.0,3.48,-0.858,9.127,0.007,-0.003,0.033,0.118392,-0.143468,0.78865,2017-05-01 20:19:26,66.54229888877606
3.487,-0.862,9.159,0.0,-3.9968026E-4,5.32907E-4,2.0,3.48,-0.857,9.127,0.009,-0.003,0.033,0.118411,-0.143461,0.788627,2017-05-01 20:19:27,62.71339483963185
3.49,-0.869,9.166,-0.003330669,0.0018651745,6.6613377E-4,2.0,3.481,-0.855,9.127,0.012,-0.011,0.046,0.118504,-0.143406,0.788611,2017-05-01 20:19:28,53.72478870050247
3.486,-0.865,9.173,-7.993605E-4,2.664535E-4,-5.32907E-4,2.0,3.481,-0.856,9.127,0.007,-0.009,0.045,0.118484,-0.143442,0.788597,2017-05-01 20:19:29,66.00147123906848
3.488,-0.866,9.167,6.6613377E-4,-0.0019984012,5.32907E-4,2.0,3.479,-0.857,9.128,0.01,-0.01,0.056,0.118352,-0.143428,0.788518,2017-05-01 20:19:30,67.92305973344101
3.487,-0.867,9.176,-0.0019984012,-7.993605E-4,2.664535E-4,2.0,3.479,-0.858,9.128,0.008,-0.005,0.04,0.118298,-0.143487,0.788451,2017-05-01 20:19:31,61.9316753577202
3.485,-0.867,9.166,0.0061284304,0.0,-5.32907E-4,2.0,3.476,-0.857,9.129,0.009,-0.007,0.036,0.118188,-0.143389,0.788346,2017-05-01 20:19:32,62.71062717418529
3.491,-0.87,9.164,0.0,-0.0022648547,-2.664535E-4,2.0,3.474,-0.858,9.13,0.015,-0.006,0.035,0.118045,-0.143362,0.788352,2017-05-01 20:19:33,61.183658851221104
3.488,-0.863,9.176,0.003730349,-0.00532907,-3.9968026E-4,2.0,3.474,-0.858,9.13,0.019,-0.008,0.042,0.118065,-0.143349,0.788309,2017-05-01 20:19:34,64.39518513988408
3.487,-0.864,9.169,0.0014654943,-0.001598721,1.3322676E-4,2.0,3.477,-0.859,9.128,0.01,-0.004,0.038,0.11812,-0.143513,0.788224,2017-05-01 20:19:35,66.95578145001062
3.483,-0.869,9.166,-1.3322676E-4,0.0,0.0013322675,2.0,3.475,-0.86,9.129,0.014,-0.002,0.032,0.118036,-0.143504,0.788238,2017-05-01 20:19:37,60.96934150458515
3.488,-0.86,9.17,-1.3322676E-4,7.993605E-4,-0.0030642152,2.0,3.477,-0.856,9.129,0.013,-0.001,0.043,0.118284,-0.14333,0.788441,2017-05-01 20:19:38,64.78853729044266
3.485,-0.861,9.172,0.0017319478,0.0,-0.0025313082,2.0,3.475,-0.855,9.13,0.009,-0.004,0.047,0.118197,-0.143253,0.788398,2017-05-01 20:19:39,61.42052534876172
3.48,-0.862,9.173,1.3322676E-4,-5.32907E-4,1.3322676E-4,2.0,3.476,-0.857,9.129,0.003,-0.004,0.043,0.118183,-0.143334,0.788418,2017-05-01 20:19:40,69.14179450022202
3.487,-0.86,9.154,0.003197442,-1.3322676E-4,-0.0025313082,2.0,3.474,-0.856,9.13,0.013,-0.005,0.023,0.118131,-0.143284,0.788406,2017-05-01 20:19:41,66.8880922341958
3.489,-0.864,9.17,-0.0030642152,2.664535E-4,-5.32907E-4,2.0,3.475,-0.857,9.129,0.013,-0.006,0.04,0.118171,-0.143328,0.788408,2017-05-01 20:19:42,67.74243105941534
3.488,-0.863,9.16,9.3258725E-4,1.3322676E-4,-0.0025313082,2.0,3.475,-0.856,9.129,0.014,-0.007,0.041,0.118162,-0.1433,0.788393,2017-05-01 20:19:43,67.82810134576924
3.493,-0.857,9.17,0.0,0.002131628,3.9968026E-4,2.0,3.475,-0.856,9.13,0.012,-0.004,0.038,0.118135,-0.143299,0.788395,2017-05-01 20:19:44,66.19065754227283
3.488,-0.859,9.176,9.3258725E-4,0.0025313082,-0.004263256,2.0,3.474,-0.858,9.13,0.012,-0.001,0.051,0.117998,-0.14337,0.788154,2017-05-01 20:19:45,70.67042944918924
3.489,-0.868,9.165,0.0011990408,-0.0018651745,0.0018651745,2.0,3.474,-0.862,9.129,0.016,-0.004,0.033,0.117375,-0.143963,0.786073,2017-05-01 20:19:46,71.02792780504161
3.493,-0.864,9.156,-2.664535E-4,2.664535E-4,-0.0013322675,2.0,3.475,-0.861,9.129,0.011,-0.003,0.027,0.117465,-0.143967,0.786132,2017-05-01 20:19:47,67.1282971663642
3.497,-0.871,9.17,-0.0017319478,0.0022648547,0.0018651745,2.0,3.474,-0.862,9.129,0.019,-0.007,0.037,0.117397,-0.143979,0.786127,2017-05-01 20:19:48,69.99253300375497
3.49,-0.865,9.161,0.0,-1.3322676E-4,0.0,2.0,3.478,-0.863,9.128,0.006,-0.003,0.036,0.1171,-0.144507,0.78422,2017-05-01 20:19:49,61.53413360288452
3.491,-0.856,9.169,0.0018651745,-5.32907E-4,-0.001598721,2.0,3.479,-0.861,9.127,0.013,0.004,0.036,0.117171,-0.144499,0.784133,2017-05-01 20:19:50,42.152401119522
3.491,-0.862,9.173,-0.0014654943,1.3322676E-4,5.32907E-4,2.0,3.479,-0.861,9.128,0.011,-0.001,0.043,0.117146,-0.144466,0.784136,2017-05-01 20:19:51,64.44583548219958
3.478,-0.865,9.149,0.0702105,-0.14148681,-0.026911804,2.0,3.478,-0.862,9.128,0.004,-0.011,0.075,0.117083,-0.144498,0.784033,2017-05-01 20:19:52,67.16913269888573
3.488,-0.865,9.173,0.002131628,-9.3258725E-4,5.32907E-4,2.0,3.484,-0.86,9.126,0.002,-0.001,0.049,0.117372,-0.144601,0.784033,2017-05-01 20:19:53,43.942284753417056
3.49,-0.858,9.163,-9.3258725E-4,-7.993605E-4,-3.9968026E-4,2.0,3.483,-0.859,9.126,0.007,0.002,0.039,0.117371,-0.144563,0.78404,2017-05-01 20:19:54,67.58943177858092
3.488,-0.855,9.166,7.993605E-4,2.664535E-4,0.001598721,2.0,3.485,-0.859,9.126,-0.002,0.002,0.044,0.117427,-0.144594,0.783953,2017-05-01 20:19:55,64.304632298242
3.478,-0.864,9.164,-0.002131628,0.0013322675,6.6613377E-4,2.0,3.485,-0.859,9.126,-0.001,-0.001,0.039,0.117432,-0.144588,0.783928,2017-05-01 20:19:56,70.57521953885902
3.469,-0.868,9.179,0.025579536,-0.041167066,-0.006394884,2.0,3.482,-0.858,9.126,-0.023,-0.012,0.064,0.117305,-0.144538,0.783753,2017-05-01 20:19:57,67.60907711050814
3.411,-0.891,9.175,-0.0023980816,0.00985878,6.6613377E-4,2.0,3.443,-0.872,9.14,-0.262,-0.288,0.132,0.11501,-0.143975,0.783207,2017-05-01 20:19:58,66.28365477065977
3.433,-0.867,9.187,0.0017319478,-0.0029309886,0.0017319478,2.0,3.452,-0.87,9.137,-0.02,-0.003,0.051,0.115465,-0.144159,0.783366,2017-05-01 20:19:59,69.93600321938048
3.436,-0.872,9.186,0.0025313082,-0.004263256,-2.664535E-4,2.0,3.461,-0.866,9.134,-0.021,-0.004,0.052,0.115677,-0.144568,0.781979,2017-05-01 20:20:00,63.052805593419734
3.438,-0.867,9.189,-7.993605E-4,1.3322676E-4,2.664535E-4,2.0,3.46,-0.868,9.134,-0.025,-0.002,0.063,0.11558,-0.14458,0.781946,2017-05-01 20:20:01,43.57532252776725
3.433,-0.873,9.189,-5.32907E-4,9.3258725E-4,5.32907E-4,2.0,3.459,-0.866,9.135,-0.024,-0.002,0.049,0.115572,-0.144481,0.781889,2017-05-01 20:20:02,65.61913377521529
3.438,-0.867,9.185,-9.3258725E-4,0.0013322675,-9.3258725E-4,2.0,3.455,-0.864,9.136,-0.016,-0.003,0.048,0.115527,-0.144232,0.782241,2017-05-01 20:20:03,63.82316704148685
3.444,-0.871,9.188,-2.664535E-4,0.0014654943,0.0014654943,2.0,3.453,-0.865,9.137,-0.014,-0.002,0.053,0.115435,-0.144181,0.78224,2017-05-01 20:20:04,31.48884503882771
3.421,-0.862,9.205,0.0029309886,-0.004396483,-0.0029309886,2.0,3.435,-0.858,9.144,0.082,0.028,0.021,0.118332,-0.140496,0.796645,2017-05-01 20:20:05,47.30675831653918
3.359,-0.888,9.208,0.002664535,-0.012256861,-0.001598721,2.0,3.438,-0.861,9.143,-0.101,-0.037,0.083,0.117303,-0.141557,0.792335,2017-05-01 20:20:06,51.63023822901196
3.42,-0.866,9.195,-0.0030642152,0.0022648547,-0.0013322675,2.0,3.442,-0.854,9.142,-0.028,-0.011,0.047,0.117496,-0.14157,0.791421,2017-05-01 20:20:07,41.15432395306868
3.421,-0.867,9.199,0.0027977617,-0.0050626164,6.6613377E-4,2.0,3.44,-0.853,9.143,-0.016,-0.003,0.054,0.117449,-0.141463,0.791489,2017-05-01 20:20:08,36.160426181365615
3.429,-0.868,9.19,-1.3322676E-4,5.32907E-4,-2.664535E-4,2.0,3.43,-0.865,9.146,-0.001,-0.002,0.049,0.116246,-0.141997,0.789792,2017-05-01 20:20:09,43.197588693438576
3.42,-0.867,9.192,0.0,3.9968026E-4,7.993605E-4,2.0,3.428,-0.867,9.146,-0.007,0.001,0.043,0.11582,-0.142218,0.788757,2017-05-01 20:20:10,38.88486361851739
3.421,-0.861,9.194,-0.0017319478,3.9968026E-4,-0.0014654943,2.0,3.427,-0.868,9.147,0.002,0.008,0.044,0.115777,-0.142206,0.788818,2017-05-01 20:20:11,40.97067043143399
3.423,-0.859,9.186,0.0027977617,-0.0059952037,-1.3322676E-4,2.0,3.426,-0.866,9.147,-0.006,0.009,0.038,0.115805,-0.142101,0.788855,2017-05-01 20:20:12,41.21674144836871
3.432,-0.865,9.188,-0.0013322675,0.001065814,-2.664535E-4,2.0,3.427,-0.867,9.147,-0.002,0.007,0.045,0.11541,-0.142488,0.787191,2017-05-01 20:20:13,51.48712811515729
3.424,-0.871,9.187,0.0,-6.6613377E-4,0.0013322675,2.0,3.427,-0.867,9.147,-0.012,-0.003,0.036,0.115408,-0.142495,0.787254,2017-05-01 20:20:14,43.50223261767659
3.427,-0.866,9.188,7.993605E-4,-0.001065814,0.001598721,2.0,3.425,-0.867,9.147,0.001,-0.001,0.039,0.115357,-0.142422,0.787297,2017-05-01 20:20:15,38.25561953018494
3.421,-0.863,9.198,-0.002131628,-7.993605E-4,-6.6613377E-4,2.0,3.425,-0.867,9.147,-0.003,-0.002,0.042,0.115348,-0.142399,0.787348,2017-05-01 20:20:16,38.80314467378474
3.423,-0.871,9.192,-0.001065814,2.664535E-4,3.9968026E-4,2.0,3.425,-0.867,9.148,-0.001,0.002,0.039,0.115361,-0.142372,0.78741,2017-05-01 20:20:17,41.55305606838592
3.42,-0.87,9.184,0.0,3.9968026E-4,0.0,2.0,3.424,-0.867,9.148,-0.003,-0.002,0.035,0.115337,-0.142354,0.787432,2017-05-01 20:20:18,44.89106475584266
3.424,-0.867,9.199,-0.003330669,0.0014654943,0.0038635759,2.0,3.423,-0.866,9.148,0.001,-0.002,0.04,0.115329,-0.142321,0.787466,2017-05-01 20:20:19,44.927823374827305
3.424,-0.86,9.18,-0.0011990408,-0.003730349,-3.9968026E-4,2.0,3.423,-0.866,9.148,0.002,0.008,0.032,0.115335,-0.14227,0.787546,2017-05-01 20:20:20,45.34828220861855
3.415,-0.869,9.193,0.0,-6.6613377E-4,5.32907E-4,2.0,3.422,-0.866,9.148,-0.006,-0.003,0.044,0.115311,-0.142253,0.787608,2017-05-01 20:20:21,44.064589921101025
3.423,-0.866,9.193,7.993605E-4,0.0013322675,-0.0014654943,2.0,3.421,-0.867,9.149,-0.001,0.007,0.038,0.115284,-0.142222,0.787676,2017-05-01 20:20:22,41.4397076900784
3.421,-0.867,9.194,2.664535E-4,-5.32907E-4,-5.32907E-4,2.0,3.421,-0.867,9.149,-0.001,0.002,0.049,0.11528,-0.142218,0.787745,2017-05-01 20:20:23,42.553035940279045
3.418,-0.873,9.191,-0.0075939246,-0.0027977617,0.002664535,2.0,3.42,-0.866,9.149,0.003,-0.001,0.038,0.115292,-0.142136,0.787789,2017-05-01 20:20:24,45.62730122516244
3.43,-0.857,9.198,-0.0011990408,-6.6613377E-4,1.3322676E-4,2.0,3.42,-0.866,9.149,-0.002,0.004,0.049,0.115261,-0.142109,0.787875,2017-05-01 20:20:25,37.02209039400665
3.415,-0.87,9.191,1.3322676E-4,1.3322676E-4,-5.32907E-4,2.0,3.419,-0.866,9.15,-0.001,-0.003,0.037,0.115246,-0.142096,0.787908,2017-05-01 20:20:26,28.181279105446364
3.415,-0.862,9.19,9.3258725E-4,2.664535E-4,-9.3258725E-4,2.0,3.418,-0.866,9.15,-0.001,0.001,0.034,0.115228,-0.142062,0.787988,2017-05-01 20:20:27,44.7960277772159
3.412,-0.871,9.191,0.0018651745,-3.9968026E-4,5.32907E-4,2.0,3.419,-0.866,9.15,0.001,0.001,0.039,0.11529,-0.142054,0.788027,2017-05-01 20:20:28,48.752134433702984
3.421,-0.86,9.188,-0.0022648547,-9.3258725E-4,-6.6613377E-4,2.0,3.417,-0.866,9.15,0.005,0.008,0.035,0.115217,-0.141994,0.788114,2017-05-01 20:20:29,36.40094465272858
3.422,-0.862,9.188,-9.3258725E-4,0.003330669,0.0014654943,2.0,3.417,-0.866,9.15,0.002,0.005,0.036,0.115216,-0.141984,0.788118,2017-05-01 20:20:30,40.608823099421784
3.418,-0.865,9.184,-0.003197442,3.9968026E-4,6.6613377E-4,2.0,3.418,-0.866,9.15,0.005,0.002,0.036,0.115254,-0.141978,0.788135,2017-05-01 20:20:31,42.8228423759191
3.424,-0.863,9.176,-0.0011990408,0.0025313082,0.0,2.0,3.417,-0.865,9.15,0.008,0.01,0.026,0.115271,-0.141926,0.788233,2017-05-01 20:20:32,40.0109497876732
3.417,-0.86,9.196,0.0,0.0,-5.32907E-4,2.0,3.416,-0.867,9.151,0.002,0.006,0.04,0.115177,-0.141966,0.788233,2017-05-01 20:20:33,39.96359143283751
3.417,-0.868,9.198,-1.3322676E-4,-0.0023980816,1.3322676E-4,2.0,3.417,-0.865,9.15,-0.002,-0.002,0.046,0.115304,-0.141903,0.788333,2017-05-01 20:20:34,36.4421661733438
3.417,-0.866,9.194,5.32907E-4,-0.002131628,2.664535E-4,2.0,3.415,-0.867,9.151,0.003,0.003,0.041,0.11516,-0.141895,0.788363,2017-05-01 20:20:35,45.82531076019565
3.414,-0.862,9.188,0.003330669,-0.013322676,-0.0035971224,2.0,3.415,-0.866,9.151,0.002,0.001,0.049,0.115183,-0.141873,0.788376,2017-05-01 20:20:36,39.60406156632088
3.421,-0.865,9.188,-9.3258725E-4,-0.0019984012,-3.9968026E-4,2.0,3.416,-0.863,9.151,0.004,-0.004,0.032,0.115328,-0.141745,0.78842,2017-05-01 20:20:37,40.31841516986261
3.411,-0.862,9.194,-0.0019984012,-7.993605E-4,0.001598721,2.0,3.416,-0.863,9.151,-0.002,0.004,0.047,0.115323,-0.141734,0.788445,2017-05-01 20:20:38,46.23406886421712
3.412,-0.865,9.193,0.0,-0.0061284304,-3.9968026E-4,2.0,3.415,-0.863,9.151,-0.006,-0.006,0.048,0.11529,-0.141735,0.788497,2017-05-01 20:20:39,44.83454602999921
3.42,-0.868,9.187,2.664535E-4,-0.0018651745,-2.664535E-4,2.0,3.415,-0.863,9.152,0.002,-0.003,0.035,0.115297,-0.141708,0.788547,2017-05-01 20:20:40,49.935099988361415
3.421,-0.858,9.194,-0.003197442,0.0119904075,0.001065814,2.0,3.414,-0.863,9.152,0.007,-0.004,0.037,0.115305,-0.141668,0.788569,2017-05-01 20:20:41,46.040038999630326
3.385,-0.888,9.208,-0.00532907,0.019451106,0.002131628,2.0,3.408,-0.869,9.154,0.042,0.004,0.033,0.114394,-0.14208,0.786825,2017-05-01 20:20:42,58.78688625494975
3.416,-0.868,9.189,-5.32907E-4,-0.001065814,-0.001598721,2.0,3.409,-0.869,9.153,0.006,0.002,0.034,0.114456,-0.142096,0.786874,2017-05-01 20:20:43,53.82053360143114
3.411,-0.864,9.193,0.0011990408,-0.0029309886,-5.32907E-4,2.0,3.409,-0.869,9.153,0.002,0.008,0.035,0.114489,-0.14207,0.786936,2017-05-01 20:20:44,41.803104831263845
3.418,-0.86,9.197,9.3258725E-4,-0.0014654943,-2.664535E-4,2.0,3.41,-0.867,9.153,0.007,0.01,0.037,0.114614,-0.142036,0.78695,2017-05-01 20:20:45,38.46235844209816
3.418,-0.855,9.186,-7.993605E-4,-6.6613377E-4,0.0027977617,2.0,3.411,-0.866,9.153,0.006,0.012,0.027,0.114658,-0.142003,0.787008,2017-05-01 20:20:46,31.105897102992486
3.422,-0.858,9.182,-9.3258725E-4,1.3322676E-4,-3.9968026E-4,2.0,3.41,-0.866,9.153,0.019,0.018,0.029,0.11468,-0.141959,0.787062,2017-05-01 20:20:47,40.23731506378711
3.424,-0.857,9.192,0.003197442,0.003330669,-0.0025313082,2.0,3.411,-0.865,9.153,0.015,0.006,0.038,0.114712,-0.141945,0.787114,2017-05-01 20:20:48,45.902392716709414
3.436,-0.852,9.175,-0.001598721,-3.9968026E-4,-9.3258725E-4,2.0,3.411,-0.864,9.153,0.023,0.012,0.019,0.114776,-0.141886,0.787191,2017-05-01 20:20:49,50.13131496284693
3.439,-0.858,9.187,-0.030109245,-0.14481749,0.047029044,2.0,3.408,-0.867,9.153,0.019,0.013,0.034,0.114496,-0.142005,0.786902,2017-05-01 20:20:50,49.73607773036784
3.418,-0.849,9.178,0.0014654943,-0.0011990408,-0.001598721,2.0,3.401,-0.871,9.156,0.016,0.022,0.02,0.114062,-0.14191,0.787025,2017-05-01 20:20:51,45.15862697601036
3.437,-0.852,9.2,-0.016520116,0.056887824,0.006927791,2.0,3.404,-0.87,9.155,0.04,0.028,0.007,0.114234,-0.141931,0.787074,2017-05-01 20:20:52,43.767600455607656
3.429,-0.843,9.171,0.0029309886,-0.002664535,-0.0018651745,2.0,3.399,-0.872,9.157,0.024,0.023,0.021,0.113977,-0.141846,0.78708,2017-05-01 20:20:53,58.303868786796656
3.758,0.331,8.288,0.062216893,0.80109245,-0.086863846,2.0,4.274,0.111,8.825,-0.298,0.188,-0.675,0.182127,-0.129878,0.778514,2017-05-01 20:20:54,48.16142346734283
3.767,-0.021,9.072,0.07607248,-0.07887024,-0.03570477,2.0,3.836,-0.192,9.022,-0.099,0.242,0.092,0.146002,-0.136552,0.748229,2017-05-01 20:20:55,64.89305912395332
3.833,-0.193,9.058,0.002664535,-0.003330669,-0.0027977617,2.0,3.844,-0.207,9.019,-0.016,0.01,0.041,0.146142,-0.137055,0.749647,2017-05-01 20:20:56,65.81135118128331
3.828,-0.196,9.063,0.001065814,0.0023980816,0.003730349,2.0,3.843,-0.206,9.019,-0.019,0.012,0.038,0.146207,-0.136906,0.749969,2017-05-01 20:20:57,71.39082417986155
3.828,-0.197,9.055,0.0019984012,-0.004130029,7.993605E-4,2.0,3.84,-0.205,9.021,-0.013,0.009,0.035,0.146148,-0.136701,0.750334,2017-05-01 20:20:58,62.29718965850407
3.83,-0.192,9.058,-0.002131628,3.9968026E-4,-3.9968026E-4,2.0,3.838,-0.205,9.021,-0.003,0.008,0.039,0.146165,-0.136576,0.75066,2017-05-01 20:20:59,65.52453495926399
3.833,-0.199,9.058,0.0,0.0,-5.32907E-4,2.0,3.835,-0.206,9.022,-0.006,0.004,0.031,0.146088,-0.136444,0.750966,2017-05-01 20:21:00,70.73088911837378
3.833,-0.202,9.061,-0.0019984012,-0.0019984012,-3.9968026E-4,2.0,3.834,-0.206,9.023,-0.002,0.005,0.035,0.146104,-0.136305,0.751305,2017-05-01 20:21:01,71.26362282071378
3.828,-0.2,9.054,-0.0022648547,1.3322676E-4,-0.0014654943,2.0,3.833,-0.205,9.024,-0.004,0.005,0.044,0.146136,-0.136157,0.751653,2017-05-01 20:21:02,66.40741785517412
3.824,-0.197,9.063,0.0,0.001065814,6.6613377E-4,2.0,3.831,-0.206,9.024,-0.003,0.012,0.039,0.146135,-0.136064,0.75204,2017-05-01 20:21:03,41.05584806090906
3.839,-0.195,9.06,0.0,-0.0017319478,3.9968026E-4,2.0,3.831,-0.206,9.024,0.004,0.014,0.036,0.146192,-0.135959,0.752433,2017-05-01 20:21:04,40.68483420137696
3.825,-0.2,9.054,0.0,-3.9968026E-4,5.32907E-4,2.0,3.83,-0.206,9.025,-0.005,0.006,0.035,0.146224,-0.13586,0.752769,2017-05-01 20:21:05,36.54079200647375
3.829,-0.199,9.061,1.3322676E-4,-0.0019984012,-2.664535E-4,2.0,3.828,-0.206,9.025,0.001,0.006,0.039,0.146223,-0.135723,0.753127,2017-05-01 20:21:06,37.607965528467716
3.834,-0.193,9.086,-0.023714362,0.03277378,0.022915002,2.0,3.82,-0.178,9.029,0.007,-0.012,0.026,0.146916,-0.134231,0.753499,2017-05-01 20:21:07,39.44388850514402
3.827,-0.189,9.063,-0.0011990408,0.0,6.6613377E-4,2.0,3.824,-0.205,9.027,0.002,0.017,0.037,0.146229,-0.135367,0.75388,2017-05-01 20:21:08,39.764739267072116
3.825,-0.2,9.05,0.0019984012,0.0,-6.6613377E-4,2.0,3.823,-0.206,9.028,0.004,0.004,0.023,0.146258,-0.135286,0.754261,2017-05-01 20:21:09,37.211213029491496
3.827,-0.197,9.06,-9.3258725E-4,-0.001065814,-6.6613377E-4,2.0,3.822,-0.207,9.028,0.006,0.008,0.032,0.146275,-0.135181,0.75462,2017-05-01 20:21:10,41.57697948319378
3.824,-0.202,9.058,0.0,0.002664535,3.9968026E-4,2.0,3.823,-0.206,9.028,0.005,0.009,0.041,0.146365,-0.13512,0.754915,2017-05-01 20:21:11,44.318771589550174
3.825,-0.2,9.058,0.0,3.9968026E-4,-0.0017319478,2.0,3.822,-0.207,9.028,0.004,0.013,0.026,0.146403,-0.135031,0.755267,2017-05-01 20:21:12,38.15710669448285
3.823,-0.194,9.06,9.3258725E-4,0.0,0.0017319478,2.0,3.821,-0.206,9.029,0.002,0.007,0.026,0.146426,-0.134893,0.755592,2017-05-01 20:21:13,32.65686391078272
3.825,-0.199,9.067,-0.010924594,0.0055955234,0.003730349,2.0,3.821,-0.211,9.028,-0.006,0.014,0.024,0.146342,-0.13506,0.75574,2017-05-01 20:21:14,27.475809659979355
3.832,-0.202,9.062,9.3258725E-4,2.664535E-4,0.0013322675,2.0,3.821,-0.211,9.029,0.008,0.011,0.034,0.1464,-0.134954,0.756069,2017-05-01 20:21:15,30.427961657281703
3.829,-0.2,9.062,-1.3322676E-4,0.0,2.664535E-4,2.0,3.82,-0.21,9.029,0.01,0.014,0.035,0.146444,-0.134847,0.756384,2017-05-01 20:21:16,39.67329739458084
3.827,-0.21,9.07,-0.00985878,0.006394884,0.003730349,2.0,3.818,-0.215,9.03,0.011,0.009,0.035,0.146273,-0.134861,0.756774,2017-05-01 20:21:17,48.051698321820886
3.822,-0.211,9.063,7.993605E-4,0.001065814,2.664535E-4,2.0,3.817,-0.213,9.03,0.004,0.006,0.032,0.146423,-0.134674,0.757145,2017-05-01 20:21:18,29.50252867687275
3.827,-0.206,9.068,0.0030642152,-0.0011990408,-0.0017319478,2.0,3.819,-0.208,9.029,0.01,0.001,0.039,0.146681,-0.134486,0.757416,2017-05-01 20:21:19,36.71402925567118
3.815,-0.206,9.056,-7.993605E-4,1.3322676E-4,0.0013322675,2.0,3.819,-0.208,9.029,-0.004,0.002,0.026,0.146748,-0.134403,0.757726,2017-05-01 20:21:20,33.94806134493986
3.825,-0.196,9.06,3.9968026E-4,-0.0014654943,2.664535E-4,2.0,3.822,-0.204,9.028,0.009,0.004,0.045,0.147089,-0.134261,0.757976,2017-05-01 20:21:21,31.336748535962606
3.814,-0.19,9.071,-6.6613377E-4,0.008126832,0.003730349,2.0,3.821,-0.193,9.029,-0.005,0.002,0.039,0.14746,-0.133731,0.758315,2017-05-01 20:21:22,39.85984220473697
3.823,-0.197,9.068,0.0014654943,0.0013322675,0.0,2.0,3.829,-0.205,9.025,-0.007,0.008,0.041,0.147452,-0.13441,0.758481,2017-05-01 20:21:23,35.49111074669246
3.825,-0.203,9.063,0.016520116,0.007194245,-0.0070610177,2.0,3.833,-0.206,9.024,-0.011,0.007,0.033,0.147604,-0.134585,0.758516,2017-05-01 20:21:24,40.49429631352978
3.819,-0.199,9.088,-0.0029309886,0.0035971224,2.664535E-4,2.0,3.826,-0.221,9.026,0.015,0.012,0.129,0.147045,-0.134757,0.759428,2017-05-01 20:21:25,38.73187129638812
3.818,-0.193,9.066,0.0018651745,3.9968026E-4,-0.0013322675,2.0,3.82,-0.23,9.028,-0.004,0.038,0.038,0.146504,-0.134901,0.759641,2017-05-01 20:21:26,36.87606418561417
3.822,-0.19,9.069,1.3322676E-4,-0.001065814,-0.0013322675,2.0,3.816,-0.229,9.03,0.006,0.038,0.035,0.146564,-0.134507,0.760514,2017-05-01 20:21:27,37.65282095660737
3.813,-0.191,9.063,-0.0018651745,-7.993605E-4,5.32907E-4,2.0,3.816,-0.228,9.03,-0.001,0.039,0.03,0.146672,-0.134399,0.760819,2017-05-01 20:21:28,40.15195543283363
3.815,-0.194,9.058,-0.0014654943,0.0,-3.9968026E-4,2.0,3.816,-0.225,9.03,-0.002,0.031,0.027,0.14679,-0.134194,0.761087,2017-05-01 20:21:29,37.55358988409426
3.821,-0.186,9.062,-0.0011990408,-7.993605E-4,6.6613377E-4,2.0,3.815,-0.225,9.03,0.003,0.035,0.031,0.146848,-0.134103,0.761326,2017-05-01 20:21:30,38.436421579466725
3.816,-0.193,9.06,0.0,2.664535E-4,-5.32907E-4,2.0,3.815,-0.224,9.031,0.005,0.032,0.032,0.146928,-0.133987,0.761632,2017-05-01 20:21:31,36.83643514101159
3.82,-0.193,9.072,0.0,0.001065814,-6.6613377E-4,2.0,3.814,-0.222,9.031,0.006,0.029,0.039,0.147006,-0.13384,0.761943,2017-05-01 20:21:32,42.4132306931829
3.82,-0.194,9.061,-0.0018651745,-7.993605E-4,-5.32907E-4,2.0,3.814,-0.222,9.031,0.004,0.034,0.029,0.147054,-0.133747,0.762208,2017-05-01 20:21:33,36.95457434522828
3.811,-0.195,9.062,-9.3258725E-4,-6.6613377E-4,-0.002664535,2.0,3.814,-0.221,9.031,-0.003,0.024,0.029,0.147167,-0.133636,0.762481,2017-05-01 20:21:34,42.51357595678289
3.82,-0.192,9.066,0.0,3.9968026E-4,-0.001598721,4.0,3.813,-0.219,9.031,0.007,0.028,0.033,0.147237,-0.133476,0.762759,2017-05-01 20:21:35,45.168118712707766
3.821,-0.189,9.074,0.0014654943,0.0011990408,5.32907E-4,4.0,3.813,-0.217,9.032,0.009,0.031,0.038,0.147339,-0.133298,0.763021,2017-05-01 20:21:36,45.15144852291969
3.815,-0.191,9.072,0.002131628,-5.32907E-4,-0.0017319478,2.0,3.813,-0.218,9.032,0.002,0.02,0.035,0.147377,-0.133293,0.763283,2017-05-01 20:21:37,41.229735838044725
3.817,-0.195,9.061,9.3258725E-4,1.3322676E-4,-6.6613377E-4,2.0,3.813,-0.219,9.032,0.001,0.022,0.028,0.147407,-0.133269,0.763509,2017-05-01 20:21:38,40.12241963789151
3.829,-0.204,9.07,5.32907E-4,0.0014654943,-6.6613377E-4,2.0,3.818,-0.219,9.03,0.01,0.02,0.035,0.147594,-0.133447,0.763462,2017-05-01 20:21:39,40.92002463178149
3.825,-0.198,9.061,7.993605E-4,-7.993605E-4,-3.9968026E-4,2.0,3.816,-0.215,9.03,0.002,0.016,0.036,0.147715,-0.133191,0.763741,2017-05-01 20:21:40,38.981443385198155
3.822,-0.203,9.066,-7.993605E-4,-0.001598721,1.3322676E-4,2.0,3.815,-0.216,9.031,0.005,0.015,0.033,0.147617,-0.133153,0.763815,2017-05-01 20:21:41,39.266274251901706
3.83,-0.203,9.058,1.3322676E-4,2.664535E-4,3.9968026E-4,2.0,3.815,-0.216,9.031,0.011,0.014,0.025,0.147689,-0.133082,0.763992,2017-05-01 20:21:42,38.180959645749056
3.82,-0.199,9.061,0.004263256,0.001598721,-6.6613377E-4,2.0,3.815,-0.215,9.031,0.008,0.021,0.026,0.147782,-0.133015,0.764218,2017-05-01 20:21:43,39.85381253187733
3.819,-0.201,9.069,7.993605E-4,-5.32907E-4,0.0013322675,2.0,3.815,-0.214,9.031,0.004,0.011,0.038,0.147848,-0.132895,0.7645,2017-05-01 20:21:44,35.498652538416856
3.923,-0.488,9.486,1.1642686,-0.67172927,-0.41953105,2.0,3.7,-0.459,9.069,0.014,0.282,-0.24,0.135419,-0.13863,0.766745,2017-05-01 20:21:45,43.04321953247001
3.829,-0.203,9.064,-0.003197442,-7.993605E-4,-6.6613377E-4,2.0,3.814,-0.213,9.031,0.015,0.009,0.029,0.147838,-0.132841,0.764421,2017-05-01 20:21:46,41.739427837490325
3.819,-0.194,9.067,-2.664535E-4,0.001598721,5.32907E-4,2.0,3.815,-0.212,9.031,0.003,0.015,0.035,0.147944,-0.13278,0.764667,2017-05-01 20:21:47,40.663786362867846
3.823,-0.2,9.058,9.3258725E-4,-0.001598721,0.001598721,2.0,3.814,-0.212,9.031,0.008,0.011,0.035,0.147984,-0.132703,0.764892,2017-05-01 20:21:48,44.81292433380615
3.836,-0.212,9.09,-0.08526512,0.05648814,0.033706367,2.0,3.816,-0.203,9.031,-0.007,-0.03,-0.019,0.148359,-0.132352,0.765076,2017-05-01 20:21:49,43.200478862086875
3.821,-0.195,9.056,7.993605E-4,-6.6613377E-4,-3.9968026E-4,2.0,3.814,-0.206,9.031,0.009,0.01,0.025,0.148267,-0.132329,0.765429,2017-05-01 20:21:50,36.28411582227792
3.825,-0.197,9.058,0.0011990408,0.001598721,5.32907E-4,2.0,3.815,-0.207,9.031,0.009,0.011,0.026,0.148295,-0.132354,0.765609,2017-05-01 20:21:51,35.773103346570906
3.825,-0.199,9.058,0.0,-6.6613377E-4,0.0025313082,2.0,3.814,-0.207,9.031,0.01,0.009,0.028,0.148341,-0.13226,0.76583,2017-05-01 20:21:52,41.675443648334756
3.825,-0.2,9.051,0.035171863,-0.011191047,-0.014122035,2.0,3.816,-0.195,9.031,0.01,-0.007,0.026,0.148715,-0.131937,0.765501,2017-05-01 20:21:53,43.398926565316785
3.819,-0.205,9.052,0.0102584595,-0.00492939,-0.0022648547,2.0,3.814,-0.195,9.032,0.013,-0.024,0.067,0.148704,-0.131795,0.76569,2017-05-01 20:21:54,36.384424067044286
3.812,-0.19,9.01,-0.007993605,-0.003730349,0.004662936,2.0,3.812,-0.198,9.033,0.008,-0.001,0.011,0.148528,-0.131836,0.765839,2017-05-01 20:21:55,32.979351432833056
3.824,-0.21,9.075,0.034239274,-0.0119904075,-0.0119904075,2.0,3.813,-0.186,9.032,0.012,-0.029,0.054,0.149048,-0.131293,0.766133,2017-05-01 20:21:56,39.2388975806194
3.567,-0.296,8.513,-0.39435118,0.06434852,0.1807887,2.0,3.814,-0.127,9.033,0.155,-0.66,1.223,0.150958,-0.128993,0.765978,2017-05-01 20:21:57,45.71397358951799
3.166,-0.651,9.412,0.24726886,-0.07807088,-0.08406608,2.0,3.757,-0.186,9.056,-0.56,-0.206,0.288,0.154166,-0.1204,0.801812,2017-05-01 20:21:58,40.32119429782895
4.182,-0.278,9.069,0.0119904075,0.07180922,-0.37663203,4.0,3.773,-0.039,9.051,0.408,-0.238,0.017,0.158459,-0.115703,0.797997,2017-05-01 20:21:59,50.3864284165298
1.643,0.554,8.171,-0.71995735,-0.38462564,0.22128963,4.0,2.557,0.806,9.432,-0.209,0.034,1.334,0.101932,-0.093076,0.496783,2017-05-01 20:22:00,55.91065520505518
2.583,6.63,4.233,-0.6252332,-0.32187584,-0.6065814,4.0,2.897,6.83,6.412,0.326,-0.821,-1.894,0.41597,-7.1E-4,0.353661,2017-05-01 20:22:01,62.51893626099005