ACC_X,ACC_Y,ACC_Z,GYRO_X,GYRO_Y,GYRO_Z,LIGH_1,GRAV_X,GRAV_Y,GRAV_Z,LINACC_X,LINACC_Y,LINACC_Z,ROTVEC_X,ROTVEC_Y,ROTVEC_Z,TIME,VOICE
-4.462792,2.7724855,6.83784,0.0052213552,0.005188096,-0.39612454,420.0,0.0,0.0,0.0,0.0,0.0,0.0,0.0,0.0,0.0,2017-06-01 13:26:27,67.71023208156046
-2.9472623,3.1890767,6.0836663,-0.40982646,2.9222293,2.1282175,418.0,-1.6108137,6.9483438,6.7302437,-1.3364486,-3.759267,-0.64657736,0.2881258,0.27172887,0.46286106,2017-06-01 13:26:28,64.53930649542126
-2.1619642,9.524135,1.9512744,0.050983034,-0.07569301,-0.049187154,171.0,0.4274445,9.549728,2.1886902,-2.5894086,-0.025593758,-0.23741579,0.42796838,0.45304626,0.5919435,2017-06-01 13:26:29,74.84892299997549
-3.952827,3.277662,7.97748,-0.4960287,-0.45349294,-0.5621437,388.0,-3.2623081,5.022214,7.7656355,-0.69051886,-1.7445519,0.21184444,0.15257163,0.28422645,0.45551386,2017-06-01 13:26:30,77.41711825834821
0.46926352,6.3470287,-11.496957,-0.86531484,-2.0306747,-1.9818201,90.0,-1.8517789,6.662677,-6.9534197,2.3210423,-0.31564808,-4.543537,0.6302695,0.6762293,0.19918637,2017-06-01 13:26:31,65.95009700110847
1.6519991,-0.94810385,5.837064,2.9637673,-9.519627,-2.0903711,111.0,2.8096583,-0.7730604,-9.363683,-1.1576592,-0.17504346,15.200747,-0.71640354,-0.68130827,-0.07752378,2017-06-01 13:26:32,81.78350696678798
0.46926352,-0.07182605,-10.694899,-0.013934696,0.028601049,-0.0300311,7.0,1.2221425,-1.0970926,-9.668155,-0.7528789,1.0252665,-1.0267439,-0.60315543,-0.7931849,0.006832177,2017-06-01 13:26:33,82.64406662408236
0.51714754,-0.35194764,-11.075577,-0.3236242,0.58731925,-0.013003498,2.0,1.0857733,-0.79165864,-9.714156,-0.5686258,0.439711,-1.3614206,-0.56110525,-0.8248909,0.002243703,2017-06-01 13:26:34,66.03874545794842
-0.50757074,-0.8690952,-10.524911,0.003092905,-0.1555099,0.2158049,6.0,0.13541657,-0.5558336,-9.789951,-0.6429873,-0.31326163,-0.7349596,-0.55480605,-0.83146787,0.01974974,2017-06-01 13:26:35,76.34707499211314
-0.033518825,-0.34715924,-11.461043,-0.09268735,0.16056497,-0.014067724,4.0,0.25724936,-0.33905485,-9.797411,-0.5253999,-0.22597674,-1.3284445,-0.5175497,-0.85537785,0.008002457,2017-06-01 13:26:36,72.08853073534635
0.8355764,-0.19632454,-10.802638,0.006285581,-0.0022614803,-0.025774196,2.0,0.87634057,0.05943013,-9.767237,-0.040764153,-0.25575468,-1.0354013,-0.43475026,-0.8994346,-0.02219502,2017-06-01 13:26:37,80.45369250300824
1.3072342,-0.842759,-10.824186,-0.017127372,0.120124415,0.039143536,4.0,0.8609833,0.27353293,-9.76495,0.44625086,-1.116292,-1.0592365,-0.42969212,-0.9017974,-0.031506315,2017-06-01 13:26:38,75.82673364340391
1.0199299,-0.095768064,-10.551247,0.02650586,-0.020353308,8.314289E-4,1.0,0.82798845,0.34701517,-9.765469,0.19194144,-0.44278324,-0.78577805,-0.4144961,-0.90889674,-0.033649854,2017-06-01 13:26:39,66.4681166538424
0.85473,-0.07182605,-10.876859,0.0073498054,-0.0043899305,-0.007682372,0.0,0.6290454,0.18319114,-9.784741,0.23526138,-0.23346937,-1.1328182,-0.3359282,-0.94129443,-0.019587731,2017-06-01 13:26:40,70.8596475950611
0.78290397,-0.08619126,-10.431537,-0.006485122,-0.022481758,-0.008746598,0.0,0.5446479,0.112097874,-9.790874,0.2382561,-0.19828913,-0.64066315,-0.24648234,-0.9687322,-0.0123913055,2017-06-01 13:26:41,67.08928384030305
0.82360536,-0.1412579,-10.907983,0.00415713,-1.3303012E-4,-0.00555392,0.0,0.55733967,0.07962022,-9.79048,0.2662657,-0.22087812,-1.1175032,-0.19065045,-0.98123795,-0.009408697,2017-06-01 13:26:42,79.76505699453716
0.79726917,-0.12928689,-10.9343195,0.00415713,-1.3303012E-4,-0.006618146,0.0,0.56622875,0.039196286,-9.790213,0.23104042,-0.16848317,-1.1441069,-0.15327467,-0.9877595,-0.006404343,2017-06-01 13:26:43,72.042516002513
0.79966336,-0.1340753,-10.87207,0.00415713,-1.3303012E-4,-0.006618146,0.0,0.58245486,7.0786057E-4,-9.789338,0.2172085,-0.13478316,-1.0827322,-0.12427362,-0.9918031,-0.0037296321,2017-06-01 13:26:44,76.69740228262557
0.9672575,0.033518825,-11.039664,-0.012870472,0.013701897,0.011473682,0.0,0.5572753,-0.035214525,-9.790743,0.4099822,0.06873335,-1.2489214,-0.10943903,-0.99358547,-0.0013266575,2017-06-01 13:26:45,62.27744819939065
0.7613561,-0.10534488,-10.359711,0.027570084,-0.011839507,-0.0034254715,2.0,0.6951697,0.010770309,-9.781973,0.26251101,-0.17597023,-1.0589724,-0.18488036,-0.9821207,-0.0071011097,2017-06-01 13:26:46,70.13933021109364
0.8403648,-0.050278235,-10.8385515,0.00415713,-1.3303012E-4,-0.006618146,4.0,0.7239615,-0.016701197,-9.779881,0.11640334,-0.03357704,-1.058671,-0.2689452,-0.9624467,-0.009120143,2017-06-01 13:26:47,67.64334477269222
1.0486604,-0.11731588,-11.305421,-0.012870472,-0.0075826063,-0.00555392,3.0,0.7093753,-0.043212935,-9.780862,0.33928508,-0.074102946,-1.524559,-0.32820466,-0.9439104,-0.009803754,2017-06-01 13:26:48,73.04630286594109
0.8475474,-0.15083471,-10.874464,0.00415713,-1.3303012E-4,-0.0044896975,4.0,0.7021577,-0.055992212,-9.7813225,0.12384188,-0.051746864,-1.0524406,-0.3733679,-0.9269871,-0.01073409,2017-06-01 13:26:49,62.695227916169046
0.8403648,-0.110133275,-10.845734,0.00415713,-1.3303012E-4,-0.00555392,2.0,0.73095226,-0.06498176,-9.779158,0.10941255,-0.045151517,-1.066576,-0.41093495,-0.9108956,-0.0123141315,2017-06-01 13:26:50,80.49260264171865
0.8523358,-0.062249243,-10.907983,0.003092905,-1.3303012E-4,-0.00555392,2.0,0.747379,-0.075384565,-9.777842,0.104956806,0.013135321,-1.1301413,-0.43868804,-0.8978218,-0.013285222,2017-06-01 13:26:51,74.6606211276227
0.81402856,-0.12449849,-10.907983,0.00415713,-0.0011972552,-0.00555392,4.0,0.7629501,-0.07511205,-9.77664,0.05107844,-0.049386434,-1.1313429,-0.4600756,-0.88701767,-0.014522023,2017-06-01 13:26:52,58.91199495926901
0.82360536,-0.06943185,-10.860099,0.00415713,-0.0022614803,-0.006618146,2.0,0.77146363,-0.0858792,-9.775881,0.052141726,0.01644735,-1.084218,-0.47608176,-0.87850857,-0.014902782,2017-06-01 13:26:53,65.84076249869541
0.8571242,-0.12210429,-10.915166,9.6445484E-4,0.007316546,-0.008746598,4.0,0.73957276,-0.12106596,-9.777977,0.117551446,-0.0010383278,-1.1371889,-0.487594,-0.87223285,-0.013021108,2017-06-01 13:26:54,73.7309425400545
0.8571242,-0.06943185,-10.766725,-0.0086135715,0.012637671,-0.007682372,4.0,0.73769164,-0.120566465,-9.778123,0.11943257,0.051134616,-0.9886017,-0.49755985,-0.86659086,-0.013406534,2017-06-01 13:26:55,59.12255742506265
0.79966336,-0.110133275,-10.915166,0.009478256,-0.0075826063,-0.006618146,4.0,0.7534484,-0.09333642,-9.77722,0.094098985,-0.035950467,-1.1140041,-0.5028429,-0.8635094,-0.015230357,2017-06-01 13:26:56,75.01516554982366
0.8523358,-0.090979666,-10.915166,0.00415713,9.311945E-4,-0.0044896975,4.0,0.7864125,-0.07833099,-9.774758,0.06592333,-0.012648672,-1.1404076,-0.5057184,-0.86175567,-0.01686299,2017-06-01 13:26:57,63.320718524219785
0.46926352,-0.16998832,-10.651803,-0.002228221,0.011573447,-0.0215173,4.0,0.79728764,-0.080273345,-9.773857,-0.32802412,-0.089714974,-0.8779459,-0.5066802,-0.86116385,-0.017100751,2017-06-01 13:26:58,75.36616328205996
0.8834604,-0.050278235,-10.905589,0.006285581,-0.0011972552,-0.006618146,4.0,0.803873,-0.081526265,-9.773309,0.0795874,0.03124803,-1.1322803,-0.5056592,-0.8617475,-0.01717219,2017-06-01 13:26:59,68.70919907153352
0.81402856,-0.06703765,-10.996569,9.6445484E-4,-0.006518381,-0.016196169,4.0,0.80275536,-0.082733355,-9.773394,0.011273205,0.015695706,-1.223175,-0.50406367,-0.8626843,-0.01702075,2017-06-01 13:27:00,74.00068535788269
0.8451532,-0.095768064,-10.714052,9.6445484E-4,0.0019954205,-0.007682372,4.0,0.7979843,-0.0792267,-9.773811,0.04716891,-0.016541362,-0.94024086,-0.50351924,-0.8630145,-0.017028539,2017-06-01 13:27:01,71.10054376826167
0.8619126,-0.090979666,-10.852917,0.00415713,-1.3303012E-4,-0.006618146,4.0,0.79762405,-0.0801511,-9.773833,0.06428856,-0.010828562,-1.0790834,-0.50235003,-0.8636963,-0.016928095,2017-06-01 13:27:02,65.81822401435888
0.8882488,-0.11731588,-10.874464,0.0052213552,-1.3303012E-4,-0.00555392,2.0,0.79257137,-0.09377072,-9.774119,0.062158644,-0.028333567,-1.0572491,-0.49965042,-0.86526924,-0.01608066,2017-06-01 13:27:03,61.43698433242286
0.89303726,-0.10295067,-10.773908,0.00415713,-1.3303012E-4,-0.006618146,3.0,0.79201454,-0.09613009,-9.774142,0.10102272,-0.006820582,-0.9997654,-0.49672797,-0.8669509,-0.015835708,2017-06-01 13:27:04,80.09101124247408
0.89064306,-0.06464344,-10.9343195,0.003092905,9.311945E-4,-0.006618146,2.0,0.78838354,-0.097756706,-9.774422,0.10225952,0.033113264,-1.1598978,-0.49359214,-0.8687483,-0.015536124,2017-06-01 13:27:05,70.16970153816263
0.92655605,0.11492168,-10.869676,-0.0054208958,-1.3303012E-4,0.049785785,2.0,0.8041735,-0.091391645,-9.773197,0.17026657,-0.16718212,-1.0222588,-0.49311352,-0.8689841,-0.016196806,2017-06-01 13:27:06,81.44547551228351
1.0462662,-0.15562311,-11.508927,-0.003292446,0.008380771,-0.008746598,2.0,0.80078775,-0.09585156,-9.773433,0.24547845,-0.059771545,-1.7354946,-0.49007422,-0.8707087,-0.01578066,2017-06-01 13:27:07,74.67498200037971
0.8451532,-0.17477672,-10.697293,0.00415713,-1.3303012E-4,-0.006618146,2.0,0.7950623,-0.095597975,-9.773902,0.05009091,-0.07917874,-0.92339134,-0.48877463,-0.8714526,-0.015591856,2017-06-01 13:27:08,72.27146227095072
0.8738836,-0.1388637,-10.915166,0.003092905,-0.0011972552,-0.00555392,1.0,0.80040014,-0.09673996,-9.773453,0.10700232,-0.008604914,-1.0818577,-0.4876167,-0.87208796,-0.015624162,2017-06-01 13:27:09,82.0432840201859
0.8331822,-0.10055647,-10.745177,9.6445484E-4,-0.023545984,-0.0044896975,0.0,0.8376705,-0.100802705,-9.770288,-0.0044882894,2.4623424E-4,-0.9748888,-0.48739636,-0.8721186,-0.016364442,2017-06-01 13:27:10,83.10586902566786
0.8355764,-0.062249243,-10.785878,0.00202868,9.311945E-4,-0.007682372,1.0,0.83753514,-0.11471392,-9.770149,-0.0019587278,0.05246468,-1.015729,-0.48845902,-0.8715198,-0.015790433,2017-06-01 13:27:11,79.55503453334386
0.6440403,-0.30885202,-10.979809,-0.079916656,0.067977384,-0.031095326,1.0,0.69792724,-0.22392388,-9.779219,-0.05388695,-0.08492814,-1.2005901,-0.48933288,-0.87129486,-0.007475545,2017-06-01 13:27:12,68.87960456373801
1.0534488,0.31124622,-10.682928,0.021184733,-0.012903732,-0.06195785,1.0,0.80270547,-0.11060672,-9.773118,0.25074333,0.42185295,-0.90981007,-0.49234807,-0.86941576,-0.015273278,2017-06-01 13:27:13,66.97522736698255
0.4333505,-0.31124622,-10.807426,0.003092905,0.007316546,-0.006618146,0.0,0.41352665,-0.25447485,-9.794625,0.01982385,-0.056771368,-1.0128012,-0.48513013,-0.8740913,0.0011131937,2017-06-01 13:27:14,65.5618276450479
0.94092125,-0.09816227,-10.87207,0.00202868,-1.3303012E-4,-0.006618146,0.0,0.5307342,-0.2413352,-9.789304,0.41018707,0.14317292,-1.0827665,-0.43759608,-0.89867973,-7.840473E-4,2017-06-01 13:27:15,57.95167524671149
0.7086837,-0.22984336,-10.879252,0.0052213552,9.311945E-4,-0.0044896975,0.0,0.55535936,-0.24057966,-9.787959,0.15332437,0.010736302,-1.0912933,-0.4016919,-0.9152544,-1.4757963E-4,2017-06-01 13:27:16,57.55382819503528
0.48362875,-0.23942018,-10.857705,-0.004356671,-0.023545984,0.025308609,0.0,0.38179272,-0.23585357,-9.796376,0.101836026,-0.0035666078,-1.0613289,-0.3741729,-0.9270765,0.0038666376,2017-06-01 13:27:17,57.362830711951275
0.59615624,-0.23463176,-10.668563,0.003092905,0.007316546,-0.016196169,0.0,0.49177933,-0.2535194,-9.791031,0.10437691,0.018887624,-0.877532,-0.3398563,-0.9400539,0.00363245,2017-06-01 13:27:18,71.26973807226057
0.5770026,-0.2705448,-10.939108,0.003092905,-1.3303012E-4,-0.006618146,0.0,0.5242189,-0.23719062,-9.789759,0.08151412,-0.02377738,-1.0440044,-0.32201788,-0.94627863,0.0028393245,2017-06-01 13:27:19,56.95197166766122
0.4213795,0.11971009,-9.967062,0.0052213552,9.311945E-4,-0.006618146,0.0,0.49746382,-0.19375226,-9.79211,-0.076084316,0.31346235,-0.17495155,-0.31435812,-0.94891393,0.001401743,2017-06-01 13:27:21,57.99407571258535
0.61530983,-0.24420857,-10.951078,0.00415713,-1.3303012E-4,-0.006618146,0.0,0.51223344,-0.20482464,-9.7911215,0.1030764,-0.039383933,-1.1599569,-0.3080396,-0.95095736,0.001887526,2017-06-01 13:27:22,68.33243765558353
-1.2593501,0.9744401,-10.637438,0.014799383,-0.08207837,-0.24713302,0.0,0.60962105,-0.08352497,-9.787331,-1.8689711,1.057965,-0.8501072,-0.32170907,-0.94631827,-0.0059752744,2017-06-01 13:27:23,69.14036199911013
0.21547815,-1.1899183,8.226477,1.7590644,0.014766121,-0.47168455,415.0,1.0714104,-3.1322105,9.23102,-0.85593224,1.9422922,-1.0045433,-0.046577293,-0.1648622,0.81038046,2017-06-01 13:27:24,69.04754074585198
-0.49799395,-0.08140286,8.89446,0.016927833,0.029665275,-0.006618146,380.0,-0.386095,-0.2913563,9.794714,-0.11189896,0.20995343,-0.90025425,-0.024659146,6.9475785E-4,0.78070635,2017-06-01 13:27:25,65.63809829990807
-0.5482722,-0.023942016,8.863335,0.003092905,-0.0011972552,-0.006618146,386.0,-0.5286868,-0.18852323,9.790574,-0.019585371,0.16458121,-0.9272394,-0.026565842,0.010673281,0.748484,2017-06-01 13:27:26,77.19317917770324
-0.92416185,0.038307227,8.822633,-0.0054208958,-0.015032182,8.314289E-4,381.0,-0.77773076,-0.057490796,9.775594,-0.5582338,2.995506E-5,-0.95296097,-0.030690111,0.02532973,0.7216489,2017-06-01 13:27:27,59.563572532740245
-0.6919243,-0.0047884034,8.935161,-0.014998922,-0.03099556,0.0061525553,355.0,-0.915616,0.02509915,9.763781,0.2236917,-0.029887553,-0.82861996,-0.03185205,0.034222852,0.70033306,2017-06-01 13:27:28,66.11647873760732
-1.151611,-0.29448682,8.690952,-0.004356671,0.047757104,0.028501283,127.0,-0.88509387,0.02170359,9.7666025,-0.2665171,-0.31619042,-1.0756502,-0.02982428,0.033946622,0.67754453,2017-06-01 13:27:29,58.86859996929751
0.01436521,0.36391866,9.991004,-0.056503706,-0.009711057,0.00934523,381.0,-0.8010558,0.005510471,9.773877,0.2288416,-0.29281467,-0.03665924,-0.025498569,0.031949993,0.62861425,2017-06-01 13:27:30,68.30983502675579
-0.61052144,-0.023942016,8.858546,0.0052213552,0.005188096,-0.00981082,383.0,-0.8407946,0.12929055,9.769685,0.23027319,-0.15323257,-0.91113853,-0.01930764,0.038883645,0.5751571,2017-06-01 13:27:31,75.14881499228605
-0.61291564,-0.016759412,8.781932,0.00202868,-1.3303012E-4,-0.00981082,382.0,-0.8255082,0.0976041,9.771357,0.21259254,-0.114363514,-0.9894247,-0.01845174,0.038197346,0.5372065,2017-06-01 13:27:32,76.34651739495924
-0.6775591,-0.033518825,8.767567,0.003092905,-0.016096408,0.02743706,382.0,-0.830959,0.07024748,9.771129,0.19888979,-0.05827647,-0.8551216,-0.018612979,0.038270585,0.5111032,2017-06-01 13:27:33,81.87221038762091
-0.581791,-0.107739076,8.635885,0.06056106,0.14779426,-0.006618146,377.0,-0.70193505,3.9062503E-4,9.781496,0.12014407,-0.1081297,-1.1456108,-0.0177362,0.031111173,0.49542814,2017-06-01 13:27:34,78.91869111454281
-1.043872,0.11492168,9.648633,1.1162724,2.6082828,0.030629734,377.0,-1.095243,0.13744211,9.7443285,0.05137098,-0.02252043,-0.095695496,-0.02106632,0.05228504,0.48552865,2017-06-01 13:27:35,80.59682367392114
-0.9768343,0.04070143,9.095572,-0.11716454,-0.1171978,0.36160377,369.0,-2.354073,0.61097234,9.500286,-0.49981546,0.2844591,-0.019247055,-0.03170441,0.120892674,0.4847066,2017-06-01 13:27:36,61.925429504085145
-0.8475474,-0.01436521,8.865729,0.1680478,0.43407083,-0.010875046,377.0,-1.1263658,0.053643476,9.741602,0.27881837,-0.06800868,-0.8758726,-0.026055386,0.051358044,0.4935256,2017-06-01 13:27:37,75.70902010461073
-0.7110779,-0.06464344,8.616732,0.06375374,0.16375765,-0.008746598,377.0,-0.72457874,-0.113853484,9.779182,0.01350081,0.04921004,-1.1624508,-0.023246238,0.029327005,0.49165994,2017-06-01 13:27:38,82.10347781399028
-0.7781156,-0.10055647,9.488221,0.025441634,0.022215698,-0.0044896975,373.0,-0.776585,-0.09261088,9.775414,-0.0015305877,-0.00794559,-0.2871933,-0.023494912,0.03225787,0.48849013,2017-06-01 13:27:39,78.32857664615028
-0.6464345,0.7278373,8.540117,0.14463484,0.3138134,-0.00981082,400.0,-1.0164037,0.87662035,9.714363,0.3699692,-0.14878303,-1.1742458,0.029665988,0.06184875,0.26076475,2017-06-01 13:27:40,76.6640861240161
-0.8475474,1.0749966,8.719683,0.0052213552,0.009444995,-0.0012970194,400.0,-1.057981,0.98514897,9.6995125,0.2104336,0.089847624,-0.9798298,0.034532126,0.06534544,0.259859,2017-06-01 13:27:41,59.6086505392273
-0.878672,1.079785,8.774749,0.5203063,1.4642407,-0.025774196,400.0,-1.0685303,1.0769552,9.688591,0.18985832,0.00282979,-0.9138422,0.038681228,0.06725398,0.26340598,2017-06-01 13:27:42,56.60298268913756
-0.78769237,1.2114661,9.251195,-0.27041295,-0.6195121,0.015730582,400.0,-1.1375376,1.1917344,9.6672735,0.06254101,0.0053664446,-1.4695272,0.04313332,0.072427765,0.26725224,2017-06-01 13:27:43,57.39789798165038
-1.1372458,1.1923125,8.432379,-0.28744054,-0.6876225,0.001895655,397.0,-1.2012683,1.3033751,9.645131,0.06402254,-0.111062646,-1.2127523,0.04708513,0.077576846,0.27581814,2017-06-01 13:27:44,64.90407713094805
-0.59855044,0.9624691,8.9758625,0.24573624,0.60328263,-0.01513195,395.0,-0.91954684,1.202532,9.689104,0.3209964,-0.24006295,-0.7132416,0.045897357,0.06234272,0.2787362,2017-06-01 13:27:45,70.35145135200776
-0.7469909,1.0199299,8.662222,-0.161862,-0.472649,0.0072167814,397.0,-1.1416986,1.308146,9.651718,0.39470768,-0.2882161,-0.98949623,0.04769221,0.074998535,0.28179422,2017-06-01 13:27:46,61.95764667623319
-0.79966336,0.9720459,8.78672,0.073331766,0.18397792,-0.0044896975,394.0,-1.0526463,1.279771,9.665635,0.2529829,-0.30772507,-0.87891483,0.047488317,0.07024675,0.28302985,2017-06-01 13:27:47,57.0851047829757
-1.103727,1.2354081,9.569624,-0.24061467,-0.7025216,0.012537908,394.0,-1.3148963,1.4234356,9.613286,0.21116936,-0.1880275,-0.04366207,0.05011205,0.08571822,0.29024094,2017-06-01 13:27:48,62.23901932535719
-0.9552865,1.103727,8.760384,0.038212333,0.085004985,-0.014067724,392.0,-0.892292,1.2436788,9.686458,-0.079753876,-0.14234602,-0.96677494,0.047011916,0.06259379,0.29867303,2017-06-01 13:27:49,63.61306142265718
-0.92176765,1.1013328,8.870518,-0.010742022,-0.024610208,-0.00555392,391.0,-0.88661146,1.239379,9.6875305,-0.03515619,-0.13804626,-0.8170128,0.046334993,0.06266163,0.3070894,2017-06-01 13:27:50,58.35407670185614
-0.82599956,1.0989386,8.9519205,0.6139581,1.6100396,-0.01513195,392.0,-0.87013304,1.2178438,9.691755,0.044133484,-0.11890519,-0.7398348,0.04493164,0.061961092,0.31648317,2017-06-01 13:27:51,62.77240794406829
-0.8475474,1.0534488,8.801085,0.0052213552,-0.015032182,-0.0044896975,392.0,-0.8347734,1.2005624,9.69702,-0.012773991,-0.14711356,-0.8959341,0.043990437,0.060451962,0.3270469,2017-06-01 13:27:52,65.89372305079229
-0.9983821,1.1252748,8.686164,-0.027769623,-0.07037189,-0.006618146,392.0,-0.74741495,1.1653862,9.708431,-0.25096714,-0.040111423,-1.0222673,0.043098968,0.056127183,0.33798954,2017-06-01 13:27:53,57.5736091336116
-0.90740246,1.0989386,8.796297,0.010542481,0.012637671,8.314289E-4,395.0,-0.78413045,1.1744415,9.704443,-0.123272,-0.07550287,-0.9081459,0.042376835,0.05844072,0.34641647,2017-06-01 13:27:54,58.919513825360774
-0.89782566,1.055843,8.683769,0.0052213552,0.0041238707,-0.0012970194,395.0,-0.87133664,1.1993873,9.693949,-0.02648902,-0.14354432,-1.0101795,0.04149973,0.063434824,0.3542322,2017-06-01 13:27:55,68.01270455764902
-1.0606314,1.2138603,8.789114,0.08823092,0.19674863,-0.007682372,395.0,-0.82197076,1.1856525,9.699946,0.063008845,-0.057983518,-0.7264786,0.04143583,0.06101966,0.35883862,2017-06-01 13:27:56,61.735478216593194
-0.8355764,1.163582,8.810662,0.006285581,0.0041238707,-0.0044896975,396.0,-0.9831061,1.2424423,9.677821,0.14752966,-0.07886028,-0.8671589,0.0411626,0.06981461,0.35918546,2017-06-01 13:27:57,64.86133538029917
-0.8403648,1.091756,8.765172,0.0073498054,0.0030596456,-0.00555392,381.0,-0.9983181,1.2447678,9.675965,0.15795326,-0.1530118,-0.9107933,0.04100958,0.070578285,0.35897747,2017-06-01 13:27:58,59.99313897346365
-0.7661445,1.0965444,8.678981,0.012670932,0.008380771,-0.0034254715,291.0,-0.9442954,1.2561347,9.679919,0.17815089,-0.15959036,-1.0009384,0.042043425,0.06851185,0.36580172,2017-06-01 13:27:59,82.67745799070532
-0.8403648,1.1180922,8.762778,0.0052213552,-1.3303012E-4,-0.007682372,304.0,-0.9690209,1.270034,9.67566,0.12865609,-0.15194178,-0.91288185,0.0422484,0.069955006,0.36572,2017-06-01 13:28:00,78.97665122529234
-0.81163436,1.1540052,8.748413,0.00202868,0.0019954205,-0.006618146,361.0,-0.95186937,1.2640704,9.6781435,0.140235,-0.11006522,-0.9297304,0.042262796,0.06903536,0.3660264,2017-06-01 13:28:01,78.70552466085527
-0.8690952,1.115698,8.707711,0.0052213552,0.008380771,-0.0044896975,355.0,-1.0076231,1.2356195,9.676173,0.13852787,-0.119921565,-0.968462,0.040217023,0.07095819,0.361395,2017-06-01 13:28:02,70.43358451316372
-0.6943185,0.878672,8.980651,-0.0011639954,-0.013967957,-0.0044896975,262.0,-0.797011,1.1399863,9.707502,0.09311575,-0.19427663,-1.1410484,0.03932804,0.059232272,0.36489877,2017-06-01 13:28:03,75.93555643972611
-0.6655881,1.0366893,8.841787,0.0137351565,-0.038445134,-0.006618146,287.0,-0.7570996,1.1559359,9.708811,0.09151155,-0.1192466,-0.86702347,0.040774073,0.05767073,0.3658394,2017-06-01 13:28:04,80.5323676149001
-0.59376204,1.079785,8.813056,0.010542481,0.013701897,-0.0034254715,307.0,-0.7641375,1.170458,9.706519,0.17037547,-0.09067297,-0.89346313,0.04134688,0.05827271,0.3656306,2017-06-01 13:28:05,80.17863620698103
-0.6919243,1.0366893,8.827422,0.003092905,-1.3303012E-4,-0.006618146,400.0,-0.76185447,1.1655294,9.707292,0.069930196,-0.12884009,-0.87986946,0.041075576,0.058126446,0.36689743,2017-06-01 13:28:06,75.06297957052794
-0.6440403,1.0582372,8.760384,0.003092905,-1.3303012E-4,-0.007682372,400.0,-0.7511243,1.1678426,9.7078495,0.10468984,-0.10242283,-0.9354944,0.041380428,0.05766358,0.36700326,2017-06-01 13:28:07,60.69989333797787
-0.62967503,1.055843,8.791509,0.00415713,-1.3303012E-4,-0.007682372,400.0,-0.7436768,1.1691817,9.708262,0.11400175,-0.11333871,-0.91675377,0.04161236,0.05731339,0.3665434,2017-06-01 13:28:08,63.37282548607779
-0.62009823,1.0271125,8.7292595,0.003092905,-1.3303012E-4,-0.007682372,400.0,-0.7381694,1.1665915,9.708994,0.11807114,-0.13947904,-0.9797344,0.041530564,0.05704655,0.36754778,2017-06-01 13:28:09,72.72475556746069
-0.62728083,1.0295067,8.832211,0.003092905,-1.3303012E-4,-0.007682372,400.0,-0.7295776,1.1636151,9.71,0.10229677,-0.13410842,-0.8777895,0.04151667,0.05660514,0.36810124,2017-06-01 13:28:10,77.90507724432655
-0.6679823,1.043872,8.820239,0.003092905,-0.0033257059,-0.007682372,400.0,-0.72112143,1.1632788,9.710671,0.05313915,-0.11940682,-0.89043236,0.04167183,0.056186963,0.36790362,2017-06-01 13:28:11,67.27827405364532
-0.62009823,1.0654198,8.74123,0.00202868,-0.0075826063,-0.007682372,384.0,-0.71626514,1.1583655,9.711618,0.072224855,-0.0737921,-1.0086956,0.041534267,0.055858318,0.36782408,2017-06-01 13:28:12,58.798434041371124
-0.63206923,1.0702082,8.748413,0.003092905,-1.3303012E-4,-0.006618146,400.0,-0.71451145,1.1537187,9.712301,0.082442224,-0.08351052,-0.96388817,0.041299947,0.055720486,0.36859417,2017-06-01 13:28:13,63.806178551711966
-0.6560113,1.0702082,8.765172,0.003092905,-0.0011972552,-0.007682372,400.0,-0.7158173,1.1519326,9.712417,0.05980599,-0.081724405,-0.94724464,0.041232795,0.055717226,0.3678891,2017-06-01 13:28:14,76.49163143178272
-0.62967503,1.0510546,8.750807,0.003092905,9.311945E-4,-0.006618146,400.0,-0.71254534,1.1492057,9.712981,0.082870305,-0.09815109,-0.9621744,0.041539256,0.055229586,0.36160693,2017-06-01 13:28:15,64.3465892265968
-0.6679823,1.0366893,8.76996,0.003092905,9.311945E-4,-0.006618146,400.0,-0.70930564,1.1512614,9.712975,0.041323364,-0.11457217,-0.94301414,0.04192081,0.054943472,0.35782576,2017-06-01 13:28:16,60.13861006492918
-0.62488663,1.055843,8.793902,0.003092905,-1.3303012E-4,-0.007682372,389.0,-0.7090704,1.1494185,9.71321,0.08418375,-0.09357548,-0.9193077,0.04185066,0.054887675,0.35759524,2017-06-01 13:28:17,62.30764177104298
-0.62488663,1.0749966,8.796297,0.0052213552,0.005188096,-0.007682372,388.0,-0.71116453,1.1543509,9.712471,0.0862779,-0.079354286,-0.91617393,0.04216309,0.054991268,0.35564736,2017-06-01 13:28:18,72.22081732570854
-0.61770403,1.0247183,8.820239,9.6445484E-4,-0.006518381,-0.006618146,396.0,-0.7078585,1.1545331,9.712691,0.07818347,-0.11066115,-0.9427309,0.04230842,0.0547773,0.3543458,2017-06-01 13:28:19,58.81037634244215
-0.6464345,1.0103531,8.803479,0.003092905,-1.3303012E-4,-0.006618146,396.0,-0.7044538,1.1523128,9.713203,0.05801934,-0.14195967,-0.90972424,0.042329855,0.054522242,0.3532174,2017-06-01 13:28:20,60.8913995298049
-0.62728083,1.0702082,8.810662,0.003092905,-1.3303012E-4,-0.007682372,396.0,-0.70391077,1.1539313,9.71305,0.07662994,-0.08372307,-0.9023876,0.04245774,0.054494232,0.35252208,2017-06-01 13:28:21,57.718452881276036
-0.58418524,1.0414777,8.789114,0.00415713,-1.3303012E-4,-0.006618146,397.0,-0.70732033,1.1555958,9.7126045,0.01060766,-0.1332717,-0.94024944,0.042512964,0.05465938,0.35189104,2017-06-01 13:28:22,73.49379131746322
-0.63206923,1.0295067,8.774749,0.00415713,-0.0011972552,-0.006618146,397.0,-0.7047434,1.1536499,9.713023,0.072674155,-0.12414324,-0.9382744,0.04272779,0.05429541,0.34739676,2017-06-01 13:28:23,57.065842471858645
-0.62249243,1.0103531,8.817844,0.003092905,9.311945E-4,-0.006618146,401.0,-0.7039446,1.1512543,9.713366,0.08145219,-0.14090121,-0.89552116,0.04295816,0.053951893,0.34166467,2017-06-01 13:28:24,57.74493354125851
-0.63206923,1.0630256,8.7053175,0.003092905,-0.0022614803,-0.00555392,401.0,-0.7086071,1.1523851,9.712893,0.0286538,-0.17076242,-0.96447945,0.043132104,0.0540366,0.33818159,2017-06-01 13:28:25,57.557040345074526
-0.6392518,1.0486604,8.7771435,0.003092905,-1.3303012E-4,-0.006618146,400.0,-0.70673615,1.1497357,9.713343,0.06748432,-0.10107529,-0.9361992,0.04308151,0.05386425,0.3374036,2017-06-01 13:28:26,56.979835158521084
-0.6464345,1.0319009,8.7125,0.00202868,-0.0011972552,-0.00555392,400.0,-0.7092925,1.1488637,9.71326,0.062857985,-0.11696279,-1.0007601,0.042958435,0.05400174,0.338047,2017-06-01 13:28:27,55.66781464587837
-0.6344634,1.0342951,8.791509,0.003092905,9.311945E-4,-0.006618146,401.0,-0.70988524,1.1499625,9.713086,0.053873956,-0.10369635,-0.9383373,0.04300813,0.054044,0.33792514,2017-06-01 13:28:28,58.33397440655358
-0.6392518,1.0582372,8.76996,0.00202868,-1.3303012E-4,-0.006618146,396.0,-0.7075537,1.1488925,9.713382,0.06830186,-0.09065533,-0.94342136,0.04305418,0.053867064,0.33692658,2017-06-01 13:28:29,75.58542446544286
-0.62009823,1.0390835,8.655039,0.00202868,-1.3303012E-4,-0.006618146,393.0,-0.7080289,1.1502054,9.713193,0.08793068,-0.11112189,-1.0581541,0.043087307,0.053930458,0.33730865,2017-06-01 13:28:30,58.34595162711756
-0.6512229,1.0749966,8.791509,0.0052213552,0.0030596456,-0.006618146,394.0,-0.70941937,1.1522014,9.712854,0.058196485,-0.07720482,-0.9213457,0.043116193,0.05406699,0.33806053,2017-06-01 13:28:31,79.70355622121083
-0.641646,1.0654198,8.789114,0.003092905,-1.3303012E-4,-0.006618146,390.0,-0.7024765,1.1506763,9.71354,0.08956087,-0.13314056,-1.013011,0.04309732,0.053757973,0.33920202,2017-06-01 13:28:32,66.80984814471047
-0.60094464,1.0582372,8.734048,0.003092905,-1.3303012E-4,-0.006618146,278.0,-0.70303464,1.1542959,9.713071,0.10209,-0.09605873,-0.979023,0.04306416,0.054006785,0.3426394,2017-06-01 13:28:33,65.7281393871598
-0.6679823,1.055843,8.781932,0.00415713,-1.3303012E-4,-0.006618146,394.0,-0.70205235,1.1557641,9.712967,0.034070075,-0.09992111,-0.93103504,0.043017667,0.05409265,0.34496632,2017-06-01 13:28:34,60.49492792597861
-0.62967503,1.0223241,8.75799,0.00202868,9.311945E-4,-0.007682372,396.0,-0.6992641,1.1567699,9.713048,0.06958908,-0.13444579,-0.9550581,0.0430519,0.054027013,0.3460621,2017-06-01 13:28:35,54.32398754531497
-0.6631939,1.0247183,8.789114,0.003092905,-0.0011972552,-0.006618146,385.0,-0.7034965,1.1535448,9.713126,0.040302634,-0.1288265,-0.9240122,0.04276375,0.054218743,0.34707135,2017-06-01 13:28:36,57.57584036843791
-0.6512229,1.0295067,8.717288,0.00415713,9.311945E-4,-0.006618146,287.0,-0.7019281,1.1529588,9.713309,0.050705194,-0.12345207,-0.9960213,0.04272765,0.054161113,0.3476898,2017-06-01 13:28:37,62.17162790302201
-0.6344634,1.0462662,8.7125,9.6445484E-4,-0.0033257059,-0.006618146,265.0,-0.70360404,1.1532583,9.713152,0.06914061,-0.106992126,-1.0006523,0.042658117,0.05428958,0.34862208,2017-06-01 13:28:38,64.60502151518688
-0.6392518,1.1085154,8.750807,0.0052213552,-1.3303012E-4,-0.006618146,390.0,-0.705253,1.1573769,9.712543,0.06600118,-0.048861504,-0.9617357,0.042791117,0.0544708,0.34922484,2017-06-01 13:28:39,82.11277042596733
-0.60094464,1.0534488,8.767567,0.00202868,-0.0011972552,-0.00555392,355.0,-0.7018028,1.1594237,9.712548,0.10085815,-0.10597491,-0.9449816,0.042890307,0.05439002,0.35026506,2017-06-01 13:28:40,65.41857973412733
-0.61530983,1.0151415,8.75799,0.003092905,-1.3303012E-4,-0.006618146,265.0,-0.70124763,1.1574802,9.71282,0.076361,-0.099243045,-0.91412926,0.04275968,0.054365437,0.35108012,2017-06-01 13:28:41,65.16416858515903
-0.6368576,1.0366893,8.74123,0.00415713,-1.3303012E-4,-0.006618146,265.0,-0.70287246,1.1575348,9.712696,0.06601483,-0.120845556,-0.97146606,0.042598467,0.05454979,0.35338646,2017-06-01 13:28:42,79.44266754047625
-0.6560113,1.055843,8.793902,0.003092905,-1.3303012E-4,-0.007682372,262.0,-0.7033791,1.1560081,9.712841,0.04736781,-0.10016513,-0.91893864,0.042471744,0.054580763,0.35414726,2017-06-01 13:28:43,77.10433469285657
-0.6584055,1.0606314,8.803479,0.00415713,-1.3303012E-4,-0.00555392,262.0,-0.7061783,1.1599488,9.712169,0.06692648,-0.10171163,-0.9134779,0.04253128,0.054848064,0.35547966,2017-06-01 13:28:44,68.15593206785579
-0.6512229,0.9768343,8.78672,0.00415713,9.311945E-4,-0.00555392,262.0,-0.7058373,1.1584014,9.7123785,0.054614425,-0.18156707,-0.9256582,0.04245703,0.05480821,0.3555893,2017-06-01 13:28:45,75.50815953213583
-0.641646,0.9983821,8.724471,0.00415713,0.0019954205,-0.006618146,289.0,-0.7072874,1.15426,9.712766,0.06564134,-0.15587795,-0.9882946,0.042243477,0.054792967,0.35540512,2017-06-01 13:28:46,65.22626938655736
-0.60812724,1.0582372,8.781932,0.003092905,-0.0011972552,-0.00555392,269.0,-0.70833796,1.154079,9.712711,0.08823973,-0.10302436,-0.9475393,0.0422749,0.054794334,0.3543987,2017-06-01 13:28:47,65.61800782233128
-0.6607997,1.0342951,8.796297,0.003092905,-1.3303012E-4,-0.007682372,271.0,-0.71099186,1.1551814,9.712386,0.050192177,-0.120886326,-0.91608906,0.04223189,0.054978386,0.35520747,2017-06-01 13:28:48,80.74847788494027
-0.62488663,1.0151415,8.707711,0.003092905,-1.3303012E-4,-0.006618146,265.0,-0.70944864,1.1560049,9.7124,0.084562,-0.14086342,-1.0046892,0.042208772,0.054989237,0.35674256,2017-06-01 13:28:49,70.53878528896745
-0.6344634,1.0271125,8.793902,0.00202868,-1.3303012E-4,-0.007682372,269.0,-0.7087676,1.1542275,9.712662,0.07430416,-0.12711501,-0.91875935,0.042031676,0.055003844,0.3585144,2017-06-01 13:28:50,63.02774424668857
-0.6775591,1.0319009,8.810662,0.003092905,-1.3303012E-4,-0.006618146,341.0,-0.7106115,1.1555,9.712376,0.033052444,-0.12359917,-0.9017134,0.041960318,0.055190586,0.36017364,2017-06-01 13:28:51,81.99089060387695
-0.8283938,0.91219085,8.7125,-9.977049E-5,0.046692878,0.002959881,362.0,-0.7414574,1.1435937,9.711479,-0.086936414,-0.23140281,-0.99897957,0.040704355,0.056529105,0.3621448,2017-06-01 13:28:52,57.75399365275057
-0.6655881,0.9624691,8.870518,0.008414031,-0.005454156,-0.017260395,7.0,-0.944431,1.1346328,9.694899,0.31236178,2.1874905E-4,-0.9895811,0.0302889,0.06914015,0.44601268,2017-06-01 13:28:53,72.46074701304727
-3.2010477,0.16759412,8.446744,0.04140501,0.07861963,0.035950862,4.0,-0.9123734,1.1222852,9.699405,-2.2886744,-0.9546911,-1.2526608,0.02566115,0.06935083,0.5074202,2017-06-01 13:28:54,67.91057859596839
-0.6919243,1.0414777,8.74123,0.003092905,0.0019954205,-0.006618146,0.0,-0.8491495,1.1693894,9.69958,0.15722525,-0.12791169,-0.9583502,0.008661149,0.07337588,0.7327037,2017-06-01 13:28:55,81.09170582054452
-0.6823475,1.0103531,8.66701,0.00415713,9.311945E-4,-0.007682372,0.0,-0.83314055,1.1642268,9.70159,0.15079308,-0.15387368,-1.0345793,-0.004119523,0.07307276,0.8424226,2017-06-01 13:28:57,68.68514145199467
-0.6943185,1.0271125,8.774749,0.003092905,-1.3303012E-4,-0.007682372,0.0,-0.8135436,1.1588699,9.703894,0.119225144,-0.13175738,-0.92914486,-0.012296187,0.07132966,0.901796,2017-06-01 13:28:58,66.346517191413
-0.6727707,1.0773908,8.734048,0.003092905,-0.0022614803,-0.007682372,0.0,-0.8018664,1.1473619,9.706233,0.12909573,-0.069971085,-0.97218513,-0.017493913,0.069381654,0.9324465,2017-06-01 13:28:59,65.78278205705242
-0.6560113,1.0271125,8.844181,0.00415713,0.0019954205,-0.007682372,0.0,-0.78639275,1.1396539,9.708407,0.13038146,-0.11254144,-0.86422634,-0.020267537,0.06781035,0.9488539,2017-06-01 13:29:00,75.9989201941628
-0.6607997,1.0199299,8.726865,0.00415713,9.311945E-4,-0.008746598,0.0,-0.7813478,1.1349343,9.709367,0.08463514,-0.100639224,-1.006444,-0.02235148,0.066786766,0.9586743,2017-06-01 13:29:01,61.2124556798529
-0.7110779,1.0127473,8.7292595,0.00415713,-1.3303012E-4,-0.006618146,0.0,-0.7911562,1.1283532,9.70934,0.080078244,-0.11560595,-0.9800806,-0.024219444,0.06614279,0.9638618,2017-06-01 13:29:02,60.82260683288989
-0.6823475,1.0127473,8.76996,0.003092905,0.0019954205,-0.007682372,0.0,-0.7843746,1.1290421,9.70981,0.10202712,-0.11629486,-0.93984985,-0.024304593,0.06593002,0.9655246,2017-06-01 13:29:03,64.29042611155431
-0.6655881,1.0749966,8.798691,0.00415713,-1.3303012E-4,-0.007682372,0.0,-0.7725649,1.1301911,9.710623,0.10697681,-0.055194497,-0.911932,-0.023678768,0.06584329,0.9654444,2017-06-01 13:29:04,74.88619814117628
-0.7086837,1.0319009,8.772355,0.00415713,9.311945E-4,-0.007682372,0.0,-0.76166445,1.1290176,9.711621,0.05298072,-0.0683862,-0.9560261,-0.022601254,0.06583574,0.96332383,2017-06-01 13:29:05,65.99631255594002
-0.6799533,1.0390835,8.683769,0.003092905,-0.0022614803,-0.007682372,0.0,-0.75501275,1.1285156,9.712198,0.07505947,-0.08943212,-1.028429,-0.021456044,0.065995015,0.96002346,2017-06-01 13:29:06,62.6818832632739
-0.60812724,1.0342951,8.6813755,0.003092905,-1.3303012E-4,-0.006618146,0.0,-0.7568885,1.119799,9.713061,0.14876127,-0.085503936,-1.0316858,-0.020855444,0.06585408,0.9566146,2017-06-01 13:29:07,77.8464405654274
-0.6440403,1.0606314,8.690952,0.00415713,-1.3303012E-4,-0.006618146,0.0,-0.75927186,1.1137171,9.713574,0.024251938,-0.14645958,-0.92685413,-0.020117702,0.065884896,0.952471,2017-06-01 13:29:08,67.94656297511554
-0.6919243,1.0079589,8.789114,0.003092905,9.311945E-4,-0.006618146,0.0,-0.7545775,1.1151552,9.713776,0.06265324,-0.10719633,-0.92466164,-0.018999128,0.06613877,0.94849396,2017-06-01 13:29:09,60.544148457206774
-0.7230489,1.0390835,8.76996,0.003092905,-1.3303012E-4,-0.007682372,0.0,-0.7541811,1.1174037,9.713548,0.031132162,-0.078320265,-0.9435873,-0.018152917,0.06646338,0.94473255,2017-06-01 13:29:10,60.94107002554818
-0.6751649,0.9959879,8.798691,0.003092905,-1.3303012E-4,-0.006618146,0.0,-0.75042367,1.122397,9.713263,0.07525879,-0.12640905,-0.91457176,-0.017123517,0.06684466,0.9409867,2017-06-01 13:29:11,60.11957611148033
-0.6991069,1.0007763,8.748413,0.003092905,-1.3303012E-4,-0.007682372,0.0,-0.75427884,1.1254865,9.712606,0.055171967,-0.1247102,-0.96419334,-0.016562587,0.06723509,0.93749315,2017-06-01 13:29:12,78.05298600275444
-0.6631939,1.0319009,8.702923,-9.977049E-5,-0.008646831,-0.006618146,0.0,-0.75434065,1.1282604,9.71228,0.09114677,-0.09635949,-1.0093575,-0.015883086,0.06752228,0.9342373,2017-06-01 13:29:13,63.69994960731536
-0.6847417,1.0271125,8.774749,0.00415713,-1.3303012E-4,-0.007682372,0.0,-0.75190455,1.1313357,9.712111,0.06716287,-0.10422325,-0.9373627,-0.015175794,0.067748316,0.93143564,2017-06-01 13:29:14,82.28416747288753
-0.7134721,1.0486604,8.7292595,0.003092905,9.311945E-4,-0.007682372,0.0,-0.7553906,1.1291372,9.712097,0.041918457,-0.08047676,-0.9828377,-0.014954211,0.06780308,0.92915934,2017-06-01 13:29:15,63.3658327547363
-0.641646,0.9864111,8.76996,0.003092905,-1.3303012E-4,-0.007682372,0.0,-0.7518152,1.1363106,9.711537,0.11016917,-0.14989948,-0.94157696,-0.014312104,0.06815102,0.92732924,2017-06-01 13:29:16,62.33959466957096
-0.6512229,1.0319009,8.7771435,0.00415713,-1.3303012E-4,-0.007682372,0.0,-0.7539092,1.1382848,9.7111435,0.102686286,-0.10638392,-0.934,-0.013962589,0.06837038,0.9250861,2017-06-01 13:29:17,59.74460239072384
-0.6823475,1.0127473,8.750807,0.003092905,-1.3303012E-4,-0.007682372,0.0,-0.7582889,1.1367269,9.710985,0.07594144,-0.12397957,-0.9601784,-0.013968107,0.068428345,0.92381126,2017-06-01 13:29:18,62.35425005065071
-0.6727707,1.0486604,8.793902,0.00415713,-0.0011972552,-0.007682372,0.0,-0.75791055,1.1386681,9.710788,0.08513987,-0.09000766,-0.9168854,-0.013806435,0.06853479,0.92322105,2017-06-01 13:29:19,62.04995664396328
-0.6967127,0.9935937,8.743625,0.00415713,-1.3303012E-4,-0.007682372,0.0,-0.7605561,1.1420465,9.710183,0.06384343,-0.14845276,-0.96655846,-0.013755205,0.0687692,0.92259467,2017-06-01 13:29:20,65.99937415272043
-0.7374141,1.0151415,8.767567,0.00415713,9.311945E-4,-0.007682372,0.0,-0.7618291,1.1414677,9.710152,0.024414957,-0.1263262,-0.942585,-0.013756423,0.06878072,0.92220616,2017-06-01 13:29:21,69.25735604769454
-0.6751649,1.0175357,8.717288,0.00415713,-1.3303012E-4,-0.007682372,0.0,-0.7631178,1.1397803,9.710249,0.08795291,-0.1222446,-0.99296093,-0.013785696,0.06873889,0.9218513,2017-06-01 13:29:22,59.719703141951385
-0.7110779,1.0271125,8.7053175,0.003092905,-0.0011972552,-0.007682372,0.0,-0.7613991,1.145462,9.709716,0.05032116,-0.11834955,-1.0043983,-0.013598044,0.068973795,0.9218624,2017-06-01 13:29:23,61.73539250911052
-0.6464345,1.0103531,8.707711,0.008414031,0.007316546,-0.007682372,0.0,-0.7572613,1.1488376,9.7096405,0.11082679,-0.13848448,-1.0019293,-0.013344417,0.06905109,0.9219032,2017-06-01 13:29:24,81.46001209144367
-0.6895301,0.9840169,8.765172,0.0052213552,9.311945E-4,-0.007682372,0.0,-0.76602954,1.1469915,9.70917,0.07649946,-0.1629746,-0.94399834,-0.01379768,0.0691353,0.92190796,2017-06-01 13:29:25,69.12827368212815
-0.6727707,1.0510546,8.810662,0.00415713,-0.0011972552,-0.007682372,0.0,-0.76407766,1.1463674,9.709398,0.091306984,-0.095312834,-0.898736,-0.013734516,0.06906396,0.92200667,2017-06-01 13:29:26,64.4120138567892
-0.6919243,1.0175357,8.7771435,0.00415713,-0.0011972552,-0.007682372,0.0,-0.7631384,1.146594,9.709445,0.07121414,-0.12905836,-0.9323015,-0.0136877075,0.06905586,0.9220189,2017-06-01 13:29:27,66.37466337813461
-0.6703765,1.0031705,8.7532015,0.00415713,-1.3303012E-4,-0.007682372,0.0,-0.763835,1.1494253,9.709056,0.09345853,-0.14625478,-0.9558544,-0.013671303,0.06920275,0.9220415,2017-06-01 13:29:28,66.6236001556679
-0.7278373,1.0702082,8.755595,0.00415713,9.311945E-4,-0.007682372,0.0,-0.7667391,1.1478041,9.709019,0.038901746,-0.07759595,-0.9534235,-0.013887157,0.06917344,0.922299,2017-06-01 13:29:29,66.1020431234449
-0.6607997,0.9911995,8.7532015,0.00415713,9.311945E-4,-0.007682372,0.0,-0.76622504,1.1471812,9.709132,0.117396355,-0.11528027,-0.9200182,-0.013893072,0.069130145,0.92240137,2017-06-01 13:29:30,60.423154649255636
-0.6607997,1.0247183,8.664616,0.003092905,9.311945E-4,-0.007682372,0.0,-0.7653984,1.1450398,9.709451,0.1045987,-0.12032151,-1.0448351,-0.013911558,0.06900907,0.9224968,2017-06-01 13:29:31,63.59731064873361
-0.7110779,1.0390835,8.781932,0.003092905,-1.3303012E-4,-0.008746598,0.0,-0.76514655,1.1483428,9.709081,0.054068625,-0.10925937,-0.9271488,-0.013879867,0.06915208,0.9227311,2017-06-01 13:29:32,63.470952108068126
-0.6991069,1.0319009,8.76996,0.00415713,9.311945E-4,-0.007682372,0.0,-0.76619416,1.1489087,9.708932,0.06708729,-0.11700785,-0.9389715,-0.013935655,0.06919597,0.92282176,2017-06-01 13:29:33,77.38133491102414
-0.7350199,1.0007763,8.7532015,0.003092905,-1.3303012E-4,-0.007682372,0.0,-0.76361555,1.1485565,9.709176,0.028595626,-0.14778018,-0.9559746,-0.013806897,0.06913156,0.9227531,2017-06-01 13:29:34,71.48512712593376
-0.6871359,1.0414777,8.7125,0.00415713,-1.3303012E-4,-0.006618146,0.0,-0.76424456,1.1506832,9.708875,0.07710868,-0.109205484,-0.9963751,-0.013770055,0.06924991,0.922607,2017-06-01 13:29:35,81.65101491642687
-0.6799533,1.0390835,8.781932,0.00415713,-0.0011972552,-0.007682372,0.0,-0.7615622,1.1517036,9.708964,0.08160895,-0.112620115,-0.9270325,-0.013612871,0.06924795,0.9225514,2017-06-01 13:29:36,68.16444827832063
-0.7038953,1.0079589,8.78672,0.003092905,-1.3303012E-4,-0.008746598,0.0,-0.7614104,1.1491985,9.709273,0.057515144,-0.14123964,-0.92255306,-0.013700587,0.06911687,0.92281276,2017-06-01 13:29:37,66.63300242513489
-0.62967503,1.055843,8.7292595,0.00415713,9.311945E-4,-0.008746598,0.0,-0.7595114,1.1475639,9.709616,0.12983638,-0.09172094,-0.9803562,-0.013676411,0.06899538,0.9230074,2017-06-01 13:29:38,60.95369890164573
-0.6799533,1.0319009,8.74123,0.003092905,-0.0022614803,-0.007682372,0.0,-0.76355976,1.1480784,9.709237,0.08360648,-0.11617756,-0.9680071,-0.01390678,0.06908907,0.92326504,2017-06-01 13:29:39,61.821338182353784
-0.6847417,1.0606314,8.719683,0.003092905,-1.3303012E-4,-0.007682372,0.0,-0.7581227,1.1462959,9.709874,0.07338101,-0.08566451,-0.99019146,-0.013720176,0.068891175,0.9234792,2017-06-01 13:29:40,62.36661951054621
-0.7541735,1.0055647,8.75799,0.00415713,-1.3303012E-4,-0.007682372,0.0,-0.7622297,1.1460332,9.709583,0.008056164,-0.14046848,-0.9515934,-0.013964643,0.068949535,0.9237181,2017-06-01 13:29:41,71.84660829127934
-0.6871359,1.0342951,8.693346,0.003092905,-1.3303012E-4,-0.008746598,0.0,-0.7645787,1.1441944,9.709615,0.077442825,-0.10989928,-1.0162687,-0.013970215,0.06893651,0.92294604,2017-06-01 13:29:42,71.25612726897495
-0.7278373,1.043872,8.779537,0.003092905,-1.3303012E-4,-0.007682372,0.0,-0.7647839,1.1478523,9.7091675,0.036946595,-0.1039803,-0.9296303,-0.013905237,0.06911505,0.92291415,2017-06-01 13:29:43,78.4950879760837
-0.6631939,1.0486604,8.731653,0.003092905,-0.0011972552,-0.007682372,0.0,-0.7651681,1.1484455,9.709066,0.10197419,-0.09978509,-0.9774132,-0.013954061,0.069142245,0.9231422,2017-06-01 13:29:44,67.91944623860354
-0.7350199,1.0079589,8.803479,0.003092905,-1.3303012E-4,-0.007682372,0.0,-0.7650696,1.145991,9.709365,0.06356853,-0.10930169,-0.9346161,-0.01402992,0.06901699,0.92333025,2017-06-01 13:29:45,74.89853633171089
-0.6871359,1.0534488,8.789114,0.00415713,-1.3303012E-4,-0.007682372,0.0,-0.7701647,1.1441653,9.709177,0.08302885,-0.09071648,-0.920063,-0.014295594,0.06903173,0.923267,2017-06-01 13:29:46,66.1515049949443
-0.6727707,1.0175357,8.743625,0.00415713,0.0019954205,-0.007682372,0.0,-0.76914936,1.1471344,9.708907,0.096378684,-0.12959874,-0.96528244,-0.0141038755,0.06917068,0.92278856,2017-06-01 13:29:47,66.90326804410597
-0.6823475,1.0295067,8.74123,0.003092905,-0.0011972552,-0.007682372,0.0,-0.768533,1.1491977,9.708713,0.086185515,-0.119691014,-0.96748257,-0.014020629,0.06925949,0.92270666,2017-06-01 13:29:48,63.87834376802668
-0.6967127,1.0582372,8.722076,0.00415713,0.0019954205,-0.007682372,0.0,-0.76881325,1.1517339,9.708389,0.093648374,-0.079131484,-0.9623709,-0.014029359,0.06937641,0.9229425,2017-06-01 13:29:49,62.53374952310754
-0.7206547,1.0342951,8.678981,0.00415713,-1.3303012E-4,-0.006618146,0.0,-0.7645134,1.1557814,9.708247,0.043858647,-0.121486306,-1.0292664,-0.013788068,0.069476694,0.92315954,2017-06-01 13:29:50,65.57412682194014
-0.6823475,1.043872,8.772355,0.00415713,-1.3303012E-4,-0.007682372,0.0,-0.76423776,1.1557367,9.708275,0.081890285,-0.111864686,-0.93591976,-0.0138867255,0.069447115,0.92376196,2017-06-01 13:29:51,63.15865144372339
-0.7015011,1.0319009,8.7532015,0.00415713,9.311945E-4,-0.008746598,0.0,-0.7626214,1.1587907,9.708037,0.080273926,-0.10055351,-0.8973751,-0.013799484,0.069551416,0.92401624,2017-06-01 13:29:52,60.75778023348018
-0.6679823,1.0127473,8.722076,0.0073498054,0.005188096,-0.008746598,0.0,-0.7626452,1.1528009,9.708749,0.094662905,-0.14005363,-0.9866724,-0.013852533,0.06927965,0.9236902,2017-06-01 13:29:53,65.95641812831714
-0.7158663,1.0079589,8.7125,0.00415713,-1.3303012E-4,-0.007682372,0.0,-0.7640102,1.1531441,9.708601,0.048143864,-0.14518523,-0.9961014,-0.013929529,0.06931868,0.9237897,2017-06-01 13:29:54,64.82084687925732
-0.6536171,1.0295067,8.726865,0.003092905,-0.0011972552,-0.007682372,0.0,-0.761424,1.1516266,9.708984,0.10780692,-0.1221199,-0.98211956,-0.013857244,0.069192104,0.92391294,2017-06-01 13:29:55,61.051101502000336
-0.7661445,1.0390835,8.7125,0.008414031,0.013701897,-0.00981082,0.0,-0.76643944,1.1521899,9.708523,0.05296731,-0.048462868,-1.0439072,-0.01400543,0.069332145,0.92347527,2017-06-01 13:29:56,69.75135528877858
-0.7015011,1.0103531,8.820239,0.0052213552,9.311945E-4,-0.008746598,0.0,-0.7789143,1.152635,9.707478,0.0774132,-0.14228189,-0.8872385,-0.013339788,0.06984602,0.9165549,2017-06-01 13:29:57,67.2838183606511
-0.6847417,1.0319009,8.78672,0.003092905,-0.0011972552,-0.007682372,0.0,-0.779853,1.1550981,9.707109,0.09511131,-0.1231972,-0.9203892,-0.0120028965,0.0702219,0.9089075,2017-06-01 13:29:58,68.76896571610351
-0.6919243,1.0271125,8.784326,0.00415713,9.311945E-4,-0.007682372,0.0,-0.77151287,1.1521688,9.708124,0.07958859,-0.12505627,-0.92379856,-0.010967536,0.07002266,0.9047252,2017-06-01 13:29:59,81.25095559164826
-0.6751649,1.0366893,8.710106,0.008414031,0.016894571,-0.006618146,0.0,-0.77109605,1.1471331,9.708753,0.09593117,-0.11044383,-0.99864674,-0.010892126,0.069804944,0.90374833,2017-06-01 13:30:00,62.89582659908841
0.32800564,1.4628572,6.9982514,0.00202868,-0.038445134,-0.0215173,374.0,-0.14183833,1.2866412,9.720845,0.46984398,0.176216,-2.7225938,0.015257045,0.064530104,0.92891794,2017-06-01 13:30:01,66.62167636700764
1.7262194,-4.024653,8.202535,-0.006485122,0.8991372,-5.8428288,176.0,0.03356588,0.68246937,9.782816,1.6926535,-4.7071223,-1.5802813,0.022770552,0.026394824,0.787872,2017-06-01 13:30:02,75.11662334710157
3.9240966,2.030283,8.966286,3.944983,-1.1814231,-0.6781442,431.0,1.4418521,2.7856977,9.291466,2.4822445,-0.7554147,-0.32518005,0.16151482,-0.01341825,0.37947842,2017-06-01 13:30:03,70.3408869432913
-0.7254431,6.6271505,4.450821,-0.010742022,-0.4769059,-0.398253,207.0,-1.3336483,7.0140905,6.7226715,0.76382834,-0.17385626,-0.8999729,0.37339696,0.13346863,0.14208293,2017-06-01 13:30:04,77.2472454283389
0.8738836,3.6343982,7.52737,0.07546022,0.085004985,0.07319874,346.0,-0.17078389,3.9489534,8.974798,1.0446675,-0.31455517,-1.4474282,0.2055892,0.01207334,0.01510572,2017-06-01 13:30:05,53.55345356122926
-1.0654198,5.9759274,4.6686935,-0.4204687,-0.07356457,-0.24926147,285.0,-1.6079853,5.996693,7.5910764,0.54256546,-0.020765781,-2.9223828,0.32939163,0.06681292,-0.058224365,2017-06-01 13:30:06,56.4123692930836
-0.6871359,4.9105077,6.6247563,0.23935089,0.78739357,-0.27693132,390.0,-1.2388543,4.916121,8.394485,1.5165817,0.5019574,-1.635654,0.26243898,0.0559119,-0.035586488,2017-06-01 13:30:07,69.70001044155762
-0.4381389,4.548983,8.180987,0.14995597,0.09777568,0.016794808,386.0,-0.88830405,4.6801405,8.571907,0.45016515,-0.1311574,-0.3909197,0.25046125,0.014951628,-0.123515576,2017-06-01 13:30:08,60.60687560355677
-0.272939,4.6160207,8.042124,0.24147934,0.18397792,0.0050883293,363.0,-0.72483355,4.8478475,8.493726,0.45189455,-0.23182678,-0.45160198,0.25872812,-5.1383814E-4,-0.14473481,2017-06-01 13:30:09,52.142567842541034
-1.1587936,5.6239796,7.2592196,-0.08523778,-0.12890428,-0.031095326,298.0,-1.6566424,5.842898,7.69977,0.49784887,-0.21891832,-0.44055033,0.32588428,0.034934223,-0.15936205,2017-06-01 13:30:10,56.56224078037787
0.11731588,4.309563,7.7332716,0.042469233,0.046692878,-0.045994475,361.0,-0.33888167,4.617246,8.645033,0.45619756,-0.307683,-0.9117613,0.24224612,-0.023298731,-0.16327985,2017-06-01 13:30:11,53.9488186214387
-0.21787235,4.2042184,8.9998045,-0.06714595,-0.39496055,-0.051315606,343.0,-0.7528738,4.850048,8.490029,0.5350014,-0.6458297,0.50977516,0.25909162,-7.062205E-4,-0.15075603,2017-06-01 13:30:12,71.88485286988146
-0.19871874,4.735731,7.4507556,-0.014998922,-0.021417534,-0.014067724,335.0,-0.533546,5.1136875,8.350803,0.33482724,-0.3779564,-0.9000478,0.2721101,-0.013550686,-0.14732128,2017-06-01 13:30:13,56.120633964919755
-0.35434186,4.984728,7.297527,-0.21933016,0.4330066,-0.10559108,332.0,-0.53077614,5.207073,8.293073,0.17643428,-0.22234535,-0.99554586,0.27760994,-0.010182256,-0.13238075,2017-06-01 13:30:14,60.8048863486262
0.22505496,3.7660792,8.202535,-0.6460845,-0.5322456,-0.13538939,367.0,-0.36689076,4.4909844,8.710157,0.5919457,-0.72490525,-0.5076227,0.2362098,-0.010512785,-0.12209466,2017-06-01 13:30:15,57.32587039846203
0.23942018,4.256891,8.334216,-0.011806248,0.014766121,0.08277677,368.0,0.111906864,4.6473665,8.634805,0.12751332,-0.39047575,-0.3005886,0.24229684,-0.03224477,-0.10473958,2017-06-01 13:30:16,81.63324161973989
0.10534488,4.156334,8.700529,0.3489661,0.06265625,0.002959881,378.0,-0.11771675,4.5903473,8.6651745,0.22306162,-0.43401337,0.035354614,0.24094513,-0.01202152,-0.07319141,2017-06-01 13:30:17,61.383406920072964
-0.18435353,4.675876,7.321469,-0.016063148,-0.005454156,-0.026838422,359.0,-0.4276805,5.172241,8.320781,0.24332696,-0.49636507,-0.9993119,0.2751196,0.0082125375,-0.050600734,2017-06-01 13:30:18,53.40164637907413
-1.1252748,5.485116,7.955932,-0.22784396,-0.036316685,-0.011939272,319.0,-1.1186858,5.770598,7.8497853,-0.49979448,-0.089157104,-1.1460204,0.31258628,0.045410678,-0.044785473,2017-06-01 13:30:19,63.4922571872987
-0.2801216,5.5138464,6.6965823,-0.57690984,0.06904161,0.07319874,283.0,-0.29236448,5.885201,7.8389616,0.012242883,-0.37135458,-1.1423793,0.3167379,-0.001132217,-0.05044815,2017-06-01 13:30:20,53.91724380252538
-1.5155296,5.3247046,7.1083846,-0.10332961,0.12650977,-0.043866023,332.0,-1.0982904,5.7064505,7.8994026,-0.4172392,-0.38174582,-0.791018,0.30716547,0.053776722,-0.01598254,2017-06-01 13:30:21,55.19431092330158
-0.8858546,5.267244,7.2664022,0.35215876,0.5798697,0.04659311,341.0,-0.69921416,5.4764495,8.104937,0.39993894,-0.80775595,-0.3788476,0.2934421,0.025593031,-0.03820849,2017-06-01 13:30:22,56.20924833792678
-0.21787235,4.805163,7.290344,-0.17676115,-0.08952794,0.0061525553,324.0,-0.48248395,5.3979573,8.173105,0.2646116,-0.5927944,-0.882761,0.28832576,0.0124845775,-0.043905336,2017-06-01 13:30:23,53.85201823590908
-1.2090719,5.2744265,7.433996,-0.003292446,-0.1640237,-0.05876518,334.0,-1.2259214,5.689996,7.892493,0.016849518,-0.4155693,-0.45849657,0.3067809,0.058994103,-0.021112746,2017-06-01 13:30:24,54.97707413703651
-1.0271125,5.422867,8.279149,-0.002228221,-0.06398654,0.04020776,301.0,-0.9899937,5.736739,7.8917756,-0.037118793,-0.31387234,0.38737345,0.30995232,0.039509244,-0.04188087,2017-06-01 13:30:25,62.68541971254723
-0.7134721,4.6375685,7.3645644,-0.1746327,-0.010775282,0.23283252,360.0,-0.45471826,5.189337,8.308695,-0.25875387,-0.5517683,-0.9441304,0.27590635,0.015816228,-0.02896209,2017-06-01 13:30:26,53.77883541268136
0.8714894,3.5170822,8.054094,0.5703249,0.57029164,-0.09175616,428.0,-0.022127753,4.169161,8.87626,0.89361715,-0.6520786,-0.8221655,0.21777813,-0.0030612133,-0.018897055,2017-06-01 13:30:27,63.06386034466343
-0.29209262,4.345476,8.121132,0.061625287,-0.038445134,-0.01513195,369.0,-0.21578342,4.797567,8.550274,-0.076309204,-0.45209074,-0.429142,0.2530397,0.0053189066,-0.023149077,2017-06-01 13:30:28,64.69541852615961
-0.19632454,4.5561657,7.52737,-0.18101805,-0.050151613,0.028501283,374.0,-0.24184543,4.9077663,8.486798,-0.08855441,-0.39230204,-0.9187269,0.25926828,0.00858492,-0.015585129,2017-06-01 13:30:29,61.65807231659293
-0.81402856,4.4556093,5.604826,0.3287458,0.49047476,0.056171138,364.0,-0.73249596,4.9943333,8.407763,-0.0815326,-0.53872395,-2.8029366,0.2646259,0.036007598,-0.0100104185,2017-06-01 13:30:30,53.766727771512926
-0.31124622,4.7189717,7.515399,0.00202868,-0.04802316,-0.025774196,341.0,-0.34962422,5.16859,8.326694,0.038378,-0.44961834,-0.81129456,0.2744617,0.011294482,-0.02539392,2017-06-01 13:30:31,62.79649198779868
-0.30885202,5.353435,7.5345526,0.21061681,-0.23532678,-0.019388847,304.0,-0.20685892,5.661298,8.004829,-0.1019931,-0.30786276,-0.47027683,0.30308953,-0.001995065,-0.041064832,2017-06-01 13:30:32,54.06196469269033
-1.1228806,5.473145,4.5633483,-0.5034783,-1.6166911,0.3083925,361.0,-2.0564942,5.8171463,7.622469,-0.5148783,-0.116551876,0.84582233,0.31866273,0.099077284,-0.036160484,2017-06-01 13:30:33,56.79990625039558
-0.9888053,5.116409,7.45315,0.5352055,1.1726431,-0.080049686,372.0,-0.9471165,5.3497763,8.1641445,-0.0416888,-0.23336744,-0.7109947,0.28596875,0.044343777,-0.02046653,2017-06-01 13:30:34,57.815731645550876
-0.49559975,4.9081135,7.5082164,0.03289121,0.08287653,-0.010875046,326.0,-0.60914266,5.3073163,8.223851,0.113542914,-0.39920282,-0.7156348,0.2831656,0.022749439,-0.032695103,2017-06-01 13:30:35,52.6000286288094
-0.8858546,4.841076,7.666234,-0.14377017,0.008380771,-0.052379824,342.0,-0.8083244,5.144186,8.309895,-0.077530205,-0.30311012,-0.64366055,0.27438402,0.032042127,-0.038056064,2017-06-01 13:30:36,55.3560338932204
-0.23702596,4.2401314,7.917625,-0.056503706,0.054142453,0.001895655,372.0,-0.27351034,4.614518,8.648804,0.036484376,-0.3743868,-0.73117876,0.24294394,0.0034621516,-0.043590847,2017-06-01 13:30:37,58.113654721934076
-1.1204864,5.094861,7.6973586,-0.3906704,-0.4651994,0.041271985,304.0,-1.1408635,5.5284796,8.019023,0.02037716,-0.43361855,-0.32166433,0.29829025,0.046546087,-0.04641873,2017-06-01 13:30:38,56.66949044453426
1.5059528,4.19943,7.338228,-0.14270595,0.08394076,-0.01513195,321.0,1.6549034,4.5870433,8.508273,-0.14895058,-0.3876133,-1.1700449,0.24032348,-0.09188811,-0.018317187,2017-06-01 13:30:39,81.3515127686151
0.92176765,4.6519337,7.323863,0.024477178,0.017027602,-0.028734079,322.0,1.6110351,5.0445623,8.253928,-0.68926746,-0.39262867,-0.93006516,0.26330528,-0.0991821,-0.049034115,2017-06-01 13:33:35,68.09960022403745
-0.5674258,7.3909006,6.030994,-0.46410194,-0.43752956,-0.9005673,203.0,1.6110351,5.0445623,8.253928,-0.68926746,-0.39262867,-0.93006516,0.26330528,-0.0991821,-0.049034115,2017-06-01 13:33:36,55.78835567325564