ACC_X,ACC_Y,ACC_Z,GYRO_X,GYRO_Y,GYRO_Z,LIGH_1,GRAV_X,GRAV_Y,GRAV_Z,LINACC_X,LINACC_Y,LINACC_Z,ROTVEC_X,ROTVEC_Y,ROTVEC_Z,TIME,VOICE
0.13168335,0.07661438,10.172958,-5.79834E-4,1.9836426E-4,-3.2043457E-4,98.0,0.13520621,0.06959386,9.80547,-0.0022643656,-0.006868735,-0.00906086,0.0077388277,4.7569658E-4,0.91550535,2017-04-05 15:27:12,39.95930861084505
0.1484375,0.07182312,10.182541,-5.79834E-4,1.9836426E-4,7.4768066E-4,98.0,0.1353273,0.065244675,9.805499,-0.0075596124,7.445887E-4,-8.869171E-5,0.0076562325,2.4155983E-4,0.9139954,2017-04-05 15:27:13,54.74495227795138
0.14724731,0.058654785,10.186127,-5.79834E-4,-8.69751E-4,7.4768066E-4,97.0,0.13964535,0.06468393,9.805443,0.001630798,0.002387315,7.2574615E-4,0.007846357,9.189828E-5,0.9122164,2017-04-05 15:27:14,62.3253587041928
-0.57699585,0.94810486,9.059662,-0.49806213,-1.7020874,-1.6120605,83.0,2.604827,-0.5251609,9.439782,-1.5474398,0.08823359,0.27452374,0.10039373,-0.09287736,0.84576225,2017-04-05 15:27:15,64.66993184221644
2.0063477,1.7070618,10.109116,0.15180969,0.03364563,-0.037582397,79.0,2.8958309,1.274458,9.282258,0.5683205,-0.4899019,0.629653,0.16253304,-0.01787683,0.85410255,2017-04-05 15:27:16,63.60769830864336
4.026642,1.4971771,9.370514,-0.030349731,0.030456543,-0.02267456,91.0,3.910732,1.3852445,8.885812,-0.04232931,0.028363466,0.09969425,0.21622182,-0.014063899,0.89712167,2017-04-05 15:27:17,64.17593947951862
3.1563568,1.7126465,9.564835,0.06977844,0.08052063,0.028457642,86.0,3.058391,1.6659966,9.167393,0.013972282,-3.528595E-4,-0.024928093,0.17569408,0.041528985,0.94880116,2017-04-05 15:27:18,29.482486376184088
1.0366821,0.8770752,10.872467,-0.052719116,0.1678772,0.22233582,100.0,1.4071417,0.6343594,9.684417,0.23957396,0.14697868,-0.08059788,0.0755324,0.021539701,0.9806456,2017-04-05 15:27:19,57.438733916548955
3.2130127,0.25857544,9.705704,-0.05697632,0.067733765,-0.26875305,104.0,3.0182688,0.3017823,9.325736,0.30144525,-0.16061437,-0.07868576,0.15647738,-0.0058812117,0.9783799,2017-04-05 15:27:20,62.17721885556848
2.738968,1.93013,9.610321,0.047409058,-0.04837036,-0.0034942627,93.0,2.814382,1.782004,9.223562,-0.17883158,-0.023400068,0.24178219,0.15617998,0.06816832,0.97344196,2017-04-05 15:27:21,65.0197818022418
2.83992,2.2234192,9.578003,0.0048065186,-0.0036315918,0.0050201416,99.0,2.8015492,2.1116853,9.157648,-0.061558723,0.020037651,-0.02742672,0.158392,0.08945351,0.974788,2017-04-05 15:27:22,64.19366552291974
2.6523743,2.1587677,9.7451935,0.011199951,0.0027618408,0.016738892,102.0,2.5457947,2.1424983,9.224914,0.014226675,-0.074629545,0.095051765,0.14391275,0.09520217,0.9783878,2017-04-05 15:27:23,64.28821665155712
2.9225159,2.1922913,9.663803,-0.031417847,-0.0057678223,-0.070617676,88.0,2.7245219,2.1404066,9.174205,-0.09042859,0.020375013,0.06026554,0.15412968,0.096881725,0.9792571,2017-04-05 15:27:24,62.71564835619899
5.4428253,1.7904663,8.255615,0.02078247,-0.07606506,-0.035461426,35.0,5.3069296,1.7345616,8.062145,-0.05299902,-0.046650648,0.38862896,0.29422164,0.048771154,0.94353986,2017-04-05 15:27:25,61.65903332235473
5.2261353,1.8351593,8.520966,0.016525269,-0.0068359375,-0.031188965,24.0,5.033316,1.8018454,8.221282,-0.0036268234,-0.013512135,0.039024353,0.28228515,0.042993642,0.9414395,2017-04-05 15:27:26,65.30594088900459
3.1998444,2.426117,9.347366,0.18803406,0.27760315,0.1232605,61.0,3.3499277,2.33059,8.917214,-0.21266365,0.06811237,0.08465958,0.19385535,0.088140145,0.9610817,2017-04-05 15:27:27,60.907721028823175
4.76886,0.83477783,8.171814,-1.707077,0.26161194,0.90304565,65.0,4.568958,-0.011356266,8.677263,0.19165754,1.8708694,0.49664783,0.23774475,-0.032560315,0.962128,2017-04-05 15:27:28,63.88315441126899
3.178299,-1.2812958,9.949905,0.09214783,-0.18153381,0.020996094,56.0,3.4545245,-1.2644929,9.0905285,-0.39240766,0.20417619,0.33508587,-0.18176083,0.058949567,-0.98089254,2017-04-05 15:27:29,58.711357660504945
3.2617035,-0.12249756,9.956284,-0.15818787,-0.50857544,0.15309143,83.0,3.497553,-0.42747155,9.151763,-0.17311668,0.2594573,0.4388647,-0.18234394,0.011857994,-0.9815846,2017-04-05 15:27:30,40.21292367151054
4.0737305,-0.47045898,9.207306,-0.097457886,-0.028137207,0.01461792,79.0,3.9730687,-0.5051372,8.951532,0.03387785,0.08443916,0.0435009,-0.20857216,0.009822607,-0.9748764,2017-04-05 15:27:31,39.5283866304975
4.2297516,-0.68873596,9.141861,-0.018630981,-0.029205322,0.006088257,70.0,4.1322527,-0.707216,8.865367,0.01861,-0.019187152,0.024504662,-0.21810156,0.0205869,-0.9729374,2017-04-05 15:27:32,51.01339946841734
4.2660675,-1.0785828,9.20929,-0.020767212,-0.05369568,-0.0066986084,64.0,4.126667,-0.99534935,8.840265,0.010970116,-0.050372362,0.05793476,-0.21886605,0.03700782,-0.9727209,2017-04-05 15:27:33,58.29734164488036
4.266861,-1.128067,9.100357,-0.0026550293,0.013412476,0.013549805,63.0,4.140237,-1.0783705,8.824169,-0.011487007,-0.0144991875,-0.012048721,-0.21997388,0.041281067,-0.9722929,2017-04-05 15:27:34,59.15326103936575
4.2724457,-1.043869,9.115921,-0.0015869141,-0.015350342,-0.012023926,59.0,4.165282,-1.0391861,8.8170805,0.013659477,-0.010695219,-0.0067100525,-0.22072174,0.041664436,-0.97281206,2017-04-05 15:27:35,52.38786764648353
4.337097,-1.0857697,8.880096,0.031433105,0.028320313,0.060409546,63.0,4.1540184,-0.99311984,8.827697,0.06943941,0.1696173,-0.10052681,-0.21984024,0.039786853,-0.97321653,2017-04-05 15:27:36,50.88714937495971
4.3482666,-0.89024353,9.113525,0.014389038,-0.026000977,-0.0887146,56.0,4.1156607,-1.0209993,8.842471,0.0036234856,0.017261982,0.0111579895,-0.21819979,0.039348766,-0.97306705,2017-04-05 15:27:37,52.82299266742503
3.0470123,-1.1380463,10.014145,-0.023956299,0.39263916,-0.19311523,57.0,2.79193,-0.84908277,9.362403,0.30714297,-0.2725377,0.27967358,-0.14625326,0.035501134,-0.98699874,2017-04-05 15:27:38,41.884590181406494
3.0960999,-1.3571167,9.649429,-0.5672455,-0.966629,0.20529175,90.0,3.137043,-0.6615177,9.267779,-0.49223948,-0.010742605,0.42853928,-0.16566926,-0.005332873,-0.9578998,2017-04-05 15:27:39,60.29866579388535
2.8239594,-1.072998,10.179352,-0.20932007,-0.11975098,-0.2016449,63.0,4.31418,-1.9675196,8.58412,-1.819613,1.0894343,1.4718008,-0.22463429,0.07930066,-0.9679804,2017-04-05 15:27:40,66.09006641885277
0.17996216,0.019546509,10.099136,-0.08467102,-0.012161255,0.015670776,43.0,0.017549751,-0.033897553,9.806576,0.17920339,0.1470227,0.034096718,-0.0012186234,0.0021444913,-0.9887685,2017-04-05 15:27:41,64.95778609088438
0.12530518,0.053863525,10.1586,5.493164E-4,6.2561035E-4,7.6293945E-4,90.0,0.13611418,0.038923394,9.805629,-0.0024479032,0.012487523,0.0018434525,-0.0062844274,-0.0030060695,-0.98734,2017-04-05 15:27:42,60.2848498629778
0.13287354,0.068237305,10.170563,-5.187988E-4,6.2561035E-4,7.6293945E-4,53.0,0.15399861,0.04437951,9.805341,0.024165213,-0.016881242,0.0028419495,-0.0073684724,-0.0035326872,-0.98614126,2017-04-05 15:27:43,63.95559462876327
0.15681458,0.039505005,10.170563,5.493164E-4,-4.4250488E-4,7.6293945E-4,83.0,0.15096572,0.042831704,9.805395,0.0028232485,0.0018907264,0.0036287308,-0.0072073718,-0.0034745361,-0.9850831,2017-04-05 15:27:44,64.37469839764928
0.16041565,0.04069519,10.170563,5.493164E-4,-4.4250488E-4,0.0018310547,91.0,0.15162484,0.04467627,9.805376,0.008360386,-0.007841844,-0.011875153,-0.0072243162,-0.003572963,-0.9850827,2017-04-05 15:27:45,66.13191896820983
0.15562439,0.037109375,10.170563,-5.187988E-4,-4.4250488E-4,7.6293945E-4,91.0,0.14981173,0.04471533,9.805404,-8.2306564E-4,0.009470038,0.010195732,-0.007132351,-0.0035601289,-0.98505694,2017-04-05 15:27:46,64.07411282528165
0.16160583,0.049087524,10.170563,6.4086914E-4,7.019043E-4,-3.0517578E-4,90.0,0.1474088,0.044732634,9.805441,-0.0077155977,0.002233129,0.0010614395,-0.007010781,-0.0035413378,-0.9850229,2017-04-05 15:27:47,57.718499841234305
0.1484375,0.05506897,10.1586,-4.272461E-4,-3.6621094E-4,-3.0517578E-4,91.0,0.15045553,0.046262044,9.805387,-0.003915325,-5.7177246E-4,-3.4713745E-4,-0.0071511506,-0.003643409,-0.98505783,2017-04-05 15:27:48,63.14379695020204
0.15681458,0.075424194,10.175354,-4.272461E-4,-3.6621094E-4,-3.0517578E-4,90.0,0.15207285,0.0494558,9.8053465,-0.003179744,-0.012128953,-1.6403198E-4,-0.00720453,-0.0038177217,-0.9850638,2017-04-05 15:27:49,58.45051512756263
0.14724731,0.044296265,10.163391,-4.272461E-4,7.019043E-4,-3.0517578E-4,91.0,0.14709261,0.047064792,9.805434,0.007489413,0.0045396946,-0.0028429031,-0.006974066,-0.0036563694,-0.9850061,2017-04-05 15:27:50,63.802556805434634
0.15083313,0.053863525,10.170563,-4.272461E-4,-3.6621094E-4,-3.0517578E-4,91.0,0.14965977,0.047565356,9.805393,0.00489074,-5.4039806E-4,0.002418518,-0.007099354,-0.0037026436,-0.9850397,2017-04-05 15:27:51,47.052197681082916
0.15562439,0.053863525,10.176559,-0.0014953613,-3.6621094E-4,-3.0517578E-4,89.0,0.14854737,0.045946173,9.805417,-2.9338896E-4,0.009253569,0.008106232,-0.007057528,-0.0036118706,-0.98503256,2017-04-05 15:27:52,62.89804099905399
0.16041565,0.05267334,10.168167,-4.272461E-4,-3.6621094E-4,7.6293945E-4,93.0,0.14747617,0.04780316,9.805425,-0.0065050125,0.0030646957,-0.008002281,-0.0070166443,-0.003691996,-0.9850164,2017-04-05 15:27:53,50.17626291774356
0.17477417,0.04309082,10.180145,-4.272461E-4,-3.6621094E-4,7.6293945E-4,96.0,0.1493178,0.046382602,9.805404,9.0917945E-4,0.0045809634,-8.392334E-4,-0.0070925825,-0.0036401884,-0.98504114,2017-04-05 15:27:54,68.97283436241466
0.14006042,0.046691895,10.171768,6.4086914E-4,7.019043E-4,7.6293945E-4,96.0,0.14771712,0.04518763,9.805433,-0.0011012554,-0.013251286,0.005317688,-0.0070223166,-0.0035668125,-0.98502487,2017-04-05 15:27:55,67.20573903593007
0.15441895,0.046691895,10.169373,-4.272461E-4,7.019043E-4,7.6293945E-4,96.0,0.14394297,0.047308795,9.805479,-0.0029493868,-6.828755E-4,-0.0010414124,-0.0068127327,-0.0036428005,-0.9849602,2017-04-05 15:27:56,62.10591716375269
0.1592102,0.04069519,10.178955,6.4086914E-4,7.019043E-4,-3.0517578E-4,96.0,0.14555238,0.046578933,9.805459,0.0022493154,0.0057657473,-0.0014562607,-0.006900558,-0.003619225,-0.98498684,2017-04-05 15:27:57,62.86238085873749
0.15322876,0.0574646,10.170563,6.4086914E-4,7.019043E-4,7.6293945E-4,96.0,0.14532615,0.04424074,9.805473,0.006535262,0.008035347,0.002729416,-0.006909933,-0.003499448,-0.9849961,2017-04-05 15:27:58,64.75173212716867
0.15441895,0.05027771,10.170563,6.4086914E-4,7.019043E-4,7.6293945E-4,96.0,0.14850004,0.04621745,9.805416,-0.0034359843,-0.004425671,-0.005795479,-0.0070527256,-0.003625166,-0.9850305,2017-04-05 15:27:59,56.22729436841376
0.15083313,0.039505005,10.172958,-4.272461E-4,-3.6621094E-4,7.6293945E-4,96.0,0.14604741,0.044936314,9.805459,-0.0069493204,3.5268068E-4,-0.0043678284,-0.0069401865,-0.003540448,-0.9850026,2017-04-05 15:28:00,66.6103407145744
0.15083313,0.044296265,10.170563,-4.272461E-4,-3.6621094E-4,-3.0517578E-4,96.0,0.14566311,0.042499963,9.805476,0.0027138442,-0.0019507781,0.010227203,-0.006942434,-0.0034144216,-0.98501,2017-04-05 15:28:01,61.72519380588349
0.15802002,0.06225586,10.168167,6.4086914E-4,-3.6621094E-4,-3.0517578E-4,96.0,0.14597104,0.044418205,9.805464,-0.0048101544,1.164116E-4,0.0059013367,-0.006940935,-0.003513691,-0.98500425,2017-04-05 15:28:02,62.811110710831784
0.16041565,0.044296265,10.166977,-4.272461E-4,7.019043E-4,-3.0517578E-4,96.0,0.14553563,0.045223434,9.805467,0.008314222,-0.0013979077,0.0013847351,-0.0069117737,-0.003550727,-0.9849938,2017-04-05 15:28:03,65.32903049454093
0.15562439,0.044296265,10.164581,6.4086914E-4,7.019043E-4,-3.0517578E-4,96.0,0.14671886,0.04505776,9.8054495,1.1381507E-4,0.0034687333,0.007142067,-0.006973031,-0.0035520804,-0.9850114,2017-04-05 15:28:04,65.59655886313121
0.14724731,0.051467896,10.176559,-4.272461E-4,7.019043E-4,-3.0517578E-4,96.0,0.1457576,0.04585635,9.80546,-0.0021042824,-0.0060495995,0.0011920929,-0.006917358,-0.0035844687,-0.9849936,2017-04-05 15:28:05,64.41824132570561
0.16160583,0.039505005,10.1586,6.4086914E-4,7.019043E-4,7.6293945E-4,96.0,0.14540118,0.046791963,9.80546,0.0011267811,-0.0020935684,0.0052700043,-0.006891021,-0.0036287266,-0.98498356,2017-04-05 15:28:06,55.94454081428027
0.15083313,0.046691895,10.164581,-4.272461E-4,-3.6621094E-4,-3.0517578E-4,96.0,0.1468122,0.04751942,9.805436,5.311519E-4,-0.0061499327,0.0024490356,-0.0069558504,-0.003676998,-0.9849997,2017-04-05 15:28:07,65.93037852235086
0.15802002,0.05267334,10.168167,-4.272461E-4,7.019043E-4,7.6293945E-4,96.0,0.14370376,0.045777652,9.8054905,-0.0024610162,0.0017781295,5.378723E-4,-0.006814285,-0.0035636202,-0.98496497,2017-04-05 15:28:08,65.35048079475173
0.13887024,0.05027771,10.1609955,-4.272461E-4,7.019043E-4,-3.0517578E-4,96.0,0.14349024,0.04597242,9.805492,-9.0271235E-4,-0.0028104372,-0.0017766953,-0.006801762,-0.003571685,-0.9849609,2017-04-05 15:28:09,62.20381442368409
0.14364624,0.04309082,10.1609955,-4.272461E-4,-3.6621094E-4,-3.0517578E-4,96.0,0.14189385,0.04700953,9.805511,0.0012585819,-0.007422257,4.7016144E-4,-0.006712437,-0.0036404901,-0.9849313,2017-04-05 15:28:10,57.948535924312424
0.14964294,0.05027771,10.1586,6.4086914E-4,7.019043E-4,7.6293945E-4,96.0,0.1440103,0.046810348,9.805482,-0.004437521,-0.005419787,0.010221481,-0.006820575,-0.0036182185,-0.9849638,2017-04-05 15:28:11,68.65614933958872
0.15083313,0.05506897,10.176559,-4.272461E-4,7.019043E-4,7.6293945E-4,96.0,0.14260656,0.04894814,9.805491,-0.0047844946,0.0013553277,-0.005469322,-0.0067305835,-0.0037144583,-0.98493254,2017-04-05 15:28:12,65.57821362075401
0.14245605,0.056259155,10.165787,-4.272461E-4,7.019043E-4,7.6293945E-4,96.0,0.14291552,0.045415673,9.805504,0.008336231,-8.869767E-4,0.008319855,-0.0067776847,-0.003538879,-0.9849557,2017-04-05 15:28:13,61.29603954079811
0.14485168,0.063446045,10.180145,-4.272461E-4,7.019043E-4,-3.0517578E-4,96.0,0.14123227,0.04728926,9.805519,0.0042090565,0.0067908615,-0.0023670197,-0.0066739284,-0.0035696242,-0.984924,2017-04-05 15:28:14,54.32304241760045
0.14245605,0.044296265,10.166977,-4.272461E-4,7.019043E-4,7.6293945E-4,96.0,0.14064975,0.042172868,9.805551,-4.4609606E-4,0.001404237,0.0058612823,-0.006692119,-0.0033566938,-0.9849408,2017-04-05 15:28:15,46.39729917921347
0.15083313,0.04309082,10.164581,6.4086914E-4,7.019043E-4,7.6293945E-4,96.0,0.13925457,0.0438926,9.805564,0.00124304,-0.0043059103,0.0024547577,-0.0066063227,-0.0034318885,-0.9849119,2017-04-05 15:28:16,61.132714840727374
0.14604187,0.046691895,10.17775,-4.272461E-4,-0.0014190674,-3.0517578E-4,96.0,0.14120936,0.044244286,9.805533,0.0026113838,0.0015222132,-0.005698204,-0.0067019295,-0.0034657547,-0.9849378,2017-04-05 15:28:17,66.32963469620107
0.14604187,0.051467896,10.166977,-4.272461E-4,-3.6621094E-4,7.6293945E-4,96.0,0.1406117,0.04244313,9.805551,4.6285987E-4,-0.0028678402,-0.0019445419,-0.006687789,-0.003370007,-0.98493886,2017-04-05 15:28:18,60.21586302480653
0.14485168,0.05027771,10.166977,6.4086914E-4,-3.6621094E-4,-3.0517578E-4,96.0,0.13792752,0.04633625,9.805571,0.0021835566,-0.0034758188,0.003586769,-0.006517479,-0.0035441155,-0.98488003,2017-04-05 15:28:19,62.79559624883089
0.14125061,0.049087524,10.170563,6.4086914E-4,-3.6621094E-4,7.6293945E-4,96.0,0.13981192,0.047483016,9.805538,-6.864518E-4,-0.0020305067,0.0037031174,-0.006602443,-0.003617518,-0.98490065,2017-04-05 15:28:20,65.1591287156781
0.1257019,0.039505005,10.1609955,-4.272461E-4,-3.6621094E-4,-3.0517578E-4,96.0,0.13758972,0.047078285,9.805572,-0.0025847256,0.0072422735,6.246567E-4,-0.0064937854,-0.0035787278,-0.98487127,2017-04-05 15:28:22,65.85260307303825
0.14245605,0.041900635,10.176559,-4.272461E-4,0.0017700195,7.6293945E-4,96.0,0.13696364,0.04926756,9.80557,-0.0046065897,4.637465E-4,0.011533737,-0.0064425813,-0.003683906,-0.98485065,2017-04-05 15:28:23,64.81709392207397
0.14604187,0.053863525,10.163391,-4.272461E-4,7.019043E-4,-3.0517578E-4,96.0,0.13622154,0.045778967,9.805597,-0.004638493,0.008642584,0.0146923065,-0.006436279,-0.0035018877,-0.98485875,2017-04-05 15:28:24,66.3579907873218
0.15083313,0.04788208,10.172958,-4.272461E-4,7.019043E-4,7.6293945E-4,96.0,0.13804539,0.04387146,9.80558,0.0063878745,0.0038544573,0.0016613007,-0.0065454366,-0.0034208272,-0.9848949,2017-04-05 15:28:25,67.07266549502762
0.14604187,0.03831482,10.17775,-4.272461E-4,-3.6621094E-4,7.6293945E-4,96.0,0.1386668,0.04710415,9.805556,0.0019782186,9.0931356E-4,0.0023450851,-0.0065479693,-0.0035889477,-0.98488647,2017-04-05 15:28:26,57.690633208028984
0.13526917,0.049087524,10.169373,-4.272461E-4,7.019043E-4,-3.0517578E-4,96.0,0.13796203,0.044145864,9.80558,-0.002633512,0.0034314245,-0.007906914,-0.0065794135,-0.0034303374,-0.98490417,2017-04-05 15:28:27,56.54548474418051
0.13647461,0.04788208,10.166977,6.4086914E-4,7.019043E-4,7.6293945E-4,96.0,0.13916415,0.048137467,9.805545,0.0035058707,0.002294235,0.0016450882,-0.0065638693,-0.0036451581,-0.98488796,2017-04-05 15:28:28,54.75070572597019
0.13887024,0.05027771,10.175354,-4.272461E-4,7.019043E-4,7.6293945E-4,96.0,0.13989654,0.04504542,9.805549,0.0037800819,-0.006030582,-0.008671761,-0.0066284696,-0.0034953158,-0.9849149,2017-04-05 15:28:29,59.49626260787191
0.14245605,0.053863525,10.171768,-4.272461E-4,-3.6621094E-4,-3.0517578E-4,96.0,0.13890453,0.045726497,9.805559,-0.005127907,-0.0027914196,6.67572E-4,-0.006536039,-0.003492314,-0.98488826,2017-04-05 15:28:30,64.32204835594993
0.14964294,0.049087524,10.174164,6.4086914E-4,-3.6621094E-4,-3.0517578E-4,96.0,0.13567518,0.045541726,9.805606,0.008452028,-0.005344011,-0.0063381195,-0.0064477646,-0.003473378,-0.98486364,2017-04-05 15:28:31,61.83136671960704
0.14724731,0.05267334,10.171768,-4.272461E-4,7.019043E-4,-3.0517578E-4,96.0,0.14179268,0.04585222,9.805518,0.003517896,0.0018946081,-0.003929138,-0.0067170663,-0.0035516412,-0.9849375,2017-04-05 15:28:32,58.4114348881933
0.14604187,0.049087524,10.174164,-4.272461E-4,-3.6621094E-4,7.6293945E-4,96.0,0.13904047,0.046165977,9.805555,0.004429519,0.0037929863,-0.0019989014,-0.0065859198,-0.0035613105,-0.9848989,2017-04-05 15:28:33,53.064901299817606
0.15802002,0.039505005,10.180145,6.4086914E-4,7.019043E-4,7.6293945E-4,96.0,0.1408353,0.046710696,9.805528,0.0038112253,-0.0033641644,0.005771637,-0.006661041,-0.00358703,-0.9849193,2017-04-05 15:28:34,43.39910245407008
0.13887024,0.056259155,10.172958,-4.272461E-4,7.019043E-4,7.6293945E-4,96.0,0.14549692,0.04853187,9.80545,0.010351405,0.0011071637,0.010804176,-0.0068803653,-0.0037172579,-0.9849757,2017-04-05 15:28:35,56.17609574804473
0.15322876,0.05506897,10.171768,6.4086914E-4,7.019043E-4,-3.0517578E-4,96.0,0.13638024,0.047549486,9.805587,-0.0024140626,-0.0040960945,-0.0020360947,-0.0064284694,-0.0035924574,-0.98485154,2017-04-05 15:28:36,62.82719349223036
0.14006042,0.04788208,10.172958,-4.272461E-4,-3.6621094E-4,7.6293945E-4,96.0,0.13858585,0.046803124,9.805559,1.4530122E-4,-0.0031862669,0.0032958984,-0.006546568,-0.0035731015,-0.9848869,2017-04-05 15:28:37,64.62963371534676
0.1484375,0.05267334,10.165787,-4.272461E-4,7.019043E-4,-3.0517578E-4,96.0,0.13769859,0.047445316,9.805569,-0.0057138056,0.0017922446,0.0031061172,-0.0064960057,-0.0035981329,-0.98487085,2017-04-05 15:28:38,64.43728193810536
0.15441895,0.0574646,10.17775,-4.272461E-4,7.019043E-4,-3.0517578E-4,96.0,0.13743393,0.043462813,9.805591,0.0044614673,0.0024530068,-0.0037736893,-0.0065182005,-0.003395166,-0.9848884,2017-04-05 15:28:39,64.76544024842306
0.14364624,0.044296265,10.1609955,6.4086914E-4,7.019043E-4,-3.0517578E-4,96.0,0.1386275,0.045531943,9.805565,-9.033829E-4,0.0012149513,0.0023069382,-0.006560021,-0.0035093573,-0.9848943,2017-04-05 15:28:40,64.70605039604652
0.14125061,0.039505005,10.183731,6.4086914E-4,7.019043E-4,-3.0517578E-4,96.0,0.13841328,0.04374358,9.805575,0.0018692315,-0.0033778697,0.0059318542,-0.0065651597,-0.0034174225,-0.9849008,2017-04-05 15:28:41,39.32048092772668
0.14006042,0.061050415,10.183731,6.4086914E-4,7.019043E-4,-3.0517578E-4,96.0,0.13656151,0.04394277,9.805601,-0.0031941086,-7.0971623E-4,0.0038642883,-0.006469853,-0.0034121387,-0.9848734,2017-04-05 15:28:42,53.268085582164076
0.1592102,0.04548645,10.162186,-4.272461E-4,7.019043E-4,-3.0517578E-4,96.0,0.1384991,0.044390928,9.8055725,-0.0012893528,0.0076531656,0.0014381409,-0.0065637175,-0.003450769,-0.98489857,2017-04-05 15:28:43,67.72317918321518
0.15203857,0.04548645,10.174164,6.4086914E-4,7.019043E-4,7.6293945E-4,96.0,0.13994572,0.046947025,9.805539,-0.0050836205,-0.0045472123,-0.0054016113,-0.006613987,-0.0035915996,-0.9849054,2017-04-05 15:28:44,64.97314203981585
0.13887024,0.04548645,10.162186,-4.272461E-4,7.019043E-4,7.6293945E-4,96.0,0.13991794,0.04378191,9.805554,0.008364707,0.0037587509,-0.0016317368,-0.0066408175,-0.003431786,-0.98492193,2017-04-05 15:28:45,65.90273324145058
0.14006042,0.044296265,10.150223,-4.272461E-4,7.019043E-4,7.6293945E-4,96.0,0.13865432,0.04275423,9.805577,0.011822194,0.0047564954,0.00744915,-0.0065861577,-0.003369534,-0.9849095,2017-04-05 15:28:46,65.38907803161051
0.15203857,0.04309082,10.166977,6.4086914E-4,7.019043E-4,-3.0517578E-4,96.0,0.1416597,0.042043354,9.805536,0.004783675,0.0018911846,-0.0033111572,-0.0067442814,-0.0033584866,-0.98495585,2017-04-05 15:28:47,57.93692183848619
0.14724731,0.05027771,10.174164,-3.2043457E-4,3.9672852E-4,5.79834E-4,96.0,0.14356153,0.04782476,9.805483,-0.003945112,0.0039641447,-0.0064821243,-0.006788859,-0.0036656791,-0.98495203,2017-04-05 15:28:48,46.3466751572114
0.14006042,0.041900635,10.163391,-3.2043457E-4,-6.713867E-4,-4.8828125E-4,96.0,0.14342803,0.04581309,9.805494,0.002053678,0.0051356666,0.008799553,-0.0068000383,-0.0035631384,-0.98496085,2017-04-05 15:28:49,56.12855246282778
0.13526917,0.051467896,10.165787,7.4768066E-4,3.9672852E-4,5.79834E-4,96.0,0.13873526,0.04566217,9.805563,0.009628072,-0.0010485277,0.0033311844,-0.0065643024,-0.0035168142,-0.9848951,2017-04-05 15:28:50,61.09502173790397
0.14724731,0.037109375,10.172958,7.4768066E-4,3.9672852E-4,5.79834E-4,96.0,0.14117932,0.046300873,9.805525,-0.005651757,5.3105503E-4,-0.0048675537,-0.0066820774,-0.003569205,-0.9849264,2017-04-05 15:28:51,67.16880138790042
0.14724731,0.056259155,10.162186,7.4768066E-4,-6.713867E-4,-4.8828125E-4,96.0,0.14092037,0.04804878,9.80552,0.0019517988,0.0016665161,0.0024671555,-0.0066753337,-0.0036330319,-0.984921,2017-04-05 15:28:52,63.87301880311003
0.1197052,0.041900635,10.174164,7.4768066E-4,3.9672852E-4,5.79834E-4,96.0,0.14180481,0.05020008,9.805496,0.023379639,0.009518251,-0.0040979385,-0.006678893,-0.0037709717,-0.9849145,2017-04-05 15:28:53,64.88241006256287
0.15681458,0.068237305,10.169373,-3.2043457E-4,-6.713867E-4,-4.8828125E-4,101.0,0.14214073,0.046949662,9.805507,-0.0101877,-0.024250582,0.003862381,-0.0067248684,-0.0036098477,-0.9849366,2017-04-05 15:28:54,38.26708968481086
0.14245605,0.049087524,10.164581,-3.2043457E-4,3.9672852E-4,-4.8828125E-4,99.0,0.14282744,0.04520427,9.805506,-5.300641E-4,-0.0041469447,-0.0039405823,-0.006775118,-0.0035274937,-0.9849556,2017-04-05 15:28:55,54.049711724716886
0.15322876,0.04548645,10.175354,-3.2043457E-4,-6.713867E-4,-4.8828125E-4,100.0,0.14475325,0.046033293,9.805473,0.004119441,-0.007658154,-7.696152E-4,-0.0068650357,-0.003585142,-0.98497844,2017-04-05 15:28:56,64.51100903831042
0.15562439,0.04069519,10.169373,7.4768066E-4,-6.713867E-4,-4.8828125E-4,100.0,0.14148082,0.04709074,9.805516,0.0028401017,0.0015630424,-0.0020561218,-0.0066902665,-0.0036115192,-0.98492646,2017-04-05 15:28:57,65.41044530287265
0.15322876,0.05027771,10.169373,-3.2043457E-4,3.9672852E-4,-4.8828125E-4,100.0,0.14263721,0.045018047,9.80551,0.0052516907,-0.0019292682,-2.193451E-5,-0.0067671663,-0.0035165367,-0.9849539,2017-04-05 15:28:58,63.874558576635465
0.14245605,0.03831482,10.171768,7.4768066E-4,3.9672852E-4,-4.8828125E-4,100.0,0.14052501,0.04880125,9.805522,0.0055182576,-7.831305E-4,0.0066976547,-0.0066267056,-0.0036898742,-0.98490375,2017-04-05 15:28:59,61.869289229378566
0.15562439,0.05027771,10.178955,7.4768066E-4,3.9672852E-4,5.79834E-4,100.0,0.13845378,0.049427666,9.805549,0.0030976832,-4.3249503E-4,-0.0015048981,-0.0065164464,-0.0037043253,-0.984871,2017-04-05 15:29:00,64.00319676999855
0.13647461,0.046691895,10.176559,-3.2043457E-4,3.9672852E-4,-4.8828125E-4,100.0,0.14183562,0.04968213,9.805498,-0.001953885,-0.0058656894,-0.009052277,-0.0066535287,-0.0037453366,-0.9849085,2017-04-05 15:29:01,60.30629839856105
0.14724731,0.039505005,10.184937,-3.2043457E-4,3.9672852E-4,-4.8828125E-4,100.0,0.14259177,0.047030896,9.805501,0.0032910109,0.0047941953,-0.014533043,-0.0067469333,-0.0036176608,-0.98494256,2017-04-05 15:29:02,66.10355172547875
0.14964294,0.04548645,10.166977,-3.2043457E-4,-6.713867E-4,5.79834E-4,100.0,0.14241304,0.047602568,9.8055,-0.0020101666,-0.0049619563,-0.0026369095,-0.0067328056,-0.0036450143,-0.98493695,2017-04-05 15:29:03,67.27491767816639
0.14724731,0.05027771,10.168167,-3.2043457E-4,3.9672852E-4,-4.8828125E-4,100.0,0.1415035,0.045634013,9.805523,8.523166E-4,-0.0050371476,0.010802269,-0.0067044017,-0.0035382542,-0.9849345,2017-04-05 15:29:04,58.76862032897215
0.1592102,0.03112793,10.175354,7.4768066E-4,-6.713867E-4,-4.8828125E-4,100.0,0.14120583,0.045099933,9.80553,-0.0119859725,-1.4710799E-4,0.0024347305,-0.006694125,-0.0035088698,-0.98493314,2017-04-05 15:29:05,66.36164309974801
0.12210083,0.03352356,10.172958,-3.2043457E-4,-6.713867E-4,-4.8828125E-4,102.0,0.13918436,0.04653805,9.8055525,-0.020841673,-0.015020218,0.0026245117,-0.0065791714,-0.003564687,-0.98489684,2017-04-05 15:29:06,49.646915363066775
3.1447906,-0.78889465,10.174164,-0.0035247803,-0.031555176,0.4490509,83.0,0.24614982,-0.027400732,9.803522,1.2699294,-0.8562911,0.0035505295,-0.012599602,-8.5640134E-4,-0.98399234,2017-04-05 15:29:07,46.43621981315313
0.2685547,0.104141235,10.656586,0.025238037,-1.2108002,0.15184021,101.0,1.001827,0.030875804,9.755294,-0.47434783,-0.013124622,0.83628464,-0.046919618,-0.020419214,-0.92757213,2017-04-05 15:29:08,65.00468020370961
3.4584198,0.85113525,9.595169,0.20527649,0.27204895,0.40750122,68.0,4.2122507,0.03171872,8.855865,-0.8032961,0.7307525,0.9671583,-0.20603146,-0.093872435,-0.88789004,2017-04-05 15:29:09,65.98500032470287
5.887741,0.18196106,7.8741302,-0.18035889,0.18255615,-0.27426147,86.0,5.3001933,0.0063502835,8.2509575,0.4380417,0.19859979,-0.5341959,-0.24385327,-0.14090365,-0.8313751,2017-04-05 15:29:10,60.24450320185285
5.6263733,0.023147583,8.398453,-0.005645752,0.014251709,-0.007949829,70.0,5.4842114,0.012022102,8.129802,-0.042188168,0.013876239,0.038902283,-0.25771058,-0.13813311,-0.84384465,2017-04-05 15:29:11,55.025387862287715
5.578888,0.01914978,8.411224,-3.2043457E-4,-0.0027923584,-0.0026245117,68.0,5.43209,0.011400513,8.164721,-0.007580757,3.5274215E-4,-9.16481E-4,-0.25400954,-0.13854337,-0.8413162,2017-04-05 15:29:12,55.60552816992374
5.549759,0.0143585205,8.43956,-0.002456665,3.9672852E-4,-0.003692627,69.0,5.384609,0.0153661035,8.196104,0.014757156,-0.011313207,-0.013447762,-0.24970202,-0.14058404,-0.83618134,2017-04-05 15:29:13,50.47124804159359
5.544571,0.017959595,8.441956,-3.2043457E-4,-6.713867E-4,5.79834E-4,69.0,5.394877,0.008509351,8.18936,-0.008735657,0.010070282,0.010082245,-0.24845436,-0.14397667,-0.82953936,2017-04-05 15:29:14,38.220775237796126
5.556549,0.010772705,8.433182,-0.0013885498,0.002532959,-0.0026245117,68.0,5.396357,0.010184749,8.188382,-3.633499E-4,-0.0011047684,-0.0018119812,-0.24665917,-0.14720032,-0.82344866,2017-04-05 15:29:15,59.05303727708529
5.5844727,0.0047912598,8.396469,-3.2043457E-4,3.9672852E-4,-4.8828125E-4,67.0,5.4229097,0.013908398,8.170816,0.0025081635,-0.007135001,-0.014028549,-0.24647412,-0.15051515,-0.8183597,2017-04-05 15:29:16,62.01981906826869
5.5880737,0.011978149,8.414429,-3.2043457E-4,-6.713867E-4,-4.8828125E-4,67.0,5.4361577,0.010049536,8.162014,-0.006738186,0.0018939599,0.0023450851,-0.24747768,-0.15035921,-0.8189282,2017-04-05 15:29:17,57.959886403520656
5.6036224,0.0059814453,8.398865,-3.2043457E-4,0.0036010742,-4.8828125E-4,67.0,5.4389095,0.0073865545,8.160183,0.0040683746,-0.00878131,-0.0016527176,-0.24775292,-0.15021628,-0.8190966,2017-04-05 15:29:18,62.102882859876665
5.5952454,0.0143585205,8.403641,-3.2043457E-4,0.0014648438,-0.0015563965,67.0,5.434235,0.007034998,8.163298,0.0010967255,0.0105471825,-5.168915E-4,-0.24748604,-0.1501277,-0.81902903,2017-04-05 15:29:19,54.06384871100725
5.606018,0.0047912598,8.422806,0.0027618408,0.010559082,0.00390625,67.0,5.439324,0.00891664,8.159905,0.015380859,-0.0016409028,-0.04870701,-0.24898128,-0.14821915,-0.823207,2017-04-05 15:29:20,58.118543077579844
5.6191864,0.008377075,8.397659,-4.272461E-4,-9.1552734E-5,-3.5095215E-4,68.0,5.452633,0.008152937,8.151019,0.005567074,-0.0048059626,0.0124025345,-0.25019687,-0.1476997,-0.82472247,2017-04-05 15:29:21,61.43958553029758
5.5844727,0.0035858154,8.389282,0.0027618408,-0.015014648,7.171631E-4,67.0,5.4244604,0.009552234,8.169794,-3.2663345E-4,0.0053722225,0.04067135,-0.24900864,-0.14646213,-0.82605684,2017-04-05 15:29:22,56.577087317329145
5.6227875,-0.0023956299,8.40126,-4.272461E-4,0.0052337646,-3.5095215E-4,65.0,5.4561367,0.007409395,8.148675,0.0059461594,0.0012516784,-0.012573242,-0.25100684,-0.14672685,-0.82668,2017-04-05 15:29:23,60.289796171768856
5.6191864,0.011978149,8.386887,-4.272461E-4,0.002029419,-0.0014190674,65.0,5.464561,0.006627584,8.143029,0.0015106201,0.0039485553,0.0041618347,-0.2503051,-0.14889073,-0.82277983,2017-04-05 15:29:24,62.51303450525502
5.613205,0.010772705,8.398865,-0.0014953613,0.0073547363,-3.5095215E-4,65.0,5.454911,0.004153126,8.149497,0.005812168,-0.004978558,4.2819977E-4,-0.24948962,-0.1491516,-0.82162815,2017-04-05 15:29:25,51.959020252895996
5.620392,-0.0023956299,8.40126,-4.272461E-4,-0.001159668,7.171631E-4,65.0,5.449825,0.0065253507,8.152899,0.0045785904,-0.001975709,5.1498413E-4,-0.24908236,-0.14925092,-0.8214227,2017-04-05 15:29:26,49.04054050829363
5.616791,0.010772705,8.391678,-4.272461E-4,0.0030975342,-3.5095215E-4,64.0,5.4646525,0.0017170387,8.14297,0.011280537,-0.0033095835,-0.00538826,-0.2501837,-0.14910468,-0.82192653,2017-04-05 15:29:27,57.343133916404625
5.6539,-0.0035858154,8.368927,-0.0014953613,0.006286621,-0.0014190674,64.0,5.4840345,0.0031869186,8.12993,-0.0014271736,0.0029444185,0.004043579,-0.25130847,-0.14944243,-0.822236,2017-04-05 15:29:28,55.88817480319685
5.6814423,0.008377075,8.3390045,-4.272461E-4,-0.005432129,-3.5095215E-4,64.0,5.515325,0.0017832917,8.108735,0.005132675,-0.011082777,-0.007539749,-0.25329039,-0.14971165,-0.8229183,2017-04-05 15:29:29,59.08137289135121
5.6826324,0.0047912598,8.330627,-0.0025634766,0.008422852,-0.0035552979,63.0,5.5135508,-0.002197539,8.10994,0.008142471,-0.0033068429,-0.0034828186,-0.25334495,-0.14941368,-0.82306486,2017-04-05 15:29:30,63.39270337783846
5.6814423,-0.0071868896,8.355759,-0.0014953613,-0.0032958984,-0.0024871826,63.0,5.5062323,-4.970357E-4,8.114911,0.013447762,0.0058543566,-0.025913239,-0.2529465,-0.1495031,-0.8228677,2017-04-05 15:29:31,56.53141719512994
5.675461,0.015563965,8.40126,-0.004699707,0.008422852,-0.0056762695,63.0,5.517588,0.0031502543,8.107194,0.0019993782,2.3663533E-4,-0.0094127655,-0.2533737,-0.1498329,-0.8229009,2017-04-05 15:29:32,55.41320505056561
5.6706696,0.017959595,8.36055,-4.272461E-4,9.613037E-4,-3.5095215E-4,63.0,5.507746,-0.0043493235,8.113884,0.0035128593,-0.003180224,-6.2561035E-4,-0.2530756,-0.14919725,-0.8230474,2017-04-05 15:29:33,54.71091255232231
5.685028,-0.0059814453,8.334213,-4.272461E-4,9.613037E-4,-3.5095215E-4,63.0,5.516204,-1.8727417E-4,8.108136,0.009016514,0.0016576692,-0.009235382,-0.25342587,-0.14958416,-0.82302594,2017-04-05 15:29:34,47.003949052155455
5.691025,-0.0047912598,8.352173,6.4086914E-4,-0.001159668,-3.5095215E-4,63.0,5.513791,-0.0021621392,8.109777,0.0043530464,-0.007355879,0.00507164,-0.2533583,-0.14941889,-0.823068,2017-04-05 15:29:35,56.8724082647104
5.6826324,-0.0023956299,8.334213,6.4086914E-4,0.0041656494,-3.5095215E-4,63.0,5.5131326,0.0014221196,8.110226,0.012292385,0.0019385074,-0.009858131,-0.25317004,-0.14966136,-0.82289106,2017-04-05 15:29:36,52.55205361454658
5.6946106,0.0143585205,8.330627,-4.272461E-4,0.0041656494,7.171631E-4,63.0,5.5221496,0.0012933655,8.104089,0.010803223,9.1176387E-4,-0.01844883,-0.253732,-0.14975497,-0.82307726,2017-04-05 15:29:37,39.016818478712516
5.6778564,-0.0095825195,8.350983,6.4086914E-4,0.010559082,-3.5095215E-4,63.0,5.5153775,-9.520461E-4,8.108699,0.0020914078,-0.0072444263,-0.01399231,-0.25340635,-0.14952138,-0.8230444,2017-04-05 15:29:38,48.5364515724457
5.6718597,-0.0035858154,8.344986,-4.272461E-4,-9.1552734E-5,-3.5095215E-4,63.0,5.4978333,9.6065714E-4,8.1206045,-2.8896332E-4,-0.0017977868,0.009737015,-0.25224707,-0.14945175,-0.8226087,2017-04-05 15:29:39,51.62348778547805
5.680237,-0.0035858154,8.352173,-0.0014953613,0.0052337646,-3.5095215E-4,63.0,5.5122714,0.0024011652,8.11081,0.012164116,3.9688777E-4,0.0046873093,-0.25307658,-0.14971976,-0.8228291,2017-04-05 15:29:40,62.93052811585916
5.6790466,-0.0035858154,8.350983,-4.272461E-4,0.0030975342,-0.0014190674,63.0,5.505426,8.488063E-4,8.1154585,0.009477615,-0.003269268,-0.003586769,-0.25271878,-0.14953256,-0.82276404,2017-04-05 15:29:41,61.5031127622591
5.688629,0.008377075,8.34259,6.4086914E-4,-0.0022277832,7.171631E-4,63.0,5.5165424,0.0018979106,8.107905,0.0016131401,1.0576472E-4,0.0053071976,-0.25336084,-0.14973356,-0.82293737,2017-04-05 15:29:42,42.39495305536555
5.6874237,-0.0035858154,8.34259,6.4086914E-4,0.006286621,-3.5095215E-4,63.0,5.5119624,6.4726523E-4,8.11102,0.003983021,0.0038959095,-0.011356354,-0.25312763,-0.14956164,-0.8229158,2017-04-05 15:29:43,55.89144736081856
5.6874237,-0.0071868896,8.3414,-4.272461E-4,-0.0022277832,-3.5095215E-4,63.0,5.5141754,7.779108E-4,8.109517,0.005083084,-0.0016399317,-3.2901764E-4,-0.25326088,-0.14962836,-0.8229413,2017-04-05 15:29:44,52.228829120288395
5.6981964,-0.0047912598,8.330627,6.4086914E-4,-0.001159668,-3.5095215E-4,63.0,5.532881,-5.331506E-4,8.096766,0.0128650665,0.005477453,0.0063028336,-0.25447124,-0.1497472,-0.8233769,2017-04-05 15:29:45,48.34618531259409
5.7113647,0.0095825195,8.303085,-4.272461E-4,-0.001159668,7.171631E-4,63.0,5.54094,0.0023844151,8.091251,4.3010712E-4,-0.0022712324,0.011179924,-0.2548506,-0.15004042,-0.82340646,2017-04-05 15:29:46,52.84289226675317
5.723343,0.0071868896,8.309082,-4.272461E-4,0.0041656494,-0.0014190674,63.0,5.559296,0.0025003413,8.078651,0.0013327599,0.0010132599,-0.011714935,-0.25598717,-0.15024644,-0.82377607,2017-04-05 15:29:47,40.268726797678845
5.7221375,0.0059814453,8.32225,0.0027618408,-0.0043640137,0.0017852783,63.0,5.560876,0.0033391344,8.077563,0.0056853294,0.0031702055,-0.016580582,-0.25605097,-0.15032224,-0.82377005,2017-04-05 15:29:48,53.829861598332215
5.817917,0.0047912598,8.255203,0.0027618408,-0.022476196,0.00390625,62.0,5.6469364,0.0035716696,8.017635,0.0021681786,-0.006954884,-0.034332275,-0.26145813,-0.1511754,-0.8255816,2017-04-05 15:29:49,53.929948955150415
5.8250885,0.011978149,8.245636,-0.0014953613,-9.1552734E-5,-3.5095215E-4,58.0,5.6593375,0.0044653183,8.008887,0.0064926147,0.0010366398,-0.0064382553,-0.2622078,-0.1513522,-0.8258029,2017-04-05 15:29:50,51.75704899929079
5.8562164,0.0,8.209717,6.4086914E-4,-9.1552734E-5,7.171631E-4,58.0,5.6765394,0.0055390443,7.996703,0.00758934,0.004510278,-0.007314682,-0.26326212,-0.15157403,-0.8261331,2017-04-05 15:29:51,42.78072517723453
5.8789673,-0.0011901855,8.184586,6.4086914E-4,-0.0032958984,7.171631E-4,57.0,5.710095,0.0052549,7.972777,-0.0013422966,0.0047903266,0.0054101944,-0.2654303,-0.1518165,-0.82690024,2017-04-05 15:29:52,35.18063372466906
5.9124756,0.0,8.148666,-0.0014953613,9.613037E-4,-3.5095215E-4,56.0,5.7389183,0.008551985,7.952052,0.0026254654,-0.0030399738,-0.017861366,-0.26715958,-0.15226275,-0.8274079,2017-04-05 15:29:53,37.43459419123092
5.917267,0.0035858154,8.158249,6.4086914E-4,-9.1552734E-5,-3.5095215E-4,55.0,5.747941,0.0087669995,7.945533,0.0069789886,-3.8144737E-4,-0.00962925,-0.2677375,-0.15233915,-0.8276075,2017-04-05 15:29:54,55.434011445237175
5.8969116,0.0011901855,8.192963,-0.0014953613,0.006286621,-3.5095215E-4,54.0,5.7386427,0.0072835064,7.9522524,-9.045601E-4,-7.611681E-4,0.0034160614,-0.2671944,-0.15216812,-0.8274607,2017-04-05 15:29:55,53.565834335987276
5.898117,0.017959595,8.1809845,-4.272461E-4,-0.0043640137,-3.5095215E-4,56.0,5.7128663,0.011097349,7.970785,-0.0023736954,-0.001591078,0.01599598,-0.2653665,-0.15226187,-0.8266911,2017-04-05 15:29:56,32.10016961132895
5.8717804,0.008377075,8.206131,-0.008956909,0.018005371,-0.008880615,56.0,5.7115755,0.0029040899,7.971718,0.020853996,-0.0029552958,-0.03305435,-0.26615945,-0.15071383,-0.8287104,2017-04-05 15:29:57,57.281707525146544
5.8729706,0.0059814453,8.208527,6.4086914E-4,0.002029419,7.171631E-4,56.0,5.7011814,0.0040892833,7.9791536,0.009804726,-0.0041299746,-0.010627747,-0.26635194,-0.14910738,-0.83126336,2017-04-05 15:29:58,62.36845360109973
5.8562164,-0.0011901855,8.185776,-0.0036315918,0.0030975342,-0.0046081543,56.0,5.689418,0.0034400958,7.987547,0.0036325455,-5.308625E-4,-0.018200874,-0.2664988,-0.1472317,-0.83404636,2017-04-05 15:29:59,39.518649615128545
5.846634,0.0011901855,8.228867,-0.0014953613,0.0041656494,-0.0024871826,56.0,5.6734037,0.0036656396,7.9989285,0.009420395,0.0037507694,-0.009515762,-0.26513463,-0.14789103,-0.832406,2017-04-05 15:30:00,41.300702467347904
5.8095245,0.010772705,8.277954,-4.272461E-4,0.0030975342,-3.5095215E-4,56.0,5.6395307,0.0053416,8.022845,0.01683855,0.007778394,-0.010653496,-0.26200286,-0.14934264,-0.82877403,2017-04-05 15:30:01,57.76077186543389
5.796356,0.0047912598,8.240845,6.4086914E-4,0.002029419,7.171631E-4,58.0,5.625218,0.0052253786,8.032888,0.005147457,0.0020688442,-0.018518448,-0.2607893,-0.14975196,-0.8274948,2017-04-05 15:30:02,56.786897000812
5.81192,0.017959595,8.264786,0.0048980713,-0.010757446,0.0017852783,58.0,5.6360173,0.011184979,8.025308,-7.247925E-4,-0.0016337559,-0.022324562,-0.26087594,-0.15088709,-0.8263371,2017-04-05 15:30:03,53.08772240960951
5.743683,0.01914978,8.276749,0.0027618408,-0.0032958984,0.0028381348,60.0,5.5667925,0.014444751,8.073475,0.0026397705,3.2021757E-4,0.006989479,-0.25725895,-0.14894688,-0.8275325,2017-04-05 15:30:04,60.1984796257269
5.747284,0.022750854,8.303085,-0.0014953613,0.008422852,-0.0014190674,62.0,5.5830994,0.018415201,8.062199,0.0062503815,-0.0082097445,-0.0013427734,-0.25769782,-0.15011364,-0.82634395,2017-04-05 15:30:05,63.07467897446824
5.736511,0.0047912598,8.276749,6.4086914E-4,9.613037E-4,7.171631E-4,63.0,5.564883,0.013601671,8.074792,0.011898994,-0.0059449486,-0.01061821,-0.25752264,-0.14844131,-0.8284544,2017-04-05 15:30:06,63.95358451961286
5.717346,0.0035858154,8.318649,-4.272461E-4,0.0030975342,-3.5095215E-4,63.0,5.5418243,0.005666362,8.090645,0.004635334,-0.0022768201,0.013136864,-0.25631684,-0.14762653,-0.8282606,2017-04-05 15:30:07,42.87252953656113
5.697006,0.013168335,8.364151,-4.272461E-4,0.009490967,7.171631E-4,63.0,5.5463676,0.009391926,8.087527,0.009793282,8.3007757E-4,-0.004920006,-0.2564514,-0.14793085,-0.82819176,2017-04-05 15:30:08,33.10451343453417
5.707779,0.0047912598,8.317459,6.4086914E-4,9.613037E-4,7.171631E-4,63.0,5.540629,0.010670869,8.091459,0.0011839867,0.0029911278,-0.0025520325,-0.25604752,-0.14795297,-0.8280377,2017-04-05 15:30:09,48.48653232895103
5.71257,0.015563965,8.32225,6.4086914E-4,-0.0032958984,7.171631E-4,63.0,5.558374,0.01045775,8.07928,0.0023179054,6.919345E-4,0.00422287,-0.2571513,-0.14813708,-0.8283644,2017-04-05 15:30:10,52.58217647858594
5.7221375,0.0047912598,8.317459,-0.0025634766,0.0073547363,-0.0014190674,63.0,5.558055,0.006436913,8.079503,0.011358261,-0.0036494727,-0.016588211,-0.2572888,-0.14785957,-0.8285208,2017-04-05 15:30:11,52.98585242561114
5.7065735,0.01675415,8.3414,-4.272461E-4,-0.0022277832,7.171631E-4,63.0,5.5409102,0.005453561,8.091271,-0.001894474,0.005603938,0.008794785,-0.25630343,-0.14762343,-0.82825696,2017-04-05 15:30:12,56.86931516773872
5.697006,0.0095825195,8.36055,-0.004699707,0.012680054,-0.0035552979,63.0,5.5431275,0.0027347286,8.089754,0.003098011,0.0023129054,-0.027898788,-0.25651163,-0.14744198,-0.8284017,2017-04-05 15:30:13,58.14096727966229
5.7029877,-0.008377075,8.340195,-0.0014953613,-9.1552734E-5,-0.0014190674,63.0,5.5353227,0.0050941906,8.095095,1.7642975E-5,0.005300331,0.001499176,-0.2559387,-0.1475141,-0.82816774,2017-04-05 15:30:14,62.91714736625596
5.707779,0.017959595,8.347382,6.4086914E-4,-0.0064849854,-3.5095215E-4,63.0,5.5458794,0.0039527803,8.087867,-0.0048775673,0.0067026983,0.0063180923,-0.2566338,-0.14755556,-0.828402,2017-04-05 15:30:15,53.55895952986151
5.7029877,0.0,8.32225,-4.272461E-4,0.006286621,-3.5095215E-4,63.0,5.538171,0.0033562651,8.093147,0.0028381348,0.0062799673,-0.011227608,-0.25618193,-0.14742842,-0.82828826,2017-04-05 15:30:16,52.159684118055395
5.700592,0.0095825195,8.337814,-4.272461E-4,0.0052337646,-3.5095215E-4,63.0,5.534876,0.0027215215,8.095401,0.00915575,0.001959936,-0.021945,-0.25600383,-0.14734803,-0.8282551,2017-04-05 15:30:17,54.246931021127274
5.704193,0.0011901855,8.331818,-4.272461E-4,0.0030975342,-0.0014190674,63.0,5.534866,0.002993098,8.0954075,0.003923416,0.005235006,-0.008601189,-0.25599262,-0.14736634,-0.82824403,2017-04-05 15:30:18,50.7601307592722
5.695801,-0.0011901855,8.350983,9.1552734E-5,-0.004196167,-0.0018463135,63.0,5.5212474,0.0013541388,8.104703,-0.004436493,-9.97365E-4,0.003437996,-0.25521943,-0.14709926,-0.82806855,2017-04-05 15:30:19,50.485848473434906
5.6706696,0.0011901855,8.353363,0.001159668,-0.005264282,0.0013580322,63.0,5.5102935,0.002176755,8.112155,-0.0064058304,-0.0055065313,9.031296E-4,-0.2545157,-0.14702713,-0.82784295,2017-04-05 15:30:20,47.300328270963945
5.6622925,0.0023956299,8.3390045,0.001159668,-0.005264282,2.89917E-4,63.0,5.5089107,0.0012115096,8.113094,-5.5217743E-4,-1.6325689E-4,0.011221886,-0.25446868,-0.14694569,-0.82785743,2017-04-05 15:30:21,29.47271321270336
5.6467285,-0.0095825195,8.376114,0.001159668,0.0011291504,0.0013580322,63.0,5.4907575,-0.0017396843,8.12539,-7.991791E-4,0.0036210478,-0.0015535355,-0.25347418,-0.14653067,-0.82765925,2017-04-05 15:30:22,44.16450331872913
5.63356,-0.010772705,8.388092,-9.765625E-4,0.0011291504,2.89917E-4,63.0,5.474424,-3.1465135E-4,8.136403,0.005422592,-0.001536995,-0.0066070557,-0.2524239,-0.14642759,-0.82732075,2017-04-05 15:30:23,39.755484807548214
5.629959,0.0047912598,8.372528,0.001159668,6.1035156E-5,2.89917E-4,63.0,5.4752917,0.0015523816,8.13582,-0.006529331,-0.007762718,0.0076932907,-0.25240394,-0.14656357,-0.82726103,2017-04-05 15:30:24,49.881701779726185
5.629959,-0.0035858154,8.355759,9.1552734E-5,0.0011291504,2.89917E-4,63.0,5.47214,1.0652982E-4,8.13794,0.0043473244,-0.0060911216,-0.0012044907,-0.25226864,-0.14642766,-0.8272648,2017-04-05 15:30:25,55.04062757250971
5.645523,-0.008377075,8.382095,9.1552734E-5,-0.0063323975,2.89917E-4,63.0,5.4720607,0.0012976701,8.137994,-0.00737381,6.627254E-4,0.011579514,-0.2522174,-0.14650658,-0.8272158,2017-04-05 15:30:26,56.36861588924063
5.6156006,-0.0011901855,8.3797,9.1552734E-5,6.1035156E-5,0.0013580322,63.0,5.461816,-0.0019427428,8.144873,-0.0053343773,0.004975331,0.005665779,-0.2517138,-0.14617531,-0.8271448,2017-04-05 15:30:27,61.111419629835275
5.6239777,-0.0023956299,8.390472,0.001159668,0.0021972656,2.89917E-4,63.0,5.4555154,3.3024626E-4,8.149095,0.005091667,0.0020556308,0.0027942657,-0.25181958,-0.145254,-0.828843,2017-04-05 15:30:28,53.893976998635075
5.616791,0.0023956299,8.392868,0.001159668,-0.0010070801,2.89917E-4,63.0,5.4517074,-0.0028889272,8.151642,1.5115738E-4,-0.00224171,0.006822586,-0.25262064,-0.14340413,-0.8318989,2017-04-05 15:30:29,56.55718725161123
5.594055,-0.0023956299,8.404846,0.001159668,0.0011291504,2.89917E-4,63.0,5.435584,-0.0018360056,8.162403,0.0035142899,-1.9520824E-4,0.0052986145,-0.25112718,-0.14411256,-0.8300199,2017-04-05 15:30:30,49.79994716872527
5.5988464,-0.0035858154,8.407242,0.0022125244,0.0011291504,2.89917E-4,63.0,5.4301376,-0.0043962514,8.166025,0.002515316,0.0021007513,-0.0021162033,-0.2506512,-0.14430024,-0.8292184,2017-04-05 15:30:31,23.750717703590453
5.606018,-0.0047912598,8.416809,0.001159668,-0.0031280518,2.89917E-4,63.0,5.43741,-0.0044211084,8.161185,-0.005028248,-0.004099294,2.6798248E-4,-0.25146136,-0.14374477,-0.8305633,2017-04-05 15:30:32,23.746137534221642
5.635956,-0.0287323,8.355759,-9.765625E-4,0.0011291504,-0.0018463135,63.0,5.458938,9.980167E-4,8.146802,-4.6110153E-4,0.011102745,0.020893097,-0.25339487,-0.14289768,-0.83345544,2017-04-05 15:30:33,54.301900594946
5.621582,-0.0011901855,8.385696,-0.004180908,-0.0074005127,-0.0050354004,59.0,5.4684625,-0.002446615,8.140411,-0.004312992,0.0063501066,0.008276939,-0.25387523,-0.14318483,-0.832988,2017-04-05 15:30:34,62.98950324501611
5.5677185,-0.0047912598,8.35936,0.001159668,0.0021972656,2.89917E-4,58.0,5.435679,1.6917493E-4,8.162339,-6.580353E-4,-0.003988834,-0.0067100525,-0.25196,-0.1426628,-0.8329312,2017-04-05 15:30:35,56.94923525107369
5.5952454,-0.0035858154,8.412033,9.1552734E-5,-0.004196167,2.89917E-4,58.0,5.4384894,-0.0024272576,8.160467,-0.0024709702,-0.0019409161,-0.01035881,-0.25168025,-0.14348881,-0.8312635,2017-04-05 15:30:36,61.5040278182487
5.606018,-0.025146484,8.389282,9.1552734E-5,0.0032653809,2.89917E-4,58.0,5.438882,-0.0027451802,8.160205,-0.006781578,-0.0021015725,-0.0028944016,-0.25271803,-0.14170021,-0.83459467,2017-04-05 15:30:37,46.43354671567461
5.5832825,-0.010772705,8.416809,0.001159668,0.0032653809,2.89917E-4,58.0,5.422792,-0.0035054944,8.170905,-0.0014677048,-0.004091533,0.003923416,-0.2517753,-0.14145303,-0.834378,2017-04-05 15:30:38,52.25690212869538
5.550949,-0.0071868896,8.43837,-0.0035095215,0.0071411133,-0.002090454,58.0,5.409666,-0.008983006,8.179597,0.002348423,-0.009178363,0.004825592,-0.25118557,-0.14093406,-0.8343701,2017-04-05 15:30:39,45.75121677837484
5.5689087,-0.0095825195,8.423996,7.6293945E-4,-0.0035095215,0.0011138916,58.0,5.415591,-0.0059610577,8.175679,7.648468E-4,0.0025677243,-0.007930756,-0.2514315,-0.14120407,-0.83435464,2017-04-05 15:30:40,52.08334369523264
5.5210266,0.0023956299,8.614334,-0.018417358,0.048690796,-0.010604858,58.0,5.392259,-0.012834294,8.191078,0.01631689,0.003188013,-0.01821804,-0.2502816,-0.14046481,-0.8342436,2017-04-05 15:30:41,56.23776654031825
5.55455,-0.008377075,8.447937,7.6293945E-4,7.4768066E-4,0.0011138916,58.0,5.3953347,-0.010656442,8.189055,1.0967255E-4,0.0025324635,-0.0041389465,-0.2496828,-0.1418903,-0.83185893,2017-04-05 15:30:42,49.51420876572591
5.5713043,-0.0047912598,8.419205,7.6293945E-4,0.0018157959,4.5776367E-5,58.0,5.4120593,-0.0071564578,8.178017,-0.0024132729,0.0022272826,0.0020895004,-0.25020507,-0.14294977,-0.83082,2017-04-05 15:30:43,52.002833640784765
5.5605316,-0.0023956299,8.427597,-3.0517578E-4,0.005004883,0.0011138916,58.0,5.41051,-0.0062888484,8.179042,0.0033502579,9.809928E-4,-0.013095856,-0.24979414,-0.14348453,-0.8298136,2017-04-05 15:30:44,57.75683669871461
5.5677185,-0.0059814453,8.43837,7.6293945E-4,0.0018157959,4.5776367E-5,58.0,5.4148808,-0.006813476,8.176148,0.0025086403,-0.0021079918,0.0033836365,-0.25007576,-0.14350805,-0.8298996,2017-04-05 15:30:45,56.19749164027119
5.5844727,-0.008377075,8.406036,-3.0517578E-4,-3.2043457E-4,-0.0010223389,58.0,5.4113665,-0.0055499915,8.178475,0.0042715073,-0.003228228,-0.010681152,-0.2499047,-0.14351761,-0.82983863,2017-04-05 15:30:46,52.14694065931926
5.518631,-0.041900635,8.414429,-0.012023926,7.4768066E-4,-0.011672974,61.0,5.3504004,-0.032471854,8.218427,-0.003648281,-4.2700395E-4,0.030657768,-0.24781203,-0.13987865,-0.83196855,2017-04-05 15:30:47,30.06917751637255
5.8801575,-0.08380127,8.116348,-0.023742676,0.027374268,-0.032974243,59.0,5.4088664,-0.011445721,8.180123,0.094783306,-0.011264673,-0.082743645,-0.25088733,-0.14136946,-0.8333082,2017-04-05 15:30:48,63.033009732510536
5.538986,-0.008377075,8.441956,7.6293945E-4,-0.005645752,0.0011138916,58.0,5.380602,-0.007882979,8.198746,-0.009514809,0.005155815,0.0067386627,-0.24805862,-0.14299369,-0.829389,2017-04-05 15:30:49,59.450573602580675
5.517441,0.0059814453,8.467087,7.6293945E-4,-0.0035095215,4.5776367E-5,58.0,5.3755918,-0.004377507,8.202036,0.0038599968,-0.003687928,-0.0148124695,-0.24727398,-0.14376424,-0.827996,2017-04-05 15:30:50,52.32293878001764
5.517441,-0.0059814453,8.470688,7.6293945E-4,-0.0013885498,0.0011138916,58.0,5.3706203,-0.0036554928,8.205291,0.002851963,-0.001209789,-0.018886566,-0.24687253,-0.14387676,-0.82763016,2017-04-05 15:30:51,53.583001798417236
5.5365906,-0.0047912598,8.452728,7.6293945E-4,-3.2043457E-4,0.0011138916,58.0,5.376489,-0.0067346906,8.201445,0.0034861565,0.002545341,-0.0030097961,-0.24729934,-0.14382528,-0.8277035,2017-04-05 15:30:52,29.939519244661636
5.530609,-0.0071868896,8.459915,-2.4414063E-4,0.0037994385,5.187988E-4,58.0,5.370464,-0.0027676523,8.205395,-0.0046100616,-0.0025048964,-0.0029916763,-0.24688919,-0.14382991,-0.82779497,2017-04-05 15:30:53,47.670099399664196
5.5234222,0.0059814453,8.444351,-0.0013122559,0.0037994385,-0.0016174316,58.0,5.3718224,-0.006480597,8.204503,0.0056390762,0.0029813615,-0.0037975311,-0.24711087,-0.14360707,-0.8279546,2017-04-05 15:30:54,48.20697169844037
5.5449677,-0.008377075,8.437164,8.239746E-4,-0.0025939941,0.0015869141,58.0,5.3813634,-0.0062890733,8.198249,-0.004163742,-0.0054531363,0.0015068054,-0.2476716,-0.14375131,-0.8280934,2017-04-05 15:30:55,53.875599259951514
5.541382,-0.013168335,8.443146,8.239746E-4,0.0027313232,5.187988E-4,58.0,5.382318,-0.007044339,8.197621,4.5347214E-4,0.0031935293,0.0011959076,-0.24775715,-0.14371516,-0.82813627,2017-04-05 15:30:56,49.790208492859236
5.5437775,-0.011978149,8.441956,8.239746E-4,5.950928E-4,0.0015869141,58.0,5.3746357,-0.008449083,8.202659,0.005915642,4.4786837E-4,-0.005947113,-0.24735288,-0.1435178,-0.82807106,2017-04-05 15:30:57,51.94520893539939
5.5401764,0.0,8.449142,-2.4414063E-4,0.0037994385,5.187988E-4,58.0,5.374433,-0.010145077,8.202789,-4.3678284E-4,1.3616402E-4,-0.00807476,-0.24740511,-0.14340451,-0.8281313,2017-04-05 15:30:58,52.46626642932328
5.541382,-0.0059814453,8.453934,-2.4414063E-4,5.950928E-4,5.187988E-4,58.0,5.3752112,-0.008710993,8.202281,-0.002708435,1.6613677E-4,9.536743E-7,-0.24739708,-0.14350869,-0.82808965,2017-04-05 15:30:59,57.39334021528923
5.5198364,0.0035858154,8.474274,-0.0013122559,0.001663208,5.187988E-4,58.0,5.364273,-0.009264547,8.209438,-0.004781723,0.010552352,0.010191917,-0.24676766,-0.14332086,-0.82794356,2017-04-05 15:31:00,62.572569081326236
5.527008,-0.01914978,8.449142,8.239746E-4,-0.0025939941,5.187988E-4,58.0,5.3692594,-0.009539749,8.206177,-0.0010786057,0.006788913,0.008190155,-0.24707444,-0.14337234,-0.82802975,2017-04-05 15:31:01,64.0028023917292
5.5354004,0.0,8.446747,8.239746E-4,0.001663208,0.0015869141,58.0,5.369832,-0.0099897515,8.205803,0.010296822,-0.003501595,-0.019976616,-0.24712549,-0.14335099,-0.82805526,2017-04-05 15:31:02,51.73755273963526
5.515045,-0.010772705,8.455124,-0.002380371,0.008056641,-5.493164E-4,58.0,5.3552833,-0.013756291,8.2153,-0.0073490143,0.0028171018,0.004582405,-0.24640413,-0.1429032,-0.82797456,2017-04-05 15:31:03,54.74918625762327
5.522232,-0.017959595,8.440765,8.239746E-4,-0.0015258789,5.187988E-4,58.0,5.365811,-0.0108469175,8.208431,-0.005669117,0.01541603,0.0014257431,-0.24691896,-0.14323935,-0.82802594,2017-04-05 15:31:04,55.310316109351646
5.517441,-0.020355225,8.43956,8.239746E-4,-0.0015258789,0.0015869141,58.0,5.3564224,-0.014161121,8.214557,-9.1934204E-4,-0.003251181,0.011362076,-0.24648699,-0.14289287,-0.82800686,2017-04-05 15:31:05,54.666146590962086
5.5294037,-0.008377075,8.444351,8.239746E-4,-0.0036621094,5.187988E-4,58.0,5.3643403,-0.010392817,8.2093935,-0.005279541,-0.005988518,-0.005812645,-0.24686803,-0.14323136,-0.82801145,2017-04-05 15:31:06,59.83775551608397
5.5042725,-0.0047912598,8.445541,-0.0034484863,0.012313843,-0.0026855469,58.0,5.347254,-0.014172968,8.220527,-0.0015797615,-0.0055922214,2.965927E-4,-0.24594405,-0.1427631,-0.82786876,2017-04-05 15:31:07,51.81437202168438
5.5114594,-0.017959595,8.474274,8.239746E-4,-0.00579834,-5.493164E-4,58.0,5.3355365,-0.018441783,8.2281275,1.5926361E-4,0.0013884902,0.0015258789,-0.24454848,-0.14379938,-0.8249144,2017-04-05 15:31:08,63.63275132121008
5.5006714,-0.0143585205,8.455124,0.0029449463,-0.00579834,0.0015869141,58.0,5.3434463,-0.018472677,8.222994,-8.468628E-4,-0.004349567,-0.00607872,-0.24522412,-0.1435588,-0.82574105,2017-04-05 15:31:09,58.32759272370873
5.498291,-0.01914978,8.483856,0.001876831,-0.0015258789,0.0015869141,58.0,5.346661,-0.018913057,8.220903,0.007902145,-0.003268065,-0.011165619,-0.24499212,-0.14432414,-0.82431823,2017-04-05 15:31:10,60.94734871847776
5.510254,-0.008377075,8.455124,0.001876831,-0.00579834,0.0015869141,58.0,5.347027,-0.013398329,8.220676,-0.0049061775,0.0015819697,7.658005E-4,-0.24475633,-0.14476366,-0.8239598,2017-04-05 15:31:11,34.914363317843346
5.556946,-0.0059814453,8.373718,0.001876831,0.004852295,0.0015869141,58.0,5.3634257,-0.009248592,8.209991,0.031086922,-0.013667969,-0.024899483,-0.24506778,-0.14611198,-0.8223747,2017-04-05 15:31:12,54.93503334116302
5.5234222,-0.0143585205,8.444351,8.239746E-4,0.00592041,0.0015869141,58.0,5.3662467,-0.008471722,8.208149,0.0011711121,0.0018119179,-0.015589714,-0.2451865,-0.14623424,-0.8223281,2017-04-05 15:31:13,60.84898793265917
5.5294037,-0.0071868896,8.4335785,8.239746E-4,0.001663208,5.187988E-4,58.0,5.3571577,-0.009603336,8.214084,-0.0038399696,0.0027085226,0.0129003525,-0.24469566,-0.14602175,-0.82223904,2017-04-05 15:31:14,59.738611535816474
5.525818,-0.011978149,8.461105,8.239746E-4,0.001663208,5.187988E-4,58.0,5.3669715,-0.008865507,8.207674,1.077652E-4,-0.003486584,0.005088806,-0.24524447,-0.14621975,-0.82235396,2017-04-05 15:31:15,52.24849624311655
5.510254,-0.0071868896,8.462311,8.239746E-4,0.0037994385,0.0015869141,58.0,5.355571,-0.010846773,8.2151165,1.3494492E-4,-4.8337597E-4,-0.0029268265,-0.24465063,-0.14591683,-0.8222639,2017-04-05 15:31:16,54.9694340973446
5.525818,-0.0011901855,8.465897,-2.4414063E-4,5.950928E-4,5.187988E-4,58.0,5.3580446,-0.0110364575,8.213502,0.0033421516,-0.0023471834,-0.0024223328,-0.24481411,-0.14589842,-0.82232803,2017-04-05 15:31:17,39.45980376721189
5.5090637,0.0047912598,8.503006,8.239746E-4,-0.010055542,5.187988E-4,58.0,5.3627086,-0.0145108085,8.210452,-0.0066518784,-0.007140874,0.025148392,-0.24521244,-0.14578852,-0.8225093,2017-04-05 15:31:18,47.220640513835825
5.5234222,-0.0071868896,8.443146,-2.4414063E-4,0.009124756,0.0015869141,58.0,5.353541,-0.0085892575,8.216441,0.018836498,0.006509902,-0.035110474,-0.24444383,-0.14603181,-0.8221473,2017-04-05 15:31:19,62.47238065663758
5.5246277,0.0011901855,8.452728,0.001876831,5.950928E-4,0.0015869141,58.0,5.358733,-0.010079097,8.213055,-0.0035443306,0.0077278083,0.0010023117,-0.24480677,-0.14601511,-0.8222804,2017-04-05 15:31:20,53.93137914050062
5.522232,-0.017959595,8.469482,8.239746E-4,5.950928E-4,0.0015869141,58.0,5.3607616,-0.0069532795,8.211734,0.0031971931,0.012520858,0.009253502,-0.24480477,-0.14624885,-0.8221893,2017-04-05 15:31:21,58.1800453698845
5.5317993,-0.0059814453,8.426392,0.001876831,-0.0036621094,5.187988E-4,58.0,5.363606,-0.010438598,8.209872,-0.00278759,-0.004687136,0.004360199,-0.24510737,-0.14606634,-0.8223654,2017-04-05 15:31:22,64.2632875020835
5.55455,-0.015563965,8.447937,8.239746E-4,5.950928E-4,0.0015869141,58.0,5.3777294,-0.005001158,8.200634,-0.0063290596,6.044265E-4,-0.0075035095,-0.24572846,-0.14663415,-0.82236254,2017-04-05 15:31:23,60.78481631016152
5.5365906,-0.0059814453,8.451538,8.239746E-4,-0.0015258789,5.187988E-4,53.0,5.38819,-0.004632562,8.193765,-0.0013661385,0.0049843946,0.0044374466,-0.24633192,-0.14681576,-0.8225028,2017-04-05 15:31:24,55.768534735068265
5.565323,0.0011901855,8.410828,0.001876831,-0.0015258789,0.0015869141,48.0,5.40394,-0.0024439264,8.183387,-1.8882751E-4,-0.0053869593,8.621216E-4,-0.24717918,-0.14719328,-0.8226524,2017-04-05 15:31:25,49.75223925013633
5.5533447,-0.0023956299,8.43837,8.239746E-4,0.004852295,5.187988E-4,52.0,5.3987484,-0.0026986378,8.186812,-7.4625015E-4,0.0025810127,-7.4863434E-4,-0.24688146,-0.14709958,-0.82258475,2017-04-05 15:31:26,56.969358291115746
5.561737,-0.0071868896,8.426392,8.239746E-4,-0.0036621094,0.0015869141,57.0,5.3972154,-0.0034418844,8.187823,-0.00881815,0.0010895722,-0.0014944077,-0.24681959,-0.14702827,-0.82259077,2017-04-05 15:31:27,49.06022552932677
5.5629272,0.0035858154,8.431183,8.239746E-4,0.001663208,0.0015869141,57.0,5.399742,-0.0048279697,8.186156,8.611679E-4,0.0032027313,-0.0032367706,-0.24702317,-0.14697538,-0.82268226,2017-04-05 15:31:28,56.54469396290896
5.549759,-0.0011901855,8.43837,8.239746E-4,-4.7302246E-4,5.187988E-4,57.0,5.3905454,-0.0033624994,8.192215,-0.0048327446,0.004652548,-0.005355835,-0.24642181,-0.14693382,-0.8224885,2017-04-05 15:31:29,60.549639847944675
5.5593414,-0.0059814453,8.419205,8.239746E-4,-0.0015258789,5.187988E-4,57.0,5.40402,-0.003889458,8.183332,0.0042147636,-0.001654889,-0.0042304993,-0.2472402,-0.14710005,-0.82270974,2017-04-05 15:31:30,43.77460214778079
5.5605316,-0.0011901855,8.434769,-2.4414063E-4,-0.0015258789,5.187988E-4,56.0,5.394602,-0.003634479,8.189545,-0.0068569183,0.0013633738,0.0026168823,-0.24667238,-0.14697675,-0.8225593,2017-04-05 15:31:31,60.92401475121562
5.5844727,-0.0047912598,8.431183,-2.4414063E-4,5.950928E-4,0.0015869141,57.0,5.412225,-0.0027053682,8.17791,0.0082912445,0.0037169126,-0.005068779,-0.24768092,-0.14729841,-0.8227868,2017-04-05 15:31:32,63.71366587610148
5.5760956,-0.0035858154,8.429977,8.239746E-4,0.001663208,0.0015869141,56.0,5.4135623,-0.0030031446,8.177025,0.0033302307,5.694339E-5,-0.006720543,-0.24777193,-0.14729856,-0.8228185,2017-04-05 15:31:33,45.75061169262746
5.550949,0.0011901855,8.432373,8.239746E-4,-0.00579834,0.0015869141,56.0,5.4084525,-0.0010764138,8.180406,0.008020401,-0.0053030318,-0.024448395,-0.2475013,-0.14733967,-0.82270813,2017-04-05 15:31:34,53.77913410628697
5.566513,-0.0059814453,8.428787,-2.4414063E-4,-0.0025939941,-5.493164E-4,56.0,5.4181905,-0.0022861348,8.173958,0.0038461685,-0.008005395,0.0017280579,-0.24801905,-0.14741327,-0.82286036,2017-04-05 15:31:35,48.86147066534194
5.566513,0.0095825195,8.43837,-2.4414063E-4,0.0027313232,0.0015869141,56.0,5.412501,-0.00540876,8.177726,0.006474972,-0.0033254065,-0.015158653,-0.24780253,-0.14712563,-0.822896,2017-04-05 15:31:36,38.7977375603193
5.5880737,-0.0023956299,8.413223,-2.4414063E-4,0.001663208,5.187988E-4,56.0,5.4238067,-0.0054536136,8.170231,0.010663509,-0.010131016,-0.0025320053,-0.24847642,-0.14728753,-0.82306844,2017-04-05 15:31:37,54.88242225272022
5.585678,-0.0095825195,8.425201,8.239746E-4,0.001663208,5.187988E-4,56.0,5.4122267,-0.0012519835,8.177908,-0.0070137978,0.0070723984,0.01581955,-0.24762446,-0.14739351,-0.8227303,2017-04-05 15:31:38,59.350854747055635
5.5844727,-0.0059814453,8.445541,-2.4414063E-4,-4.7302246E-4,0.0015869141,56.0,5.4193335,-0.004518047,8.1732,0.0047154427,-0.004882955,-0.007959366,-0.24817389,-0.14728379,-0.82296443,2017-04-05 15:31:39,63.13559040979872
5.5988464,0.0,8.418015,8.239746E-4,0.0027313232,5.187988E-4,56.0,5.425925,-0.004595035,8.168825,0.0057492256,0.0033226907,0.0021371841,-0.24856907,-0.14737451,-0.8230672,2017-04-05 15:31:40,60.96251151280585
5.580887,-0.0059814453,8.404846,-2.4414063E-4,0.0069885254,5.187988E-4,56.0,5.4185467,-0.0059908354,8.17372,7.572174E-4,-9.718654E-4,-0.004299164,-0.24818443,-0.14717588,-0.8230097,2017-04-05 15:31:41,55.53706848790728
5.5952454,-0.011978149,8.395264,8.239746E-4,5.950928E-4,5.187988E-4,56.0,5.426943,-7.520839E-4,8.168151,-0.002828598,-0.0022771526,0.0014543533,-0.24847998,-0.14764126,-0.822933,2017-04-05 15:31:42,42.10425207229022
5.5737,0.0035858154,8.427597,-2.4414063E-4,0.004852295,5.187988E-4,56.0,5.4170423,-9.344034E-4,8.17472,0.001885891,-0.0030050818,-0.0053167343,-0.24789813,-0.14748497,-0.82279044,2017-04-05 15:31:43,52.22259486122851
5.597641,-0.0011901855,8.382095,-2.4414063E-4,-0.006866455,-5.493164E-4,56.0,5.420294,-0.007925513,8.172561,7.3575974E-4,-0.0067130663,-8.955002E-4,-0.24836357,-0.14707458,-0.8231113,2017-04-05 15:31:44,58.328131904377386
5.5760956,-0.0047912598,8.4216,8.239746E-4,-4.7302246E-4,5.187988E-4,56.0,5.4114323,-0.006472496,8.1784315,0.0028047562,-0.0060007107,0.0017404556,-0.24778047,-0.14704038,-0.8229212,2017-04-05 15:31:45,36.79742941098496
5.5533447,-0.008377075,8.43837,-2.4414063E-4,-4.7302246E-4,5.187988E-4,56.0,5.396873,-0.0057981308,8.188047,1.0728836E-4,-0.003855654,0.0030765533,-0.24689096,-0.14686945,-0.8226771,2017-04-05 15:31:46,47.070395977232366
5.5533447,-0.010772705,8.43837,-2.4414063E-4,0.004852295,5.187988E-4,56.0,5.391948,-0.0064988453,8.19129,-0.0017194748,-1.2539746E-4,-0.0070581436,-0.24662675,-0.14675039,-0.82263094,2017-04-05 15:31:47,53.5711428789621
5.5449677,-0.011978149,8.462311,-2.4414063E-4,0.0037994385,-5.493164E-4,56.0,5.381926,-0.00912954,8.197877,0.0015640259,0.009126602,-0.0060768127,-0.24613655,-0.14642891,-0.8225842,2017-04-05 15:31:48,62.06089357895603
5.549759,-0.0095825195,8.431183,8.239746E-4,5.950928E-4,5.187988E-4,56.0,5.3826494,-0.009235228,8.197402,-0.001376152,-2.2226851E-4,0.006181717,-0.24612388,-0.14640783,-0.8225879,2017-04-05 15:31:49,52.36011705347448
5.5354004,0.022750854,8.453934,8.239746E-4,-0.0025939941,5.187988E-4,56.0,5.3824944,-0.016901705,8.197491,1.5830994E-4,-0.027211726,-0.01860714,-0.2469329,-0.14514972,-0.8244439,2017-04-05 15:31:50,57.000247868008664
5.510254,-0.0047912598,8.475479,8.239746E-4,-0.006866455,-5.493164E-4,56.0,5.362827,-0.012559791,8.210379,-0.005716324,-0.0023509115,0.00805378,-0.24643038,-0.1437333,-0.82677555,2017-04-05 15:31:51,61.52025318747286
5.5198364,-0.0143585205,8.475479,8.239746E-4,-0.0015258789,0.0015869141,56.0,5.3649006,-0.014806322,8.209021,-0.0025715828,0.0032020723,0.014005661,-0.2474249,-0.14225814,-0.82954353,2017-04-05 15:31:52,58.063320681091355
5.5126495,-0.0071868896,8.485046,-0.0026550293,0.008590698,8.087158E-4,56.0,5.3493595,-0.016113365,8.219153,4.3582916E-4,0.0047268793,-0.0014257431,-0.24658382,-0.14190221,-0.82946867,2017-04-05 15:31:53,59.10185956034189
5.4970856,-0.008377075,8.480255,-5.187988E-4,0.0011291504,-2.593994E-4,58.0,5.34318,-0.021309229,8.22316,0.002014637,0.002262853,-0.0035476685,-0.24641183,-0.14148054,-0.8295649,2017-04-05 15:31:54,60.32798005669211
5.5126495,-0.013168335,8.451538,0.0016021729,6.1035156E-5,8.087158E-4,57.0,5.337227,-0.02131915,8.227024,0.005712509,0.007230602,-4.7969818E-4,-0.24508293,-0.14308332,-0.8261534,2017-04-05 15:31:55,49.911915287959935
5.477936,-0.0143585205,8.523361,-0.0026550293,0.008590698,-0.0013275146,58.0,5.3150067,-0.023493756,8.241392,0.005393982,0.0056207497,-0.0073986053,-0.2448453,-0.14091393,-0.82928413,2017-04-05 15:31:56,50.11568164021001
5.462372,-0.0287323,8.476669,-0.0037231445,0.0053863525,-0.0023956299,58.0,5.3024225,-0.029499324,8.249475,0.004225731,-0.0014660936,-0.011755943,-0.24361482,-0.14158274,-0.8268638,2017-04-05 15:31:57,29.896208208213736
5.4695587,-0.029922485,8.491043,-0.0015869141,-0.0010070801,8.087158E-4,58.0,5.2926326,-0.031347837,8.255752,-0.0017127991,0.0054195076,0.02007103,-0.24345653,-0.14072211,-0.82798135,2017-04-05 15:31:58,26.04092678812767
5.451599,-0.03112793,8.532928,-0.0026550293,0.0053863525,-0.0013275146,58.0,5.2920756,-0.031470057,8.256108,-0.007013321,-9.686835E-4,0.004972458,-0.24349855,-0.14058475,-0.8282194,2017-04-05 15:31:59,49.38319386914021
5.4456177,-0.025146484,8.560471,-0.0015869141,0.0043182373,-2.593994E-4,58.0,5.289314,-0.03353642,8.25787,0.0045371056,-0.008271139,-0.02679348,-0.24357511,-0.14013197,-0.8288109,2017-04-05 15:32:00,50.739851556190246
5.446808,-0.029922485,8.505402,5.493164E-4,0.0032653809,8.087158E-4,58.0,5.294471,-0.029843852,8.254579,3.0851364E-4,0.012716869,0.012290001,-0.24373999,-0.14044367,-0.8287525,2017-04-05 15:32:02,34.52390028584445
5.463562,-0.029922485,8.486252,0.0037384033,-0.0105896,8.087158E-4,56.0,5.2914805,-0.0312575,8.256491,0.0052027702,0.0039793625,0.021948814,-0.24361746,-0.14030915,-0.82876086,2017-04-05 15:32:02,51.17212291001805
5.4216766,-0.0574646,8.508987,-0.010116577,0.018173218,-0.0023956299,57.0,5.239545,-0.051525436,8.289446,0.0144815445,0.013125248,0.008010864,-0.24167433,-0.13765694,-0.8299279,2017-04-05 15:32:04,57.11914301844773
5.3941345,-0.05267334,8.555679,-0.0015869141,0.0043182373,-2.593994E-4,58.0,5.2331867,-0.051040675,8.293464,3.3044815E-4,7.925555E-5,-0.020155907,-0.24061103,-0.13877092,-0.82744557,2017-04-05 15:32:05,55.489312781142395
5.379776,-0.056259155,8.544907,-0.0037231445,0.011779785,-0.0013275146,58.0,5.2105055,-0.054443058,8.307711,0.0060100555,0.0018086135,-0.027644157,-0.2392773,-0.13845946,-0.8267295,2017-04-05 15:32:06,44.94002734048677
5.31752,-0.070632935,8.564056,0.005874634,-0.009521484,0.001876831,63.0,5.1479516,-0.071776785,8.346486,0.0017633438,-0.0041186363,-0.029129028,-0.23662949,-0.135846,-0.8275827,2017-04-05 15:32:07,51.96354161617922
5.249283,-0.099365234,8.689758,-0.0026550293,0.011779785,-2.593994E-4,63.0,5.092143,-0.092300475,8.380449,-0.001329422,-9.064898E-4,0.011735916,-0.23408319,-0.13386944,-0.8271132,2017-04-05 15:32:08,53.110993809092015
5.249283,-0.10055542,8.6706085,-0.0015869141,0.0021972656,-2.593994E-4,63.0,5.0909553,-0.09835563,8.381103,-0.0018982887,0.0022073835,-0.0043678284,-0.2338442,-0.13416693,-0.82589567,2017-04-05 15:32:09,55.62500484179815
5.115219,-0.16281128,8.710098,0.0079956055,-0.011657715,0.0029296875,63.0,4.9689198,-0.13630413,8.453499,-0.010155678,0.004654661,-0.013466835,-0.22911246,-0.1284484,-0.8283874,2017-04-05 15:32:10,54.44510326665724
5.0182495,-0.1771698,8.881287,-0.025024414,0.053329468,-0.0087890625,63.0,4.9000096,-0.15057401,8.493387,0.026027203,0.020676106,-0.03242016,-0.22618133,-0.12569724,-0.8295092,2017-04-05 15:32:11,57.86685662046513
5.0350037,-0.1771698,8.781937,-0.0026550293,0.007522583,-2.593994E-4,64.0,4.87969,-0.15620707,8.504976,-0.0015659332,9.293556E-4,-0.0046224594,-0.22556463,-0.12444887,-0.83065754,2017-04-05 15:32:12,44.13160985661791
5.017044,-0.17837524,8.781937,5.493164E-4,0.0021972656,0.0029296875,64.0,4.860356,-0.16205613,8.515931,0.0025596619,0.003753692,-0.0099544525,-0.22412315,-0.124808684,-0.8282914,2017-04-05 15:32:13,46.15187955008917
4.98114,-0.18675232,8.795105,-0.0037231445,0.006454468,-0.0023956299,64.0,4.827408,-0.17240232,8.534449,-0.0056962967,0.005879894,0.010671616,-0.22250192,-0.12392399,-0.82749635,2017-04-05 15:32:14,55.03222565619247
4.972763,-0.18075562,8.796295,-0.0015869141,0.007522583,8.087158E-4,64.0,4.815853,-0.17833646,8.540852,-0.0067806244,-0.0051176846,0.012630463,-0.22144784,-0.124493495,-0.8249799,2017-04-05 15:32:15,47.22790894085258
4.9392395,-0.18315125,8.83461,-0.0026550293,0.0096588135,-0.0013275146,65.0,4.7919993,-0.18014804,8.55422,0.0070033073,0.0068140626,-0.01027298,-0.22021012,-0.12395029,-0.8247304,2017-04-05 15:32:16,51.46339227870138
4.8757935,-0.21907043,8.866928,0.0016021729,-0.0020599365,8.087158E-4,66.0,4.7330146,-0.1998731,8.58656,-0.0021409988,0.003745526,-0.0035419464,-0.21760103,-0.12188961,-0.8241574,2017-04-05 15:32:17,54.49422471975846
4.8374786,-0.23942566,8.8358,-5.187988E-4,0.0011291504,-2.593994E-4,66.0,4.6901927,-0.2137101,8.609693,-0.0023245811,-0.0016616434,0.0022468567,-0.21466194,-0.12203102,-0.8196147,2017-04-05 15:32:18,50.25911515305979
4.727356,-0.2454071,8.947128,-0.012237549,0.02670288,-0.0034637451,67.0,4.5857487,-0.24771264,8.664868,0.007414341,-4.941225E-4,-0.019997597,-0.21133384,-0.11641605,-0.82352495,2017-04-05 15:32:19,53.90882022503029
4.6866455,-0.2633667,8.979446,-0.0015869141,0.006454468,-0.0013275146,68.0,4.544147,-0.25601253,8.686517,0.0050206184,7.416904E-4,0.0031833649,-0.20909014,-0.11572477,-0.82178545,2017-04-05 15:32:20,64.3461066794273
4.6507416,-0.28370667,9.005783,-0.0026550293,0.0096588135,-2.593994E-4,69.0,4.507867,-0.2707594,8.704953,0.0071287155,-5.443096E-4,-0.00308609,-0.208091,-0.11344179,-0.82357603,2017-04-05 15:32:21,62.00900636997045
4.509079,-0.31802368,9.064453,5.493164E-4,0.0043182373,8.087158E-4,70.0,4.367639,-0.31645182,8.774621,0.004576683,3.3771992E-4,-0.01108551,-0.20225292,-0.108224735,-0.8227674,2017-04-05 15:32:22,54.933458989614614
4.459198,-0.331604,9.088394,-0.0047912598,0.0096588135,-0.0034637451,70.0,4.3227644,-0.3294573,8.796338,0.0033359528,0.0047440827,0.0135269165,-0.19997102,-0.10692581,-0.82139164,2017-04-05 15:32:23,56.32347765174905
4.4065247,-0.3651123,9.081207,-0.0037231445,0.0128479,8.087158E-4,71.0,4.2620673,-0.3446044,8.825329,-0.002773285,0.0039720833,-0.007716179,-0.19760853,-0.1048063,-0.8214472,2017-04-05 15:32:24,59.991365288419246
4.378998,-0.35794067,9.129089,5.493164E-4,-0.0020599365,8.087158E-4,71.0,4.23393,-0.34722057,8.838759,0.0021157265,0.0016749799,9.794235E-4,-0.19626251,-0.10416985,-0.82099044,2017-04-05 15:32:25,63.50823547775213
4.2700653,-0.39144897,9.19014,-0.0026550293,0.011779785,-2.593994E-4,71.0,4.1390834,-0.3841791,8.882048,-0.007434368,0.0029207468,-0.0043325424,-0.19237278,-0.10066922,-0.81934935,2017-04-05 15:32:26,52.779933563059195
4.143173,-0.43574524,9.23085,-0.0015869141,0.007522583,8.087158E-4,72.0,4.012372,-0.41889557,8.938444,0.005402565,0.004513383,0.0074977875,-0.18716803,-0.09609533,-0.81862354,2017-04-05 15:32:27,52.942499620131365
4.0940857,-0.45489502,9.244019,-0.0047912598,0.007522583,-0.0034637451,73.0,3.9565902,-0.43550497,8.962483,0.0020198822,0.0074620247,-0.005883217,-0.18472844,-0.0944241,-0.81710505,2017-04-05 15:32:28,56.91287460889434
3.9468384,-0.5063782,9.30986,0.0016021729,6.1035156E-5,0.0029296875,73.0,3.8180792,-0.47484112,9.020376,-0.0033516884,-0.0015631616,0.0058612823,-0.17960386,-0.0884945,-0.81869787,2017-04-05 15:32:29,51.88982666171917
3.8486786,-0.52671814,9.351746,-0.0047912598,0.0096588135,-0.0013275146,74.0,3.739641,-0.50281864,9.051665,0.0048282146,0.0019569993,0.0013656616,-0.17648552,-0.085710965,-0.81709653,2017-04-05 15:32:30,39.01473391343888
3.8055878,-0.54348755,9.375687,-0.0015869141,0.0021972656,-0.0013275146,74.0,3.6925433,-0.5210086,9.069954,-0.0027749538,-9.865761E-4,0.005543709,-0.17481749,-0.08366545,-0.81706756,2017-04-05 15:32:31,57.238333744743386
3.6715088,-0.5805969,9.442734,-0.0015869141,0.011779785,8.087158E-4,74.0,3.5617263,-0.5607252,9.119763,0.0027940273,0.0040233135,-4.3678284E-4,-0.16969524,-0.07889875,-0.81551623,2017-04-05 15:32:32,64.0403420844359
3.6104584,-0.5877838,9.4379425,-0.0026550293,0.0053863525,-2.593994E-4,74.0,3.5035381,-0.57446265,9.141422,7.2574615E-4,-0.0011652708,0.0029010773,-0.16690238,-0.077851005,-0.8117915,2017-04-05 15:32:33,50.48554532378078
3.4213104,-0.6488342,9.715668,-0.046325684,0.117248535,-0.010910034,74.0,3.3692994,-0.62770486,9.188264,0.045924187,-0.0034419894,-0.08390427,-0.1623035,-0.07201729,-0.811214,2017-04-05 15:32:34,57.15312238407988
3.1599426,-0.7541809,9.603943,-0.0047912598,0.014984131,-2.593994E-4,74.0,3.055495,-0.72260314,9.290435,0.0074300766,-0.0041763783,0.012494087,-0.15106867,-0.0591431,-0.8113914,2017-04-05 15:32:35,58.83713180174379
3.047821,-0.7852936,9.628281,-0.005844116,0.019241333,8.087158E-4,74.0,2.9536572,-0.76091826,9.320262,-0.0131008625,0.004019141,0.025927544,-0.1472725,-0.05576436,-0.80709416,2017-04-05 15:32:36,56.317244048670844
4.3913574,-0.28451538,8.811462,0.052734375,-0.14907837,-0.0023956299,74.0,4.235614,-0.3032207,8.839572,-0.08695698,-0.020228416,0.14076424,-0.18845327,-0.11744215,-0.78856486,2017-04-05 15:32:37,54.41721240136471
4.649933,-0.16600037,9.237228,0.041015625,-0.093673706,0.013595581,73.0,4.496264,-0.18829574,8.713125,-0.06057787,-0.023626909,0.024785042,-0.19826563,-0.12823811,-0.79313016,2017-04-05 15:32:38,55.81158031167949
5.7500763,0.21188354,8.188568,0.1795044,-0.41964722,0.21279907,64.0,6.0767293,0.027926827,7.696946,-0.6465721,0.16905683,0.35584784,-0.2785034,-0.17320755,-0.80448556,2017-04-05 15:32:39,51.810917437927785
5.650711,-0.20191956,8.436371,0.48417664,0.59555054,0.7017517,33.0,5.41692,0.079742976,8.174412,0.10881233,-0.046700224,-0.5666628,-0.2604435,-0.1240572,-0.87039626,2017-04-05 15:32:40,45.47924544965542
5.585678,0.09376526,8.532135,0.061264038,-0.011657715,0.09135437,60.0,5.4379954,0.035579093,8.160718,0.09819603,0.17754932,0.34841633,-0.27552465,-0.09082986,-0.9107691,2017-04-05 15:32:41,60.40773143727079
5.5317993,0.075424194,8.422409,5.493164E-4,-0.008453369,8.087158E-4,70.0,5.392033,0.06256478,8.190998,-0.024362564,0.012280613,0.044895172,-0.27823648,-0.0704258,-0.931306,2017-04-05 15:32:42,63.42066483641177
5.1611023,0.07102966,8.710098,-5.187988E-4,0.0011291504,-2.593994E-4,82.0,5.012061,0.06646485,8.428832,-2.5510788E-4,0.004639514,0.008319855,-0.26038966,-0.049461,-0.9496003,2017-04-05 15:32:43,62.6733212437413
5.0972595,0.06942749,8.747223,5.493164E-4,0.0096588135,-2.593994E-4,87.0,4.942765,0.06774563,8.469644,0.001745224,0.0056177527,0.00850296,-0.25774348,-0.041673154,-0.9549609,2017-04-05 15:32:44,63.361365339208845
4.859436,0.070632935,8.886871,5.493164E-4,6.1035156E-5,8.087158E-4,93.0,4.712306,0.07027252,8.5999775,0.008676052,2.348274E-4,-0.0027780533,-0.24491847,-0.039218742,-0.9587415,2017-04-05 15:32:45,53.21803374998733
4.8530426,0.07661438,8.916,-5.187988E-4,0.0053863525,-2.593994E-4,95.0,4.6983943,0.06806355,8.607604,0.0069437027,0.005596511,0.027727127,-0.24439704,-0.03606736,-0.9605905,2017-04-05 15:32:46,60.32683119062912
4.7955933,0.07901001,8.919601,5.493164E-4,0.0053863525,-2.593994E-4,95.0,4.6477118,0.06696016,8.635084,-3.633499E-4,0.0033431575,-0.0075912476,-0.24177557,-0.035746515,-0.9611894,2017-04-05 15:32:47,60.59949370758063
4.76326,0.068237305,8.939957,5.493164E-4,0.014984131,-2.593994E-4,95.0,4.611113,0.06562447,8.654694,-4.4822693E-4,0.0010804236,-0.0012483597,-0.23964523,-0.03610553,-0.96132135,2017-04-05 15:32:48,49.868123495345706
4.7105865,0.070632935,8.971069,5.493164E-4,6.1035156E-5,8.087158E-4,95.0,4.563276,0.06681338,8.680002,-0.009065628,0.006411262,5.9890747E-4,-0.23687373,-0.036522575,-0.96157837,2017-04-05 15:32:49,60.89278707610296
4.656723,0.05506897,8.978256,-5.187988E-4,-0.0010070801,8.087158E-4,95.0,4.5072527,0.06829193,8.709213,-2.5177002E-4,-0.00406982,0.0068569183,-0.2335132,-0.037752986,-0.961405,2017-04-05 15:32:50,54.834359048736275
4.660309,0.065841675,9.004593,5.493164E-4,-0.004196167,8.087158E-4,95.0,4.51081,0.06671908,8.707384,0.0010590553,0.0023054853,0.004588127,-0.23374677,-0.03726383,-0.96163905,2017-04-05 15:32:51,58.07339500808304
4.6459503,0.06703186,9.010574,-5.187988E-4,0.0053863525,8.087158E-4,95.0,4.4928885,0.06655574,8.716645,0.0076289177,-0.0068827495,0.0040607452,-0.23294,-0.03624528,-0.96236825,2017-04-05 15:32:52,62.03061983141046
4.6986237,0.053863525,9.03212,-5.187988E-4,-0.029769897,8.087158E-4,95.0,4.545008,0.065634765,8.6895895,-0.016645432,0.0056979135,-0.017148972,-0.23634419,-0.035971314,-0.96197176,2017-04-05 15:32:53,65.8229078551877
4.965973,0.060653687,8.794296,-5.187988E-4,-0.16291809,-2.593994E-4,87.0,4.8679466,0.078563415,8.512773,-0.08628845,-0.015951179,0.077898026,-0.25418878,-0.036197655,-0.9588879,2017-04-05 15:32:54,56.29307925273791
4.7900085,0.06982422,8.927582,5.493164E-4,-0.0010070801,-2.593994E-4,87.0,4.639967,0.06862584,8.6392355,-9.045601E-4,-0.0049237534,0.013557434,-0.24145702,-0.034897428,-0.9617566,2017-04-05 15:32:55,28.301724976657844
4.802765,0.05986023,8.912415,5.493164E-4,6.1035156E-5,8.087158E-4,88.0,4.639828,0.06527293,8.639336,0.009386539,0.0066201463,0.0033302307,-0.24147618,-0.034723587,-0.9617584,2017-04-05 15:32:56,58.873331324908776
4.7967834,0.06463623,8.936356,5.493164E-4,0.007522583,-2.593994E-4,88.0,4.646379,0.06328715,8.635829,0.00774765,-0.0062107146,-0.015785217,-0.24180686,-0.0349957,-0.9614972,2017-04-05 15:32:57,59.722619428835486
4.791992,0.058654785,8.9279785,-5.187988E-4,0.0021972656,8.087158E-4,88.0,4.6371613,0.06491269,8.64077,0.0015630722,-0.0010626167,-7.419586E-4,-0.24125807,-0.035183586,-0.9615367,2017-04-05 15:32:58,64.9974103709205
4.84227,0.063446045,8.887283,-5.187988E-4,-0.004196167,-2.593994E-4,87.0,4.679084,0.062475625,8.618158,-0.0011224747,-0.0017649829,0.011044502,-0.24366987,-0.034570187,-0.9613519,2017-04-05 15:32:59,63.32114217296692
4.8195343,0.061050415,8.93396,5.340576E-4,0.0035858154,6.4086914E-4,86.0,4.6635256,0.06270889,8.626586,0.0090966225,-8.1303716E-4,-0.0034303665,-0.24281123,-0.034774095,-0.9614197,2017-04-05 15:33:00,66.19001990478152
4.8219147,0.061050415,8.902832,5.340576E-4,0.001449585,6.4086914E-4,86.0,4.6636186,0.0624178,8.626537,0.0030574799,0.007901341,0.0039367676,-0.24281867,-0.034757532,-0.9614195,2017-04-05 15:33:01,65.1099966649482
4.8327026,0.075424194,8.91362,-5.340576E-4,0.0046539307,6.4086914E-4,86.0,4.670589,0.063906595,8.622754,0.0026106834,0.008167841,0.0019903183,-0.24321538,-0.03475835,-0.96138597,2017-04-05 15:33:02,56.40059437781274
4.811142,0.06463623,8.91481,5.340576E-4,0.001449585,-4.272461E-4,86.0,4.662289,0.06563803,8.627233,-0.0030460358,-0.002827622,-0.0185318,-0.24271894,-0.034944087,-0.9614231,2017-04-05 15:33:03,55.45151131808147
4.811142,0.061050415,8.910019,-5.340576E-4,0.0046539307,-4.272461E-4,86.0,4.662726,0.06595804,8.626994,0.011380196,0.0015015975,8.8977814E-4,-0.24274223,-0.034956247,-0.9614209,2017-04-05 15:33:04,53.65036631717993
4.8171387,0.070632935,8.91481,-5.340576E-4,0.0035858154,6.4086914E-4,86.0,4.6643844,0.06300174,8.626119,0.011102676,-0.0011354759,-0.012811661,-0.24285936,-0.034780055,-0.9614155,2017-04-05 15:33:05,58.13656573871877
4.8123474,0.061050415,8.899246,-5.340576E-4,-0.010269165,-4.272461E-4,86.0,4.6610665,0.061719615,8.627921,0.0043816566,0.0021620393,-0.012470245,-0.24267454,-0.034748923,-0.9614318,2017-04-05 15:33:06,55.16856953734765
4.8255157,0.06225586,8.874115,-5.340576E-4,3.8146973E-4,-4.272461E-4,86.0,4.6682262,0.062334772,8.624045,0.004480362,-2.97755E-4,0.0016841888,-0.24308819,-0.03470127,-0.9613982,2017-04-05 15:33:07,61.93921890434224
4.818329,0.061050415,8.906433,5.340576E-4,0.0035858154,-4.272461E-4,87.0,4.6620774,0.061432,8.6273775,0.002090454,-0.0077283084,-0.0073871613,-0.2427355,-0.034722276,-0.9614274,2017-04-05 15:33:08,63.69139609068068
4.799179,0.06703186,8.911224,5.340576E-4,0.001449585,6.4086914E-4,86.0,4.663347,0.063882165,8.626675,7.033348E-4,-0.004312046,-0.0018110275,-0.24279273,-0.03483864,-0.96141964,2017-04-05 15:33:09,60.57667608440974
4.809952,0.06703186,8.901642,5.340576E-4,-6.713867E-4,6.4086914E-4,86.0,4.6637917,0.06260796,8.626442,0.0010490417,8.470863E-4,0.010294914,-0.24282748,-0.034765724,-0.96141857,2017-04-05 15:33:10,61.45510726443379
4.7931976,0.06463623,8.911224,5.340576E-4,0.008911133,-4.272461E-4,86.0,4.6509414,0.061245166,8.6333885,0.008870602,-0.0032951161,-0.01419735,-0.24208708,-0.034836397,-0.9614783,2017-04-05 15:33:11,54.0299443892481
4.7979736,0.058654785,8.91362,5.340576E-4,-0.006011963,6.4086914E-4,86.0,4.6471295,0.06587162,8.635406,0.0024762154,-0.004586667,-0.014286041,-0.2418327,-0.03512523,-0.9614917,2017-04-05 15:33:12,63.65351862490797
4.794388,0.0574646,8.930374,-5.340576E-4,0.01637268,-4.272461E-4,87.0,4.6458077,0.06305111,8.636138,0.015398979,0.003610313,-0.02525425,-0.2417752,-0.034989413,-0.9614999,2017-04-05 15:33:13,60.02473371647551
4.6782684,0.04788208,9.03212,5.340576E-4,0.036605835,6.4086914E-4,91.0,4.5205317,0.058122106,8.702402,0.0043377876,0.0029855557,0.03528118,-0.23489721,-0.033530332,-0.9633788,2017-04-05 15:33:14,62.224141846986385
4.560959,0.063446045,9.03093,-5.340576E-4,0.0025177002,6.4086914E-4,95.0,4.431843,0.059847973,8.7478895,0.007890701,0.0010326989,0.0054359436,-0.2299426,-0.033289034,-0.96439356,2017-04-05 15:33:15,54.210883743806136
4.5717316,0.063446045,9.015366,-5.340576E-4,-0.0049438477,6.4086914E-4,95.0,4.418212,0.06374676,8.754755,-0.0083088875,0.006961845,-0.0059461594,-0.2292948,-0.032490525,-0.9650618,2017-04-05 15:33:16,47.82207066157251
4.581299,0.06463623,9.021347,-5.340576E-4,0.0025177002,-4.272461E-4,96.0,4.437483,0.06441331,8.744998,0.005970955,5.737692E-4,0.008202553,-0.23035093,-0.032675046,-0.96480066,2017-04-05 15:33:17,55.969792611886646
4.5849,0.0574646,9.017761,5.340576E-4,0.0035858154,-4.272461E-4,96.0,4.4484544,0.06169383,8.739441,0.0013079643,-0.002465576,-0.008713722,-0.23100124,-0.032418184,-0.96475816,2017-04-05 15:33:18,63.69436707385232
4.578903,0.06225586,9.005783,-5.340576E-4,0.0035858154,6.4086914E-4,96.0,4.4355154,0.06363756,8.746001,7.90596E-4,-0.0048985183,-1.7166138E-5,-0.23024283,-0.032653812,-0.9648092,2017-04-05 15:33:19,54.764713287551345
4.577713,0.056259155,9.010574,5.340576E-4,-0.0049438477,-4.272461E-4,96.0,4.4362307,0.06402108,8.745636,0.0017046928,-0.0066876635,0.011745453,-0.23028144,-0.032666933,-0.964806,2017-04-05 15:33:20,53.25790185486693
4.581299,0.065841675,9.017761,5.340576E-4,0.0035858154,-4.272461E-4,95.0,4.4361334,0.0576641,8.745729,4.925728E-4,0.0064582005,-0.0045690536,-0.23031864,-0.032330003,-0.96481144,2017-04-05 15:33:21,55.234605664863174
4.5849,0.056259155,9.010574,-5.340576E-4,-0.0028076172,-4.272461E-4,95.0,4.437355,0.061440915,8.745084,0.0045080185,0.0013642311,0.00826931,-0.23036356,-0.032518342,-0.9648036,2017-04-05 15:33:22,63.200699041513964
4.5836945,0.05506897,9.026138,5.340576E-4,0.0025177002,-4.272461E-4,95.0,4.4311233,0.060702316,8.748248,0.003303051,0.0022741035,0.008316994,-0.23000973,-0.03254227,-0.9648291,2017-04-05 15:33:23,62.90634466003568
4.557358,0.068237305,9.01297,5.340576E-4,0.0025177002,6.4086914E-4,96.0,4.423756,0.061221194,8.751972,0.0021591187,0.004608892,-0.013236046,-0.22958216,-0.03264402,-0.96485776,2017-04-05 15:33:24,51.8750563747783
4.5513763,0.05986023,9.010574,0.0015869141,0.0046539307,-4.272461E-4,95.0,4.4133797,0.060739987,8.757213,0.008600235,-0.013592556,0.010608673,-0.22898841,-0.032721892,-0.96489835,2017-04-05 15:33:25,43.194147790183834
4.522644,0.0574646,9.064453,-5.340576E-4,0.0035858154,-4.272461E-4,95.0,4.3715506,0.063166544,8.7781515,0.0038318634,3.3148378E-4,-0.004322052,-0.2266282,-0.03284045,-0.9652818,2017-04-05 15:33:26,50.92952967792296
4.4484253,0.075424194,9.075226,-5.340576E-4,0.001449585,-4.272461E-4,95.0,4.3117213,0.061867476,8.807703,0.0020513535,0.0023722798,0.0041208267,-0.22332214,-0.03254813,-0.96593285,2017-04-05 15:33:27,65.5735268991327
4.4017334,0.070632935,9.107544,5.340576E-4,0.0035858154,0.0017089844,95.0,4.2765326,0.06062615,8.82485,0.0044384003,-0.0063156486,-9.918213E-5,-0.22143407,-0.03201282,-0.9665012,2017-04-05 15:33:28,65.07638977352693
4.3909607,0.068237305,9.107544,-5.340576E-4,-6.713867E-4,6.4086914E-4,95.0,4.255926,0.05915345,8.834816,0.0033130646,-4.541576E-4,0.0033035278,-0.22049664,-0.030651463,-0.96739787,2017-04-05 15:33:29,60.176208202928635
4.378998,0.073028564,9.123108,5.340576E-4,0.001449585,6.4086914E-4,95.0,4.2518315,0.06237341,8.836765,0.0074806213,-0.002476573,-0.006547928,-0.22021519,-0.030913193,-0.96737903,2017-04-05 15:33:30,63.0912655298315
4.3861847,0.056259155,9.118317,5.340576E-4,3.8146973E-4,-4.272461E-4,95.0,4.252073,0.060832467,8.83666,0.0027275085,0.0010082424,0.0010070801,-0.2202392,-0.030828776,-0.9673796,2017-04-05 15:33:31,37.160805910713144
4.3825836,0.070632935,9.131485,5.340576E-4,-0.0028076172,-4.272461E-4,95.0,4.2479644,0.063639514,8.838616,0.0077667236,0.0035853162,-0.00902462,-0.2199859,-0.031019319,-0.96738994,2017-04-05 15:33:32,38.64904426628263
4.3813934,0.06225586,9.142258,5.340576E-4,0.001449585,-4.272461E-4,95.0,4.243045,0.0635322,8.84098,-9.6321106E-4,4.2496622E-4,-0.019985199,-0.21966939,-0.031318553,-0.96726245,2017-04-05 15:33:33,53.44906861288023
4.3622284,0.06942749,9.124298,5.340576E-4,0.0025177002,-4.272461E-4,95.0,4.236406,0.062733166,8.844169,-0.004009247,0.003612496,-0.004904747,-0.21933794,-0.03104469,-0.9674492,2017-04-05 15:33:34,61.067870980807044
4.361038,0.06942749,9.147049,5.340576E-4,0.001449585,6.4086914E-4,95.0,4.214266,0.061853886,8.854746,0.0058226585,-0.002175428,-0.0016078949,-0.21821688,-0.030249035,-0.96805423,2017-04-05 15:33:35,62.12159168674642
4.316742,0.06225586,9.150635,-5.340576E-4,-0.0028076172,6.4086914E-4,96.0,4.1863947,0.06515977,8.867933,-0.0014066696,0.0017193556,-0.003376007,-0.21660627,-0.030707639,-0.96813035,2017-04-05 15:33:36,65.1749969035011
4.3119507,0.06463623,9.173386,-5.340576E-4,3.8146973E-4,6.4086914E-4,97.0,4.1757684,0.06203933,8.872965,-0.0031967163,-0.0081318915,4.7683716E-5,-0.2158853,-0.03159523,-0.96761376,2017-04-05 15:33:37,65.35901963145476
4.3035736,0.06942749,9.156631,5.340576E-4,3.8146973E-4,6.4086914E-4,97.0,4.171672,0.06375597,8.874879,0.0034985542,-0.0011569932,0.0043907166,-0.21554987,-0.032332033,-0.96725965,2017-04-05 15:33:38,53.13157453358461
4.304779,0.075424194,9.17218,5.340576E-4,0.0025177002,6.4086914E-4,97.0,4.162817,0.062892966,8.879042,0.00744009,-7.048249E-5,-8.583069E-4,-0.21507867,-0.032373477,-0.9672815,2017-04-05 15:33:39,60.37011137884292
4.3035736,0.07182312,9.162613,5.340576E-4,0.0035858154,-4.272461E-4,97.0,4.161275,0.06455135,8.879753,0.0076580048,-0.0033987612,0.0017023087,-0.21495298,-0.032462638,-0.96728516,2017-04-05 15:33:40,60.887586808642126
4.3071747,0.06703186,9.163803,5.340576E-4,0.0025177002,6.4086914E-4,97.0,4.1673226,0.062187213,8.876933,8.363724E-4,-0.0015079901,0.004986763,-0.21531378,-0.032285526,-0.9672725,2017-04-05 15:33:41,65.35864418115412
4.2951965,0.07421875,9.173386,5.340576E-4,0.0035858154,-4.272461E-4,96.0,4.1600366,0.06320341,8.8803425,0.0034160614,-6.765425E-4,0.0035505295,-0.21489228,-0.032401267,-0.96728975,2017-04-05 15:33:42,60.92215203795304
4.3023834,0.0574646,9.17218,5.340576E-4,0.001449585,-4.272461E-4,96.0,4.1671205,0.06323382,8.87702,0.0030226707,-0.0055234283,-0.009028435,-0.2152948,-0.032342985,-0.96727186,2017-04-05 15:33:43,59.874812475440166
4.3191376,0.06942749,9.160217,5.340576E-4,0.005706787,-4.272461E-4,96.0,4.170324,0.06208484,8.8755245,0.004514694,0.0073097497,-3.7002563E-4,-0.21548514,-0.03225454,-0.96726495,2017-04-05 15:33:44,24.25679388997212
4.2916107,0.0574646,9.175781,5.340576E-4,0.007843018,0.0017089844,97.0,4.1532207,0.060598537,8.883551,-0.011129379,-0.003807716,-0.008943558,-0.21452369,-0.032319643,-0.96730936,2017-04-05 15:33:45,58.428075790656536
4.280838,0.06942749,9.179367,5.340576E-4,0.005706787,6.4086914E-4,97.0,4.1542573,0.064984724,8.883035,0.0077052116,-0.0026729852,-0.004794121,-0.21455096,-0.03254465,-0.96730196,2017-04-05 15:33:46,64.60552045367544
4.024658,0.0011901855,9.165009,0.005859375,0.02809143,0.008087158,98.0,4.1011252,0.06797117,8.907667,0.0119977,-2.7272105E-4,0.0069847107,-0.21155645,-0.03285167,-0.9675964,2017-04-05 15:33:47,55.175843162869704
4.1798706,0.061843872,9.209305,5.340576E-4,0.007843018,-4.272461E-4,97.0,4.0420494,0.061880957,8.934673,0.0087509155,0.0026828721,-0.0074014664,-0.20862931,-0.03053257,-0.96926856,2017-04-05 15:33:48,61.71398484122803
4.1683044,0.06703186,9.223663,0.0015869141,0.0025177002,6.4086914E-4,97.0,4.037526,0.0642639,8.936701,0.002318859,0.0018969402,0.0018196106,-0.2084832,-0.02982923,-0.96979696,2017-04-05 15:33:49,58.3653960303241
4.138382,0.058654785,9.227249,-5.340576E-4,0.0025177002,-4.272461E-4,97.0,4.002631,0.06556484,8.952376,0.0030732155,0.0036136433,-2.2602081E-4,-0.20660694,-0.02948627,-0.97030264,2017-04-05 15:33:50,34.70503057212798
4.114441,0.070632935,9.244019,-5.340576E-4,3.8146973E-4,-4.272461E-4,97.0,3.9810274,0.063909344,8.962015,0.0064196587,-7.701814E-4,-0.0026798248,-0.20539673,-0.02960683,-0.9703393,2017-04-05 15:33:51,60.66116221643106
4.108444,0.08140564,9.255981,-5.340576E-4,0.001449585,6.4086914E-4,97.0,3.9677544,0.06935851,8.96786,0.0051193237,0.0017326623,-0.0038995743,-0.20468962,-0.029983602,-0.9703507,2017-04-05 15:33:52,64.77425539897077
4.083313,0.070632935,9.2595825,-0.0012664795,-0.0054016113,-0.0012054443,98.0,3.9567375,0.0695412,8.972724,-0.0043320656,-0.002818942,-0.0042877197,-0.20398577,-0.030136371,-0.97036654,2017-04-05 15:33:53,62.64148616620869
4.052185,0.082595825,9.281128,0.004058838,0.00843811,0.0019836426,99.0,3.9229126,0.07836435,8.987491,8.95977E-4,0.008148707,0.011335373,-0.20201227,-0.030927664,-0.9703859,2017-04-05 15:33:54,65.68402749094132
4.016266,0.07182312,9.296692,-1.9836426E-4,9.918213E-4,0.0019836426,99.0,3.886696,0.07178402,9.003267,-0.0054354668,0.0031149238,0.013689995,-0.1999883,-0.031077148,-0.9703031,2017-04-05 15:33:55,64.37165090529183
3.91333,0.07421875,9.331406,8.544922E-4,-7.6293945E-5,9.3078613E-4,97.0,3.7931828,0.07130691,9.043067,-0.012657404,0.0067691505,0.005637169,-0.19522853,-0.028595682,-0.97248983,2017-04-05 15:33:56,64.28685952055702
4.7572784,0.45729065,9.187744,0.10418701,0.32589722,0.25445557,96.0,3.7015336,0.05992274,9.081049,-0.3100903,-0.13449979,-0.026003838,-0.19043119,-0.027043266,-0.973686,2017-04-05 15:33:57,60.323480047237695
4.7608643,0.662796,8.451538,0.058380127,0.07342529,-0.09814453,96.0,4.77672,0.6942595,8.53647,-0.0913744,-0.061358154,-0.31836128,-0.24699013,-0.061294362,-0.9623499,2017-04-05 15:33:58,50.37486003911813
3.1136627,-0.18954468,8.996613,-1.012207,-1.1164703,-0.40068054,93.0,4.5226884,-0.60666543,8.680301,-1.7469702,0.6626828,-0.5143328,0.21899137,-0.059859198,0.96204674,2017-04-05 15:33:59,45.7878951115302
4.598465,0.297287,10.689316,0.6890259,1.0971375,0.28108215,92.0,3.3523164,2.2130296,8.946221,1.5041118,-1.6131063,-0.8093939,-0.1660946,-0.12760203,-0.9753137,2017-04-05 15:34:00,51.54238152261213
5.2429047,1.0418701,8.530945,0.009384155,-0.020324707,0.020095825,89.0,5.1388264,0.9202258,8.301569,-0.06899595,0.10939354,-0.06888676,-0.26943418,-0.06436638,-0.9592881,2017-04-05 15:34:01,54.663535067994886
5.021042,1.1021271,8.710098,0.009384155,0.013763428,0.01902771,90.0,4.8503513,1.1027862,8.4515295,-0.0075569153,-5.784035E-4,-0.03437519,-0.25097817,-0.07811469,-0.96188897,2017-04-05 15:34:02,52.93615608765399
5.0493774,0.91178894,8.74881,-0.014053345,-0.0032806396,-0.0022735596,93.0,4.889367,0.90577286,8.452458,-0.0032186508,-0.01977843,0.011679649,-0.25368163,-0.06848498,-0.9617356,2017-04-05 15:34:03,40.84840985073499
4.9643707,0.846344,8.805878,0.012573242,0.026550293,0.0019836426,92.0,4.7769704,0.8864725,8.518516,0.02242899,-0.02218479,0.008130074,-0.24727565,-0.0673152,-0.96333224,2017-04-05 15:34:04,58.00588024859216
4.759674,0.87028503,8.9279785,0.015777588,0.040405273,0.026489258,96.0,4.6278796,0.85803795,8.603307,-0.011900902,0.015489459,0.0069293976,-0.2383997,-0.067223616,-0.9647833,2017-04-05 15:34:05,59.93434453772104
4.672287,0.9421234,8.929169,-0.008728027,-0.010726929,-0.00440979,97.0,4.533309,0.9093208,8.6482725,0.011346817,0.005803585,-0.006752968,-0.23325947,-0.06819681,-0.9663954,2017-04-05 15:34:06,65.26994037688995
4.610031,0.8379669,9.038116,-0.00340271,0.00843811,0.010513306,98.0,4.455267,0.84162664,8.695554,-0.017667294,0.01763302,-0.037335396,-0.22920789,-0.06413976,-0.9676602,2017-04-05 15:34:07,59.88781293343234
4.4484253,0.7685394,9.059662,0.007247925,0.018035889,0.010513306,99.0,4.321206,0.7564462,8.77071,0.008806229,-0.020787656,0.015623093,-0.22210273,-0.059064567,-0.96958387,2017-04-05 15:34:08,55.6374024796571
4.4484253,0.8547363,9.084793,-0.0129852295,-0.022445679,-0.009735107,100.0,4.3173943,0.8300093,8.765933,-0.027895927,0.03182906,-0.027356148,-0.2218385,-0.062044274,-0.96977496,2017-04-05 15:34:09,20.007187052220484
4.3897705,0.84036255,9.117126,-0.006591797,0.004180908,0.01902771,100.0,4.2659087,0.8402887,8.790126,-0.002761364,-0.008365035,0.012683868,-0.21928014,-0.06119235,-0.970807,2017-04-05 15:34:10,48.680330980512736
4.387375,0.76374817,9.107544,-0.007659912,-0.0054016113,-0.0012054443,101.0,4.244338,0.75718683,8.808102,-0.010504246,-0.017445326,0.032434464,-0.21869363,-0.05554197,-0.9716755,2017-04-05 15:34:11,58.69942555324111
4.2473145,0.8128357,9.144653,0.04133606,0.038269043,0.039276123,100.0,4.10059,0.85108626,8.867424,0.04645729,-0.08483696,-0.0021095276,-0.2101697,-0.060958393,-0.97282237,2017-04-05 15:34:12,47.43425092568699
4.2836304,0.8974304,9.120316,0.005126953,-0.004333496,-0.0012054443,102.0,4.164122,0.8418602,8.838651,-0.0058088303,-0.008525789,0.044026375,-0.21375126,-0.060536273,-0.97215897,2017-04-05 15:34:14,48.32484582752069
4.079727,0.69911194,9.326614,-0.014053345,-0.025650024,0.0030517578,103.0,4.010124,0.67803466,8.92354,0.021534443,-0.08175206,0.02754879,-0.20486051,-0.05530167,-0.9727124,2017-04-05 15:34:14,59.59824432414223
4.2317505,0.628479,9.11792,0.013641357,-0.0022125244,-1.373291E-4,102.0,4.0819855,0.63665545,8.893955,-0.02546835,0.053237677,-0.01897335,-0.20966324,-0.050752178,-0.9731122,2017-04-05 15:34:15,62.01645394587879
3.9839478,0.79966736,9.315842,-0.0012664795,-0.008605957,0.00944519,104.0,3.879583,0.76356566,8.9741955,-0.035386086,0.0031718016,0.038477898,-0.19802399,-0.05683183,-0.9750028,2017-04-05 15:34:16,61.49499725695385
3.9348755,0.6871338,9.350952,-0.0129852295,-0.020324707,0.0051879883,106.0,3.8918967,0.6625411,8.976891,-0.020399332,8.755922E-5,0.07633686,-0.19939704,-0.050465632,-0.97554564,2017-04-05 15:34:18,61.47142291490623
3.957611,0.6356659,9.282318,-0.021514893,-0.06399536,-0.026779175,106.0,3.8485568,0.6332762,8.997664,-0.04138589,-0.04182923,0.013741493,-0.19759718,-0.04661207,-0.97676396,2017-04-05 15:34:19,63.28623468471147
3.4779816,0.65042114,9.557648,0.004058838,-0.017120361,-0.021453857,107.0,3.441596,0.6210687,9.161881,0.030700684,-0.037145495,0.018221855,-0.17520414,-0.04612705,-0.9803372,2017-04-05 15:34:20,55.78318577440612
3.5948944,0.425766,9.624695,-1.9836426E-4,-0.008605957,0.0051879883,108.0,3.5031457,0.4754995,9.147254,0.041363478,-0.065476,0.12734795,-0.17752421,-0.039593484,-0.9801699,2017-04-05 15:34:21,55.02146639337912
4.115631,0.1703949,9.268356,0.014709473,0.012710571,-0.020385742,103.0,3.9438324,0.23537646,8.975587,0.03634739,-0.06520189,-0.015183449,-0.20428845,-0.025271263,-0.97661424,2017-04-05 15:34:21,52.043879707694636
3.9859467,0.2861023,9.325424,0.03175354,0.089401245,0.033950806,100.0,3.8456976,0.30442402,9.016004,-0.0014672279,0.011330277,-0.025821686,-0.1987478,-0.028479189,-0.977673,2017-04-05 15:34:23,47.65049693685462
3.4811707,0.32920837,9.560043,8.544922E-4,0.036132813,0.03074646,104.0,3.3903313,0.31787905,9.1964655,-0.025084972,-0.017960012,0.034129143,-0.1738594,-0.029725863,-0.98149145,2017-04-05 15:34:23,56.173408540507744
3.4719849,0.37069702,9.502182,-0.00340271,-0.004333496,-0.010787964,106.0,3.3713284,0.33871627,9.202706,-0.015054226,-0.0018137991,0.040843964,-0.17291716,-0.029870076,-0.9820085,2017-04-05 15:34:25,62.210605607989066
3.4165192,0.3435669,9.56604,-0.007659912,-7.6293945E-5,-0.0012054443,108.0,3.3240056,0.34906578,9.219519,-0.01680398,0.014335632,-0.0091667175,-0.1703878,-0.030056044,-0.9825085,2017-04-05 15:34:26,63.10989992927525
3.344696,0.29328918,9.661804,-0.017242432,-0.004333496,0.016906738,108.0,3.309945,0.3240382,9.22549,-0.007033825,-0.023526847,-0.01722145,-0.16982096,-0.028138975,-0.98288804,2017-04-05 15:34:27,51.95772695213446
3.4165192,0.3423767,9.515747,8.544922E-4,-0.0064697266,-0.017181396,106.0,3.3039987,0.3080294,9.2281685,-0.02726078,0.0357548,0.011400223,-0.16981435,-0.025640456,-0.9835482,2017-04-05 15:34:28,59.9149308401
3.430893,0.36871338,9.521744,0.004058838,-0.0022125244,9.3078613E-4,107.0,3.315422,0.35724688,9.222296,-0.012317419,-0.007550806,0.025615692,-0.17023674,-0.028517306,-0.9832977,2017-04-05 15:34:29,65.8160992485453
3.4093475,0.3256073,9.531311,-1.9836426E-4,0.010574341,0.012649536,108.0,3.3053572,0.33676726,9.226678,0.0058288574,0.005579263,-0.007460594,-0.1698363,-0.026943939,-0.98357064,2017-04-05 15:34:30,64.15650909953476
3.3734283,0.25378418,9.591171,0.007247925,-0.0054016113,-0.007598877,106.0,3.2862487,0.26778063,9.235759,-0.0065546036,-0.0035605729,0.0064115524,-0.16892365,-0.023919329,-0.98360354,2017-04-05 15:34:31,59.916836364881654
3.4225159,0.38786316,9.481033,0.005126953,-0.011795044,-0.008666992,106.0,3.3126364,0.34257627,9.223853,-0.0067625046,0.0062630475,0.028900146,-0.16993208,-0.028938873,-0.98291016,2017-04-05 15:34:32,52.416454089075344
3.4033508,0.35194397,9.56842,-1.9836426E-4,-0.0022125244,0.008377075,106.0,3.2965312,0.35435516,9.2291765,0.0021178722,-0.010985255,0.035772324,-0.16904962,-0.029413952,-0.983076,2017-04-05 15:34:33,48.864656520501626
3.4129333,0.28849792,9.564835,-1.9836426E-4,-0.0032806396,-0.008666992,107.0,3.277925,0.3102583,9.237388,-0.012078524,0.028094351,-0.039221764,-0.16815123,-0.027376365,-0.98316866,2017-04-05 15:34:34,52.01345245736274
3.4093475,0.43933105,9.538498,0.018966675,-0.0032806396,-0.00440979,108.0,3.2974815,0.40581965,9.226717,-0.005680084,0.002569288,0.017024994,-0.16908734,-0.03127008,-0.98330766,2017-04-05 15:34:35,50.825331831067324
3.3722382,0.4908142,9.530121,-0.007659912,-7.6293945E-5,0.013702393,108.0,3.261112,0.5117401,9.234374,0.0021779537,0.0069572926,0.003604889,-0.16687667,-0.03647124,-0.9835585,2017-04-05 15:34:36,59.586026646087134
3.3359222,0.42497253,9.574814,0.013641357,-0.0022125244,-0.007598877,108.0,3.231939,0.40291604,9.250007,0.0039987564,0.0028119683,-0.014508247,-0.16587375,-0.029442048,-0.9843934,2017-04-05 15:34:37,64.37070803562119
3.3506927,0.49679565,9.544479,-0.00340271,-0.0022125244,-1.373291E-4,108.0,3.2512536,0.48619786,9.239228,0.0020411015,0.035614014,-0.019187927,-0.16682766,-0.033150747,-0.98430705,2017-04-05 15:34:38,55.01277833635381
3.3722382,0.42497253,9.607925,-0.011917114,0.004180908,0.008377075,108.0,3.2667687,0.46389273,9.234901,-0.006999731,-0.041609883,0.05118847,-0.16760482,-0.032552622,-0.9840469,2017-04-05 15:34:39,50.35613567698692
3.3267365,0.41059875,9.583984,0.0029907227,-0.0032806396,-0.0033416748,108.0,3.2356262,0.38799718,9.249355,9.1958046E-4,-0.034865767,0.011363983,-0.16632807,-0.027369976,-0.9847474,2017-04-05 15:34:40,52.87849060412643
3.3590698,0.4812317,9.593567,0.00831604,-0.0011444092,-0.012924194,108.0,3.2624474,0.46547657,9.23635,-0.0068688393,0.0015074313,-0.037085533,-0.16763026,-0.031262215,-0.9844578,2017-04-05 15:34:41,57.99918379728189
3.3770142,0.57699585,9.518143,0.0029907227,-0.0032806396,-1.373291E-4,108.0,3.2730727,0.52695495,9.229284,-0.012243032,-0.005132973,0.02264309,-0.16787605,-0.035426937,-0.98401994,2017-04-05 15:34:42,64.5828462991197
3.3494873,0.53749084,9.534912,-0.0012664795,-0.0022125244,0.010513306,108.0,3.2460191,0.5021859,9.240214,-0.012880564,-0.008354366,0.012310028,-0.16660456,-0.03351298,-0.98445594,2017-04-05 15:34:43,65.82491891276811
3.3770142,0.5590515,9.534912,0.007247925,-0.0032806396,-0.009735107,109.0,3.2615294,0.53882116,9.232685,-0.0074238777,0.013377249,0.010724068,-0.16738908,-0.035283778,-0.98430485,2017-04-05 15:34:44,64.30440694768676
3.375824,0.5710144,9.56723,-0.0012664795,9.918213E-4,-1.373291E-4,109.0,3.2656794,0.5614399,9.229871,-0.009435654,0.0071058273,0.004140854,-0.167392,-0.037249066,-0.9840184,2017-04-05 15:34:45,58.81334114842474
3.336319,0.5530548,9.539703,-0.008728027,-7.6293945E-5,0.012649536,109.0,3.2407608,0.5263783,9.240714,-0.0011005402,-0.0075217485,0.019039154,-0.16621727,-0.03559993,-0.98426384,2017-04-05 15:34:46,63.68560853573691
3.3411102,0.5410919,9.60434,0.011520386,-0.0032806396,-0.019317627,109.0,3.2573016,0.55722374,9.233086,0.0032880306,0.021910727,-0.013569832,-0.16707937,-0.036443435,-0.9842577,2017-04-05 15:34:47,54.70880153684089
3.3638458,0.5877838,9.600754,-0.007659912,9.918213E-4,-0.00440979,109.0,3.2646966,0.59343237,9.228217,-0.008152962,0.029700994,0.0034761429,-0.16740528,-0.038306307,-0.9841401,2017-04-05 15:34:48,57.28932179071978
3.3566742,0.549469,9.519348,-0.006591797,0.0063171387,0.011581421,109.0,3.2375653,0.5502438,9.240443,-9.7489357E-4,-0.026357949,0.027795792,-0.16598362,-0.036303725,-0.9843727,2017-04-05 15:34:49,61.711470500574144
3.367447,0.5506592,9.54808,-0.0012664795,-0.0011444092,-0.008666992,109.0,3.2550373,0.5570801,9.233893,-0.016327858,5.375147E-4,0.02108574,-0.16719045,-0.034892682,-0.9846534,2017-04-05 15:34:50,62.16402313913533
3.368637,0.6260834,9.538498,0.0029907227,-0.0032806396,9.3078613E-4,109.0,3.2671733,0.6109723,9.226195,-0.0032627583,-0.0028761625,-0.027813911,-0.16757745,-0.038894217,-0.9841727,2017-04-05 15:34:51,48.36488755146221
3.3411102,0.61291504,9.544479,-0.006591797,0.003112793,0.011581421,109.0,3.2326176,0.6190608,9.237821,-0.0013892651,-0.00659281,-0.0073928833,-0.16552047,-0.040064927,-0.9842443,2017-04-05 15:34:52,54.15152569687052
3.3387146,0.5694275,9.587982,0.01789856,-0.0032806396,-0.009735107,109.0,3.229408,0.5461282,9.243542,-0.007135153,0.009360433,0.009161949,-0.16588789,-0.036492564,-0.9843338,2017-04-05 15:34:53,43.25967348132448
3.368637,0.65960693,9.555252,-0.0012664795,-0.0022125244,-0.0065307617,109.0,3.2616005,0.6162749,9.227815,-0.0076055527,0.012411535,2.193451E-5,-0.16700457,-0.04027268,-0.9839079,2017-04-05 15:34:54,58.014335217151604
3.3542786,0.5566559,9.550476,-0.020446777,-0.007537842,0.022232056,109.0,3.2408032,0.56265885,9.238561,0.01812005,-0.020575285,0.033042908,-0.16601717,-0.037454203,-0.9841805,2017-04-05 15:34:55,55.57864547029931
3.3506927,0.57580566,9.58638,-0.0012664795,-0.0064697266,-0.008666992,109.0,3.236728,0.5576705,9.240292,-0.004004717,-0.017217875,1.821518E-4,-0.16610083,-0.035871707,-0.98458385,2017-04-05 15:34:56,15.863411159480451
3.3351288,0.59376526,9.500198,-1.9836426E-4,0.004180908,0.01902771,109.0,3.244361,0.57287896,9.236684,-0.0013782978,-0.032966554,0.081707,-0.16667338,-0.03577993,-0.9846997,2017-04-05 15:34:57,13.823547959154718
3.3470917,0.5782013,9.56842,-1.9836426E-4,-0.009674072,-0.009735107,109.0,3.2399638,0.54741114,9.23977,-0.0061724186,0.009359777,0.01004982,-0.16644889,-0.03460605,-0.9847457,2017-04-05 15:34:58,56.91323817600007
3.5122986,0.5135498,9.495407,-1.9836426E-4,-7.6293945E-5,-0.0012054443,108.0,3.3940268,0.50313705,9.186829,-0.008722544,0.002300918,0.003976822,-0.17481646,-0.03226923,-0.9834568,2017-04-05 15:34:59,59.69524658750871
3.4676056,0.4980011,9.525726,-0.004470825,0.004180908,0.011581421,108.0,3.3778052,0.49030504,9.193499,-0.0013101101,0.007222712,0.03269005,-0.17391668,-0.031859193,-0.98357016,2017-04-05 15:35:00,58.450035823259505
3.4691925,0.45729065,9.537308,0.0029907227,-0.009674072,-0.011856079,108.0,3.3549552,0.48072246,9.202368,-0.008511066,-0.007509947,0.0075769424,-0.17270021,-0.030870933,-0.98386264,2017-04-05 15:35:01,63.84837883247246
3.4883575,0.55026245,9.498199,0.0019226074,-0.011795044,-0.007598877,108.0,3.3727958,0.5119754,9.194157,-0.008870602,-0.018387258,0.03369999,-0.17346339,-0.03374843,-0.98342305,2017-04-05 15:35:02,61.619397847840105
3.4524384,0.49440002,9.58519,-0.0023345947,-0.013931274,0.0030517578,108.0,3.353382,0.48735017,9.202593,-0.01341486,-0.010025024,0.014045715,-0.17234075,-0.03312157,-0.98345923,2017-04-05 15:35:03,65.33020867144768
3.4656067,0.5279236,9.4774475,0.005126953,-7.6293945E-5,-0.015060425,108.0,3.3652115,0.48549816,9.198371,-0.005769253,0.008047283,-0.033000946,-0.17323549,-0.03167123,-0.9836774,2017-04-05 15:35:04,63.25897803508295
3.4907532,0.5698242,9.470261,0.004058838,0.003112793,-0.0012054443,108.0,3.3728971,0.5332625,9.19291,-0.0066788197,0.008816838,-0.008072853,-0.17368343,-0.033557862,-0.9836589,2017-04-05 15:35:05,59.18433659275575
3.4644165,0.50756836,9.504974,-0.0012664795,0.011642456,0.014770508,108.0,3.3645005,0.52261496,9.196596,-0.0023407936,0.016824603,-0.009681702,-0.17316365,-0.03324591,-0.9837207,2017-04-05 15:35:06,60.392604026694954
3.4620209,0.4908142,9.581589,0.02217102,0.009506226,-0.016113281,108.0,3.3318908,0.5101548,9.20916,-0.011820316,0.015580237,-0.016539574,-0.17149429,-0.032453295,-0.98404413,2017-04-05 15:35:07,62.88647985511532
3.4596252,0.6105194,9.465469,0.0019226074,-0.0022125244,-0.0033416748,109.0,3.339919,0.583494,9.201895,-0.0033130646,-0.008462846,0.029874802,-0.17171715,-0.03670385,-0.9837658,2017-04-05 15:35:08,58.70665458565928
3.4380798,0.5566559,9.545685,-0.008728027,0.007385254,0.012649536,109.0,3.3304176,0.56658286,9.206394,-0.011430025,0.011955023,0.029137611,-0.171104,-0.03644128,-0.98373795,2017-04-05 15:35:09,59.03433720548335
3.4584198,0.4908142,9.545685,-0.01512146,9.918213E-4,9.3078613E-4,109.0,3.3201368,0.51693815,9.213027,-0.018645763,-0.01208353,0.044864655,-0.17067137,-0.03372935,-0.9839368,2017-04-05 15:35:10,64.00714626544173
3.4656067,0.62727356,9.543289,8.544922E-4,-0.008605957,-0.007598877,109.0,3.3601487,0.60154414,9.193363,-0.009140015,0.01865673,-0.043068886,-0.17254007,-0.038714916,-0.9833069,2017-04-05 15:35:11,48.720623901408054
3.446457,0.57580566,9.536102,-0.007659912,-0.0011444092,0.008377075,109.0,3.3410406,0.5755408,9.201989,-0.009324551,0.027475595,-0.015680313,-0.17147984,-0.037733786,-0.98342305,2017-04-05 15:35:12,38.72345142486494
3.4667969,0.57341003,9.48822,-0.0023345947,-0.011795044,-0.010787964,109.0,3.3405294,0.54861593,9.203818,-0.022523165,0.023080587,-0.0119895935,-0.17149876,-0.036387444,-0.98345727,2017-04-05 15:35:13,61.96354947434472
3.4691925,0.61650085,9.5169525,0.0019226074,-7.6293945E-5,-1.373291E-4,109.0,3.3536577,0.60409635,9.195566,-0.016801834,9.858608E-4,-0.0021629333,-0.17211442,-0.03915669,-0.9832808,2017-04-05 15:35:14,64.71434828588549
3.4404755,0.5997467,9.538498,-0.004470825,0.004180908,0.01902771,109.0,3.3480575,0.6096898,9.197238,-0.015604258,0.00562495,0.010128975,-0.17179707,-0.03946091,-0.98331624,2017-04-05 15:35:15,63.30648750095988
3.4452515,0.55784607,9.549271,-0.00340271,-0.010726929,-0.0065307617,108.0,3.3266606,0.53258383,9.209782,-0.017087221,0.009593725,0.0013017654,-0.1708961,-0.035019495,-0.98374057,2017-04-05 15:35:16,63.454223993885705
3.4608154,0.5973511,9.520538,8.544922E-4,-0.0011444092,0.0030517578,109.0,3.3487618,0.601694,9.197508,-0.011063337,0.005115688,-0.016783714,-0.17223483,-0.037320036,-0.9837249,2017-04-05 15:35:17,47.130385041055256
3.430893,0.5746155,9.607925,-1.9836426E-4,-7.6293945E-5,0.0030517578,109.0,3.3446374,0.5948472,9.199454,-0.0061836243,0.009862602,-0.008406639,-0.17201848,-0.036987145,-0.98376894,2017-04-05 15:35:18,46.122243091651555
3.4045563,0.509964,9.588776,-0.00340271,-0.033096313,-0.007598877,108.0,3.2792683,0.51656234,9.227673,-0.01333189,0.02365756,-0.06119156,-0.16881494,-0.033319112,-0.98440886,2017-04-05 15:35:19,58.7177830126756
3.4488525,0.6356659,9.484634,0.0029907227,-0.0032806396,-0.0065307617,108.0,3.3435965,0.59869444,9.199583,-0.016283035,0.014415801,0.008523941,-0.17184362,-0.037704233,-0.98366123,2017-04-05 15:35:20,61.920918672317015
3.399765,0.71347046,9.416397,0.059448242,0.03933716,0.0062561035,108.0,3.3520434,0.5775192,9.197862,0.011510134,-0.017906487,-0.0058231354,-0.17228474,-0.03684467,-0.98356766,2017-04-05 15:35:21,50.36888233275788
3.3818054,0.56622314,9.561249,-0.0012664795,-0.0054016113,-1.373291E-4,109.0,3.2788224,0.5615703,9.225202,-0.008687735,-0.013754964,0.026973724,-0.16832693,-0.03653386,-0.9840542,2017-04-05 15:35:22,53.53528056397824
3.3746338,0.6823425,9.476257,-1.9836426E-4,-0.011795044,-0.012924194,109.0,3.311362,0.62714833,9.209341,-0.008251667,0.003029406,0.0017242432,-0.16989349,-0.039881255,-0.9837283,2017-04-05 15:35:23,59.583661325420664
3.391388,0.6859436,9.592377,-0.0023345947,-0.020324707,-0.008666992,109.0,3.3143296,0.64085764,9.20733,-0.017659664,-0.046797395,0.054923058,-0.17034993,-0.039214395,-0.9839912,2017-04-05 15:35:24,65.28869582030481
3.375824,0.59495544,9.579208,-0.0023345947,-0.013931274,0.00730896,109.0,3.2758904,0.58849424,9.2245655,-0.012215853,-0.007663667,0.014292717,-0.16836768,-0.036474545,-0.98442537,2017-04-05 15:35:25,61.710882804006474
3.3806152,0.34835815,9.636658,-0.070510864,-0.07357788,-0.011856079,108.0,3.3529458,0.32934523,9.20976,-0.06724119,-0.050983578,0.1390152,-0.17174383,-0.023065425,-0.9842252,2017-04-05 15:35:26,56.577372661645356
4.602844,-0.1504364,8.96109,-0.010864258,-0.0032806396,0.0030517578,90.0,4.5633516,-0.15864651,8.678769,-0.06844139,-0.00735189,0.08981037,0.23913285,-0.008724875,0.97094244,2017-04-05 15:35:27,22.56428330324397
4.3350983,0.25138855,9.166199,-0.006591797,-0.08955383,-0.042755127,90.0,4.242634,0.2886104,8.836694,-0.11682701,-0.009210855,0.07927799,-0.22390313,-0.016243739,-0.974464,2017-04-05 15:35:28,34.1277570606324
5.166687,0.7318268,8.92598,0.28102112,0.10218811,-0.007598877,96.0,5.1048384,0.7074673,8.34329,-0.09486151,-0.0060976148,0.29878807,-0.27009472,-0.040735748,-0.9619026,2017-04-05 15:35:29,49.56271099378185
4.6543274,1.4129791,9.215286,-0.43803406,-0.5572052,-0.27391052,98.0,4.7080173,1.1537284,8.524897,-0.26449537,0.2910676,0.46050072,0.24859986,0.059576306,0.96675974,2017-04-05 15:35:30,61.78701542273261
2.9723969,0.6763611,9.399231,-0.004470825,-0.15135193,-0.30374146,105.0,3.164452,1.3903015,9.177347,-0.12852693,-0.019355774,-0.06335449,0.17035319,0.059510075,0.97994566,2017-04-05 15:35:31,62.03319363345229
4.138382,0.7765198,9.891235,0.7955475,-0.02458191,-0.031036377,94.0,4.284168,1.431768,8.704386,-0.33468962,-0.9510747,0.72616863,0.23133078,0.051825736,0.96643096,2017-04-05 15:35:32,20.294218275208344
2.2126465,3.3439026,8.732849,0.41844177,0.0819397,-3.5655823,86.0,0.70598567,3.8519046,8.990818,2.6145086,-0.57335806,-0.3737402,0.1276058,0.15909946,0.86160314,2017-04-05 15:35:33,29.539581646050756
-3.5717468,1.8618927,10.10553,0.25758362,-0.058670044,0.6134491,140.0,-1.2545282,2.0823622,9.500543,-1.7253187,-0.50320125,0.18800068,0.009585355,0.12456023,0.80806434,2017-04-05 15:35:34,22.449107777444905
1.7150421,4.521454,8.669006,0.005126953,0.07342529,-0.019317627,125.0,1.6210591,4.3584976,8.634006,-0.22897005,0.12529421,-0.4539528,0.11448174,0.21606055,0.9613153,2017-04-05 15:35:35,27.555854677239083
1.9804077,4.658722,8.576828,-0.06304932,0.0020446777,0.004119873,134.0,1.8851148,4.5792623,8.464461,-0.11485982,0.007539749,-0.11724186,0.115958355,0.23449154,0.9628989,2017-04-05 15:35:36,31.16285971314526
1.5973358,5.1982117,8.669006,0.058380127,-0.03842163,0.014770508,173.0,1.5280565,5.0401983,8.272353,-0.13102281,0.06695461,-0.120467186,0.084252715,0.2666999,0.9600251,2017-04-05 15:35:37,37.19012597676334
1.3639069,5.030609,8.682968,-0.0012664795,-0.032043457,9.3078613E-4,192.0,1.3271977,4.7666507,8.466874,-0.024670482,0.06711912,-0.093678474,-0.06205504,-0.2538053,-0.9649204,2017-04-05 15:35:38,37.873513115446286
0.60253906,3.8742218,11.251144,-0.3751831,0.14906311,-1.0600739,142.0,1.2313023,3.003286,9.253894,-0.36203384,0.24968481,1.9432011,0.08389944,0.14540839,0.97693825,2017-04-05 15:35:39,13.005886911929188