ACC_X,ACC_Y,ACC_Z,GYRO_X,GYRO_Y,GYRO_Z,LIGH_1,GRAV_X,GRAV_Y,GRAV_Z,LINACC_X,LINACC_Y,LINACC_Z,ROTVEC_X,ROTVEC_Y,ROTVEC_Z,HUMI_1,TEMP_2,TIME,VOICE
0.002992752,-0.047884032,9.980828,-0.0039947415,-0.025300032,-0.0015978967,16.957,0.009108799,-0.054565098,9.806494,0.0016651088,0.0054839626,0.1665535,-0.00282,5.6E-5,-0.184206,51.83061,30.135752,2017-06-19 22:01:22,-Infinity
0.0023942017,-0.051475335,9.968259,-0.0010652645,-0.024501082,-0.002130529,16.9694,0.011303121,-0.05126043,9.80651,-0.00890892,-2.1490455E-4,0.16174889,-0.002675,-8.5E-5,-0.184207,52.23078,30.11266,2017-06-19 22:01:23,44.62831545519435
0.0,-0.05327099,9.978435,-0.0018642128,-0.023169503,-0.0029294773,16.9694,0.0112554375,-0.05899176,9.806466,-0.0112554375,0.005720772,0.17196846,-0.003007,7.9E-5,-0.184206,52.23078,30.11266,2017-06-19 22:01:24,60.36586632254821
-0.011971008,-0.062249243,9.957485,-0.0015978967,-0.023435818,-0.0034621095,16.9694,0.011839069,-0.053694222,9.806497,-0.023810077,-0.008555021,0.15098858,-0.002802,-8.9E-5,-0.184207,52.23078,30.11266,2017-06-19 22:01:25,60.5388471686781
0.016759412,-0.05207389,9.935937,-0.0013315806,-0.02396845,-0.0037284256,16.957,0.0056872806,-0.052173223,9.80651,0.0012909509,-0.0077073574,0.16595173,-0.002668,2.05E-4,-0.184206,52.58987,30.033022,2017-06-19 22:01:26,69.85234302204512
0.0,-0.055066638,9.925163,-0.002130529,-0.024767399,-0.0031957934,16.9694,0.003931569,-0.05547551,9.806493,-0.003931569,4.0887296E-4,0.11867046,-0.002817,3.24E-4,-0.184206,52.58987,30.033022,2017-06-19 22:01:27,65.09449692547277
-0.0011971008,-0.06584055,9.974244,-0.002130529,-0.022903185,-0.0055926386,16.5038,0.009375154,-0.054175954,9.806496,-0.0027910993,-0.01944575,0.15338326,-0.002803,3.9E-5,-0.184207,52.58987,30.033022,2017-06-19 22:01:28,67.53448359004162
0.017956512,-0.047884032,9.939528,-0.0029294773,-0.023435818,-0.0015978967,16.0972,-0.018413976,-0.051543195,9.806498,0.005844417,-0.014895905,0.13123512,-0.00241,0.001407,-0.184254,52.58987,30.033022,2017-06-19 22:01:29,46.616125036120444
0.015562311,-0.032920275,9.953894,-0.002130529,-0.023169503,-0.0039947415,16.5628,0.007750211,-0.05326339,9.806503,-0.012538614,-0.011380054,0.14320087,-0.002742,1.12E-4,-0.184257,52.58987,30.033022,2017-06-19 22:01:30,55.0054690019575
-0.0011971008,-0.06344634,9.962274,-0.002130529,-0.024234766,-0.002130529,16.5038,0.011078164,-0.048129715,9.806526,0.004484147,-0.037462994,0.1545496,-0.002516,-1.03E-4,-0.184258,52.58987,29.965525,2017-06-19 22:01:31,66.71085038524785
0.005985504,-0.061052144,9.928755,-0.0037284256,-0.022903185,-0.002130529,16.9694,0.0066985,-0.04988863,9.806521,0.011856563,-0.01894467,0.14437962,-0.002563,1.33E-4,-0.184257,52.58987,29.965525,2017-06-19 22:01:32,57.86137702990234
0.019752163,-0.06284779,9.977237,-0.0018642128,-0.02263687,-0.002130529,16.957,0.0064756065,-0.049870547,9.806521,0.025846114,7.8941137E-4,0.15754795,-0.00256,1.44E-4,-0.184257,52.58987,29.965525,2017-06-19 22:01:33,59.9690107106275
0.019153614,-0.055066638,9.961076,-0.002396845,-0.024234766,-0.0039947415,16.9694,0.010455053,-0.05513091,9.806489,0.0021145055,0.0060497746,0.13244057,-0.002861,-6.0E-6,-0.184258,52.898087,29.802517,2017-06-19 22:01:34,65.02876028740388
0.008978256,-0.05327099,9.982624,-0.0031957934,-0.02263687,-0.0031957934,16.9694,0.005706837,-0.052688625,9.806507,0.0050670705,-5.8236346E-4,0.13960552,-0.002694,2.09E-4,-0.184257,52.898087,29.802517,2017-06-19 22:01:35,63.703576797758956
-0.008379706,-0.061052144,9.968858,-0.002396845,-0.02396845,-0.00479369,16.5504,0.005661214,-0.047548816,9.806533,0.009302547,-0.007517822,0.1425724,-0.002436,1.63E-4,-0.184257,52.898087,29.802517,2017-06-19 22:01:36,44.7729599293165
0.013766659,-0.060453594,9.965266,-0.002130529,-0.023435818,-0.002130529,16.9694,0.0059140264,-0.054006718,9.8064995,0.001867129,-0.0070454255,0.16175938,-0.002762,2.11E-4,-0.184257,52.898087,29.802517,2017-06-19 22:01:37,49.671236532912104
0.0077811554,-0.047884032,9.958083,-0.0013315806,-0.023435818,-0.0026631611,16.9694,0.010332161,-0.055114042,9.80649,-0.006740858,-0.0059381016,0.16536045,-0.002859,0.0,-0.184258,52.898087,29.802517,2017-06-19 22:01:38,44.848991021402256
0.024540568,-0.059855044,9.948506,-0.002396845,-0.02130529,-0.0034621095,16.5038,0.00914163,-0.05845017,9.806472,0.0022308286,-0.010383129,0.15280914,-0.003015,9.1E-5,-0.184257,52.898087,29.802517,2017-06-19 22:01:39,56.09030064557032
0.017956512,-0.055066638,9.977237,-0.0013315806,-0.024767399,-0.0029294773,16.9694,0.010416663,-0.049710426,9.806519,-0.01939492,-0.0077504143,0.14557934,-0.002589,-5.5E-5,-0.184258,52.898087,29.802517,2017-06-19 22:01:40,55.82871280739492
0.01616086,-0.046686932,9.979631,-0.002396845,-0.023435818,-0.0029294773,16.9694,0.0049079973,-0.053856082,9.806501,0.008260112,-0.001809109,0.17253113,-0.002745,2.6E-4,-0.184257,52.898087,29.802517,2017-06-19 22:01:41,50.42200617471692
0.022744916,-0.059855044,9.988011,-0.002130529,-0.022903185,-0.0029294773,16.9694,0.008041651,-0.057479046,9.8064785,0.00692211,-0.0077629536,0.13484573,-0.002956,1.37E-4,-0.184257,52.898087,29.802517,2017-06-19 22:01:42,44.23609784482595
0.0,-0.08499416,9.9550905,-0.0026631611,-0.022903185,-0.0026631611,16.5038,0.008111714,-0.053275455,9.806502,2.679918E-4,0.023347933,0.14619446,-0.002746,9.4E-5,-0.184258,53.047676,29.802517,2017-06-19 22:01:43,63.160035317004315
0.01616086,-0.054468088,9.956886,-0.0034621095,-0.023169503,-0.002396845,16.9694,0.0072514154,-0.053157352,9.806503,-0.0036601129,-0.022858553,0.19168282,-0.002732,1.36E-4,-0.184257,53.047676,29.802517,2017-06-19 22:01:44,68.84388690908727
0.017357962,-0.029927522,9.948506,-0.0026631611,-0.024501082,-0.002130529,16.5038,0.0076033706,-0.050138056,9.8065195,-0.0010193158,-0.002534382,0.15455627,-0.002584,9.0E-5,-0.184258,53.047676,29.802517,2017-06-19 22:01:45,65.90185303295802
0.005985504,-0.055066638,9.911995,-0.002130529,-0.02396845,-0.0031957934,16.5038,0.0083032325,-0.05493566,9.806493,-0.0112959845,-1.3097748E-4,0.15278816,-0.002831,1.0E-4,-0.184258,53.270992,29.7458,2017-06-19 22:01:46,66.20376644441106
0.016759412,-0.04070143,9.946711,0.0,-0.02609898,-0.0018642128,16.9694,0.009661134,-0.053024895,9.806502,0.0053026266,0.00454231,0.17432594,-0.002748,1.4E-5,-0.184258,53.270992,29.7458,2017-06-19 22:01:47,67.91601690810555
0.011971008,-0.061052144,9.957485,-7.9894834E-4,-0.02263687,-0.0031957934,16.9694,0.0074129063,-0.05348628,9.806501,0.0057552033,-0.0039745606,0.13661861,-0.00275,1.31E-4,-0.184258,53.270992,29.7458,2017-06-19 22:01:48,68.71205478424349
-0.0011971008,-0.06344634,9.974244,-0.002130529,-0.022370555,-0.0037284256,16.5038,0.007517728,-0.05340676,9.806501,-0.0057220766,0.0037270747,0.12404919,-0.002747,1.25E-4,-0.184258,53.270992,29.7458,2017-06-19 22:01:49,69.05636099957634
0.005985504,-0.061052144,9.939528,-0.0013315806,-0.023169503,-0.0031957934,16.5162,0.009787487,-0.058169473,9.806473,-0.0020063315,0.004898485,0.1593914,-0.003007,5.6E-5,-0.184258,53.270992,29.7458,2017-06-19 22:01:50,47.06896515183354
-0.0023942017,-0.050876785,9.938332,-0.0018642128,-0.025832662,-0.0015978967,16.5038,0.0094202,-0.05195259,9.806508,0.024697173,-0.0031140484,0.12942886,-0.002692,1.6E-5,-0.184258,53.270992,29.7458,2017-06-19 22:01:51,71.17898082820926
-5.985504E-4,-0.051475335,9.949704,-0.0010652645,-0.023435818,-0.004527374,16.5628,0.005971723,-0.058465734,9.806475,-0.007168824,-0.0031849593,0.15579891,-0.002986,2.5E-4,-0.184257,53.384583,29.634972,2017-06-19 22:01:53,54.33802278163196
0.007182605,-0.044292733,9.965864,-0.002396845,-0.024767399,-0.0031957934,16.5162,0.007018801,-0.0558549,9.806489,0.0061493088,-0.0034015886,0.16655827,-0.002865,1.73E-4,-0.184257,53.384583,29.634972,2017-06-19 22:01:54,44.905889081560574
-0.01616086,-0.044891283,9.937134,-7.9894834E-4,-0.023702133,-0.004527374,16.5038,0.0044103046,-0.057162065,9.806483,0.0033708508,-0.008079935,0.15040302,-0.002906,3.16E-4,-0.184257,53.384583,29.634972,2017-06-19 22:01:55,69.89746635400901
-0.0011971008,-0.0664391,9.958083,-0.0015978967,-0.024767399,-0.0031957934,16.5038,0.004712723,-0.056965686,9.806483,-0.016683731,0.0054903515,0.15339565,-0.002899,2.99E-4,-0.184257,53.491272,29.711817,2017-06-19 22:01:56,54.217019096773
-0.0077811554,-0.05805939,9.950302,-0.0029294773,-0.025566347,-0.002130529,16.5162,0.003071832,-0.05396084,9.806501,0.011293378,0.006076809,0.14260387,-0.002733,3.53E-4,-0.184257,53.491272,29.711817,2017-06-19 22:01:57,69.00963906587575
0.0035913025,-0.073621705,9.986216,-0.0015978967,-0.02396845,-0.0037284256,16.5038,0.009272978,-0.059682723,9.806464,-0.005681675,-0.013938982,0.1797514,-0.003078,9.6E-5,-0.184258,53.491272,29.711817,2017-06-19 22:01:58,47.44794447087397
0.012569559,-0.038307227,9.956287,-0.0029294773,-0.02396845,-0.0031957934,16.5162,0.008164754,-0.0523875,9.806507,0.0020106034,-0.020635657,0.13960552,-0.002702,8.3E-5,-0.184258,53.66987,29.613997,2017-06-19 22:01:59,47.045225868370075
0.004189853,-0.05207389,9.9473095,-0.002130529,-0.024234766,-0.0015978967,16.5038,0.004639342,-0.05316811,9.806505,-0.015413249,0.008276828,0.14918423,-0.002708,2.67E-4,-0.184257,53.66987,29.613997,2017-06-19 22:02:00,55.46226695463112
-0.010773907,-0.05805939,9.967062,-0.0010652645,-0.024501082,-0.0010652645,16.5162,0.01308179,-0.050088827,9.806514,-5.1223114E-4,-0.0013865083,0.16234398,-0.002633,-1.85E-4,-0.184259,53.66987,29.613997,2017-06-19 22:02:01,45.361611307773806
0.0023942017,-0.06823475,9.927557,-0.0026631611,-0.025300032,-0.0034621095,16.5162,0.0075573875,-0.05681156,9.806482,0.0020194193,-5.0731003E-5,0.14262295,-0.002918,1.55E-4,-0.184258,53.66987,29.613997,2017-06-19 22:02:02,70.67924182056423
0.020949265,-0.065242,9.934141,-0.0026631611,-0.025033714,-0.0013315806,16.5162,0.011403337,-0.05241887,9.806503,0.0053560752,-2.5356933E-4,0.1461935,-0.002734,-7.9E-5,-0.184258,53.66987,29.613997,2017-06-19 22:02:03,62.592065962106474
0.01316811,-0.05925649,9.964667,-0.002396845,-0.023702133,-0.002130529,16.5038,0.0087792445,-0.051514015,9.806511,-0.007582144,-0.011932328,0.17551422,-0.002664,4.4E-5,-0.184258,53.66987,29.613997,2017-06-19 22:02:04,46.582688943176116
0.012569559,-0.055066638,9.985617,-0.0029294773,-0.02609898,-0.0015978967,16.5038,0.006205651,-0.054071732,9.8064995,-0.0103955045,-0.0015934594,0.15876675,-0.002768,1.97E-4,-0.184258,53.66987,29.613997,2017-06-19 22:02:05,71.61759545264914
0.0011971008,-0.055066638,9.96766,-0.0026631611,-0.023702133,-0.0037284256,16.5504,0.005968308,-0.05365732,9.806501,-0.0023770055,-0.007993374,0.16295433,-0.002745,2.05E-4,-0.184258,53.66987,29.613997,2017-06-19 22:02:06,45.79781668002164
0.002992752,-0.05626374,9.980229,-0.0029294773,-0.025033714,-0.002130529,16.5628,0.0041549923,-0.055374097,9.806493,-0.0011622403,-8.89644E-4,0.17373657,-0.002814,3.12E-4,-0.184258,53.66987,29.613997,2017-06-19 22:02:07,50.49517773045033
0.0035913025,-0.05686229,9.951499,-0.002130529,-0.023702133,-0.0037284256,16.5162,0.0037405652,-0.054015085,9.806501,0.0076318933,-0.0040443055,0.10788822,-0.002732,3.14E-4,-0.184258,53.95399,29.556126,2017-06-19 22:02:08,71.05198601279669
-0.006584055,-0.054468088,9.941324,-0.0015978967,-0.024234766,-0.002130529,16.5504,0.002922423,-0.054547537,9.806499,0.009048585,-0.0035118535,0.1683445,-0.002736,4.06E-4,-0.184257,53.95399,29.556126,2017-06-19 22:02:09,46.758403356878574
5.985504E-4,-0.044292733,9.956886,-0.0031957934,-0.025566347,-0.0026631611,16.5504,0.007843116,-0.050671812,9.806517,-0.009040217,-0.0067890286,0.12942028,-0.002627,2.23E-4,-0.184258,53.95399,29.556126,2017-06-19 22:02:10,72.30063730402053
-0.0017956513,-0.0688333,9.964069,-0.002396845,-0.02609898,-0.0010652645,16.5162,0.009535769,-0.055123653,9.806491,0.0036323406,0.002451215,0.1264534,-0.002721,1.11E-4,-0.184258,53.865246,29.518919,2017-06-19 22:02:11,45.40430579375807
0.0035913025,-0.054468088,9.989208,-0.002396845,-0.023702133,-0.002130529,16.5162,0.006287618,-0.052699495,9.806506,0.0044862893,-0.0059584454,0.1372118,-0.002779,1.17E-4,-0.184258,53.865246,29.518919,2017-06-19 22:02:12,71.94410671649717
0.0035913025,-0.050278235,9.956287,-0.004261058,-0.022903185,-0.0037284256,16.5162,0.0061418535,-0.052028395,9.806511,0.0064277053,0.00175016,0.1443901,-0.002687,1.36E-4,-0.184258,53.865246,29.518919,2017-06-19 22:02:13,70.72764160956982
0.006584055,-0.05686229,9.937733,-0.002396845,-0.023702133,-0.0037284256,16.5038,0.0036683166,-0.0526717,9.806508,-0.0060625183,0.0047876686,0.13960457,-0.002708,2.27E-4,-0.184258,53.865246,29.518919,2017-06-19 22:02:14,65.81613519407406
0.01316811,-0.050278235,9.941922,-0.002130529,-0.02396845,-0.0015978967,16.5038,0.008174283,-0.056057356,9.806487,-3.9312802E-4,9.907186E-4,0.16177177,-0.002782,1.3E-4,-0.184258,53.865246,29.518919,2017-06-19 22:02:15,63.785023556669714
-0.011971008,-0.04369418,9.965266,-0.0015978967,-0.024767399,-0.0013315806,16.5504,0.0048008324,-0.053497043,9.806503,-0.007126113,0.015035573,0.14978313,-0.002726,2.62E-4,-0.184258,53.865246,29.518919,2017-06-19 22:02:16,66.95176107569446
0.005985504,-0.040102877,9.920375,-0.0058589545,-0.026365295,-0.0034621095,16.5038,0.00396002,-0.048266847,9.806531,0.016591687,-0.011024069,0.14138412,-0.002456,2.55E-4,-0.184258,54.105335,29.41709,2017-06-19 22:02:17,66.38315769917355
0.036511578,-0.054468088,9.950302,-0.002130529,-0.026365295,-0.002396845,16.5504,0.0055575315,-0.0513597,9.806515,0.032629956,-0.0035325438,0.14378548,-0.002626,2.04E-4,-0.184258,54.105335,29.41709,2017-06-19 22:02:18,46.29432409158699
0.0053869537,-0.046686932,9.923966,-0.002396845,-0.025033714,-0.0010652645,16.5038,0.0078035076,-0.047266953,9.806533,-0.002416554,5.8002025E-4,0.11743355,-0.002442,5.3E-5,-0.184259,54.105335,29.41709,2017-06-19 22:02:19,49.73831587110092
-0.014963761,-0.060453594,9.965266,-0.0029294773,-0.02609898,-0.002396845,16.5038,0.004585115,-0.055433147,9.806493,-0.019548876,-0.005020447,0.15877342,-0.002821,2.91E-4,-0.184258,54.105335,29.41709,2017-06-19 22:02:20,56.746353843707816
0.01616086,-0.050876785,9.955689,-0.0026631611,-0.02743056,-0.0034621095,16.5038,0.0068503534,-0.050059725,9.8065195,0.023675717,-0.0032112636,0.1773014,-0.002573,1.27E-4,-0.184258,54.105335,29.41709,2017-06-19 22:02:21,71.2701779713075
0.0077811554,-0.05686229,9.967062,-0.0018642128,-0.026365295,-0.0034621095,16.5038,0.008296005,-0.054897103,9.806493,0.002477902,-0.0031622872,0.15757656,-0.002829,1.0E-4,-0.184258,54.272476,29.41709,2017-06-19 22:02:22,67.25918832380722
5.985504E-4,-0.038905777,9.964069,-0.0018642128,-0.025300032,-0.00479369,16.9694,0.0038092362,-0.054381307,9.806499,-0.006801988,-0.0066708364,0.1683445,-0.002761,3.2E-4,-0.184258,54.272476,29.41709,2017-06-19 22:02:23,67.4145174632718
0.017357962,-0.06943185,9.941324,-0.0026631611,-0.026365295,-7.9894834E-4,16.5038,0.0102262525,-0.053058602,9.806501,0.0071317097,-0.016373247,0.13482285,-0.002755,-1.4E-5,-0.184259,54.272476,29.41709,2017-06-19 22:02:24,52.7220959451312
-0.018555064,-0.046686932,9.946113,-0.0031957934,-0.025300032,-0.0015978967,16.9694,0.0065057958,-0.049286205,9.806524,-0.011892749,-0.02493405,0.16712189,-0.002534,2.65E-4,-0.184258,54.272476,29.312044,2017-06-19 22:02:25,69.5630715855689
0.030526072,-0.0700304,9.970055,-0.0029294773,-0.025566347,-0.0029294773,16.5038,0.0047332654,-0.056862075,9.806484,0.005442092,-0.0023944154,0.15758514,-0.003013,1.31E-4,-0.184258,54.272476,29.312044,2017-06-19 22:02:26,56.52585249409127
-0.0047884034,-0.047884032,9.94312,-5.326322E-4,-0.024234766,-0.004261058,16.9694,0.011656337,-0.054726124,9.806491,0.0039059734,0.016418897,0.14500809,-0.002816,-4.8E-5,-0.184259,54.272476,29.312044,2017-06-19 22:02:27,73.99997467637377
-0.0035913025,-0.050876785,9.965864,-0.0031957934,-0.024767399,-0.0031957934,16.9694,0.010086358,-0.057634536,9.806476,-0.010086358,0.0055606477,0.15100956,-0.002954,1.7E-5,-0.184259,54.379265,29.312044,2017-06-19 22:02:28,55.09449258331703
0.017357962,-0.06584055,9.937733,-7.9894834E-4,-0.026631612,-0.0026631611,16.9694,-1.8858367E-4,-0.05892218,9.806473,0.0061740875,0.0062497407,0.17136288,-0.002931,5.59E-4,-0.184257,54.379265,29.312044,2017-06-19 22:02:29,71.73725143344471
0.011971008,-0.050876785,9.951499,-0.0037284256,-0.025566347,-0.0031957934,16.5038,0.0070093893,-0.051865775,9.806511,-0.013593445,-0.008587819,0.17611313,-0.002658,1.06E-4,-0.184259,54.379265,29.312044,2017-06-19 22:02:30,72.23169855482512
0.017357962,-0.05686229,9.935937,-0.0031957934,-0.024767399,-0.002130529,16.9694,0.00899368,-0.054147724,9.806497,-0.011986432,-0.008700069,0.15936756,-0.002845,5.8E-5,-0.184259,54.379265,29.331202,2017-06-19 22:02:31,67.65238117464793
0.020350715,-0.038307227,9.957485,-0.0026631611,-0.025566347,-0.0018642128,16.9694,0.007959976,-0.05278503,9.806505,0.0034124823,0.0108865015,0.15816212,-0.002629,2.01E-4,-0.184259,54.379265,29.331202,2017-06-19 22:02:32,59.26374900649581
0.0047884034,-0.05865794,9.925761,-0.0031957934,-0.02609898,-0.0015978967,16.9694,0.0051961704,-0.050070517,9.806521,-0.0057947207,-0.017565683,0.15874481,-0.002484,1.62E-4,-0.184259,54.379265,29.331202,2017-06-19 22:02:33,56.59876722538614
-0.0017956513,-0.05686229,9.931149,-0.0029294773,-0.024234766,-0.002396845,16.9694,0.009956276,-0.056301992,9.806483,-0.0033722213,-0.019713912,0.15219879,-0.002907,7.4E-5,-0.184259,54.41933,29.331202,2017-06-19 22:02:34,60.184378354071406
0.0047884034,-0.06464344,9.935937,-7.9894834E-4,-0.025566347,-0.0034621095,16.9694,0.015420277,-0.05489852,9.806485,1.4203414E-4,0.0016275309,0.13184643,-0.002833,-2.9E-5,-0.184259,54.41933,29.331202,2017-06-19 22:02:35,62.03438602467025
0.013766659,-0.044891283,9.949105,-0.0029294773,-0.025832662,-0.0013315806,16.9694,0.010351448,-0.056706827,9.80648,-0.0019717421,0.0016401894,0.117486,-0.002847,-2.2E-5,-0.184259,54.41933,29.331202,2017-06-19 22:02:36,57.951985062544466
0.017956512,-0.05686229,9.991004,-0.002396845,-0.02609898,-0.0018642128,16.957,0.010402126,-0.054103192,9.806496,-2.2676867E-4,-0.009941701,0.17612839,-0.002802,-1.06E-4,-0.184259,54.581417,29.3225,2017-06-19 22:02:37,68.93098055574968
0.022146367,-0.060453594,9.944317,-0.002396845,-0.025300032,-0.0015978967,16.957,1.2252983E-4,-0.051640254,9.806514,0.010651378,0.0067489706,0.14797878,-0.002552,3.29E-4,-0.184258,54.581417,29.3225,2017-06-19 22:02:38,51.71049687218691
0.0,-0.044292733,9.959281,-0.0037284256,-0.025832662,-0.0026631611,16.9694,0.0044550044,-0.05505844,9.806495,0.01410006,0.009568606,0.15338421,-0.002665,2.58E-4,-0.184258,54.581417,29.3225,2017-06-19 22:02:39,51.803917596852656
5.985504E-4,-0.049081136,9.973646,-0.0010652645,-0.026897928,-0.0034621095,16.957,0.012153972,-0.053335764,9.806498,-0.013949623,-0.00711783,0.13662243,-0.002767,-6.9E-5,-0.184259,54.61077,29.289383,2017-06-19 22:02:40,72.74833634454255
0.007182605,-0.0712275,9.97604,-0.0026631611,-0.025832662,-0.0031957934,16.957,0.0019247478,-0.058805384,9.806474,0.0022651053,0.0085271485,0.15340519,-0.002957,3.2E-4,-0.184258,54.61077,29.289383,2017-06-19 22:02:41,59.92796524594422
0.0053869537,-0.06464344,9.976639,-0.0039947415,-0.027696876,-0.0013315806,16.9694,0.011220308,-0.05069721,9.806513,0.0019478016,-0.013347682,0.15576077,-0.002529,-9.5E-5,-0.184259,54.61077,29.289383,2017-06-19 22:02:42,73.91153221376875
-0.0011971008,-0.027533319,9.964069,-0.002130529,-0.025566347,-0.0039947415,16.9694,0.009827635,-0.04688749,9.806533,-0.0020464798,-0.0051863976,0.161726,-0.002374,-9.8E-5,-0.18426,54.61077,29.289383,2017-06-19 22:02:43,53.1584179957045
0.012569559,-0.06404489,9.935937,2.663161E-4,-0.027164243,-0.002396845,16.957,0.01023584,-0.05481283,9.806492,-0.00963729,-0.0014509112,0.1707449,-0.002844,1.03E-4,-0.184259,54.61077,29.289383,2017-06-19 22:02:44,50.51855502212088
0.019752163,-0.055066638,9.945514,-0.0018642128,-0.026631612,-0.0034621095,16.9694,0.0013454616,-0.05071257,9.806519,4.501897E-4,-0.00734682,0.1473751,-0.002576,3.99E-4,-0.184258,54.61077,29.289383,2017-06-19 22:02:45,60.47960463348798
0.025737667,-0.049081136,9.949704,-0.002396845,-0.025832662,-0.0026631611,16.957,0.004912875,-0.055690996,9.806491,-1.2447173E-4,-0.0041640475,0.11388397,-0.002809,1.2E-4,-0.184259,54.61077,29.289383,2017-06-19 22:02:46,70.3647972837919
-5.985504E-4,-0.053869538,9.940127,-0.002130529,-0.025832662,-0.0029294773,16.957,0.0063382415,-0.05392717,9.8064995,0.0062313173,-5.409196E-4,0.122255325,-0.002762,2.52E-4,-0.184259,54.61077,29.289383,2017-06-19 22:02:47,71.98970991929093
0.017357962,-0.053869538,9.958083,-0.0034621095,-0.025300032,-0.005060006,16.9694,0.0074091894,-0.05889471,9.806471,0.02012413,0.001433868,0.16418171,-0.002903,6.8E-5,-0.184259,54.61077,29.289383,2017-06-19 22:02:48,47.70078472206258
-0.017357962,-0.031124622,9.954493,-0.0013315806,-0.025033714,-0.004527374,16.9694,0.0038938744,-0.0457849,9.806542,0.0044858316,-0.021851297,0.15273857,-0.002469,2.5E-4,-0.184259,54.61077,29.289383,2017-06-19 22:02:49,54.177808899103496
0.012569559,-0.05865794,9.982025,-0.002130529,-0.025033714,-0.0037284256,16.957,0.0060816673,-0.05191996,9.806511,0.0028965888,-0.01332204,0.14019966,-0.002624,1.81E-4,-0.184259,54.61077,29.289383,2017-06-19 22:02:50,62.60009706928278
0.021547815,-0.04189853,9.952697,-0.002130529,-0.024501082,-0.002130529,16.9694,0.0067743747,-0.05444405,9.806497,0.01417489,-0.0048124418,0.14260864,-0.002851,7.6E-5,-0.184259,54.61077,29.289383,2017-06-19 22:02:51,53.5476554481805
0.002992752,-0.059855044,9.953295,-0.0015978967,-0.025300032,-0.0031957934,16.9694,0.004757449,-0.055819906,9.80649,0.0054179085,7.532686E-4,0.13184166,-0.002763,2.89E-4,-0.184259,54.85448,29.242031,2017-06-19 22:02:52,67.25097969626322
0.0035913025,-0.047285482,9.97185,-0.0013315806,-0.026631612,-0.0037284256,16.9694,0.0034178377,-0.050164446,9.806521,0.013940125,0.010660119,0.12223339,-0.002502,2.71E-4,-0.184259,54.85448,29.242031,2017-06-19 22:02:54,59.6734421736693
0.023942016,-0.04309563,9.951499,-0.0031957934,-0.024767399,-0.0029294773,16.9694,0.0050889985,-0.048115075,9.806531,-0.0074832,-0.0057544634,0.16891003,-0.002411,2.37E-4,-0.184259,54.85448,29.242031,2017-06-19 22:02:55,71.00431775174047
0.005985504,-0.061650693,9.977237,-0.0031957934,-0.022903185,-0.0013315806,16.9694,0.00462011,-0.05540665,9.806493,0.006752348,0.009318266,0.12166309,-0.002881,1.29E-4,-0.184259,54.85448,29.242031,2017-06-19 22:02:56,72.03152313366863
0.009576807,-0.065242,9.946113,-0.0031957934,-0.026365295,-0.0029294773,16.957,0.009506996,-0.0540116,9.806497,-0.007112794,-0.001653593,0.15757275,-0.002866,4.9E-5,-0.184259,54.85448,29.242031,2017-06-19 22:02:57,69.57517919102683
0.020350715,-0.045489833,9.949105,-0.0013315806,-0.027164243,-0.0026631611,16.957,0.0059718085,-0.059742805,9.806467,0.014378907,0.014252972,0.1426382,-0.00305,2.62E-4,-0.184259,54.85448,29.242031,2017-06-19 22:02:58,58.710972216322375
0.008379706,-0.07062895,9.935937,-0.002130529,-0.025300032,-0.0029294773,16.9694,0.0077009425,-0.052574184,9.806506,0.008459918,0.010675654,0.17252636,-0.002707,1.08E-4,-0.184259,55.00359,29.175388,2017-06-19 22:02:59,69.72744278368701
0.0,-0.044292733,9.976639,-0.002130529,-0.026897928,-0.002396845,16.957,0.0030526507,-0.05460298,9.806498,0.002334303,-0.008843362,0.13183403,-0.002765,3.6E-4,-0.184259,55.00359,29.175388,2017-06-19 22:03:00,67.48203280039478
-0.007182605,-0.046686932,9.965864,-0.0034621095,-0.024767399,-0.002396845,17.4226,0.0042141746,-0.052070506,9.806511,0.0017713294,0.0029893704,0.15277004,-0.002649,2.78E-4,-0.184259,55.00359,29.175388,2017-06-19 22:03:01,61.40846558769284
0.0011971008,-0.046088383,9.942521,-0.0026631611,-0.025033714,-0.0031957934,16.957,0.0050466196,-0.055446424,9.806493,0.0063258386,0.012949344,0.146204,-0.002826,2.68E-4,-0.184259,55.00359,29.175388,2017-06-19 22:03:02,65.04939625371846
0.008379706,-0.039504327,9.960478,-0.0031957934,-0.025300032,-0.0034621095,16.957,0.0062720114,-0.052722335,9.806506,0.015874356,0.01680931,0.12164974,-0.002701,1.81E-4,-0.184259,55.00359,29.175388,2017-06-19 22:03:03,57.36728841124068
0.011971008,-0.061650693,9.948506,-0.0010652645,-0.026365295,-0.0018642128,16.957,0.0098827705,-0.056655005,9.806481,-0.014072623,0.012960825,0.1330471,-0.002932,3.7E-5,-0.184259,55.00359,29.175388,2017-06-19 22:03:04,69.72475638432799
0.0023942017,-0.061052144,9.977237,-0.002396845,-0.024767399,-0.002396845,16.957,0.0053272787,-0.057688616,9.8064785,0.010833582,-0.004560627,0.15399933,-0.002941,2.75E-4,-0.184259,54.7992,29.175388,2017-06-19 22:03:05,66.56748692960927
0.0047884034,-0.06703765,9.93893,-0.0018642128,-0.02396845,-0.002130529,16.957,0.0032659962,-0.051270474,9.806516,-0.014638455,-0.021154124,0.18867779,-0.0026,3.18E-4,-0.184259,54.7992,29.175388,2017-06-19 22:03:06,66.57719845659267
0.0047884034,-0.06344634,9.97185,-0.0015978967,-0.025033714,-0.002396845,16.957,0.0070127673,-0.060186215,9.806462,0.004359691,0.0063166767,0.19950485,-0.003082,2.14E-4,-0.184259,54.7992,29.175388,2017-06-19 22:03:07,64.08045631607203
-0.017956512,-0.05805939,9.9951935,-0.002396845,-0.02609898,-7.9894834E-4,16.957,0.00903228,-0.05445978,9.806495,-0.007236629,-0.014972068,0.14320946,-0.002814,5.9E-5,-0.18426,54.841766,29.175388,2017-06-19 22:03:08,72.40661342266299
0.027533319,-0.05865794,9.92636,-0.0026631611,-0.026631612,-0.002130529,16.957,0.007227398,-0.054199483,9.806498,0.02030592,-0.004458457,0.11986256,-0.002784,1.47E-4,-0.184259,54.841766,29.175388,2017-06-19 22:03:09,62.84987271877142
-0.005985504,-0.05626374,9.978435,-0.0015978967,-0.027164243,-7.9894834E-4,16.957,0.0034032662,-0.05423793,9.8064995,0.027721355,0.009945195,0.1743288,-0.00275,3.39E-4,-0.184259,54.841766,29.175388,2017-06-19 22:03:10,68.6153141934929
0.015562311,-0.049081136,9.961675,-0.0026631611,-0.026365295,-0.0010652645,16.957,0.0026682636,-0.056171656,9.806489,-0.0038653645,-0.004281938,0.17673397,-0.00284,3.94E-4,-0.184259,55.09837,29.175388,2017-06-19 22:03:11,70.49824195729406
5.985504E-4,-0.046088383,9.948506,-0.0031957934,-0.026365295,-0.0010652645,16.957,0.0023635624,-0.051778886,9.806513,-0.0023635624,-0.007477604,0.17970276,-0.002617,3.68E-4,-0.184259,55.09837,29.175388,2017-06-19 22:03:12,66.63846385557
0.011971008,-0.062249243,9.948506,-0.0029294773,-0.025566347,-0.0029294773,16.9104,0.00833706,-0.055647723,9.806489,-0.0017530052,-6.160177E-4,0.1408205,-0.002867,1.05E-4,-0.18426,55.09837,29.175388,2017-06-19 22:03:13,65.6590461450168
0.004189853,-0.05267244,9.931747,-0.0013315806,-0.02609898,-0.0031957934,16.957,0.006106828,-0.056844052,9.806483,-0.0019169748,-0.0024124384,0.16596508,-0.002906,2.28E-4,-0.184259,55.09837,29.175388,2017-06-19 22:03:14,65.9234004761416
0.017956512,-0.05267244,9.947908,-0.002396845,-0.025566347,-0.0026631611,16.9104,0.0051970063,-0.06306089,9.806445,0.007971103,0.016373955,0.18994522,-0.003209,3.32E-4,-0.184259,55.09837,29.175388,2017-06-19 22:03:15,59.482804625194596
-0.011372458,-0.047884032,9.949704,-0.0026631611,-0.027164243,-5.326322E-4,16.957,0.003059906,-0.0536837,9.806503,0.0053198,-7.843897E-4,0.12225151,-0.002719,3.51E-4,-0.184259,55.20022,29.175388,2017-06-19 22:03:16,66.9218602882354
0.016759412,-0.047285482,9.939528,-0.0029294773,-0.025832662,-0.002396845,16.957,0.0014624218,-0.04931378,9.806526,-0.01403198,0.009809453,0.12761497,-0.002485,3.9E-4,-0.184259,55.20022,29.175388,2017-06-19 22:03:17,71.22046458160362
0.0017956513,-0.0676362,9.969456,-0.0029294773,-0.025832662,-0.002130529,16.9104,0.0039467537,-0.0503247,9.8065195,-0.0021511023,-0.0023477376,0.16533089,-0.002559,2.75E-4,-0.184259,55.20022,29.175388,2017-06-19 22:03:18,68.17074750162281
0.016759412,-0.0664391,9.93893,-0.0013315806,-0.026897928,-7.9894834E-4,16.957,0.006750526,-0.047504276,9.806533,0.008811785,-0.015343517,0.16831017,-0.002444,1.08E-4,-0.18426,55.20022,29.175388,2017-06-19 22:03:19,66.02162527233502
0.01616086,-0.06943185,9.970653,-0.0026631611,-0.025832662,-0.0026631611,16.9694,2.223866E-4,-0.05674989,9.806486,0.019529777,0.014252812,0.14621067,-0.002846,5.22E-4,-0.184258,55.20022,29.175388,2017-06-19 22:03:20,59.29690857930029
0.0035913025,-0.06284779,9.941324,-0.002396845,-0.026365295,-7.9894834E-4,16.957,0.0012900102,-0.053716175,9.806503,0.003498393,-0.0103287175,0.14858723,-0.002704,4.4E-4,-0.184259,55.20022,29.175388,2017-06-19 22:03:21,65.23803541957813
0.002992752,-0.047884032,9.959879,-0.0029294773,-0.027696876,-0.0039947415,17.376,0.0069177332,-0.054995872,9.806494,-0.0033264307,-0.001267869,0.15338516,-0.002821,1.7E-4,-0.184259,55.20022,29.175388,2017-06-19 22:03:22,54.40282476472565
-0.007182605,-0.05327099,9.959281,-0.0026631611,-0.025566347,-0.002130529,16.957,0.0031900345,-0.05341984,9.806504,0.008780973,-0.0064352043,0.17731667,-0.002707,3.42E-4,-0.184259,55.20022,29.175388,2017-06-19 22:03:23,50.42943568333663
-0.0047884034,-0.04249708,9.974843,-0.0018642128,-0.025832662,-0.0029294773,16.957,0.005693605,-0.05570427,9.80649,-0.008686357,3.9078295E-5,0.16895103,-0.002845,2.38E-4,-0.184259,55.20022,29.175388,2017-06-19 22:03:24,57.667849210620915
0.011372458,-0.05207389,9.961675,-0.0026631611,-0.02609898,-0.002396845,16.957,0.0019044431,-0.054758374,9.806497,4.8975856E-4,-0.012279276,0.12165928,-0.002762,4.19E-4,-0.184259,55.20022,29.175388,2017-06-19 22:03:25,63.09816870367466
0.02633622,-0.061052144,9.946113,-0.002130529,-0.025300032,-0.0026631611,16.957,0.0057732235,-0.05229702,9.806509,8.108313E-4,0.008004285,0.19287395,-0.002675,2.02E-4,-0.184259,55.20022,29.175388,2017-06-19 22:03:26,69.36326556953955
0.0,-0.06703765,9.992201,-0.0031957934,-0.025300032,-0.0010652645,16.957,0.008189022,-0.050068196,9.8065195,0.007971839,-0.018166553,0.14438152,-0.002586,6.0E-5,-0.18426,55.20022,29.175388,2017-06-19 22:03:27,69.08097095657828
0.011372458,-0.047285482,9.967062,-0.0037284256,-0.02876214,-0.002130529,16.957,0.0075839874,-0.055569388,9.806489,0.01815368,0.0011013001,0.101914406,-0.002856,1.42E-4,-0.184259,55.20022,29.175388,2017-06-19 22:03:28,65.29097835626308
0.009576807,-0.0712275,9.956287,-0.0031957934,-0.02609898,-0.0018642128,17.376,0.01255046,-0.051724914,9.806506,0.014384309,-0.008130129,0.14978123,-0.00271,-1.43E-4,-0.18426,55.20022,29.175388,2017-06-19 22:03:29,64.41887520622372
0.0,-0.061052144,9.967062,-0.0026631611,-0.027963191,-0.002396845,16.957,0.005584079,-0.051713925,9.806512,0.022547793,0.008019745,0.14019871,-0.002644,2.06E-4,-0.184259,55.20022,29.175388,2017-06-19 22:03:30,62.50126098905129
-0.0011971008,-0.050278235,9.958682,-0.0034621095,-0.028229509,-0.002130529,16.957,0.007683069,-0.04736936,9.806533,-5.004639E-4,-0.00949293,0.12162304,-0.002446,6.0E-5,-0.18426,55.20022,29.175388,2017-06-19 22:03:31,69.98889553871913
0.006584055,-0.051475335,9.940127,-0.0015978967,-0.02609898,-0.0026631611,17.4226,-1.6203472E-4,-0.061830603,9.806455,0.0115344925,-0.012988202,0.14803791,-0.003097,5.89E-4,-0.184259,55.20022,29.175388,2017-06-19 22:03:32,50.61148658871193
-0.005985504,-0.077213004,9.973047,-0.0037284256,-0.029028457,-0.002396845,16.957,0.0068358663,-0.05477177,9.806495,-0.0020474629,-2.948679E-4,0.12824535,-0.002809,1.72E-4,-0.18426,55.20022,29.175388,2017-06-19 22:03:33,63.14791794433069
0.012569559,-0.05925649,9.974843,-0.0018642128,-0.026897928,-0.002130529,16.957,0.004210454,-0.05588254,9.80649,0.011950407,-0.005768154,0.15219212,-0.00284,3.14E-4,-0.184259,55.228138,29.175388,2017-06-19 22:03:34,66.75942322542538
0.002992752,-0.05626374,9.929952,-0.0018642128,-0.026631612,-0.0015978967,16.957,0.0067853252,-0.052586205,9.806507,-0.016960682,0.0100891255,0.15875912,-0.002699,1.54E-4,-0.18426,55.228138,29.175388,2017-06-19 22:03:35,66.18165801163208
0.009576807,-0.044292733,9.965266,-0.002396845,-0.027696876,-0.0010652645,16.957,-0.0010918949,-0.05186794,9.806513,-0.0019008571,-2.0594895E-4,0.14139557,-0.002589,5.42E-4,-0.184259,55.228138,29.175388,2017-06-19 22:03:36,65.31323075028497
-0.0047884034,-0.0676362,9.9550905,-0.0015978967,-0.02609898,-0.0015978967,16.957,0.0021600036,-0.049841516,9.806523,-3.6435237E-4,-0.018991783,0.13539886,-0.002518,3.6E-4,-0.184259,55.425274,29.175388,2017-06-19 22:03:37,68.24947352930124
0.0017956513,-0.039504327,9.970653,-0.0034621095,-0.027164243,-0.0015978967,17.376,0.003678079,-0.052190937,9.806511,0.02265814,0.0019127019,0.18928146,-0.00265,3.06E-4,-0.18426,55.425274,29.175388,2017-06-19 22:03:38,65.7145385468765
0.002992752,-0.073621705,9.941324,-0.0010652645,-0.026631612,-0.002396845,16.957,0.0020551425,-0.051198144,9.806517,-0.008639198,0.005109761,0.1611433,-0.002585,3.78E-4,-0.184259,55.425274,29.175388,2017-06-19 22:03:39,59.34691927994201
5.985504E-4,-0.05805939,9.920973,-0.002130529,-0.026631612,-0.0018642128,16.957,0.003374346,-0.05440299,9.806499,0.00560391,-0.010240454,0.148592,-0.002758,3.42E-4,-0.184259,55.425274,29.175388,2017-06-19 22:03:40,53.75857932501
0.020350715,-0.045489833,9.939528,-7.9894834E-4,-0.026897928,-0.0029294773,16.957,0.004754094,-0.048457246,9.806529,-0.0071482956,-0.014989097,0.15035725,-0.002473,2.17E-4,-0.18426,55.425274,29.175388,2017-06-19 22:03:41,65.58196134763868
0.017357962,-0.038905777,9.94312,-0.0015978967,-0.028495824,-0.0026631611,16.957,0.006873337,-0.05039467,9.806518,-0.018245796,0.0043062866,0.13301086,-0.00259,1.29E-4,-0.18426,55.425274,29.175388,2017-06-19 22:03:42,69.05906833491468
0.014963761,-0.039504327,9.967062,-0.0018642128,-0.027164243,-0.0026631611,16.957,0.0076407036,-0.05438143,9.806496,0.004928855,0.0076944977,0.15817165,-0.002797,1.28E-4,-0.18426,55.425274,29.175388,2017-06-19 22:03:43,63.95186850638595
0.006584055,-0.054468088,9.949704,-0.0031957934,-0.026631612,-0.0015978967,16.957,0.0054034507,-0.05011149,9.806521,-0.003009249,0.0040231086,0.15754795,-0.002562,2.0E-4,-0.18426,55.425274,29.175388,2017-06-19 22:03:44,66.71380372650792
0.0077811554,-0.05925649,9.949105,-0.0029294773,-0.026897928,-0.00479369,16.957,0.0067924038,-0.058052465,9.806476,-0.0067924038,0.0065771304,0.17136002,-0.002973,2.05E-4,-0.18426,55.425274,29.175388,2017-06-19 22:03:45,51.97450353603135
0.004189853,-0.054468088,9.962274,-0.0029294773,-0.027164243,-0.002130529,16.957,0.001943025,-0.053793304,9.806502,-0.004935777,-0.0054631867,0.17432594,-0.002714,4.08E-4,-0.184259,55.672813,29.175388,2017-06-19 22:03:46,59.233124051253576
-0.0017956513,-0.05925649,9.936536,-0.0015978967,-0.026897928,0.0,16.957,-7.0398697E-4,-0.053830575,9.806502,0.0102807935,0.005946543,0.13182926,-0.002691,5.41E-4,-0.184259,55.672813,29.175388,2017-06-19 22:03:47,63.18871914601624
-0.0047884034,-0.051475335,9.948506,-0.0037284256,-0.025300032,-0.0018642128,16.957,0.0031625505,-0.047099356,9.806536,0.0034215043,-0.019339744,0.14675903,-0.00239,2.84E-4,-0.18426,55.672813,29.175388,2017-06-19 22:03:48,64.47982794007662
0.006584055,-0.04369418,9.970653,-0.0034621095,-0.028229509,-0.0015978967,16.957,0.0027143748,-0.046305355,9.8065405,-0.0027143748,8.155219E-4,0.12760067,-0.002346,2.99E-4,-0.18426,55.672813,29.175388,2017-06-19 22:03:49,54.9614879549094
0.010773907,-0.036511578,9.952697,-0.002396845,-0.026897928,-0.0029294773,16.957,0.006803395,-0.052682593,9.806506,-0.0032120927,-0.0071724504,0.1617527,-0.002704,1.54E-4,-0.18426,55.672813,29.175388,2017-06-19 22:03:50,70.97876488463923
0.009576807,-0.05925649,9.928156,-0.0031957934,-0.02876214,-0.002396845,16.9104,-0.0011762785,-0.053759474,9.806502,0.0035704803,0.0046783388,0.15636921,-0.002683,5.64E-4,-0.184259,55.672813,29.175388,2017-06-19 22:03:52,68.67056440211022
0.006584055,-0.05746084,9.951499,-0.0031957934,-0.026897928,-0.0010652645,16.957,0.0070010168,-0.051607884,9.806512,-0.014782172,-0.0022616535,0.15695858,-0.002652,1.34E-4,-0.18426,55.672813,29.074852,2017-06-19 22:03:53,62.053034548393704
0.02633622,-0.05626374,9.9550905,-0.002396845,-0.028495824,-0.0031957934,16.957,0.00621789,-0.051156055,9.806515,0.013534274,-0.015283044,0.1300211,-0.002622,1.69E-4,-0.18426,55.672813,29.074852,2017-06-19 22:03:54,60.56809242057763
0.0023942017,-0.05746084,9.929353,-0.002130529,-0.02743056,-0.0018642128,17.4226,0.0030286324,-0.053729486,9.806503,0.008942376,-0.003731355,0.17552185,-0.002721,3.53E-4,-0.18426,55.672813,29.074852,2017-06-19 22:03:55,63.46481010906068
0.011372458,-0.047285482,9.944317,-0.0018642128,-0.027696876,-0.0010652645,17.4226,0.0068347757,-0.05072113,9.806517,-0.0020463723,-0.010331012,0.14618015,-0.002606,1.34E-4,-0.18426,55.528873,29.129347,2017-06-19 22:03:56,56.369810682918455
0.0017956513,-0.048482586,9.9712515,-0.0034621095,-0.02743056,-0.0018642128,16.9104,0.0063926186,-0.05006574,9.80652,-0.02255348,0.0027802587,0.16054153,-0.002569,1.5E-4,-0.18426,55.528873,29.129347,2017-06-19 22:03:57,53.862899909501
0.02932897,-0.05566519,9.956287,-0.002130529,-0.027696876,-0.0018642128,16.9104,0.0062611857,-0.053941626,9.8064995,-0.010451039,-0.0077090673,0.14200687,-0.002762,1.93E-4,-0.18426,55.528873,29.129347,2017-06-19 22:03:58,62.9852696124898
5.985504E-4,-0.02813187,9.953894,-0.0015978967,-0.026897928,-0.0026631611,17.4102,0.0023792936,-0.05143667,9.806515,-0.004174945,-0.010214023,0.16832829,-0.0026,3.64E-4,-0.18426,55.727047,29.067698,2017-06-19 22:03:59,71.51095933346215
0.0,-0.044292733,9.998186,-0.0026631611,-0.026365295,-0.002130529,16.957,0.0060829213,-0.052139193,9.80651,0.017859094,-0.005920198,0.15576363,-0.00267,1.85E-4,-0.18426,55.727047,29.067698,2017-06-19 22:04:00,54.307671781748354
0.024540568,-0.0676362,9.9233675,-7.9894834E-4,-0.02609898,-0.0018642128,17.4226,0.0048021516,-0.053397004,9.806504,-1.3748184E-5,-0.0034652874,0.16175461,-0.002721,2.61E-4,-0.18426,55.727047,29.067698,2017-06-19 22:04:01,71.00051582623273
-0.0017956513,-0.049679685,9.991004,-0.0034621095,-0.02743056,-0.002396845,16.957,0.0018587414,-0.053769212,9.806502,0.011907918,0.0046880767,0.12584305,-0.002712,4.12E-4,-0.18426,55.727047,29.067698,2017-06-19 22:04:02,58.73285242487455
0.016759412,-0.053869538,9.956886,-0.0031957934,-0.026631612,-0.002130529,16.9104,0.005335817,-0.056030776,9.806489,-0.038256094,0.003956888,0.14860153,-0.002858,2.59E-4,-0.18426,55.727047,29.067698,2017-06-19 22:04:03,61.37338332166341
-0.0011971008,-0.05865794,9.938332,-0.0031957934,-0.026631612,-0.0015978967,16.957,-3.9920106E-4,-0.05503059,9.806496,-0.016360212,0.0023581535,0.13722229,-0.002754,5.37E-4,-0.184259,55.77982,29.177517,2017-06-19 22:04:04,55.14693021669214
0.008978256,-0.075417355,9.953295,-0.0013315806,-0.024767399,-0.002130529,16.9104,0.0037444045,-0.049883734,9.806522,-0.028883522,-0.011766959,0.18507957,-0.002535,2.81E-4,-0.18426,55.77982,29.177517,2017-06-19 22:04:05,52.38503529247283
0.019752163,-0.05865794,9.937134,-0.0010652645,-0.027164243,-0.0013315806,17.4226,0.005131084,-0.05291629,9.806506,0.0026500714,-0.0069387555,0.11147404,-0.0027,2.4E-4,-0.18426,55.77982,29.177517,2017-06-19 22:04:06,65.4368221874254
-0.0053869537,-0.055066638,10.001778,-0.0029294773,-0.026631612,-0.002130529,16.957,0.0021504457,-0.048725847,9.806529,0.009820562,0.0050316676,0.13898468,-0.002462,3.5E-4,-0.18426,55.77982,29.05771,2017-06-19 22:04:07,55.69849558541545
0.010175358,-0.05566519,9.9473095,-0.0013315806,-0.02743056,-0.002130529,16.9446,0.0015405406,-0.05622343,9.806489,-0.02967241,-0.0066243634,0.14501,-0.002832,4.51E-4,-0.184259,55.77982,29.05771,2017-06-19 22:04:08,66.68461316775988
-0.008379706,-0.050278235,9.999982,-0.0010652645,-0.025033714,-0.0039947415,16.9104,-1.0883181E-4,-0.054876383,9.806497,-4.8971863E-4,0.002802495,0.14799595,-0.002749,5.21E-4,-0.184259,55.77982,29.05771,2017-06-19 22:04:09,53.3185444633349
0.006584055,-0.05327099,9.97604,-0.0031957934,-0.02609898,-0.0034621095,16.957,0.003079255,-0.053041525,9.806506,-0.007269108,-0.011601917,0.14798641,-0.002687,3.44E-4,-0.18426,55.721584,29.113014,2017-06-19 22:04:10,65.8688534619862
0.020350715,-0.06584055,9.94312,-0.0018642128,-0.02743056,-0.0034621095,17.4226,0.00623112,-0.05197173,9.806511,0.0075355396,0.026832612,0.16893005,-0.002663,1.76E-4,-0.18426,55.721584,29.113014,2017-06-19 22:04:11,57.17493813069474
-0.005985504,-0.054468088,9.947908,-0.0037284256,-0.024501082,-0.002130529,16.957,-0.004113678,-0.054589517,9.806498,0.0065078796,-0.0058640763,0.13422775,-0.002697,7.19E-4,-0.184259,55.721584,29.113014,2017-06-19 22:04:12,68.82940676850883
-0.002992752,-0.051475335,9.956886,-0.002396845,-0.026897928,-0.0018642128,17.376,-0.004231714,-0.052895576,9.806506,0.020392574,-0.003966715,0.1815052,-0.002611,7.09E-4,-0.184259,55.721584,29.113014,2017-06-19 22:04:13,64.57714480768531
0.0047884034,-0.077811554,9.97185,-0.0018642128,-0.026365295,-0.0026631611,16.957,0.0022902088,-0.04861983,9.806529,-0.007078612,-0.004651159,0.15215302,-0.002458,3.42E-4,-0.18426,55.721584,29.113014,2017-06-19 22:04:14,69.58556910486068
0.01616086,-0.044891283,9.991004,-0.0029294773,-0.026365295,-0.0015978967,17.4102,0.007515441,-0.05296816,9.806504,0.0032584663,0.00987253,0.15576935,-0.002725,1.21E-4,-0.18426,55.721584,29.113014,2017-06-19 22:04:15,50.650661838255
-0.0053869537,-0.054468088,9.982025,-0.0031957934,-0.028495824,-0.0029294773,16.898,-0.005555821,-0.053283438,9.806504,-0.010006489,-0.0011846498,0.16414833,-0.002618,7.79E-4,-0.184259,55.97151,29.113014,2017-06-19 22:04:16,69.19389091946505
0.0053869537,-0.05327099,9.965864,-0.0015978967,-0.028229509,-0.002396845,17.4226,6.49115E-4,-0.05295833,9.806507,0.008927692,2.8588995E-4,0.1270361,-0.00266,4.65E-4,-0.18426,55.97151,29.113014,2017-06-19 22:04:17,63.228680014105834
0.010175358,-0.065242,9.925163,-0.0013315806,-0.026631612,-0.002130529,16.957,0.0022128897,-0.056296952,9.806488,0.010356669,0.018588275,0.14501095,-0.002842,4.18E-4,-0.18426,55.97151,29.113014,2017-06-19 22:04:18,55.320852179227096
0.008978256,-0.049679685,9.965266,-0.002396845,-0.02743056,-0.0031957934,17.4102,0.0052094785,-0.049928352,9.806522,-0.0010196255,-0.0021455362,0.17011642,-0.002551,2.08E-4,-0.18426,55.97151,29.113014,2017-06-19 22:04:19,58.97698017973235
0.01436521,-0.05925649,9.973646,-0.0039947415,-0.028229509,-0.002130529,17.376,0.0017045224,-0.05379812,9.806502,0.0012882296,-7.141754E-5,0.14978504,-0.002712,4.2E-4,-0.18426,55.97151,29.113014,2017-06-19 22:04:20,56.07565796625608
-0.005985504,-0.060453594,9.937134,-0.0037284256,-0.026365295,-0.002396845,17.376,0.0057517188,-0.049307883,9.806524,0.00681784,-3.718026E-4,0.116244316,-0.002525,1.75E-4,-0.184261,55.97151,29.113014,2017-06-19 22:04:21,50.78394981971361
0.008379706,-0.06823475,9.944317,-0.0026631611,-0.025832662,-0.002396845,16.9104,0.005629827,-0.054938,9.806495,0.008735383,0.01303947,0.16176414,-0.002806,2.34E-4,-0.18426,55.86769,29.185986,2017-06-19 22:04:22,63.15135637661318
-0.0035913025,-0.076015905,9.952697,-0.002396845,-0.027696876,-0.0015978967,17.4226,0.0051152934,-0.057409097,9.80648,-0.010502247,0.0155105665,0.16955948,-0.002925,2.83E-4,-0.18426,55.86769,29.185986,2017-06-19 22:04:23,68.74702200046718
0.010175358,-0.073023155,9.93893,-0.002396845,-0.026631612,-0.0031957934,17.4226,0.0017974408,-0.04833306,9.806531,0.004786614,0.014814235,0.15035534,-0.002439,3.64E-4,-0.18426,55.86769,29.185986,2017-06-19 22:04:24,67.64986150812616
-0.005985504,-0.062249243,9.969456,-0.0013315806,-0.027164243,-0.002396845,16.957,1.4432553E-4,-0.051436663,9.806515,0.008833931,-0.010812581,0.13121796,-0.002579,4.76E-4,-0.18426,55.86769,29.066013,2017-06-19 22:04:25,73.02056614250392
0.0053869537,-0.05925649,9.974244,-0.002130529,-0.02609898,-0.0013315806,17.4226,0.0054900055,-0.057278927,9.806481,0.011269407,-0.0061674155,0.14980602,-0.002922,2.63E-4,-0.18426,55.86769,29.066013,2017-06-19 22:04:26,61.099683651988116
-0.0047884034,-0.046686932,9.952098,-0.0026631611,-0.02609898,-0.0013315806,16.957,0.0011635936,-0.052402917,9.806511,3.350724E-5,0.004518885,0.14019966,-0.002637,4.34E-4,-0.18426,55.86769,29.066013,2017-06-19 22:04:27,68.00476232472428
-0.020350715,-0.047285482,9.952697,-7.9894834E-4,-0.027164243,-0.0029294773,17.376,0.004911733,-0.055471722,9.806492,-0.0067073843,-0.009770278,0.11986828,-0.002826,2.75E-4,-0.18426,55.904346,29.119936,2017-06-19 22:04:28,51.326500641257994
0.0077811554,-0.065242,9.933543,-0.0026631611,-0.02609898,-0.0015978967,17.4226,0.009132415,-0.051587474,9.806511,0.014211051,-0.0040777177,0.1581564,-0.002671,2.7E-5,-0.184261,55.904346,29.119936,2017-06-19 22:04:29,59.74275796724113
0.020350715,-0.073621705,9.956287,-0.002396845,-0.026365295,-7.9894834E-4,17.3636,0.0028225924,-0.054227073,9.8064995,0.0079513155,-0.0044308677,0.1695404,-0.002744,3.68E-4,-0.18426,55.904346,29.119936,2017-06-19 22:04:30,55.3154372639993
0.0,-0.047884032,9.956886,-0.0034621095,-0.02956109,-0.0013315806,17.376,5.6483137E-4,-0.051018547,9.806518,-0.0065503353,-0.024398807,0.14976978,-0.002562,4.51E-4,-0.18426,55.904346,29.119936,2017-06-19 22:04:31,54.418170789594825
-0.002992752,-0.051475335,9.940725,-0.0018642128,-0.02743056,-0.0018642128,17.4102,0.0032106782,-0.051400557,9.806515,0.007563229,-0.0024689808,0.15396309,-0.002606,3.22E-4,-0.184261,55.904346,29.119936,2017-06-19 22:04:32,52.28834660548721
0.010773907,-0.034117375,9.946113,-0.002130529,-0.026897928,-0.002130529,16.957,0.004023856,-0.05446085,9.806499,-0.02257892,0.0017884113,0.14500046,-0.002767,3.1E-4,-0.184261,55.904346,29.119936,2017-06-19 22:04:33,61.51123910283096
-0.0011971008,-0.04249708,9.933543,-0.002396845,-0.026897928,-0.0015978967,17.3636,0.004579329,-0.052740365,9.806507,0.0020047259,-0.0047204755,0.16474438,-0.002686,2.66E-4,-0.184261,56.0196,29.119936,2017-06-19 22:04:34,62.04608302318634
-0.004189853,-0.06464344,9.974843,-0.0010652645,-0.028495824,-0.002396845,16.9104,8.804527E-4,-0.052595682,9.806509,9.151986E-4,-0.013244867,0.15456676,-0.002644,4.5E-4,-0.18426,56.0196,29.119936,2017-06-19 22:04:35,46.757378346474844
0.002992752,-0.060453594,9.97185,-0.0034621095,-0.028495824,-7.9894834E-4,16.957,0.004959829,-0.05913435,9.806471,-0.0067554805,0.0046662614,0.14263439,-0.00301,3.07E-4,-0.18426,56.0196,29.119936,2017-06-19 22:04:36,48.169946940752865
0.005985504,-0.048482586,9.953894,-0.0037284256,-0.027164243,-0.0015978967,17.376,0.0023189657,-0.05452104,9.806499,0.0036665383,-0.0011441521,0.16654873,-0.002754,3.96E-4,-0.18426,56.0196,29.080582,2017-06-19 22:04:37,65.00312809944366
0.0053869537,-0.06344634,9.9790325,-0.0031957934,-0.025832662,-0.0013315806,17.4226,-0.003983309,-0.047301568,9.806535,9.90557E-4,0.009592891,0.15633678,-0.002333,6.44E-4,-0.18426,56.0196,29.080582,2017-06-19 22:04:38,64.66952566580841
0.002992752,-0.05686229,9.980828,-0.0018642128,-0.02609898,-0.0031957934,17.4226,0.0016709169,-0.048935473,9.806528,0.0019203856,0.0016499907,0.15694237,-0.002468,3.76E-4,-0.18426,56.0196,29.080582,2017-06-19 22:04:39,66.71681796132282
5.985504E-4,-0.055066638,9.965864,-0.0013315806,-0.027963191,-0.0013315806,17.3636,0.004086428,-0.057562027,9.80648,-0.0022907765,1.01186335E-4,0.10551453,-0.002923,3.36E-4,-0.184261,56.0196,29.080582,2017-06-19 22:04:40,57.28589050760881
-0.011971008,-0.06584055,9.966463,-0.0026631611,-0.026631612,-0.0015978967,17.3636,-0.002077413,-0.052890778,9.806507,-9.15339E-4,0.007999495,0.14918232,-0.002631,6.01E-4,-0.18426,56.0196,29.080582,2017-06-19 22:04:41,55.04524588104406
0.019153614,-0.053869538,9.965864,-0.002130529,-0.027963191,-0.0013315806,17.4226,-0.0011497922,-0.056348663,9.806488,-0.006032813,0.0036762245,0.13902569,-0.002813,5.87E-4,-0.18426,56.0196,29.080582,2017-06-19 22:04:42,54.318076100878045
0.008978256,-0.05566519,9.919178,-0.0026631611,-0.02743056,-0.0026631611,17.3636,-0.0013159883,-0.053865507,9.806502,0.019871052,-0.0071866363,0.17791748,-0.002687,5.72E-4,-0.18426,56.0196,29.1028,2017-06-19 22:04:43,65.31344256096288
-0.011372458,-0.04189853,9.973646,-0.002396845,-0.02743056,-0.002396845,17.4102,9.214308E-4,-0.052069165,9.806512,-9.214308E-4,-0.010778628,0.13002396,-0.002618,4.43E-4,-0.18426,56.0196,29.1028,2017-06-19 22:04:44,60.48416464920035
0.006584055,-0.054468088,9.966463,-0.0029294773,-0.026897928,-0.0013315806,17.376,0.001017728,-0.0552439,9.806495,-0.0016162784,0.013345368,0.14799786,-0.002778,4.68E-4,-0.18426,56.0196,29.1028,2017-06-19 22:04:45,66.30661955265433
-0.008379706,-0.0700304,9.941922,-0.0026631611,-0.027696876,-0.0031957934,17.376,-0.0032521,-0.052053392,9.806512,-3.3920258E-4,-0.011392951,0.15396595,-0.002578,6.52E-4,-0.18426,56.186996,29.099604,2017-06-19 22:04:46,59.56825274316281
0.018555064,-0.0700304,9.959281,-0.002396845,-0.029294772,-0.002130529,17.3636,0.0017080278,-0.057967976,9.8064785,0.0030803755,-0.002485618,0.17434978,-0.002921,4.59E-4,-0.18426,56.186996,29.099604,2017-06-19 22:04:47,64.53597013708828
0.004189853,-0.05925649,9.9550905,-0.0018642128,-0.02743056,-5.326322E-4,17.3636,0.0022129628,-0.055658404,9.806492,-0.0028115134,0.010767121,0.13782501,-0.00281,4.12E-4,-0.184261,56.186996,29.099604,2017-06-19 22:04:48,60.9186943901763
0.0,-0.05865794,9.973646,-0.0015978967,-0.029028457,-0.0013315806,17.376,-9.0509903E-4,-0.052331775,9.806511,9.0509903E-4,-0.006326165,0.16713524,-0.002614,5.37E-4,-0.18426,56.203945,29.037983,2017-06-19 22:04:50,66.71278625834222
0.0017956513,-0.06584055,9.980229,-7.9894834E-4,-0.025300032,-5.326322E-4,17.3636,5.7797457E-5,-0.045226965,9.806546,-0.012028806,-0.011036776,0.122208595,-0.002267,4.22E-4,-0.184261,56.203945,29.037983,2017-06-19 22:04:51,51.538067752170036
-0.0011971008,-0.0676362,9.932345,-0.0034621095,-0.026897928,-0.002396845,17.4102,-3.6655803E-4,-0.052969143,9.806507,-0.012801551,-0.0038931482,0.17432117,-0.002651,5.16E-4,-0.18426,56.203945,29.037983,2017-06-19 22:04:52,67.94905462607667
0.011971008,-0.05925649,9.943718,-0.0010652645,-0.028495824,-0.002396845,17.3636,0.0037310633,-0.055134345,9.806494,0.008239944,-0.0041221455,0.1372242,-0.002798,3.31E-4,-0.184261,56.174454,29.092869,2017-06-19 22:04:53,51.717904172053785
0.0017956513,-0.04129998,9.958682,-0.002396845,-0.026897928,-0.002396845,17.376,0.003605834,-0.052443955,9.806509,5.840191E-4,3.700666E-4,0.15636253,-0.002645,2.86E-4,-0.184261,56.174454,29.092869,2017-06-19 22:04:54,53.023474588749195
0.002992752,-0.047285482,9.944317,-0.002396845,-0.028495824,-0.0018642128,17.376,0.0040673534,-0.049902983,9.806522,-0.0010746014,0.0026175007,0.1377945,-0.002513,2.27E-4,-0.184261,56.39892,28.972883,2017-06-19 22:04:55,53.597140312173586
-0.002992752,-0.053869538,9.920375,-0.0013315806,-0.028229509,-0.0018642128,17.376,-1.7857029E-4,-0.053652298,9.806503,-0.0028141816,0.013549421,0.14020729,-0.002711,5.49E-4,-0.184261,56.39892,28.972883,2017-06-19 22:04:56,64.11910209793652
0.012569559,-0.060453594,9.979631,-0.0029294773,-0.027963191,-0.0013315806,17.3636,-0.0034172588,-0.05553655,9.806493,-0.013940703,-0.00970545,0.14440823,-0.002751,6.93E-4,-0.18426,56.39892,28.972883,2017-06-19 22:04:57,55.88863718188844
0.0023942017,-0.044292733,9.939528,-0.0018642128,-0.027164243,-0.0018642128,17.3636,7.7069784E-4,-0.05914147,9.806472,0.0016235039,0.014848735,0.13305664,-0.002971,5.17E-4,-0.184261,56.39892,28.972883,2017-06-19 22:04:58,68.99510150419027
0.01316811,-0.06823475,9.962274,-0.0031957934,-0.029827405,-0.0029294773,17.3636,-0.0018943282,-0.054612484,9.806499,-0.0022955248,-0.0022498071,0.15996456,-0.002719,6.08E-4,-0.18426,56.39892,29.027699,2017-06-19 22:04:59,50.44795579403255
0.0011971008,-0.08140286,9.966463,-0.002130529,-0.027696876,-0.002130529,17.3636,0.002088845,-0.056380093,9.806488,-8.9174416E-4,-0.025022767,0.15997505,-0.002845,4.25E-4,-0.184261,56.39892,29.027699,2017-06-19 22:05:00,62.02685816762431
-0.0011971008,-0.044891283,9.953894,-0.002130529,-0.029028457,-0.0026631611,17.3636,8.841704E-4,-0.050699286,9.8065195,0.012882489,0.009997856,0.11864376,-0.002549,4.32E-4,-0.184261,56.39892,29.027699,2017-06-19 22:05:01,55.055969358454234
-0.01436521,-0.061052144,9.969456,-0.0013315806,-0.027963191,-0.0029294773,17.3636,0.0025359357,-0.05280417,9.806507,-0.0013388349,0.017489694,0.15935707,-0.00267,3.69E-4,-0.184261,56.39892,29.027699,2017-06-19 22:05:02,55.4620819788304
0.009576807,-0.06284779,9.96766,-0.0037284256,-0.026897928,-0.0026631611,17.376,0.002561331,-0.049107797,9.806527,0.010606779,-0.013141446,0.15634441,-0.002485,3.33E-4,-0.184261,56.39892,29.027699,2017-06-19 22:05:03,60.66961024950004
-0.002992752,-0.076015905,9.964667,-0.0026631611,-0.027963191,-0.0026631611,17.3636,-2.1100955E-4,-0.050286,9.806521,0.0032037615,7.763505E-6,0.16712475,-0.002518,4.83E-4,-0.184261,56.368553,29.027699,2017-06-19 22:05:04,69.03093374249498
-0.01316811,-0.061052144,9.969456,-0.0015978967,-0.026365295,-0.0037284256,17.3636,-0.0017980281,-0.058106437,9.806478,-0.004187476,-0.0023471564,0.13664246,-0.002895,6.36E-4,-0.18426,56.368553,29.027699,2017-06-19 22:05:05,62.85203309466411
-0.013766659,-0.034117375,9.980828,-0.0037284256,-0.029294772,-0.0026631611,17.3636,0.002333336,-0.06002586,9.806466,0.010834774,-0.009405989,0.14742756,-0.00303,4.47E-4,-0.184261,56.368553,29.027699,2017-06-19 22:05:06,55.80220157370217
-0.0011971008,-0.05267244,9.979631,-0.002396845,-0.028229509,-0.0037284256,17.3636,0.002550313,-0.055754796,9.806492,0.005829393,0.018046118,0.19229317,-0.002818,3.96E-4,-0.184261,56.368553,29.027699,2017-06-19 22:05:07,64.24977722498818
-0.008978256,-0.05686229,9.950302,-0.0031957934,-0.027164243,-0.0018642128,17.3636,0.007820275,-0.056722365,9.806483,0.008340586,0.017816588,0.15339565,-0.002916,1.41E-4,-0.184262,56.368553,29.027699,2017-06-19 22:05:08,61.73506102135049
0.004189853,-0.039504327,9.965864,-0.0018642128,-0.02743056,-0.0018642128,17.3636,0.0031588227,-0.05314636,9.806506,-0.008545777,-0.012095641,0.17312527,-0.002693,3.41E-4,-0.184261,56.368553,29.027699,2017-06-19 22:05:09,64.60759552799291
0.016759412,-0.05746084,9.928755,-0.0010652645,-0.029028457,-7.9894834E-4,17.3636,0.0011660241,-0.05348004,9.806504,0.010804984,-0.0027837008,0.14619255,-0.002691,4.44E-4,-0.184261,56.427155,29.042395,2017-06-19 22:05:10,55.040378162565446
0.0053869537,-0.047285482,9.939528,-0.0018642128,-0.026631612,-0.0039947415,17.3636,0.0025262916,-0.052965615,9.806506,-0.018687151,0.020643894,0.14020443,-0.002678,3.71E-4,-0.184261,56.427155,29.042395,2017-06-19 22:05:11,65.55360219126521
-0.0035913025,-0.05327099,9.933543,-0.0029294773,-0.025832662,-0.002130529,17.3636,0.004203561,-0.049458403,9.806524,-0.0018093595,-0.01279084,0.14078522,-0.002518,2.54E-4,-0.184262,56.427155,29.042395,2017-06-19 22:05:12,68.36590885083639
0.009576807,-0.05925649,9.977836,-0.0018642128,-0.028495824,-0.0015978967,17.3636,-6.0998625E-4,-0.057205267,9.806483,-0.0035798668,0.021890793,0.1833229,-0.002861,5.68E-4,-0.184261,56.427155,29.042395,2017-06-19 22:05:13,73.28848093350265
5.985504E-4,-0.08140286,9.939528,-0.002130529,-0.027164243,-0.002130529,17.3636,0.0016154153,-0.053854756,9.806502,0.016341098,-0.0048031844,0.15457344,-0.002714,4.25E-4,-0.184261,56.427155,29.042395,2017-06-19 22:05:14,58.06250053449682
-0.0023942017,-0.05626374,9.944916,-0.0013315806,-0.026897928,-0.0018642128,17.3636,7.841253E-4,-0.05229448,9.806511,-0.004375428,-0.005764909,0.14319324,-0.002628,4.52E-4,-0.184261,56.427155,29.042395,2017-06-19 22:05:15,64.50639948230345
0.0023942017,-0.0688333,9.982624,-0.0018642128,-0.029827405,-0.0037284256,17.3636,0.0012552785,-0.05182702,9.806514,5.403728E-4,-0.010422222,0.15097141,-0.002609,4.24E-4,-0.184262,56.427155,29.042395,2017-06-19 22:05:16,64.77889707873231
-0.004189853,-0.053869538,9.959879,-0.0013315806,-0.02876214,-0.0013315806,17.3636,0.004199863,-0.052631922,9.806508,-0.009586817,0.010733392,0.1384077,-0.002677,2.84E-4,-0.184262,56.427155,29.042395,2017-06-19 22:05:17,61.576143947943606
5.985504E-4,-0.06823475,9.962872,-0.002130529,-0.028495824,-0.0034621095,17.376,-1.7132657E-4,-0.05305229,9.806506,0.008551033,0.010555211,0.11985397,-0.002657,5.07E-4,-0.184261,56.427155,29.042395,2017-06-19 22:05:18,71.24526230405284
0.019752163,-0.05267244,9.959879,-0.0029294773,-0.027164243,-0.0010652645,17.3636,5.636389E-4,-0.052395675,9.806511,0.0072175167,-0.0056637153,0.17072582,-0.002631,4.64E-4,-0.184261,56.45338,29.032726,2017-06-19 22:05:19,54.979661670950044
0.0077811554,-0.06284779,9.970055,-0.002130529,-0.02956109,-0.0013315806,17.3636,0.002510522,-0.059374053,9.80647,0.0052706334,-0.00347374,0.16358471,-0.002999,4.32E-4,-0.184262,56.45338,29.032726,2017-06-19 22:05:20,55.54102208659296
-0.006584055,-0.049679685,9.968858,-0.0010652645,-0.028229509,-0.002130529,17.3636,-0.0019135774,-0.055573955,9.806493,0.0049063293,0.00589427,0.14560509,-0.002767,6.18E-4,-0.184261,56.45338,29.032726,2017-06-19 22:05:21,69.35527932107527
-0.024540568,-0.04189853,9.980828,-5.326322E-4,-0.029028457,-7.9894834E-4,17.8292,0.0021455344,-0.056469206,9.806487,0.0038399696,0.0037967674,0.123464584,-0.00285,4.23E-4,-0.184262,56.85163,29.000322,2017-06-19 22:05:22,66.52823647377272
-0.0011971008,-0.06284779,9.962872,-2.663161E-4,-0.026897928,-0.002396845,17.3636,-0.009025778,-0.05744599,9.806478,0.01201853,0.016146012,0.13125515,-0.002794,9.92E-4,-0.18426,56.85163,29.000322,2017-06-19 22:05:23,53.787448534108535
0.005985504,-0.04369418,9.934141,-0.0013315806,-0.029827405,-5.326322E-4,17.3636,-0.0027870985,-0.056236587,9.806488,-0.0031984055,-0.026961923,0.14740562,-0.002792,6.68E-4,-0.184261,56.85163,29.000322,2017-06-19 22:05:24,61.11578796305964
0.0035913025,-0.054468088,9.969456,-0.002130529,-0.02743056,-0.0029294773,17.3636,0.0015166751,-0.05375355,9.806503,0.007461581,-0.0037072897,0.17252922,-0.002708,4.29E-4,-0.184262,56.85163,28.909723,2017-06-19 22:05:25,65.42850278407653
-0.005985504,-0.05865794,9.97185,-0.0015978967,-0.02956109,-0.002130529,17.3636,-0.0034678269,-0.056224518,9.806488,-0.012693034,-0.012608781,0.14082146,-0.002785,7.02E-4,-0.184261,56.85163,28.909723,2017-06-19 22:05:26,61.59260670380664
0.012569559,-0.055066638,9.96347,-0.002396845,-0.030360037,-0.002396845,17.3636,0.004886595,-0.053421114,9.806503,-0.0024923934,-0.004638277,0.17731762,-0.002723,2.57E-4,-0.184262,56.85163,28.909723,2017-06-19 22:05:27,56.536384864215975
-0.0077811554,-0.07062895,9.949704,-0.002130529,-0.027963191,-0.0018642128,17.3636,0.0017841612,-0.053264398,9.806505,-0.021536324,0.008971665,0.17013359,-0.002686,4.11E-4,-0.184262,56.731503,28.909723,2017-06-19 22:05:28,66.26314260794872
-0.007182605,-0.046686932,9.969456,-0.0034621095,-0.02876214,-7.9894834E-4,17.3636,0.0010672839,-0.053378843,9.806504,0.0037211194,-0.00946895,0.13242531,-0.002685,4.48E-4,-0.184262,56.731503,28.909723,2017-06-19 22:05:29,64.43184736650615
-0.022146367,-0.04129998,9.941922,-0.002130529,-0.026897928,-0.0018642128,17.3636,-1.1228414E-4,-0.05485714,9.806497,-0.015450027,-0.024151515,0.14560127,-0.002748,5.21E-4,-0.184262,56.731503,28.909723,2017-06-19 22:05:30,63.55946987877809
-0.002992752,-0.055066638,9.956886,-0.002130529,-0.029294772,-0.0018642128,17.3636,-8.847333E-4,-0.05893299,9.806473,-3.1236757E-4,-0.0027177036,0.13485146,-0.002945,5.98E-4,-0.184261,56.93471,28.909723,2017-06-19 22:05:31,68.05918306824589
-0.0017956513,-0.054468088,9.973646,-0.0013315806,-0.029294772,-0.0039947415,17.3636,0.0038937985,-0.05408615,9.8065,0.004485908,-0.006965995,0.13242912,-0.002747,3.13E-4,-0.184262,56.93471,28.909723,2017-06-19 22:05:32,59.65416976520393
0.01616086,-0.0664391,9.939528,0.0,-0.028495824,-0.002396845,17.3636,0.004807055,-0.054274127,9.806499,-0.009595458,4.0458888E-4,0.14799404,-0.002765,2.69E-4,-0.184262,56.93471,28.909723,2017-06-19 22:05:33,59.89394666144912
-0.004189853,-0.059855044,9.952697,-0.0029294773,-0.02876214,-0.0029294773,17.3636,0.0045816107,-0.05988375,9.806466,0.022353157,0.01918232,0.14443493,-0.003044,3.33E-4,-0.184262,56.93471,28.909723,2017-06-19 22:05:34,70.22283736080647
-0.0017956513,-0.05207389,9.947908,-0.0026631611,-0.029827405,-0.002396845,17.3636,0.0031286387,-0.057881285,9.8064785,-0.0025300882,0.005807396,0.16118145,-0.00293,3.87E-4,-0.184262,56.93471,28.909723,2017-06-19 22:05:35,61.38363970821067
0.008379706,-0.05327099,9.955689,-0.002396845,-0.02743056,-0.0026631611,17.3636,0.001537095,-0.056523405,9.806487,-0.004529847,-9.374358E-4,0.14860344,-0.002847,4.54E-4,-0.184262,56.93471,28.909723,2017-06-19 22:05:36,53.31919247723754
-0.0053869537,-0.046686932,9.956287,-0.002130529,-0.02609898,0.0,17.3636,0.0019998185,-0.053563207,9.806504,0.0021900346,2.9221922E-4,0.1713314,-0.002703,4.03E-4,-0.184262,56.93471,28.909723,2017-06-19 22:05:37,58.77321890937865
0.0035913025,-0.045489833,9.940127,-0.002396845,-0.028495824,-5.326322E-4,17.3636,-5.6291744E-4,-0.055859547,9.806491,-0.009013889,0.012763917,0.110292435,-0.002794,5.53E-4,-0.184262,56.93471,28.909723,2017-06-19 22:05:38,65.08774955401648
0.011372458,-0.05207389,9.938332,-0.002396845,-0.026897928,-2.663161E-4,17.376,0.002848031,-0.05308491,9.806506,-0.0016509301,-0.01275564,0.14978123,-0.002687,3.56E-4,-0.184262,56.93471,28.909723,2017-06-19 22:05:39,61.220295239152236
0.006584055,-0.0724246,9.976639,-0.0018642128,-0.029028457,-0.002130529,17.3636,0.002515353,-0.058974054,9.806473,-1.2115133E-4,0.0015132129,0.15400505,-0.002979,4.28E-4,-0.184262,56.901466,28.923582,2017-06-19 22:05:40,61.012162306521425
0.010773907,-0.0676362,9.9473095,-0.0018642128,-0.029827405,-0.0026631611,17.3636,0.0011780777,-0.055353563,9.806494,-0.0041708294,0.008666631,0.1665535,-0.002785,4.61E-4,-0.184262,56.901466,28.923582,2017-06-19 22:05:41,65.28101307105527
-0.004189853,-0.054468088,9.952697,-0.002130529,-0.02876214,-0.0018642128,17.376,0.002158725,-0.058881275,9.806473,-0.0015601745,-0.0039665177,0.1336546,-0.002971,4.45E-4,-0.184262,56.901466,28.923582,2017-06-19 22:05:42,61.991092055442614
0.011971008,-0.05566519,9.953894,-0.0026631611,-0.028229509,-5.326322E-4,17.3636,0.0024359943,-0.052483685,9.806509,0.009535014,-0.003181506,0.14738464,-0.002653,3.71E-4,-0.184262,56.901466,28.923582,2017-06-19 22:05:43,63.054543131659614
5.985504E-4,-0.04129998,9.935937,-0.0026631611,-0.029294772,-0.0013315806,17.3636,-3.736819E-4,-0.052930605,9.806507,0.017133094,-0.017099794,0.14559078,-0.002649,5.16E-4,-0.184262,56.901466,28.923582,2017-06-19 22:05:44,60.0176380381777
0.01316811,-0.06404489,9.9473095,-0.002396845,-0.028229509,-0.0013315806,17.8292,0.0011250831,-0.054645117,9.806498,-0.0047163856,1.7702952E-4,0.13422775,-0.002749,4.57E-4,-0.184262,56.901466,28.923582,2017-06-19 22:05:46,68.13969790315075
0.009576807,-0.039504327,9.997588,-2.663161E-4,-0.028495824,-0.0018642128,17.3636,0.0025709358,-0.052458387,9.80651,0.0070058713,0.01295406,0.19107819,-0.002653,3.64E-4,-0.184262,56.539497,29.150257,2017-06-19 22:05:46,65.67883185791504
-0.004189853,-0.027533319,9.953894,-0.0031957934,-0.02876214,-0.0010652645,17.376,-0.002185638,-0.0488004,9.806529,-0.002004215,0.021267083,0.14736462,-0.002425,5.68E-4,-0.184262,56.539497,29.150257,2017-06-19 22:05:47,62.0440663887984
-0.011372458,-0.046686932,9.941922,-0.0026631611,-0.029294772,-0.0015978967,17.376,-0.0036377013,-0.055957038,9.80649,-5.521518E-4,0.01764981,0.13543224,-0.00277,7.08E-4,-0.184261,56.59429,29.05837,2017-06-19 22:05:48,61.31971033471971
0.01316811,-0.046088383,9.957485,-0.0010652645,-0.02743056,-0.002396845,17.3636,0.0019902245,-0.051808972,9.806514,0.012374986,-0.026601132,0.14917564,-0.002615,3.87E-4,-0.184262,56.59429,29.05837,2017-06-19 22:05:49,58.99271738297763
0.01316811,-0.0724246,9.935339,-0.002130529,-0.02876214,-0.0015978967,17.3636,-9.688816E-4,-0.053481203,9.806504,-0.013994879,-0.008169491,0.11865902,-0.002671,5.51E-4,-0.184262,56.59429,29.05837,2017-06-19 22:05:51,68.8688007678456
0.0023942017,-0.06584055,9.973047,-0.0037284256,-0.028229509,-0.0013315806,17.376,-0.0023954962,-0.05757994,9.80648,0.00778245,-0.0010780022,0.141428,-0.002863,6.61E-4,-0.184262,56.59429,29.05837,2017-06-19 22:05:52,64.3687535878251
-0.0017956513,-0.047884032,9.952098,-0.0015978967,-0.027963191,-0.0015978967,17.3636,-0.0016376592,-0.05757755,9.806481,0.005827512,0.0126862675,0.14801121,-0.00287,6.23E-4,-0.184262,56.59429,29.05837,2017-06-19 22:05:53,64.95004685777813
-0.010773907,-0.038307227,9.951499,-0.0013315806,-0.02876214,-0.0018642128,17.3636,-0.00525932,-0.05294854,9.806506,-0.0055145873,0.014641311,0.14499283,-0.002604,7.61E-4,-0.184261,56.59429,29.05837,2017-06-19 22:05:54,62.452712238691234
-0.006584055,-0.06404489,9.944317,-0.002396845,-0.026897928,-0.002130529,17.3636,6.394772E-4,-0.057270374,9.806482,0.012528633,-0.02113973,0.12586308,-0.002876,5.06E-4,-0.184262,56.59429,29.108152,2017-06-19 22:05:55,58.79785109454129
-0.004189853,-0.05746084,9.990405,-0.0026631611,-0.028229509,-5.326322E-4,17.3636,0.0028552718,-0.055039097,9.806496,-0.0052494733,-0.0048159473,0.15817165,-0.002785,3.74E-4,-0.184263,56.59429,29.108152,2017-06-19 22:05:56,64.29000399967124
-0.0023942017,-0.05566519,9.956287,-0.002130529,-0.028229509,-0.0029294773,17.3636,0.0013081972,-0.055728212,9.806492,-0.0013081972,-0.010112338,0.14440918,-0.002805,4.58E-4,-0.184262,56.59429,29.108152,2017-06-19 22:05:57,72.85958358528106
-0.0053869537,-0.038905777,9.92636,-0.0013315806,-0.02956109,-0.0018642128,17.3636,-0.0027328967,-0.059399217,9.80647,0.0021343464,-0.012426831,0.14502907,-0.002951,6.95E-4,-0.184262,56.59429,29.108152,2017-06-19 22:05:58,62.018433709876604
-0.0011971008,-0.06344634,9.960478,-0.002130529,-0.03009372,-0.0015978967,17.3636,4.0581462E-4,-0.05400172,9.806501,-0.009982621,-0.0076489747,0.13003445,-0.00271,4.87E-4,-0.184262,56.59429,29.108152,2017-06-19 22:05:59,50.93345370465444
0.022146367,-0.053869538,9.935339,-0.0015978967,-0.029028457,-0.0018642128,17.3636,-1.6643519E-4,-0.052333016,9.806511,-0.00701617,0.0032518804,0.13660908,-0.002621,5.0E-4,-0.184262,56.59429,29.108152,2017-06-19 22:06:00,66.93700748886504
0.0011971008,-0.065242,9.948506,-0.0034621095,-0.027696876,-5.326322E-4,17.3636,0.0021371583,-0.05397647,9.806501,-0.0027357088,-0.0076742247,0.16056061,-0.002725,4.0E-4,-0.184262,56.720943,29.09943,2017-06-19 22:06:01,62.42947267516044
0.0077811554,-0.061052144,9.915586,-0.0026631611,-0.02956109,-0.0034621095,17.3636,-0.0016930756,-0.057388388,9.806482,-0.0012996764,0.0035188496,0.16057968,-0.00286,6.24E-4,-0.184262,56.720943,29.09943,2017-06-19 22:06:02,56.66798028903378
-0.014963761,-0.06464344,9.935339,-0.002130529,-0.029827405,-7.9894834E-4,17.3636,-8.869275E-4,-0.052428175,9.80651,0.0020840284,9.5283985E-4,0.16114998,-0.002619,5.37E-4,-0.184262,56.720943,29.09943,2017-06-19 22:06:03,57.42499630348195
0.005985504,-0.06703765,9.952697,-0.0013315806,-0.028495824,-0.002396845,17.3636,-0.0041977903,-0.05201122,9.806512,0.020358652,-0.0024568662,0.14678288,-0.002567,6.99E-4,-0.184262,56.720943,29.09943,2017-06-19 22:06:04,67.26319551792093
-0.017956512,-0.061650693,9.946711,-0.002130529,-0.02956109,-0.0026631611,17.3636,-0.003625617,-0.057191946,9.806483,3.4314347E-5,-0.022415258,0.1527977,-0.002832,7.19E-4,-0.184262,56.720943,29.09943,2017-06-19 22:06:05,59.11690391601637
0.01616086,-0.047884032,9.9473095,-7.9894834E-4,-0.02956109,-0.0018642128,17.3636,-0.0059772884,-0.05060875,9.806518,-0.001803867,-0.010443393,0.13540459,-0.00248,7.75E-4,-0.184262,56.720943,29.09943,2017-06-19 22:06:06,63.09613672171798
-0.0023942017,-0.047884032,9.9550905,-0.0013315806,-0.029028457,-0.002396845,17.3636,-0.0051568886,-0.054026876,9.8064995,0.005755439,0.007938493,0.11986065,-0.002659,7.66E-4,-0.184262,56.720943,29.09943,2017-06-19 22:06:07,60.174366995418296
-0.010773907,-0.05925649,9.949105,-0.0026631611,-0.02743056,-0.002130529,17.3636,4.0101114E-4,-0.053443883,9.806504,-0.006985066,0.0073555,0.15217781,-0.002682,4.82E-4,-0.184262,56.720943,29.09943,2017-06-19 22:06:08,52.190371331782465
-0.008379706,-0.050278235,9.9473095,-0.0026631611,-0.029827405,-0.002396845,17.3636,-0.0017170787,-0.053322136,9.806504,0.011293885,-0.0065329075,0.12823582,-0.002656,5.87E-4,-0.184262,56.720943,29.09943,2017-06-19 22:06:09,54.479773152800874
-5.985504E-4,-0.06823475,9.986216,-7.9894834E-4,-0.027963191,-0.0031957934,17.3636,-0.005772713,-0.058512367,9.806474,0.008166915,0.0016500764,0.14023685,-0.002878,8.39E-4,-0.184261,56.720943,29.087,2017-06-19 22:06:10,51.215038987717215
0.008379706,-0.045489833,9.945514,-0.0029294773,-0.028229509,-0.0013315806,17.3636,-0.0042557246,-0.056491926,9.806486,-0.014299339,0.011002094,0.16057587,-0.002791,7.44E-4,-0.184262,56.720943,29.087,2017-06-19 22:06:11,75.00170365737158
0.0,-0.050278235,9.97604,-0.002396845,-0.029827405,-0.0018642128,17.3636,-0.002548403,-0.053038985,9.806506,0.0019498527,0.0027607493,0.1563654,-0.002634,6.26E-4,-0.184262,56.720943,29.087,2017-06-19 22:06:12,52.74669475289735
-0.0053869537,-0.0664391,9.969456,-0.0010652645,-0.028495824,-0.0034621095,17.3636,-5.243207E-4,-0.054255918,9.8064995,-0.0018698811,0.012955938,0.14859104,-0.002714,5.36E-4,-0.184262,56.99973,29.087,2017-06-19 22:06:13,62.81465582548594
-0.011971008,-0.05566519,9.962872,-0.002130529,-0.027963191,-0.0018642128,17.3636,-0.001638948,-0.06087035,9.806461,0.0064273514,-0.009758599,0.18753529,-0.003035,6.54E-4,-0.184262,56.99973,29.087,2017-06-19 22:06:14,49.23275911500064
-0.0011971008,-0.051475335,9.94312,-0.0015978967,-0.029827405,-0.0018642128,17.3636,6.1661925E-4,-0.055977594,9.806491,-0.011989078,0.0068964586,0.13902283,-0.002811,4.95E-4,-0.184262,56.99973,29.087,2017-06-19 22:06:15,68.25156362452344
0.015562311,-0.054468088,9.962872,-0.0018642128,-0.029294772,-0.002396845,17.3636,-0.003491814,-0.054073907,9.8065,0.0040903646,-0.015357941,0.13721752,-0.002677,6.83E-4,-0.184262,56.99973,29.087,2017-06-19 22:06:16,71.37220303777794
0.005985504,-0.053869538,9.954493,-5.326322E-4,-0.027696876,-0.0018642128,17.3636,-0.006402605,-0.05110754,9.806515,0.0016142018,-0.0063533,0.12104225,-0.002501,8.01E-4,-0.184262,56.99973,29.087,2017-06-19 22:06:17,70.17300050435915
0.008978256,-0.061650693,9.959281,-0.0031957934,-0.028229509,-0.0010652645,17.3636,-0.0032350696,-0.049695563,9.806524,0.0062278216,-0.010758031,0.12342739,-0.00246,6.29E-4,-0.184262,56.99973,29.087,2017-06-19 22:06:18,63.18175177488812
-0.0017956513,-0.0712275,9.944916,-0.002396845,-0.029827405,-0.0013315806,17.3636,-2.6714476E-6,-0.056293245,9.806489,0.0029954235,-0.0017661452,0.15338993,-0.002821,5.29E-4,-0.184262,56.99973,29.014698,2017-06-19 22:06:19,61.148484963396335
0.0017956513,-0.060453594,9.955689,-0.0010652645,-0.028229509,-0.0018642128,17.3636,-7.2804146E-4,-0.058704086,9.806475,0.0067135454,-0.0011509582,0.14083481,-0.002935,5.88E-4,-0.184262,56.99973,29.014698,2017-06-19 22:06:20,71.1064909222231
0.01616086,-0.05805939,9.973047,-0.0018642128,-0.02743056,-0.0026631611,17.3636,0.0050240695,-0.05064157,9.806518,0.011136791,-0.0074178204,0.16652966,-0.002585,2.24E-4,-0.184263,56.99973,29.014698,2017-06-19 22:06:21,53.88333646386381
0.0077811554,-0.05865794,9.9550905,-0.0026631611,-0.027696876,-0.0031957934,17.3636,7.8297395E-4,-0.054310177,9.8064995,-1.8442352E-4,-0.0013550147,0.15996361,-0.002729,4.71E-4,-0.184263,56.99973,29.18518,2017-06-19 22:06:22,65.69311705059911
-0.006584055,-0.049081136,9.944916,-0.0029294773,-0.029028457,-0.0018642128,17.3636,3.3831716E-4,-0.055451076,9.806493,-0.006922372,-0.0079952665,0.17433548,-0.002782,5.04E-4,-0.184262,56.99973,29.18518,2017-06-19 22:06:23,56.76171861054933
-0.004189853,-0.06943185,9.944916,-0.002396845,-0.02956109,-0.0018642128,17.3636,-0.0049377177,-0.058814816,9.806473,-0.0094274925,0.014522083,0.10671902,-0.002901,8.0E-4,-0.184262,56.99973,29.18518,2017-06-19 22:06:24,65.21239434508581
0.0053869537,-0.062249243,9.967062,-0.0015978967,-0.028495824,-0.0031957934,17.3636,-6.650649E-5,-0.05552697,9.806493,-0.0083131995,-0.012707777,0.14440823,-0.002782,5.25E-4,-0.184262,56.99973,29.092655,2017-06-19 22:06:25,64.86794500713297
-0.007182605,-0.05925649,9.940725,-0.0015978967,-0.030360037,-7.9894834E-4,17.3636,-0.0022219596,-0.05595101,9.80649,0.008806014,0.0044756755,0.13962269,-0.002783,6.37E-4,-0.184262,56.99973,29.092655,2017-06-19 22:06:26,59.52927541919715
0.022146367,-0.05865794,9.956886,-0.002130529,-0.030360037,-0.0018642128,17.3636,0.0067963502,-0.05168621,9.806512,0.0063717593,-0.008767385,0.18030167,-0.002654,1.45E-4,-0.184263,56.99973,29.092655,2017-06-19 22:06:27,70.80113470288758
-0.0077811554,-0.05267244,9.967062,-0.002130529,-0.028495824,-0.0015978967,17.3636,-5.3639244E-4,-0.05557515,9.806493,-0.0066462127,-0.009666849,0.15877342,-0.00278,5.49E-4,-0.184262,56.689194,29.203835,2017-06-19 22:06:28,57.4591035889485
0.007182605,-0.049679685,9.962274,-0.00479369,-0.02743056,-0.0018642128,17.3636,0.0015383355,-0.054827064,9.806497,-0.0075238394,0.004548829,0.14141178,-0.002762,4.38E-4,-0.184262,56.689194,29.203835,2017-06-19 22:06:29,60.06107642463153
0.006584055,-0.05267244,9.965266,-0.0037284256,-0.030626353,-0.0015978967,17.3636,-0.0013436606,-0.056804053,9.806486,-0.010627347,0.008321468,0.14561176,-0.002834,6.01E-4,-0.184262,56.689194,29.203835,2017-06-19 22:06:30,53.70246319196988
0.006584055,-0.062249243,9.949704,-0.0034621095,-0.02876214,-0.002396845,17.3636,-7.9645164E-4,-0.047801677,9.806534,0.015760213,-0.02462292,0.11683369,-0.002388,4.89E-4,-0.184262,56.689194,29.203835,2017-06-19 22:06:31,68.6268993983941
0.012569559,-0.07182605,9.949105,-0.0013315806,-0.029294772,-0.0026631611,17.3636,0.0038276326,-0.052242763,9.806511,-0.003229082,0.015731186,0.13780594,-0.002654,2.99E-4,-0.184263,56.689194,29.203835,2017-06-19 22:06:32,62.42341113055075
-0.0047884034,-0.047884032,9.956287,-0.0026631611,-0.030626353,-0.002396845,17.3636,0.0019419941,-0.05325477,9.806506,-0.007927498,0.005969286,0.1761179,-0.002687,4.03E-4,-0.184262,56.689194,29.203835,2017-06-19 22:06:33,60.50278090739518
-0.0023942017,-0.037110128,9.933543,-0.0018642128,-0.03009372,-0.0015978967,17.3636,-3.687848E-4,-0.049976364,9.806522,0.020120949,2.966784E-4,0.15515232,-0.002501,4.88E-4,-0.184262,56.689194,29.203835,2017-06-19 22:06:34,57.88421547363822
-0.010773907,-0.049081136,9.953295,-7.9894834E-4,-0.029294772,-0.0029294773,17.376,0.0021626712,-0.04772581,9.806534,-0.012936579,-0.0013553239,0.14676094,-0.002412,3.4E-4,-0.184263,56.689194,29.203835,2017-06-19 22:06:35,66.39932368392526
0.017956512,-0.054468088,9.944317,-7.9894834E-4,-0.028229509,-0.002130529,17.3636,0.0027961181,-0.05738489,9.806481,-0.0010004669,-0.0048643537,0.14501762,-0.002902,3.99E-4,-0.184262,56.689194,29.203835,2017-06-19 22:06:36,58.22666315073625
0.018555064,-0.046686932,9.959879,-0.0013315806,-0.03009372,-0.0010652645,17.376,0.0031371799,-0.055904172,9.80649,0.015417884,0.00921724,0.15338898,-0.002831,3.68E-4,-0.184263,56.92108,29.129704,2017-06-19 22:06:37,65.56877309067774
-0.004189853,-0.05686229,9.93893,-0.002130529,-0.02743056,-0.0013315806,17.4226,-7.882552E-4,-0.057637814,9.80648,-0.003401598,7.755235E-4,0.13244915,-0.002881,5.81E-4,-0.184262,56.92108,29.129704,2017-06-19 22:06:38,66.44520574097984
0.008379706,-0.05865794,9.954493,-0.002130529,-0.029827405,-0.0029294773,17.376,-0.0029171067,-0.053946212,9.806501,0.011296812,-0.0047117285,0.14799118,-0.002676,6.53E-4,-0.184262,56.92108,29.129704,2017-06-19 22:06:39,56.867056823218725
-5.985504E-4,-0.073023155,9.93474,-0.0013315806,-0.029827405,-7.9894834E-4,17.3636,9.6841634E-4,-0.05647037,9.806488,0.0032214369,-0.007574521,0.15758133,-0.002839,4.82E-4,-0.184262,56.92108,29.129704,2017-06-19 22:06:40,51.14980799822334
0.0,-0.05925649,9.961076,-0.002130529,-0.02956109,-7.9894834E-4,17.3636,-0.0024039492,-0.058279943,9.806477,0.0024039492,-3.7799776E-4,0.121679306,-0.002898,6.68E-4,-0.184262,56.92108,29.129704,2017-06-19 22:06:41,51.43413930779147
0.010175358,-0.044292733,9.9550905,-0.002396845,-0.030626353,-0.0018642128,17.3636,0.001614171,-0.057786066,9.80648,-0.0010156205,0.003916528,0.14801216,-0.002911,4.62E-4,-0.184262,56.92108,29.129704,2017-06-19 22:06:42,61.39692133008306
0.014963761,-0.061052144,9.979631,-0.0013315806,-0.029827405,-7.9894834E-4,17.3636,0.0019793625,-0.05462467,9.806498,0.006998894,-0.01420863,0.15697289,-0.002756,4.14E-4,-0.184263,56.92108,29.129704,2017-06-19 22:06:43,57.16181567893465
-0.0023942017,-0.05746084,9.944916,-0.0029294773,-0.029294772,-0.0018642128,17.3636,0.0019107616,-0.051704153,9.806514,-0.009691917,-0.00874944,0.1593504,-0.002609,3.9E-4,-0.184263,56.92108,29.129704,2017-06-19 22:06:44,56.12737445637542
0.0011971008,-0.055066638,9.968858,-0.0018642128,-0.030360037,-0.002396845,17.376,0.0022239403,-0.054758415,9.806497,-0.008807995,-0.0074908286,0.15577698,-0.002765,4.03E-4,-0.184263,56.92108,29.129704,2017-06-19 22:06:45,66.14834788742216
0.0047884034,-0.040102877,9.983223,-0.002396845,-0.029294772,-0.002396845,17.3636,0.0010395545,-0.05408246,9.806501,0.008537252,0.0020085722,0.12823868,-0.00272,4.56E-4,-0.184262,56.92108,29.129704,2017-06-19 22:06:46,60.03873730261894
-0.014963761,-0.060453594,9.958682,-0.0018642128,-0.029294772,-5.326322E-4,17.376,0.0014287782,-0.053710192,9.806503,-0.011005585,0.004030507,0.13960934,-0.002705,4.33E-4,-0.184263,56.92108,29.129704,2017-06-19 22:06:47,55.39338664537454
0.006584055,-0.036511578,9.968858,-0.0037284256,-0.02956109,-0.002130529,17.4226,0.0021587529,-0.0601584,9.806465,-0.009341358,-0.016456053,0.16718102,-0.003035,4.57E-4,-0.184263,56.92108,29.2256,2017-06-19 22:06:49,57.02818956805085
-0.007182605,-0.04249708,9.962274,-0.0026631611,-0.029294772,-0.0015978967,17.376,0.0018648258,-0.058058374,9.8064785,0.0053177793,0.0065830387,0.15040779,-0.002927,4.52E-4,-0.184263,56.92108,29.2256,2017-06-19 22:06:50,66.91603273012133
0.0035913025,-0.0676362,9.965266,-0.002130529,-0.029028457,-0.0029294773,17.376,-8.749277E-4,-0.054301687,9.8064995,-0.015884485,-0.004356254,0.1785183,-0.002713,5.54E-4,-0.184262,56.92108,29.2256,2017-06-19 22:06:51,61.73292020694234
5.985504E-4,-0.059855044,9.96766,-0.002130529,-0.029827405,-0.0031957934,17.3636,-0.0032906025,-0.053976323,9.806501,0.0032906025,0.010282144,0.14918804,-0.002674,6.72E-4,-0.184262,57.07307,29.13209,2017-06-19 22:06:52,55.101479150641744
0.012569559,-0.0700304,9.989806,-0.0034621095,-0.029028457,-0.002396845,17.376,-0.0062895264,-0.05639427,9.806486,0.0026982238,-0.0016651191,0.15758324,-0.002767,8.45E-4,-0.184261,57.07307,29.13209,2017-06-19 22:06:53,71.06667290512955
0.011971008,-0.05566519,9.94312,-0.002130529,-0.02876214,-0.0018642128,17.376,-6.5818423E-4,-0.059608918,9.806469,0.016220495,-0.0056330822,0.14203739,-0.002981,5.93E-4,-0.184262,57.07307,29.13209,2017-06-19 22:06:54,56.0987262558093
0.009576807,-0.055066638,9.951499,-0.002130529,-0.030360037,-0.0029294773,17.376,7.900984E-4,-0.056583624,9.806487,0.0057939566,0.011692341,0.15099812,-0.002843,4.92E-4,-0.184262,57.07307,29.155886,2017-06-19 22:06:55,62.40476942528373
-0.0011971008,-0.05865794,9.953894,-0.002130529,-0.02743056,-0.0010652645,17.3636,0.005111982,-0.05228135,9.806509,0.018830035,-0.01655195,0.14080048,-0.002668,2.35E-4,-0.184263,57.07307,29.155886,2017-06-19 22:06:56,66.73207428322452
-0.007182605,-0.059855044,9.983223,-0.0015978967,-0.03009372,-0.0015978967,17.376,0.0011480695,-0.05306439,9.806506,-0.004739372,-0.00439645,0.16474533,-0.00267,4.41E-4,-0.184263,57.07307,29.155886,2017-06-19 22:06:57,49.54560111862109
-0.004189853,-0.035913024,9.949704,0.0,-0.028495824,-0.002130529,17.3636,4.443999E-4,-0.054952342,9.806497,0.022300517,-0.0066983514,0.14560127,-0.002758,4.94E-4,-0.184263,57.07307,29.155886,2017-06-19 22:06:58,63.04015211047897
0.010175358,-0.060453594,9.954493,-0.002396845,-0.030360037,-0.002130529,17.376,-0.0048159515,-0.055738892,9.806491,0.0030203,0.0072563067,0.145607,-0.002748,7.65E-4,-0.184262,57.07307,29.155886,2017-06-19 22:06:59,64.38455770658288
5.985504E-4,-0.05805939,9.950302,-0.0026631611,-0.029028457,-0.0026631611,17.3636,-0.004345024,-0.06197631,9.806454,7.5372146E-4,0.003916919,0.13846207,-0.003065,8.0E-4,-0.184262,57.07307,29.155886,2017-06-19 22:07:00,68.24132297417229
0.022146367,-0.065242,9.940725,-0.0026631611,-0.028495824,-0.0015978967,17.3636,0.0016154108,-0.058643915,9.806475,0.0097570475,0.0065700263,0.15220737,-0.002954,4.7E-4,-0.184263,57.18856,29.155886,2017-06-19 22:07:01,66.2808045824387
-0.009576807,-0.05746084,9.934141,-0.002130529,-0.03089267,-5.326322E-4,17.3636,-2.9173808E-4,-0.05443184,9.8064995,-0.0015039132,0.0071463585,0.14799309,-0.002725,5.26E-4,-0.184263,57.18856,29.155886,2017-06-19 22:07:02,52.881455594968415
-0.0011971008,-0.054468088,9.933543,-0.0031957934,-0.030360037,2.663161E-4,17.376,0.0020792917,-0.057818618,9.806479,0.009891717,0.008138932,0.11808491,-0.002917,4.39E-4,-0.184263,57.18856,29.155886,2017-06-19 22:07:03,62.8948548966127
0.010773907,-0.05267244,9.957485,-0.0015978967,-0.030360037,-5.326322E-4,17.376,0.002896209,-0.05610898,9.806489,0.007877698,0.003436543,0.15099621,-0.002839,3.82E-4,-0.184263,56.87533,29.198227,2017-06-19 22:07:04,62.571191000003054
5.985504E-4,-0.059855044,9.965266,-0.0013315806,-0.030626353,-7.9894834E-4,17.3636,-0.0015422006,-0.048400424,9.806531,-0.0110273585,5.163923E-4,0.14017963,-0.002411,5.32E-4,-0.184263,56.87533,29.198227,2017-06-19 22:07:05,69.0184560743095
0.002992752,-0.05805939,9.962872,-0.0031957934,-0.029827405,-0.0018642128,17.3636,-8.976601E-4,-0.050135393,9.806522,-0.0128689995,-0.019296456,0.15814495,-0.002504,5.16E-4,-0.184263,56.87533,29.198227,2017-06-19 22:07:06,71.67043346146085
-0.0023942017,-0.062249243,9.97185,-0.0031957934,-0.029827405,-5.326322E-4,17.376,-0.0030026843,-0.055299234,9.806494,0.013776592,-0.0075485595,0.15577984,-0.002743,6.7E-4,-0.184262,56.87533,29.198227,2017-06-19 22:07:07,65.92411115288695
0.0053869537,-0.061052144,9.92636,-0.0031957934,-0.030626353,-0.0026631611,17.3636,-0.0021218944,-0.05307876,9.806506,0.008107399,-0.009170484,0.14559174,-0.00264,6.05E-4,-0.184262,56.87533,29.198227,2017-06-19 22:07:08,67.61100847765826
0.012569559,-0.065242,9.962274,-0.0018642128,-0.029294772,-0.0026631611,17.3636,0.0017841669,-0.055499308,9.806493,0.018566549,-0.0061513856,0.17014599,-0.002798,4.32E-4,-0.184263,56.87533,29.198227,2017-06-19 22:07:09,49.999017569057756
-0.01616086,-0.05686229,9.973047,-0.0013315806,-0.029294772,-0.0029294773,17.3636,-0.006035077,-0.049023192,9.806525,-0.0035417299,0.011913065,0.13180637,-0.0024,7.63E-4,-0.184262,57.18075,29.18736,2017-06-19 22:07:10,59.66528899925333
-0.011372458,-0.053869538,9.941324,-0.002130529,-0.03009372,-2.663161E-4,17.3636,-0.00278582,-0.055498037,9.806493,-0.007988088,-0.009743962,0.16655445,-0.002755,6.61E-4,-0.184262,57.18075,29.18736,2017-06-19 22:07:11,69.45094875638087
0.0,-0.060453594,9.976639,-0.002396845,-0.029827405,-0.0010652645,17.4102,3.7941293E-4,-0.052051112,9.806512,-0.009357669,-0.0036140792,0.13720608,-0.002612,4.7E-4,-0.184263,57.18075,29.18736,2017-06-19 22:07:12,57.20295569493956
-0.0053869537,-0.06284779,9.956287,-0.002396845,-0.029028457,-0.002130529,17.376,0.0039530126,-0.04918611,9.806526,-0.009938517,0.005491931,0.14676857,-0.002502,2.64E-4,-0.184263,57.18075,29.15368,2017-06-19 22:07:13,63.2112903305245
-0.0053869537,-0.062249243,9.944916,-0.0029294773,-0.029294772,-5.326322E-4,17.3636,0.004580527,-0.05742952,9.806481,-0.014755884,0.012538236,0.15818596,-0.002921,3.1E-4,-0.184263,57.18075,29.15368,2017-06-19 22:07:14,62.059601191324695
-0.0035913025,-0.05267244,9.977836,-7.9894834E-4,-0.03089267,-0.0010652645,17.376,-8.2307076E-4,-0.054471582,9.806499,0.0014216212,-0.014960267,0.1533804,-0.002722,5.53E-4,-0.184263,57.18075,29.15368,2017-06-19 22:07:15,61.903485559407386
-0.0077811554,-0.038905777,9.944916,-0.002130529,-0.02876214,-0.0015978967,17.376,-6.351869E-4,-0.057708915,9.80648,6.351869E-4,0.00802923,0.15040588,-0.002886,5.74E-4,-0.184263,57.268787,29.120287,2017-06-19 22:07:16,65.21201448303799
-0.011372458,-0.053869538,9.960478,-0.002130529,-0.02956109,-0.0029294773,17.4102,-0.005532817,-0.054895554,9.806496,0.019898027,-0.002565287,0.13422966,-0.002699,7.93E-4,-0.184262,57.268787,29.120287,2017-06-19 22:07:17,69.19176647726312
0.013766659,-0.038905777,9.961076,-0.0010652645,-0.02876214,0.0,17.4226,5.5398064E-4,-0.057665564,9.80648,-0.008933687,2.0472333E-4,0.12407017,-0.002895,5.14E-4,-0.184263,57.268787,29.120287,2017-06-19 22:07:18,53.221050835345835
-0.004189853,-0.049081136,9.953295,-0.0026631611,-0.028495824,-0.0015978967,16.957,-0.002455717,-0.05683294,9.806485,-0.018493548,0.0023648515,0.15219688,-0.002825,6.57E-4,-0.184262,57.298077,29.08771,2017-06-19 22:07:19,56.9273519116679
0.0,-0.059855044,9.932944,-0.0026631611,-0.030626353,-0.0015978967,16.957,0.00220336,-0.05901261,9.806472,-0.01597002,-0.015207645,0.177948,-0.002978,4.44E-4,-0.184263,57.298077,29.08771,2017-06-19 22:07:20,67.52081816111304
-5.985504E-4,-0.049679685,9.966463,-0.0018642128,-0.030360037,-0.0013315806,16.9104,0.002597398,-0.056643922,9.806486,0.0135634625,-0.0038096718,0.14740753,-0.002863,4.02E-4,-0.184263,57.298077,29.08771,2017-06-19 22:07:21,62.3010990421092
-0.008379706,-0.045489833,9.935339,-0.0029294773,-0.029827405,-0.0010652645,17.4226,0.0030455748,-0.057437915,9.806481,-0.007833978,0.0017727241,0.1468134,-0.002907,3.87E-4,-0.184263,57.423748,29.08771,2017-06-19 22:07:22,67.86010256476575
-0.011372458,-0.065242,9.944317,-0.0010652645,-0.03009372,-0.004261058,17.376,-0.004900219,-0.052522045,9.806509,0.010885723,-0.007931549,0.12404156,-0.002586,7.39E-4,-0.184262,57.423748,29.08771,2017-06-19 22:07:23,54.653120032416325
-0.0011971008,-0.047285482,9.965266,-0.0029294773,-0.030360037,-0.0010652645,16.9104,9.961132E-4,-0.05927885,9.806471,-3.9756275E-4,-0.002371844,0.1234808,-0.00298,5.07E-4,-0.184263,57.423748,29.08771,2017-06-19 22:07:24,49.883532425291335
0.0011971008,-0.061650693,9.940127,-0.0018642128,-0.029294772,-2.663161E-4,16.9104,-0.002855668,-0.054273926,9.8064995,0.014228126,4.043877E-4,0.16594887,-0.002693,6.53E-4,-0.184262,57.162838,29.225685,2017-06-19 22:07:25,69.44189881614999
0.0023942017,-0.055066638,9.97185,-0.0029294773,-0.029028457,-0.0018642128,17.376,-0.004360555,-0.056890726,9.806484,0.006754757,0.0018240884,0.16536617,-0.00281,7.53E-4,-0.184262,57.162838,29.225685,2017-06-19 22:07:26,55.066991193394045
0.012569559,-0.07182605,9.950302,-0.0031957934,-0.03089267,-0.0018642128,17.4226,-0.0059460606,-0.05439433,9.806498,-0.0024336455,-0.0012708604,0.14739609,-0.00267,8.09E-4,-0.184262,57.162838,29.225685,2017-06-19 22:07:27,56.24277541823237
-0.0053869537,-0.0664391,9.967062,-0.0026631611,-0.02876214,-0.0026631611,17.3636,-0.002167611,-0.05049319,9.80652,-0.008007746,0.006200455,0.1671257,-0.00251,5.83E-4,-0.184262,57.312233,29.192282,2017-06-19 22:07:28,60.90993240757626
5.985504E-4,-0.065242,9.9473095,-0.002130529,-0.030626353,-0.0015978967,17.4226,0.0013288335,-0.051474016,9.806515,-7.302831E-4,-0.013767984,0.14079475,-0.002592,4.17E-4,-0.184263,57.312233,29.192282,2017-06-19 22:07:29,54.98629818065558
0.016759412,-0.060453594,9.944916,-0.002130529,-0.030626353,-0.0031957934,17.3636,-0.0022627402,-0.048495572,9.80653,0.0172265,-0.010162368,0.1312027,-0.002409,5.69E-4,-0.184262,57.312233,29.192282,2017-06-19 22:07:30,49.03242517449884
-5.985504E-4,-0.039504327,9.973047,-0.004261058,-0.027963191,-0.0010652645,17.3636,-0.0029955092,-0.057891972,9.8064785,-5.9579336E-4,-0.014532626,0.15998459,-0.002873,6.94E-4,-0.184262,57.312233,29.192282,2017-06-19 22:07:31,55.29299478410526
-0.0047884034,-0.046686932,9.94312,-0.0013315806,-0.028229509,-7.9894834E-4,17.3636,-0.0031834776,-0.058485948,9.806476,1.9072555E-4,-0.0019676462,0.16238213,-0.002901,7.09E-4,-0.184262,57.312233,29.192282,2017-06-19 22:07:32,63.968465549420934
-0.009576807,-0.06703765,9.951499,-0.0029294773,-0.02876214,-0.0034621095,17.3636,1.6490025E-4,-0.054525774,9.806499,-0.017522862,0.013225794,0.14799404,-0.002734,5.04E-4,-0.184263,57.509052,29.069675,2017-06-19 22:07:33,53.36767854355607
-0.0017956513,-0.04249708,9.968858,-0.0034621095,-0.02956109,-0.0018642128,17.3636,-0.006446049,-0.053749733,9.8065,-0.0139046665,0.0028729476,0.121655464,-0.002633,8.28E-4,-0.184262,57.509052,29.069675,2017-06-19 22:07:34,49.774377530857734
0.0011971008,-0.035913024,10.001179,-0.0029294773,-0.029827405,-7.9894834E-4,17.3636,-0.0053714546,-0.058736496,9.806473,0.0053714546,0.018633619,0.1833334,-0.002893,8.21E-4,-0.184262,57.509052,29.069675,2017-06-19 22:07:35,57.96068444342843
-0.011971008,-0.046686932,9.951499,-7.9894834E-4,-0.031158986,-0.0015978967,17.3636,-0.0031642087,-0.058801614,9.806473,-0.0016241947,0.013311781,0.13066101,-0.002917,7.11E-4,-0.184262,57.509052,29.009596,2017-06-19 22:07:36,59.69470949013047
-0.013766659,-0.046686932,9.967062,-0.0026631611,-0.03009372,-0.002396845,17.3636,-0.0050532655,-0.053728078,9.806501,0.0038561646,0.008836795,0.1551733,-0.002645,7.58E-4,-0.184262,57.509052,29.009596,2017-06-19 22:07:37,61.08567461840781
-0.013766659,-0.049679685,9.940725,-0.0018642128,-0.03009372,-0.0015978967,17.4226,-0.0034809993,-0.05572809,9.806491,0.001685348,6.6145137E-4,0.16655636,-0.00276,6.98E-4,-0.184262,57.509052,29.009596,2017-06-19 22:07:38,61.90903189173335
-0.005985504,-0.076614454,9.93474,-7.9894834E-4,-0.03089267,-0.0010652645,17.3636,-0.004049753,-0.058548577,9.806475,0.0076410556,0.008868892,0.179142,-0.002896,7.53E-4,-0.184262,57.719784,29.009296,2017-06-19 22:07:39,60.582569186525575
0.0011971008,-0.073621705,9.952697,-0.004261058,-0.029827405,2.663161E-4,17.4226,-0.0025315243,-0.055151008,9.806495,0.021685138,-0.0041054823,0.14560318,-0.00274,6.45E-4,-0.184263,57.719784,29.009296,2017-06-19 22:07:40,60.838496785665896
-0.021547815,-0.044891283,9.965266,-0.0010652645,-0.02956109,5.326322E-4,17.376,-0.002499055,-0.057559464,9.80648,0.004294706,0.010872532,0.17913628,-0.002861,6.66E-4,-0.184263,57.719784,29.009296,2017-06-19 22:07:41,61.094892576465725
-0.002992752,-0.054468088,9.962274,-0.0018642128,-0.030360037,-0.0015978967,17.3636,-0.0028543985,-0.05385466,9.806501,-0.0025325553,0.0137517825,0.14200497,-0.002672,6.49E-4,-0.184263,57.719784,29.03657,2017-06-19 22:07:42,66.08738767488363
0.007182605,-0.05805939,9.96766,-0.0010652645,-0.03169162,-0.0013315806,17.376,-0.0023822077,-0.058395624,9.806476,-0.016771406,0.009913038,0.16417694,-0.002904,6.68E-4,-0.184263,57.719784,29.03657,2017-06-19 22:07:43,65.94529439996641
-0.0077811554,-0.05566519,9.939528,-0.0010652645,-0.028495824,-0.0018642128,17.3636,0.0035034341,-0.056474064,9.806487,0.006671923,0.009188581,0.1545887,-0.002863,3.55E-4,-0.184263,57.719784,29.03657,2017-06-19 22:07:44,59.08885112627405
0.006584055,-0.053869538,9.954493,-0.0031957934,-0.03009372,-0.0018642128,17.3636,-0.0016809765,-0.057665516,9.80648,4.8387563E-4,0.020555388,0.16836262,-0.002874,6.26E-4,-0.184263,57.719784,29.03657,2017-06-19 22:07:45,56.19439362499855
5.985504E-4,-0.050278235,9.9473095,-0.0013315806,-0.030626353,0.0,17.3636,-0.0015242344,-0.05264745,9.806509,-0.0020670681,-0.022769906,0.119252205,-0.002624,5.71E-4,-0.184263,57.719784,29.03657,2017-06-19 22:07:47,67.24558179518156
0.0017956513,-0.053869538,9.958083,-0.0029294773,-0.02956109,-0.0026631611,17.3636,0.0020637321,-0.05337165,9.806504,-0.0038593835,-0.0046877414,0.13362312,-0.002694,3.98E-4,-0.184263,57.719784,29.03657,2017-06-19 22:07:48,66.40794475167249
-0.01436521,-0.05566519,9.973646,-5.326322E-4,-0.03195793,-0.0015978967,17.3636,-0.0036302274,-0.050567858,9.8065195,0.004827328,0.0026838258,0.18089294,-0.0025,6.57E-4,-0.184263,57.719784,29.03657,2017-06-19 22:07:49,58.46283377494387
-0.0011971008,-0.0724246,9.956287,-0.0037284256,-0.029028457,-0.002396845,17.3636,-2.2542223E-4,-0.052443866,9.80651,0.008605128,-0.027761888,0.16534042,-0.002626,5.04E-4,-0.184263,57.719784,29.03657,2017-06-19 22:07:50,50.07838699778536
-0.006584055,-0.062249243,9.977237,-0.0026631611,-0.029294772,-0.0039947415,17.3636,-0.0026603048,-0.049248595,9.806526,2.6610307E-4,-0.0130006485,0.15814114,-0.002443,5.96E-4,-0.184263,57.719784,29.03657,2017-06-19 22:07:51,56.06635589904583
-0.0053869537,-0.05805939,9.92636,-7.9894834E-4,-0.03169162,-5.326322E-4,17.3636,-0.0047833994,-0.05495455,9.806496,0.002987748,-0.004301939,0.15098953,-0.002709,7.56E-4,-0.184262,57.719784,29.03657,2017-06-19 22:07:52,57.19066660052255
-0.009576807,-0.051475335,9.964667,-0.0018642128,-0.030360037,-5.326322E-4,17.3636,6.154747E-4,-0.05575832,9.806492,-0.010192282,0.0084728375,0.14321232,-0.0028,4.93E-4,-0.184263,57.719784,29.03657,2017-06-19 22:07:53,53.51323047928013
-0.009576807,-0.04369418,9.950901,-0.0037284256,-0.029294772,-0.0018642128,17.3636,-0.0062315413,-0.051913574,9.806511,2.4603726E-4,-0.009737119,0.13241863,-0.002543,8.0E-4,-0.184262,57.719784,29.03657,2017-06-19 22:07:54,57.90009897532481
-0.017357962,-0.04129998,9.983223,-0.0034621095,-0.0314253,-0.002396845,17.3636,-0.0046399827,-0.05486788,9.806496,0.008829836,0.005786743,0.16056633,-0.002706,7.48E-4,-0.184263,57.719784,29.179571,2017-06-19 22:07:55,60.452364552513906
-0.014963761,-0.038307227,9.954493,-0.0026631611,-0.03009372,-0.002396845,17.3636,-0.0044989167,-0.050830495,9.806517,0.00988587,-0.014411505,0.13959599,-0.002505,7.03E-4,-0.184263,57.719784,29.179571,2017-06-19 22:07:56,61.26887227294656
0.0053869537,-0.065242,9.944317,-0.0013315806,-0.030626353,-0.0013315806,17.8292,-0.0014121124,-0.04973297,9.806524,0.0032077637,-0.0107206255,0.15096092,-0.002479,5.38E-4,-0.184263,57.719784,29.179571,2017-06-19 22:07:57,70.60274532871682
-0.013766659,-0.06344634,9.959281,-0.002396845,-0.03009372,-2.663161E-4,17.3636,-4.3984075E-4,-0.050767943,9.8065195,0.004031143,4.8970804E-4,0.13360786,-0.00254,4.99E-4,-0.184263,57.524723,29.179571,2017-06-19 22:07:58,65.49095057607387
0.0047884034,-0.05207389,9.93893,-0.0018642128,-0.02876214,-0.002130529,17.8292,-0.004185781,-0.05611965,9.806489,-0.0029968242,0.01541822,0.11807537,-0.002773,7.37E-4,-0.184263,57.524723,29.179571,2017-06-19 22:07:59,47.709960931505094
0.0011971008,-0.073621705,9.958083,-0.0018642128,-0.03089267,-0.0013315806,17.3636,0.0046071135,-0.056506626,9.806486,-0.0022129118,0.008622594,0.11388874,-0.002875,3.0E-4,-0.184264,57.524723,29.179571,2017-06-19 22:08:00,70.70120869830454
-0.007182605,-0.050278235,9.937134,-0.0010652645,-0.028495824,-0.0018642128,17.3636,-0.003172447,-0.052796807,9.806507,0.0067637498,-4.7418103E-4,0.14319706,-0.002616,6.55E-4,-0.184263,57.91971,28.974909,2017-06-19 22:08:01,66.62008568248953
0.0,-0.049081136,9.972448,-0.002130529,-0.030360037,-0.002396845,17.3636,0.002387979,-0.049459577,9.806525,-0.008373483,-0.0133882165,0.15036106,-0.002501,3.45E-4,-0.184264,57.91971,28.974909,2017-06-19 22:08:02,61.0731533548073
0.011372458,-0.054468088,9.950901,-0.002130529,-0.029028457,-0.0018642128,17.3636,0.0037361737,-0.049945153,9.806522,-1.4487118E-4,-0.01170554,0.16113758,-0.002538,2.82E-4,-0.184264,57.91971,28.974909,2017-06-19 22:08:03,53.54274326529485
-0.014963761,-0.062249243,9.979631,-0.0034621095,-0.02956109,-0.0034621095,17.3636,0.0013120844,-0.0487234,9.806529,-0.006699038,-9.5628574E-4,0.18148232,-0.002454,3.92E-4,-0.184264,57.69105,29.091806,2017-06-19 22:08:04,52.731528626334274
0.0023942017,-0.034715924,9.977836,-0.0029294773,-0.0314253,-0.0015978967,17.8292,0.003821616,-0.05433912,9.8064995,0.00515664,0.004060883,0.15876675,-0.002759,3.19E-4,-0.184264,57.69105,29.091806,2017-06-19 22:08:05,56.95755605310985
0.002992752,-0.04369418,9.94312,-0.0018642128,-0.03009372,-0.0018642128,17.3636,2.6366048E-4,-0.055904098,9.806491,-0.017023074,0.013407018,0.14021969,-0.002804,5.12E-4,-0.184263,57.69105,29.091806,2017-06-19 22:08:06,59.974021713410394
0.013766659,-0.038307227,9.96347,-0.0015978967,-0.027963191,-0.002396845,17.3636,-0.0012845873,-0.057651065,9.80648,-0.0035038162,-0.022554688,0.15699005,-0.002877,6.06E-4,-0.184263,57.358833,29.237673,2017-06-19 22:08:07,65.1688554594052
0.016759412,-0.02873042,9.949704,-0.0015978967,-0.030360037,-0.002130529,17.3636,-9.846101E-4,-0.05861252,9.806475,0.005174463,-0.010220777,0.1743536,-0.002928,6.0E-4,-0.184263,57.358833,29.237673,2017-06-19 22:08:08,51.56037453611518
-0.0047884034,-0.05267244,9.982624,-0.0013315806,-0.02876214,-0.002130529,17.3636,0.0045709726,-0.056313854,9.806488,-0.0153448805,0.001247216,0.118076324,-0.002865,3.0E-4,-0.184264,57.358833,29.237673,2017-06-19 22:08:09,54.41764812849306
-0.01316811,-0.050876785,9.958083,-0.0013315806,-0.028495824,-2.663161E-4,17.3636,9.939019E-4,-0.05309331,9.806506,0.0037945015,0.013588984,0.14858437,-0.00267,4.49E-4,-0.184264,57.589764,29.15013,2017-06-19 22:08:10,51.722780434978375
-0.0011971008,-0.06584055,9.956886,-0.0018642128,-0.030626353,-0.0013315806,17.3512,-0.002338751,-0.055114865,9.806495,0.0035358518,-0.016711183,0.13363266,-0.00274,6.35E-4,-0.184263,57.589764,29.15013,2017-06-19 22:08:11,53.94265445897949
0.004189853,-0.019752163,9.956886,-0.0010652645,-0.027963191,-5.326322E-4,17.3636,0.005383152,-0.053407833,9.806503,-0.0023904,0.012706403,0.15157986,-0.002727,2.32E-4,-0.184265,57.589764,29.15013,2017-06-19 22:08:12,51.367621586356876
-0.004189853,-0.046088383,9.957485,-0.0031957934,-0.030360037,-7.9894834E-4,17.8168,0.0029553033,-0.055998147,9.80649,0.0024316504,9.3150884E-4,0.13243961,-0.002834,3.78E-4,-0.184264,57.338028,29.15013,2017-06-19 22:08:13,52.95975268599609
0.0011971008,-0.0688333,9.922171,-0.002396845,-0.028229509,-5.326322E-4,17.3636,0.0039300923,-0.052363254,9.806509,0.004449614,-0.0056961365,0.168334,-0.002661,2.95E-4,-0.184264,57.338028,29.15013,2017-06-19 22:08:14,69.22919420296999
-5.985504E-4,-0.019752163,9.970055,-0.002396845,-0.027963191,-0.0015978967,17.3636,-0.0018338718,-0.052486,9.80651,3.8220547E-5,-0.0019820891,0.15097523,-0.002613,5.85E-4,-0.184263,57.338028,29.15013,2017-06-19 22:08:15,53.475462385076646
-0.005985504,-0.049081136,9.920375,-0.002396845,-0.029827405,-0.002130529,17.3636,-9.0719113E-4,-0.04774261,9.806534,0.0116810985,-0.01809794,0.14077568,-0.002384,4.94E-4,-0.184264,57.45282,29.15013,2017-06-19 22:08:16,53.151774718010714
0.0023942017,-0.04309563,9.961076,-0.002396845,-0.030626353,-0.0018642128,17.3636,6.9501594E-4,-0.057140276,9.806484,0.0064875893,-3.2056496E-4,0.15758514,-0.00287,5.02E-4,-0.184264,57.45282,29.15013,2017-06-19 22:08:17,57.021375940778036
-0.002992752,-0.073023155,9.958682,-0.0013315806,-0.02956109,-0.0015978967,17.3636,5.048791E-4,-0.047398064,9.806536,0.01266323,-0.014851179,0.16232204,-0.00238,4.2E-4,-0.184264,57.45282,29.15013,2017-06-19 22:08:18,56.48328775626284
0.008978256,-0.08200141,9.933543,-0.0031957934,-0.03089267,-5.326322E-4,17.3636,0.003528882,-0.052458428,9.806509,-0.005923084,0.0021801926,0.12284374,-0.002662,3.16E-4,-0.184264,57.45282,29.15013,2017-06-19 22:08:19,56.61049526205452
-0.002992752,-0.050278235,9.946711,-0.0034621095,-0.02956109,-0.002396845,17.3636,-0.0019469854,-0.04879561,9.806529,-0.0010457666,-0.0014826246,0.14018154,-0.002427,5.56E-4,-0.184264,57.45282,29.15013,2017-06-19 22:08:20,54.428024564272555
-0.012569559,-0.05626374,9.93893,-0.0029294773,-0.02876214,-0.0018642128,17.8168,0.0020842322,-0.055183668,9.806495,0.009886776,0.006102532,0.13602638,-0.002785,4.14E-4,-0.184264,57.45282,29.151468,2017-06-19 22:08:21,55.044394758246604
-0.020949265,-0.048482586,9.942521,-0.0034621095,-0.030360037,-0.0018642128,17.8168,-7.91655E-4,-0.053467922,9.806504,0.015755417,0.00558389,0.12524319,-0.002672,5.42E-4,-0.184264,57.45282,29.151468,2017-06-19 22:08:22,54.594355349406015
-0.004189853,-0.046088383,9.955689,-0.002396845,-0.028495824,-0.0034621095,17.8292,-0.0044254223,-0.05079676,9.806518,0.0032283214,-0.0030727796,0.13839817,-0.002504,6.99E-4,-0.184263,57.45282,29.151468,2017-06-19 22:08:23,53.73763371177236
-5.985504E-4,-0.059855044,9.959879,-0.002130529,-0.030360037,-0.0013315806,17.8292,-0.0010626636,-0.04978721,9.806524,0.011836571,0.0048959255,0.16173458,-0.002485,5.21E-4,-0.184264,57.368717,29.26846,2017-06-19 22:08:24,64.78246689581033
-0.009576807,-0.062249243,9.982624,-0.0018642128,-0.02956109,-0.0026631611,17.8168,-0.0018338416,-0.053763073,9.806503,0.005425144,0.0010906346,0.115068436,-0.002677,5.97E-4,-0.184264,57.368717,29.26846,2017-06-19 22:08:25,54.414887214546695
0.005985504,-0.05686229,9.936536,-0.0029294773,-0.030360037,-0.002396845,17.8292,-1.1208264E-4,-0.051025793,9.806518,-0.008267623,0.013915665,0.1653328,-0.002556,4.85E-4,-0.184264,57.368717,29.26846,2017-06-19 22:08:26,52.257902990533196
-0.0047884034,-0.065242,9.940725,-0.0010652645,-0.030360037,-0.0018642128,17.8292,0.0027564324,-0.059088532,9.806472,-0.0015593315,-0.0019636117,0.1534071,-0.002987,4.17E-4,-0.184264,57.692654,29.181557,2017-06-19 22:08:27,62.84893585565893
-0.004189853,-0.053869538,9.926959,-0.0015978967,-0.027164243,-0.0018642128,17.8292,-0.007242516,-0.059506353,9.806467,0.016819322,-0.014115352,0.1570034,-0.002914,9.22E-4,-0.184263,57.692654,29.181557,2017-06-19 22:08:28,55.21181295708296
0.008978256,-0.04249708,9.96347,-0.0031957934,-0.029827405,-0.002130529,17.3636,2.6020128E-4,-0.051414967,9.806516,0.004528202,0.005326584,0.13301277,-0.002579,4.7E-4,-0.184264,57.692654,29.181557,2017-06-19 22:08:29,58.990384321199386
0.010773907,-0.05207389,9.952098,-0.0013315806,-0.030626353,-0.0013315806,17.3636,0.0019409546,-0.050800543,9.806518,-0.013313413,-0.0012733452,0.1701212,-0.002564,3.8E-4,-0.184264,57.403957,29.181557,2017-06-19 22:08:30,72.18325425616051
0.0,-0.05746084,9.975441,-0.0018642128,-0.02876214,-5.326322E-4,17.3636,-0.005429116,-0.05363893,9.806502,-0.014323047,0.011141852,0.15876389,-0.002637,7.76E-4,-0.184263,57.403957,29.181557,2017-06-19 22:08:31,55.24751691709655
0.0077811554,-0.05566519,9.969456,-0.002396845,-0.029028457,-0.0013315806,17.8292,0.0052132844,-0.052821074,9.806506,-0.028556751,-0.016610775,0.16773796,-0.002696,2.35E-4,-0.184265,57.403957,29.181557,2017-06-19 22:08:32,71.16525178269997
0.01316811,-0.031124622,9.937733,-0.0039947415,-0.029294772,-0.0015978967,17.3636,0.0018844615,-0.04719931,9.806536,0.0035024923,-0.029415146,0.1144371,-0.002383,3.49E-4,-0.184265,57.541992,29.24076,2017-06-19 22:08:33,63.4309284412834
-5.985504E-4,-0.05207389,9.920375,-0.002130529,-0.028229509,-0.0031957934,17.8292,-0.0010470626,-0.052318558,9.806511,0.008828218,-0.015317641,0.12104607,-0.002612,5.44E-4,-0.184264,57.541992,29.24076,2017-06-19 22:08:34,73.24044994384033
-0.017357962,-0.060453594,9.959281,-0.0029294773,-0.028495824,-0.0018642128,17.8292,-0.004708653,-0.057375085,9.806481,5.1879976E-4,0.008892499,0.15579224,-0.002831,7.75E-4,-0.184264,57.541992,29.24076,2017-06-19 22:08:35,60.16694710783776
-0.0047884034,-0.06943185,9.941324,-0.002396845,-0.029028457,-7.9894834E-4,17.3512,-9.880287E-4,-0.052846223,9.806507,-0.0061945766,0.0073563904,0.15995598,-0.002639,5.46E-4,-0.184264,57.541992,29.24076,2017-06-19 22:08:36,56.69225914477564
0.0053869537,-0.05805939,9.9550905,-0.0026631611,-0.02876214,-0.002396845,17.8168,0.0047397125,-0.056042776,9.806489,-0.035265785,-0.020571679,0.13962364,-0.002853,2.89E-4,-0.184265,57.541992,29.24076,2017-06-19 22:08:37,66.42972522951068