ACC_X,ACC_Y,ACC_Z,GYRO_X,GYRO_Y,GYRO_Z,LIGH_1,GRAV_X,GRAV_Y,GRAV_Z,LINACC_X,LINACC_Y,LINACC_Z,ROTVEC_X,ROTVEC_Y,ROTVEC_Z,TIME,VOICE
3.3669128,3.9396667,8.483795,-0.23028564,-0.0075683594,-0.027786255,597.0,2.9428017,4.07656,8.419736,0.38009048,-0.19787359,-0.06188965,0.25319707,0.081266046,0.7761079,2017-03-27 08:40:39,63.17055094952557
3.1286774,4.8638306,7.8529205,0.6672058,0.54530334,0.7663574,1574.0,2.180798,4.80848,8.26396,-1.9342759,-0.63428307,-0.6868868,0.26781607,0.08324591,0.6380664,2017-03-27 08:40:41,68.75029103961337
2.1829681,3.2321777,10.210022,-0.61857605,1.1067047,0.88461304,517.0,2.750745,3.555089,8.715797,-0.61280584,-0.3811071,1.3515491,0.22637683,0.06611752,0.7863196,2017-03-27 08:40:41,68.77643732520792
3.3154297,2.790451,9.145798,0.09675598,0.040374756,0.047836304,205.0,3.2931376,2.4407368,8.908896,-0.051225424,0.28227234,0.13502407,0.20701718,0.054005407,0.9062052,2017-03-27 08:40:43,64.94484277753047
3.3309937,2.1164856,8.787857,0.1574707,-0.02407837,-0.016601563,172.0,3.3962796,2.4080708,8.879013,-0.10488558,-0.31966257,-0.19468212,0.21076891,0.05359859,0.9108078,2017-03-27 08:40:44,60.73833866819953
3.9307404,1.8627014,9.698853,-0.33787537,0.16075134,0.008956909,185.0,3.4027293,2.3938642,8.880384,-0.36899042,0.01986599,-0.46989918,0.21019179,0.055188797,0.9147921,2017-03-27 08:40:45,64.93473420295153
3.45549,1.8579102,9.798218,-0.09553528,0.6273346,0.098983765,192.0,3.651638,1.7611696,8.929401,-0.2245264,0.08305383,0.79942226,0.20943101,0.02942601,0.9308539,2017-03-27 08:40:46,70.59885653831246
3.3274078,2.2194366,9.307404,0.005142212,0.14103699,0.004699707,196.0,3.4498484,1.950399,8.9702215,-0.024037838,-0.18385541,-0.050292015,0.20172596,0.04418851,0.93505806,2017-03-27 08:40:47,58.14457499445044
3.8613129,2.1128998,8.498154,0.03337097,0.098968506,-0.098098755,178.0,3.9469295,2.3259661,8.670755,-0.11294055,-0.22916865,-0.23262882,0.2339063,0.05658899,0.92863935,2017-03-27 08:40:48,59.19707309381957
4.547241,0.93974304,9.069183,-0.2462616,-0.78466797,0.43559265,505.0,4.2973757,1.0792993,8.748603,-0.5039139,0.041267037,0.5932722,0.23200767,0.01085445,0.95339763,2017-03-27 08:40:49,58.162483271760344
6.3225555,2.0051575,7.687729,0.08129883,-0.1993103,0.1804657,2217.0,6.598015,0.5838747,7.2315755,-0.15619373,0.19011813,-0.43322134,0.36136708,-0.026572745,0.9198917,2017-03-27 08:40:50,65.7545458230914
6.91391,0.017974854,7.1753693,0.027511597,-0.008636475,0.014282227,1162.0,6.675696,0.102695316,7.1829605,0.22849607,-0.08486995,-0.018047333,0.36402434,-0.03545727,0.92483294,2017-03-27 08:40:51,70.15548867017233
6.316559,0.029937744,7.2914886,0.030700684,-0.12208557,-0.116744995,2618.0,6.650467,0.17952596,7.204821,-0.32817125,-0.14943336,0.09288216,0.36312112,-0.028273713,0.9262135,2017-03-27 08:40:52,65.6884827237845
9.026794,-0.8247833,6.483444,-0.028945923,-0.42462158,0.95332336,4085.0,7.2282567,-0.16366544,6.625398,1.296999,-0.54143107,-0.14102364,0.38949314,-0.060633883,0.90767664,2017-03-27 08:40:53,73.05895472397935
7.3269196,-0.41897583,6.4020386,3.5095215E-4,0.07446289,-0.013946533,4653.0,7.4471173,-0.4813477,6.3623214,-0.110535145,0.061747342,0.047972202,0.4124083,-0.074372694,0.9020777,2017-03-27 08:40:54,66.68456838480299
7.392761,-0.44770813,6.3385925,-0.03161621,-0.04484558,-0.036849976,4722.0,7.413251,-0.5194597,6.398769,-0.0037121773,0.1391111,0.0076732635,0.4103048,-0.07350857,0.9037516,2017-03-27 08:40:55,71.0361857073839
7.602249,-0.61769104,6.451126,-0.01776123,0.0116119385,0.0036315918,4985.0,7.4112277,-0.5629752,6.397433,0.24130344,-0.058535337,0.0970974,0.4116168,-0.06628204,0.90575075,2017-03-27 08:40:56,60.49964916095195
7.5399933,-0.6691742,6.495407,0.016860962,-0.009155273,0.007904053,4899.0,7.3487215,-0.5550695,6.4698205,-0.0056142807,-0.15303963,0.051348686,0.40843794,-0.057527557,0.909075,2017-03-27 08:40:57,69.93660180517247
7.4226837,-0.32081604,6.1805725,0.032836914,-0.020874023,0.008956909,5130.0,7.4917755,-0.47644234,6.310046,-0.032142162,0.15327647,-0.09835243,0.41879925,-0.053706203,0.90463156,2017-03-27 08:40:58,67.0417289897775
7.538803,-0.32798767,6.7611694,0.04348755,0.1697998,-0.09649658,1787.0,7.2191887,-0.13791159,6.635864,0.6213832,0.13623935,-0.096906185,0.4000149,-0.040659603,0.91251504,2017-03-27 08:40:59,67.81532314003978
7.1042633,0.8906555,6.6701813,-0.11416626,0.092041016,-0.3399048,2869.0,7.328864,0.47323203,6.498784,-0.2075839,0.41852227,0.18648672,0.409808,-0.026676424,0.9041487,2017-03-27 08:41:00,65.69043540569605
7.4071198,0.36631775,6.624695,0.022720337,-0.111953735,0.010025024,3065.0,7.276077,0.43951422,6.5601773,0.17385817,-0.06794995,0.05576849,0.4018036,-0.0523316,0.897867,2017-03-27 08:41:01,66.63384416897618
7.2957916,0.53271484,6.4726715,0.008331299,-0.021942139,-0.016601563,2684.0,7.400731,0.4626609,6.4175935,-0.09071398,0.070943266,0.06741381,0.40999708,-0.068528764,0.88596123,2017-03-27 08:41:02,72.0243406257836
7.115036,0.52075195,6.4451294,-0.0071105957,0.002029419,-0.033111572,2928.0,7.416862,0.39833257,6.4032702,-0.30991507,0.12198496,0.034875393,0.40813896,-0.08334665,0.87968755,2017-03-27 08:41:03,69.52672531317296
7.3065643,0.4142151,6.562454,-0.0060424805,0.0030822754,-0.011276245,2993.0,7.318343,0.33809257,6.519044,-0.01223135,0.07610163,0.043007374,0.40073818,-0.08384621,0.8834366,2017-03-27 08:41:04,69.43598994781793
7.5208435,0.4573059,6.387665,-0.019897461,-0.023544312,-0.052825928,3008.0,7.4111366,0.3453465,6.412969,0.13331652,0.098888755,-0.046147823,0.40676728,-0.087005444,0.87944657,2017-03-27 08:41:05,70.95328659992857
7.507675,0.3483734,6.400833,-0.022018433,0.0025482178,-0.015533447,3068.0,7.4273167,0.32859096,6.3951054,0.078903675,0.01971811,0.0044751167,0.4069765,-0.091161855,0.8772533,2017-03-27 08:41:06,67.84263747315003
7.763855,0.2693634,6.4211884,0.022720337,0.015335083,0.027069092,3150.0,7.434375,0.33099166,6.386775,-0.09541178,-0.13499081,-0.08314514,0.40677887,-0.09431877,0.8751572,2017-03-27 08:41:07,71.07514936183874
7.352051,0.31484985,6.545685,0.024307251,0.0206604,0.004699707,3201.0,7.3512416,0.24380317,6.4861546,0.017598629,0.07160349,0.07434368,0.4012233,-0.09120327,0.88157123,2017-03-27 08:41:08,70.2251624390235
7.4897156,0.3495636,6.1087494,0.021652222,-0.041656494,-0.036315918,3222.0,7.464624,0.32671797,6.351616,-0.28938198,-0.004246682,0.1929493,0.40977097,-0.09080451,0.8767262,2017-03-27 08:41:09,71.80900774952873
7.5411987,0.3376007,6.3266144,-0.026290894,0.003616333,-0.014480591,3175.0,7.469475,0.32665354,6.345914,0.07554817,0.0111144185,-0.016050339,0.408497,-0.09787041,0.8724412,2017-03-27 08:41:10,65.72909729209111
7.4573975,0.29449463,6.3852844,-0.025756836,0.025985718,0.032928467,3205.0,7.4084477,0.29695427,6.4184976,0.051347256,-0.024659127,-0.02506113,0.40423077,-0.09770248,0.8739518,2017-03-27 08:41:11,67.99025165823382
7.0431976,0.20231628,6.7061005,0.036026,-0.04005432,0.0036315918,3168.0,7.1428766,0.23863797,6.715114,-0.093952656,-0.0361304,-0.003631115,0.3884382,-0.08209894,0.8911344,2017-03-27 08:41:12,70.72130245425149
7.2155914,0.23344421,6.542099,0.022720337,-0.0043640137,-6.2561035E-4,3246.0,7.2757616,0.21629338,6.571675,-0.058946133,0.017187223,-0.02847004,0.39885285,-0.07651312,0.8919414,2017-03-27 08:41:13,67.79171499123245
7.3376923,0.21548462,6.4918213,0.0317688,0.007888794,0.02281189,3296.0,7.3174195,0.21319917,6.525358,0.02855587,0.00252679,-0.026150227,0.401613,-0.077500425,0.8905785,2017-03-27 08:41:14,69.97435492205506
7.138977,0.21669006,6.4738617,0.013122559,-0.0059661865,0.0015106201,3271.0,7.2539077,0.22824576,6.595386,-0.09710789,-0.010994911,-0.1053195,0.39758745,-0.07518724,0.89276415,2017-03-27 08:41:15,69.68226986568635
7.380783,0.24302673,6.601959,-0.026290894,0.0057525635,0.0052337646,3374.0,7.290372,0.2067065,6.555772,0.096542835,0.036494076,0.05170107,0.39957568,-0.07802531,0.8911212,2017-03-27 08:41:16,72.00436839104947
7.226364,0.247818,6.5277405,-0.023086548,0.005218506,-0.020339966,3356.0,7.2960205,0.22073306,6.549027,0.026031017,-0.006404951,0.08145809,0.40004697,-0.07781372,0.89070296,2017-03-27 08:41:17,69.12380702682738
7.1365814,0.29689026,6.4654846,0.024307251,0.021194458,0.01802063,3354.0,7.3119416,0.2450327,6.53038,-0.15619326,0.05249986,-0.047777176,0.40098214,-0.07909886,0.88899136,2017-03-27 08:41:18,70.94263824862372
7.331711,0.20352173,6.5361176,0.030166626,0.018005371,0.01802063,3307.0,7.3102407,0.27532664,6.531077,-0.15243149,-0.0410375,-0.12935162,0.40027764,-0.08237455,0.88639325,2017-03-27 08:41:19,64.09437960112912
7.274246,0.26576233,6.5995636,-0.0119018555,-0.018218994,-0.053359985,3358.0,7.273953,0.24500893,6.5726695,0.017937183,0.021347687,0.042836666,0.397829,-0.08135873,0.8886432,2017-03-27 08:41:20,62.08258380418143
7.0587616,0.23464966,6.7503967,-0.011367798,-0.0027770996,-0.016601563,3362.0,7.281142,0.23886439,6.56493,-0.19317865,-0.0077551156,0.20431852,0.3979903,-0.0829787,0.8878012,2017-03-27 08:41:21,59.9147824156407
7.2957916,0.1616211,6.637863,0.015792847,-0.0075683594,0.014282227,3390.0,7.2839613,0.2344942,6.56196,0.023179054,-0.072507754,0.086126804,0.3984609,-0.081621565,0.8886006,2017-03-27 08:41:22,59.71884584740742
7.237137,0.123306274,6.5397034,0.015792847,-0.03100586,0.007904053,3362.0,7.2530217,0.24870697,6.59562,-0.097167015,-0.065782666,0.003501892,0.39618003,-0.082209095,0.88851756,2017-03-27 08:41:23,71.20671581067525
7.3975525,0.22865295,6.5133667,0.0046081543,-0.013961792,0.031326294,3382.0,7.3066225,0.25840238,6.535815,-0.06346321,0.030323803,0.10024834,0.39946762,-0.08480452,0.8856593,2017-03-27 08:41:24,69.09431007760949
7.28981,0.20710754,6.770752,-0.03161621,0.024398804,-0.013946533,3435.0,7.302834,0.23874588,6.540795,-0.0106396675,-0.031560406,0.23209238,0.39889288,-0.08600434,0.8856839,2017-03-27 08:41:25,66.97391899149969
7.1880493,0.3387909,6.5768127,-0.0385437,0.019073486,-0.015533447,3441.0,7.3265224,0.24156499,6.514147,-0.13267612,0.09741704,0.06782007,0.40022084,-0.087716825,0.884141,2017-03-27 08:41:26,70.0000786425542
7.593872,0.39265442,6.114731,0.032836914,-0.019821167,-0.0059509277,2801.0,7.491967,0.32337424,6.3195133,0.043782234,0.06910682,-0.33661985,0.41217923,-0.08820429,0.877516,2017-03-27 08:41:27,70.37509712830688
7.561554,0.26457214,6.6199036,0.044555664,0.082977295,0.014282227,3015.0,7.2959847,0.3014149,6.545849,0.2655635,-0.036843,0.07404947,0.39573848,-0.09821221,0.87637955,2017-03-27 08:41:28,67.26181718162522
7.7135773,0.17597961,6.154236,0.030166626,0.013748169,0.0041656494,3638.0,7.625407,0.222665,6.162303,-0.16576958,-0.063304156,-0.046221256,0.4159048,-0.11328378,0.86331475,2017-03-27 08:41:29,72.81329980301835
9.016022,2.876648,9.482178,-0.49127197,-0.27601624,0.09738159,269.0,6.667273,2.9805996,6.54476,2.3305092,-0.11210561,2.9195127,0.3940959,0.10487383,0.90135837,2017-03-27 08:41:30,73.6578666331077
3.8768768,1.2210541,9.266693,-0.24786377,0.108551025,0.06915283,389.0,4.034227,1.1707388,8.861422,0.08370876,-0.598261,0.28420353,0.21768346,0.028411316,0.96425956,2017-03-27 08:41:31,69.07993513417995
7.2084045,-0.7493744,6.367325,0.1643982,-0.35591125,0.04890442,885.0,6.7467246,-0.8465884,7.066497,0.4522643,0.09839553,-0.70903444,0.36822307,-0.06419257,0.9264608,2017-03-27 08:41:32,64.97968382612814
6.024475,-0.7816925,7.565613,0.13723755,4.272461E-4,-0.060287476,1195.0,6.183412,-0.75868785,7.573652,-0.09338999,0.18504971,-0.2630763,0.33407208,-0.04740336,0.9411872,2017-03-27 08:41:33,59.083214147026695
5.558792,-0.3303833,8.320984,-0.1136322,0.0717926,0.008422852,857.0,5.329115,-0.4548627,8.219733,-0.20451403,0.28294486,0.15062809,0.28310838,-0.02756589,0.95862365,2017-03-27 08:41:34,69.03854526523851
4.6059113,1.2030945,8.334152,-0.3208313,0.15701294,-1.5766907,4063.0,4.868089,-0.46705213,8.500232,-0.25075483,1.6690507,-0.14613342,0.22915691,-0.11872604,0.89635015,2017-03-27 08:41:35,59.76867607847489
1.977066,-2.5964966,9.791031,0.17930603,-0.14924622,0.0025634766,3165.0,2.057665,-1.8213441,9.413773,-0.08395028,-0.77218604,0.36192608,0.069421165,-0.12333654,0.93536377,2017-03-27 08:41:37,63.33458311519993
3.012558,-2.446869,8.852509,0.11805725,-0.06881714,0.022277832,4651.0,2.9850373,-1.9641697,9.132467,0.05555582,-0.45532143,-0.24953938,0.120193616,-0.14116377,0.9434427,2017-03-27 08:41:38,62.443714002612296
6.3105774,1.7202454,7.182541,0.041885376,-0.12580872,-0.10128784,425.0,6.4914217,1.2592738,7.2419662,-0.16249943,0.46453035,-0.038959026,0.36111447,0.01894342,0.9233109,2017-03-27 08:41:39,63.52199417266598
6.7104034,0.9134064,6.9598846,0.19955444,-0.10557556,0.20710754,478.0,6.7338023,1.0096394,7.057401,-0.047729492,0.25917637,-0.08040714,0.37380195,0.021089833,0.9233074,2017-03-27 08:41:40,60.90142245291538
5.8915863,0.019165039,8.0420685,-0.22229004,0.28485107,-0.013412476,664.0,6.2187276,0.387687,7.5728145,-0.32030678,-0.36809587,0.47757626,0.33748156,3.4877344E-4,0.93956816,2017-03-27 08:41:41,69.73915996046887
6.2004395,0.4189911,7.7727203,0.05307007,-0.04324341,-0.009155273,783.0,5.91115,0.274654,7.820055,0.0959363,0.37192243,0.10023546,0.31825668,9.29127E-4,0.9471069,2017-03-27 08:41:42,67.19267422765674
5.685684,0.20950317,7.9031982,-0.3011322,0.10694885,-0.22219849,1330.0,5.562798,-0.049601756,8.076089,0.12311983,0.25910285,-0.17255116,0.29608244,-0.023859512,0.95242506,2017-03-27 08:41:43,72.0091807068256
4.1833344,-2.5809326,8.748352,-0.15145874,-0.009155273,0.026535034,8604.0,4.089086,-2.8186471,8.456062,0.10952568,0.21418476,0.30690002,0.17789246,-0.19190753,0.9414848,2017-03-27 08:41:44,69.8162138699899
5.964615,0.9588928,7.7487793,0.657074,-0.63926697,0.31576538,1159.0,5.3974757,0.17150986,8.185855,0.5895262,0.78809434,-0.4031229,0.2869776,-0.016775403,0.9539007,2017-03-27 08:41:45,63.0071514563793
2.9000397,-2.6228333,9.23558,-0.36557007,0.46754456,0.113357544,4224.0,3.5844424,-1.1531078,9.054972,-0.6873152,-1.4687885,0.17325115,0.18227033,-0.07143169,0.97875017,2017-03-27 08:41:46,69.77064289635295
2.743225,-4.8326874,9.545624,0.5015564,0.34397888,-0.17906189,13598.0,2.496751,-3.2675345,8.9028,0.25173783,-1.5720415,0.66159344,0.124735706,-0.17471279,0.97617245,2017-03-27 08:41:47,56.22225916667823
0.6638489,-3.4428558,9.277481,-0.69207764,0.25448608,0.26036072,9934.0,1.4421998,-3.0545962,9.206514,-0.40503097,-0.90865254,0.21310425,-0.07700699,0.15345716,-0.98514634,2017-03-27 08:41:48,58.64231912093046
2.2308655,-2.4061584,9.166138,0.07118225,-0.18440247,0.07022095,11770.0,2.1336212,-2.6339307,9.202199,0.10720873,0.21547103,0.0069150925,-0.11469917,0.13290055,-0.98399174,2017-03-27 08:41:49,65.74534749044832
1.977066,-1.9249268,9.336136,0.0030059814,0.15435791,0.008422852,11310.0,2.4348755,-2.4345934,9.182294,-0.13543034,0.25511503,0.44025135,-0.1316895,0.12437055,-0.9826952,2017-03-27 08:41:50,69.37756404817276
4.9003906,-0.099349976,8.943481,-0.07849121,-0.1950531,-0.46028137,2856.0,5.3826385,-0.1164409,8.196587,-0.4874854,0.017204233,0.73891926,-0.28637308,-0.008991902,-0.95672977,2017-03-27 08:41:51,67.02012881826676
6.3572693,1.386261,6.9754486,-0.11470032,-0.03312683,0.043045044,1641.0,6.6753354,1.3071821,7.0641036,-0.11404276,-0.27865005,-0.15901852,-0.36235556,-0.08974368,-0.9266399,2017-03-27 08:41:52,66.48789215117853
7.6621094,1.5275116,6.0824127,0.0014038086,-0.018218994,-0.06187439,411.0,7.7035384,1.5088565,5.877859,-0.031909466,0.020519614,0.21181726,-0.43619442,-0.10023471,-0.8937815,2017-03-27 08:41:53,64.98448706825125
4.072006,1.2988586,9.889191,-1.8553467,1.0491791,0.6337433,505.0,5.801947,1.2710032,7.803354,-1.2915163,1.2818639,1.2588854,0.31565523,0.050014287,0.945933,2017-03-27 08:41:54,64.30184722941017
8.638947,4.6579285,5.613144,-0.16850281,0.72480774,1.2302856,259.0,5.5479426,3.211198,7.4215174,3.0755906,1.437809,-1.8289919,0.3168571,0.14563482,0.93310004,2017-03-27 08:41:55,66.32483818042361
6.941452,0.54229736,6.048889,0.016326904,-0.19026184,-0.07147217,332.0,7.5248218,0.42251453,6.2744656,-0.6025591,0.11870539,-0.24157715,0.42257503,-0.039008044,0.8955706,2017-03-27 08:41:56,65.62813156118617
7.2550964,0.101760864,6.7815247,0.15374756,0.022262573,0.042510986,2214.0,7.1058283,-0.016002726,6.7585006,0.13967323,0.1177852,0.013897896,0.39016575,-0.056418534,0.9098484,2017-03-27 08:41:57,65.96565207826552
7.507675,-0.089767456,6.435562,-1.8310547E-4,-0.06349182,0.041992188,2023.0,7.313895,0.05774749,6.5325336,0.08149719,0.11100572,0.054838657,0.40554002,-0.049706895,0.90504,2017-03-27 08:41:58,66.00303819955138
7.404724,0.32562256,6.3194427,-0.061965942,-0.04219055,-0.13591003,1700.0,7.4950724,0.3598476,6.313857,-0.0878911,-0.03410709,0.0076556206,0.41944692,-0.046337683,0.8953036,2017-03-27 08:41:59,66.66780761370612
7.4071198,0.7110901,6.3074646,0.020050049,-0.021408081,-0.0048828125,1427.0,7.486328,0.7388697,6.2912126,0.10329056,-0.030241132,0.028859615,0.42180166,-0.036342844,0.89061254,2017-03-27 08:42:00,66.97571688207508
7.5687256,0.7637634,6.1207123,0.013122559,-0.0539093,0.03186035,2426.0,7.6164975,0.7974328,6.125638,-0.039466858,-0.03279978,0.0017538071,0.43181497,-0.03485983,0.8859302,2017-03-27 08:42:01,65.35231613304214
7.715973,0.6919403,5.8322144,0.023254395,-0.05656433,0.018554688,2557.0,7.805967,0.75825953,5.8874702,0.068152905,-0.06020838,-0.05544138,0.44540077,-0.037956547,0.87977666,2017-03-27 08:42:02,65.80436257359747
7.7423096,0.7793274,6.017761,-0.013504028,-0.0043640137,0.010559082,2539.0,7.7754965,0.75319856,5.928299,-0.023340702,0.027082622,0.096969604,0.44335496,-0.034311138,0.882195,2017-03-27 08:42:03,65.42758828541814
7.826111,0.78770447,5.97348,-0.030014038,0.026519775,-0.001159668,2532.0,7.74095,0.7504356,5.9736867,-0.011799812,0.021327674,0.10801077,0.4410611,-0.029864024,0.88490814,2017-03-27 08:42:04,66.06352204623235
7.7255554,0.7314453,5.91362,-0.028411865,0.018005371,-0.025665283,2504.0,7.817799,0.7412379,5.8739243,-0.08012152,-0.00864327,0.04880333,0.44695115,-0.027348133,0.88333184,2017-03-27 08:42:05,66.01702964821254
7.80336,0.7110901,5.7975006,-0.0012512207,-0.0043640137,-0.017669678,2018.0,7.8723884,0.7216019,5.803033,-0.07508278,-0.02291894,-0.0053920746,0.45111072,-0.025036234,0.88251495,2017-03-27 08:42:06,64.29871655476299
7.8955383,0.7218628,5.817856,0.018447876,-0.010223389,-0.0016937256,1987.0,7.864938,0.7661703,5.807419,0.03467846,-0.043910265,0.013448238,0.4510338,-0.021738011,0.8828442,2017-03-27 08:42:07,65.8679833749122
7.815338,0.74580383,5.75441,0.006729126,0.007888794,-0.0032958984,2159.0,7.892537,0.76531184,5.7699695,-0.06596947,-0.007646382,-0.049250603,0.45316336,-0.021364134,0.88197666,2017-03-27 08:42:08,65.07676652000558
7.925461,0.6811676,5.6873627,0.032302856,-0.027267456,0.01322937,2358.0,7.926595,0.76656634,5.722923,0.016705036,0.019309342,-0.009767532,0.4558217,-0.020945748,0.8808272,2017-03-27 08:42:09,65.62894798880771
7.9111023,0.8499603,5.874115,-0.030014038,0.030258179,0.0036315918,2363.0,7.9366045,0.7448423,5.711909,-0.028773785,0.10481101,0.15985155,0.45637757,-0.02220842,0.880531,2017-03-27 08:42:10,65.74103097351819
7.920685,0.7242584,5.9746704,0.030700684,-0.06614685,0.024414063,2531.0,7.8075833,0.6942596,5.893219,0.117480755,0.030388236,0.08475733,0.44627905,-0.019090993,0.8869728,2017-03-27 08:42:11,65.97016481320638
7.80217,0.6057434,5.841797,0.013122559,-0.029403687,0.013748169,1837.0,7.8015246,0.63783306,5.9076033,0.05851555,-0.023678184,0.02669096,0.4456506,-0.013842064,0.8894289,2017-03-27 08:42:12,65.59512649045875
7.8919525,0.6775665,6.0273438,-0.024154663,0.003616333,0.010025024,1935.0,7.8193994,0.6079581,5.8870835,0.089975834,0.070963025,0.15337753,0.44696516,-0.008025556,0.8904353,2017-03-27 08:42:13,64.94950349704868
8.082291,0.60813904,5.975876,-0.108306885,0.2401123,-0.001159668,1754.0,7.9219522,0.5428855,5.754853,-0.12556314,0.045487165,0.11233616,0.45446846,-0.006526569,0.8876886,2017-03-27 08:42:14,65.95933845571055
7.4957123,1.1073303,6.8282013,-0.15304565,-0.020355225,0.08831787,2996.0,6.9378324,0.8591471,6.877407,0.5575638,0.24814409,-0.049518585,0.38606882,0.017340457,0.91947955,2017-03-27 08:42:15,66.0562330715918
7.2191772,0.6428528,6.604355,0.013656616,-0.013427734,0.0015106201,3468.0,7.280926,0.75723636,6.525726,-0.14502335,-0.030987084,0.06996536,0.40830457,0.023831805,0.9115973,2017-03-27 08:42:16,65.47959031885699
6.89357,1.1001434,6.4678802,0.09196472,-0.01449585,0.03665161,2606.0,7.2750683,1.081583,6.486443,-0.3754034,0.01946652,-0.0131287575,0.41015315,0.032524318,0.90930176,2017-03-27 08:42:17,65.81609765167065
6.8361053,0.31245422,6.8449707,-0.22070313,-0.24937439,-0.19769287,2105.0,7.0175,0.1971043,6.847353,0.23937654,-0.04384373,0.086770535,0.3877894,-0.022395732,0.9180887,2017-03-27 08:42:18,66.3667251140558
6.9306793,-0.44770813,6.9311523,-0.027877808,-0.07095337,-0.07519531,3004.0,6.917534,-0.40722254,6.9391837,0.02093792,-0.040944338,-2.1457672E-4,0.3800814,-0.04169199,0.9228371,2017-03-27 08:42:19,65.90810260450097
6.960602,-0.089767456,6.8880615,0.02218628,0.009475708,-0.033111572,2827.0,6.975271,-0.19898677,6.8903112,0.026896954,-0.041911587,0.058338642,0.38400024,-0.035152886,0.9208465,2017-03-27 08:42:20,65.4942761104453
6.6864624,-0.39622498,6.8282013,-0.05558777,-0.037399292,0.033996582,2358.0,7.120745,-0.20407993,6.7397113,-0.4126153,-0.19276604,0.10899782,0.39434767,-0.029329965,0.91753894,2017-03-27 08:42:21,65.46233507678207
7.1210175,-0.40699768,6.715683,0.015792847,0.010009766,-0.02619934,1042.0,7.136254,-0.41221696,6.713743,0.019768238,-0.045082718,0.06344414,0.39634132,-0.032403357,0.9173047,2017-03-27 08:42:22,65.17794566072348
7.206009,-0.43214417,6.684555,0.02218628,0.006286621,0.013748169,1215.0,7.1750894,-0.42786565,6.6712365,0.05131626,-0.005494803,0.03228283,0.39852026,-0.032298133,0.9163826,2017-03-27 08:42:23,65.92698814159358
7.2012177,-0.380661,6.688141,0.0056762695,0.008407593,0.011627197,1174.0,7.2115445,-0.3720189,6.6351795,0.049554825,0.033521146,0.046769142,0.40098938,-0.030124929,0.91533566,2017-03-27 08:42:24,65.13220522761719
7.0144806,-0.27172852,6.774338,0.056274414,0.10269165,0.012161255,1085.0,7.046473,-0.25809023,6.8154974,-0.01198101,-0.014371246,-0.021803856,0.39010006,-0.018118894,0.9205499,2017-03-27 08:42:25,65.59978495461291
7.0647583,-0.2513733,6.8246155,0.015258789,0.023864746,0.0057678223,1271.0,7.0174212,-0.22573356,6.846548,-0.058347702,0.013437957,0.0044722557,0.388192,-0.015171217,0.92143166,2017-03-27 08:42:26,65.94957095390994
6.9713745,-0.24299622,6.8162384,0.0024719238,0.007888794,0.0036315918,1404.0,7.0143447,-0.2266485,6.849671,-0.025220394,-0.016921237,-0.01609993,0.38802192,-0.014247429,0.9215311,2017-03-27 08:42:27,66.19522429696374
6.9833527,-0.262146,6.8713074,0.011001587,0.013214111,0.0015106201,1467.0,7.018522,-0.2413746,6.8448877,-0.01860094,-0.02134119,0.042577744,0.3883331,-0.014327286,0.9214048,2017-03-27 08:42:28,65.53297121435821
6.97377,-0.25497437,6.82341,-0.0071105957,-0.01449585,0.0068359375,1521.0,7.013698,-0.25999445,6.849148,-0.025583267,0.004488349,-0.011729717,0.3880123,-0.015398387,0.92152244,2017-03-27 08:42:29,65.10765124712417
6.968979,-0.25257874,6.859329,-0.0017852783,0.005218506,-0.0022277832,1580.0,7.009236,-0.23686671,6.8545527,-0.026509762,-0.016176581,0.018219948,0.38765958,-0.015333784,0.9216598,2017-03-27 08:42:31,65.85326514420541
7.0467987,-0.2513733,6.8258057,-0.010314941,-0.032592773,0.007904053,1547.0,6.992001,-0.24399854,6.8718834,-0.049681187,0.014578715,-0.015657902,0.38648242,-0.016211787,0.9221314,2017-03-27 08:42:32,64.66802324902959
6.996521,-0.18792725,6.787506,-7.171631E-4,0.0046844482,0.01322937,1662.0,7.037634,-0.23023736,6.825619,-0.020486832,0.04163532,-0.018108368,0.38946062,-0.017626258,0.92080224,2017-03-27 08:42:33,64.6551054402213
7.0192566,-0.25737,6.759964,-0.0028533936,-0.003829956,0.014282227,1672.0,7.037569,-0.25665134,6.8247447,0.0077376366,-0.0016686618,-0.039518356,0.38931274,-0.019307958,0.9208228,2017-03-27 08:42:34,65.68192577009947
6.945038,-0.22743225,6.795883,0.009933472,0.011077881,0.00630188,1627.0,7.0137153,-0.24376523,6.849728,-0.050028324,0.015684813,-0.035631657,0.3878219,-0.018848361,0.9214536,2017-03-27 08:42:35,64.34389125345953
6.997711,-0.19631958,6.7444153,0.007797241,0.0116119385,0.007904053,1593.0,7.0140414,-0.23166579,6.8498135,-0.072327614,0.022841096,-0.03900957,0.3876633,-0.019376092,0.9214764,2017-03-27 08:42:36,66.05019445222044
6.9594116,-0.22624207,6.8653107,0.006729126,0.0046844482,-0.0032958984,1575.0,7.007066,-0.23582669,6.8568068,-0.03562689,0.009179831,0.020273209,0.38737902,-0.018374866,0.92165023,2017-03-27 08:42:37,66.47391155547004
6.957016,-0.23222351,6.779129,0.0056762695,-0.003829956,-0.0075531006,1583.0,7.0056877,-0.24199955,6.8580003,-0.036808968,-0.011071727,0.0033245087,0.38729638,-0.018461192,0.9216913,2017-03-27 08:42:38,65.96245251574797
7.0025024,-0.22026062,6.88208,-0.0024261475,-0.010284424,-0.0058135986,1599.0,7.0124,-0.23139787,6.851503,8.7070465E-4,0.010781899,0.041098595,0.3877287,-0.018358707,0.9214961,2017-03-27 08:42:39,65.50935621213918
7.015671,-0.21186829,6.862915,-0.0066833496,-0.018814087,-0.009002686,1601.0,7.0143228,-0.23144281,6.849533,0.0138607025,0.027775615,0.027200222,0.3878946,-0.018921597,0.9214122,2017-03-27 08:42:40,65.80204405643565
6.9797516,-0.23582458,6.8736877,-0.008285522,0.004623413,-0.008483887,1604.0,7.00608,-0.23437296,6.857864,-0.010581017,-0.001978457,0.031239033,0.38730305,-0.018509278,0.9216722,2017-03-27 08:42:41,64.31935499260904
7.044403,-0.2214508,6.8365784,-0.011474609,-0.012954712,0.0011138916,1604.0,7.023085,-0.24109843,6.8402143,-0.0045313835,-0.0060498863,0.049106598,0.38837633,-0.020247703,0.9211329,2017-03-27 08:42:42,66.66526894059307
7.068344,-0.28370667,6.8437653,-0.009887695,-0.012420654,-0.0026245117,1622.0,7.029914,-0.23797719,6.8333054,0.026094437,0.02188456,-0.0058546066,0.38886425,-0.019569872,0.92096263,2017-03-27 08:42:43,66.24714333944303
6.9785614,-0.25737,6.862915,-0.0056152344,-0.0038909912,0.0016479492,1610.0,7.007987,-0.24406229,6.855578,-0.009221554,-0.014011338,0.027101517,0.38739938,-0.019609967,0.9215889,2017-03-27 08:42:44,65.63525877489946
6.9546204,-0.24060059,6.8964386,-0.002960205,0.017410278,-0.015930176,1557.0,6.968506,-0.22103073,6.896483,-7.5387955E-4,-0.019986361,0.012951374,0.3847792,-0.017950743,0.9227315,2017-03-27 08:42:45,63.92032509033223
7.158127,-0.24180603,6.6318817,-0.007751465,-0.04437256,-0.08357239,1729.0,7.1120496,-0.23458941,6.747896,0.0684185,-0.007953525,-0.09481716,0.39406407,-0.025817547,0.9182366,2017-03-27 08:42:46,64.1199763254134
6.8097687,-0.29566956,6.9742584,0.013549805,0.0056915283,0.014953613,1358.0,6.832888,-0.23741855,7.030338,-0.019860744,0.05965185,-0.017612934,0.37585565,-0.016883207,0.9264766,2017-03-27 08:42:47,65.15723706043508
6.949829,-0.25737,6.8892517,-0.010955811,-0.016143799,-0.0036773682,1575.0,6.9442644,-0.2747131,6.9189672,0.02681303,0.0165025,-0.008543968,0.38310927,-0.021403808,0.92333275,2017-03-27 08:42:48,67.30043909397207
6.968979,-0.26335144,6.8892517,0.013015747,0.01687622,0.012298584,1574.0,6.9603043,-0.25912645,6.903435,0.010504723,-0.0024320483,-5.226135E-4,0.3841799,-0.020702697,0.9228986,2017-03-27 08:42:49,65.71128177482854
6.9234924,-0.20948792,6.842575,0.015686035,0.021133423,-0.008483887,1599.0,6.937267,-0.20073515,6.928522,0.012979507,-0.009526908,-0.05922699,0.38265923,-0.017764896,0.9235779,2017-03-27 08:42:50,66.08224065375421
6.960602,-0.23103333,7.031708,-0.012008667,0.014205933,4.5776367E-5,1484.0,6.9119406,-0.17481525,6.954488,0.062051773,-0.056556746,0.090693,0.380928,-0.017709918,0.9242279,2017-03-27 08:42:51,66.19296300689727
6.7056274,0.23464966,6.965866,0.023132324,0.044570923,-0.0047454834,1364.0,6.7975388,0.26263887,7.06363,-0.07188702,-0.02721551,-0.076955795,0.37396976,-0.0013050433,0.92661786,2017-03-27 08:42:52,65.6581731925785
7.22876,0.19154358,6.727646,-0.03704834,-0.061416626,-0.005279541,1196.0,7.1312737,0.2180211,6.728135,-0.16447306,0.058007896,-0.08792877,0.3961026,-0.007957635,0.9169943,2017-03-27 08:42:53,67.23090387450453
7.1677094,0.22027588,6.628296,0.04977417,0.14097595,0.009094238,1246.0,7.0927534,0.15919825,6.7703686,0.09682417,0.061568454,-0.121198654,0.39345556,-4.305049E-6,0.9191119,2017-03-27 08:42:54,64.4697559540566
6.826523,0.11253357,6.8892517,0.011947632,-0.0134887695,0.059173584,1666.0,6.882238,0.15856755,6.9842706,-0.042418957,-0.04572764,-0.08152628,0.37928897,0.006417013,0.9252387,2017-03-27 08:42:55,64.05244546330329
6.569153,0.5470886,6.98024,-0.021606445,-0.008163452,0.026138306,1686.0,6.664642,0.60947907,7.1680875,-0.07427788,-0.060450733,-0.16503477,0.36603537,0.023395993,0.92995846,2017-03-27 08:42:56,64.17321235849774
6.747513,0.27534485,7.004181,-0.010955811,-0.022003174,5.79834E-4,1581.0,6.8774486,0.25202096,6.986243,0.05514574,-0.069886684,-4.3344498E-4,0.3791771,0.0050515104,0.925059,2017-03-27 08:42:57,65.23182180084565
7.013275,0.287323,6.870102,-0.029052734,-0.045440674,0.004837036,1571.0,6.9660816,0.21921147,6.8989882,0.056394577,0.06840105,-0.019774437,0.38502014,0.0029978463,0.92264473,2017-03-27 08:42:58,65.49635136698807
6.941452,0.101760864,6.917984,0.0012969971,0.011550903,0.014953613,1687.0,6.9607444,0.15080264,6.9062057,0.047268867,0.0266833,-0.045060158,0.3845435,0.0027888927,0.92300683,2017-03-27 08:42:59,65.1713369817835
6.7942047,0.24182129,7.3824615,-0.12705994,-0.14930725,0.19552612,957.0,6.673732,0.13350677,7.1842785,0.12050295,0.108315125,0.19821596,0.36564907,0.0021188005,0.93065643,2017-03-27 08:43:00,66.52678018926022
6.1848755,-0.029922485,7.4147797,0.01461792,-0.0033721924,-0.04789734,795.0,6.3745494,-0.015325907,7.4521985,-0.09067297,0.014145218,0.004655361,-0.34642553,-0.0057412568,-0.937891,2017-03-27 08:43:01,67.00064340984088
6.408737,0.12690735,7.4064026,0.0050354004,0.012619019,0.03253174,1036.0,6.4006147,0.09560562,7.4292245,0.019225597,0.03146758,-0.009934425,-0.34786725,-0.01426029,-0.93711764,2017-03-27 08:43:02,67.35328654678358
6.6756897,0.06825256,7.2196503,-0.036514282,-0.13386536,0.057037354,1293.0,6.6536074,-0.02050111,7.2041287,0.035134792,-0.03454115,-0.08426666,-0.36413315,-0.009935255,-0.93086475,2017-03-27 08:43:03,65.72658180469135
6.296219,-0.28729248,7.3154297,0.0012969971,0.21980286,0.16409302,663.0,6.4092336,-0.43486297,7.409657,-0.10849953,0.14726412,-0.08900738,0.34856567,-0.026732504,0.9368668,2017-03-27 08:43:04,67.04480614752289
6.5081024,0.28372192,7.067627,-0.002960205,-0.20362854,-0.06387329,1619.0,6.7254953,0.39710072,7.126038,0.1507163,-0.09066275,-0.09854078,-0.3686989,-0.027098157,-0.9290576,2017-03-27 08:43:05,66.82662324822792
6.742737,0.47406006,6.8282013,0.019943237,0.16281128,-0.12884521,1375.0,6.959486,0.30573905,6.902353,-0.12264252,-0.22798485,0.10644579,0.38447258,0.016087051,0.9229942,2017-03-27 08:43:06,63.64541673282331
6.988144,0.14605713,6.90123,2.4414063E-4,0.015808105,0.016021729,1191.0,6.9227247,0.08574293,6.945424,0.08520794,0.060559295,-0.024341106,-0.38187394,-0.00736394,-0.9241631,2017-03-27 08:43:07,64.88844640901766
6.8756104,0.10296631,7.052063,-0.0013580322,-0.014556885,-4.8828125E-4,638.0,6.853916,0.10634379,7.0130534,0.036928177,-0.0031411052,0.054597378,0.37737498,0.004683864,0.9260442,2017-03-27 08:43:08,64.88691783993535
6.8732147,0.0921936,7.0472717,-8.239746E-4,9.0026855E-4,0.0011138916,697.0,6.8788924,0.10141633,6.988629,0.020685673,-0.0067207515,0.039634228,0.3790498,5.648857E-4,0.9252948,2017-03-27 08:43:09,64.40496217366443
8.887939,0.70869446,7.7463837,-0.5217438,-0.63186646,-0.32113647,801.0,7.207151,0.59930974,6.6233063,1.6925497,0.11036271,1.1338859,0.40285277,0.0038723599,0.9127954,2017-03-27 08:43:10,65.95154147924738
6.810959,3.2154236,6.6270905,0.112091064,0.47973633,-0.07292175,380.0,6.5663295,2.8149683,6.717861,0.005030632,0.21706247,-0.17730856,0.3918045,0.094334014,0.9036798,2017-03-27 08:43:11,67.13212276983774
7.707596,1.95607,5.5868073,-0.27833557,0.053619385,0.1465149,526.0,7.987921,1.82335,5.3887744,-0.29838562,0.1285975,0.18584919,0.4730119,0.038841773,0.8712795,2017-03-27 08:43:12,65.57054158048858
6.3632507,0.252594,7.7894745,-0.4482422,-0.18658447,-0.11766052,518.0,6.2675,0.5661432,7.521191,-0.25198555,0.22042793,2.1278915,0.34102827,-0.015023334,0.93149304,2017-03-27 08:43:13,64.35423424844406
7.696823,-1.0450592,6.499008,-0.3156128,-0.13705444,0.40431213,4363.0,7.186888,-1.0849789,6.5834527,0.5065675,0.040428042,-0.08752918,0.39567944,-0.088176675,0.9119434,2017-03-27 08:43:14,64.96083645964069
6.6266174,-0.8140106,6.64505,0.021011353,0.039245605,0.11242676,3959.0,6.8073845,-0.7099705,7.023236,-0.16728878,-0.16127431,-0.35291815,0.37167415,-0.06256013,0.92392105,2017-03-27 08:43:15,65.97709632179993
6.8253326,-1.2629242,7.5644226,0.050842285,-0.06088257,0.17474365,3737.0,6.4691973,-1.181773,7.27484,0.37634993,-0.08484399,0.31231546,0.34941605,-0.08363517,0.9318545,2017-03-27 08:43:16,66.61331943291157
6.7020264,-1.1528015,6.945526,0.0066223145,-0.019882202,0.013366699,3355.0,6.7155867,-1.210392,7.043169,0.108869076,-0.03373909,0.041418076,0.36469802,-0.08884633,0.92517376,2017-03-27 08:43:17,65.26525766056965
6.2471313,-1.3790436,7.7248383,-0.099365234,0.07014465,-0.0031433105,3871.0,6.3372445,-1.366159,7.3582153,-0.21186161,0.048678875,0.2546544,0.3399322,-0.09634074,0.93359643,2017-03-27 08:43:18,66.83046841561746
6.3381042,-1.4568634,7.2639465,-0.002960205,9.0026855E-4,-4.8828125E-4,3857.0,6.236977,-1.4715817,7.4232707,0.124622345,0.009174824,-0.13136005,0.33332747,-0.102035865,0.9352729,2017-03-27 08:43:19,66.80191678426671
6.4015503,-1.5011597,7.5919495,-0.017868042,0.034454346,0.0011138916,3883.0,6.1085773,-1.4552332,7.53246,0.31790543,-0.051866055,0.090233326,0.32506704,-0.10140415,0.9380327,2017-03-27 08:43:20,64.99430428390657
6.036438,-1.3287659,7.427948,-0.006149292,3.6621094E-4,-0.0074157715,3880.0,6.0376143,-1.4358244,7.5931554,-0.08492088,-0.032778263,0.15344238,0.32071906,-0.09998049,0.93966,2017-03-27 08:43:21,63.980155305299824
5.964615,-1.474823,7.673355,-0.01574707,0.0099487305,0.007507324,3981.0,6.0542464,-1.4323996,7.5805492,-0.05900669,-0.049669147,0.13115168,0.32140872,-0.10097528,0.93909675,2017-03-27 08:43:22,68.13819053317361
5.9550323,-1.5203094,7.8481293,-0.038116455,-0.026260376,0.026672363,3934.0,6.017556,-1.4502399,7.6063266,-0.06584549,0.20390749,-0.19854784,0.31995702,-0.100046724,0.93975943,2017-03-27 08:43:24,69.10330442300163
6.0220795,-1.3910217,7.546463,-8.239746E-4,-0.014022827,-0.0058135986,3922.0,6.0445204,-1.4596995,7.583102,0.017717838,0.05897987,0.013741016,0.320739,-0.10244943,0.9391562,2017-03-27 08:43:24,65.48946880593594
6.151367,-1.5179138,7.657791,0.01461792,0.0040893555,0.03413391,4228.0,6.0082088,-1.5020998,7.6036506,0.16501904,0.18043017,-0.12800503,0.3187381,-0.10357473,0.93991166,2017-03-27 08:43:26,64.7827357855968
5.9945374,-1.6160736,7.4842224,0.012481689,0.031784058,-0.046829224,3273.0,5.9693055,-1.6478187,7.6041083,0.060071945,0.02212751,-0.0755043,0.316744,-0.1094148,0.94029444,2017-03-27 08:43:26,66.05903474590355
5.661743,-1.756134,7.352539,0.07853699,0.017944336,-0.08570862,4009.0,5.9304686,-1.6436355,7.6353383,-0.88058805,0.1911695,-0.36944008,0.31417176,-0.10955454,0.9410226,2017-03-27 08:43:28,67.60116812057376
6.55838,-1.8830261,7.8840485,-0.044509888,0.021133423,0.05757141,3351.0,5.8298655,-1.669537,7.706861,0.06500101,-0.22676873,-0.14816904,0.30818236,-0.109923095,0.9430386,2017-03-27 08:43:29,63.05450276074823
5.6509705,-1.6340332,7.857712,-0.01574707,-0.023605347,5.79834E-4,3745.0,5.8226166,-1.6778694,7.7105308,-0.13248825,0.03255236,0.19903517,0.30724144,-0.111691825,0.9428628,2017-03-27 08:43:30,65.83638466890616
6.131012,-1.7525482,7.539276,0.020477295,-0.0033721924,0.0059051514,4275.0,5.8033237,-1.7112476,7.7177362,0.36691093,-0.05286634,-0.1262989,0.3061695,-0.11298321,0.94314224,2017-03-27 08:43:31,64.6741651019028
5.6270294,-1.5789642,7.7092743,0.02420044,0.0014343262,0.042663574,4299.0,5.7627997,-1.6773398,7.7554536,0.30809498,-0.053308487,-0.20958853,0.30379367,-0.110866256,0.94416225,2017-03-27 08:43:32,65.40354259845427
5.391205,-1.7908478,7.2280426,-0.011474609,0.023269653,-0.02178955,4801.0,5.721372,-1.7696729,7.7656,-0.28654957,-0.0346663,-0.47835588,0.30161336,-0.11442889,0.94468236,2017-03-27 08:43:33,66.29360914103461
9.848007,0.90740967,3.5385742,-0.09085083,-1.2262878,0.18539429,5584.0,7.401363,-0.28201288,6.4273386,-2.7662659,-0.13894188,0.24964476,0.40168464,-0.104625,0.88850033,2017-03-27 08:43:34,64.8445485036006
6.9522247,-0.36151123,6.7659607,0.005569458,0.022201538,-0.027648926,6240.0,6.980003,-0.3765106,6.878094,0.0062832832,0.013162047,-0.078568935,0.3660749,-0.1237092,0.888418,2017-03-27 08:43:35,65.43985565353833
6.8133545,-0.31602478,6.976639,0.017288208,-0.009216309,-0.021255493,6084.0,6.79693,-0.29589477,7.062902,0.049670696,-0.021577358,-0.05171585,0.34755963,-0.13909695,0.87573874,2017-03-27 08:43:36,65.55784030969507
6.4183197,-0.20349121,7.324997,2.4414063E-4,0.12286377,-0.0074157715,5426.0,6.402507,-0.16878213,7.426292,0.048929214,-0.035582095,-0.06288338,0.32157445,-0.13399392,0.87444746,2017-03-27 08:43:37,68.14199564131965
7.0013123,-0.5925598,6.661804,0.07267761,-0.00869751,0.06556702,6389.0,6.8963733,-0.5386667,6.951278,0.117860794,-0.08070481,-0.22191477,0.34311798,-0.16689369,0.8601925,2017-03-27 08:43:38,67.26811383237005
7.142563,-0.5338898,6.601959,0.00982666,0.08718872,-0.04257202,6644.0,7.331551,-0.43545422,6.4983935,-0.14843369,-0.100844264,0.13951159,0.37212485,-0.17377351,0.8475531,2017-03-27 08:43:39,67.15024772861705
7.5172577,-0.33158875,6.119522,-0.06474304,-0.05555725,-0.01966858,6804.0,7.36377,-0.4221874,6.4627423,-0.2031889,0.09072599,0.21822023,0.3738735,-0.17524402,0.84544915,2017-03-27 08:43:40,65.75465141588641
7.538803,-0.5362854,6.3936615,0.0066223145,-0.0028381348,0.007507324,7355.0,7.363503,-0.517687,6.456099,0.19191551,-0.17399353,-0.107964516,0.3719942,-0.18014131,0.8453645,2017-03-27 08:43:41,65.29369495615467
6.997711,-0.38905334,6.5373077,-0.01361084,-0.009750366,-0.009536743,7225.0,7.334626,-0.4312873,6.4952006,-0.2940426,0.039712936,0.08007336,0.3700836,-0.17853585,0.8429618,2017-03-27 08:43:42,66.52872035975538
7.4262695,-0.68711853,6.4966125,0.022079468,0.054153442,0.02508545,7484.0,7.317912,-0.5566011,6.504517,0.14846516,-0.13356799,0.027745724,0.36712274,-0.18325618,0.8444761,2017-03-27 08:43:43,64.8151802149984
7.194046,-0.41897583,6.4690704,0.057235718,0.008346558,-0.05001831,7424.0,7.3674197,-0.4279231,6.4582047,-0.12785625,0.006303519,0.050765514,0.37160286,-0.18065028,0.84070605,2017-03-27 08:43:44,65.42979174325592
7.54599,-0.5255127,6.6163177,0.011428833,0.011016846,0.018157959,7245.0,7.346684,-0.40034723,6.4835434,0.23866129,-0.12731007,0.16750574,0.3701183,-0.18012144,0.839953,2017-03-27 08:43:45,65.86576978803903
7.269455,-0.43933105,6.48703,0.02420044,0.007827759,-0.006881714,7345.0,7.3283315,-0.4634255,6.5000906,0.08408737,-0.05182743,-0.10634422,0.36747664,-0.18316257,0.84010977,2017-03-27 08:43:46,65.6416754458306
7.344879,-0.44889832,6.431961,0.007156372,0.0051574707,0.006439209,7301.0,7.3321075,-0.42735115,6.498304,0.05532217,-0.024027199,-0.028631687,0.3680507,-0.18225639,0.83923346,2017-03-27 08:43:47,66.21954001366622
7.3855743,-0.45129395,6.4499207,0.009292603,-0.016677856,0.026672363,7330.0,7.338034,-0.46129355,6.4892883,0.11156988,-0.02431196,-0.05920601,0.36807,-0.18347445,0.83968693,2017-03-27 08:43:48,64.40348136847912
7.380783,-0.40341187,6.561249,-0.021072388,0.007827759,-0.004211426,7302.0,7.3456783,-0.42735228,6.4829593,0.049990654,0.023074389,0.09142685,0.36850482,-0.18348093,0.83802295,2017-03-27 08:43:49,64.94007797555983
7.4933167,-0.6296692,6.5157623,0.039123535,0.0051574707,-0.0031433105,7445.0,7.3549795,-0.51352537,6.4661384,0.15620422,-0.08844966,0.07580376,0.3684146,-0.18693513,0.84022486,2017-03-27 08:43:50,65.10900403776333
7.36882,0.95410156,6.0297394,0.046035767,-0.2355957,0.014953613,3600.0,7.0306625,0.6842097,6.8023543,0.36338425,0.27234685,-0.74820757,0.37498927,-0.11206918,0.8520281,2017-03-27 08:43:51,66.36764543856442
6.2279816,-3.356659,11.669281,-0.016815186,0.317276,1.0168457,5896.0,6.514345,-1.8409544,7.0953918,-0.34505415,-0.47221684,0.8591733,0.31176552,-0.2025783,0.8866309,2017-03-27 08:43:52,65.22268960767623
11.315659,1.197113,6.2523956,0.09877014,-1.5266876,0.9492035,1865.0,8.0567665,0.5029344,5.568298,1.708415,-0.12338346,0.21537495,0.45013893,-0.11606359,0.8419056,2017-03-27 08:43:53,65.49736205604279
7.650131,1.8507233,5.6514587,0.023132324,0.050430298,-0.12991333,1416.0,7.797681,1.7803756,5.6742244,-0.13886261,0.07233119,-0.016444206,0.45521137,-0.058971837,0.83355427,2017-03-27 08:43:54,65.94599937245476
7.6621094,1.9488983,5.8753204,-0.027999878,0.03552246,0.010696411,1177.0,7.7421093,1.8787374,5.718433,-0.07729578,0.07081711,0.158885,0.4550998,-0.036403827,0.84512126,2017-03-27 08:43:55,65.17859459736358
7.6309814,1.786087,5.8250275,0.04498291,0.032318115,-0.01966858,1414.0,7.671912,1.7045156,5.8657284,-0.16887903,0.06949949,-0.28218699,0.44676045,-0.03655363,0.8539122,2017-03-27 08:43:56,65.89350980925785
7.841675,1.3563232,6.009384,-0.030654907,-0.012954712,0.029342651,1704.0,7.744637,1.3579328,5.8606324,0.089580536,-0.0029171705,0.14310837,0.44603056,-0.047409635,0.85908514,2017-03-27 08:43:57,65.74227366398705
7.857239,1.2880859,5.9088287,2.4414063E-4,0.0030212402,-0.0063476563,1726.0,7.74281,1.33716,5.8678184,-0.1363697,0.009492397,-0.008516312,0.4458632,-0.045061585,0.86116374,2017-03-27 08:43:58,66.67625746262372
7.7135773,1.327591,5.9040375,-0.0024261475,0.0067596436,0.013366699,1791.0,7.7431808,1.2685729,5.8825393,-0.036153316,0.057945013,0.016522408,0.44500878,-0.04517937,0.8635,2017-03-27 08:43:59,66.10660760177853
7.8799744,1.2258453,5.893265,0.011947632,0.0056915283,-0.02178955,1837.0,7.767926,1.2136215,5.861471,-0.1799326,0.07702851,-0.07114124,0.44604784,-0.046791885,0.86385906,2017-03-27 08:44:00,65.88367583926907
7.834488,1.1935272,5.881302,0.0034332275,-0.0028381348,0.0016479492,1865.0,7.7653112,1.1836586,5.8710546,0.064875126,0.0092128515,0.0069947243,0.44532946,-0.04838602,0.86412567,2017-03-27 08:44:01,64.89337008582271
7.3424835,1.2557678,5.7579956,0.008758545,0.039779663,-0.03829956,1971.0,7.7325816,1.0807345,5.9337664,-0.12429619,0.094620585,0.16781902,0.441708,-0.048540425,0.8683668,2017-03-27 08:44:02,67.07967966612118
7.6537323,1.0654297,5.8789063,0.0066223145,0.0014343262,0.0027160645,2153.0,7.789933,0.96533227,5.87839,-0.122900486,0.101745546,0.010552883,0.44433206,-0.053428065,0.86800283,2017-03-27 08:44:03,65.0598970498436
7.8608246,1.0570526,5.787918,0.01675415,-0.0076293945,0.04798889,2039.0,7.7958784,1.0535412,5.8553147,0.0756135,0.004953146,-0.059384346,0.44644007,-0.046403576,0.86844176,2017-03-27 08:44:04,65.85238454867392
7.6118317,1.1061401,5.831024,-0.0034942627,3.6621094E-4,0.0053710938,2101.0,7.7938156,0.9941999,5.868423,-0.17314243,0.113068104,-0.030741692,0.44546354,-0.04853784,0.86932635,2017-03-27 08:44:05,64.9990375447693
7.593872,1.1659851,5.67659,0.008758545,0.01473999,0.003768921,2013.0,7.7636766,1.030794,5.9019628,-0.1595974,0.13654637,-0.21761322,0.44393468,-0.04478438,0.87085134,2017-03-27 08:44:06,66.10639419344832
7.760269,0.9696655,5.7771454,-0.006149292,-0.0060272217,0.013900757,2053.0,7.784629,0.9941926,5.8806047,0.085361004,-0.021910429,0.07397461,0.44519532,-0.04442671,0.87149066,2017-03-27 08:44:07,65.78006946018502
7.8727875,0.93614197,5.8836975,-0.009887695,0.006225586,0.026672363,2123.0,7.78471,0.93685,5.889907,0.09128761,-3.2174587E-4,-0.0037808418,0.4441836,-0.04898248,0.8711193,2017-03-27 08:44:08,65.62690263377606
7.72316,1.0271301,5.786728,-0.010421753,-0.0060272217,0.0032348633,2095.0,7.7933664,0.97652286,5.8719873,0.046331882,-0.018862963,0.12852335,0.44515312,-0.04843315,0.8704057,2017-03-27 08:44:09,65.1695047719394
7.8045654,0.9481201,5.8693237,-0.0040283203,-7.019043E-4,0.016555786,2128.0,7.799415,0.9495728,5.868375,0.018249512,1.4215708E-4,0.01080513,0.44538134,-0.049311373,0.87014973,2017-03-27 08:44:10,66.20161131957117
7.744705,0.94451904,5.8405914,0.0066223145,9.0026855E-4,-0.0026245117,2154.0,7.808045,0.93439853,5.8593287,-0.008897781,-0.0010139346,0.0029354095,0.44593468,-0.048986387,0.8704902,2017-03-27 08:44:11,66.47052122367147
7.8368835,0.9086151,5.851364,-0.012008667,0.01953125,0.011764526,2179.0,7.810039,0.91021717,5.860476,0.036431313,-4.8482418E-4,-0.0019183159,0.44570556,-0.050452366,0.8704774,2017-03-27 08:44:12,66.79510068052272
7.660904,0.86431885,5.7579956,0.013015747,-0.0023040771,-0.03404236,2318.0,7.794032,0.82388973,5.8944607,0.08373451,-0.052363276,0.10573912,0.4435017,-0.052653573,0.87247443,2017-03-27 08:44:13,65.68653321613428
7.8285065,0.8691101,5.901642,-0.0050964355,0.0019683838,0.0021820068,2198.0,7.8061833,0.9087925,5.8658314,0.012618065,-0.04760754,0.003417015,0.44558495,-0.048783846,0.87138844,2017-03-27 08:44:14,66.3352552415315
7.8141327,0.9169922,5.9315796,-0.007217407,-0.008163452,0.009094238,2224.0,7.811746,0.88461244,5.862122,-6.47068E-4,0.032036245,0.06718159,0.44566065,-0.050015602,0.8713699,2017-03-27 08:44:15,65.94607969647294
7.8680115,0.79608154,5.9471436,-0.026397705,-0.004425049,0.026138306,2262.0,7.819226,0.83039623,5.8600807,0.055252552,-0.033627987,0.09190941,0.44544116,-0.052926634,0.8714035,2017-03-27 08:44:17,65.96289872757295
7.78421,0.841568,5.8118744,-0.002960205,9.0026855E-4,-0.009002686,2261.0,7.827573,0.8447866,5.8468647,-0.055590153,0.047806203,0.019252777,0.44605535,-0.054106336,0.8702043,2017-03-27 08:44:18,65.61901071287002
7.818924,0.8200226,5.7568054,-0.0066833496,0.0024871826,0.008041382,2310.0,7.8423476,0.7990478,5.83348,-0.017155647,0.021613419,-0.07201195,0.44672266,-0.05490146,0.8707117,2017-03-27 08:44:19,64.93979771837117
7.7411194,0.8080597,5.7568054,0.0050354004,-0.0033721924,0.0011138916,2332.0,7.834694,0.8078698,5.8425417,0.04685211,-0.023314714,0.006049156,0.4461374,-0.055449724,0.87044907,2017-03-27 08:44:20,65.37234227008084
7.870407,0.8152313,5.858551,-0.022659302,-0.016143799,0.027740479,2297.0,7.8353863,0.80966836,5.841365,0.050671577,0.007180214,0.02885437,0.44628763,-0.054777935,0.87067735,2017-03-27 08:44:21,65.78275135604461
7.7746277,0.8104553,5.7819366,0.008224487,-0.0033721924,0.0032348633,2310.0,7.826009,0.81117624,5.853714,0.031231403,0.060454607,-0.0014467239,0.44588658,-0.052238118,0.8720449,2017-03-27 08:44:22,66.48642492614277
7.8296967,0.7805176,5.8753204,0.008224487,0.007293701,-0.0031433105,2306.0,7.8227777,0.7973219,5.8599324,0.0024604797,-0.017258704,0.012048721,0.44549593,-0.052535295,0.872403,2017-03-27 08:44:23,65.47471653324385
7.767456,0.836792,5.89447,0.007156372,-0.014556885,-0.0047454834,2312.0,7.7799783,0.8027612,5.915903,-0.019272804,0.0045080185,-0.039919853,0.44237885,-0.05170931,0.87391627,2017-03-27 08:44:24,66.37422330929319
7.8536377,0.7709503,5.9794617,-0.00881958,0.0019683838,0.0032348633,2262.0,7.781728,0.8141153,5.912049,0.07393408,-0.042953193,0.06895113,0.44245276,-0.052961905,0.8729853,2017-03-27 08:44:25,65.91009306299706
7.6956177,0.8272095,6.063263,0.007156372,-0.0012359619,-0.015396118,2242.0,7.6922493,0.8104841,6.0284996,0.007314205,0.017141104,0.037855625,0.43593556,-0.05091426,0.87663513,2017-03-27 08:44:26,66.68468396413202
7.7147827,0.841568,5.936371,0.0076904297,-0.0038909912,0.004837036,2195.0,7.7149816,0.83170426,5.9964747,0.0034885406,0.010261238,-0.057237625,0.4377854,-0.051076602,0.87529457,2017-03-27 08:44:27,64.95497338322099
7.772232,0.718277,5.949539,-0.009353638,-0.017211914,0.008041382,2318.0,7.7242494,0.763859,5.9935703,0.05952072,-0.044440985,-0.035078526,0.43763793,-0.05372174,0.87577194,2017-03-27 08:44:28,65.5695007011588
7.7830048,0.7434082,5.972275,-0.01361084,-0.00869751,0.0053710938,2268.0,7.736851,0.78479576,5.9745812,0.0010471344,-0.007938147,0.02307558,0.4389371,-0.052109193,0.87553114,2017-03-27 08:44:29,65.0822153010512
7.64534,0.762558,5.882492,0.01675415,-0.009216309,-0.0074157715,2311.0,7.732894,0.75529313,5.9834995,-0.07546377,0.008445799,-0.09165192,0.43842188,-0.052083325,0.8764844,2017-03-27 08:44:30,65.4674777406743
7.9350433,0.6811676,6.0931854,-0.031723022,-0.02520752,0.042129517,2219.0,7.7608294,0.8033226,5.9409256,-0.065665245,0.09800899,0.013455391,0.44086894,-0.052265637,0.8742273,2017-03-27 08:44:31,66.52330586354184
7.8452606,0.73023987,5.93277,0.006088257,-0.022003174,0.0069732666,2297.0,7.785185,0.7590628,5.9148197,0.053039074,-0.029509008,0.01260376,0.44205078,-0.05494729,0.8735579,2017-03-27 08:44:32,67.74263596192613
7.851242,0.7901001,6.028549,-0.026397705,-0.012954712,0.042129517,2260.0,7.8002987,0.7836957,5.8916507,0.12948036,0.042380333,-0.05889511,0.44351745,-0.053867273,0.87288725,2017-03-27 08:44:33,65.54731926240659
7.6226044,0.75538635,5.8800964,0.014083862,-0.0049591064,-0.022323608,2325.0,7.775385,0.7628856,5.9272065,-0.14691114,-0.006923318,-0.04263544,0.4413816,-0.054578703,0.8739075,2017-03-27 08:44:34,66.61539238768843
7.873993,0.8379822,5.822647,0.004501343,-0.015609741,0.013900757,2251.0,7.7976775,0.79880697,5.8930917,0.08036375,0.03966111,-0.06197071,0.44357327,-0.05436074,0.8722342,2017-03-27 08:44:35,66.39266292035494
7.80336,0.7350311,5.803482,0.018341064,0.013153076,-0.006881714,2286.0,7.795058,0.78493184,5.898419,0.00454998,-0.050278544,-0.097775936,0.44313955,-0.053774413,0.87305194,2017-03-27 08:44:36,65.93745839536143
7.866806,0.7805176,6.015381,-0.017333984,-0.01828003,0.014953613,2262.0,7.793045,0.80402344,5.898507,0.08118296,-0.022740185,0.12249088,0.44328856,-0.052488957,0.87314236,2017-03-27 08:44:37,66.23336683853367
7.6932373,0.74938965,5.8202515,0.007156372,0.0035552979,-0.006881714,2393.0,7.7865105,0.72088325,5.9178514,-0.08883762,0.028917074,-0.094228745,0.44153172,-0.057647854,0.87338907,2017-03-27 08:44:38,67.14156360257392
7.8536377,0.77812195,5.9267883,-8.239746E-4,-0.009750366,-0.0015563965,2326.0,7.796784,0.7636509,5.8989305,-0.040668964,-0.009437621,0.024763107,0.44276485,-0.055806458,0.87277365,2017-03-27 08:44:39,64.36980162039772
7.586685,0.821228,5.7663727,0.013549805,0.0099487305,-0.019134521,2306.0,7.782455,0.78448004,5.915097,-0.19260454,0.037067056,-0.14631891,0.44210958,-0.054342337,0.8731906,2017-03-27 08:44:40,66.44248796828455
7.727951,0.87150574,5.7998962,0.017807007,-0.0023040771,0.0011138916,2297.0,7.794396,0.77046806,5.9011993,0.05425501,0.04103279,-0.086108685,0.4430856,-0.052893404,0.8738638,2017-03-27 08:44:41,65.13953559682494
7.7506866,0.73384094,5.850174,0.011428833,0.0035552979,-0.010604858,2325.0,7.7916083,0.73483557,5.9094195,-0.03416872,-3.5774708E-4,-0.054124355,0.44249886,-0.053835016,0.8745231,2017-03-27 08:44:42,66.17068529475135
7.8440704,0.73861694,5.83342,-0.010421753,-0.008163452,0.012832642,2303.0,7.799239,0.73942,5.898772,0.017370224,-0.031172097,0.12142372,0.4431282,-0.053700484,0.87422264,2017-03-27 08:44:43,64.82131928371784
7.569931,0.66799927,5.848984,0.015686035,0.0040893555,-0.023391724,2469.0,7.7739897,0.65075004,5.9423904,-0.20936489,0.016805053,-0.097462654,0.44025847,-0.056523483,0.8761786,2017-03-27 08:44:44,66.49226606177179
7.818924,0.8128357,5.9267883,0.0034332275,-0.0060272217,-0.0036773682,2271.0,7.7856426,0.7718659,5.912561,-0.012315273,0.009728193,-0.0071148872,0.44255233,-0.051872205,0.87453467,2017-03-27 08:44:45,65.3706288230258
7.8775787,0.68714905,5.9076385,-0.010421753,0.0030212402,0.018692017,2342.0,7.791809,0.73329765,5.9093466,0.08233118,-0.04647219,-0.004315853,0.44245958,-0.054191243,0.87440515,2017-03-27 08:44:46,66.32766932002211
7.835678,0.6667938,6.015381,-0.021072388,-0.008163452,0.0059051514,2307.0,7.796311,0.7364237,5.9030166,0.044736385,-0.06602007,0.11798906,0.44299284,-0.053205993,0.8746602,2017-03-27 08:44:47,66.2541002681203
7.6776733,0.7362213,5.8214417,-0.014678955,-0.0012359619,0.006439209,2325.0,7.7869782,0.7472099,5.913969,-0.092119694,-0.009339571,-0.07947588,0.44238052,-0.052640017,0.8748404,2017-03-27 08:44:48,65.03376674788774
7.902725,0.66799927,6.0261536,0.009292603,-0.010818481,0.004837036,2330.0,7.7931094,0.74192244,5.9065537,0.12610245,-0.0723536,0.13209534,0.4426549,-0.05390922,0.87425065,2017-03-27 08:44:49,65.51033768520449
7.6237946,0.7757263,5.7101135,0.023132324,0.016342163,-0.015396118,2279.0,7.7835436,0.7874441,5.913271,-0.1585908,-0.011600673,-0.20227766,0.4426701,-0.050500218,0.87476087,2017-03-27 08:44:50,65.99842041651124
7.8009644,0.83558655,5.944748,0.017807007,0.0051574707,-0.012207031,2299.0,7.791983,0.77226734,5.90415,-0.08644581,0.07699585,-0.0883894,0.44307715,-0.051524453,0.8744802,2017-03-27 08:44:51,66.63578338982768
7.7650604,0.69911194,5.8238373,0.018875122,0.0040893555,-0.004211426,2353.0,7.800005,0.7467245,5.8968396,-0.020764828,-0.04625511,-0.062282562,0.44322756,-0.053797837,0.87395656,2017-03-27 08:44:52,64.22872854049797
7.8213196,0.74461365,5.975876,0.003967285,-0.005493164,0.009094238,2315.0,7.7928686,0.7742546,5.902721,0.043421745,-0.018942535,-0.051110268,0.44307816,-0.05221817,0.8740988,2017-03-27 08:44:53,65.50556169996491
7.731537,0.6703949,5.83461,0.008224487,0.0014343262,-0.004211426,2371.0,7.784083,0.7392534,5.918779,-0.0604043,-0.069604814,-0.09014416,0.4418358,-0.054839667,0.87419206,2017-03-27 08:44:54,64.45609690049656
7.82251,0.8152313,5.8250275,0.018341064,-0.0023040771,0.003768921,2350.0,7.78286,0.7374571,5.920612,0.03886938,0.07770026,-0.096178055,0.44145805,-0.056987844,0.87332636,2017-03-27 08:44:55,67.24460084057256
7.7255554,0.7924957,5.8238373,0.003967285,0.018478394,0.004837036,2330.0,7.775972,0.7557189,5.9273543,-0.035578728,0.038218856,-0.09220648,0.4413193,-0.055011947,0.8738991,2017-03-27 08:44:56,67.5066252528516
7.7925873,0.6931305,6.1243134,0.0034332275,-0.011352539,-0.0015563965,2337.0,7.739259,0.7678231,5.9736676,-0.0058918,0.05309075,-0.07498169,0.4390487,-0.051613484,0.87615365,2017-03-27 08:44:57,64.94586306855336
7.443039,0.6416626,6.214096,0.06361389,-0.024139404,0.02027893,2627.0,7.687869,0.6593875,6.0524597,-0.24151516,-0.017440617,0.16424608,0.43337303,-0.059985418,0.87692976,2017-03-27 08:44:58,66.45497970743526
7.729141,0.83917236,5.91362,-0.0018920898,-0.0033721924,-4.8828125E-4,2264.0,7.7347856,0.7941342,5.976022,-0.010522842,0.044061124,-0.048830032,0.43957102,-0.051405832,0.8753582,2017-03-27 08:44:59,64.79573502710144
7.6872406,0.80566406,5.802292,0.033798218,0.0067596436,-0.006881714,2254.0,7.73827,0.8021047,5.9704437,-0.036417484,0.005073905,-0.156878,0.43919703,-0.051942747,0.87507325,2017-03-27 08:45:00,66.8514022369206
7.7494965,0.7362213,5.9279785,0.004501343,-0.010818481,-4.8828125E-4,2339.0,7.7416477,0.74954945,5.9728937,0.010579586,-0.013063788,-0.042808533,0.43861106,-0.055565532,0.87483984,2017-03-27 08:45:01,66.05707830093844
7.7195587,0.7314453,5.9232025,0.0066223145,0.0019683838,-4.8828125E-4,2283.0,7.74472,0.7730494,5.9659114,-0.026340485,-0.04172182,-0.04361725,0.439259,-0.05361634,0.8749592,2017-03-27 08:45:02,66.38828867061781
7.7782288,0.7649536,6.0105896,0.0023651123,-0.00869751,0.0101623535,2292.0,7.7312393,0.78228873,5.9821687,0.036570072,0.020416796,-0.013357639,0.43893534,-0.04827037,0.87744004,2017-03-27 08:45:03,66.99828342057751
7.6142273,0.76734924,5.8370056,0.010894775,0.012084961,-0.009536743,2267.0,7.7393217,0.79260284,5.9703484,-0.14109659,-0.026892424,-0.14568758,0.43926632,-0.051400848,0.8755524,2017-03-27 08:45:04,66.6427012787039
7.80336,0.77453613,6.0931854,-0.0050964355,-0.007095337,-0.0074157715,2299.0,7.741658,0.7778139,5.969265,0.061664104,-0.0032815933,0.12389135,0.4393359,-0.053247385,0.8748485,2017-03-27 08:45:05,64.7626670218585
7.692032,0.7290497,5.945938,-0.002960205,9.0026855E-4,0.0059051514,2363.0,7.743126,0.73176384,5.973183,-0.03966999,-0.0016345382,-0.018432617,0.43858767,-0.05561742,0.8752757,2017-03-27 08:45:06,65.11357537275674
7.755478,0.7697449,6.083603,0.0012969971,-0.0033721924,4.5776367E-5,2276.0,7.7362876,0.7892013,5.974731,0.0024204254,-0.026033223,-0.019382477,0.4389183,-0.0521944,0.87538534,2017-03-27 08:45:08,66.63812076067855
7.54718,0.802063,5.798706,0.003967285,0.01687622,0.003768921,2301.0,7.7287073,0.74778533,5.9898496,-0.18253326,0.054180324,-0.19192362,0.43792707,-0.053127896,0.8763574,2017-03-27 08:45:08,65.77871550236073
7.810547,0.8200226,5.975876,0.011428833,-0.0060272217,-0.006881714,2292.0,7.729327,0.77214247,5.985957,-0.047793865,-0.018292427,0.0052981377,0.43823317,-0.05246741,0.8759498,2017-03-27 08:45:10,66.2155376831637
7.6860504,0.7757263,5.9555206,-0.012008667,0.006225586,0.006439209,2272.0,7.7439833,0.7819257,5.96571,-0.05070734,-0.005469799,-0.0046229362,0.43949267,-0.051765036,0.8755533,2017-03-27 08:45:10,66.6541494672615
7.7387238,0.8104553,6.0764313,0.013549805,-0.0049591064,0.0059051514,2238.0,7.741272,0.79951423,5.9668984,0.056786537,-0.037828863,-0.1011858,0.43944415,-0.05159159,0.875215,2017-03-27 08:45:12,66.85912054134326
7.665695,0.81762695,5.85376,-0.016815186,-0.00869751,0.012298584,2231.0,7.7370224,0.7946681,5.9730544,0.07131815,-0.040713847,0.14715958,0.43911415,-0.05135907,0.87558067,2017-03-27 08:45:13,65.41928670616011
7.6860504,0.8331909,5.945938,0.017807007,-0.008163452,-0.009536743,2225.0,7.7187657,0.80177236,5.9956827,-0.028442383,0.031862378,-0.04642582,0.43776393,-0.05165283,0.8757837,2017-03-27 08:45:14,65.45245682187166
7.498108,0.83200073,5.8286285,0.008758545,0.007293701,-0.011138916,2208.0,7.730262,0.8091308,5.979861,-0.23353434,0.022725463,-0.15229988,0.43880826,-0.050589036,0.8757132,2017-03-27 08:45:15,66.52289931940335
7.8045654,0.7757263,6.102768,0.023132324,0.0051574707,0.017623901,2270.0,7.7152877,0.7419187,6.007851,0.05557251,0.0067240596,-0.17444277,0.43658024,-0.055520456,0.8758428,2017-03-27 08:45:16,65.94465602985093
7.763855,0.7326355,5.969879,0.006088257,0.0014343262,-0.0010223389,2214.0,7.7351594,0.7956778,5.9753313,0.026385784,-0.06327993,-0.0072369576,0.4388936,-0.052108448,0.8752732,2017-03-27 08:45:17,67.27470049185256
7.7806244,0.7601776,6.099167,0.004501343,0.006225586,0.008575439,2255.0,7.7511883,0.777119,5.956975,0.04197502,-0.04885143,-0.07089567,0.43976814,-0.053691573,0.87461954,2017-03-27 08:45:18,65.62228333839292
7.54599,0.8774872,5.827423,0.0289917,-7.019043E-4,-0.008483887,2153.0,7.744453,0.85704607,5.954772,-0.20854759,0.019325078,-0.13510275,0.44021675,-0.050993465,0.87373847,2017-03-27 08:45:19,66.56361084058197
7.8141327,0.86550903,6.032135,-0.014144897,-0.005493164,0.003768921,2144.0,7.7726545,0.85455334,5.9182754,-0.001947403,-0.01421237,0.07410002,0.44212723,-0.05268291,0.87221044,2017-03-27 08:45:20,65.25117266388659
7.7770233,0.7936859,5.8920746,0.022079468,0.0019683838,-0.0031433105,2198.0,7.75649,0.824991,5.943622,0.013295174,-0.032074988,-0.057094097,0.44077936,-0.051702738,0.8739896,2017-03-27 08:45:21,64.72199183295886
7.86322,0.7613678,6.088394,-0.024795532,-0.0065612793,0.0069732666,2199.0,7.7627964,0.8176244,5.9364014,-0.048980713,-0.013140619,0.105498314,0.441176,-0.051879577,0.873934,2017-03-27 08:45:22,66.9933989254512
7.56514,0.8307953,5.8094788,0.017807007,0.0051574707,-0.021255493,2202.0,7.7467923,0.82146883,5.956743,-0.18640614,0.0088223815,-0.15091944,0.44006535,-0.05131402,0.8745514,2017-03-27 08:45:23,65.06281872567472
7.8847656,0.8487549,6.033325,0.046035767,0.007827759,-0.030319214,2226.0,7.7683115,0.82003117,5.92885,-0.2653327,0.15027583,-0.31465387,0.4416029,-0.051958084,0.873666,2017-03-27 08:45:24,66.64783588603899
7.6549225,0.7613678,5.9088287,0.011947632,0.007827759,-0.016998291,2259.0,7.7524276,0.7830611,5.9545836,-0.09862709,-0.021806598,-0.046616554,0.4401061,-0.05203229,0.87515265,2017-03-27 08:45:25,65.6144136523529
7.7854004,0.79608154,6.0919952,-0.002960205,-0.0049591064,0.0032348633,2211.0,7.7631598,0.79697204,5.938735,0.02466774,-0.0547508,0.03116846,0.4411265,-0.051148787,0.8748308,2017-03-27 08:45:26,66.69592999876446
7.64534,0.7757263,5.8370056,-2.89917E-4,0.0035552979,5.79834E-4,2257.0,7.7489576,0.7873431,5.9585347,-0.088051796,-0.010035217,-0.10956001,0.43963864,-0.054010734,0.8742503,2017-03-27 08:45:27,66.21491622332938
7.672882,0.8595276,5.8872833,0.00982666,9.0026855E-4,-0.008483887,2217.0,7.7663164,0.8158,5.932047,-0.08563423,0.041175127,-0.039406776,0.44133234,-0.052581113,0.873487,2017-03-27 08:45:28,66.4147593106052
7.708786,0.7793274,5.921997,-0.0050964355,0.0019683838,0.013900757,2224.0,7.750956,0.7954735,5.9548554,-0.04118824,-0.016045392,-0.032104492,0.43995273,-0.053183656,0.874332,2017-03-27 08:45:29,66.07313468401686
7.715973,0.77693176,5.905243,0.005569458,-0.009216309,0.0053710938,2176.0,7.759739,0.8288749,5.938838,-0.030114174,-0.050484896,-0.023147106,0.44087547,-0.053219844,0.8730947,2017-03-27 08:45:30,65.67127667838743
7.1880493,0.91578674,5.953125,0.0076904297,0.013687134,-0.016464233,2229.0,7.7462854,0.8068765,5.9593964,-0.5297618,0.11187619,0.015634537,0.4396109,-0.05382943,0.8738487,2017-03-27 08:45:31,67.11897417738194
7.7806244,0.85713196,6.0776215,0.0289917,3.6621094E-4,-4.8828125E-4,2224.0,7.7303286,0.81225485,5.9793515,-0.0080394745,0.0026281476,-0.16319466,0.4383492,-0.054661814,0.87377137,2017-03-27 08:45:32,75.27150489476178
7.5914764,0.77693176,5.8765106,-2.89917E-4,0.006225586,0.0053710938,2251.0,7.7249794,0.80262333,5.9875593,-0.116384506,-0.023912966,-0.097780704,0.43796584,-0.053901296,0.8745576,2017-03-27 08:45:33,69.95803742858692
7.6357727,0.920578,5.949539,-0.025863647,-0.004425049,0.013900757,2171.0,7.749421,0.83949876,5.950807,-0.22014332,0.11380726,-0.14332199,0.44021612,-0.052943785,0.8732134,2017-03-27 08:45:34,69.3910559266779
7.660904,0.7314453,5.9004517,0.003967285,0.0051574707,0.0027160645,2296.0,7.792082,0.74744785,5.907213,-0.12575197,-0.015482008,-0.0026478767,0.4413692,-0.06331796,0.8698328,2017-03-27 08:45:35,69.55641402956167
8.132568,0.7793274,6.2200775,-0.03225708,-0.0038909912,0.011764526,2266.0,7.7888165,0.78312534,5.9068966,0.046727657,-0.17176181,0.07761097,0.441953,-0.059241906,0.870798,2017-03-27 08:45:36,70.65788171379543
7.6752777,0.6859436,5.8298187,-0.0066833496,0.0056915283,0.0053710938,2272.0,7.7605033,0.77005374,5.945755,-0.09102821,-0.08468592,-0.12038231,0.44015506,-0.055806737,0.8735928,2017-03-27 08:45:37,69.2739164971676
7.5687256,0.82362366,6.288315,-0.04663086,-0.022537231,-0.022857666,2211.0,7.7606015,0.824201,5.9383616,0.016824245,0.03494084,0.05527258,0.44116956,-0.050962966,0.87422067,2017-03-27 08:45:38,70.14884173145188
7.8081512,0.6560211,5.8681335,-0.01574707,-0.005493164,0.010696411,2272.0,7.765073,0.7602105,5.9410534,0.06015587,-0.102517486,-0.05985403,0.440407,-0.055966627,0.87366736,2017-03-27 08:45:39,65.8498970476816
7.787796,0.6919403,6.119522,-8.239746E-4,0.015808105,-0.016998291,2394.0,7.816816,0.6986883,5.8804426,-0.0034918785,-0.0044662952,0.25828362,0.4435287,-0.0588484,0.87256366,2017-03-27 08:45:40,68.46908785003724
7.6740723,0.61891174,5.925598,-0.038116455,-0.023071289,0.028808594,2490.0,7.8611393,0.6554466,5.826085,-0.17177296,-0.035259664,0.11084795,0.44656637,-0.059420697,0.87213075,2017-03-27 08:45:41,65.59461499392361
7.9194794,0.59736633,5.917206,-0.006149292,3.6621094E-4,0.012832642,2498.0,7.85716,0.62826127,5.834442,0.066431046,-0.030566156,0.08581686,0.44627434,-0.058147248,0.87353647,2017-03-27 08:45:42,66.76854816956687
7.8332977,0.584198,5.6754,0.0018310547,0.0040893555,0.0011138916,2514.0,7.872053,0.6277993,5.8143816,-0.017513275,-0.04190719,-0.12329197,0.44722456,-0.059491485,0.87249315,2017-03-27 08:45:43,66.11147243697833
7.8536377,0.5985565,5.704132,0.013015747,-1.6784668E-4,-0.0047454834,2488.0,7.8767686,0.6451574,5.8060894,-0.0068149567,-0.045264482,-0.089930534,0.44780868,-0.058644783,0.8722403,2017-03-27 08:45:44,65.72793468977235
7.8871613,0.57102966,5.8633423,-0.013076782,-0.010284424,0.003768921,2473.0,7.8626695,0.65736973,5.823803,0.029338837,-0.08593488,0.043129444,0.4468964,-0.05789897,0.8726767,2017-03-27 08:45:45,66.68029736714077
7.953003,0.57102966,5.9088287,-0.016281128,0.0019683838,0.020812988,2462.0,7.8767605,0.66238105,5.8041596,0.13439322,-0.08760643,-0.005264759,0.4478743,-0.058981493,0.87164,2017-03-27 08:45:46,65.8297308152802
7.78421,0.66799927,5.762787,0.017288208,0.0040893555,-0.005279541,2461.0,7.8581867,0.6622069,5.829302,-0.05592537,0.00731349,-0.053124905,0.44681442,-0.056081954,0.8734497,2017-03-27 08:45:47,66.63895225608391
7.7698517,0.757782,5.8058777,0.033798218,0.0099487305,-0.022323608,2401.0,7.867047,0.73377055,5.8087473,-0.09822321,0.015264869,-0.096952915,0.44830534,-0.053466294,0.8723591,2017-03-27 08:45:48,66.11728011124326
7.913498,0.63687134,5.886093,-0.009887695,0.0019683838,0.0101623535,2456.0,7.842605,0.6651285,5.8499184,0.073242664,-0.028057933,0.037927628,0.445714,-0.055463802,0.8741224,2017-03-27 08:45:49,67.57845906082306
7.9266663,0.6057434,5.7687683,0.0018310547,-0.0028381348,0.0053710938,2398.0,7.863708,0.6786255,5.819962,-0.07783985,-0.14924937,0.17120123,0.4474824,-0.054991096,0.8732944,2017-03-27 08:45:50,66.8360728278688
6.487747,1.0845795,5.996216,-0.08125305,0.10902405,-0.15707397,2368.0,7.8344955,0.74300873,5.8514094,-1.3311567,0.34304947,0.1564517,0.44586137,-0.053560972,0.8730956,2017-03-27 08:45:51,65.90453819111178
7.9087067,0.5853882,5.985443,0.0076904297,-0.0033721924,0.017089844,2375.0,7.84251,0.68857366,5.847332,-0.10965824,-1.5300512E-4,-0.03305149,0.4460963,-0.053545658,0.87430316,2017-03-27 08:45:52,65.46937553841136
7.8141327,0.6955261,5.848984,0.010360718,0.0099487305,0.0027160645,2371.0,7.8306413,0.685171,5.8636155,-0.0046429634,0.011393368,-0.0057463646,0.44523135,-0.052989345,0.8749961,2017-03-27 08:45:53,64.50001915568333
7.8249054,0.6141205,5.929184,-0.016815186,-0.00869751,0.018157959,2349.0,7.8286233,0.66747934,5.8683486,0.008156776,-0.06011206,-0.030234814,0.44451132,-0.0566319,0.874009,2017-03-27 08:45:54,66.76726091637336
7.7111816,0.69433594,5.673004,0.008224487,0.01953125,-0.006881714,2440.0,7.871232,0.6563579,5.8123384,-0.13296461,0.040236652,-0.11933327,0.44754195,-0.057960294,0.8724067,2017-03-27 08:45:55,65.65043285422381
7.976944,0.6500397,5.8956604,0.013549805,3.6621094E-4,-0.0074157715,2479.0,7.873266,0.6283728,5.812677,-0.10995388,0.040957093,-0.055162907,0.44766152,-0.056878045,0.8735206,2017-03-27 08:45:56,66.07215143989602
7.8332977,0.6560211,5.874115,0.017807007,0.011550903,-0.0015563965,2371.0,7.8499494,0.6707657,5.8394136,-0.019637585,-0.014999688,0.032480717,0.44654983,-0.053535223,0.8745342,2017-03-27 08:45:57,66.06680153859594
7.7411194,0.6332855,5.7268677,0.032730103,0.0051574707,-0.014862061,2387.0,7.8404927,0.6571562,5.853649,-0.09157848,-0.02321738,-0.120961666,0.445694,-0.05388718,0.8750436,2017-03-27 08:45:58,65.30937801018115
7.857239,0.62849426,5.9435425,0.0066223145,-0.014022827,-0.008483887,2445.0,7.886032,0.629375,5.795237,-0.014605045,2.516508E-4,0.15873241,0.4486244,-0.05710775,0.8729902,2017-03-27 08:45:59,66.0305366626932
7.9877167,0.6129303,5.7376404,-0.023727417,-0.007095337,0.017623901,2493.0,7.880895,0.5987935,5.805457,0.12957144,0.015865326,-0.051058292,0.4476027,-0.060464118,0.87256575,2017-03-27 08:46:00,64.55470315857754
7.7782288,0.6643982,5.93277,-0.01361084,-0.018814087,0.014419556,2431.0,7.896731,0.62600327,5.781016,0.009694576,-0.08274847,0.25637484,0.44902936,-0.06019015,0.8714614,2017-03-27 08:46:01,65.90174991311906
8.029617,0.5303345,5.951935,-0.033859253,-7.019043E-4,0.022415161,2512.0,7.8932047,0.59612983,5.7889833,0.14740133,-0.06496543,0.17101097,0.44858968,-0.060093828,0.8723936,2017-03-27 08:46:02,66.89890866251325
7.896744,0.57940674,5.8920746,-0.014678955,0.013153076,-0.0036773682,2449.0,7.8987913,0.630169,5.777748,-0.08085728,0.010591507,-0.054080963,0.44944075,-0.05847943,0.87199605,2017-03-27 08:46:04,65.27346622244282
8.069122,0.5351105,5.8094788,-0.00881958,-0.009216309,0.03253174,2483.0,7.8809114,0.58709466,5.8066306,0.18891239,-0.051931977,0.0033650398,0.44754976,-0.06036109,0.87291116,2017-03-27 08:46:04,66.22108951027204
7.957794,0.6500397,5.652649,-0.01574707,-0.007095337,-0.0010223389,2392.0,7.887613,0.65153223,5.7906346,0.040705204,0.12702233,0.23936367,0.44906744,-0.05566176,0.87295604,2017-03-27 08:46:06,65.01220293148643
7.9266663,0.64045715,5.93277,-0.014144897,0.007293701,-0.0036773682,2500.0,7.8822384,0.59734774,5.803781,0.035779953,0.042454004,0.12262106,0.4481302,-0.057173863,0.8739023,2017-03-27 08:46:06,67.49945578711936
7.9170837,0.6093292,5.6622314,0.005569458,0.019012451,-0.006881714,2434.0,7.900374,0.6416593,5.7743177,0.014487743,-0.034912407,-0.11378765,0.44994015,-0.05610486,0.8725598,2017-03-27 08:46:08,65.46822454033435
7.9901123,0.529129,5.980652,-0.002960205,0.004623413,0.011230469,2468.0,7.874759,0.58110195,5.8155704,0.12897158,-0.05096793,0.17513895,0.4474012,-0.057624448,0.87437284,2017-03-27 08:46:09,66.90156261736112
7.8560333,0.7517853,5.688568,0.0050354004,3.6621094E-4,-0.014862061,2364.0,7.8654065,0.6420065,5.8218207,-0.05506754,-0.0018771887,0.12355995,0.44761094,-0.053049035,0.8749645,2017-03-27 08:46:10,64.75030371991521
7.86322,0.6859436,5.8525696,-0.0040283203,0.010482788,0.008575439,2321.0,7.8619413,0.6922546,5.8207436,0.08320856,-0.053229094,-0.013506889,0.44745854,-0.054822933,0.87306136,2017-03-27 08:46:11,65.1557636474734
7.7806244,0.71707153,5.6550446,0.01675415,0.007827759,-4.8828125E-4,2442.0,7.8728137,0.64902145,5.811021,-0.07573986,0.06940615,-0.14383459,0.44737527,-0.059797812,0.87177557,2017-03-27 08:46:12,65.726074343235
7.96019,0.5590515,6.111145,-0.032791138,-0.0033721924,0.030410767,2430.0,7.862463,0.62379855,5.8277736,0.11595917,-0.06330049,0.2968855,0.4467782,-0.05705688,0.8739112,2017-03-27 08:46:13,65.46484521419963
7.8763885,0.5363159,5.870529,-0.010421753,-7.019043E-4,-0.002090454,2489.0,7.8777843,0.6001301,5.80954,0.0049157143,-0.05519688,0.06562805,0.44749314,-0.059546657,0.8730103,2017-03-27 08:46:14,64.64183854872826
7.936249,0.5578613,5.7508087,0.005569458,-0.011352539,4.5776367E-5,2483.0,7.8909755,0.5996983,5.7916546,0.046648502,-0.04173249,-0.039836884,0.4485856,-0.05898112,0.87282956,2017-03-27 08:46:15,65.74861232640171
7.857239,0.5662384,5.8142548,-0.0024261475,0.0014343262,0.0053710938,2574.0,7.888893,0.5492996,5.799484,0.111132145,-0.008373976,0.033973217,0.44773307,-0.061997484,0.872952,2017-03-27 08:46:16,65.11075522671368
7.96019,0.5913849,5.901642,-0.00881958,-0.014556885,0.010696411,2504.0,7.8979573,0.5868431,5.783447,0.071759224,0.0052497387,0.12517118,0.4490708,-0.058835946,0.8729898,2017-03-27 08:46:17,67.65937997605654
7.8057556,0.6045532,5.683777,0.0018310547,0.020599365,-0.0031433105,2540.0,7.863166,0.548781,5.834367,-0.04670334,0.05651951,-0.14264584,0.44586903,-0.061241195,0.8742009,2017-03-27 08:46:18,65.5833837132818
7.978134,0.5554657,5.786728,0.00289917,-0.012954712,0.013366699,2464.0,7.8889856,0.60388154,5.7939286,0.09338331,-0.04809165,-0.004090786,0.44847172,-0.05886391,0.8728342,2017-03-27 08:46:19,69.48574234294857
7.835678,0.5770111,5.841797,-0.009887695,0.0019683838,0.023483276,2488.0,7.8853965,0.58031267,5.801219,0.13280725,2.5230646E-4,-0.0029845238,0.44797045,-0.059519887,0.8732854,2017-03-27 08:46:20,72.92731087798457
7.9278564,0.61772156,5.831024,-0.013076782,-7.019043E-4,5.79834E-4,2453.0,7.884822,0.6078764,5.7991767,0.05236292,0.010564327,0.038708687,0.44802392,-0.059990313,0.87240064,2017-03-27 08:46:21,72.7893060562988
7.834488,0.5877838,5.7089233,0.009292603,0.013153076,0.009094238,2498.0,7.8794537,0.5725319,5.8100615,0.024544716,0.034174323,-0.007581234,0.4474254,-0.059831757,0.8735479,2017-03-27 08:46:22,72.1706688893693
7.8368835,0.56744385,5.9184113,-0.016815186,-0.020935059,0.0053710938,2481.0,7.8462176,0.5768607,5.854442,-0.003059864,-0.008955598,0.06865072,0.44510698,-0.058192078,0.87516576,2017-03-27 08:46:23,73.34920025958314
7.9111023,0.6560211,5.7998962,-0.010955811,-0.0033721924,0.0059051514,2397.0,7.8668704,0.6362446,5.8204756,0.004058838,-0.0030017495,0.07183218,0.44727662,-0.05640885,0.8737142,2017-03-27 08:46:24,74.82625060668134
7.6980133,0.7805176,5.5209656,-0.038650513,-0.0049591064,0.03413391,2249.0,7.840275,0.602476,5.859822,-0.10807228,0.18066877,-0.31330347,0.44496745,-0.056887884,0.87523264,2017-03-27 08:46:25,73.01980856028818
7.8847656,0.41181946,5.933975,0.006088257,-1.6784668E-4,0.0011138916,2574.0,7.827351,0.5177474,5.8851423,0.08205795,-0.10429788,0.06736183,0.44335684,-0.058103155,0.8772714,2017-03-27 08:46:26,71.92270570807038
7.9398346,0.5650482,5.882492,0.0018310547,0.0056915283,0.009094238,2565.0,7.833055,0.5210905,5.8772535,0.12946701,0.04546696,0.022260666,0.44349894,-0.06043327,0.8760785,2017-03-27 08:46:27,68.42288227355672
7.8368835,0.47766113,5.700531,-0.02319336,-0.004425049,0.020812988,2685.0,7.8157725,0.43613756,5.9071035,0.124323845,-0.061683357,0.26837015,0.44118065,-0.064662054,0.8770163,2017-03-27 08:46:28,71.70558798833338
7.839279,0.4142151,5.7998962,0.086517334,-0.03211975,-0.0026245117,2643.0,7.8642445,0.46408296,5.8402634,-0.009994984,-0.04898444,-0.029249191,0.4451763,-0.06361996,0.87521726,2017-03-27 08:46:29,67.04891674294893
7.897934,0.46328735,5.6777954,0.0284729,-0.01828003,-0.009002686,2665.0,7.8885107,0.4306414,5.8100195,0.12781525,-8.3997846E-4,-0.015000343,0.44669044,-0.062402148,0.8763459,2017-03-27 08:46:30,66.81766117106919
7.96019,0.4680786,5.9004517,-0.00881958,0.014205933,0.006439209,2607.0,7.908206,0.44853464,5.7818246,0.0704875,0.020593435,0.13215542,0.4486187,-0.0628511,0.87446713,2017-03-27 08:46:31,67.35852250387764
7.9194794,0.38069153,5.760391,-0.016281128,0.0030212402,0.012832642,2626.0,7.9041095,0.410106,5.7902727,-0.0597682,0.055992365,0.011163235,0.44757995,-0.066711776,0.87401193,2017-03-27 08:46:32,66.65359718984828
8.02243,0.40821838,5.6933594,7.6293945E-4,-0.010284424,0.0011138916,2606.0,7.9126706,0.455499,5.7751675,0.11943865,-0.046723455,-0.074744225,0.44915164,-0.061735213,0.8745835,2017-03-27 08:46:33,67.69317669037511
7.981735,0.45970154,5.652649,0.0023651123,-0.0038909912,0.010696411,2606.0,7.919952,0.44809094,5.7657576,0.054168224,-0.03930074,0.04750824,0.44877934,-0.06274456,0.8745924,2017-03-27 08:46:34,67.64807855002783
7.957794,0.43455505,5.89447,-0.01361084,-0.0049591064,-0.0010223389,2576.0,7.914245,0.469066,5.7719216,0.054407597,-0.03386736,0.13046789,0.44926843,-0.062223576,0.8740201,2017-03-27 08:46:35,66.48876119368764
7.878784,0.4872284,5.740036,0.013015747,0.007827759,-0.0031433105,2571.0,7.92508,0.47769898,5.7563267,0.007826328,0.054021537,-0.1408391,0.45026588,-0.061397444,0.8737731,2017-03-27 08:46:36,65.85113163518032
7.914688,0.4465332,5.857361,-0.0056152344,0.0019683838,0.0011138916,2587.0,7.8931427,0.44607133,5.802561,0.027738571,8.1187487E-4,0.059352875,0.4478957,-0.059507955,0.876294,2017-03-27 08:46:37,65.5319660417116
7.875183,0.5003967,5.7615814,0.011428833,0.0040893555,-0.010604858,2520.0,7.9093394,0.49126223,5.776798,-0.020750046,0.023054004,-0.004207611,0.4493021,-0.0601169,0.87473834,2017-03-27 08:46:38,64.38298810350871
7.9721527,0.4692688,5.8956604,-0.024261475,-0.0023040771,0.013900757,2498.0,7.9172044,0.49169847,5.7659774,0.080060005,-0.02087009,0.14797163,0.44987613,-0.06023658,0.87414724,2017-03-27 08:46:39,64.95879153734377
7.8440704,0.52194214,5.771164,-0.006149292,-0.0028381348,-0.005279541,2541.0,7.9039483,0.4721659,5.7857633,-0.042663097,0.050804585,-0.0019984245,0.4482562,-0.0638324,0.8736515,2017-03-27 08:46:40,64.6447203497375
7.8955383,0.4860382,5.8633423,-0.022659302,-0.015609741,0.022415161,2439.0,7.9233522,0.513722,5.7556033,-0.008485794,-0.026430666,0.121778965,0.45032465,-0.061266817,0.8730105,2017-03-27 08:46:41,66.22513854231187
7.896744,0.42738342,5.7735596,-0.01361084,0.009414673,0.017089844,2476.0,7.8952336,0.47287396,5.7975907,0.034920692,-0.010280937,0.013175964,0.44797552,-0.061016977,0.87502277,2017-03-27 08:46:42,67.549812908085
7.894348,0.5003967,5.798706,-0.009353638,-0.008163452,-0.007949829,2441.0,7.928555,0.50191176,5.7494764,-0.024579525,-9.0557337E-4,0.05621147,0.4508519,-0.05992366,0.87364465,2017-03-27 08:46:43,66.32700502218209
7.7806244,0.5554657,5.712509,0.011428833,0.0019683838,-0.0063476563,2428.0,7.9295087,0.5076401,5.7476597,0.01773262,0.02713728,-0.025445938,0.45130017,-0.057263277,0.8744832,2017-03-27 08:46:44,66.50347215511849
7.930252,0.44055176,5.8920746,-0.02532959,-0.016677856,0.0027160645,2503.0,7.927085,0.46278295,5.754785,0.026201248,-0.02088648,0.15401173,0.45063937,-0.059260316,0.87486416,2017-03-27 08:46:45,65.02399883113316
8.112213,0.331604,5.743637,-0.033859253,-0.00869751,0.022949219,2421.0,7.933198,0.48784533,5.7442827,-0.08441067,0.09848234,0.1616435,0.45095617,-0.05785081,0.87456256,2017-03-27 08:46:46,64.64052911846292
7.902725,0.5039978,5.747223,0.0034332275,-7.019043E-4,0.013900757,2469.0,7.914016,0.47496042,5.7717547,0.008609295,0.030231684,-0.0100188255,0.44965234,-0.05945742,0.87494606,2017-03-27 08:46:47,65.7053250723991
7.9230804,0.5375061,5.6454773,0.0050354004,-0.004425049,5.79834E-4,2438.0,7.921435,0.4898104,5.760325,-0.0050063133,-0.005859852,0.093289375,0.4504637,-0.058203094,0.87482107,2017-03-27 08:46:48,65.54318448005903
7.811737,0.5949707,5.865738,-0.016815186,-0.0023040771,0.013900757,2318.0,7.8792005,0.5305293,5.8143897,-0.054978848,0.06528199,0.060560703,0.447483,-0.05751166,0.8755182,2017-03-27 08:46:49,68.8349827344161
7.8057556,0.52433777,5.738846,0.004501343,0.0051574707,0.003768921,2318.0,7.910841,0.5432766,5.770081,0.042173386,0.009754658,1.4305115E-4,0.45008832,-0.056817684,0.87443304,2017-03-27 08:46:50,67.04108002339412
7.8249054,0.5853882,5.838196,0.0076904297,0.0019683838,-0.01966858,2294.0,7.9031267,0.55840343,5.7792015,-0.06808758,0.027700722,0.06640482,0.44972414,-0.05559618,0.8747924,2017-03-27 08:46:51,64.16632084481199
6.123825,0.8726959,6.020157,0.026870728,-0.096572876,0.20936584,432.0,7.0733495,0.60637265,6.765385,-0.8649421,0.15131444,-0.7563615,0.39090803,-0.009062569,0.9130847,2017-03-27 08:46:52,64.13498325877414
6.7343445,0.58180237,7.402817,-0.051956177,-0.066207886,0.014953613,374.0,6.631534,0.60824376,7.198832,0.11388016,-0.02542609,0.21600151,0.36458814,0.0060990024,0.9285496,2017-03-27 08:46:53,66.92093897055253
6.8408966,0.33280945,6.684555,-0.033325195,-0.115753174,-0.08517456,520.0,6.804545,0.49925375,7.0440965,0.050299644,-0.16542095,-0.3451028,0.37529096,-0.0027776589,0.92389077,2017-03-27 08:46:54,67.14946265484762
7.5962677,0.31724548,7.2519836,-0.79977417,-0.12161255,0.2445221,1881.0,7.20803,0.58614117,6.6235275,0.40756083,-0.26732433,0.6462121,0.40250206,-0.016916445,0.90833193,2017-03-27 08:46:55,67.1273407877843
5.7287903,0.71588135,3.944397,1.2423401,0.5532379,0.39952087,1434.0,7.1399035,1.053134,6.639508,-1.3948812,-0.3348583,-2.680016,0.4017514,0.008667067,0.9085775,2017-03-27 08:46:56,66.43119183043302
6.5081024,1.2845001,7.6075134,-0.19311523,-0.24624634,-0.23750305,1431.0,6.965582,0.6936536,6.868035,0.026937485,-0.15929872,2.0524015,0.3861076,-0.027360953,0.9087562,2017-03-27 08:46:57,67.70981457650181
7.1485443,0.09458923,6.3984528,0.04710388,0.0546875,-0.09370422,3569.0,7.159882,0.16836637,6.6991143,-0.0084581375,-0.07370941,-0.29796696,0.38938373,-0.08258665,0.89268047,2017-03-27 08:46:58,68.82367740658057
7.692032,0.17358398,7.9044037,-0.09776306,0.050964355,-0.16932678,3651.0,7.226901,0.24529657,6.6243587,1.3442383,-0.522951,-0.5272784,0.3905428,-0.098630875,0.8793097,2017-03-27 08:47:00,66.94455529909162
7.2203674,0.8870697,6.0069885,-0.043441772,-0.009750366,0.02720642,3590.0,7.411773,0.7475745,6.377863,-0.17532349,0.14111727,-0.35703564,0.40658864,-0.09749445,0.85763806,2017-03-27 08:47:00,67.18547028832124
7.5208435,0.6201172,6.154236,-0.013076782,3.6621094E-4,0.021881104,3638.0,7.485399,0.59880584,6.3071885,0.10314894,-0.043806374,0.046216488,0.40859193,-0.10712388,0.8556536,2017-03-27 08:47:02,67.34477279553796
7.474167,0.6308899,6.209305,0.012481689,-0.012954712,0.016555786,3720.0,7.5064726,0.5857354,6.283325,-0.028085709,0.045483768,-0.070487976,0.4093854,-0.109741405,0.8539549,2017-03-27 08:47:02,65.65368799142115
7.5591583,0.47766113,6.3553467,0.007156372,-0.023071289,0.016555786,3811.0,7.4984145,0.5489048,6.2962594,-0.014056206,0.056328356,-0.24010229,0.40826726,-0.110896274,0.8547439,2017-03-27 08:47:04,65.7710516960988
7.5088806,0.43815613,6.0812073,0.006088257,-0.033721924,0.05331421,3852.0,7.5339437,0.43147543,6.262901,-0.023020744,0.0067976415,-0.17999601,0.40901372,-0.115709685,0.8554667,2017-03-27 08:47:05,64.68280465934338
7.5531616,0.34716797,6.217682,-0.028518677,3.6621094E-4,0.008041382,3883.0,7.5208297,0.40186384,6.2806063,-0.15358114,0.042637378,0.14626503,0.40781307,-0.11604609,0.8566138,2017-03-27 08:47:06,66.789463696658
7.5411987,0.24302673,6.3182373,-0.06741333,-0.022537231,0.033065796,3963.0,7.5664515,0.3544583,6.2284465,0.10371971,0.039247155,0.20762444,0.40993652,-0.11995684,0.8549669,2017-03-27 08:47:07,65.0680977697506
7.5352173,0.28970337,6.1997223,0.01461792,-0.010818481,0.0021820068,4036.0,7.5749335,0.32474232,6.2197514,-0.017521381,-0.03408742,-0.0018043518,0.41060704,-0.11951058,0.8563139,2017-03-27 08:47:08,66.5744509535982
7.522049,0.37350464,6.1410675,-0.0066833496,-0.00869751,0.0027160645,4022.0,7.568824,0.33072665,6.226871,-0.018474102,0.044014603,-0.06252098,0.41032568,-0.1189571,0.8565724,2017-03-27 08:47:09,66.14755623955368
7.3939514,0.39265442,6.159027,-0.007217407,-0.010818481,-0.014328003,3982.0,7.5509295,0.33933938,6.248096,-0.14462805,0.053870022,-0.07885027,0.40948883,-0.1172803,0.8577145,2017-03-27 08:47:10,66.85758682472418
7.214386,0.5159607,6.1841583,0.018875122,-0.0028381348,-0.0026245117,3957.0,7.5592017,0.3550994,6.237208,-0.32933474,0.16158852,-0.04027605,0.4101716,-0.11726114,0.8569771,2017-03-27 08:47:11,67.72318543152116
7.605835,0.34118652,6.181778,-0.006149292,-0.005493164,-0.010070801,4024.0,7.557318,0.29850727,6.2424536,-0.09125185,-0.011527181,0.11657238,0.40922424,-0.11941093,0.85769475,2017-03-27 08:47:12,66.0784159404018
7.5926666,0.287323,6.2368317,-0.009353638,-0.0134887695,0.0101623535,4000.0,7.583727,0.3127122,6.209644,0.025051594,-0.024724811,0.040380955,0.41107416,-0.12005957,0.85624826,2017-03-27 08:47:13,67.5063687961771
7.5555573,0.23464966,5.93277,0.013549805,-0.016143799,0.02508545,4246.0,7.5651035,0.18989727,6.23727,-0.06085682,-0.034737885,-0.046046734,0.40799913,-0.12459714,0.85810274,2017-03-27 08:47:14,68.35729867025164
7.6142273,0.12211609,6.2320557,0.013015747,0.0040893555,-0.010604858,4257.0,7.624755,0.20560127,6.163702,0.00527668,-0.08305903,0.081129074,0.41238898,-0.1251958,0.85607165,2017-03-27 08:47:15,67.16026929177929
7.62619,0.16041565,6.190155,-0.028518677,-0.0017700195,0.023483276,4214.0,7.5227504,0.18678185,6.2883797,-0.04796505,-0.029163793,0.10787821,0.40562472,-0.12186242,0.8608355,2017-03-27 08:47:16,67.0757737023821
7.2311554,0.48962402,6.1805725,0.04763794,0.021133423,-0.04789734,3991.0,7.549134,0.3721415,6.248398,-0.30536842,0.11810416,-0.05738783,0.40968308,-0.11653391,0.8569896,2017-03-27 08:47:17,66.6347384073947
7.5519714,0.3771057,6.063263,0.01675415,0.0056915283,0.011764526,3927.0,7.5578218,0.3486144,6.2392445,-0.053563595,0.059084624,-0.12807178,0.4101235,-0.11698612,0.8574461,2017-03-27 08:47:18,66.7626309019109
7.435852,0.21429443,7.0149536,0.06149292,0.029663086,-0.0047454834,3980.0,7.5699377,0.3190662,6.226124,-0.12237644,-0.10427821,0.7984605,0.41042212,-0.11878429,0.8571282,2017-03-27 08:47:19,66.30820555484387
8.197205,0.7936859,10.411133,0.7586975,0.93566895,-0.2529602,1249.0,5.758017,1.5500345,7.785436,1.8939099,-0.2409451,2.8697348,0.34343117,-0.02287144,0.91434795,2017-03-27 08:47:20,65.33007297788006
6.965393,3.300415,6.3792877,0.334198,-0.0017700195,-0.54963684,1684.0,7.0651946,0.9669247,6.731899,-0.11755514,2.3310606,-0.36952686,0.39417997,-0.037293665,0.894023,2017-03-27 08:47:21,66.67913191843266
7.6669006,1.5310974,4.1024017,0.40716553,-0.23239136,0.18060303,1520.0,7.9600554,1.2165279,5.5971394,-0.27476072,0.31738055,-1.4818034,0.4596335,-0.057986025,0.85239506,2017-03-27 08:47:22,66.34935835600889
7.6824493,0.86550903,5.7651825,-0.035446167,-0.010284424,0.03199768,2035.0,7.7967815,0.7578749,5.8996787,-0.10067415,0.1089617,-0.12416172,0.43838584,-0.08377327,0.8585957,2017-03-27 08:47:23,66.23992751996079
7.5759125,0.4872284,5.8789063,-0.042907715,0.04724121,0.003768921,2816.0,7.79392,0.4218057,5.936942,-0.20301771,0.06623393,-0.046617508,0.43047854,-0.1094917,0.85508543,2017-03-27 08:47:24,69.01658323849644
7.3460693,0.51716614,5.8142548,0.0716095,0.05895996,-0.1272583,3153.0,7.756627,0.24221142,5.9955363,-0.28013468,0.08637135,0.06084633,0.42395213,-0.12034372,0.8565596,2017-03-27 08:47:25,66.51605136174553
7.6154175,0.38427734,6.004593,0.003967285,0.017410278,-0.010070801,3102.0,7.7455754,0.28490266,6.007936,-0.11047983,0.10009846,0.011919975,0.4237331,-0.11887308,0.85507584,2017-03-27 08:47:26,68.51679361297538
7.9721527,0.16641235,5.9232025,-0.013076782,-0.014022827,0.030944824,3213.0,7.7459855,0.236865,6.009492,-0.015808105,-0.010173321,0.07556391,0.42282504,-0.12358446,0.85386056,2017-03-27 08:47:27,67.2866434054612
7.992508,0.13049316,5.8298187,0.02633667,0.004623413,0.016021729,3287.0,7.745302,0.2186104,6.011063,0.25325155,-0.08794661,-0.1765523,0.4221053,-0.12388772,0.8542158,2017-03-27 08:47:28,65.1579364906195
7.8404694,0.16880798,6.015381,-0.017868042,0.010482788,-0.0026245117,3355.0,7.735192,0.16489486,6.025779,-0.22644472,0.0472818,0.14819384,0.42073923,-0.1254962,0.85530674,2017-03-27 08:47:29,65.90466657177372
8.111023,0.056274414,5.8394012,-0.0040283203,0.004623413,-0.05747986,3419.0,7.790404,0.13587004,5.95496,0.33436632,-0.079355866,-0.10505104,0.42434302,-0.12772855,0.8537676,2017-03-27 08:47:30,65.97594180493316
7.7183685,0.19754028,5.8681335,-0.038116455,0.01687622,-0.027648926,3353.0,7.772646,0.14053144,5.978011,-0.04165554,0.053082466,-0.0885725,0.42356166,-0.12718588,0.8540537,2017-03-27 08:47:31,65.37088494407635
7.6429443,0.077819824,5.9351654,-0.008285522,0.017410278,4.5776367E-5,3593.0,7.747802,0.067554064,6.0114374,-0.08313084,0.010455199,-0.059414387,0.4202786,-0.12987636,0.8556733,2017-03-27 08:47:32,66.07833319073052
7.602249,0.16520691,5.893265,0.0034332275,0.015808105,-0.03404236,3515.0,7.7904625,0.09611481,5.9556565,-0.15210772,0.06478643,-0.030326843,0.42425036,-0.12846594,0.85448074,2017-03-27 08:47:33,66.20088054058584
7.9506073,0.023956299,5.8765106,0.01461792,0.013687134,0.0021820068,3550.0,7.786911,0.06567667,5.960713,0.18811846,-0.04151439,-0.06550789,0.42371917,-0.12864795,0.8557118,2017-03-27 08:47:34,66.9703027289347
7.779419,0.01676941,6.0297394,0.0076904297,-1.6784668E-4,0.009094238,3641.0,7.7534246,0.04117009,6.0044236,0.041142464,-0.024320249,0.037046432,0.42095694,-0.12905376,0.85700953,2017-03-27 08:47:35,65.53836783154671
7.6740723,0.16880798,6.0608673,0.0018310547,0.013153076,0.0016479492,3502.0,7.742623,0.07805506,6.0179806,-0.043765545,0.091002785,0.062150955,0.4205475,-0.12770364,0.8568106,2017-03-27 08:47:36,66.56202220400122
7.9314575,-0.46566772,6.1255035,-0.17712402,-0.068344116,0.0410614,4458.0,7.78027,-0.4085035,5.9557457,-0.534142,0.27511936,0.059894085,0.4166529,-0.1438579,0.8596944,2017-03-27 08:47:37,67.10194539177722
8.166092,-0.49198914,5.905243,0.13764954,0.12232971,-0.07559204,4933.0,7.749714,-0.36717576,5.9981246,0.4407997,-0.12597048,-0.073979855,0.41600755,-0.145322,0.8605163,2017-03-27 08:47:38,65.96034482695907
7.894348,-1.4041901,5.483856,0.0050354004,0.0035552979,-0.017532349,8058.0,7.9089494,-1.4490016,5.6142054,0.0012254715,4.1627884E-4,-0.009941578,0.41964915,-0.19403552,0.8587213,2017-03-27 08:47:39,65.82654758596729
7.897934,-1.3898163,5.4527435,-0.024261475,-0.011886597,-0.011138916,7927.0,7.9876747,-1.5015999,5.487498,-0.038495064,0.102149844,4.515648E-4,0.43263444,-0.1817771,0.86329436,2017-03-27 08:47:40,66.37383429590663
7.8763885,-1.4819946,5.225281,-0.031723022,0.009414673,0.011764526,7656.0,8.02162,-1.6099703,5.4066615,0.23193026,-0.15554917,0.3804574,0.43782216,-0.18068957,0.86430866,2017-03-27 08:47:41,65.38480104492656
8.069122,-1.6938934,5.1558533,0.04284668,-0.022003174,0.021347046,7843.0,7.999556,-1.7110219,5.4083166,0.12452459,0.0053733587,-0.21530724,0.43831483,-0.17925598,0.8669272,2017-03-27 08:47:42,66.25344647185321
8.380371,-1.835144,5.4527435,0.003967285,-0.080062866,0.033065796,7833.0,7.97604,-1.7253397,5.438417,0.024476051,-0.024513483,-0.100734234,0.43593344,-0.18077593,0.867381,2017-03-27 08:47:43,66.13621186378823
8.07869,-1.6699371,5.2192993,-0.012008667,-0.07366943,0.061294556,7779.0,8.025734,-1.7077286,5.3704414,0.11757755,0.024041057,-0.107899666,0.44057712,-0.17909634,0.86601037,2017-03-27 08:47:44,67.25845729663683
8.011658,-1.7010651,5.146286,0.02420044,-0.037979126,0.024017334,7796.0,8.012956,-1.7130592,5.387798,0.078158855,-0.006860733,-0.19880533,0.43945783,-0.17827319,0.8669498,2017-03-27 08:47:45,66.53651198137054
7.629776,-1.450882,4.9786835,0.06414795,0.05203247,-0.053222656,7663.0,8.016133,-1.6581349,5.400239,-0.3101492,0.19148934,-0.37021637,0.44016415,-0.17584075,0.86691463,2017-03-27 08:47:46,67.77155130383173
7.7339325,-1.6328278,5.204941,0.022613525,0.008346558,-0.020721436,7817.0,8.001664,-1.7443365,5.394538,-0.19504929,0.09566426,-0.14059639,0.43881103,-0.17999996,0.8669769,2017-03-27 08:47:47,65.78131112392452
7.751892,-1.5227051,5.2707825,0.025268555,0.037643433,-0.04096985,7691.0,8.022847,-1.6926893,5.3795085,-0.203794,0.15581417,-0.06369257,0.4401007,-0.178977,0.8659794,2017-03-27 08:47:48,65.29712053683
8.156509,-1.7010651,5.276764,0.0034332275,-0.011886597,0.025619507,7503.0,8.026953,-1.6535754,5.3855457,0.19530344,-0.061033607,-0.064670086,0.44128752,-0.17515399,0.86671203,2017-03-27 08:47:49,65.4951002058852
7.8608246,-1.5550232,5.403656,-0.002960205,0.0056915283,-0.018066406,7358.0,8.017539,-1.5685917,5.424847,0.057343483,-0.01628673,0.03934574,0.43974313,-0.17431052,0.866316,2017-03-27 08:47:51,67.68647032468965
8.0703125,-1.4436951,5.4934387,0.0012969971,-0.005493164,0.0043029785,6896.0,7.9827714,-1.369891,5.5289373,0.13587284,-0.08209813,-0.00202322,0.43608046,-0.16714211,0.8673086,2017-03-27 08:47:51,67.02873868470351
7.755478,-1.356308,5.5473022,0.008224487,-0.0065612793,0.024551392,7039.0,7.990713,-1.4473901,5.4976315,0.2660346,-0.08164179,-0.13718891,0.43485254,-0.17493448,0.86515766,2017-03-27 08:47:53,66.23964538608874
7.933853,-1.4053802,5.513794,-0.02746582,-0.028930664,0.030410767,7081.0,7.983187,-1.4374477,5.511157,1.6212463E-5,0.023181438,0.036705494,0.43424812,-0.17446421,0.86543435,2017-03-27 08:47:54,66.5835987611556
7.937439,-1.5095367,5.609558,-0.0066833496,0.01473999,4.5776367E-5,7018.0,7.995164,-1.4178185,5.4988666,-0.04124832,0.08189964,-0.061055183,0.435365,-0.17407416,0.86427623,2017-03-27 08:47:55,65.69098982283872
7.786606,-1.3443298,5.4419556,0.013015747,0.007827759,-0.029785156,7096.0,7.9789715,-1.4376976,5.517193,-0.12544823,0.08131015,-0.02896595,0.4332706,-0.17600572,0.86493397,2017-03-27 08:47:56,66.69850288690031
7.933853,-1.2904663,5.4850616,0.010360718,-0.0076293945,0.007507324,6890.0,7.9801555,-1.3549161,5.5364,0.123119354,-0.061330914,0.030040264,0.43347374,-0.17269254,0.86486053,2017-03-27 08:47:57,65.45715812820674
7.944626,-1.3539124,5.412033,0.01675415,0.0024871826,-0.008483887,6907.0,7.9527717,-1.3486534,5.5771813,-0.049994946,-0.014348507,0.04941845,0.4310772,-0.17267118,0.86562455,2017-03-27 08:47:58,66.34522447725269
7.929062,-1.3886261,5.51857,-0.02319336,0.025390625,0.03199768,6870.0,7.9711494,-1.3579439,5.5486164,0.012693882,-0.040014625,0.008086681,0.43207973,-0.17437425,0.86447483,2017-03-27 08:47:59,65.6367766446146
7.6202087,-1.237793,5.593994,-0.027999878,-0.009216309,0.02027893,6891.0,7.956023,-1.3684105,5.5677238,-0.27378082,0.11994803,0.06968212,0.4309431,-0.17439365,0.865133,2017-03-27 08:48:00,65.89091867573521
8.048767,-1.3539124,5.5006256,-0.0034942627,0.010482788,-0.007949829,6974.0,7.96843,-1.4008461,5.541854,0.13571978,0.052469373,0.008700371,0.43205318,-0.17673972,0.8644854,2017-03-27 08:48:01,66.12270558703628
7.7782288,-1.3287659,5.5473022,0.012481689,0.030197144,-0.025527954,6901.0,7.95698,-1.3806288,5.563337,-0.11869526,0.041442394,0.025955677,0.43103856,-0.17479856,0.8651487,2017-03-27 08:48:02,66.82336827869504
7.8524475,-1.2808838,5.59758,0.004501343,0.0035552979,-0.006881714,6870.0,7.964212,-1.3557411,5.559108,0.04381275,0.018781185,-0.06414747,0.43170974,-0.17375585,0.8649227,2017-03-27 08:48:03,66.53951661039991
8.002075,-1.376648,5.514984,-0.04397583,-0.029464722,0.05970764,6915.0,7.96638,-1.3936758,5.5466065,0.10537815,0.0048372746,0.01689434,0.43168342,-0.17564508,0.86472034,2017-03-27 08:48:04,65.99410950122885
8.064331,-1.4867859,5.513794,-0.007751465,9.0026855E-4,0.009628296,6927.0,7.9662943,-1.385615,5.54875,-0.1170516,0.14953256,-0.026134968,0.43175617,-0.17515454,0.8647908,2017-03-27 08:48:05,66.76691460719024
8.072708,-1.4472809,5.384506,-0.0018920898,-0.015609741,0.02508545,6995.0,7.9717093,-1.4270338,5.5304446,0.17958784,-0.034315467,-0.09141636,0.43181026,-0.17766742,0.8642716,2017-03-27 08:48:06,64.73227698259586
7.739914,-1.3299713,5.386902,0.009292603,-0.0049591064,-0.0015563965,7077.0,8.001566,-1.4809737,5.472846,0.18556547,-0.041723967,-0.06412125,0.43485817,-0.17849615,0.8638818,2017-03-27 08:48:07,65.77951835186454
7.8644104,-1.5693817,5.5760345,-0.012008667,-0.0134887695,-0.005279541,7244.0,7.9492416,-1.555714,5.528083,-0.021377087,-0.026086092,0.09207916,0.4308223,-0.18038395,0.8660227,2017-03-27 08:48:08,65.69692015307288
7.9673615,-1.5574188,5.3904877,-0.03491211,-0.014022827,0.025619507,7068.0,8.00867,-1.4903868,5.459885,0.09919691,0.0064382553,0.15399599,0.43558043,-0.1785862,0.8637647,2017-03-27 08:48:09,65.54252695131547
8.049973,-1.6112823,5.4766846,-0.03012085,-0.0060272217,0.010696411,7153.0,7.9995074,-1.5610582,5.453564,0.10563707,-0.06099069,0.06073284,0.43474743,-0.18149455,0.8640052,2017-03-27 08:48:10,66.83113506056125
7.914688,-1.4568634,5.343796,0.00289917,-1.6784668E-4,-0.0063476563,7062.0,8.021995,-1.5105366,5.434727,-0.03823185,0.04066634,-0.044134617,0.4369395,-0.17885715,0.8635324,2017-03-27 08:48:11,66.02031955187414
7.944626,-1.5789642,5.3701324,0.02633667,0.007293701,-0.017532349,7205.0,7.9855123,-1.5855488,5.4669933,0.027266026,-0.006947398,-0.050202847,0.43407604,-0.18121506,0.86496353,2017-03-27 08:48:12,65.88581789725464
7.7458954,-1.440094,5.305496,-0.0018920898,0.018478394,-0.02658081,7106.0,8.015977,-1.5663011,5.4278173,-0.09284687,0.015894532,0.13938665,0.43611565,-0.18182814,0.8634015,2017-03-27 08:48:13,65.48844178481339
7.9230804,-1.6005096,5.5245667,-0.01574707,-0.014556885,0.009094238,7117.0,8.027557,-1.5895647,5.4038854,-0.042859554,-0.023146033,0.16215992,0.43711987,-0.1827696,0.8629872,2017-03-27 08:48:14,66.1554290761859
7.862015,-1.6579742,5.530548,-0.016281128,-0.009216309,-0.004211426,7290.0,7.965539,-1.6360286,5.481238,0.05675316,0.048669934,0.07587814,0.43271858,-0.18245341,0.8658912,2017-03-27 08:48:15,65.0575662367889
7.865616,-1.5622101,5.264786,0.006088257,0.02166748,-0.005279541,7086.0,7.9996505,-1.5763499,5.448955,-0.059278965,-0.008788586,-0.1289649,0.4357994,-0.1799289,0.8646474,2017-03-27 08:48:16,64.99135079830828
7.8847656,-1.5119324,5.214508,0.011947632,0.007827759,4.5776367E-5,7091.0,8.004822,-1.5748972,5.4417744,0.027471542,-0.0010410547,0.03273058,0.4359599,-0.18023787,0.8645464,2017-03-27 08:48:17,66.01549283689027
7.9506073,-1.6316376,5.489853,-0.009887695,-0.02041626,0.0027160645,7124.0,7.975774,-1.5977613,5.477644,0.043450832,-0.047622204,0.059334278,0.43405336,-0.17976531,0.8660494,2017-03-27 08:48:18,65.0535965990763
8.064331,-1.6459961,5.455124,-0.0050964355,0.007827759,0.0027160645,7110.0,7.9996634,-1.5898551,5.445011,-0.090238094,0.043370605,0.07758188,0.43540353,-0.18112282,0.86459243,2017-03-27 08:48:19,66.7809830431374
7.9506073,-1.6579742,5.4527435,-0.0056152344,-1.6784668E-4,0.018157959,7127.0,7.9740195,-1.6271288,5.471549,0.044868946,-0.044778347,0.028047085,0.43390048,-0.1809945,0.8660542,2017-03-27 08:48:20,65.97988777795427
7.9793396,-1.7417755,5.41922,-0.0013580322,3.6621094E-4,0.029876709,7158.0,8.002842,-1.7073706,5.4046082,0.008630276,-0.03952086,-0.033796787,0.43599012,-0.18534906,0.8645124,2017-03-27 08:48:21,66.02119864195187
8.207977,-1.8471222,5.810669,-0.05142212,0.0818634,0.07940674,6913.0,7.919862,-1.7032782,5.526755,0.34960032,-0.15706718,0.32682037,0.4307209,-0.18081325,0.8689991,2017-03-27 08:48:22,64.71611201606073
7.999695,-1.7848663,5.4527435,0.0066223145,0.004623413,0.016021729,7316.0,7.8978777,-1.7941048,5.529476,0.16996765,-0.0062428713,-0.029018879,0.42844585,-0.18576688,0.8690547,2017-03-27 08:48:23,66.6625808864936
7.7890015,-1.7214203,5.4299927,-0.017868042,-0.048110962,0.054367065,7267.0,7.957829,-1.7647232,5.4524407,-0.09107256,0.026060104,0.030827045,0.43299106,-0.18580002,0.86664504,2017-03-27 08:48:24,65.25766111889288
7.715973,-1.8016205,5.4850616,-0.014678955,0.041915894,-0.0036773682,7335.0,7.9386787,-1.826149,5.460122,-0.030342102,0.030188441,0.032931805,0.4316357,-0.18788786,0.86729664,2017-03-27 08:48:25,65.14810842587367
7.7818146,-1.7441711,5.362961,0.023132324,-0.012954712,-0.020187378,7371.0,7.9367948,-1.8445742,5.456669,-0.09405422,0.08624339,-0.051820755,0.43218613,-0.18708949,0.8678825,2017-03-27 08:48:26,64.54073794655018
7.7171783,-1.6759338,5.189377,0.008758545,0.011016846,-0.015396118,7392.0,7.963576,-1.82853,5.4229445,-0.076291084,0.0036592484,0.13135815,0.4339654,-0.18756549,0.8665923,2017-03-27 08:48:27,65.1301915705329
7.7662506,-1.8638763,5.403656,0.010894775,0.013687134,-0.0031433105,7484.0,7.9552364,-1.8855445,5.415655,-0.11558437,0.0042705536,0.037970543,0.43341622,-0.18981259,0.8667349,2017-03-27 08:48:28,65.31817790959715
7.684845,-1.8435211,5.3461914,0.020477295,0.020065308,-0.010070801,7538.0,7.9842005,-1.94083,5.353141,0.20893812,0.009886742,-0.12073898,0.4361105,-0.19202457,0.8655377,2017-03-27 08:48:29,65.7277142513235
8.04158,-1.969223,5.309082,-2.89917E-4,-0.033721924,0.029342651,7486.0,8.00083,-1.9344008,5.330591,0.10064268,-0.049302578,0.018393993,0.4378536,-0.19104898,0.8652159,2017-03-27 08:48:30,65.50216563482016
7.9949036,-1.9763947,5.1690216,-0.0056152344,-0.019882202,0.03627014,7554.0,7.9796643,-2.0049736,5.336238,0.070260525,0.005770445,-0.13264084,0.43633968,-0.19374028,0.86575633,2017-03-27 08:48:31,65.22067421307342
7.86322,-2.0111237,5.450348,-0.014678955,-0.02520752,0.033065796,7455.0,8.001249,-1.9679688,5.3176603,-0.07188892,-0.059422374,0.17664385,0.43818414,-0.1920142,0.86520535,2017-03-27 08:48:32,66.1698399904115
8.174469,-2.0793457,5.293518,0.009292603,-0.004425049,0.035202026,7586.0,7.9684753,-2.0252388,5.345296,0.2754259,-0.063307524,0.0011353493,0.436126,-0.1937475,0.866384,2017-03-27 08:48:33,66.19330309773054
7.90152,-2.0218964,5.312683,0.0023651123,-7.019043E-4,-0.028182983,7590.0,7.971143,-2.033636,5.338126,0.0026512146,-0.0066993237,0.022957802,0.43628022,-0.19362558,0.86637473,2017-03-27 08:48:34,66.93224122254561
8.073914,-2.1009064,5.384506,-0.01574707,-0.008163452,0.0069732666,7567.0,7.989773,-2.034186,5.309993,0.1589675,-0.085771084,0.12424278,0.43782794,-0.19383611,0.8656305,2017-03-27 08:48:35,64.83863482196797
7.850052,-1.9967499,5.4383698,-0.00881958,0.0035552979,0.0053710938,7567.0,7.964857,-2.0378842,5.3458834,-0.0337162,0.020386934,0.1469121,0.43630353,-0.19254878,0.8670006,2017-03-27 08:48:36,66.19779052892588
8.023636,-2.053009,5.2109222,-0.0056152344,-0.012420654,0.009094238,7478.0,7.9913287,-2.0323923,5.3083367,-6.933212E-4,0.051318884,-0.011059761,0.43877888,-0.19189389,0.8661979,2017-03-27 08:48:37,65.74534269885936
7.9158936,-2.032669,5.352173,-0.012542725,0.004623413,0.0027160645,7528.0,7.98498,-2.0294995,5.3189845,0.009178638,-0.023061752,0.08532286,0.4374668,-0.19346842,0.8658864,2017-03-27 08:48:38,66.32905783723412
7.875183,-1.9524536,5.2348633,-0.010421753,-0.0038909912,0.004837036,7677.0,7.9586926,-2.023403,5.360544,0.18873787,-0.012699366,0.10540342,0.43476993,-0.1940706,0.8665749,2017-03-27 08:48:39,66.33681432209985
7.9661713,-1.9153442,5.269577,0.0034332275,-0.0012359619,-0.010604858,7668.0,7.9491806,-1.9516985,5.4010916,0.09282398,0.0177356,-0.07998896,0.4339236,-0.19060767,0.8673919,2017-03-27 08:48:40,65.57547693316681
7.6860504,-1.9021759,5.4527435,0.009292603,0.012084961,-0.04096985,7946.0,7.8957376,-1.9695172,5.4725423,-0.03700733,0.020026088,-0.02136755,0.42959595,-0.19085422,0.86935246,2017-03-27 08:48:41,65.74372317515613
8.648514,-1.6424103,6.1243134,0.256958,0.7348633,0.08312988,7002.0,7.6625986,-1.5072889,5.9315305,1.0331569,-0.14441407,0.229352,0.41389018,-0.16208342,0.8814646,2017-03-27 08:48:42,66.56401825014726
7.174881,-0.020339966,6.862915,0.013015747,-0.06515503,0.013900757,3217.0,7.1537337,0.033753283,6.707707,0.029329777,0.086203486,-0.15096569,0.3883508,-0.08476882,0.8955626,2017-03-27 08:48:43,65.7030518194752
7.428665,-0.28729248,6.293106,-0.047164917,-0.03425598,0.019226074,4106.0,7.559327,-0.37254423,6.2360373,-0.08845329,0.083171606,0.091888905,0.4090955,-0.12120826,0.8787406,2017-03-27 08:48:44,66.11674627165728
7.5639496,-0.53149414,6.2117004,-0.016281128,0.0040893555,-0.005279541,4341.0,7.6614904,-0.500846,6.1009107,-0.008673191,0.05611071,-0.098107815,0.41443855,-0.13107571,0.8745529,2017-03-27 08:48:45,65.1777700551037
7.5112762,-0.58058167,6.048889,-0.033859253,0.04777527,-0.019134521,4828.0,7.6603284,-0.66325045,6.08686,-0.052457333,0.031759262,0.02228117,0.41183504,-0.14159249,0.8733564,2017-03-27 08:48:46,66.35662553781648
7.6118317,-0.87268066,6.3002777,0.004501343,0.006225586,0.0011138916,5748.0,7.502197,-0.88035524,6.253991,0.15929699,0.0018469691,0.08768606,0.39890835,-0.14834866,0.8791411,2017-03-27 08:48:47,65.57671975474602
7.4454346,-0.9397125,6.2200775,2.4414063E-4,-0.02999878,0.019760132,5808.0,7.567266,-0.9153862,6.170004,-0.082056046,-0.02913779,0.08250475,0.40399078,-0.14902624,0.8781503,2017-03-27 08:48:49,65.96417811137155
7.451416,-0.9445038,6.059662,-0.03225708,-0.0012359619,-0.0015563965,5906.0,7.5671735,-0.96097666,6.163181,0.05789709,0.031802356,0.25792217,0.40424246,-0.14951013,0.8790107,2017-03-27 08:48:50,65.04090755008546
7.439438,-0.8499298,6.1410675,0.0034332275,0.0051574707,-0.029785156,5852.0,7.5902047,-0.94507116,6.137264,-0.10084295,0.08892524,0.044171333,0.40638083,-0.1481257,0.8787583,2017-03-27 08:48:51,65.83791399870559
7.444229,-0.9875946,6.0500946,-0.024795532,-0.0017700195,0.019760132,5923.0,7.559061,-0.9932419,6.1680174,0.14399529,-0.046829164,0.11530495,0.40393156,-0.14952558,0.87996215,2017-03-27 08:48:52,65.70700683002856
7.455002,-0.96365356,6.2045135,-0.030654907,-0.014022827,0.0032348633,5840.0,7.59109,-0.9562861,6.1344314,-0.07456207,-0.015118301,0.119802475,0.40700755,-0.14688736,0.8796038,2017-03-27 08:48:53,65.214419869611
7.6776733,-1.0438538,6.0979767,-0.009353638,9.0026855E-4,0.030410767,5909.0,7.5832715,-0.983849,6.1397424,0.011935711,0.109417856,-0.020091534,0.40635,-0.14778352,0.8799944,2017-03-27 08:48:54,65.71047589058055
7.5555573,-0.9480896,6.1841583,-0.016281128,-0.00869751,0.0016479492,5837.0,7.580025,-0.9570551,6.1479797,0.02193737,0.0031063557,0.07381678,0.4062522,-0.14662679,0.88002783,2017-03-27 08:48:55,66.08659070705266
7.450226,-0.9768219,5.9902344,-0.009353638,-0.010284424,0.03413391,5875.0,7.565206,-0.97406685,6.1635413,0.21455383,-0.0679273,0.025952816,0.40475583,-0.14805257,0.8800929,2017-03-27 08:48:56,65.87691197401797
7.443039,-0.86309814,6.166214,0.0012969971,0.01473999,-0.020187378,5831.0,7.5778794,-0.9378934,6.1535754,-0.0808692,0.06452948,0.051674366,0.40612882,-0.1459944,0.87994975,2017-03-27 08:48:57,66.26393440718522
7.625,-0.9397125,6.166214,-0.0184021,0.0067596436,0.018692017,5958.0,7.567436,-0.98500055,6.1590633,0.103993416,0.039244592,0.04493904,0.40494472,-0.14830686,0.8801644,2017-03-27 08:48:58,65.83126910641994
7.4693756,-1.0007629,6.1494446,-0.0066833496,-0.005493164,-0.014862061,5891.0,7.571256,-0.9639355,6.1577024,-0.040899754,-0.044591248,0.041337967,0.40584776,-0.14605533,0.8806827,2017-03-27 08:48:59,66.59604434684087
7.5519714,-1.0127411,6.135086,-0.010421753,0.007293701,0.018692017,5921.0,7.5850344,-0.9814464,6.1379485,-0.004647255,0.064124405,-0.00848484,0.40648177,-0.1477305,0.87992096,2017-03-27 08:49:00,65.61340237710957
7.5280304,-0.9073944,6.1398773,0.0034332275,-0.016143799,0.008575439,5904.0,7.5922875,-0.95653224,6.1329107,-0.012317181,0.042594016,0.048923016,0.40732247,-0.14627701,0.87987417,2017-03-27 08:49:01,65.83181908940385
7.4609985,-1.024704,5.985443,-0.010955811,0.004623413,0.011764526,5990.0,7.555942,-0.9993123,6.170859,0.0020298958,-0.013864815,0.02882433,0.40429264,-0.14805819,0.8808999,2017-03-27 08:49:02,66.26338748874306
7.4933167,-0.9588623,6.080017,2.4414063E-4,-0.010818481,-0.008483887,5907.0,7.580597,-0.9587422,6.1470113,-0.03879261,-0.0062524676,-0.027676105,0.4063675,-0.1464756,0.8801253,2017-03-27 08:49:03,66.24565085154504
7.5208435,-0.9576721,5.9974213,-0.017868042,0.013153076,-0.008483887,5931.0,7.579695,-0.9639875,6.1473036,-0.08008385,0.077245,0.1586132,0.40608627,-0.14720297,0.87991434,2017-03-27 08:49:04,65.35397544873284
7.4765472,-0.9576721,6.1554413,-0.0050964355,-0.02999878,0.0032348633,6027.0,7.566359,-1.0073203,6.156777,-0.02667427,0.0412426,0.05003977,0.4053922,-0.14747511,0.88109845,2017-03-27 08:49:05,66.85712960462544
7.4382477,-0.93492126,5.9902344,-2.89917E-4,-0.0038909912,-0.0036773682,5956.0,7.597155,-0.96321684,6.1258335,-0.009145737,0.018327713,0.03738308,0.40751588,-0.14697018,0.87956715,2017-03-27 08:49:06,65.95556953187005
7.633377,-1.0534363,6.0967712,0.0034332275,-0.021469116,0.010696411,6004.0,7.586378,-1.003033,6.132795,0.092206,-0.056380212,5.21183E-4,0.40696782,-0.14728093,0.8805844,2017-03-27 08:49:07,65.51090342315513
7.4466248,-0.9265442,6.145859,-0.01574707,0.004623413,-0.0063476563,6000.0,7.596811,-0.9812197,6.123403,-0.006113529,0.037461996,0.058099747,0.40735582,-0.14783292,0.8795667,2017-03-27 08:49:08,66.39726392641641
7.4370575,-0.9983673,6.1338806,0.01461792,0.008346558,-0.010070801,6020.0,7.5725536,-0.9776752,6.153939,0.010807514,0.03800583,-0.048105717,0.40629303,-0.14547302,0.8812362,2017-03-27 08:49:09,65.91070215061383
7.542389,-0.91696167,6.1015625,-0.026931763,9.0026855E-4,0.003768921,5957.0,7.5840616,-0.95624006,6.143126,0.01074934,0.03266871,8.9883804E-4,0.40685,-0.14581084,0.88030154,2017-03-27 08:49:10,65.08093005743184
7.399933,-0.91218567,6.138672,0.0066223145,-0.024139404,-0.011138916,6070.0,7.5577855,-0.97941697,6.1717916,-0.10141373,0.05991739,0.012969017,0.4049182,-0.14617619,0.8813141,2017-03-27 08:49:11,66.70555224509286
7.455002,-0.964859,6.0141754,-0.002960205,-0.008163452,-0.004211426,5985.0,7.5820026,-0.94966,6.146688,-0.007893562,0.00866431,0.026466846,0.406504,-0.14615278,0.8800391,2017-03-27 08:49:12,65.33331539113529
7.494507,-1.0103455,6.1219177,0.005569458,-0.020935059,-0.0015563965,5979.0,7.5653906,-0.9572,6.1659565,-0.027644157,-0.05861634,-0.008797646,0.40520045,-0.14641142,0.88050383,2017-03-27 08:49:13,66.2404663567246
7.609436,-1.024704,6.1805725,-0.02053833,0.009414673,0.019226074,5929.0,7.5667286,-0.9514358,6.1652074,0.08006239,-0.07796508,0.045800686,0.4053505,-0.1461263,0.880477,2017-03-27 08:49:14,66.0213655120546
7.54718,-0.89302063,6.2320557,-0.007751465,-0.0065612793,0.0032348633,5883.0,7.563608,-0.9140642,6.1746836,0.037563324,0.014518738,0.101448536,0.40534946,-0.14446653,0.8805025,2017-03-27 08:49:15,66.52465175206294
7.3783875,-0.9397125,6.001007,0.009292603,0.007827759,0.0011138916,5943.0,7.546201,-0.946061,6.191139,-0.019239902,-0.0021098256,-0.08120966,0.40382913,-0.1461893,0.88070273,2017-03-27 08:49:16,66.07070808307861
7.554367,-0.9792175,6.1614227,0.0066223145,-0.011352539,0.0027160645,5915.0,7.5546827,-0.92869955,6.183419,0.038484573,-0.05528766,0.009761333,0.4044365,-0.14548019,0.8805668,2017-03-27 08:49:17,66.57561401111155
7.577118,-0.9409027,6.0345306,-0.00881958,-0.0028381348,0.013900757,5907.0,7.561924,-0.9157561,6.1764946,-0.064110756,0.03369522,0.08061886,0.404892,-0.14542659,0.88011044,2017-03-27 08:49:18,66.55388708501411
7.459793,-0.8654938,6.2212677,0.0012969971,-0.005493164,-0.016998291,5925.0,7.5364056,-0.9183069,6.2072287,-0.022534847,0.04622376,0.058579445,0.40369797,-0.14334354,0.88182646,2017-03-27 08:49:19,67.32372687609904
7.4262695,-0.8750763,6.0979767,-0.011474609,0.0030212402,-0.016998291,5976.0,7.5617466,-0.9077477,6.1778946,-0.077971935,0.02576816,-0.032936096,0.40476432,-0.14553662,0.8798706,2017-03-27 08:49:20,64.92397871781796
7.3939514,-0.8487396,6.1757813,-0.0013580322,0.004623413,-0.029785156,5986.0,7.565328,-0.9254198,6.170882,-0.117789745,0.07012528,0.04860878,0.404926,-0.14631297,0.87981397,2017-03-27 08:49:21,67.10951716371088
7.3855743,-0.93133545,5.978256,0.018341064,0.022201538,-4.8828125E-4,6021.0,7.5543923,-0.93432766,6.1829267,-0.12654305,-0.0022363067,-0.17007065,0.40436256,-0.14577174,0.8805616,2017-03-27 08:49:22,65.0737498984642
7.6202087,-0.90379333,6.1925507,-0.0040283203,-0.008163452,-0.018600464,6024.0,7.560247,-0.9463205,6.17394,0.11919165,0.035113275,0.06697941,0.4052886,-0.14476812,0.881182,2017-03-27 08:49:23,65.67505093566864
7.664505,-0.9911804,6.126709,-8.239746E-4,-0.0038909912,0.021347046,5966.0,7.5711293,-0.9194635,6.1646547,0.13926983,-0.077290475,-5.7697296E-4,0.40625352,-0.14369462,0.8808139,2017-03-27 08:49:24,65.18992725913039
7.5950623,-0.93852234,6.095581,0.0012969971,-0.020935059,0.011230469,5991.0,7.564504,-0.93318695,6.1707234,0.020525932,-0.057272375,0.0075240135,0.40524116,-0.14546573,0.8804344,2017-03-27 08:49:25,66.90845590019381
7.4095154,-0.92056274,5.99382,0.014083862,0.017944336,-0.0036773682,5981.0,7.568094,-0.92961466,6.1668596,-0.1137476,0.0035452247,-0.13650942,0.4056294,-0.14506021,0.8804604,2017-03-27 08:49:26,64.69972576887994
7.613022,-0.9660492,6.1961365,0.0034332275,-0.0017700195,-0.022857666,6082.0,7.5442915,-0.9765675,6.1887283,-0.16517591,0.07604909,0.052075386,0.40401942,-0.14570852,0.88181424,2017-03-27 08:49:27,66.21138881195347
7.5507813,-0.9373169,6.051285,0.021011353,0.0014343262,0.0069732666,5987.0,7.570963,-0.9469193,6.1607018,0.036087036,0.0025647879,-0.06362963,0.40596572,-0.14520143,0.88071615,2017-03-27 08:49:28,66.19567965433855
7.444229,-0.9959717,6.178177,-0.0013580322,0.015808105,-0.0026245117,6145.0,7.5436964,-0.9961529,6.186332,-0.047361374,-0.006699443,0.034574986,0.40369302,-0.14702646,0.8816349,2017-03-27 08:49:29,66.17326692988227
6.6194305,-0.18075562,6.7444153,0.09397888,0.39663696,-0.15602112,654.0,6.8040805,-0.06936392,7.061875,-0.15544128,-0.111689456,-0.28714418,0.3671945,-0.07150398,0.91205287,2017-03-27 08:49:30,65.0182867718546
6.213608,-0.056259155,7.3621063,-0.018936157,0.090911865,-0.077178955,706.0,6.542215,-0.06359633,7.305188,-0.13591146,0.02861891,0.3188014,0.3542424,-0.045292355,0.92762154,2017-03-27 08:49:31,65.5827419217266
6.1405945,0.019165039,7.0388947,-0.031723022,-0.12107849,-0.0015563965,693.0,6.299103,0.018325754,7.5160728,-0.12052345,9.497944E-4,-0.43185425,0.34091958,-0.023680478,0.93734175,2017-03-27 08:49:32,65.417560004574
6.376419,-0.10293579,7.213669,-0.0184021,-0.019882202,0.0043029785,785.0,6.4425926,-0.09723894,7.39283,0.057269096,0.02667296,0.05352497,0.35057098,-0.018560616,0.93573076,2017-03-27 08:49:33,66.1952260520462
6.309387,-0.029922485,7.3908386,-0.0184021,-7.019043E-4,-0.011138916,803.0,6.42504,-0.06147291,7.4084725,-0.07454252,0.031157095,0.029768467,0.3493566,-0.014932716,0.9363561,2017-03-27 08:49:34,66.41707262279525
6.305786,-0.05744934,7.202896,0.039123535,-0.028930664,0.008575439,843.0,6.3908277,-0.09660144,7.4376316,-0.063272476,0.038823046,-0.20940113,0.3471813,-0.01585699,0.9372271,2017-03-27 08:49:35,65.00702332649621
6.424301,-0.0957489,7.3668976,0.0012969971,-0.0023040771,0.019226074,841.0,6.3752184,-0.07425962,7.4512725,0.07285261,-0.021766156,-0.056593418,0.34626737,-0.013774662,0.9376641,2017-03-27 08:49:36,65.11714332414506
6.448242,-0.14125061,7.363312,0.0018310547,0.008880615,0.016021729,879.0,6.4355626,-0.1520416,7.3980274,0.0026316643,-0.006602496,-0.0718441,0.35001197,-0.017239448,0.93627983,2017-03-27 08:49:37,65.29381657539231
6.2830505,-0.037094116,7.4171753,0.016220093,0.01473999,-0.012207031,851.0,6.370412,-0.08846207,7.455227,-0.051743507,0.050873347,0.0036320686,0.345983,-0.013600433,0.9378395,2017-03-27 08:49:38,66.3691641323571
6.467392,-0.09336853,7.2388153,0.02154541,0.04296875,0.02720642,850.0,6.309466,-0.14544357,7.50599,0.0149436,0.033315197,-0.07665062,0.34216958,-0.014866817,0.93932563,2017-03-27 08:49:40,65.88758043537909
5.8532867,-0.22265625,7.2783203,-0.010421753,-0.019348145,0.008041382,811.0,6.2832723,-0.1273428,7.5282583,0.04390812,0.042078674,0.14895058,0.34061575,-0.012107229,0.9400151,2017-03-27 08:49:41,66.36398387393447
6.280655,-0.21665955,7.435135,0.027404785,-0.0033721924,0.0011138916,762.0,6.207844,-0.20112093,7.5889797,0.09255552,-0.016178295,-0.12970734,-0.3361246,0.00948582,-0.94176155,2017-03-27 08:49:42,66.68259766286721
6.1405945,-0.1592102,7.624283,0.0034332275,0.0024871826,0.0027160645,726.0,6.1562395,-0.13284141,7.6323953,0.001224041,-0.026732802,0.012801647,-0.33288318,0.0067034187,-0.9429433,2017-03-27 08:49:43,64.95724771183421
6.177704,-0.16519165,7.5368958,0.014083862,0.022201538,0.013900757,744.0,6.233169,-0.17278264,7.5688934,0.11648893,0.0021808594,-0.05637026,-0.3376936,0.00754263,-0.94121224,2017-03-27 08:49:44,66.58083104060638
6.190872,-0.12208557,7.387253,0.032730103,0.015808105,-0.0058135986,722.0,6.1783705,-0.107226394,7.6148953,0.039810658,-0.015333131,-0.19398355,-0.33425468,0.0047122804,-0.942466,2017-03-27 08:49:45,66.21129057637407
6.202835,-0.14842224,7.4626617,-0.010421753,0.0056915283,-0.0047454834,735.0,6.1890354,-0.13163519,7.605847,0.028647423,-0.017102838,-0.12493849,-0.33491206,0.0066083167,-0.9422251,2017-03-27 08:49:46,65.71146971160542
6.250717,-0.16159058,7.5596313,-8.239746E-4,0.011016846,-0.007949829,759.0,6.208694,-0.1462349,7.5895405,0.06716108,-0.01594776,8.196831E-4,0.33612266,-0.007918041,0.9417849,2017-03-27 08:49:47,65.37645581012922
6.1968536,-0.20948792,7.642227,0.006088257,-0.012954712,0.022949219,775.0,6.1759496,-0.1478004,7.616179,0.0766654,0.02498217,0.050633907,0.33409363,-0.008023902,0.9425057,2017-03-27 08:49:48,65.90890608177716
6.1609344,-0.12568665,7.265152,0.04284668,0.02859497,-0.0031433105,834.0,6.236398,-0.20575556,7.5654078,-0.04897356,0.07919493,-0.2681203,0.33783188,-0.011882445,0.9411292,2017-03-27 08:49:49,65.90866288400139
6.1992493,-0.16758728,7.5596313,0.012481689,-0.005493164,5.79834E-4,799.0,6.182836,-0.1531273,7.6104846,-0.044167995,0.03866574,-0.07089043,0.3345095,-0.00875681,0.94235075,2017-03-27 08:49:50,65.56081965688891
6.2483215,-0.22503662,7.6937103,-0.018936157,-0.007095337,-0.019134521,825.0,6.2313423,-0.20512906,7.5695896,0.045710564,-0.02085337,0.15902281,0.33751416,-0.011939386,0.9412419,2017-03-27 08:49:51,64.65811270455022
6.233963,-0.14604187,7.55365,-2.89917E-4,0.021133423,0.0101623535,803.0,6.1792054,-0.13998869,7.613685,0.012208939,0.01143299,0.08062744,0.33424354,-0.009557003,0.9424217,2017-03-27 08:49:52,65.94312777180544
6.272278,-0.20349121,7.5356903,-0.009887695,-0.020935059,0.020812988,838.0,6.2304034,-0.18911403,7.570779,0.080827236,-0.021404639,-5.79834E-4,0.33703446,-0.011647497,0.9414078,2017-03-27 08:49:53,65.87818110737811
6.1262207,-0.22503662,7.4626617,0.0018310547,-0.0033721924,-0.0047454834,875.0,6.2181954,-0.20940946,7.580276,-0.055265903,-0.016863406,-0.07286453,0.33666724,-0.012987023,0.94152284,2017-03-27 08:49:54,65.94623929079057
6.273468,-0.21665955,7.4626617,7.6293945E-4,-0.0023040771,-0.009002686,872.0,6.249511,-0.20817366,7.554513,0.05899191,-0.009652898,-0.04949999,0.3385805,-0.013794355,0.9408104,2017-03-27 08:49:55,65.77720063808117
6.2387543,-0.21546936,7.435135,0.015151978,0.0051574707,0.013366699,846.0,6.2153797,-0.16531952,7.5836744,-0.086269855,-7.132143E-4,0.026518345,0.3366459,-0.011918458,0.941522,2017-03-27 08:49:56,66.43665921320172
6.237549,-0.20828247,7.570404,-0.0024261475,0.017410278,-0.018600464,874.0,6.239252,-0.21895833,7.5626836,0.028028011,0.009632498,0.04375744,0.33793318,-0.01454728,0.941028,2017-03-27 08:49:57,65.64059766413234
6.272278,-0.19152832,7.4961853,0.004501343,-0.0065612793,0.014419556,876.0,6.1985755,-0.1964774,7.596674,0.12663984,5.5781007E-4,-0.0118813515,0.3354416,-0.012505677,0.9419634,2017-03-27 08:49:58,67.11809411444537
6.1836853,-0.14842224,7.506958,-0.12387085,-0.2979126,-0.0047454834,957.0,6.346263,-0.26715648,7.471544,-0.14034367,0.11779827,0.06159067,0.34458023,-0.01793748,0.93853915,2017-03-27 08:49:59,65.4603926960432
9.809708,-1.1743469,7.423172,0.256958,0.3987732,-0.41912842,1060.0,6.296513,0.19006725,7.5158615,3.4675355,-1.4175346,-1.6128392,0.33414638,-0.008627731,0.94168574,2017-03-27 08:50:00,66.09419934955983
9.66246,-0.5614319,4.861374,0.14457703,-0.09550476,0.2375946,6803.0,8.271336,-1.1597655,5.1390986,1.4250412,0.593578,-0.2566514,-0.483706,0.06330395,-0.8729015,2017-03-27 08:50:01,65.21939416869037
8.464157,-0.6919098,11.766251,-0.65649414,-0.50083923,0.6408081,998.0,7.286572,-0.5963639,6.5360994,4.8603992,0.7722999,-0.048591614,-0.40769577,0.023147743,-0.9125404,2017-03-27 08:50:02,70.49764513243784
6.16214,-1.3395386,6.364929,0.3784027,-0.1455841,-0.081451416,3520.0,6.2237263,-1.7504488,7.3737073,-0.029583931,0.4019096,-0.9708624,-0.3462062,0.0647059,-0.9321865,2017-03-27 08:50:03,67.18481704399832
6.24234,-0.925354,7.091568,-0.19258118,-0.031066895,-0.20820618,2361.0,6.6123643,-1.1354941,7.1524596,-0.053652287,-0.12808514,-0.12443495,-0.36569968,0.039872326,-0.92812264,2017-03-27 08:50:04,67.18388519339851
6.522461,-1.1504059,7.06044,0.010894775,-0.07366943,0.007507324,4337.0,6.596684,-1.2424774,7.1491528,-0.03890848,0.080131054,-0.050551414,-0.36696458,0.02835461,-0.9243578,2017-03-27 08:50:05,66.5781062015009
6.546402,-1.4101715,6.8485565,-0.007751465,0.042434692,-0.006881714,4940.0,6.628278,-1.4245127,7.085696,-0.04148054,0.0056596994,-0.19395638,-0.37189308,0.020629698,-0.9167364,2017-03-27 08:50:06,66.7872797157053
6.758301,-1.4484863,7.035309,0.083862305,-0.20309448,-0.002090454,6012.0,6.8270545,-1.4206315,6.8951807,-0.03268099,-0.03536117,0.17656136,-0.3850341,0.013869309,-0.9096273,2017-03-27 08:50:07,67.43901614488786
7.100662,-1.4053802,6.42717,-0.01361084,0.08505249,0.008041382,6316.0,7.219235,-1.4417222,6.4787703,-0.005777359,-0.008227944,0.008804798,-0.41190562,0.002896804,-0.89481,2017-03-27 08:50:08,67.03250898024605
7.103058,-1.411377,6.514572,0.015151978,0.04296875,0.0016479492,6333.0,7.150153,-1.4307367,6.557338,0.011552811,0.0076242685,0.011019707,-0.40702277,0.001124401,-0.89615405,2017-03-27 08:50:09,66.45171328702266
7.0827026,-1.3850403,6.48584,0.003967285,-0.0065612793,-4.8828125E-4,6678.0,7.1935005,-1.4385655,6.508032,-0.014136791,0.017925382,0.0048775673,-0.40969485,-0.00331695,-0.8931199,2017-03-27 08:50:10,66.37094345048149
7.1042633,-1.3993988,6.5708313,0.004501343,0.05895996,-0.0036773682,6588.0,7.159463,-1.4332622,6.546621,9.0169907E-4,0.02263236,0.075510025,-0.40765318,-0.0058422927,-0.89269257,2017-03-27 08:50:11,67.49977432750231
7.0982666,-1.4077759,6.430771,0.00289917,0.007293701,-0.0063476563,6787.0,7.207875,-1.448288,6.489944,-0.012198448,-0.003345728,0.029396057,-0.4104317,-0.006171521,-0.8911348,2017-03-27 08:50:12,68.94961006133704
7.15094,-1.4209442,6.5552673,0.0050354004,0.053100586,-0.0036773682,6831.0,7.195443,-1.4506121,6.5032086,0.00713253,0.019258022,0.09872627,-0.41035488,-0.0061258576,-0.8911308,2017-03-27 08:50:13,66.67575488951277
7.061157,-1.3946075,6.5756226,0.0066223145,-0.019882202,0.0027160645,6794.0,7.206919,-1.4488286,6.4908857,-0.031795025,-0.025629759,-0.008734703,-0.4111303,-0.005367645,-0.8912594,2017-03-27 08:50:14,67.10332638318438
7.1653137,-1.4448853,6.435562,-0.0050964355,-0.0395813,5.79834E-4,6855.0,7.206814,-1.4450473,6.4918456,-0.022695541,-0.020154476,0.025447369,-0.41105807,-0.0062656957,-0.89096195,2017-03-27 08:50:15,67.2726658897833
7.140167,-1.4460907,6.3469696,-0.0050964355,-0.040115356,0.006439209,6895.0,7.225016,-1.4493927,6.47061,-0.016151905,-0.010479212,-0.0621171,-0.4124046,-0.0036281843,-0.8915873,2017-03-27 08:50:16,67.4584934273351
7.1569214,-1.4496765,6.461899,0.006088257,0.037643433,0.0021820068,7040.0,7.2217164,-1.4548141,6.473076,-0.0065517426,-0.0065956116,0.0410285,-0.41225016,-0.0038455932,-0.8914033,2017-03-27 08:50:17,67.74033663362921
7.115036,-1.4041901,6.4774475,0.0023651123,-7.019043E-4,-4.8828125E-4,6951.0,7.215234,-1.4479462,6.4818397,-0.032114506,0.030093193,0.0567708,-0.41181704,-0.00273268,-0.8921928,2017-03-27 08:50:18,67.31001396816362
