ACC_X,ACC_Y,ACC_Z,GYRO_X,GYRO_Y,GYRO_Z,LIGH_1,GRAV_X,GRAV_Y,GRAV_Z,LINACC_X,LINACC_Y,LINACC_Z,ROTVEC_X,ROTVEC_Y,ROTVEC_Z,TIME,VOICE
-1.2367096,0.07261658,9.816254,8.239746E-4,-0.0012512207,0.0011138916,10.0,-1.2289999,0.07543918,9.729042,-0.0056529045,-0.0034527555,0.016944885,-0.0571102,0.026369425,0.9300258,2017-05-24 14:56:31,34.68348253656248
-2.075882,-0.2434082,10.089188,-0.3368683,0.7849121,-0.072387695,10.0,-1.7065727,-0.12876604,9.656158,-0.0884881,0.020358011,0.48667717,-0.08357655,0.026226882,0.925322,2017-05-24 14:56:32,47.51344839950291
-1.2997589,0.030319214,9.855759,0.020004272,-0.027877808,0.003250122,10.0,-1.2521101,0.0493124,9.726262,-0.029271007,-0.04134562,0.026904106,-0.059293095,0.025491351,0.92946357,2017-05-24 14:56:33,56.45905927850006
-1.287384,0.022735596,9.824219,0.002960205,-0.006576538,0.0011138916,10.0,-1.2653016,0.03256289,9.724626,-0.006788969,-0.0047415122,0.014336586,-0.05963667,0.025011329,0.92987543,2017-05-24 14:56:34,57.321826069501746
-1.2594604,0.018753052,9.792313,0.0050811768,-0.008712769,4.5776367E-5,10.0,-1.2578064,0.037164804,9.725581,-0.0040664673,-0.005886309,0.006313324,-0.05919552,0.02508503,0.92993367,2017-05-24 14:56:35,53.880750125037835
-1.273819,0.035507202,9.813858,-2.4414063E-4,-0.0012512207,4.5776367E-5,10.0,-1.2553313,0.033866696,9.725913,-0.0016088486,-0.009045519,-0.003689766,-0.059028435,0.025141455,0.9283421,2017-05-24 14:56:36,48.77463539062831
-1.2618561,0.023544312,9.823425,-2.4414063E-4,8.8500977E-4,4.5776367E-5,10.0,-1.2585162,0.03467797,9.725498,-0.0031061172,0.00483704,-3.633499E-4,-0.059155244,0.025263386,0.9281874,2017-05-24 14:56:37,27.115014286868053
-1.2702332,0.039108276,9.824631,-0.0011138916,0.0019989014,6.1035156E-5,10.0,-1.2524289,0.031021,9.726296,0.0039885044,-0.00521503,-0.0010194778,-0.058893897,0.025067847,0.9276267,2017-05-24 14:56:38,31.408903767306086
-1.2546692,0.040298462,9.8042755,0.005264282,-0.01399231,0.0011291504,10.0,-1.2539686,0.032658923,9.726093,-0.011867404,0.0027655214,0.01499176,-0.058936615,0.025174415,0.9276241,2017-05-24 14:56:39,53.283409128055126
-1.2594604,0.024734497,9.793503,0.0074005127,-0.012924194,0.0011291504,10.0,-1.2556995,0.035757773,9.725858,0.0032500029,0.01019571,-0.009833336,-0.059004944,0.025251446,0.9282591,2017-05-24 14:56:40,54.86688682874343
-1.2702332,0.04748535,9.825821,-0.0043182373,0.0051879883,-0.0010070801,10.0,-1.2540885,0.029429574,9.726089,0.0050783157,-0.0022742376,-0.010127068,-0.05907877,0.024844255,0.9287357,2017-05-24 14:56:41,58.64246306738597
-1.3073425,0.019943237,9.770752,0.0010070801,-0.009719849,-0.0020751953,10.0,-1.2420455,0.03331163,9.72762,0.024166107,2.9024482E-4,0.0025024414,-0.058381893,0.02491879,0.9280446,2017-05-24 14:56:42,60.71690747959814
-0.91947937,0.11332703,9.628296,0.31739807,-0.5647278,0.040542603,10.0,-1.2675412,0.05371954,9.72424,-0.25968266,-0.1940263,0.11620426,-0.059433755,0.025872458,0.9310074,2017-05-24 14:56:43,60.52066007310886
-1.247879,0.026733398,9.813461,0.004211426,-0.0043945313,6.1035156E-5,10.0,-1.2472665,0.031718716,9.726957,-0.0119069815,-0.009947468,0.022116661,-0.058811408,0.024402998,0.931707,2017-05-24 14:56:44,54.536715647905645
-1.2606506,0.029525757,9.825821,-6.1035156E-5,9.3078613E-4,6.1035156E-5,10.0,-1.2499732,0.03279286,9.726607,0.006295681,9.746365E-4,0.001241684,-0.059216876,0.023967456,0.9345614,2017-05-24 14:56:45,30.05812370593557
-1.2654419,0.034317017,9.818649,0.0010070801,-1.373291E-4,6.1035156E-5,10.0,-1.2481846,0.03473874,9.72683,-0.0077171326,0.003458552,-0.006661415,-0.059131686,0.023940656,0.93508506,2017-05-24 14:56:46,30.55452993214798
-1.2702332,0.036712646,9.823425,-6.1035156E-5,-1.373291E-4,6.1035156E-5,10.0,-1.2519423,0.03708282,9.726338,-0.005950451,-9.147376E-4,0.0022201538,-0.05926553,0.024132386,0.9350018,2017-05-24 14:56:47,44.210907779775255
-1.2702332,0.040298462,9.812653,-6.1035156E-5,-0.0022735596,6.1035156E-5,10.0,-1.2500182,0.036234576,9.726589,-0.0063289404,0.0013794117,-2.2697449E-4,-0.059185743,0.024063315,0.93497217,2017-05-24 14:56:48,47.53935074347113
-1.2726288,0.036712646,9.818649,5.79834E-4,-4.5776367E-5,9.1552734E-5,10.0,-1.2504008,0.038153514,9.726532,-0.0028846264,0.0057008155,-0.003750801,-0.05916746,0.024167921,0.9349361,2017-05-24 14:56:49,46.585978498848306
-1.2594604,0.046279907,9.816254,0.0016479492,-0.0011138916,9.1552734E-5,10.0,-1.2548374,0.037888713,9.725962,-0.0017102957,0.0040904507,0.007413864,-0.05940542,0.024172815,0.9350734,2017-05-24 14:56:50,50.11223790778379
-1.2750244,0.043884277,9.818649,-4.8828125E-4,0.0010223389,9.1552734E-5,10.0,-1.2512403,0.039022647,9.72642,-0.0034766197,5.8330595E-4,-0.0010604858,-0.059192535,0.024223974,0.93493706,2017-05-24 14:56:51,51.06577369987722
-1.2654419,0.04508972,9.811462,-0.0015411377,0.0010223389,9.1552734E-5,10.0,-1.252223,0.042178184,9.726281,-0.0074982643,0.009043522,0.0044384003,-0.059180126,0.024400607,0.9348868,2017-05-24 14:56:52,56.86077617457784
-1.282196,0.0019836426,9.809067,-0.002609253,0.0031433105,9.1552734E-5,10.0,-1.2508792,0.032426454,9.726492,0.012456417,-0.011821408,-0.0054740906,-0.059303053,0.02387679,0.9350856,2017-05-24 14:56:53,33.791079889810874
-1.2606506,0.037902832,9.816254,-4.8828125E-4,-4.5776367E-5,9.1552734E-5,10.0,-1.2510604,0.040206693,9.726439,0.006362319,0.005817458,-0.006957054,-0.059160404,0.024283106,0.934904,2017-05-24 14:56:54,27.071002345790983
-1.2762146,0.030715942,9.827026,-4.8828125E-4,-4.5776367E-5,9.1552734E-5,10.0,-1.2536159,0.038949087,9.726116,-0.0013072491,-7.0093945E-4,-0.002732277,-0.059312932,0.02425105,0.93500054,2017-05-24 14:56:55,25.609074588939237
-1.2678375,0.036712646,9.807861,-4.8828125E-4,0.0010223389,9.1552734E-5,10.0,-1.2542912,0.038798444,9.726029,-0.0027554035,-0.0035658292,-0.009041786,-0.059318427,0.024275428,0.93499786,2017-05-24 14:56:56,25.12703152772049
-1.2690277,0.040298462,9.817444,-4.8828125E-4,0.0010223389,9.1552734E-5,10.0,-1.2526784,0.040317435,9.726231,-0.007880688,0.004212994,0.0037727356,-0.059239276,0.024309918,0.9349434,2017-05-24 14:56:57,31.683911250700323
-1.2606506,0.051071167,9.82103,-0.0015411377,-4.5776367E-5,9.1552734E-5,10.0,-1.2485213,0.038289893,9.726773,0.0023409128,0.006435603,0.004128456,-0.0590707,0.02415051,0.934884,2017-05-24 14:56:58,46.291247229461085
-1.258255,0.036712646,9.806671,-4.8828125E-4,-4.5776367E-5,9.1552734E-5,10.0,-1.2517687,0.039236628,9.726353,-3.8588047E-4,0.004161656,0.005473137,-0.059214815,0.024241962,0.93494564,2017-05-24 14:56:59,54.62573893658188
-1.2630463,0.036712646,9.817444,-0.0015411377,0.0010223389,9.1552734E-5,10.0,-1.250581,0.03694612,9.726514,-0.0023903847,6.841086E-4,-0.0010547638,-0.05921099,0.024089724,0.93498045,2017-05-24 14:57:00,44.13033436024045
-1.2618561,0.035507202,9.815048,-4.8828125E-4,-4.5776367E-5,9.1552734E-5,10.0,-1.2518483,0.034919374,9.726358,-0.0016307831,0.0034224913,0.0049858093,-0.059303008,0.024018826,0.93505114,2017-05-24 14:57:01,46.615050104550306
-1.2666473,0.043884277,9.818649,-4.8828125E-4,0.0010223389,9.1552734E-5,10.0,-1.2528183,0.039656706,9.726214,0.008055091,9.6282363E-4,-0.0014505386,-0.0592436,0.024251575,0.93496007,2017-05-24 14:57:03,59.58025632621424
-1.2558594,0.036712646,9.812653,-4.8828125E-4,-4.5776367E-5,9.1552734E-5,10.0,-1.2477964,0.038619716,9.726865,0.002884388,0.0018978864,-3.1471252E-4,-0.059027966,0.024158174,0.93485725,2017-05-24 14:57:04,52.21018509721382
-1.2642517,0.041488647,9.827026,-4.8828125E-4,0.0010223389,9.1552734E-5,10.0,-1.247236,0.037782207,9.726939,-0.0032036304,0.0015522093,0.009395599,-0.059026264,0.024110114,0.934868,2017-05-24 14:57:05,55.07717875715477
-1.253479,0.04988098,9.816254,-4.8828125E-4,0.0010223389,9.1552734E-5,10.0,-1.2516004,0.035199244,9.726389,0.005113244,-1.6126782E-5,0.0024938583,-0.059265956,0.024059204,0.9350198,2017-05-24 14:57:06,50.77255847622352
-1.253479,0.030715942,9.823425,-4.8828125E-4,-4.5776367E-5,9.1552734E-5,10.0,-1.2520746,0.03794696,9.726317,-0.0028368235,0.0014344789,0.0059928894,-0.059255306,0.024178978,0.93498456,2017-05-24 14:57:07,60.1936589647197
-1.2702332,0.043884277,9.815048,5.79834E-4,-4.5776367E-5,9.1552734E-5,10.0,-1.25208,0.036292437,9.726323,0.0046236515,-0.0021882504,-0.0073604584,-0.059287842,0.024093136,0.9350243,2017-05-24 14:57:08,45.56382585277674
-1.258255,0.037902832,9.803085,-4.8828125E-4,-4.5776367E-5,-9.765625E-4,10.0,-1.2509191,0.036699787,9.726471,-0.0016890764,-5.42365E-4,-5.531311E-4,-0.059221774,0.024099192,0.9349844,2017-05-24 14:57:09,47.806741485453074
-1.253479,0.054656982,9.82103,-4.8828125E-4,0.002090454,-9.765625E-4,10.0,-1.2459847,0.037550397,9.727101,-0.0044885874,7.750876E-4,0.0028352737,-0.058958154,0.024079025,0.93483585,2017-05-24 14:57:10,51.35864220762164
-1.2654419,0.013961792,9.830612,-0.0047454834,0.0063476563,-9.765625E-4,10.0,-1.2503687,0.03225992,9.726558,-0.0029388666,-0.014145657,5.426407E-4,-0.05915428,0.02398971,0.93497175,2017-05-24 14:57:11,51.4920540116922
-1.2750244,0.04269409,9.827026,-0.002609253,0.004211426,9.1552734E-5,10.0,-1.2503303,0.036939338,9.726545,7.0905685E-4,0.0045330785,-0.0050439835,-0.05918763,0.02410397,0.9349634,2017-05-24 14:57:12,48.74722363404966
-1.2666473,0.048675537,9.835403,5.79834E-4,-0.0011138916,0.001159668,10.0,-1.2493513,0.035312347,9.726678,0.0078526735,-0.004761141,-0.0018959045,-0.05917034,0.024006756,0.93497694,2017-05-24 14:57:13,55.61391447152154
-1.2618561,0.030715942,9.824631,5.79834E-4,-4.5776367E-5,9.1552734E-5,10.0,-1.2531707,0.034647398,9.726189,-0.0015951395,-0.0017710812,0.0019550323,-0.05937452,0.024021875,0.935092,2017-05-24 14:57:14,58.974320092319424
-1.2630463,0.04508972,9.835403,-0.006881714,0.022323608,-9.765625E-4,10.0,-1.2623801,0.028338568,9.725018,0.006391287,-0.031996645,-0.016983032,-0.059958376,0.023813043,0.9354812,2017-05-24 14:57:15,46.867398319027316
-1.2690277,0.034317017,9.8198395,0.0016479492,-0.003250122,9.1552734E-5,10.0,-1.2533683,0.036297083,9.726157,-0.0020551682,-0.0040071793,0.0041160583,-0.059377145,0.02404876,0.9354175,2017-05-24 14:57:16,54.43350991644071
-1.2522736,0.040298462,9.805481,5.79834E-4,-0.0021820068,9.1552734E-5,10.0,-1.2529696,0.037987366,9.726203,0.0060276985,0.007839039,2.0217896E-4,-0.059384797,0.023982158,0.9362385,2017-05-24 14:57:17,49.3388347039937
-1.2522736,0.043884277,9.82103,0.0016479492,-0.0011138916,9.1552734E-5,10.0,-1.2497419,0.036118325,9.7266245,-0.008967876,4.518926E-4,-6.6185E-4,-0.059264444,0.023830421,0.9362766,2017-05-24 14:57:18,57.4806559420486
-1.258255,0.028320313,9.82103,5.79834E-4,-0.0011138916,9.1552734E-5,10.0,-1.2490563,0.036348253,9.726712,0.0029004812,0.0033569224,-5.531311E-4,-0.05922561,0.023833666,0.9362531,2017-05-24 14:57:19,57.07144749057174
-1.2666473,0.04508972,9.831818,-4.8828125E-4,0.002090454,9.1552734E-5,10.0,-1.2516583,0.036526423,9.726377,0.0010094643,0.004624039,0.012625694,-0.059352692,0.023875996,0.9363174,2017-05-24 14:57:20,50.226826662577785
-1.2594604,0.037902832,9.822235,-0.0015411377,0.0031433105,9.1552734E-5,10.0,-1.2521996,0.0362993,9.726308,0.0053118467,0.0026467517,0.0032949448,-0.059384234,0.023871047,0.9363371,2017-05-24 14:57:21,56.34289686674666
-1.2630463,0.034317017,9.8198395,0.0016479492,-0.003250122,9.1552734E-5,10.0,-1.2493062,0.038651373,9.726671,0.0015288591,0.0031571202,0.0069303513,-0.059193615,0.023956655,0.9362045,2017-05-24 14:57:22,60.934524349248264
-1.2666473,0.023544312,9.860535,-0.00793457,0.012741089,-9.765625E-4,10.0,-1.2529775,0.032162696,9.726223,0.0051357746,-0.013667576,-0.0075130463,-0.05950308,0.023665633,0.9364564,2017-05-24 14:57:23,38.96289940156194
-1.2702332,0.036712646,9.828217,5.79834E-4,-0.0011138916,9.1552734E-5,10.0,-1.2515123,0.03463946,9.726403,-9.865761E-4,-0.0030421615,0.0025558472,-0.059274703,0.02404171,0.9348031,2017-05-24 14:57:24,35.98441673088263
-1.2702332,0.036712646,9.813858,-4.8828125E-4,0.0010223389,9.1552734E-5,10.0,-1.2530615,0.036515642,9.726196,-0.0019336939,-0.00567957,0.0011434555,-0.059397835,0.023956455,0.9359868,2017-05-24 14:57:25,34.65181553187391
-1.273819,0.031921387,9.813858,-4.8828125E-4,0.0010223389,9.1552734E-5,10.0,-1.2558266,0.033674005,9.725849,0.0057052374,-0.0040631294,-0.004673004,-0.059504904,0.02401892,0.9350113,2017-05-24 14:57:26,48.38983331497825
-1.2678375,0.039108276,9.807861,-4.8828125E-4,-4.5776367E-5,0.001159668,10.0,-1.2570593,0.035232842,9.725685,0.0049961805,0.0027861334,0.007604599,-0.059546005,0.024131928,0.9350078,2017-05-24 14:57:27,56.74377246650781
-1.2498779,0.04508972,9.8198395,-4.8828125E-4,-4.5776367E-5,9.1552734E-5,10.0,-1.2534987,0.036851663,9.726137,0.010602474,0.0049109682,0.003159523,-0.059336007,0.024170037,0.9348747,2017-05-24 14:57:28,49.26959681068864
-1.2726288,0.039108276,9.809067,-4.8828125E-4,0.0010223389,0.001159668,10.0,-1.2551644,0.034504615,9.725932,-0.001367569,0.001118578,0.0011854172,-0.05946529,0.024069583,0.93497556,2017-05-24 14:57:29,24.053516970294922
-1.2618561,0.04508972,9.812653,-4.8828125E-4,0.0010223389,9.1552734E-5,10.0,-1.2535787,0.033977147,9.726139,0.0012549162,-0.0102822855,0.004764557,-0.059396155,0.024021652,0.9349466,2017-05-24 14:57:30,54.19621658090095
-1.2558594,0.037902832,9.8198395,-4.8828125E-4,-0.0011138916,9.1552734E-5,10.0,-1.2529887,0.03627413,9.726207,0.007355213,0.008154944,-0.0040283203,-0.05932174,0.024133408,0.9348753,2017-05-24 14:57:31,60.07874963423974
-1.258255,0.028320313,9.815048,5.79834E-4,-4.5776367E-5,0.001159668,10.0,-1.2509924,0.035558686,9.726466,0.0016607046,0.0030823685,0.013381958,-0.059199594,0.024063183,0.9348206,2017-05-24 14:57:32,52.70164458844952
-1.2690277,0.041488647,9.831818,-4.8828125E-4,0.0010223389,9.1552734E-5,10.0,-1.2539159,0.036607325,9.726086,-0.001904726,0.0016738735,-0.0033855438,-0.059361678,0.024162738,0.93489164,2017-05-24 14:57:33,38.40137865199473
-1.2726288,0.039108276,9.816254,5.79834E-4,-4.5776367E-5,9.1552734E-5,10.0,-1.2546122,0.037802495,9.725992,0.0020155907,0.003334973,-0.0078725815,-0.059373192,0.024233881,0.934881,2017-05-24 14:57:34,26.041922913180674
-1.2630463,0.039108276,9.822235,-4.8828125E-4,-4.5776367E-5,9.1552734E-5,10.0,-1.2496226,0.039836578,9.726625,0.0031671524,-3.584139E-4,0.004863739,-0.059103105,0.024268184,0.9347132,2017-05-24 14:57:35,24.609729737111344
-1.2546692,0.04508972,9.82103,-4.8828125E-4,0.0010223389,9.1552734E-5,10.0,-1.2520627,0.03439886,9.726332,-0.0054085255,0.0012939572,-0.0011768341,-0.05929038,0.024059197,0.9348751,2017-05-24 14:57:36,27.4712765605795
-1.2714233,0.046279907,9.825821,-0.0015411377,0.002090454,9.1552734E-5,10.0,-1.2552748,0.03523041,9.725915,0.0024307966,0.004657645,-0.00543499,-0.059401594,0.024087166,0.9349337,2017-05-24 14:57:37,29.28045215127185
-1.2690277,0.041488647,9.818649,5.79834E-4,-0.0021820068,9.1552734E-5,10.0,-1.2535113,0.039541986,9.726127,0.005431056,-0.002939999,-0.0021018982,-0.05928402,0.024310034,0.9348096,2017-05-24 14:57:38,36.54981220821807
-1.2654419,0.039108276,9.816254,-4.8828125E-4,-4.5776367E-5,9.1552734E-5,10.0,-1.2526224,0.037675776,9.726249,-5.726814E-4,0.0012622103,6.389618E-4,-0.05927599,0.02420151,0.9348316,2017-05-24 14:57:40,32.34468640945627
-1.2618561,0.035507202,9.828217,-4.8828125E-4,0.0010223389,9.1552734E-5,10.0,-1.250189,0.034127433,9.726574,-0.0067275763,-0.0015951544,-0.0016126633,-0.05932195,0.023965875,0.9349166,2017-05-24 14:57:41,26.794875171542124
-1.2618561,0.034317017,9.806671,5.79834E-4,-0.0011138916,9.1552734E-5,10.0,-1.2537448,0.03374727,9.726118,-2.270937E-4,-0.0015881807,8.916855E-4,-0.059438583,0.023998205,0.93497735,2017-05-24 14:57:42,27.90352247495061
-1.2594604,0.040298462,9.818649,-0.0015411377,0.002090454,9.1552734E-5,10.0,-1.2542043,0.032768305,9.726062,-0.0037958622,-0.0049480274,0.0013237,-0.05945109,0.023966903,0.9349924,2017-05-24 14:57:43,29.209511935733403
-1.2678375,0.035507202,9.809067,-4.8828125E-4,0.0010223389,-9.765625E-4,10.0,-1.2552056,0.033385172,9.725931,0.005044818,-0.003003098,-0.0059862137,-0.0594892,0.024011916,0.9350038,2017-05-24 14:57:44,25.54735160239792
-1.2642517,0.030715942,9.810257,5.79834E-4,-0.0021820068,9.1552734E-5,10.0,-1.2537322,0.03425392,9.726117,-6.9618225E-5,-5.757101E-4,0.007569313,-0.05939845,0.024038028,0.934944,2017-05-24 14:57:45,26.379476111920855
-1.2522736,0.037902832,9.815048,5.79834E-4,-0.0011138916,9.1552734E-5,10.0,-1.2508552,0.032341093,9.726495,-5.605221E-4,7.558726E-4,-0.0023946762,-0.059291713,0.023901349,0.93491465,2017-05-24 14:57:46,27.952226496804865
-1.2594604,0.040298462,9.805481,0.0016479492,-0.0021820068,9.1552734E-5,10.0,-1.2526289,0.032702178,9.726266,0.0064343214,9.051226E-4,0.0022468567,-0.05937348,0.023943087,0.93495256,2017-05-24 14:57:47,33.955052187259554
-1.2678375,0.035507202,9.812653,-0.0015411377,0.002090454,9.1552734E-5,10.0,-1.2548422,0.033572543,9.725977,3.3283234E-4,0.0038523935,-0.002784729,-0.05945459,0.023998816,0.93498665,2017-05-24 14:57:48,31.11173742290937
-1.2594604,0.043884277,9.812653,8.8500977E-4,-0.0024261475,-1.2207031E-4,10.0,-1.253488,0.03440922,9.726149,5.259514E-4,0.0015951097,-0.003965378,-0.059391282,0.02403807,0.93493974,2017-05-24 14:57:49,25.485141754123838
-1.2702332,0.04269409,9.816254,-1.8310547E-4,-2.89917E-4,-1.2207031E-4,10.0,-1.2530472,0.03498609,9.726204,-4.196167E-4,2.986826E-4,-0.0038757324,-0.059349835,0.024067217,0.93490815,2017-05-24 14:57:50,26.014641242899682
-1.2678375,0.036712646,9.812653,-1.8310547E-4,0.0018463135,-1.2207031E-4,10.0,-1.2514325,0.03260413,9.726419,-4.0256977E-4,-2.214387E-4,-0.001247406,-0.059315488,0.0239225,0.93492347,2017-05-24 14:57:51,24.05303662984316
-1.2690277,0.017547607,9.824631,8.8500977E-4,-0.0013580322,-1.2207031E-4,10.0,-1.2567185,0.035683554,9.725727,-0.00392282,-0.0010760054,-1.6212463E-5,-0.05952013,0.024150962,0.9349879,2017-05-24 14:57:52,26.588755459679337
-1.2594604,0.039108276,9.805481,-0.0012359619,7.7819824E-4,-1.2207031E-4,10.0,-1.2580801,0.034348194,9.725556,2.901554E-4,-7.645786E-4,-0.0013980865,-0.059659623,0.024086494,0.9350858,2017-05-24 14:57:53,29.14621610084747
-1.2606506,0.040298462,9.822235,-0.0012359619,7.7819824E-4,-1.2207031E-4,10.0,-1.249516,0.032863993,9.726665,-0.0024220943,0.005085189,1.8501282E-4,-0.059214458,0.02391116,0.9348667,2017-05-24 14:57:54,25.89883307744721
-1.2666473,0.031921387,9.815048,8.8500977E-4,-0.0013580322,9.460449E-4,10.0,-1.2518344,0.03738086,9.726351,-0.0032601357,9.900592E-4,-0.0018720627,-0.05924229,0.024175962,0.934818,2017-05-24 14:57:55,27.723148291164893
-1.2678375,0.04508972,9.818649,-1.8310547E-4,0.0018463135,-1.2207031E-4,10.0,-1.2499151,0.034807313,9.726607,-6.6924095E-4,0.0015765689,6.2942505E-4,-0.059196472,0.024017317,0.93483007,2017-05-24 14:57:56,25.644034260299186
-1.273819,0.033111572,9.816254,-0.0023040771,-2.89917E-4,-1.2207031E-4,10.0,-1.2520945,0.034833107,9.726327,4.6730042E-4,-6.5745413E-4,-0.0032978058,-0.05930511,0.024046924,0.9348868,2017-05-24 14:57:57,25.73732587588344
-1.273819,0.031921387,9.812653,8.8500977E-4,-0.0013580322,-1.2207031E-4,10.0,-1.2554946,0.03347806,9.725894,-0.0054596663,-0.001014702,-0.0029659271,-0.05950186,0.024020476,0.9350091,2017-05-24 14:57:58,25.772924870470582
-1.2678375,0.040298462,9.818649,8.8500977E-4,-0.0024261475,-1.2207031E-4,10.0,-1.2556132,0.033244167,9.725879,0.003522396,0.0015013814,0.0018415451,-0.059512373,0.02400985,0.93501794,2017-05-24 14:57:59,29.097314899459672
-1.2678375,0.039108276,9.825821,-0.0012359619,7.7819824E-4,-1.2207031E-4,10.0,-1.2548509,0.034511525,9.725972,7.6949596E-4,0.004863452,0.008324623,-0.0593884,0.024076546,0.9349286,2017-05-24 14:58:00,41.359324956953415
-1.2594604,0.029525757,9.810257,8.8500977E-4,-2.89917E-4,-1.2207031E-4,10.0,-1.252166,0.03251407,9.726325,6.47068E-4,-0.0016519688,0.0073957443,-0.059353977,0.02392732,0.9349449,2017-05-24 14:58:01,44.92588504970189
-1.2714233,0.033111572,9.812653,8.8500977E-4,-0.0013580322,-1.2207031E-4,10.0,-1.2511041,0.03242032,9.726462,-0.003124833,-1.543276E-4,0.0044641495,-0.05930263,0.023908691,0.9349193,2017-05-24 14:58:02,43.53495869505593
-1.258255,0.037902832,9.806671,-1.8310547E-4,-0.0013580322,-0.0011901855,10.0,-1.252536,0.030406334,9.726285,-6.958246E-4,-0.0026709363,0.0024852753,-0.059413623,0.023822548,0.9350057,2017-05-24 14:58:03,37.50407861014164
-1.2690277,0.037902832,9.834198,-1.8310547E-4,-2.89917E-4,-1.2207031E-4,10.0,-1.2557446,0.034141645,9.725859,0.0040109158,0.002180405,0.00319767,-0.05950144,0.02405821,0.93499964,2017-05-24 14:58:04,36.0793981523597
-1.2666473,0.036712646,9.828217,-0.0023040771,0.0018463135,-1.2207031E-4,10.0,-1.2554252,0.035516597,9.725896,-1.3971329E-4,0.0014184564,-0.0068683624,-0.05945859,0.024125565,0.93495786,2017-05-24 14:58:05,36.35802972881234
-1.2630463,0.035507202,9.818649,8.8500977E-4,7.7819824E-4,-0.0011901855,10.0,-1.2526476,0.03579383,9.726253,-5.555153E-4,0.010041758,0.0013418198,-0.059314042,0.024104023,0.934878,2017-05-24 14:58:06,26.025669377199463
-1.2714233,0.030715942,9.8198395,8.8500977E-4,7.7819824E-4,-1.2207031E-4,10.0,-1.2536906,0.03328502,9.726127,-0.0037858486,-0.0030137561,-9.4509125E-4,-0.059415277,0.023987122,0.9349663,2017-05-24 14:58:07,25.61047317182902
-1.2702332,0.039108276,9.812653,-1.8310547E-4,-2.89917E-4,-1.2207031E-4,10.0,-1.2566016,0.037585203,9.725735,-0.0020269156,0.0068426616,-0.0038995743,-0.059477128,0.024248326,0.9349386,2017-05-24 14:58:08,25.53300721258944
-1.2654419,0.036712646,9.82103,-1.8310547E-4,7.7819824E-4,-1.2207031E-4,10.0,-1.2490181,0.03338334,9.726727,-0.0030710697,3.0951202E-4,0.0029478073,-0.059150595,0.023926262,0.9348254,2017-05-24 14:58:09,53.893335905705285
-1.2642517,0.033111572,9.8198395,-1.8310547E-4,7.7819824E-4,-1.2207031E-4,10.0,-1.2529658,0.033081707,9.726221,-0.010303378,0.0045079365,7.762909E-4,-0.059382945,0.023967175,0.9349522,2017-05-24 14:58:10,55.639636120154066
-1.2666473,0.043884277,9.817444,-1.8310547E-4,-0.0024261475,9.460449E-4,10.0,-1.2540205,0.032677338,9.726087,0.0017340183,-0.00931957,-0.008630753,-0.059443653,0.023959797,0.93498975,2017-05-24 14:58:11,44.66805964318649
-1.2606506,0.034317017,9.807861,-1.8310547E-4,-2.89917E-4,-1.2207031E-4,10.0,-1.2512755,0.034626357,9.726433,0.0021965504,7.060319E-4,-0.009789467,-0.059301883,0.024014277,0.9348929,2017-05-24 14:58:12,53.2032524635393
-1.258255,0.034317017,9.82103,-1.8310547E-4,0.0018463135,-1.2207031E-4,10.0,-1.2544081,0.032670446,9.726035,-0.0071032047,-0.0043716207,-0.003891945,-0.059463214,0.023964453,0.9350001,2017-05-24 14:58:13,57.341223496695406
-1.2666473,0.039108276,9.816254,-1.8310547E-4,7.7819824E-4,-1.2207031E-4,10.0,-1.2512612,0.03355292,9.7264385,-0.0011942387,0.007432334,0.0027837753,-0.059288386,0.02396959,0.93489593,2017-05-24 14:58:14,49.524596424199636
-1.2606506,0.027130127,9.816254,-1.8310547E-4,0.0018463135,-0.0011901855,10.0,-1.2544565,0.03561528,9.726019,-0.0010226965,-0.0016274638,3.33786E-4,-0.059408143,0.024118168,0.93492997,2017-05-24 14:58:16,38.15658880435119
-1.2726288,0.021148682,9.827026,-1.8310547E-4,7.7819824E-4,-1.2207031E-4,10.0,-1.2532632,0.03053626,9.7261915,0.002589941,0.0021253414,0.005092621,-0.059447493,0.023838703,0.9350217,2017-05-24 14:58:17,43.492499277596046
-1.2702332,0.036712646,9.812653,-1.8310547E-4,7.7819824E-4,-1.2207031E-4,10.0,-1.2529949,0.033161033,9.726216,0.0031423569,-0.0022410117,0.004486084,-0.05933626,0.023937292,0.93493205,2017-05-24 14:58:18,53.81074284682444
-1.2606506,0.043884277,9.818649,-1.8310547E-4,-2.89917E-4,-1.2207031E-4,10.0,-1.2488261,0.033665568,9.726751,0.0029865503,0.0036134385,0.0010385513,-0.059164256,0.023943854,0.9348291,2017-05-24 14:58:19,50.979586583002934
-1.2630463,0.035507202,9.807861,-1.8310547E-4,-2.89917E-4,-1.2207031E-4,10.0,-1.2489705,0.032310385,9.726737,3.181696E-4,0.0076733455,-0.0014925003,-0.059197955,0.023875313,0.93486583,2017-05-24 14:58:20,50.66123030532189
-1.2558594,0.024734497,9.795898,-1.8310547E-4,7.7819824E-4,-1.2207031E-4,10.0,-1.2478412,0.033556208,9.726877,0.002355218,-5.542822E-4,-0.0019340515,-0.05911709,0.02392538,0.93480587,2017-05-24 14:58:21,36.644780266481675
-1.2642517,0.037902832,9.824631,-0.0012359619,7.7819824E-4,-1.2207031E-4,10.0,-1.2510595,0.034141805,9.726462,0.0015108585,-0.002131395,0.00762558,-0.059266783,0.02399758,0.9348763,2017-05-24 14:58:22,48.26328033546172
-1.2678375,0.035507202,9.833008,8.8500977E-4,-0.0013580322,-1.2207031E-4,10.0,-1.249993,0.032961074,9.7266035,0.0054816008,-0.0053877644,-0.0018396378,-0.059236437,0.02392239,0.9348769,2017-05-24 14:58:23,33.22220587275097
-1.2690277,0.016357422,9.824631,-1.8310547E-4,-2.89917E-4,-1.2207031E-4,10.0,-1.2512256,0.03329342,9.726444,-0.0075768232,0.0023326427,-0.00518322,-0.059291665,0.023955641,0.9349013,2017-05-24 14:58:24,40.1641094415977
-1.2606506,0.031921387,9.806671,8.8500977E-4,-2.89917E-4,-1.2207031E-4,10.0,-1.2559187,0.031694736,9.725844,-0.008390665,-9.2520565E-4,4.4250488E-4,-0.0595579,0.023933234,0.9350635,2017-05-24 14:58:25,36.50902812511148
-1.2594604,0.035507202,9.817444,-0.0023040771,-2.89917E-4,-1.2207031E-4,10.0,-1.2500991,0.034599774,9.726584,0.0030266047,0.0013486147,0.0013856888,-0.059204288,0.024012033,0.934836,2017-05-24 14:58:26,48.66823192175792
-1.2714233,0.034317017,9.816254,-1.8310547E-4,-0.0013580322,-1.2207031E-4,10.0,-1.2520837,0.037192676,9.726319,0.0019549131,0.006831825,-0.0035820007,-0.059258454,0.024169417,0.9348292,2017-05-24 14:58:27,35.29325666384839
-1.2678375,0.040298462,9.818649,8.8500977E-4,0.0018463135,9.460449E-4,10.0,-1.2555676,0.032281052,9.725888,-0.0038034916,0.003019955,0.010998726,-0.059528872,0.023959184,0.93504006,2017-05-24 14:58:28,52.57565273865712
-1.2666473,0.035507202,9.822235,-0.0023040771,0.0050354004,-0.0011901855,10.0,-1.2549697,0.033567294,9.725961,0.0011523962,0.0020254068,0.006549835,-0.059473835,0.024018334,0.93499315,2017-05-24 14:58:29,38.42630201145283
-1.2654419,0.028320313,9.806671,8.8500977E-4,-0.0024261475,9.460449E-4,10.0,-1.2496356,0.031796146,9.726654,0.005113125,-0.0057110935,0.0046072006,-0.059241284,0.023857217,0.9348958,2017-05-24 14:58:30,29.336802225757058
-1.2642517,0.031921387,9.805481,-1.8310547E-4,7.7819824E-4,-0.0011901855,10.0,-1.2509562,0.031344466,9.726485,2.7549267E-4,-7.843226E-5,-0.010890961,-0.059319917,0.023837667,0.9349469,2017-05-24 14:58:31,33.71148418736611
-1.2666473,0.043884277,9.833008,-1.8310547E-4,0.003967285,-0.0011901855,10.0,-1.2528105,0.03509086,9.726234,-0.0026913881,-0.0025077835,-0.0041542053,-0.05933593,0.024069596,0.9348994,2017-05-24 14:58:32,48.07354087196414
-1.273819,0.041488647,9.836594,-0.0023040771,0.0018463135,-0.0011901855,10.0,-1.2550423,0.0312566,9.725959,0.0030661821,-0.003457591,-0.008479118,-0.059522547,0.02389914,0.935051,2017-05-24 14:58:33,52.02174568862337
-1.2642517,0.028320313,9.8042755,-0.0012359619,7.7819824E-4,-1.2207031E-4,10.0,-1.2521292,0.030504515,9.7263365,-0.001658082,0.0012331773,-0.007139206,-0.05939134,0.02382239,0.9349927,2017-05-24 14:58:34,50.796412357574134
-1.2618561,0.027130127,9.812653,-1.8310547E-4,7.7819824E-4,-1.2207031E-4,10.0,-1.250091,0.031379633,9.726597,9.551048E-4,-0.005227875,-0.007434845,-0.05927221,0.023841478,0.93491787,2017-05-24 14:58:35,55.92994409468976
-1.2606506,0.029525757,9.823425,-1.8310547E-4,-2.89917E-4,-0.0011901855,10.0,-1.2554013,0.031844344,9.725911,0.0010925531,0.0028927252,-0.0039110184,-0.05952906,0.02393433,0.93504626,2017-05-24 14:58:36,50.78138763528055
-1.2630463,0.029525757,9.809067,8.8500977E-4,7.7819824E-4,-1.2207031E-4,10.0,-1.2520465,0.03477881,9.726334,-0.0016897917,-0.008524314,0.0076417923,-0.05934284,0.024071459,0.93490297,2017-05-24 14:58:37,26.695609282604153
-1.2606506,0.031921387,9.825821,-1.8310547E-4,-2.89917E-4,-0.0011901855,10.0,-1.2504506,0.033073053,9.726544,8.698702E-4,0.004623629,-0.0038414001,-0.059257165,0.023934143,0.9348863,2017-05-24 14:58:38,34.15596676764102
-1.2702332,0.030715942,9.82103,-1.8310547E-4,-2.89917E-4,-1.2207031E-4,10.0,-1.2507342,0.032004714,9.726511,-4.2271614E-4,-9.0222806E-5,-0.0053596497,-0.059292223,0.0238823,0.93491966,2017-05-24 14:58:39,44.34520152939969
-1.27742,0.028320313,9.818649,-1.8310547E-4,-0.0013580322,-1.2207031E-4,10.0,-1.2535701,0.032988198,9.726143,2.2137165E-4,-0.0019123666,-2.2411346E-4,-0.059372503,0.023972642,0.93494475,2017-05-24 14:58:40,28.82074286191237
-1.2678375,0.031921387,9.815048,8.8500977E-4,7.7819824E-4,-1.2207031E-4,10.0,-1.2504749,0.03373854,9.72654,0.0056880713,0.004077144,0.0024194717,-0.05924538,0.023969041,0.9348707,2017-05-24 14:58:41,37.01419021543073
-1.2606506,0.029525757,9.817444,-1.8310547E-4,-0.0013580322,-0.0011901855,10.0,-1.2511698,0.03279647,9.726453,-0.0011172295,0.0047144443,-0.001988411,-0.05929858,0.023929091,0.9349119,2017-05-24 14:58:42,44.46572017186191
-1.258255,0.025939941,9.812653,8.8500977E-4,-0.0013580322,9.460449E-4,10.0,-1.2472248,0.03486553,9.726953,-0.002597928,0.009306267,0.0066661835,-0.05907458,0.023956431,0.9347732,2017-05-24 14:58:43,27.354167412283505
-1.2522736,0.041488647,9.8042755,8.8500977E-4,-0.0013580322,-1.2207031E-4,10.0,-1.2443382,0.035509355,9.72732,-7.199049E-4,0.0093292855,-0.0013399124,-0.058903538,0.023981238,0.9346662,2017-05-24 14:58:44,43.783269702335275
-1.2522736,0.040298462,9.824631,8.8500977E-4,-0.0013580322,-1.2207031E-4,10.0,-1.2474393,0.031746756,9.726935,-8.379221E-4,0.0026550852,0.0042419434,-0.059132308,0.023826148,0.93483925,2017-05-24 14:58:45,51.2779096897333
-1.2666473,0.022338867,9.812653,0.0030212402,-0.0013580322,-1.2207031E-4,10.0,-1.2493851,0.033465948,9.72668,0.0013195276,-0.0040642135,-0.0055294037,-0.059196144,0.023940738,0.93484867,2017-05-24 14:58:46,48.255137366853305
-1.2642517,0.039108276,9.812653,8.8500977E-4,-2.89917E-4,-1.2207031E-4,10.0,-1.2520684,0.028448783,9.726351,-0.0024436712,-0.003272852,-0.0025968552,-0.05942837,0.023714747,0.9350408,2017-05-24 14:58:47,44.19442403898769
-1.2618561,0.031921387,9.818649,8.8500977E-4,-2.89917E-4,-1.2207031E-4,10.0,-1.2502924,0.0339936,9.726562,-4.0864944E-4,-0.0033472702,7.5626373E-4,-0.059261017,0.023874128,0.93490326,2017-05-24 14:58:48,48.63481331957816
-1.2666473,0.023544312,9.827026,-0.0012054443,0.0019378662,1.2207031E-4,10.0,-1.2491088,0.032632362,9.726718,0.0056114197,-0.0041363537,-0.0021419525,-0.05919859,0.023893839,0.93486166,2017-05-24 14:58:49,54.973667156744085
-1.2666473,0.017547607,9.822235,-0.0012054443,8.69751E-4,-9.460449E-4,10.0,-1.2525301,0.03285992,9.726278,0.004981041,-6.8640336E-4,-0.00593853,-0.05936545,0.023950007,0.9349461,2017-05-24 14:58:50,57.312882318236376
-1.2654419,0.033111572,9.818649,-1.5258789E-4,-0.0012664795,1.2207031E-4,10.0,-1.2525231,0.033782247,9.726275,-0.0034110546,-0.0019316636,-0.0014162064,-0.059306514,0.024004864,0.93489796,2017-05-24 14:58:52,43.710227845543145
-1.2690277,0.031921387,9.817444,0.0019836426,-0.0012664795,1.2207031E-4,10.0,-1.2508973,0.0345542,9.726481,0.0020201206,0.0110953115,-0.0115242,-0.059250604,0.02401691,0.9348621,2017-05-24 14:58:53,55.55040366323836
-1.2606506,0.025939941,9.807861,9.1552734E-4,-0.0012664795,1.2207031E-4,10.0,-1.2548581,0.031043699,9.725984,-0.0067819357,0.0025029369,0.009829521,-0.059517473,0.023885692,0.9350514,2017-05-24 14:58:54,58.99183979724259
-1.258255,0.036712646,9.809067,9.1552734E-4,-1.9836426E-4,1.2207031E-4,10.0,-1.2506256,0.033883214,9.72652,0.0042539835,0.0051847547,0.005712509,-0.0592501,0.023978515,0.9348712,2017-05-24 14:58:55,56.71926378831838
-1.2522736,0.031921387,9.812653,0.0019836426,-0.0023345947,1.2207031E-4,10.0,-1.2501371,0.034113027,9.726581,-0.0026724339,0.004214432,0.004351616,-0.05922116,0.023984121,0.9348528,2017-05-24 14:58:56,59.18786716483761
-1.258255,0.028320313,9.824631,-1.5258789E-4,8.69751E-4,1.2207031E-4,10.0,-1.2511129,0.031960446,9.726463,0.0044600964,0.0012675636,-0.0057735443,-0.059312046,0.023884906,0.9349307,2017-05-24 14:58:57,47.73891019037204
-1.2570648,0.031921387,9.825821,0.0019836426,-0.0023345947,1.2207031E-4,10.0,-1.2467376,0.029920848,9.727031,0.0029337406,0.007110007,-0.0016241074,-0.059132833,0.023722174,0.93486506,2017-05-24 14:58:58,43.65717853257301
-1.2594604,0.04269409,9.812653,9.1552734E-4,-1.9836426E-4,1.2207031E-4,10.0,-1.2498711,0.032746173,9.726621,-0.0011034012,0.0033277012,6.313324E-4,-0.05923453,0.023909641,0.93487895,2017-05-24 14:58:59,38.08201580275781
-1.2606506,0.036712646,9.8198395,-1.5258789E-4,-1.9836426E-4,1.2207031E-4,10.0,-1.2507086,0.033493094,9.72651,0.002161026,0.0010132976,0.002500534,-0.059261877,0.023959316,0.9348828,2017-05-24 14:59:00,29.12317562908646
-1.2618561,0.039108276,9.825821,-0.0012054443,0.004058838,1.2207031E-4,10.0,-1.2541289,0.031568944,9.726075,-8.585453E-4,0.0036622137,-7.1525574E-4,-0.059470717,0.02390358,0.9350195,2017-05-24 14:59:01,55.006534564510474
-1.2630463,0.037902832,9.818649,-1.5258789E-4,-1.9836426E-4,1.2207031E-4,10.0,-1.2517028,0.034552246,9.726378,0.004233718,0.0012466088,6.122589E-4,-0.05929098,0.024027249,0.9348833,2017-05-24 14:59:02,60.11440764262165
-1.2606506,0.023544312,9.8198395,-1.5258789E-4,-1.9836426E-4,1.2207031E-4,10.0,-1.2515336,0.034252863,9.726401,0.0027185678,-0.0024415888,-0.0044908524,-0.059271656,0.024043845,0.93486786,2017-05-24 14:59:03,59.25605868636499
-1.2570648,0.033111572,9.825821,-0.0012054443,8.69751E-4,1.2207031E-4,10.0,-1.2502853,0.034522474,9.726561,0.0056636333,4.0628016E-4,0.0013628006,-0.059220575,0.02400732,0.9348467,2017-05-24 14:59:04,69.8247135773154
-1.2630463,0.035507202,9.834198,9.1552734E-4,-0.0012664795,1.2207031E-4,10.0,-1.2534691,0.029057829,9.726169,-0.0019387007,0.0075997934,0.010884285,-0.059486628,0.02376451,0.9350629,2017-05-24 14:59:05,58.02577319724115
-1.2510834,0.035507202,9.8198395,0.0019836426,-0.00340271,0.0011901855,10.0,-1.2500153,0.02966732,9.726611,-0.0069668293,-5.3778104E-4,-0.0014390945,-0.059427496,0.02371789,0.9350395,2017-05-24 14:59:06,59.7969186179434
-1.2786102,0.033111572,9.816254,-0.008666992,0.0019378662,-9.460449E-4,10.0,-1.247852,0.032598045,9.726879,0.0037617683,-0.011936616,0.013307571,-0.059136346,0.023875738,0.9348294,2017-05-24 14:59:07,50.85645728328244
-1.2618561,0.031921387,9.810257,0.0030517578,-0.006591797,1.2207031E-4,10.0,-1.2465626,0.03568396,9.727035,-0.0030522346,-0.001716923,0.004529953,-0.059011474,0.024019286,0.9347205,2017-05-24 14:59:08,50.123279940155925
-1.2630463,0.040298462,9.822235,-1.5258789E-4,-1.9836426E-4,1.2207031E-4,10.0,-1.2495866,0.035393275,9.726647,-0.002589941,0.0031130947,0.0048856735,-0.05916857,0.0240435,0.9348072,2017-05-24 14:59:09,52.33552467496623
-1.2642517,0.029525757,9.822235,-0.0033416748,0.004058838,1.2207031E-4,10.0,-1.2533377,0.033661965,9.726171,-0.0021083355,0.0034229606,-0.009613991,-0.059390247,0.024002152,0.9349479,2017-05-24 14:59:10,60.366361202378386
-1.2474823,0.07382202,9.84259,9.1552734E-4,-0.0012664795,1.2207031E-4,10.0,-1.2487284,0.03505137,9.726759,-6.7186356E-4,0.0016436428,-0.007294655,-0.05913228,0.024014588,0.9347929,2017-05-24 14:59:11,64.53697281550977
-1.2558594,0.031921387,9.815048,9.1552734E-4,-0.0012664795,1.2207031E-4,10.0,-1.2445595,0.03314388,9.7273,0.0014160872,0.0038801767,-9.6035004E-4,-0.058863427,0.023864072,0.9346714,2017-05-24 14:59:12,67.15454919045104
-1.2666473,0.04269409,9.809067,0.0019836426,-0.0023345947,1.2207031E-4,10.0,-1.2505558,0.030840531,9.726538,1.1122227E-4,-0.0063972436,-0.007314682,-0.059306007,0.023819486,0.93494314,2017-05-24 14:59:13,65.48525456118057
-1.2510834,0.029525757,9.823425,-0.0012054443,8.69751E-4,1.2207031E-4,10.0,-1.2523725,0.03305864,9.726297,-0.0019049644,-0.0041541085,0.0065984726,-0.059353683,0.023958296,0.9349372,2017-05-24 14:59:14,72.43681150152042
-1.2654419,0.034317017,9.822235,-1.5258789E-4,-1.9836426E-4,1.2207031E-4,10.0,-1.252007,0.03502286,9.726337,-0.0024026632,-0.0062411763,-0.002811432,-0.05929702,0.024055652,0.9348799,2017-05-24 14:59:15,70.16238713006248
-1.27742,0.034317017,9.822235,-1.5258789E-4,-1.9836426E-4,1.2207031E-4,10.0,-1.2553046,0.034254372,9.725914,-0.0059018135,-0.0016574338,0.0037441254,-0.05953327,0.024038896,0.9350231,2017-05-24 14:59:16,64.63051308059627
-1.2654419,0.034317017,9.818649,-1.5258789E-4,-1.9836426E-4,1.2207031E-4,10.0,-1.2530326,0.032460444,9.726213,7.6186657E-4,-0.0045313835,0.0030469894,-0.05939842,0.023935746,0.934969,2017-05-24 14:59:17,69.17421688487755
-1.2642517,0.04269409,9.831818,9.1552734E-4,0.0019378662,0.0011901855,10.0,-1.249714,0.0347053,9.726633,0.0018365383,-4.2549893E-4,0.004693985,-0.0591884,0.024009407,0.93482727,2017-05-24 14:59:18,49.315228002339886
-0.15093994,2.098114,-0.3531189,8.164047,1.9226074,2.1018982,10.0,-0.13692251,9.804312,0.16466086,-1.3508544,-8.847954,1.2405385,0.51506734,0.47572076,0.47641522,2017-05-24 14:59:19,49.61062950135772
-0.6030426,-0.53071594,-9.783493,-1.5258789E-4,-0.0012664795,1.2207031E-4,0.0,-0.49476132,-0.06842433,-9.793922,-0.100426435,-0.45676452,-0.10291672,0.86241883,0.5055017,-0.025323631,2017-05-24 14:59:20,39.25614448218035
-0.5838928,-0.51356506,-9.790665,-1.5258789E-4,-1.9836426E-4,1.2207031E-4,0.0,-0.5903086,-0.5087999,-9.775636,-0.006839037,-0.014377058,1.6498566E-4,-0.89201957,-0.45027936,0.038250163,2017-05-24 14:59:21,60.51715948860846
-0.5974579,-0.54029846,-9.788666,-1.5258789E-4,-1.9836426E-4,1.2207031E-4,0.0,-0.5956647,-0.52989745,-9.77419,1.8382072E-4,-0.0044248104,-0.0070199966,-0.8941264,-0.44596297,0.0392687,2017-05-24 14:59:22,69.22621240352201
-0.60224915,-0.5319214,-9.80304,9.1552734E-4,-1.9836426E-4,1.2207031E-4,0.0,-0.5989881,-0.53039473,-9.773959,-0.0044682026,0.005920887,0.0063295364,-0.89430314,-0.4455953,0.039427698,2017-05-24 14:59:24,64.65790339989009
-0.60224915,-0.5259247,-9.782684,9.1552734E-4,8.69751E-4,1.2207031E-4,0.0,-0.60231405,-0.533116,-9.773607,0.0048451424,0.004236102,0.008821487,-0.8946089,-0.4449608,0.039634373,2017-05-24 14:59:25,59.197327073106635
-0.60343933,-0.52952576,-9.793457,-1.0681152E-4,-9.1552734E-5,1.6784668E-4,0.0,-0.5999111,-0.53212357,-9.7738085,0.005941272,-0.0024200678,0.0039100647,-0.89444447,-0.4453029,0.039505884,2017-05-24 14:59:25,58.38508347687919
-0.60105896,-0.5283203,-9.799454,-1.0681152E-4,-9.1552734E-5,1.6784668E-4,0.0,-0.599697,-0.53058827,-9.773906,3.7914515E-4,0.005013466,7.715225E-4,-0.8945258,-0.44513467,0.039545454,2017-05-24 14:59:27,52.92942671937393
-0.5962677,-0.539093,-9.786285,-1.0681152E-4,9.765625E-4,1.6784668E-4,0.0,-0.59848905,-0.53562486,-9.773705,0.0033081174,-9.230375E-4,0.0010614395,-0.89461666,-0.44494665,0.03959227,2017-05-24 14:59:28,51.25934110902389
-0.59506226,-0.5355072,-9.798248,-0.0022277832,9.765625E-4,0.004425049,0.0,-0.59740794,-0.53324556,-9.773901,0.006499052,0.0015407205,-0.0059375763,-0.8944984,-0.4451927,0.03949646,2017-05-24 14:59:29,28.10116954069709
-0.64894104,-0.51156616,-9.793457,9.613037E-4,-9.1552734E-5,0.033187866,0.0,-0.59610003,-0.5338792,-9.773946,-0.02582109,0.00580287,0.0074911118,-0.8960192,-0.44213364,0.039332975,2017-05-24 14:59:30,56.29498346101965
-0.6106262,-0.5283203,-9.80423,-1.0681152E-4,-0.001159668,1.6784668E-4,0.0,-0.60872984,-0.5317719,-9.773282,-0.003988087,-0.0019531846,0.007901192,-0.90107745,-0.4316922,0.03973837,2017-05-24 14:59:31,65.49576734305477
-0.5998535,-0.534317,-9.80304,-1.0681152E-4,-9.1552734E-5,-9.0026855E-4,0.0,-0.6081304,-0.5337333,-9.773213,5.119443E-4,0.0056987405,-0.0047483444,-0.9011574,-0.43152127,0.039751984,2017-05-24 14:59:32,62.39750359002858
-0.6070404,-0.539093,-9.780289,9.613037E-4,9.765625E-4,1.6784668E-4,0.0,-0.6017957,-0.53587425,-9.773487,0.005863011,0.007272482,0.005133629,-0.9009921,-0.43188247,0.03951187,2017-05-24 14:59:33,61.18014795835862
-0.60343933,-0.53790283,-9.793457,-1.0681152E-4,-9.1552734E-5,1.6784668E-4,0.0,-0.59976757,-0.5313637,-9.773859,0.0024604797,-0.0017464757,0.006304741,-0.9006568,-0.43260303,0.039327595,2017-05-24 14:59:34,56.946406580142494
-0.61183167,-0.52352905,-9.795853,-1.0681152E-4,-9.1552734E-5,1.6784668E-4,0.0,-0.6051813,-0.5325584,-9.77346,7.0774555E-4,0.0043527484,0.0052251816,-0.90096235,-0.43194282,0.0395953,2017-05-24 14:59:35,35.17447046194854
-0.6142273,-0.53790283,-9.80304,-1.0681152E-4,-9.1552734E-5,1.6784668E-4,0.0,-0.60697037,-0.53296936,-9.773327,0.0031769872,6.735325E-4,0.0026721954,-0.9010643,-0.43172234,0.039684117,2017-05-24 14:59:36,60.07606590682481
-0.61183167,-0.5355072,-9.797058,-1.0681152E-4,-9.1552734E-5,1.6784668E-4,0.0,-0.6068178,-0.53285885,-9.773342,0.0018136501,0.004490316,0.0034008026,-0.90105146,-0.43174997,0.039674982,2017-05-24 14:59:37,63.93542046471654
-0.6082306,-0.534317,-9.799454,9.613037E-4,-9.1552734E-5,1.6784668E-4,0.0,-0.6062076,-0.53558755,-9.773231,0.0025379658,0.0016021729,-0.0018968582,-0.9011948,-0.431442,0.039733972,2017-05-24 14:59:38,49.72455158222539
-0.6082306,-0.5366974,-9.798248,-1.0681152E-4,-0.001159668,1.6784668E-4,0.0,-0.6084158,-0.5344698,-9.773154,-5.979538E-4,0.008739829,0.0016708374,-0.9012263,-0.43137264,0.039791472,2017-05-24 14:59:39,29.581179829715254
-0.61302185,-0.5331116,-9.787476,-1.0681152E-4,-9.1552734E-5,1.6784668E-4,0.0,-0.607456,-0.53390276,-9.773246,-6.0772896E-4,-0.0016342998,0.0077877045,-0.9011366,-0.4315666,0.039725207,2017-05-24 14:59:40,34.785660447064814
-0.6154175,-0.5355072,-9.793457,-1.0681152E-4,9.765625E-4,-9.0026855E-4,0.0,-0.60528296,-0.5334786,-9.773404,-0.003339529,-0.004468024,0.005290985,-0.9010169,-0.43182573,0.039618887,2017-05-24 14:59:41,40.1285975578224
-0.6154175,-0.53790283,-9.794662,0.002029419,-0.0022277832,0.0023040771,0.0,-0.60691786,-0.53561145,-9.773186,-0.0062999725,-0.0018465519,-0.001045227,-0.90120536,-0.43141937,0.039736327,2017-05-24 14:59:42,25.436975727828276
-0.6142273,-0.53071594,-9.797058,-1.0681152E-4,-9.1552734E-5,-9.0026855E-4,0.0,-0.6053642,-0.5315435,-9.773504,-0.017385423,-0.0046320558,-0.010429382,-0.90091527,-0.4320436,0.039582517,2017-05-24 14:59:43,42.4824710604081
-0.6154175,-0.5271301,-9.805435,-1.0681152E-4,-9.1552734E-5,1.6784668E-4,0.0,-0.6118666,-0.5347145,-9.772926,0.004868269,0.0010257363,5.5885315E-4,-0.9013769,-0.43104553,0.039940022,2017-05-24 14:59:44,49.38592565337594
-0.61183167,-0.5450897,-9.807831,-1.0681152E-4,9.765625E-4,1.6784668E-4,0.0,-0.61285007,-0.53426546,-9.772889,-0.0022461414,-9.4640255E-4,-2.3365021E-4,-0.90139633,-0.43100268,0.039974928,2017-05-24 14:59:45,40.17638228839015
-0.61660767,-0.53071594,-9.799454,-1.0681152E-4,-9.1552734E-5,-9.0026855E-4,0.0,-0.6048825,-0.5319132,-9.773514,-0.007221937,0.0013865829,1.11579895E-4,-0.900914,-0.4320469,0.039568543,2017-05-24 14:59:46,53.62292479431004
-0.6190033,-0.534317,-9.799454,-1.9836426E-4,-7.6293945E-5,1.8310547E-4,0.0,-0.6121214,-0.53531367,-9.772878,0.0047632456,-0.004006624,-0.0019750595,-0.9014207,-0.43095097,0.039963827,2017-05-24 14:59:47,29.542515571467845
-0.60224915,-0.54148865,-9.794662,-1.9836426E-4,-7.6293945E-5,0.0012512207,0.0,-0.6093395,-0.5356369,-9.773033,-0.0045068264,-0.0033817291,0.0052318573,-0.90131444,-0.43118244,0.039845575,2017-05-24 14:59:48,32.174057970777675
-0.6082306,-0.534317,-9.807831,8.69751E-4,-7.6293945E-5,1.8310547E-4,0.0,-0.6094717,-0.53624874,-9.772992,9.023547E-4,-0.004177749,0.0047683716,-0.9013535,-0.43109834,0.039864127,2017-05-24 14:59:49,57.93881977478111
-0.61660767,-0.5558624,-9.786285,-1.9836426E-4,-7.6293945E-5,1.8310547E-4,0.0,-0.6093269,-0.53792167,-9.772909,0.004025936,-0.0057312846,0.005572319,-0.90143764,-0.4309174,0.039892115,2017-05-24 14:59:50,62.39053497268397
-0.63456726,-0.55226135,-9.800644,-1.9836426E-4,-7.6293945E-5,1.8310547E-4,0.0,-0.6141626,-0.53923887,-9.772533,-0.016899168,-0.0122087,4.673004E-5,-0.9016441,-0.43046924,0.0400693,2017-05-24 14:59:51,29.767890101163978
-0.6154175,-0.5450897,-9.792267,-1.9836426E-4,-7.6293945E-5,1.8310547E-4,0.0,-0.60871655,-0.53624535,-9.773039,-0.002140224,0.004078746,0.009158134,-0.90131974,-0.43117175,0.039830156,2017-05-24 14:59:52,27.225863675633654
-0.6154175,-0.5331116,-9.789871,-1.9836426E-4,-7.6293945E-5,1.8310547E-4,0.0,-0.6067873,-0.53729045,-9.773101,0.005011797,-4.5096874E-4,0.006503105,-0.9012906,-0.43123636,0.03976511,2017-05-24 14:59:53,36.34656404876422
-0.6082306,-0.53790283,-9.80304,-1.9836426E-4,9.918213E-4,1.8310547E-4,0.0,-0.60557526,-0.5366026,-9.773214,-6.1142445E-4,1.3649464E-5,0.0037679672,-0.90119946,-0.43143344,0.03969652,2017-05-24 14:59:54,63.931266965024456
-0.61302185,-0.54148865,-9.798248,-1.9836426E-4,-7.6293945E-5,1.8310547E-4,0.0,-0.6025096,-0.53319407,-9.77359,-0.006621182,0.0018960834,-0.003276825,-0.90087837,-0.43212605,0.03947826,2017-05-24 14:59:55,58.447112895451966
-0.6142273,-0.5335083,-9.796646,-1.9836426E-4,-7.6293945E-5,-8.8500977E-4,0.0,-0.5529458,-0.60354644,-9.772429,-0.054012716,0.063142,-6.866455E-4,-0.87154925,-0.48852548,0.03967333,2017-05-24 14:59:56,47.115656778084926
0.19940186,-0.9129944,-9.792664,-1.9836426E-4,0.0020599365,0.18127441,0.0,-0.7136459,-0.40019965,-9.772459,0.545845,-0.29827562,-0.0059309006,-0.90854186,-0.41567108,0.041963477,2017-05-24 14:59:57,43.901118048070416
-0.6178131,-0.529129,-9.789871,-1.9836426E-4,9.918213E-4,1.8310547E-4,0.0,-0.6293937,-0.5244116,-9.772371,0.0021076798,-0.023834527,0.0031690598,-0.910619,-0.4111268,0.04028483,2017-05-24 14:59:58,29.47443678439582
-0.6106262,-0.5319214,-9.797058,-1.9836426E-4,-7.6293945E-5,1.8310547E-4,0.0,-0.61010665,-0.54509836,-9.772463,-0.010299802,0.018378913,0.004340172,-0.91112864,-0.4099862,0.03986218,2017-05-24 14:59:59,48.332013754037916
-0.09587097,-0.6037445,-10.807404,-0.29634094,0.7093811,0.20471191,10.0,-0.25980642,-0.34987,-9.796963,-0.66707134,0.036705285,-0.95548534,-0.9167816,-0.39877003,0.019267032,2017-05-24 15:00:01,52.14558827403691
2.3314514,-2.0342865,9.171799,-0.44760132,0.12774658,-0.5665283,10.0,3.1286376,-1.8205291,9.114147,-0.9485152,-0.23790061,0.5617676,0.103310525,-0.16019401,0.8796503,2017-05-24 15:00:02,47.64288382258834
2.8741302,-0.41938782,8.383713,-0.49980164,0.007385254,0.042800903,10.0,3.1337936,0.2517025,9.289045,-0.42982864,-0.3896497,-0.60191345,0.13065538,-0.09653836,0.7440973,2017-05-24 15:00:03,48.67908887042564
3.4674988,-1.025528,9.008209,-0.008712769,-0.14175415,-0.081832886,10.0,3.798083,-0.8485743,9.001382,-0.2965622,-0.2763623,0.08095932,0.11301865,-0.1681786,0.7102803,2017-05-24 15:00:04,36.37341635114093
3.4232025,-1.5554352,8.997437,-0.13441467,0.2736969,-0.15853882,10.0,3.5216932,-1.4188677,9.0418415,0.19348454,-0.15150738,-0.07616997,0.06797127,-0.18540318,0.65694326,2017-05-24 15:00:05,38.72568784053051
3.4379578,-1.3878326,8.805496,0.07543945,-0.03630066,0.020431519,0.0,3.5383093,-1.4446929,9.031258,-0.07614851,-0.014812112,-0.071359634,0.054907132,-0.19110002,0.60660803,2017-05-24 15:00:06,37.37276401362888
1.8773499,0.65441895,9.157043,0.42485046,-0.09169006,-1.6989136,10.0,2.5049758,1.6593648,9.334988,-1.0797648,-0.8190669,0.089710236,0.10727081,-0.1330187,0.20373473,2017-05-24 15:00:07,27.328848279846902
2.2867584,4.2129974,6.9340363,-0.09500122,0.00843811,0.21430969,10.0,2.6257095,3.897346,8.607365,-1.7259974,-0.17784071,0.19888973,0.16019878,-0.18836902,-0.26140887,2017-05-24 15:00:08,41.847913443101945
-0.9649658,3.236557,9.436768,-0.1088562,0.5570526,0.42948914,10.0,1.1813165,3.1646392,9.206516,-2.060421,0.3350675,0.2516842,0.13533911,-0.110822596,-0.3179876,2017-05-24 15:00:09,58.588754683047966
-0.95858765,0.44451904,9.143875,-0.02468872,-0.02670288,0.31018066,10.0,-0.5488688,0.82596344,9.756378,-0.8571875,-0.439349,-0.37452507,0.03999103,0.031046357,0.07346695,2017-05-24 15:00:10,27.914428234954368
-0.98731995,0.13606262,9.105179,0.1340332,0.05319214,0.07475281,10.0,-1.1658723,1.1059943,9.674085,0.32774818,-1.0161269,-0.6419411,0.033568725,0.074510634,0.31364122,2017-05-24 15:00:11,46.15425778892995
0.02583313,0.72184753,10.065643,0.07543945,-0.24082947,-0.258667,10.0,-0.20766607,1.1349086,9.738544,0.090200335,-0.28909004,0.4778452,0.052129004,0.027477263,0.29892802,2017-05-24 15:00:12,47.53771190871693
0.51264954,0.9664612,10.654221,0.08822632,-0.48583984,-1.1183472,30.0,1.878567,0.9238565,9.580598,-1.2242502,0.024056613,1.0183039,0.012833666,-0.10658676,-0.32895967,2017-05-24 15:00:13,51.54514875937387
1.4248352,0.41937256,9.856949,0.2863617,0.4537201,0.7149811,10.0,3.2388387,0.59364086,9.237309,-0.7909095,-0.18082881,-0.22792625,-0.060620185,-0.15922767,-0.5108777,2017-05-24 15:00:14,55.70578192043021
0.5749054,-1.1959076,9.88887,-0.44760132,-0.250412,0.39646912,10.0,-0.46824595,0.20645706,9.793288,0.97690094,-1.3188344,0.5715313,0.005794242,0.02544914,0.19017926,2017-05-24 15:00:15,54.83489328981066
-2.0659027,-0.23023987,10.122314,0.18623352,-0.119384766,-0.3343048,10.0,-1.2693146,-0.65472823,9.702091,-0.8025516,0.41460925,0.55547047,-0.05166865,0.051588878,0.3042001,2017-05-24 15:00:16,60.51221493188336
-0.34806824,1.0127411,9.318649,0.17984009,-0.18969727,-0.68904114,10.0,-0.07015324,1.626889,9.6705065,-0.21612394,-0.4403516,-0.31958103,0.07456255,0.014822458,0.11814996,2017-05-24 15:00:17,36.45592496369636
-0.39234924,-0.14245605,11.199692,-0.27822876,0.3844757,0.63720703,80.0,-3.2397773,1.4538366,9.141149,2.6782937,-1.7650826,3.7460537,0.032768443,0.18126607,0.23646627,2017-05-24 15:00:18,42.557147550538915
-2.0443573,-0.2889099,9.55249,-0.05984497,-0.10873413,-0.19476318,10.0,-2.597394,0.17168705,9.4548645,0.5752673,-0.42424017,0.0779829,-0.044825785,0.1262012,0.3925606,2017-05-24 15:00:19,37.755440064255595
-2.630539,-0.17956543,9.461105,0.018981934,-0.023513794,-0.0115356445,10.0,-2.6425142,-0.11284936,9.443239,-0.14804864,0.034446128,0.11401367,-0.06156309,0.12140337,0.40995225,2017-05-24 15:00:20,31.852459198267795
-2.505249,-0.46887207,9.577225,-0.030014038,0.0063171387,-0.025375366,10.0,-2.684075,-0.33570623,9.426209,0.21805048,-0.12708005,0.0017528534,-0.08249132,0.112304844,0.4857625,2017-05-24 15:00:21,27.10221852005711
-2.6820068,-0.35954285,9.482651,0.023239136,-0.04374695,0.0012512207,10.0,-2.5214174,-0.19497502,9.474958,-0.13485813,-0.1811283,0.032419205,-0.07535753,0.1059851,0.51054347,2017-05-24 15:00:22,55.20969880571801
-2.6105957,-0.24620056,9.820633,0.030700684,-7.6293945E-5,-0.044555664,10.0,-2.5706587,-0.35048187,9.457234,-0.032934427,0.08363429,0.2570238,-0.08226783,0.10510612,0.49981788,2017-05-24 15:00:23,63.42454992918596
-3.0191956,-0.15522766,9.668213,-0.0033874512,-0.025650024,0.027877808,10.0,-2.591569,-0.37110722,9.450737,-0.31773162,0.18814212,0.22214794,-0.08456298,0.104859926,0.5064064,2017-05-24 15:00:24,68.4168530616791
-2.4972687,-0.7003021,9.402847,-0.10990906,0.004180908,0.0076446533,10.0,-2.527504,-0.47889522,9.463232,0.0017282963,-0.1854065,-0.23005772,-0.08987256,0.097120285,0.526015,2017-05-24 15:00:25,58.22991564468671
-0.8879547,-0.56703186,9.369324,-0.10990906,0.35784912,-0.0317688,10.0,-1.160963,-0.7511941,9.70867,0.19688535,0.2229994,-0.3175354,-0.065199144,0.033031575,0.48693267,2017-05-24 15:00:26,49.381300988772864
-0.70240784,-0.5825958,9.954712,0.014724731,-0.0032806396,0.047058105,10.0,-0.73222286,-0.52090037,9.765393,-0.017919779,-0.030161321,-0.0944252,-0.04140763,0.019721542,0.48589486,2017-05-24 15:00:27,31.4904774813804
-1.5758972,1.5390625,10.023346,0.45573425,0.05105591,-0.37799072,80.0,-0.76176023,1.2919348,9.691285,-0.82059777,0.057864428,0.24142075,0.053832524,0.054626223,0.2562832,2017-05-24 15:00:28,33.91831513636643
-0.012481689,-0.16520691,9.483459,-0.13867188,-0.13430786,-0.2735901,10.0,-0.65929884,-0.17840202,9.782837,0.5448912,0.122014195,-0.5493479,-0.016448949,0.030718127,0.22527157,2017-05-24 15:00:29,26.525258462500176
-0.3189392,-0.37350464,9.922791,0.0014038086,0.0934906,-0.04650879,10.0,-0.35152903,-0.3002921,9.795746,0.23425159,-0.17496493,0.33701515,-0.017770562,0.015497272,0.14610551,2017-05-24 15:00:30,31.351411025378987
-0.36921692,-0.65122986,9.805481,0.016143799,-0.0320282,0.0012512207,10.0,-0.36687347,-0.55160964,9.784248,-0.030369908,-0.021733344,0.15177822,-0.029206783,0.017003894,0.059624176,2017-05-24 15:00:31,28.24912564511041
-0.7754364,-0.29289246,10.191742,0.23310852,0.36566162,-0.14398193,10.0,-0.6477337,-0.44973263,9.774896,0.30318397,-0.16667819,0.05219841,-0.022898505,0.033086695,-0.0015126168,2017-05-24 15:00:32,32.720465852132655
0.9324341,1.0187378,10.385666,-0.28674316,-1.1612091,-0.15853882,80.0,0.6226055,0.26117423,9.7833805,-1.6078132,0.2140187,0.32152843,0.009875343,-0.03299834,-0.1061422,2017-05-24 15:00:33,36.465623911849086
1.4958649,-0.62968445,8.886902,-0.031082153,-0.29942322,-0.8126068,80.0,1.7242724,0.13230997,9.6529665,-1.3827225,0.08670069,-0.70727634,-0.027729714,-0.084063895,-0.38349003,2017-05-24 15:00:34,64.09961215846985
1.5704956,0.4920044,9.827423,-0.13973999,0.17887878,0.2942047,30.0,1.4603164,0.3383405,9.691408,-0.0937835,-0.3316911,1.6013975,-0.025382819,-0.072328605,-0.5339942,2017-05-24 15:00:35,66.30955289980473
0.46636963,1.7996368,8.745239,0.20646667,-0.020324707,0.28993225,30.0,1.129266,1.8420178,9.565674,-1.4922851,-0.06669402,-0.31414604,0.0480092,-0.099907406,-0.5387088,2017-05-24 15:00:36,70.18070760039402
2.052124,0.34835815,9.73085,0.14149475,-0.42512512,0.20578003,10.0,3.3741703,0.7743445,9.17528,-1.2333872,-0.40919757,0.76919365,-0.087404974,-0.16512288,-0.65527695,2017-05-24 15:00:37,60.483636426907445
1.3478241,1.0115509,8.7612,1.0789185,0.44200134,0.6254883,10.0,1.0214357,2.0988874,9.524796,0.12990618,-1.4986312,1.80056,0.05483583,-0.1066003,-0.59509647,2017-05-24 15:00:38,60.86181915938809
-1.3288879,5.367798,7.6869965,0.0030059814,0.2033844,-0.023254395,10.0,-1.0852096,5.052072,8.334823,-0.26912105,0.12395048,-0.40009594,0.24324684,-0.1259892,-0.61181116,2017-05-24 15:00:39,64.84560650523106
-0.76864624,3.638382,8.767593,0.0786438,0.009506226,-0.119125366,10.0,0.16647238,3.4062803,9.194559,0.27241278,-0.21483302,0.35055542,0.13985659,-0.10792619,-0.5625714,2017-05-24 15:00:40,52.84144339962694
-0.08270264,1.9883881,9.728455,0.32684326,0.29180908,0.0033874512,30.0,0.04333672,2.5423245,9.471277,0.60931134,-0.5029657,-0.095565796,0.102259934,-0.066106215,-0.4819206,2017-05-24 15:00:41,63.084266452666036
-0.71318054,2.1416016,7.2660217,-0.016174316,0.13414001,0.79167175,30.0,0.12615168,3.136348,9.290737,-0.7453656,-0.74134326,-1.5325384,0.14359817,-0.07539106,-0.42320585,2017-05-24 15:00:42,61.981800993027356
-0.13179016,0.47683716,7.921234,0.3151245,-1.3401794,-0.31619263,10.0,-0.086074136,0.68475544,9.782336,-1.6095058,-0.2575416,-0.5455723,0.034876313,0.0048314775,0.01260279,2017-05-24 15:00:43,24.665872950884665
-2.429016,1.3591003,8.779556,0.03388977,-0.0554657,0.26756287,10.0,-2.5952518,1.712348,9.300695,-0.79127574,-0.15595376,-0.013175011,0.06725636,0.14585312,0.14863776,2017-05-24 15:00:45,33.49806410615219
-0.575119,1.5657959,10.3537445,0.16918945,0.1799469,-0.91593933,10.0,-0.17245783,1.5961529,9.674345,-0.21941648,-0.41415524,-0.44496822,0.080503955,0.016273402,0.09138914,2017-05-24 15:00:46,61.363863101755314
-1.5276031,4.26886,8.463928,0.060531616,-0.046951294,-0.103149414,80.0,-1.175395,4.233943,8.767129,-0.3459611,0.09859419,-0.21982479,0.22694369,0.038695835,-0.09899998,2017-05-24 15:00:47,67.27936719881475
-0.9526062,3.6970367,9.539322,-0.14506531,9.918213E-4,-0.1532135,80.0,-0.6078976,3.6696017,9.073856,-0.1256845,0.14502454,-0.070895195,0.19327474,-0.002637145,-0.17353933,2017-05-24 15:00:48,49.85261856170405
-0.1289978,2.9955444,8.728088,0.5803833,-0.17372131,0.37942505,80.0,-0.31501514,3.1219425,9.291104,-0.92370117,-0.2633624,-0.26025677,0.16183409,-0.009758405,-0.15797904,2017-05-24 15:00:49,56.54198802209828
-0.2239685,3.2134094,8.95195,-0.2622528,-0.40274048,-0.053085327,80.0,-0.37992406,3.4592814,9.168392,-0.42509922,0.27516508,-0.5282612,0.17997855,-0.012239967,-0.17347169,2017-05-24 15:00:50,41.309775950464164
-0.17208862,3.4532318,9.151459,-0.06517029,-0.04374695,0.0044403076,80.0,-0.098323666,3.5355623,9.146612,-0.058271453,0.069462776,-0.25168324,0.18042926,-0.03313366,-0.20436193,2017-05-24 15:00:51,33.24868986947436
-0.27983093,3.5569763,8.6813965,0.21392822,0.147995,0.0662384,80.0,0.025815986,3.600937,9.121566,0.10430354,-0.029859304,0.16757679,0.18246686,-0.04044004,-0.20568503,2017-05-24 15:00:52,39.375612221393
-0.08509827,3.4233093,8.87413,-0.020431519,-0.019256592,-0.053085327,80.0,-0.12154395,3.586119,9.126629,-0.1403043,0.053304195,-0.072603226,0.18197882,-0.039435,-0.24048829,2017-05-24 15:00:53,38.144206420904595
-0.37480164,4.0174713,9.386093,0.13189697,-0.46347046,-0.99264526,30.0,0.3196373,3.682229,9.083469,-0.32264316,0.053593636,0.14151192,0.16295901,-0.10156936,-0.44513586,2017-05-24 15:00:54,68.66055173320704
2.4192352,3.5162811,7.564102,-0.12057495,-0.44003296,0.6329498,10.0,-0.18421099,4.2645774,8.82892,-1.6149161,-0.33360052,0.91577053,0.15724546,-0.1585062,-0.72098476,2017-05-24 15:00:55,72.71449080426093
-1.1357574,0.8032532,10.803864,-0.40179443,0.114974976,-1.7734833,10.0,-1.0718088,0.7869571,9.716085,1.3870789,0.44084543,0.32150173,0.06829302,-0.017759934,-0.8841967,2017-05-24 15:00:56,57.65026238573207
0.9432068,2.8862,9.071259,0.9340515,0.14692688,0.41670227,10.0,1.0094428,3.0412095,9.268357,-0.45830315,-0.9727609,0.12153721,0.009836142,-0.16537389,-0.91587335,2017-05-24 15:00:57,69.65292167218354
-0.9059143,5.358612,8.584824,-0.32936096,0.09686279,-0.005142212,10.0,-0.45318913,4.943854,8.457146,-0.69997084,0.44883204,-0.2948637,0.11680923,-0.23486416,-0.899642,2017-05-24 15:00:58,61.87396667894076
-0.7143707,4.8207245,8.177017,0.026443481,-0.107666016,-0.07650757,10.0,-0.5012772,4.904868,8.477109,-0.16240883,-0.011650085,0.060170174,0.12553665,-0.2280971,-0.88881403,2017-05-24 15:00:59,45.80421747574008
-1.0423737,4.7999725,8.252045,-0.033218384,-0.06825256,-0.1340332,10.0,-0.6366492,4.7775307,8.540507,-0.33042973,0.12252617,0.03600025,0.12031187,-0.22378644,-0.90490824,2017-05-24 15:01:00,39.85698735041035
-1.3588104,5.396927,7.6147766,0.08502197,-0.04374695,-0.04348755,10.0,-1.3562362,5.3908176,8.07899,-0.20702624,0.1662159,0.04210329,0.16744192,-0.24504963,-0.89607286,2017-05-24 15:01:01,25.92508113715955
-1.4825134,5.4132843,7.831848,-0.45399475,-0.6371002,0.089660645,10.0,-1.1912986,5.249218,8.197372,-0.51908076,0.33198547,-0.24817324,0.14095645,-0.2360379,-0.9033893,2017-05-24 15:01:02,27.048727566374453
-0.79019165,4.2141876,8.575653,0.17877197,0.10644531,0.17488098,10.0,-1.0164897,4.206476,8.800153,-0.16852874,-0.0024662018,0.5439091,0.13302128,-0.18336415,-0.9006799,2017-05-24 15:01:03,28.120313449177083
-0.9837189,4.917694,7.985489,-0.15039063,-0.16732788,-0.114868164,10.0,-1.31274,5.2357802,8.187411,0.12205291,-0.02659607,-0.20305061,0.17508665,-0.23107888,-0.8835177,2017-05-24 15:01:04,33.70187697909853
-0.17767334,4.416504,8.473892,-0.15359497,0.010574341,0.041732788,10.0,-0.34172085,4.616331,8.64541,0.006891012,0.047184467,-0.53216934,0.10208576,-0.22087395,-0.9080908,2017-05-24 15:01:05,35.34529594102088
-2.3324585,-0.9129944,8.707733,-0.81192017,1.5711823,3.006363,10.0,-0.6219934,3.233928,9.237165,-1.061625,-2.3390038,0.12748432,0.14024878,-0.09677774,-0.7027509,2017-05-24 15:01:06,28.357569389810962
-4.1939545,-0.43495178,9.245636,-0.17808533,-0.1449585,0.5157776,30.0,-2.8546095,0.65468866,9.359111,-1.2464566,-1.3852355,0.12806225,0.0149346,0.15031655,0.124633096,2017-05-24 15:01:07,26.986713241966438
-1.8759613,-0.31404114,9.35257,-0.90460205,-0.5220642,-0.61553955,10.0,-1.1157107,-0.30705097,9.738136,-0.44641984,-0.09930688,-1.532135,-0.045065187,0.041812383,0.2918688,2017-05-24 15:01:08,53.93639437911133
-2.2849731,-0.6300812,10.0121765,-0.010848999,-0.084228516,-0.09889221,10.0,-1.676206,-0.48178518,9.650316,-0.08178365,-0.44709423,0.4165411,-0.0555185,0.06991786,0.3797964,2017-05-24 15:01:09,57.90347399137815
-1.9912872,-0.6272888,9.698929,0.010467529,9.918213E-4,-0.027511597,10.0,-1.617105,-0.3797039,9.664947,-0.36190724,-0.2184737,-0.06243038,-0.054275304,0.06541472,0.4440992,2017-05-24 15:01:10,37.329072958238555
-2.1780396,-0.6536255,9.909225,0.02217102,0.032943726,-0.08929443,10.0,-1.933271,-0.4660906,9.602896,-0.20714748,-0.06943521,0.032221794,-0.069416426,0.074632,0.48791865,2017-05-24 15:01:11,28.35706421366769
-1.9198608,-0.6799469,9.839401,-0.031082153,0.003112793,0.10777283,10.0,-2.0683086,-0.44484153,9.57573,-0.017043114,-0.009830624,0.009537697,-0.07211204,0.08107719,0.48970777,2017-05-24 15:01:12,32.45903834727967
-1.8532104,0.059448242,9.694153,0.2394867,-0.19821167,-0.2554779,10.0,-1.4603417,-0.17386284,9.69575,-0.29529345,-0.34452832,0.009507179,-0.044378262,0.060703553,0.48920727,2017-05-24 15:01:13,45.47841924327002
-1.1576996,-0.2701416,9.878891,0.0637207,0.023361206,-0.10421753,10.0,-1.0730193,-0.13608918,9.7468195,0.23742461,-0.19092277,0.13638306,-0.031600896,0.045297697,0.46370864,2017-05-24 15:01:14,51.38470648818635
-1.2035828,0.10614014,9.873703,0.0317688,-0.008605957,-0.067993164,10.0,-1.1130979,0.07041554,9.74302,-0.042942405,0.053002395,1.8119812E-4,-0.020962792,0.052960247,0.42531618,2017-05-24 15:01:15,36.42130973483262
-1.1397552,0.18673706,9.78273,0.0040740967,-0.018188477,0.006576538,10.0,-1.0686842,0.21555668,9.745862,-0.09564757,0.03177552,-0.13102531,-0.013092517,0.05411,0.42205203,2017-05-24 15:01:16,42.72504335934349
-1.179657,0.1879425,9.899246,-0.0012512207,0.046798706,-0.032836914,10.0,-1.0411282,0.18524309,9.749469,-0.13973081,0.04634212,-0.1894598,-0.013941634,0.052164294,0.42282537,2017-05-24 15:01:17,46.100444263926185
-1.0890656,-0.0594635,9.987427,-0.014038086,0.019104004,-0.010467529,10.0,-1.1323624,-0.075571895,9.740762,0.06958592,-0.021492809,0.20845985,-0.028251035,0.050609022,0.4274746,2017-05-24 15:01:18,50.88136986093835
-1.3552246,-0.14764404,10.088394,-0.04600525,0.047851563,0.04812622,10.0,-1.1868654,-0.18497755,9.732807,-0.03970313,-0.04530123,-0.23906898,-0.034693576,0.050609656,0.43084177,2017-05-24 15:01:19,35.4850592334542
-1.0691223,-0.09298706,9.805878,0.03388977,0.013763428,0.03215027,10.0,-1.1799928,-0.072227895,9.735132,-0.0058511496,0.021094784,-0.03550148,-0.02961203,0.05262659,0.4354238,2017-05-24 15:01:20,52.406205445674004
-0.9410248,-0.18356323,9.670593,0.0019378662,-0.053344727,1.8310547E-4,10.0,-1.1261804,-0.030531567,9.741723,0.20345771,-0.13340043,-0.022127151,-0.026487188,0.051076192,0.43541172,2017-05-24 15:01:21,58.51571028512844
-0.90431213,-0.1169281,9.633499,0.0040740967,-0.060791016,0.02255249,10.0,-1.0595362,-0.0223975,9.749219,-0.0029509068,-0.035042137,0.21189499,-0.024498463,0.048249412,0.43314967,2017-05-24 15:01:22,35.491726835664615
-1.1856384,-0.044296265,10.01297,0.046676636,0.03614807,-0.129776,10.0,-1.1603199,-0.049254138,9.737638,0.18228745,-0.106663816,0.11499882,-0.027146587,0.052741237,0.41878915,2017-05-24 15:01:23,54.060732385679145
-0.46339417,0.79685974,9.871704,0.5377655,-0.38250732,-0.27677917,10.0,-0.58136225,0.83146715,9.754028,-0.4898643,-0.30643988,0.41031456,0.02819147,0.04345354,0.37514308,2017-05-24 15:01:24,46.01338378489853
0.6499176,3.2525177,8.404861,0.305542,-0.18862915,0.14718628,80.0,0.84531724,3.0147104,9.293404,-0.51545775,-0.017606974,0.16592216,0.16160585,-0.0072006816,0.2238694,2017-05-24 15:01:25,49.109253289752075
-0.08430481,3.6148376,8.709717,-0.06410217,-0.1023407,0.09072876,80.0,-0.3098836,3.70693,9.073754,0.012193918,0.18153024,0.10659599,0.1850498,0.055891197,0.20445058,2017-05-24 15:01:26,47.67456137671136
-0.511261,3.2213898,9.080032,-0.13973999,-0.02670288,-0.0040740967,80.0,-0.22600472,3.1196003,9.294482,0.034935474,0.05916214,-0.19473934,0.15657154,0.039983008,0.17444499,2017-05-24 15:01:27,54.960688574903465
-1.0731049,3.9664001,8.604385,-0.2696991,-0.11299133,0.12695313,80.0,-1.0759878,4.0355735,8.872811,-0.397403,0.33576918,-0.6161823,0.20130448,0.084196344,0.13190648,2017-05-24 15:01:28,57.96964117048759
-0.80415344,3.4261017,9.024963,0.09994507,0.10644531,0.01083374,80.0,-0.6487935,3.3841121,9.181353,0.09328407,-0.048805237,0.13340092,0.16950552,0.056117456,0.12783307,2017-05-24 15:01:29,33.329958044221264
-0.11264038,3.6846771,8.815475,-0.04600525,-0.35906982,0.06942749,80.0,-0.22298618,3.8757994,9.005489,-0.16510546,0.009158373,-0.05940056,0.19744131,0.04039733,0.11974076,2017-05-24 15:01:30,32.56520062135194
-0.7858124,3.997116,8.625534,0.050933838,0.004180908,-0.052017212,80.0,-0.7303656,4.0900526,8.883041,0.22267246,-0.183177,0.2941742,0.2072961,0.06418153,0.120293215,2017-05-24 15:01:31,26.101975475071928
-1.2307281,4.6607056,8.375732,0.008331299,-0.19395447,-0.0317688,80.0,-1.1480819,4.7101746,8.524467,-0.08333504,0.05884123,0.02885437,0.23761885,0.0940389,0.12458303,2017-05-24 15:01:32,29.152085029750836
-0.36242676,3.517868,8.783157,-0.012969971,-0.027770996,0.015106201,80.0,-0.44620627,3.7019951,9.070089,0.012052298,-0.047305822,0.10682678,0.18730912,0.049693562,0.13629128,2017-05-24 15:01:33,25.204896737392563
-0.23313904,3.4241028,8.896881,-0.023635864,0.029754639,0.005508423,80.0,-0.24058188,3.487171,9.16254,0.019981623,0.020652294,0.049311638,0.17753942,0.036334723,0.1304011,2017-05-24 15:01:34,25.39714989180694
-0.8089447,3.2748718,8.942368,0.013656616,-0.007537842,-0.021118164,80.0,-0.7677767,3.3254092,9.193616,-0.03883356,-0.0013661385,-0.0761652,0.16406332,0.06587342,0.15185444,2017-05-24 15:01:35,28.48265150370919
-1.0687103,3.8466797,8.703735,0.2671814,0.2822113,-0.103149414,80.0,-0.8029575,3.691294,9.049862,0.16090184,-0.14678288,-0.059592247,0.18356283,0.069929704,0.14632617,2017-05-24 15:01:36,30.295302512666524
-0.9382324,3.9536133,8.553314,0.030700684,-0.053344727,0.014038086,80.0,-0.86217755,3.9482896,8.935214,0.0046843886,0.032997847,0.080952644,0.19750448,0.07364011,0.13824138,2017-05-24 15:01:38,30.147468935594304
-0.7738342,3.8654327,8.703339,-0.015106201,0.007385254,0.008712769,80.0,-0.8373624,3.9673884,8.9291115,-0.023046374,-0.023934126,-0.007997513,0.19951947,0.0702423,0.12718348,2017-05-24 15:01:39,58.444348936596086
-0.7510834,3.8690338,8.731674,0.032836914,0.00843811,-0.0072784424,80.0,-0.81931955,3.9292867,8.947614,-0.0019085407,0.01345396,0.032058716,0.19807756,0.06755671,0.12008916,2017-05-24 15:01:40,61.6284234472153
-0.8197174,3.8386993,8.83223,-0.0044555664,0.004180908,-0.018997192,80.0,-0.86884016,3.9215682,8.94633,0.062097788,-0.027269363,-0.10911083,0.1979912,0.0682908,0.11133557,2017-05-24 15:01:41,29.484060881721707
-0.33450317,3.6770935,8.894485,0.06692505,-0.05760193,-0.03816223,80.0,-0.3299247,3.76064,9.05092,0.006174773,-0.043958187,-0.010189056,0.19250745,0.038372763,0.10690724,2017-05-24 15:01:42,32.576249595856176
-0.30895996,3.6902618,9.107162,-0.010848999,-0.11405945,0.07582092,80.0,-0.10549222,3.6242068,9.111772,-0.04539404,0.049115896,0.027086258,0.18681836,0.022974778,0.091465585,2017-05-24 15:01:43,35.05887313377062
0.29278564,3.4979248,8.787537,-0.0055236816,0.03614807,-0.0594635,80.0,0.14706877,3.8570406,9.015098,0.15849194,-0.23766327,-0.6566973,0.2005987,0.010866551,0.0902209,2017-05-24 15:01:44,28.63796681574373
-0.6030426,3.8746185,8.762405,-0.03640747,0.15545654,0.0044403076,80.0,-0.74225754,3.924799,8.9563055,0.15139532,0.03157711,-0.014183044,0.20005554,0.057734974,0.09185143,2017-05-24 15:01:45,41.17211721119703
-0.13378906,2.9528503,9.386093,0.45040894,0.20019531,0.035339355,30.0,-0.22217177,3.0868866,9.3054905,-0.08629052,-0.3125143,0.7434244,0.15631562,0.033428244,0.1366038,2017-05-24 15:01:46,49.145430251103754
0.6036377,3.1244354,9.109955,0.03816223,-0.5444336,-0.030700684,80.0,0.64593685,3.2299235,9.236923,-0.13403887,0.072779655,-0.30688858,0.17011255,-0.010474713,0.13348398,2017-05-24 15:01:47,30.489883335817886
-0.15692139,3.8558655,8.543335,0.41526794,-0.27705383,-0.39076233,80.0,-0.22687706,3.9903176,8.955237,0.16266792,-0.12361598,-0.03129673,0.20510614,0.036625624,0.1169985,2017-05-24 15:01:48,36.669854261508206
-0.56832886,4.712982,8.2556305,-0.3176422,-0.30581665,0.054519653,80.0,-0.42883626,4.6731763,8.610917,-0.19937104,0.14172554,-0.21254921,0.24438223,0.035252057,0.05012755,2017-05-24 15:01:49,43.519732221932166
-2.6812134,-2.9951477,13.121445,0.75827026,0.0063171387,-3.5908203,80.0,-1.8736217,1.7210385,9.470901,0.08795643,-2.8840735,2.4883633,0.12472411,0.039526768,-0.49339947,2017-05-24 15:01:50,43.02207981155624
-3.296524,0.8647003,7.822281,-1.0686493,-1.0301819,0.6595764,0.0,-1.3576047,1.9811531,9.508014,-1.9510373,-0.4969437,-2.854949,0.08039872,-0.09360692,-0.9864822,2017-05-24 15:01:51,43.248932988571276
0.74209595,0.75057983,8.451553,0.32470703,0.04573059,1.1357574,10.0,1.0573033,1.833653,9.5755005,0.18715727,-1.0694634,-0.5685282,-0.006487906,-0.10836627,-0.88931996,2017-05-24 15:01:52,50.176276145111125
-1.615799,0.10295105,9.513382,0.1382904,-0.121520996,0.08328247,10.0,-0.16240217,0.47615957,9.793737,-1.9042172,-0.7755003,0.05311489,0.0235223,-0.010251237,-0.6738332,2017-05-24 15:01:53,54.2762111285718
0.55415344,0.36869812,10.213287,-0.05984497,-0.05760193,-0.5239258,10.0,0.33642256,0.18694642,9.799095,-0.6352302,-0.03738317,1.0447121,-0.0060298755,-0.01867775,-0.730647,2017-05-24 15:01:54,57.642662860893466
1.112793,1.4389038,9.331818,-0.05984497,0.3440094,-1.0022278,10.0,1.3389909,1.9239393,9.522391,1.1133735,-1.2665889,-0.18498993,0.015795527,-0.119346716,-0.73336756,2017-05-24 15:01:55,43.124179692359974
0.14074707,0.12489319,12.323776,-0.45718384,0.6763611,0.17915344,10.0,0.26931104,1.3318905,9.71205,0.57390445,0.36405146,-0.14342594,0.026267463,-0.064290404,-0.83038074,2017-05-24 15:01:56,48.77511585150789
1.1770477,4.050186,9.884872,0.027511597,1.0779724,0.08433533,10.0,1.8344897,3.3821433,9.020318,-0.1415397,0.4028697,-0.055871964,0.006922874,-0.20010957,-0.8445535,2017-05-24 15:01:57,42.2187775137635
1.3617859,0.97402954,9.062866,-1.0409546,0.014831543,-0.050949097,10.0,1.7520341,2.3902032,9.348138,-0.05289364,1.0122373,-1.651722,-0.0072677163,-0.1527245,-0.82391757,2017-05-24 15:01:58,33.92243135647504
0.37019348,-1.074997,9.898453,0.14361572,0.2183075,-0.3896942,30.0,0.7435474,-0.86236423,9.740321,-0.29984504,-0.36231607,0.51597023,-0.06109357,0.0036935464,-0.7102787,2017-05-24 15:01:59,39.92299336459053
0.09526062,-1.2110748,9.728867,0.067977905,-0.029907227,0.09605408,80.0,-0.2042044,-1.1940601,9.731543,0.054450378,-0.21590221,0.14621258,-0.030588895,0.0537938,-0.7720412,2017-05-24 15:02:00,42.2058308305172
-0.56674194,-1.3694916,9.854553,0.0061950684,-0.012863159,0.070495605,80.0,-0.578958,-1.3063726,9.701989,-0.05543846,-0.026234388,-0.0046281815,-0.014595568,0.07157665,-0.81267345,2017-05-24 15:02:01,38.22236136941052
-0.74349976,-1.3148193,9.7939,0.046676636,-0.020324707,0.01083374,80.0,-0.6572142,-1.3401995,9.692386,0.008928359,0.010651708,-0.036458015,-0.008554389,0.07584679,-0.84039235,2017-05-24 15:02:02,40.51279233503352
-0.6509247,-1.3311768,9.824631,-0.017242432,0.0052490234,-0.04348755,80.0,-0.6756316,-1.3241788,9.693321,0.023358583,-0.007058978,0.0050878525,-0.006185306,0.07576247,-0.84835666,2017-05-24 15:02:03,30.778423716754112
-1.0870819,-1.3339691,9.969482,0.018981934,-0.007537842,0.041732788,80.0,-0.9730494,-1.3262044,9.667717,-0.051488936,-0.030284643,0.101135254,0.006531223,0.08391057,-0.84671956,2017-05-24 15:02:04,31.492417315706163
-3.3475952,-1.948883,9.282745,0.017913818,0.028686523,0.11949158,120.0,-2.9388065,-1.928746,9.1549835,0.36178207,-0.29563284,0.2727356,0.062702626,0.17115515,-0.7893399,2017-05-24 15:02:05,28.530524107060295
-3.6424866,-1.5362854,9.32663,-0.09286499,-0.08529663,0.11416626,120.0,-3.7073765,-1.4358308,8.964604,0.25434303,-0.07411432,0.105072975,0.10273398,0.17993917,-0.7591463,2017-05-24 15:02:06,29.046377925757973
-3.5211792,-1.6544037,9.364944,-0.12590027,-0.22485352,-0.14468384,120.0,-3.3280594,-1.702624,9.066173,-0.08648133,0.05667448,-0.016379356,0.08373063,0.17533694,-0.7794877,2017-05-24 15:02:07,41.287465008276705
-3.542328,-1.177948,9.010605,0.018981934,0.046798706,0.21963501,120.0,-3.731716,-1.1386013,8.997127,0.11389184,-0.1528064,-0.020973206,0.110135585,0.17071733,-0.747814,2017-05-24 15:02:08,45.47452594437728
-3.6760101,-1.246582,9.263977,-0.05558777,-0.017120361,-0.029647827,120.0,-3.6854825,-1.2051525,9.007509,-0.0013301373,0.017298937,-0.0034971237,0.10769426,0.17072438,-0.75412714,2017-05-24 15:02:09,35.144300737924034
-3.6313171,-1.4129791,9.297897,-0.06410217,-0.05014038,-0.046691895,120.0,-3.503209,-1.4311755,9.04708,-0.0068969727,0.051060915,-0.029545784,0.09703438,0.17153722,-0.7678443,2017-05-24 15:02:10,28.849837697933296
-3.4226227,-1.6476135,9.391281,0.008331299,0.027618408,0.08860779,120.0,-3.3600776,-1.5122069,9.088097,-0.010899544,0.0144279,-0.0046491623,0.088051,0.16995019,-0.7694039,2017-05-24 15:02:11,27.680712805560418
-3.7214966,-1.3327789,9.315857,0.02217102,-0.0096588135,-0.026443481,80.0,-3.6167483,-1.283335,9.024553,-0.03940153,-0.04868543,-0.022961617,0.10422559,0.17033158,-0.7614792,2017-05-24 15:02:12,31.29245665021745
-3.5718536,-1.3339691,9.318253,0.026443481,-0.010726929,-0.079711914,120.0,-3.4825213,-1.3061901,9.073935,0.021216154,0.0015324354,-0.035941124,0.10295676,0.16354933,-0.77817696,2017-05-24 15:02:13,31.30849187222929
-3.6149597,-1.4624634,9.39447,0.04988098,0.02229309,0.10458374,120.0,-3.5114658,-1.3362814,9.058386,0.080299616,-0.011628151,-0.026992798,0.10183039,0.16667768,-0.7755307,2017-05-24 15:02:14,51.06244048960137
-3.5993958,-1.3180084,9.232864,0.06692505,0.028686523,0.080078125,120.0,-3.5473897,-1.262777,9.054933,0.079922915,0.036952376,-0.15247917,0.1054532,0.16494405,-0.7747209,2017-05-24 15:02:15,57.954940947094364
-3.4689026,-1.5825653,9.370117,0.017913818,0.009506226,0.07901001,120.0,-3.422474,-1.452905,9.074477,-0.039616108,2.721548E-4,0.013594627,0.09448263,0.16853334,-0.7760829,2017-05-24 15:02:16,32.91476383860325
-3.5519104,-1.4485016,9.367737,0.028564453,0.015899658,-0.015792847,120.0,-3.408203,-1.4518679,9.080012,-0.005717993,0.018198967,-0.0043592453,0.09286158,0.16859701,-0.7724227,2017-05-24 15:02:17,57.94343043777144
-4.1508636,-2.046646,10.063248,-1.0718536,-2.3148956,0.4646454,120.0,-3.7438762,-1.6951858,8.903938,-0.0039582253,0.0907408,0.5365486,0.09730497,0.19119944,-0.7626094,2017-05-24 15:02:18,65.62827788148225
-0.530426,5.23851,7.308319,1.2408447,1.7203217,-0.09461975,10.0,-1.3199427,5.557239,7.971526,0.9230213,-0.53913116,0.7591753,0.2190695,-0.18558295,-0.7461574,2017-05-24 15:02:19,32.75419338749049
0.7468872,6.9120636,7.3813477,-0.50193787,0.15545654,0.3208313,10.0,0.62718