ACC_X,ACC_Y,ACC_Z,GYRO_X,GYRO_Y,GYRO_Z,LIGH_1,GRAV_X,GRAV_Y,GRAV_Z,LINACC_X,LINACC_Y,LINACC_Z,ROTVEC_X,ROTVEC_Y,ROTVEC_Z,TIME,VOICE
-0.3410492,1.3587189,9.454971,0.049118042,0.34669495,-0.06817627,0.0,0.29986188,1.1810936,9.730647,-0.5687968,0.43292308,-0.09172249,0.05369881,0.03148853,0.7011949,2017-02-09 18:10:52,53.517860837267285
1.5796051,0.49357605,8.8619995,-0.018661499,-0.19795227,0.0073242188,0.0,1.7414637,0.75041425,9.621568,-0.030160666,-0.06697452,0.11804104,0.0890021,-0.03892547,0.67960995,2017-02-09 18:10:52,53.47794522909127
2.078659,0.28825378,9.274643,-0.066711426,-0.15498352,0.056396484,0.0,2.4796462,0.38998392,9.47996,0.24502945,0.074917614,-0.07771397,0.102357276,-0.078609906,0.6830744,2017-02-09 18:10:54,52.01488662492853
2.303543,0.14732361,9.016296,-0.050216675,0.027832031,-0.07551575,0.0,2.545463,0.18818876,9.468663,-0.046104908,-0.06182763,-0.23560524,0.0967994,-0.08867016,0.67964995,2017-02-09 18:10:55,57.862330671419585
2.5896454,0.30189514,8.744675,0.017166138,-0.022033691,-0.04537964,0.0,2.6307607,0.20976521,9.444866,0.1056571,-0.05863495,-0.11894035,0.100266375,-0.09161078,0.6759825,2017-02-09 18:10:56,53.90600765149749
2.2988434,0.3458557,8.723541,0.06338501,0.029663086,-0.028686523,0.0,2.3976562,0.24493285,9.505874,-0.018085957,-0.14161408,0.05422592,0.09215948,-0.08271607,0.66729635,2017-02-09 18:10:57,42.90960304600104
2.084198,0.8370819,8.967148,-0.051849365,-0.074157715,-0.09710693,0.0,2.1861308,0.79815704,9.526498,0.32941532,0.25330216,-0.01723957,0.102360375,-0.061320186,0.62632155,2017-02-09 18:10:58,56.5655499951454
1.7143402,-0.6621399,10.676651,-0.3413849,-0.10246277,-0.7036896,0.0,1.4394114,-0.54789984,9.684952,-0.6215881,0.73355186,3.8990211,0.016646264,-0.07699221,0.5435139,2017-02-09 18:10:59,42.82372081826733
3.2588654,0.31874084,8.968704,-0.18765259,-0.16720581,-0.6930847,0.0,3.674008,0.18971704,9.090438,0.37905884,-0.08956753,2.363389,0.10094427,-0.16225572,0.47484156,2017-02-09 18:11:00,40.9699295533336
0.05091858,0.14117432,9.029999,0.004135132,-0.00390625,-0.0069122314,0.0,0.12421134,0.36239308,9.799165,-0.057062753,-0.19690278,0.023432732,0.019331489,0.0028182066,0.4572224,2017-02-09 18:11:01,68.16692260724128
0.057769775,0.1515503,9.032837,0.007385254,-0.005126953,-0.009979248,0.0,0.08718604,0.21810658,9.803837,-0.031820796,-0.057641327,-0.00385952,0.01191713,0.0011936532,0.46184584,2017-02-09 18:11:02,40.823487627353934
0.056228638,0.15911865,9.035294,0.0067749023,-0.0026855469,-0.009567261,9.0,0.07399301,0.19005583,9.804529,-0.034797065,-0.03900923,0.013961792,0.010336707,0.0011382706,0.4625924,2017-02-09 18:11:03,42.856788044575076
0.053833008,0.1483612,9.036499,0.005554199,-0.0055389404,-0.011001587,9.0,0.075944394,0.18894221,9.804536,-0.031764276,-0.015155345,0.013462067,0.010332281,0.0010249385,0.46269092,2017-02-09 18:11:04,58.172194543252886
0.057434082,0.13400269,9.0269165,0.006378174,-0.001876831,-0.008560181,9.0,0.07978193,0.19269718,9.804432,-0.012512535,-0.034032837,0.013222694,0.010592624,9.39574E-4,0.46264818,2017-02-09 18:11:05,59.675859217044554
0.057434082,0.13998413,9.038895,0.0057525635,-0.009002686,-0.008956909,9.0,0.0735482,0.19444387,9.804447,-0.021120578,-0.028457716,-0.01123333,0.010524859,0.00125968,0.46240553,2017-02-09 18:11:06,54.573920115204714
0.050247192,0.13877869,9.037689,-9.3078613E-4,0.0024871826,-0.0020141602,9.0,0.06053163,0.16677834,9.805045,0.0076426603,0.0030561537,-0.0048980713,0.008966075,0.0012032276,0.46314555,2017-02-09 18:11:07,52.21462109758175
0.056228638,0.16749573,9.065201,2.89917E-4,0.0012512207,-0.0024108887,9.0,0.061405,0.16385879,9.805089,-0.0063483156,-0.005059123,0.004160881,0.008854585,0.0010962146,0.46328646,2017-02-09 18:11:08,59.63329912806019
0.041870117,0.14596558,9.034103,0.0015106201,0.0010528564,-5.79834E-4,9.0,0.048884615,0.1584772,9.805247,-0.017555643,-0.008513287,0.011297226,0.00831585,0.0015335449,0.46315265,2017-02-09 18:11:09,47.96071629222887
0.053833008,0.15792847,9.032898,-0.001953125,-5.645752E-4,-1.6784668E-4,9.0,0.055313412,0.15790734,9.8052225,-0.0055199265,-0.004393846,-0.018089294,0.008441644,0.0012315059,0.46335474,2017-02-09 18:11:10,62.263363339271464
0.047851563,0.16390991,9.041275,2.89917E-4,-5.79834E-4,-0.0011901855,9.0,0.05701543,0.14915928,9.805349,9.62913E-5,-0.003465414,-0.0050935745,0.008086139,9.5152925E-4,0.46375212,2017-02-09 18:11:11,63.68840343578717
0.053833008,0.13877869,9.046066,7.019043E-4,-0.0018005371,-3.8146973E-4,9.0,0.058502328,0.14922206,9.80534,-0.014475185,-0.0060025305,0.0013828278,0.008124097,8.8620384E-4,0.46379095,2017-02-09 18:11:12,58.61232640882073
0.058624268,0.14356995,9.049652,-0.001739502,-0.002609253,-0.0014038086,9.0,0.05551178,0.1592379,9.8052,-0.0200621,-0.0020368695,0.010510445,0.0085065225,0.0012535249,0.46330705,2017-02-09 18:11:13,47.50134992464624
0.06341553,0.13040161,9.048462,2.89917E-4,2.4414063E-4,0.0010528564,9.0,0.05179663,0.16290198,9.8051605,0.0013110638,-0.0041968673,-0.009048462,0.008584749,0.0015055359,0.46305695,2017-02-09 18:11:14,50.377032558694346
0.055038452,0.12921143,9.054443,-5.187988E-4,-0.0024108887,-5.79834E-4,9.0,0.058573693,0.1494063,9.805337,-0.004891008,0.015529811,-0.017227173,0.008134114,8.87288E-4,0.46378556,2017-02-09 18:11:15,57.789171842580345
0.041870117,0.1531372,9.038895,-1.2207031E-4,0.0014648438,-0.0016021729,9.0,0.06161004,0.15568827,9.805221,0.004262343,-0.016610265,-0.0072221756,0.008489878,8.971037E-4,0.46361867,2017-02-09 18:11:16,42.266153157297246
0.049057007,0.12921143,9.059219,0.0019226074,2.4414063E-4,-0.0038452148,9.0,0.06272549,0.16289158,9.805097,-0.007537853,-0.0053016394,-0.009488106,0.008841988,0.0010144504,0.46336183,2017-02-09 18:11:17,60.48425628078094
0.053833008,0.14596558,9.023331,7.019043E-4,-1.6784668E-4,3.0517578E-5,9.0,0.05316002,0.1609147,9.805186,-0.020245004,-0.009428799,-0.0015716553,0.008526942,0.0013981271,0.46317446,2017-02-09 18:11:18,55.0233865021838
0.041870117,0.14715576,9.036499,-3.2043457E-4,4.5776367E-5,-0.0011901855,9.0,0.062479492,0.15587316,9.805213,0.0010803528,-0.0023856163,0.005850792,0.008518769,8.623581E-4,0.46363544,2017-02-09 18:11:19,60.05129818610327
0.052642822,0.12322998,9.040085,-0.0013427734,-0.0021972656,6.4086914E-4,9.0,0.059678704,0.15448906,9.805251,-0.002358321,-0.019150361,0.0033597946,0.008390046,9.5594686E-4,0.4636129,2017-02-09 18:11:20,41.883052317718864
0.0382843,0.16390991,9.064011,4.8828125E-4,-0.0018005371,-0.0032348633,9.0,0.06524796,0.16182563,9.805098,-0.020661533,0.0015944093,0.015144348,0.008853311,8.7641756E-4,0.4634745,2017-02-09 18:11:21,27.693465501499727
0.0657959,0.14955139,9.077179,0.0015106201,-0.0024108887,-9.918213E-4,9.0,0.062762484,0.16173628,9.805116,0.005543366,0.007588893,0.0025491714,0.008790605,9.859483E-4,0.463409,2017-02-09 18:11:22,53.19408619133262
0.058624268,0.14596558,9.044876,0.0017089844,-5.645752E-4,-0.0030212402,9.0,0.06055515,0.1606415,9.805147,0.006431088,0.003975764,-0.0072517395,0.0086889975,0.0010596341,0.46339133,2017-02-09 18:11:23,43.60757181813937
0.053833008,0.13519287,9.080765,2.89917E-4,6.4086914E-4,0.0020751953,9.0,0.06885135,0.14997248,9.805262,9.877682E-4,-0.0021747202,0.025579453,0.008402621,4.3891667E-4,0.46404818,2017-02-09 18:11:24,55.85876292389388
0.051452637,0.13400269,9.036499,-0.0013427734,-7.7819824E-4,3.0517578E-5,9.0,0.06508032,0.15318052,9.805238,-0.011068109,-0.018287405,-0.013792038,0.008458469,6.8292173E-4,0.46381533,2017-02-09 18:11:25,41.39808927489451
0.06819153,0.1375885,9.017349,0.002532959,4.4250488E-4,6.4086914E-4,9.0,0.061553977,0.15969902,9.805157,0.013813496,-0.0037267655,0.011950493,0.008669939,9.928744E-4,0.46345678,2017-02-09 18:11:26,51.98370486322717
0.051452637,0.15434265,9.052048,-0.0013275146,-0.0022125244,0.0012512207,9.0,0.066531435,0.15934294,9.80513,9.049624E-4,0.0063112974,-0.011566162,0.008771351,7.61088E-4,0.4636093,2017-02-09 18:11:27,47.84759983775635
0.051452637,0.14715576,9.0269165,-0.001739502,0.0024719238,4.4250488E-4,9.0,0.05788259,0.15482765,9.805257,-0.034239452,-0.018388405,0.015132904,0.008362957,0.0010444932,0.46354944,2017-02-09 18:11:28,33.039489377935254
0.0657959,0.15194702,9.0269165,0.0013122559,4.4250488E-4,-0.0014038086,9.0,0.053246077,0.1550453,9.80528,0.016742736,0.009110913,-0.00623703,0.008263392,0.0012578184,0.4634116,2017-02-09 18:11:29,34.0196422625766
0.051452637,0.15074158,9.034103,0.0019073486,-0.0013885498,-0.0016021729,9.0,0.058530014,0.15681966,9.805222,-0.0013041459,0.013388187,0.0026369095,0.0084683355,0.0010617427,0.46348777,2017-02-09 18:11:30,41.798948378055336
0.06341553,0.1483612,9.029312,0.0013122559,0.0020751953,0.0034942627,9.0,0.060783133,0.15942451,9.805166,0.002639763,-0.005664155,0.009004593,0.00863933,0.0010211113,0.46344632,2017-02-09 18:11:31,54.25899466957951
0.055038452,0.1531372,9.043671,0.003753662,-0.0028076172,-0.0014038086,9.0,0.053592052,0.1593617,9.805209,-0.008711528,-0.006886661,-0.01692295,0.008466851,0.001342632,0.46324858,2017-02-09 18:11:32,41.267919288478645
0.06460571,0.124420166,9.047256,0.002532959,-7.7819824E-4,-0.0011901855,9.0,0.05989669,0.15820122,9.805191,-1.8020347E-4,-0.008256927,0.005487442,0.00856308,0.0010324848,0.46347055,2017-02-09 18:11:33,55.44173161913464
0.04307556,0.13998413,9.035294,9.1552734E-5,-9.765625E-4,8.544922E-4,9.0,0.06330995,0.15679918,9.805192,-0.014114492,0.0013757795,-0.004008293,0.008580253,8.466006E-4,0.4636215,2017-02-09 18:11:34,57.81790236452119
0.033493042,0.13160706,9.058029,0.0015106201,-1.6784668E-4,-9.918213E-4,9.0,0.058693837,0.15685335,9.80522,-0.008648176,0.0037326664,-0.0057287216,0.008473727,0.0010551682,0.463491,2017-02-09 18:11:35,55.94703940944246
0.06939697,0.14237976,9.040085,-0.0013275146,0.0014648438,-0.0018157959,9.0,0.05751737,0.15639977,9.805234,-0.0040068366,-0.01388824,-0.0059375763,0.008425445,0.0010974606,0.4634764,2017-02-09 18:11:36,59.75323635989525
0.06341553,0.12921143,9.030518,0.0013122559,-0.0019989014,-0.0011901855,9.0,0.058004905,0.15795034,9.805206,0.005174391,-0.0031670034,-0.0035123825,0.008507089,0.0011116163,0.46342796,2017-02-09 18:11:37,41.569673318952326
0.050247192,0.15792847,9.044876,0.0017089844,-3.6621094E-4,-7.9345703E-4,9.0,0.057833217,0.15839382,9.805201,0.00414297,-0.008365378,0.0025691986,0.008523098,0.001129637,0.46340543,2017-02-09 18:11:38,62.16086392607136
0.046661377,0.122039795,9.034103,-5.187988E-4,-1.6784668E-4,-0.0016021729,9.0,0.057109173,0.15752003,9.805219,-0.005972497,-0.023136348,-0.0027399063,0.008466488,0.0011418428,0.4634202,2017-02-09 18:11:39,57.72363726532611
0.0657959,0.15434265,9.018555,-1.2207031E-4,-5.79834E-4,-0.0014038086,9.0,0.06513983,0.16267526,9.805084,0.0021652319,0.0019955635,-0.013633728,0.0088891825,9.010132E-4,0.46343756,2017-02-09 18:11:40,62.29483246454352
0.056228638,0.13639832,9.032898,0.0015106201,-0.0022125244,-0.0026245117,9.0,0.06250012,0.16463836,9.805069,-0.0013162456,-0.012806535,-7.7056885E-4,0.008915685,0.0010651432,0.46328577,2017-02-09 18:11:41,41.26809564147163
0.052642822,0.1483612,9.050858,-5.187988E-4,-0.0032196045,-0.0016021729,9.0,0.059919756,0.15769482,9.8052,-0.008587848,-0.004228756,-0.00921154,0.008540719,0.0010196754,0.46349144,2017-02-09 18:11:42,41.62567828992985
0.04307556,0.14476013,9.019745,-5.187988E-4,-5.79834E-4,-0.0022125244,9.0,0.06634953,0.16039985,9.805114,-0.007328436,-0.0066833496,-0.02107048,0.008814844,7.9382246E-4,0.46356204,2017-02-09 18:11:43,61.89636200933546
0.034698486,0.1531372,9.04248,5.0354004E-4,-0.0019989014,-3.8146973E-4,9.0,0.060077284,0.1538516,9.805259,0.002108749,0.0042832196,-0.0015678406,0.00837063,9.232159E-4,0.4636495,2017-02-09 18:11:44,54.93226679346344
0.041870117,0.12921143,9.018555,-9.3078613E-4,0.001663208,-0.0018157959,9.0,0.057862572,0.15620434,9.805236,-0.016214397,0.0020552576,0.025702477,0.008509768,0.0010222715,0.463503,2017-02-09 18:11:45,50.17909352485297
0.046661377,0.13519287,9.030518,7.019043E-4,-0.0011749268,-3.8146973E-4,9.0,0.06258294,0.15585929,9.805212,0.018929515,-0.010749653,0.02260685,0.0085205855,8.573899E-4,0.46363887,2017-02-09 18:11:46,44.814058982491304
0.0382843,0.14955139,9.050858,-9.3078613E-4,-3.6621094E-4,-9.918213E-4,9.0,0.059142623,0.15666533,9.805221,0.012548033,0.011289224,-0.009226799,0.008475814,0.0010306399,0.463511,2017-02-09 18:11:47,61.05826268743361
0.06819153,0.15792847,9.029312,-9.3078613E-4,-0.0015869141,-0.0020141602,9.0,0.06295295,0.1561478,9.805204,0.010191042,0.014064714,-0.004524231,0.008542369,8.474836E-4,0.46363762,2017-02-09 18:11:48,62.406443942140086
0.053833008,0.15792847,9.019745,-3.2043457E-4,0.0024871826,-0.004852295,9.0,0.06463257,0.1528092,9.805246,0.0038484223,-0.009225994,-0.006259918,0.008431103,6.9438736E-4,0.46381775,2017-02-09 18:11:49,63.22468115971829
0.041870117,0.14476013,9.046066,-0.0025482178,-7.7819824E-4,0.002670288,9.0,0.057976738,0.15270019,9.80529,-0.0043864623,0.0063953847,0.0038776398,0.008268963,9.907688E-4,0.46363714,2017-02-09 18:11:50,63.141347938599296
0.049057007,0.1603241,9.036499,2.89917E-4,-5.79834E-4,-0.0022125244,9.0,0.05354511,0.1491884,9.805369,-0.013445437,0.012095764,-0.0025281906,0.008005512,0.0011080957,0.46365437,2017-02-09 18:11:51,62.59082739727302
0.037094116,0.12802124,9.030518,-3.2043457E-4,-0.002609253,-1.6784668E-4,9.0,0.053902786,0.15742406,9.805238,0.017323282,0.0020700842,0.0069351196,0.008386507,0.0012836335,0.46333474,2017-02-09 18:11:52,61.90314407768912
0.050247192,0.15672302,9.037689,0.0017089844,4.4250488E-4,-0.0022125244,9.0,0.05944561,0.1567897,9.805216,-9.5620006E-4,-0.018882692,-0.007857323,0.008488592,0.0010199246,0.46351445,2017-02-09 18:11:53,41.884093744474825
0.033493042,0.13639832,9.059219,2.89917E-4,0.0018615723,0.0020599365,9.0,0.061815612,0.15527661,9.805225,0.0028607994,-0.013852283,-0.010688782,0.008476118,8.782966E-4,0.46364084,2017-02-09 18:11:54,31.72513538485523
0.04547119,0.1268158,9.06282,-0.0015411377,-0.0019989014,-0.0018157959,9.0,0.05250417,0.1517427,9.805335,0.0052912645,-0.0050979853,0.00944519,0.008096481,0.0012143129,0.46352312,2017-02-09 18:11:55,63.81106794274025
0.0382843,0.13639832,9.049652,-0.0015411377,2.4414063E-4,6.4086914E-4,9.0,0.052645758,0.15099192,9.8053465,0.0051976107,0.020834193,0.005599022,0.00806586,0.0011904796,0.46355712,2017-02-09 18:11:56,52.97302665310517
0.056228638,0.12562561,9.049652,7.019043E-4,-0.0018005371,-0.0011901855,9.0,0.05503855,0.14733183,9.805389,6.8934634E-4,-0.010261849,-0.010832787,0.007956813,9.977758E-4,0.46377027,2017-02-09 18:11:57,62.505555085951165
0.044265747,0.1531372,9.020935,6.866455E-4,-0.0034179688,-1.8310547E-4,9.0,0.05035074,0.15144382,9.805351,0.0026570074,0.004009068,-0.0054626465,0.00803215,0.0013041007,0.46347508,2017-02-09 18:11:58,60.59782929766783
0.041870117,0.14955139,9.035294,9.0026855E-4,-0.0013885498,0.0010528564,9.0,0.058882173,0.15822719,9.805197,-0.010025468,0.0012653172,-0.0018053055,0.008540313,0.0010786519,0.46344128,2017-02-09 18:11:59,55.65081004746276
0.046661377,0.11366272,9.067596,-5.187988E-4,3.0517578E-5,6.4086914E-4,9.0,0.053898636,0.14890155,9.805372,0.004090544,0.0025645196,0.0027770996,0.008000884,0.0010855359,0.4636757,2017-02-09 18:12:00,61.334926323866384
0.0382843,0.1375885,9.087936,-0.001953125,4.4250488E-4,0.001663208,9.0,0.057345457,0.14482582,9.805413,-0.007550843,0.012058556,0.0014390945,0.007898004,8.3577103E-4,0.4639348,2017-02-09 18:12:01,58.72603033428692
0.06939697,0.110076904,9.079559,-0.0033721924,0.0026855469,0.0038909912,9.0,0.05146464,0.13765849,9.805549,-0.0153879225,0.016005844,-0.011732101,0.0074350033,9.32869E-4,0.4640585,2017-02-09 18:12:02,41.539593511608935
0.059814453,0.14955139,9.052048,-0.0033721924,0.0020751953,0.002670288,9.0,0.050486475,0.1283076,9.805681,-0.0072949566,0.013936199,-0.023320198,0.0069892104,7.5852044E-4,0.46440655,2017-02-09 18:12:03,40.23462523648915
0.047851563,0.13639832,9.06282,-3.2043457E-4,0.0010528564,0.0012512207,9.0,0.044512197,0.13644353,9.8056,0.0091049075,-0.0016935468,-0.00521183,0.0072158133,0.0012169366,0.4639136,2017-02-09 18:12:04,55.22582042535816
0.049057007,0.16390991,9.052048,-0.0025634766,-3.6621094E-4,0.00390625,9.0,0.044780273,0.13746928,9.805584,0.006495457,0.026179656,-0.013310432,0.007268536,0.0012288172,0.4638799,2017-02-09 18:12:05,52.56912841089547
0.0657959,0.14715576,9.037689,-8.8500977E-4,-0.0042877197,4.5776367E-4,9.0,0.055588853,0.14858411,9.8053665,0.006158326,5.329102E-4,-0.008076668,0.008026439,0.0010022178,0.46373546,2017-02-09 18:12:06,57.63754898609762
0.062210083,0.14356995,9.036499,-8.8500977E-4,-0.0014343262,-0.0015716553,9.0,0.06384829,0.15659082,9.805192,0.003321696,-8.5648894E-4,-0.0069999695,0.008583546,8.1758056E-4,0.46364477,2017-02-09 18:12:07,63.33354945196898
0.0657959,0.13040161,9.044876,-2.593994E-4,-4.119873E-4,-9.613037E-4,9.0,0.061331198,0.15513015,9.805231,-0.00988996,0.01728405,0.02295208,0.008458056,8.966445E-4,0.46363324,2017-02-09 18:12:08,51.586448801768995
0.047851563,0.1375885,9.030518,-0.0030975342,-0.0036773682,-0.003616333,9.0,0.06720713,0.15303059,9.805225,-0.020116374,-0.0047448874,0.004904747,0.008501954,5.83931E-4,0.46388033,2017-02-09 18:12:09,47.00528547382397
0.062210083,0.13160706,9.050858,-0.0012817383,-0.0012359619,-0.004425049,9.0,0.06598965,0.15818314,9.805152,-0.02376131,-0.015474334,-0.0021924973,0.008706116,7.584515E-4,0.4636406,2017-02-09 18:12:10,57.40120728302941
0.04307556,0.13400269,9.073578,0.0017700195,-0.0012207031,-0.0025939941,9.0,0.06398421,0.15779658,9.805172,-0.0027989522,0.005168915,0.0100317,0.008641276,8.395152E-4,0.46360037,2017-02-09 18:12:11,60.62874894766288
0.053833008,0.12083435,9.046066,-6.713867E-4,-0.0030670166,-0.0021820068,9.0,0.06650486,0.15666139,9.805173,-0.017126828,0.006122887,0.006587982,0.008649486,6.999315E-4,0.46371573,2017-02-09 18:12:12,42.24532523082691
0.049057007,0.13160706,9.053238,1.373291E-4,-8.239746E-4,6.713867E-4,9.0,0.061772525,0.15228881,9.805273,-7.5862557E-4,-0.0029031187,-0.004424095,0.008340005,8.1071624E-4,0.46375912,2017-02-09 18:12:13,62.58794430166569
0.062210083,0.14237976,9.034103,0.002380371,-4.119873E-4,-0.0019836426,9.0,0.06299123,0.15579271,9.80521,0.0017180219,-0.006098181,3.8433075E-4,0.008527217,8.3750597E-4,0.46365288,2017-02-09 18:12:14,61.25898104867423
0.057434082,0.15672302,9.054443,0.0015563965,-0.002243042,-0.0040130615,9.0,0.062564336,0.15896311,9.805161,-0.012238864,0.010093644,0.02320385,0.0086605055,9.3039626E-4,0.4635143,2017-02-09 18:12:15,65.12102147128087
0.06460571,0.12562561,9.052048,5.340576E-4,-0.0018463135,-0.004425049,9.0,0.07368134,0.15968953,9.805073,-0.003342241,-0.021637946,0.009940147,0.008955947,4.4814372E-4,0.46379375,2017-02-09 18:12:16,50.46360247404182
0.062210083,0.1531372,9.043671,-6.713867E-4,-0.002243042,-0.004211426,9.0,0.07147218,0.15993515,9.805085,-9.460747E-5,-0.0014793128,0.006716728,0.0089148395,5.5302755E-4,0.46372274,2017-02-09 18:12:17,55.66334750050265
0.035888672,0.1483612,9.043671,7.4768066E-4,-0.0026550293,-0.0054473877,9.0,0.065325156,0.15813011,9.805158,-0.01469817,-0.009251356,-0.0043678284,0.008688024,7.8705605E-4,0.46362427,2017-02-09 18:12:18,63.75136694476056
0.047851563,0.15074158,9.046066,-8.69751E-4,-6.2561035E-4,-0.0050354004,9.0,0.06561183,0.16337831,9.80507,-0.022203445,-0.0034632087,0.009138107,0.008932118,8.9615234E-4,0.4634226,2017-02-09 18:12:19,54.65694306370709
0.058624268,0.14237976,9.036499,7.4768066E-4,-0.0020446777,-9.613037E-4,9.0,0.062350124,0.16096687,9.805131,0.0011536255,0.0023718774,-0.001288414,0.008746073,9.865873E-4,0.46342826,2017-02-09 18:12:20,41.4575264822754
0.07058716,0.1375885,9.0221405,1.373291E-4,-0.002456665,-0.0070648193,9.0,0.061896864,0.15125734,9.805288,0.011147298,-0.025736228,0.0011234283,0.008296308,7.811252E-4,0.46380383,2017-02-09 18:12:21,63.303674008897886
0.041870117,0.15553284,9.038895,9.613037E-4,-0.0026550293,-0.0013580322,9.0,0.06939534,0.15799184,9.805132,0.009033859,-0.0068133622,-0.0026903152,0.008777922,6.0108874E-4,0.46374276,2017-02-09 18:12:22,61.95038479996329
0.050247192,0.12562561,9.054443,1.373291E-4,-0.0034637451,-0.0025939941,9.0,0.067890346,0.15958686,9.805117,-0.013547003,-0.015553445,0.022377014,0.008814475,7.05743E-4,0.4636373,2017-02-09 18:12:23,58.72928878256023
0.062210083,0.15911865,9.046066,0.002166748,-2.1362305E-4,-0.0017700195,9.0,0.066499315,0.15830092,9.805147,-0.0038953684,0.014329985,0.012769699,0.008723479,7.383051E-4,0.46365005,2017-02-09 18:12:24,41.483202690363015
0.071777344,0.13998413,9.044876,0.0027923584,-0.0026550293,-0.0040130615,9.0,0.07074032,0.16354598,9.805031,-0.0077718943,-0.010766894,-0.013401985,0.009060786,6.697931E-4,0.4635583,2017-02-09 18:12:25,57.93202059641268
0.0382843,0.14715576,9.102295,0.001159668,-0.0028533936,-0.0032043457,9.0,0.07607169,0.15467755,9.805135,0.005109884,-0.016062126,0.0176363,0.008785995,2.2427374E-4,0.46406007,2017-02-09 18:12:26,47.52331895791586
0.053833008,0.13519287,9.044876,0.0021820068,-0.0012207031,-9.613037E-4,9.0,0.06311713,0.14661404,9.805351,-0.0032407716,-0.0025788844,-0.022066116,0.008115256,6.181992E-4,0.4640235,2017-02-09 18:12:27,63.71720740000171
0.044265747,0.12322998,9.018555,-6.1035156E-5,-0.0032653809,8.69751E-4,0.0,0.06161623,0.15197301,9.805279,0.013730075,-0.005041972,0.008905411,0.008322035,8.103859E-4,0.4637674,2017-02-09 18:12:28,56.86765451166675
0.04547119,0.14117432,9.061615,0.0023651123,-0.0036621094,-0.0015716553,9.0,0.069637395,0.15398121,9.805194,-0.011600874,-0.008052051,0.01468277,0.008602367,4.969317E-4,0.46390972,2017-02-09 18:12:29,63.386893850656854
0.046661377,0.15194702,9.072388,0.001159668,5.950928E-4,-0.002380371,9.0,0.062942535,0.15897979,9.80516,0.002921246,-0.013947889,-0.015287399,0.008670187,9.1380026E-4,0.46352413,2017-02-09 18:12:30,62.44838651886213
0.0657959,0.11843872,8.997009,3.3569336E-4,-0.0046844482,-0.0025939941,9.0,0.06747109,0.15454836,9.8052,-0.017985422,-0.018171534,-0.012515068,0.008576796,6.073949E-4,0.46382698,2017-02-09 18:12:31,61.20595197131828
0.04547119,0.122039795,9.061615,-6.713867E-4,1.9836426E-4,-0.0025939941,9.0,0.06917783,0.16090512,9.805086,0.009200186,-0.0035958886,-0.018239975,0.008904485,6.7857845E-4,0.46362036,2017-02-09 18:12:32,62.39563745749032
0.046661377,0.15553284,9.0221405,1.373291E-4,-0.0032653809,-0.0029907227,9.0,0.07173386,0.16065401,9.805072,-0.029072948,-0.0034265667,0.00429821,0.008953517,5.5798923E-4,0.46370128,2017-02-09 18:12:33,55.776621953941316
0.046661377,0.1483612,9.043671,0.0029907227,0.0,-0.0062561035,9.0,0.06689318,0.16089696,9.805102,-0.007820185,-0.016686246,-0.011305809,0.008850159,7.809653E-4,0.4635573,2017-02-09 18:12:34,45.00990641922124
0.052642822,0.11843872,9.052048,1.373291E-4,-0.0014343262,-0.0015716553,9.0,0.05852404,0.15732214,9.805213,-0.0013405457,-0.026677355,0.0075855255,0.008490924,0.0010736948,0.4634675,2017-02-09 18:12:35,55.45217154987058
0.039474487,0.13998413,9.056839,1.373291E-4,-2.1362305E-4,-0.0036010742,9.0,0.060606644,0.15730384,9.805202,-0.009256944,-0.014733747,-0.009015083,0.00853925,9.797363E-4,0.4635262,2017-02-09 18:12:36,62.38375486575785
0.071777344,0.15434265,9.032898,1.373291E-4,-6.1035156E-4,-9.613037E-4,9.0,0.05552887,0.1528074,9.805303,0.009806223,0.019391492,-0.005634308,0.008216024,0.0011032147,0.46356475,2017-02-09 18:12:37,56.754387904243025
0.039474487,0.14237976,9.0269165,-0.0014801025,-0.006729126,-0.005645752,9.0,0.060664494,0.16357842,9.805098,0.0038972907,0.007150963,-0.0048971176,0.008824434,0.0011229567,0.46327704,2017-02-09 18:12:38,62.67205757074733
0.06341553,0.15672302,9.034103,-0.002090454,-0.0028686523,-0.004211426,9.0,0.06533928,0.15854914,9.805151,-0.005201701,-0.010982975,0.0037212372,0.0087073045,7.961641E-4,0.46360794,2017-02-09 18:12:39,43.90923043200216
0.049057007,0.12562561,9.0269165,0.0015563965,-0.0024414063,-0.004425049,9.0,0.0672385,0.16440544,9.805041,-0.0033618584,0.015932932,0.0069522858,0.009016966,8.4697385E-4,0.4634268,2017-02-09 18:12:40,41.99723874387159
0.062210083,0.13040161,9.047256,0.0017700195,-8.239746E-4,-0.0017852783,9.0,0.06542822,0.15434395,9.805217,-0.018476076,-0.010748491,-0.0071144104,0.008519283,6.943697E-4,0.46377847,2017-02-09 18:12:41,62.8658368173192
0.044265747,0.12322998,9.035294,0.0013580322,-0.0020446777,-0.005645752,9.0,0.061955314,0.16141367,9.805126,-0.0104406215,-0.008785069,-0.011307716,0.0087569645,0.001014699,0.46339944,2017-02-09 18:12:42,61.88349157107824
0.035888672,0.16270447,9.025726,0.0019683838,8.087158E-4,-0.0030059814,9.0,0.06542062,0.16429235,9.805056,0.019856378,0.004104942,0.0051822662,0.008968945,9.259691E-4,0.46338078,2017-02-09 18:12:43,42.6001441292513
0.035888672,0.1483612,9.044876,0.004211426,-0.0030517578,-0.0032043457,9.0,0.06731368,0.15931457,9.805125,0.00138795,-0.028364971,-0.008217812,0.008788543,7.2530535E-4,0.46363217,2017-02-09 18:12:44,41.55581777085982
0.049057007,0.1483612,8.999405,0.0017700195,-8.239746E-4,-0.0040283203,9.0,0.067242585,0.16557251,9.805021,-0.008175563,0.019602269,0.012622833,0.009069843,8.7389466E-4,0.4633803,2017-02-09 18:12:45,63.124417363173045
0.056228638,0.15672302,9.04248,0.0023651123,-6.2561035E-4,-5.493164E-4,9.0,0.07722671,0.16354752,9.804982,-0.0054496527,-0.0013294667,-0.0019216537,0.009214108,3.7866124E-4,0.46373796,2017-02-09 18:12:46,63.923962812299266
0.055038452,0.1483612,9.055634,-2.746582E-4,-0.0020446777,-5.645752E-4,9.0,0.06811135,0.15547124,9.8051815,0.013760373,-0.014154881,-0.01842308,0.008633642,6.001159E-4,0.46380785,2017-02-09 18:12:47,45.375661025592755
0.07537842,0.14955139,9.028122,3.3569336E-4,-0.0010223389,-0.0042266846,9.0,0.06293426,0.16207299,9.805109,-6.4789504E-4,0.004765615,5.245209E-4,0.008809888,9.86058E-4,0.46340033,2017-02-09 18:12:48,55.11402021328192
0.04067993,0.1531372,9.024536,0.0015716553,0.0016174316,-9.613037E-4,9.0,0.065717615,0.15753745,9.805164,-0.0067778938,6.698817E-4,0.0016412735,0.008670497,7.55653E-4,0.46365887,2017-02-09 18:12:49,48.80225789959521
0.06460571,0.15194702,9.028122,0.002380371,-0.0012359619,-0.0062561035,9.0,0.06406962,0.16199929,9.805102,0.007951368,0.0014344007,-0.0028018951,0.00883335,9.3336304E-4,0.46343482,2017-02-09 18:12:50,49.614024443173655
0.055038452,0.12802124,9.041275,0.0013580322,-0.002456665,-0.0042266846,9.0,0.076627366,0.16708043,9.804927,-0.0013121217,-0.008210495,0.0032081604,0.00935963,4.87619E-4,0.4635805,2017-02-09 18:12:51,52.455119995101
0.053833008,0.14955139,9.011368,0.0036010742,-0.0012207031,-0.0017700195,9.0,0.062556446,0.16507776,9.805061,-0.016990919,-0.01938811,-4.005432E-4,0.008936891,0.0010728181,0.4632698,2017-02-09 18:12:52,55.43856455211426
0.058624268,0.13519287,9.060425,5.493164E-4,-0.0026550293,-0.00340271,9.0,0.061623815,0.16258413,9.805108,-0.01851901,-3.1463802E-4,-0.004003525,0.008802086,0.0010567796,0.46334347,2017-02-09 18:12:53,60.193806828232525
0.06939697,0.15074158,9.056839,9.460449E-4,-1.5258789E-5,-0.0042266846,9.0,0.06507733,0.15539037,9.8052025,0.009417567,0.007523924,0.019740105,0.0085583,7.3446956E-4,0.46372688,2017-02-09 18:12:54,62.39140407374912
0.052642822,0.15194702,9.035294,3.5095215E-4,-8.239746E-4,-0.0038146973,9.0,0.06534686,0.15131377,9.805265,0.00917244,-0.01861842,0.0070085526,0.008380384,6.275063E-4,0.46389735,2017-02-09 18:12:55,51.24297088109911
0.044265747,0.14476013,9.007782,-6.1035156E-5,-0.0036773682,-0.0025939941,9.0,0.063410744,0.15741494,9.8051815,0.009731073,-0.012328789,-0.0032215118,0.008610478,8.563932E-4,0.46359968,2017-02-09 18:12:56,41.65937787434836
0.053833008,0.13400269,9.037689,3.5095215E-4,-2.1362305E-4,-0.0038146973,9.0,0.070658214,0.16035768,9.805084,-0.0053121448,-0.011405453,0.0050058365,0.008914708,5.993918E-4,0.4636833,2017-02-09 18:12:57,58.3009692101767
0.049057007,0.15074158,9.043671,-0.0022888184,-0.0032653809,-9.613037E-4,9.0,0.06580996,0.16351226,9.805066,-0.0020375103,2.0548701E-5,-0.011118889,0.008942853,8.9036796E-4,0.46342278,2017-02-09 18:12:58,63.81618175404667
0.052642822,0.15553284,9.074783,-2.593994E-4,-0.0018463135,-0.0019836426,9.0,0.065633066,0.15730338,9.805168,-0.02105593,-0.011071131,-0.003970146,0.008657917,7.5400673E-4,0.46366587,2017-02-09 18:12:59,56.8249918256556
0.027511597,0.15194702,9.038895,9.460449E-4,5.950928E-4,-5.493164E-4,9.0,0.06476138,0.1629178,9.805083,-0.001134187,-0.012743622,0.01280117,0.008891217,9.2364085E-4,0.46341738,2017-02-09 18:13:00,61.76926081581999
0.052642822,0.14237976,9.043671,0.0019683838,-0.0032653809,-0.0032043457,9.0,0.058587074,0.15017642,9.8053255,-0.008564547,-0.0045072883,0.010844231,0.008169251,9.046162E-4,0.4637551,2017-02-09 18:13:01,60.95287798981339
0.055038452,0.16151428,9.023331,0.0013580322,-0.0014343262,-0.0030059814,9.0,0.06796478,0.1579935,9.805141,-0.011202738,-8.909255E-4,-0.015834808,0.008744198,6.653573E-4,0.463703,2017-02-09 18:13:02,57.56630576533603
0.057434082,0.12802124,9.030518,0.001159668,-0.002243042,-0.0054473877,9.0,0.06881898,0.1578275,9.805139,-0.006017342,-0.017496452,-0.0098667145,0.008819931,6.6771865E-4,0.46366727,2017-02-09 18:13:03,60.767571415985486
0.052642822,0.14596558,9.04248,-0.002105713,-0.0036773682,-0.004837036,9.0,0.06812778,0.16066733,9.805097,-0.008926995,-0.0020428002,0.0027389526,0.008868934,7.201964E-4,0.46360072,2017-02-09 18:13:04,48.11896125970751
0.044265747,0.14237976,9.011368,0.0019683838,-0.002243042,-0.005645752,9.0,0.06489472,0.1568685,9.805181,-0.009590268,0.0073033124,-0.018919945,0.008620815,7.770482E-4,0.46366274,2017-02-09 18:13:05,62.47277058419945
0.044265747,0.14356995,9.041275,-0.002609253,4.7302246E-4,-7.7819824E-4,9.0,0.063273,0.15386403,9.805239,0.0050905384,-0.0162061,0.013587952,0.008446668,7.799861E-4,0.46373782,2017-02-09 18:13:06,60.837936771024175
0.061019897,0.124420166,9.038895,-7.6293945E-4,-0.0019683838,-0.0011901855,9.0,0.05792993,0.15763842,9.805212,-0.007961668,-0.009002715,0.015180588,0.00849121,0.0011077317,0.46343833,2017-02-09 18:13:07,52.818163333054926
0.049057007,0.13519287,9.037689,0.0016784668,0.0014953613,-0.0018005371,9.0,0.057098266,0.14945099,9.805345,-0.0035901815,-2.1208823E-4,-0.016436577,0.008101285,9.546E-4,0.46374273,2017-02-09 18:13:09,45.613525863354106
0.055038452,0.11843872,9.050858,0.0026855469,0.002105713,0.0018615723,9.0,0.058818333,0.15141664,9.805305,0.019913942,-0.0140539855,0.012782097,0.008230792,9.23098E-4,0.46371192,2017-02-09 18:13:10,64.602878685794
0.049057007,0.15074158,9.036499,0.0012664795,-0.0011444092,-3.8146973E-4,9.0,0.054244127,0.14988182,9.805355,-0.011724584,-0.004176751,-0.0044841766,0.008053376,0.0010928374,0.46364608,2017-02-09 18:13:11,51.98590975705703
0.052642822,0.13040161,9.074783,0.0010681152,-1.373291E-4,0.001449585,9.0,0.057060514,0.15166609,9.805311,0.005980715,0.016797155,0.023694038,0.008200564,0.0010078576,0.46365303,2017-02-09 18:13:12,63.28544325444199
0.053833008,0.15911865,9.049652,-0.0011749268,-0.0013580322,-0.0016021729,9.0,0.050393533,0.14460725,9.805454,-0.0058236234,-0.007819116,0.013063431,0.0077239107,0.0011429881,0.4637501,2017-02-09 18:13:13,62.22002661819391
0.047851563,0.14237976,9.032898,-5.645752E-4,-0.0011444092,-7.9345703E-4,9.0,0.060066883,0.14692493,9.805366,0.015168812,-0.0063430816,0.006703377,0.00805721,7.624354E-4,0.46392637,2017-02-09 18:13:14,62.1534050508204
0.051452637,0.13998413,9.040085,4.5776367E-4,6.713867E-4,-3.8146973E-4,9.0,0.056489896,0.14902438,9.805355,-6.438233E-4,-0.014204204,0.026046753,0.0080676265,9.719945E-4,0.46374288,2017-02-09 18:13:15,63.00579430764312
0.053833008,0.12921143,9.035294,4.5776367E-5,-9.460449E-4,-9.918213E-4,9.0,0.051016916,0.15258233,9.80533,-0.002795931,0.009988636,0.023658752,0.008099374,0.0013006644,0.46344805,2017-02-09 18:13:16,42.10714647322986
0.055038452,0.13998413,9.041275,4.4250488E-4,0.0019073486,4.272461E-4,9.0,0.051475957,0.14213637,9.805485,0.015953839,0.01610367,0.03515339,0.0076377327,0.0010367751,0.4638793,2017-02-09 18:13:17,59.43712724352107
0.052642822,0.13400269,9.025726,-0.0021972656,-1.373291E-4,4.272461E-4,9.0,0.054387372,0.15038209,9.8053465,-0.026237804,0.0012808889,0.015367508,0.0080793835,0.0010980478,0.46363002,2017-02-09 18:13:18,52.37756508321986
0.0657959,0.13040161,9.0269165,-0.0011749268,2.746582E-4,-5.79834E-4,9.0,0.049676895,0.14883628,9.805395,0.005647529,0.011125132,0.012069702,0.007898285,0.0012736806,0.4635607,2017-02-09 18:13:19,56.8841956428861
0.050247192,0.1268158,9.025726,-9.765625E-4,-5.340576E-4,-0.0018005371,9.0,0.053171914,0.15016837,9.805356,0.0107611865,0.0062236637,0.0026197433,0.008041027,0.0011476743,0.46360475,2017-02-09 18:13:20,62.361521734996316
0.06819153,0.13279724,9.037689,-0.0015869141,-5.340576E-4,3.0517578E-5,9.0,0.05052172,0.15601423,9.805279,-0.008260835,-0.014522865,0.016150475,0.008242979,0.0014027378,0.4632969,2017-02-09 18:13:21,63.26545970470403
0.04307556,0.12083435,9.04248,2.4414063E-4,-0.0015563965,-0.0018005371,9.0,0.059998382,0.15173051,9.805293,-0.011881877,-0.016569152,-4.272461E-4,0.008272855,8.774024E-4,0.46373215,2017-02-09 18:13:22,51.33940086164767
0.04307556,0.14955139,9.041275,0.0030822754,-5.340576E-4,3.0517578E-5,9.0,0.05698243,0.1498619,9.805339,-0.009460464,0.0113833845,0.0010576248,0.008117132,9.6936955E-4,0.46372306,2017-02-09 18:13:23,57.05171790006197
0.047851563,0.14237976,9.050858,2.4414063E-4,-0.0019683838,0.001663208,9.0,0.05666009,0.15463723,9.805267,-7.7277794E-4,-0.019304097,0.02020073,0.008325489,0.0010949732,0.46352303,2017-02-09 18:13:24,46.8299090820699
0.062210083,0.14955139,9.037689,-3.6621094E-4,0.003326416,0.001449585,9.0,0.05426858,0.15425223,9.805286,0.009782985,0.008532852,0.005153656,0.008251638,0.0011934402,0.46347183,2017-02-09 18:13:25,61.516601965447734
0.057434082,0.14117432,9.028122,0.0012664795,-7.4768066E-4,4.4250488E-4,9.0,0.053879928,0.15675813,9.805249,0.008958273,-0.0033238083,0.030418396,0.008355837,0.0012691772,0.46336076,2017-02-09 18:13:26,55.391272080200324
0.0657959,0.14715576,9.034103,-5.645752E-4,-0.0019683838,0.0022735596,9.0,0.05565452,0.1498798,9.8053465,0.007325083,-0.010129467,-0.008701324,0.008086584,0.0010294345,0.46368542,2017-02-09 18:13:27,42.665683345798236
0.04547119,0.13877869,9.030518,0.0012664795,0.0019073486,2.2888184E-4,9.0,0.057609662,0.14679447,9.805383,-0.0016297624,-0.01561445,4.682541E-4,0.007993249,8.69766E-4,0.4638633,2017-02-09 18:13:28,55.73635466864648
0.047851563,0.1375885,9.013763,0.0043182373,-9.460449E-4,-5.79834E-4,9.0,0.051893525,0.15335338,9.805314,-0.004746165,-0.020486236,0.0077257156,0.008154938,0.0012792221,0.46344164,2017-02-09 18:13:29,41.37434294397369
0.062210083,0.13519287,9.053238,0.0022735596,6.866455E-4,-5.79834E-4,9.0,0.054417588,0.16047852,9.805186,0.011993915,0.013425827,-0.009262085,0.008536853,0.0013315041,0.46322694,2017-02-09 18:13:30,62.261249270090495
0.047851563,0.14117432,9.074783,0.0020751953,0.0012817383,0.0018615723,9.0,0.047824834,0.15200934,9.805355,0.009763885,-0.0012932718,-0.027553558,0.007998157,0.001430745,0.46338198,2017-02-09 18:13:31,59.54488450521633
0.061019897,0.15194702,9.049652,0.001663208,0.0018920898,-5.79834E-4,9.0,0.053200528,0.15596211,9.805265,0.011966359,0.008142188,0.008708954,0.008303797,0.0012811861,0.46337366,2017-02-09 18:13:32,41.843731627677265
0.049057007,0.13519287,9.04248,-0.0017852783,-5.340576E-4,-1.6784668E-4,9.0,0.048609532,0.15061998,9.805373,-0.010114022,0.008301109,-0.014912605,0.007953799,0.0013631567,0.4634595,2017-02-09 18:13:33,61.292343670644314
0.028717041,0.12802124,9.034103,4.5776367E-4,-0.001159668,-3.8146973E-4,9.0,0.050988685,0.15124297,9.805351,-0.0051630996,-0.013884619,0.020503998,0.008038115,0.001270766,0.4635009,2017-02-09 18:13:34,41.42741913553312
0.057434082,0.124420166,9.038895,2.4414063E-4,-0.0017700195,-0.0014038086,9.0,0.059859056,0.1520759,9.805288,-1.511611E-4,-0.0074156374,0.00685215,0.008285182,8.9169835E-4,0.46371448,2017-02-09 18:13:35,62.66695546716299
0.053833008,0.15672302,9.069992,-0.0017852783,0.002319336,8.392334E-4,9.0,0.054664142,0.14538883,9.80542,0.0070419796,-0.025155127,0.008136749,0.007860111,9.693359E-4,0.46383768,2017-02-09 18:13:36,46.24146465089524
0.053833008,0.14237976,9.0221405,0.0022888184,-1.373291E-4,2.4414063E-4,9.0,0.049569715,0.14939989,9.805387,-3.0013546E-4,-0.018307641,0.005191803,0.007921253,0.001291617,0.46353513,2017-02-09 18:13:37,62.24420418783709
0.04307556,0.14715576,9.020935,-1.5258789E-4,-5.340576E-4,-0.0018005371,9.0,0.051134598,0.1559001,9.805278,-0.01129188,0.0033108294,0.008561134,0.008252266,0.0013725508,0.46331856,2017-02-09 18:13:38,62.76981315383669
0.055038452,0.13400269,9.093918,-0.0011901855,0.0025024414,-5.79834E-4,9.0,0.05587186,0.14398134,9.805434,-2.0145997E-4,-0.007486582,0.0131464,0.007825005,8.822878E-4,0.46392766,2017-02-09 18:13:39,51.181088526646754
0.052642822,0.12322998,9.067596,-7.6293945E-4,8.8500977E-4,0.0020751953,9.0,0.05111165,0.14343107,9.805468,0.0053105988,-0.004803881,0.005133629,0.0076876758,0.0010833176,0.46381724,2017-02-09 18:13:40,41.41917133135873
0.035888672,0.14356995,9.023331,-1.6784668E-4,-0.0017547607,-3.8146973E-4,9.0,0.049427994,0.13891953,9.805542,-0.013369814,-0.00632523,-0.022870064,0.007443895,0.0010537907,0.46395123,2017-02-09 18:13:41,55.9063075013253
0.046661377,0.119644165,9.059219,-0.0025939941,0.001083374,0.001663208,9.0,0.041768163,0.14242843,9.805528,0.00812133,-0.011776462,0.011527061,0.007421774,0.0014798051,0.46359688,2017-02-09 18:13:42,60.820965131480776
0.07058716,0.13040161,9.047256,4.5776367E-5,-1.373291E-4,-5.79834E-4,9.0,0.04538438,0.13760637,9.805579,-0.002438154,-0.021794334,1.449585E-4,0.007289002,0.0012048667,0.46389124,2017-02-09 18:13:43,59.44174383319036
0.047851563,0.12083435,9.048462,-0.0027923584,-0.002380371,0.0018615723,9.0,0.044946723,0.14785103,9.805432,-0.010346793,0.022738859,-9.92775E-4,0.0077421153,0.0014632782,0.46346822,2017-02-09 18:13:44,61.218221641923556
0.06939697,0.1268158,9.035294,6.5612793E-4,0.0018920898,0.0028839111,9.0,0.046815235,0.14145605,9.805518,-0.007294029,-0.014421701,0.008559227,0.007496902,0.0012303327,0.4637767,2017-02-09 18:13:45,62.00462128788245
0.051452637,0.11843872,9.037689,-0.0013885498,2.746582E-4,0.0012512207,9.0,0.048219677,0.14552696,9.805452,0.015367717,-0.0025331676,0.007840157,0.007714192,0.0012620866,0.46365267,2017-02-09 18:13:46,63.86450229535509
0.07537842,0.1375885,9.038895,0.0012664795,-9.460449E-4,-9.918213E-4,9.0,0.050022986,0.14596331,9.805436,0.008918539,0.0054096878,-0.0026721954,0.007776496,0.0011912272,0.46368545,2017-02-09 18:13:47,42.72441733494969
0.022735596,0.13160706,9.04248,-0.0013885498,8.8500977E-4,0.001663208,9.0,0.04340046,0.14518479,9.805479,0.007825293,0.008482426,0.01846695,0.007584999,0.0014706694,0.46353194,2017-02-09 18:13:48,60.58250293886311
0.051452637,0.14476013,9.058029,0.0020751953,0.0014953613,0.001449585,9.0,0.048931062,0.14454877,9.805463,0.011162877,0.0031237602,-0.0014162064,0.0076135737,0.0011773407,0.46376997,2017-02-09 18:13:49,63.19767146346928
0.041870117,0.1483612,9.066406,0.0010681152,0.0027160645,-7.9345703E-4,9.0,0.05059957,0.14566514,9.805437,0.0023947135,0.009239376,-0.0071582794,0.0077766217,0.0011583763,0.46371347,2017-02-09 18:13:50,62.15773257057225
0.07537842,0.14356995,9.048462,4.4250488E-4,2.746582E-4,4.4250488E-4,9.0,0.053953152,0.14471145,9.805434,0.025610805,0.010084823,0.003706932,0.007812687,9.854942E-4,0.46384504,2017-02-09 18:13:51,43.41192577923128
0.055038452,0.13639832,9.037689,-5.79834E-4,0.003921509,0.00390625,9.0,0.058116037,0.15225257,9.805296,0.0074113086,-0.0016652644,-0.0011320114,0.008252009,9.7409607E-4,0.46365893,2017-02-09 18:13:52,45.887435705383496
0.051452637,0.12083435,9.069992,-3.5095215E-4,-0.0015563965,-3.8146973E-4,9.0,0.052524067,0.15166612,9.805337,0.0042400323,0.002614066,-0.010238647,0.008093486,0.0012116368,0.46352673,2017-02-09 18:13:53,59.21704879514241
0.055038452,0.110076904,9.104691,-0.0015869141,0.003326416,0.0010528564,9.0,0.04965474,0.14131023,9.805507,0.0078952685,0.008046508,0.033194542,0.0075573577,0.0010993447,0.46386167,2017-02-09 18:13:54,60.20317693884303
0.053833008,0.13160706,9.068802,2.4414063E-4,0.0023040771,0.0024871826,9.0,0.050581988,0.13655072,9.805569,0.0213974,0.0016961992,-0.01922512,0.0073640617,9.4668445E-4,0.46407837,2017-02-09 18:13:55,43.08922221169455
0.04067993,0.16151428,9.046066,6.5612793E-4,0.0059509277,0.0020599365,9.0,0.053375702,0.13468711,9.80558,0.009337056,4.9866736E-5,-0.001250267,0.0073458645,7.7767455E-4,0.46423084,2017-02-09 18:13:56,60.725121295985886
0.052642822,0.13877869,9.055634,-0.0011749268,0.001083374,0.0022735596,9.0,0.050035328,0.14190103,9.805495,-0.016255196,0.011462361,-0.005241394,0.0075930646,0.0010960165,0.4638486,2017-02-09 18:13:57,62.727887192857956
0.028717041,0.13998413,9.048462,-0.0015869141,8.8500977E-4,6.4086914E-4,9.0,0.05462132,0.13906646,9.805512,-0.018814996,0.0106009245,-9.5272064E-4,0.007573263,8.238868E-4,0.46408984,2017-02-09 18:13:58,62.59488296421908
0.055038452,0.12802124,9.034103,8.544922E-4,-5.340576E-4,0.0026855469,9.0,0.05531118,0.13462153,9.80557,0.013558228,-0.005805433,-0.008426666,0.007388675,6.891883E-4,0.46428725,2017-02-09 18:13:59,61.798182975884906
0.050247192,0.13519287,9.067596,-3.6621094E-4,0.003112793,0.0034942627,9.0,0.04925425,0.14541465,9.805449,0.010779485,-0.0049693286,0.019659996,0.007733532,0.0012129857,0.46368602,2017-02-09 18:14:00,55.819665785464004
0.044265747,0.12562561,9.036499,-0.0036010742,-0.002166748,0.0010528564,9.0,0.048038878,0.1409031,9.80552,-0.012036525,-0.0020308495,-0.007911682,0.007500786,0.0011624588,0.463833,2017-02-09 18:14:01,49.69732508819546
0.050247192,0.15672302,9.047256,4.5776367E-5,8.8500977E-4,3.0517578E-5,9.0,0.047690175,0.14739022,9.805427,0.009816669,-0.011615768,0.012760162,0.0077859866,0.0013292741,0.46356323,2017-02-09 18:14:02,58.05593816849417
0.056228638,0.14476013,9.043671,-0.0019836426,7.6293945E-5,0.001663208,9.0,0.050286777,0.14967279,9.805379,0.0074084103,0.012564123,0.018901825,0.007950519,0.0012657536,0.4635442,2017-02-09 18:14:03,59.517548712086054
0.07417297,0.1375885,9.046066,2.4414063E-4,7.6293945E-5,8.392334E-4,9.0,0.05302414,0.14926031,9.80537,0.0049075857,0.009433135,-0.0073394775,0.007996467,0.0011331738,0.463637,2017-02-09 18:14:04,61.58757972341717
0.057434082,0.14356995,9.037689,8.544922E-4,7.6293945E-5,2.2888184E-4,9.0,0.048733413,0.14652675,9.805434,-0.025793511,-0.0023337603,-0.0015659332,0.0077715437,0.0012622912,0.46362692,2017-02-09 18:14:05,52.769086839868265
0.034698486,0.12921143,9.011368,-6.4086914E-4,0.0015716553,-0.0016937256,9.0,0.05606954,0.15050006,9.805335,0.02606275,-0.006004572,0.0040826797,0.008124433,0.0010252305,0.46367213,2017-02-09 18:14:06,42.97791185937963
0.04067993,0.12921143,9.038895,-0.0010528564,-6.5612793E-4,-0.001083374,9.0,0.056676015,0.15383813,9.80528,0.0015538409,0.006457627,0.006258011,0.008289722,0.0010756685,0.46355543,2017-02-09 18:14:07,56.59678096453452
0.071777344,0.13400269,9.047256,9.765625E-4,-8.69751E-4,0.0017700195,9.0,0.050816044,0.1499289,9.805372,-0.01336154,-0.006633848,0.0015048981,0.007974594,0.001247937,0.4635487,2017-02-09 18:14:08,64.5340596044145
0.050247192,0.14356995,9.054443,7.7819824E-4,7.6293945E-4,7.4768066E-4,9.0,0.056482263,0.1493756,9.805349,0.0029148422,-2.5999546E-4,0.00217247,0.00808333,9.805147E-4,0.46372864,2017-02-09 18:14:09,46.67617844523561
0.052642822,0.15672302,9.020935,0.0011901855,-0.0010681152,-0.0023040771,9.0,0.055923987,0.15216601,9.80531,0.0010808744,0.016425878,-0.019566536,0.008196342,0.0010705419,0.4636014,2017-02-09 18:14:10,42.83391367497941
0.037094116,0.12562561,9.059219,-0.0014648438,-0.0033111572,-2.746582E-4,9.0,0.06321448,0.1457158,9.805364,0.015888255,-0.018293858,-0.005402565,0.008076962,5.929007E-4,0.46406215,2017-02-09 18:14:11,61.59702092923916
0.056228638,0.1375885,9.044876,-2.4414063E-4,-0.0012817383,-0.0014953613,9.0,0.053762965,0.1455701,9.805422,0.0042114295,-0.0027497113,-0.008831024,0.007847022,0.001014043,0.46380535,2017-02-09 18:14:12,58.30638436761559
0.04547119,0.12802124,9.0269165,0.0013885498,5.493164E-4,0.002380371,9.0,0.05499396,0.14140284,9.805477,0.003093101,0.005933672,0.011054039,0.0076876874,8.616253E-4,0.46400654,2017-02-09 18:14:13,61.76240844121651
0.04547119,0.14117432,9.029312,-4.4250488E-4,0.001373291,-4.7302246E-4,9.0,0.052742656,0.1426387,9.805471,0.013561219,0.020379692,-0.0043029785,0.0076903687,9.915738E-4,0.4638944,2017-02-09 18:14:14,60.73054430054577
0.050247192,0.13998413,9.046066,-0.0022735596,-0.0030975342,-6.713867E-4,9.0,0.05849114,0.14844443,9.805352,0.0034567565,0.005390927,-0.0049934387,0.008088673,8.685993E-4,0.46382177,2017-02-09 18:14:15,56.6627523274451
0.057434082,0.14356995,9.053238,-0.0024719238,0.0015716553,7.4768066E-4,9.0,0.058889907,0.1506817,9.805316,0.0018946342,-0.014604345,0.00411129,0.00819925,9.0277666E-4,0.4637433,2017-02-09 18:14:16,58.6811495403337
0.0657959,0.13040161,9.050858,0.0024108887,-0.0012664795,-0.0023040771,9.0,0.056095146,0.1582585,9.805213,-0.0062791444,0.004740879,-0.0116539,0.008475971,0.0012045564,0.46336246,2017-02-09 18:14:17,52.73248754216827
0.06819153,0.13160706,9.055634,-0.0012512207,-0.0014801025,-0.0023040771,9.0,0.052540403,0.15374361,9.805305,0.0077704564,5.815327E-4,0.0014123917,0.008187854,0.0012592404,0.46344402,2017-02-09 18:14:18,50.109638085876185
0.044265747,0.12921143,9.053238,0.0021972656,-0.0010681152,-0.001083374,9.0,0.059394572,0.14782234,9.805356,-0.010528278,-0.0071609765,0.007378578,0.008081892,8.135338E-4,0.46387178,2017-02-09 18:14:19,63.92121232006411
0.053833008,0.124420166,9.049652,3.6621094E-4,7.6293945E-4,-6.1035156E-5,9.0,0.058996934,0.15312567,9.805277,-0.018493567,0.007212907,-0.007798195,0.008312293,9.548476E-4,0.4636485,2017-02-09 18:14:20,59.715588309198964
0.050247192,0.12802124,9.041275,-4.4250488E-4,9.765625E-4,-4.7302246E-4,9.0,0.060398582,0.14108051,9.8054495,0.008841205,-0.011817411,-0.00825119,0.007800891,6.1133446E-4,0.46416962,2017-02-09 18:14:21,41.735311623625186
0.049057007,0.14715576,9.047256,3.6621094E-4,0.0027770996,0.0029907227,9.0,0.056921672,0.14712986,9.805381,0.001279451,-0.013799459,-0.002067566,0.0079921605,9.0848154E-4,0.46383074,2017-02-09 18:14:22,56.84851592244985
0.06341553,0.14715576,9.054443,-0.001449585,3.5095215E-4,0.0017700195,9.0,0.056743152,0.14971505,9.805344,0.0038388,0.0017551631,0.018116951,0.008104839,9.766987E-4,0.4637223,2017-02-09 18:14:23,59.5541241148856
0.053833008,0.124420166,9.030518,9.765625E-4,-0.0033111572,-2.593994E-4,9.0,0.05998344,0.15083712,9.805306,0.015228771,0.02470316,0.012351036,0.008232107,8.5727946E-4,0.4637675,2017-02-09 18:14:24,57.99855781702238
0.0657959,0.14955139,9.046066,-3.0517578E-5,3.5095215E-4,-0.0018920898,9.0,0.06211936,0.1436021,9.805402,8.5715204E-5,0.007411197,-0.014621735,0.007955542,5.9282896E-4,0.4641164,2017-02-09 18:14:25,60.30710940875032
0.034698486,0.12322998,9.024536,3.6621094E-4,3.5095215E-4,-7.6293945E-5,9.0,0.05682346,0.14423633,9.805425,-0.0069283955,-0.020549834,-0.007940292,0.007859019,8.454831E-4,0.4639439,2017-02-09 18:14:26,62.86177690219908
0.053833008,0.13160706,9.04248,9.765625E-4,-4.5776367E-4,-4.7302246E-4,9.0,0.060793526,0.15651569,9.805213,0.0013296343,-8.7349117E-4,0.01627636,0.008508017,9.530161E-4,0.46356288,2017-02-09 18:14:27,46.81370884330556
0.058624268,0.14476013,9.046066,-6.4086914E-4,7.6293945E-4,0.0017700195,9.0,0.04792797,0.14860758,9.805408,0.018017914,-0.014984399,0.0049524307,0.007846672,0.001346935,0.4635211,2017-02-09 18:14:28,61.100807005274056
0.047851563,0.14476013,9.067596,3.8146973E-4,-0.003112793,-0.0016937256,9.0,0.061327476,0.15400653,9.805249,0.01758432,0.0014636368,0.0032682419,0.008407159,8.706727E-4,0.46367806,2017-02-09 18:14:29,42.13738666381886
0.050247192,0.13519287,9.044876,0.0011901855,0.001373291,-0.0012817383,9.0,0.055348665,0.15152541,9.805324,-7.620156E-4,-0.002056986,-0.0012712479,0.008153787,0.0010814769,0.46361104,2017-02-09 18:14:30,62.228574872261035
0.061019897,0.13400269,9.058029,7.7819824E-4,-0.0035095215,-0.001083374,9.0,0.055763658,0.15469012,9.805271,5.127862E-5,-0.005000457,0.01382637,0.008306726,0.0011364685,0.46349594,2017-02-09 18:14:31,57.75545656969679
0.055038452,0.14117432,9.019745,0.0024108887,0.0019836426,-6.713867E-4,9.0,0.058531456,0.1508811,9.805314,-0.0240749,0.004416004,-0.016284943,0.008199802,9.235179E-4,0.46372536,2017-02-09 18:14:32,49.254674559396534
0.057434082,0.124420166,9.023331,0.0018005371,-0.0032958984,-0.0023040771,9.0,0.068669304,0.15079287,9.80525,7.145107E-5,0.008056715,0.0012025833,0.008435389,4.6619136E-4,0.46401033,2017-02-09 18:14:33,53.98641132016355
0.049057007,0.14356995,9.035294,0.0036315918,-0.001876831,3.3569336E-4,9.0,0.06808055,0.16317606,9.805057,-0.006546706,-0.010476366,0.009864807,0.008981251,7.806107E-4,0.46349925,2017-02-09 18:14:34,58.40237509581619
0.057434082,0.12802124,9.040085,0.002609253,0.0019836426,-0.0016937256,9.0,0.058982313,0.1528169,9.805282,-0.0065571107,-0.0069644153,0.0023012161,0.0082979845,9.483198E-4,0.46366045,2017-02-09 18:14:35,62.7821988808832
0.047851563,0.16151428,9.067596,0.0030212402,7.6293945E-4,3.3569336E-4,9.0,0.06342768,0.15548547,9.805213,9.380281E-5,-0.008287653,0.007475853,0.008523632,8.1075996E-4,0.4636773,2017-02-09 18:14:36,57.968898379892224
0.049057007,0.14596558,9.044876,-3.0517578E-5,-4.5776367E-4,-6.713867E-4,9.0,0.058414925,0.14681612,9.805377,-0.0024868734,-0.0015652329,2.975464E-4,0.008013254,8.340999E-4,0.46388483,2017-02-09 18:14:37,64.06598651907814
0.044265747,0.1375885,9.030518,0.0021972656,0.0025939941,-0.0016937256,9.0,0.060771335,0.15423167,9.805249,-0.011787359,-0.0046687573,-0.013461113,0.008404206,9.008872E-4,0.4636536,2017-02-09 18:14:38,58.742659455989184
0.061019897,0.14356995,9.064011,5.79834E-4,-4.5776367E-4,-4.7302246E-4,9.0,0.059694752,0.15346093,9.805267,0.0059283637,-0.0064342916,0.022039413,0.008343931,9.3130703E-4,0.4636545,2017-02-09 18:14:39,42.786193870309916
0.046661377,0.13998413,9.054443,5.79834E-4,7.6293945E-4,-0.0012817383,9.0,0.05772933,0.15240519,9.805296,-0.008998804,0.018500462,0.0015068054,0.00824978,9.950168E-4,0.46364206,2017-02-09 18:14:40,59.47650567853141
0.059814453,0.14117432,9.054443,-6.4086914E-4,-4.5776367E-5,-0.001083374,9.0,0.05661016,0.15456977,9.805268,-0.010357775,-0.0026201904,-1.6307831E-4,0.00832126,0.0010956468,0.46352434,2017-02-09 18:14:41,55.146393914122115
0.039474487,0.11843872,9.032898,-4.4250488E-4,-4.5776367E-4,-6.1035156E-5,9.0,0.06184941,0.14733414,9.805348,-0.002046749,-0.005583495,-0.014756203,0.008117837,6.919078E-4,0.4639595,2017-02-09 18:14:42,45.71398621589942
0.06939697,0.15074158,9.053238,7.7819824E-4,-2.593994E-4,-0.0014953613,9.0,0.059899762,0.15505317,9.805242,0.0033750162,0.010122091,0.0128593445,0.008420776,9.5914083E-4,0.46359652,2017-02-09 18:14:43,42.57850099310406
0.057434082,0.122039795,9.023331,-0.001663208,-0.0037078857,5.493164E-4,9.0,0.060787052,0.15360081,9.805259,0.02055147,0.0036779046,0.0061330795,0.008497797,0.0010224606,0.4635082,2017-02-09 18:14:44,60.950645194525464
0.058624268,0.14715576,9.072388,-8.392334E-4,-6.713867E-4,-6.713867E-4,9.0,0.059052307,0.15230876,9.80529,-0.01019961,0.007883191,0.014375687,0.008276658,9.3335134E-4,0.4636827,2017-02-09 18:14:45,43.824940614314684
0.052642822,0.1483612,9.048462,-4.4250488E-4,5.645752E-4,-0.0025177002,9.0,0.062300097,0.15094753,9.80529,-0.017936807,8.817315E-4,-0.01012516,0.008291829,7.558045E-4,0.46382743,2017-02-09 18:14:46,61.73748675543575
0.046661377,0.13400269,9.049652,-0.001663208,0.0017852783,-0.0029144287,9.0,0.05654352,0.1498377,9.805342,-0.0054883696,-0.0041917115,0.0062446594,0.008105673,9.885213E-4,0.46371183,2017-02-09 18:14:47,62.39338381367368
0.06341553,0.14476013,9.047256,0.0013885498,5.493164E-4,-0.001083374,9.0,0.056249987,0.15644547,9.805242,-0.01719635,0.006408885,0.017939568,0.008397605,0.0011554484,0.4634393,2017-02-09 18:14:48,54.28243630846268
0.022735596,0.13040161,9.056839,0.0013885498,-0.0033111572,-0.0023040771,9.0,0.06619104,0.15637945,9.805181,0.0034990646,-0.015155897,0.010814667,0.008629325,7.0746534E-4,0.46371827,2017-02-09 18:14:49,43.4357679699561
0.062210083,0.12562561,9.04248,0.0021972656,-4.5776367E-4,-0.0016937256,9.0,0.057381105,0.15208687,9.805303,-0.009876836,-0.0027602166,-0.00962925,0.008227163,0.0010032502,0.46364513,2017-02-09 18:14:50,51.70767437482567
0.056228638,0.13160706,9.047256,0.0021972656,-0.0022888184,7.6293945E-4,9.0,0.056246772,0.15198553,9.80531,-0.0016683638,-0.008675009,0.013746262,0.0081958,0.001051843,0.46361762,2017-02-09 18:14:51,46.56960501678241
0.046661377,0.14237976,9.014954,9.765625E-4,-0.0016784668,-0.0039367676,9.0,0.06184411,0.14587416,9.80537,-0.0019966103,0.011434719,-0.008792877,0.0080517195,6.5813557E-4,0.46401778,2017-02-09 18:14:52,61.04239980543745
0.062210083,0.13519287,9.048462,9.765625E-4,1.5258789E-4,0.0015563965,9.0,0.059987854,0.15362664,9.8052635,0.0057287067,0.010348365,-0.004675865,0.008358345,9.219983E-4,0.463656,2017-02-09 18:14:53,49.748940937901985
0.058624268,0.13519287,9.020935,7.7819824E-4,-0.0014801025,-0.0025177002,9.0,0.05790005,0.15257965,9.805292,0.020779613,0.0040566176,-0.013968468,0.008261701,9.914086E-4,0.46363983,2017-02-09 18:14:54,44.39993240085177
0.047851563,0.14356995,9.079559,-0.0022735596,-0.001876831,-2.593994E-4,9.0,0.055368125,0.15152568,9.805323,4.139878E-4,-0.012861431,-0.012875557,0.008154259,0.001080609,0.46361157,2017-02-09 18:14:55,41.644603625863496
0.062210083,0.14356995,9.054443,0.0030212402,-8.69751E-4,-0.0014953613,9.0,0.060493987,0.15790595,9.805192,-0.012717515,0.011087745,-0.0067443848,0.008563823,9.987954E-4,0.46349898,2017-02-09 18:14:56,58.42111182037812
0.058624268,0.1375885,9.049652,0.0016021729,-2.593994E-4,-6.1035156E-5,9.0,0.06232789,0.16148527,9.805122,0.001142975,0.006604612,0.0069732666,0.008768995,9.996316E-4,0.46340695,2017-02-09 18:14:57,49.97694064483625
0.0657959,0.13160706,9.050858,7.7819824E-4,-2.593994E-4,-6.1035156E-5,9.0,0.054433916,0.15418664,9.805287,0.0095983185,0.0013303757,-0.004255295,0.008252571,0.0011844872,0.46347907,2017-02-09 18:14:58,60.830315465498764
0.0382843,0.12562561,9.047256,-6.4086914E-4,0.0025939941,-2.593994E-4,9.0,0.062424406,0.15439038,9.805236,0.014190294,-0.0060281307,0.011425018,0.008450422,8.3034055E-4,0.4636932,2017-02-09 18:14:59,64.44171978970748
0.058624268,0.13639832,9.050858,-0.0018615723,-8.69751E-4,-0.002105713,9.0,0.058530703,0.15053922,9.80532,-0.0013951063,0.0033958256,0.008944511,0.008184324,9.1559364E-4,0.463739,2017-02-09 18:15:00,42.160702985762384
0.051452637,0.14955139,9.044876,-0.0024719238,1.5258789E-4,-6.1035156E-5,9.0,0.05744502,0.14586204,9.805397,-0.002794832,-0.0018848926,0.011359215,0.007947204,8.554412E-4,0.46389607,2017-02-09 18:15:01,62.27089938948189
0.062210083,0.15434265,9.049652,0.0019989014,0.0029907227,-0.0014953613,9.0,0.056197163,0.14315675,9.805444,-0.01236229,0.006729588,-0.005736351,0.007795413,8.4845786E-4,0.46396974,2017-02-09 18:15:02,44.94060219833315
0.07417297,0.14715576,9.049652,0.0018005371,-4.5776367E-4,-0.0023040771,9.0,0.054657158,0.15067686,9.80534,-0.0037982278,0.0020691156,0.0021324158,0.008099086,0.0010927902,0.46362576,2017-02-09 18:15:03,41.21571538467633
0.055038452,0.1483612,9.030518,-3.0517578E-5,0.0011749268,-0.0029296875,9.0,0.05720442,0.1504132,9.805329,-0.0013379566,-0.007200435,0.022436142,0.008147304,9.72232E-4,0.46370718,2017-02-09 18:15:04,52.423396485796154
0.044265747,0.1268158,9.049652,3.6621094E-4,-0.0025024414,-2.746582E-4,9.0,0.06067228,0.15205885,9.805284,-0.008116487,-0.009867355,0.024961472,0.008303618,8.547778E-4,0.46373776,2017-02-09 18:15:05,38.390655283988416
0.06341553,0.13877869,9.049652,1.373291E-4,-0.0012817383,-8.392334E-4,9.0,0.059210643,0.1540521,9.805262,0.008785531,-0.003355652,0.0029439926,0.008359234,9.668034E-4,0.46361738,2017-02-09 18:15:06,62.03199096090117
0.049057007,0.13519287,9.043671,-0.0016937256,7.4768066E-4,-0.002670288,9.0,0.058503266,0.15427725,9.805263,0.0034674928,0.0012562275,-0.010803223,0.0083527155,0.0010038122,0.4635887,2017-02-09 18:15:07,49.71368588469471
0.047851563,0.14715576,9.048462,0.001373291,-0.001083374,-8.392334E-4,9.0,0.057954524,0.14481893,9.805409,0.008791864,-0.004272014,-0.01336956,0.007912085,8.0825214E-4,0.463952,2017-02-09 18:15:08,64.09670197021396
0.04067993,0.14715576,9.072388,-2.593994E-4,3.5095215E-4,-6.2561035E-4,9.0,0.053828992,0.1570744,9.805244,0.010176502,0.0047065467,-5.4836273E-4,0.008368946,0.0012788189,0.4633467,2017-02-09 18:15:09,49.82100252483206
0.06700134,0.1268158,9.050858,-0.0010681152,0.0019683838,0.0014038086,9.0,0.060151663,0.15076056,9.805307,-0.010020778,0.0020925403,0.01229763,0.008232619,8.479418E-4,0.46377522,2017-02-09 18:15:10,62.57336175088034
0.050247192,0.14955139,9.048462,-0.0027008057,5.493164E-4,-2.2888184E-4,9.0,0.052743405,0.1449728,9.805436,-0.025939934,-0.01056169,-0.01149559,0.0077959327,0.0010459312,0.4638009,2017-02-09 18:15:11,61.025769374905664
0.051452637,0.14237976,9.025726,1.5258789E-4,-0.0025024414,0.0012054443,9.0,0.058254223,0.14650482,9.805383,0.015649986,0.0012288392,5.340576E-4,0.007995384,8.3406694E-4,0.46389282,2017-02-09 18:15:12,59.05373448362549
0.041870117,0.13400269,9.047256,-6.1035156E-5,-0.0014801025,0.0012054443,9.0,0.057811946,0.14288658,9.805439,0.0028882138,-0.0026234537,-0.010528564,0.007821364,7.696241E-4,0.46402544,2017-02-09 18:15:13,41.58479909147533
0.049057007,0.13639832,9.064011,0.001373291,-0.001083374,0.0020141602,9.0,0.061687667,0.14781325,9.805343,-0.02699868,0.019177437,-3.9863586E-4,0.00813567,7.1033085E-4,0.46393582,2017-02-09 18:15:14,62.02484519123712
0.061019897,0.15434265,9.064011,-0.001876831,0.0025787354,0.0010070801,9.0,0.05989602,0.14868772,9.80534,-0.019357163,-0.0019510835,0.0019893646,0.008132864,8.1116415E-4,0.46385106,2017-02-09 18:15:15,42.183274763074785
0.04307556,0.13400269,9.034103,-0.0024871826,0.0015716553,-4.272461E-4,9.0,0.05646065,0.13842809,9.8055105,-0.010222729,-0.015262008,-0.02362442,0.0075878943,7.263676E-4,0.46416655,2017-02-09 18:15:16,55.52257185575332
0.056228638,0.122039795,9.047256,-6.713867E-4,-4.7302246E-4,-0.0018463135,9.0,0.055688396,0.14548957,9.805412,0.012030326,0.0117183775,7.4005127E-4,0.007888862,9.256715E-4,0.46386215,2017-02-09 18:15:17,49.05736925161577
0.06939697,0.1531372,9.0269165,0.001159668,0.0019683838,0.0020141602,9.0,0.04992683,0.1486878,9.805396,0.013741422,-0.0044135004,-0.01801014,0.0078974655,0.0012589943,0.46357363,2017-02-09 18:15:18,45.528018090379454
0.04067993,0.1531372,9.029312,7.6293945E-4,7.4768066E-4,5.950928E-4,9.0,0.05410147,0.14746538,9.805392,0.014696054,-0.013999879,-0.0055799484,0.007940724,0.0010429816,0.46373886,2017-02-09 18:15:19,55.75282263874535
0.052642822,0.13279724,9.053238,-8.69751E-4,-6.1035156E-5,1.8310547E-4,9.0,0.061099183,0.15302019,9.805266,-1.4665723E-4,0.00477615,-0.0058965683,0.008357168,8.579761E-4,0.46371117,2017-02-09 18:15:20,61.26458167102119
0.04067993,0.13279724,9.081955,7.6293945E-4,0.0017700195,7.9345703E-4,9.0,0.057342738,0.15805523,9.805209,-0.006237842,-0.008218944,0.021008492,0.008496209,0.0011437952,0.4634053,2017-02-09 18:15:21,64.44046271878905
0.052642822,0.14955139,9.005386,0.0015716553,-6.1035156E-5,0.0024261475,9.0,0.053500384,0.1503632,9.805351,-0.00991508,-0.0024114102,-0.00228405,0.008057592,0.0011374536,0.4636061,2017-02-09 18:15:22,61.29085707890017
0.059814453,0.14596558,9.041275,1.5258789E-4,0.0013580322,0.0028381348,9.0,0.05816678,0.14894263,9.8053465,-0.0034086592,0.014555126,-0.016803741,0.008103536,8.9476927E-4,0.4637928,2017-02-09 18:15:23,58.972394777542405
0.049057007,0.13400269,9.069992,1.5258789E-4,3.5095215E-4,0.0020141602,9.0,0.05519992,0.1452707,9.805419,-0.023444273,0.015449837,-0.0018758774,0.007867426,9.4251544E-4,0.46385732,2017-02-09 18:15:24,41.839764210357934
0.037094116,0.14237976,9.055634,5.493164E-4,9.613037E-4,-8.392334E-4,9.0,0.05515809,0.14571366,9.805412,-0.013807707,0.007910088,0.006855011,0.007886467,9.547141E-4,0.46383843,2017-02-09 18:15:25,64.04432931420234
0.04547119,0.14476013,9.041275,-6.1035156E-5,9.460449E-4,-8.392334E-4,9.0,0.05352968,0.14418013,9.805444,0.024771087,-0.014623359,-0.010429382,0.0077786595,9.921386E-4,0.46385455,2017-02-09 18:15:26,60.72596672992244
0.06341553,0.15672302,9.046066,-0.0010681152,-2.593994E-4,0.0016021729,9.0,0.055870958,0.1425826,9.805454,0.009508062,0.002544567,-0.005126953,0.0077617476,8.497293E-4,0.46398365,2017-02-09 18:15:27,41.05744938377125
0.041870117,0.14237976,9.059219,-0.0022888184,-0.0027008057,-8.392334E-4,9.0,0.055080805,0.14948311,9.805356,0.004237462,0.022455916,-0.024918556,0.008055097,0.0010459708,0.46368533,2017-02-09 18:15:28,58.86902044328602
0.046661377,0.124420166,9.04248,1.5258789E-4,0.002380371,0.0018157959,9.0,0.059661496,0.14463446,9.805402,0.00838225,-0.005393252,0.0025053024,0.007944091,7.2728115E-4,0.4640068,2017-02-09 18:15:29,63.992145476500056
0.034698486,0.12802124,9.034103,5.493164E-4,-4.7302246E-4,-2.2888184E-4,9.0,0.056227226,0.14636862,9.805396,-0.0076184534,-0.009437412,-0.019899368,0.007941336,9.219447E-4,0.46384192,2017-02-09 18:15:30,40.63221908892639
0.051452637,0.13998413,9.060425,-8.69751E-4,-0.0016937256,-0.0012512207,9.0,0.054809183,0.14934702,9.80536,0.018764265,0.0032075793,0.014199257,0.008042529,0.001055004,0.46368322,2017-02-09 18:15:32,52.95971021251027
0.055038452,0.13279724,9.038895,-0.0012817383,-0.0025024414,0.0014190674,9.0,0.057705246,0.14930466,9.805344,5.6546926E-4,0.015314534,0.007936478,0.008109004,9.239291E-4,0.46376547,2017-02-09 18:15:33,61.43607718921709
0.04067993,0.14715576,9.049652,7.6293945E-4,0.0019683838,3.8146973E-4,9.0,0.05619292,0.14413352,9.805429,-0.0075836405,-0.008572295,-0.0026254654,0.007839472,8.7141176E-4,0.4639305,2017-02-09 18:15:34,41.68696195056694
0.062210083,0.15194702,9.047256,-0.0018920898,-2.593994E-4,1.8310547E-4,9.0,0.057519287,0.14585789,9.805396,0.0091426,0.017378062,7.658005E-4,0.007948771,8.520084E-4,0.4638983,2017-02-09 18:15:35,59.011689314744956
0.029907227,0.12921143,9.032898,-0.0012664795,0.0017700195,5.950928E-4,9.0,0.055327103,0.14478377,9.805426,-0.013929546,0.0016706437,-0.0014667511,0.007848414,9.2545705E-4,0.46388036,2017-02-09 18:15:36,60.743317526534604
0.039474487,0.13998413,9.054443,-0.001876831,-6.1035156E-5,-2.2888184E-4,9.0,0.052828018,0.15040424,9.805354,0.027830131,-0.0035682172,-0.0050230026,0.008043579,0.0011686137,0.46358573,2017-02-09 18:15:37,60.18360922582406
0.049057007,0.1483612,9.059219,7.6293945E-4,-0.0014801025,0.0036468506,9.0,0.051516697,0.14626956,9.805424,0.0038991123,-0.006995827,-0.0014419556,0.007825611,0.0011312511,0.46371478,2017-02-09 18:15:38,41.42835694963931
0.0657959,0.15194702,9.047256,-0.0012664795,0.0027770996,0.003036499,9.0,0.056301266,0.14902315,9.805356,-0.0065129884,-0.0035936236,-0.005036354,0.008063116,9.804388E-4,0.4637377,2017-02-09 18:15:39,59.58725368897702
0.053833008,0.13519287,9.034103,-0.0012817383,0.001373291,9.918213E-4,9.0,0.058099307,0.14249487,9.805443,0.014585607,0.009699956,-0.020175934,0.0078104506,7.475857E-4,0.4640491,2017-02-09 18:15:40,61.804482020825226
0.04547119,0.14596558,9.04248,-4.5776367E-4,-0.0023040771,7.9345703E-4,9.0,0.058310475,0.14638449,9.805384,0.004840024,0.010943875,0.019749641,0.007991273,8.2873733E-4,0.4638992,2017-02-09 18:15:41,63.74697222921597
0.061019897,0.16749573,9.066406,-0.002090454,7.4768066E-4,-0.0010375977,9.0,0.057650708,0.14699455,9.805379,-0.0065053776,-0.009936005,0.008120537,0.008003266,8.725826E-4,0.46385643,2017-02-09 18:15:42,45.80567143288688
0.047851563,0.14237976,9.053238,-6.713867E-4,-6.1035156E-5,-0.001449585,9.0,0.06356744,0.15393409,9.805236,-2.425909E-5,-0.0044340193,-0.012393951,0.008456792,7.683938E-4,0.46374318,2017-02-09 18:15:43,42.3177017711862
0.04307556,0.15553284,9.053238,5.493164E-4,0.0021820068,-0.0010375977,9.0,0.058305956,0.14915459,9.805343,-0.004751615,-0.022796884,0.013796806,0.008116407,8.93453E-4,0.46378818,2017-02-09 18:15:44,64.52834150157125
0.050247192,0.12921143,9.048462,5.493164E-4,9.613037E-4,0.003036499,9.0,0.056052547,0.14901626,9.805358,-0.008657638,-0.0071316212,-0.0072870255,0.008056931,9.914507E-4,0.46373105,2017-02-09 18:15:45,61.06975453765389
0.041870117,0.12562561,9.052048,0.0015716553,-0.0049438477,-0.0028839111,9.0,0.058607124,0.14153424,9.805453,0.009357128,-0.020472318,-0.010311127,0.007779036,7.02381E-4,0.4641017,2017-02-09 18:15:46,48.990691816507294
0.051452637,0.14356995,9.048462,-0.0027008057,0.003189087,-0.0022583008,9.0,0.06792125,0.13953888,9.805422,-0.0052398667,-0.0043385476,-0.01260376,0.007909246,2.3752973E-4,0.4644399,2017-02-09 18:15:47,43.88798514250935
0.059814453,0.15911865,9.046066,-8.69751E-4,-0.0014801025,7.9345703E-4,9.0,0.058053076,0.14939983,9.805341,-0.0093210265,8.7291E-4,0.01304245,0.008121523,9.105215E-4,0.46377134,2017-02-09 18:15:48,58.86876652722869
0.056228638,0.13639832,9.058029,1.5258789E-4,-6.713867E-4,-0.0020599365,9.0,0.06277847,0.14034972,9.805445,0.010247704,0.0032560378,-0.0030584335,0.007824162,4.8740132E-4,0.46426493,2017-02-09 18:15:49,44.871621584610736
0.04307556,0.14476013,9.053238,-0.0010681152,-6.713867E-4,0.0022277832,9.0,0.06308135,0.14586394,9.805363,0.03155541,-0.0029269457,-0.0060453415,0.008080509,6.023311E-4,0.46405253,2017-02-09 18:15:50,60.94061782255798
0.07896423,0.12562561,9.040085,5.493164E-4,-8.69751E-4,5.950928E-4,9.0,0.06065325,0.14506581,9.805389,-0.0021256097,0.0013553202,0.009192467,0.007987032,6.9278746E-4,0.4640171,2017-02-09 18:15:51,44.30736231322194
0.049057007,0.15194702,9.055634,1.5258789E-4,1.373291E-4,-6.2561035E-4,9.0,0.05904871,0.1492668,9.805336,-0.013777047,0.011891842,0.006795883,0.008139026,8.6270436E-4,0.46380433,2017-02-09 18:15:52,53.88300832964778
0.047851563,0.117248535,9.050858,5.493164E-4,-0.0014801025,-0.0024719238,9.0,0.059591305,0.15104108,9.8053055,0.0036999173,-0.013586521,-0.0032892227,0.008232067,8.79639E-4,0.46374843,2017-02-09 18:15:53,62.30733787914187
0.058624268,0.13400269,9.032898,1.5258789E-4,-0.0012817383,1.8310547E-4,9.0,0.06397269,0.14826296,9.805321,-3.7579983E-4,-0.002735734,-0.010251045,0.008210009,6.181835E-4,0.46398127,2017-02-09 18:15:54,63.45102266828497
0.041870117,0.1483612,9.020935,0.002380371,3.3569336E-4,-1.5258789E-5,9.0,0.059441175,0.14700453,9.805368,0.0074017867,-0.006335482,-0.0010471344,0.008046022,7.9239317E-4,0.4639058,2017-02-09 18:15:55,62.83984973541736
0.056228638,0.14476013,9.050858,0.0021820068,0.002380371,-0.0030822754,9.0,0.060840975,0.1498631,9.805316,0.010901697,5.944073E-4,-0.017858505,0.008208329,7.960901E-4,0.4638303,2017-02-09 18:15:56,60.17440549093293
0.056228638,0.13040161,9.043671,-8.69751E-4,-6.1035156E-5,3.9672852E-4,9.0,0.06246058,0.14162055,9.8054285,-0.0014128275,0.014066249,0.009133339,0.007874065,5.313117E-4,0.4642052,2017-02-09 18:15:57,56.12216484809128
0.07537842,0.13998413,9.038895,-4.5776367E-4,-0.0012817383,-4.272461E-4,9.0,0.0551538,0.14603274,9.805408,-0.026943725,0.017257959,-0.001253128,0.007900792,9.623399E-4,0.46382552,2017-02-09 18:15:58,48.5559279373517
0.052642822,0.117248535,9.055634,3.5095215E-4,9.613037E-4,-3.0517578E-5,9.0,0.065758,0.14746019,9.805321,-0.0043810084,0.016031846,-0.01072216,0.00821594,5.193124E-4,0.4640629,2017-02-09 18:15:59,51.682513921762016
0.050247192,0.13160706,9.041275,-8.69751E-4,3.5095215E-4,3.8146973E-4,9.0,0.05664123,0.14643227,9.805393,-0.0043939203,-0.016629398,0.005224228,0.007953994,9.048302E-4,0.4638509,2017-02-09 18:16:00,49.470417732180806
0.04547119,0.13877869,9.037689,-0.0016784668,-6.713867E-4,-4.272461E-4,9.0,0.059957094,0.14374623,9.805413,-0.0026744604,-0.0034109205,-0.0065317154,0.007910931,6.9330493E-4,0.4640506,2017-02-09 18:16:01,41.325839814919846
0.0657959,0.14715576,9.052048,-4.5776367E-4,-0.0014801025,0.003036499,9.0,0.05523917,0.14146674,9.805474,-0.0067395642,0.0057744235,-0.001876831,0.0076963715,8.520992E-4,0.4640108,2017-02-09 18:16:02,62.7330750478334
0.053833008,0.13639832,9.064011,-4.5776367E-4,0.0029754639,-2.2888184E-4,9.0,0.052976117,0.15102957,9.805345,0.0049118176,-0.0030710697,0.009192467,0.008075359,0.0011765151,0.4635648,2017-02-09 18:16:03,62.7507908601127
0.052642822,0.12802124,9.056839,-2.593994E-4,7.4768066E-4,0.0010070801,9.0,0.059173778,0.14666393,9.805375,0.004001733,-0.00856775,0.006816864,0.008024305,7.9647E-4,0.463912,2017-02-09 18:16:04,58.78424134086813
0.041870117,0.14356995,9.040085,1.5258789E-4,9.613037E-4,-1.5258789E-5,9.0,0.058938302,0.14697406,9.805371,-0.013704326,-4.248023E-4,0.003127098,0.0080327615,8.142704E-4,0.46389306,2017-02-09 18:16:05,56.67208686960581
0.07058716,0.13279724,9.037689,-0.001663208,0.003036499,-9.1552734E-4,9.0,0.061505996,0.14242429,9.805423,-0.023229998,-0.020081699,0.021097183,0.007887809,5.929234E-4,0.46414652,2017-02-09 18:16:06,59.8550964039914
0.056228638,0.14237976,9.091522,0.0023956299,-0.0020446777,0.0021362305,9.0,0.056627434,0.14515115,9.805412,0.012354005,0.012030572,0.011492729,0.007895746,8.756047E-4,0.46390182,2017-02-09 18:16:07,41.763079300079696
0.06341553,0.16151428,9.069992,7.7819824E-4,0.002243042,0.0013275146,9.0,0.060325302,0.15449625,9.805247,-0.0018449165,0.011748582,-0.00977993,0.008405639,9.270743E-4,0.46363062,2017-02-09 18:16:08,60.549851036792475
0.06939697,0.14356995,9.060425,-0.0030822754,-0.002243042,3.0517578E-4,9.0,0.0598679,0.14451607,9.805403,0.0045976304,-0.0028871447,-0.013113022,0.007943618,7.1525155E-4,0.4640173,2017-02-09 18:16:09,49.31024186121422
0.050247192,0.13877869,9.049652,0.0019836426,-4.119873E-4,-0.0015258789,9.0,0.060927205,0.14588092,9.805375,0.004823558,0.016187996,-0.01588726,0.008030351,6.9947436E-4,0.46399206,2017-02-09 18:16:10,59.86189901241961
0.058624268,0.13519287,9.041275,0.0019836426,-0.0014190674,-0.002746582,9.0,0.06057542,0.14705297,9.80536,-0.015217073,-0.01725693,-0.005583763,0.008075017,7.425775E-4,0.46393538,2017-02-09 18:16:11,46.07405782509812
0.07298279,0.1531372,9.060425,9.765625E-4,-0.0030517578,-3.0517578E-4,9.0,0.06251436,0.15281703,9.80526,-0.011015195,0.002578944,-0.017149925,0.008381411,7.896932E-4,0.46375862,2017-02-09 18:16:12,49.178459322899855
0.044265747,0.15792847,9.064011,0.0011749268,-1.9836426E-4,7.171631E-4,9.0,0.060484838,0.15500705,9.805238,0.011190414,0.005332187,-0.006272316,0.008432505,9.3179155E-4,0.4636146,2017-02-09 18:16:13,48.31795066859157
0.057434082,0.14715576,9.056839,-0.0012664795,8.239746E-4,-1.0681152E-4,9.0,0.054175876,0.14245515,9.805466,0.0014612451,1.5498698E-4,-0.01041317,0.0077159307,9.229074E-4,0.46394163,2017-02-09 18:16:14,43.202006128141534
0.056228638,0.14237976,9.025726,0.0013885498,-0.0012207031,9.1552734E-4,9.0,0.067524865,0.14212608,9.8053875,-0.00851509,0.007548645,-0.001613617,0.00801673,3.1566355E-4,0.46432534,2017-02-09 18:16:15,62.536618302028835
0.061019897,0.13400269,9.073578,-4.5776367E-5,1.9836426E-4,-0.0011138916,9.0,0.056043968,0.14295365,9.805448,0.011703242,-0.005088851,-0.012283325,0.007782611,8.506059E-4,0.4639736,2017-02-09 18:16:16,45.49990190401962
0.055038452,0.12802124,9.060425,1.5258789E-4,-0.0016326904,-7.171631E-4,9.0,0.061668523,0.14765897,9.805345,-7.160567E-4,0.002430439,0.003777504,0.008128244,7.0759765E-4,0.46394148,2017-02-09 18:16:17,36.879937359948855
0.052642822,0.117248535,9.034103,-4.5776367E-5,0.0026245117,0.0015258789,9.0,0.05993186,0.15358041,9.805264,-0.0038934015,-0.0114272535,-0.014907837,0.008354933,9.234377E-4,0.4636563,2017-02-09 18:16:18,63.10870880624385
0.052642822,0.12802124,9.029312,0.0021972656,6.1035156E-4,3.0517578E-4,9.0,0.0604019,0.14152588,9.805443,0.007688973,-0.004945606,-0.024321556,0.007821097,6.2156934E-4,0.46415186,2017-02-09 18:16:19,60.77457564664812
0.03111267,0.14117432,9.036499,-6.5612793E-4,-0.0026397705,0.0015258789,9.0,0.055755798,0.14437972,9.8054285,-0.02389576,-0.013475254,-0.017364502,0.007840274,8.967848E-4,0.46390846,2017-02-09 18:16:20,65.36377773789636
0.047851563,0.13400269,9.029312,-4.5776367E-5,-0.0010070801,5.187988E-4,9.0,0.054465733,0.14455834,9.805433,0.008370951,-5.8086216E-4,0.020522118,0.007817872,9.5889973E-4,0.46386543,2017-02-09 18:16:21,45.46532947264203
0.057434082,0.13998413,9.028122,-0.0012664795,-0.004486084,-0.0023345947,9.0,0.05651236,0.14858398,9.805362,0.020881433,0.0053933263,0.0048599243,0.008048243,9.6073095E-4,0.46376115,2017-02-09 18:16:22,62.777107283232624
0.046661377,0.13400269,9.038895,9.765625E-4,-0.0024414063,0.0015258789,9.0,0.06280831,0.14565684,9.805367,0.013814077,-0.020758122,0.013841629,0.008064694,6.0976826E-4,0.46405324,2017-02-09 18:16:23,62.835308991890095
0.059814453,0.14596558,9.035294,7.7819824E-4,-1.9836426E-4,-5.187988E-4,9.0,0.06367061,0.14722823,9.805338,-0.018065441,0.016107634,4.1007996E-4,0.008156101,6.0764933E-4,0.4640143,2017-02-09 18:16:24,44.85136118473484
0.039474487,0.13519287,9.047256,9.765625E-4,0.0028381348,-1.0681152E-4,9.0,0.060792282,0.14330448,9.805414,0.004915502,5.4343045E-4,-0.010393143,0.007910711,6.4549653E-4,0.46409148,2017-02-09 18:16:25,56.27721208691745
0.057434082,0.13519287,9.055634,-4.5776367E-4,0.0010223389,0.0011291504,9.0,0.059587367,0.14910187,9.805335,0.012023833,0.010794297,0.007678032,0.008144296,8.346705E-4,0.4638259,2017-02-09 18:16:26,42.553050759680566
0.047851563,0.124420166,9.056839,0.0023956299,0.0024414063,1.0681152E-4,9.0,0.05976584,0.14433739,9.805406,-0.0073291734,0.0043243766,-0.01307106,0.00793313,7.1567186E-4,0.46402162,2017-02-09 18:16:27,34.378836177679275
0.051452637,0.13639832,9.048462,-4.5776367E-5,0.0010223389,9.1552734E-4,9.0,0.063312404,0.14339119,9.805397,0.01214958,0.0016520917,-0.006746292,0.007974225,5.34331E-4,0.46415794,2017-02-09 18:16:28,43.16173764075415
0.06939697,0.12921143,9.031708,0.0017852783,-0.0018310547,-0.0013275146,9.0,0.06320081,0.14606372,9.805359,0.0075111985,-0.0102819055,-0.0013685226,0.008092362,6.016205E-4,0.46404785,2017-02-09 18:16:29,61.01435922852722
0.039474487,0.17108154,9.054443,9.765625E-4,-0.0018310547,0.0011291504,9.0,0.06430782,0.14492893,9.805368,-0.00785305,-0.008030146,0.021344185,0.008067257,5.254643E-4,0.464124,2017-02-09 18:16:30,58.196908538425376
0.062210083,0.14715576,9.06282,0.001373291,-6.1035156E-4,-5.0354004E-4,9.0,0.055284724,0.14644606,9.805401,0.008779928,0.01196824,-0.0067014694,0.007922575,9.660866E-4,0.46381262,2017-02-09 18:16:31,62.612044696103595
0.062210083,0.124420166,9.04248,0.0030059814,0.0016326904,0.0011138916,9.0,0.06527356,0.1536846,9.805228,0.004377637,0.014917865,0.005928993,0.008485822,6.8597373E-4,0.46380052,2017-02-09 18:16:32,58.7809583374879
0.057434082,0.1483612,9.035294,0.0021972656,6.1035156E-4,-0.0013275146,0.0,0.066279925,0.15072791,9.805267,0.015431013,-0.0026353449,-0.021193504,0.008375961,5.71969E-4,0.46394667,2017-02-09 18:16:33,41.98100519727525
0.026321411,0.12083435,9.058029,1.5258789E-4,-0.004272461,0.0017242432,9.0,0.05773895,0.14004393,9.80548,-0.020973962,0.0095575005,-0.005221367,0.007691151,7.0662977E-4,0.4641373,2017-02-09 18:16:34,58.57666175545706
0.051452637,0.13877869,9.028122,-0.0014801025,-0.002029419,0.0015258789,9.0,0.060196515,0.14733826,9.805358,-0.0064635724,-0.0018906593,-0.004804611,0.008078958,7.6624035E-4,0.46391344,2017-02-09 18:16:35,61.906256125545525
0.07058716,0.12802124,9.046066,5.645752E-4,-0.0018310547,0.0029449463,9.0,0.06178031,0.15647839,9.805207,-0.0055315085,-0.0055518746,0.009234428,0.008529628,9.078329E-4,0.4635918,2017-02-09 18:16:36,59.817568692259044
0.035888672,0.11843872,9.073578,9.765625E-4,0.0012207031,-0.0013275146,9.0,0.058616675,0.15225072,9.805293,-0.020598184,-0.011284903,-0.0117845535,0.008263747,9.5156685E-4,0.46367294,2017-02-09 18:16:37,41.033453183860935
0.058624268,0.15553284,9.036499,-0.0016784668,-0.0016326904,-0.0011138916,9.0,0.06531272,0.14387313,9.805377,-0.0028591938,-0.0024145097,0.016992569,0.008043317,4.557298E-4,0.46419412,2017-02-09 18:16:38,61.984653325900396
0.050247192,0.14356995,9.055634,-6.5612793E-4,-0.0012207031,-3.0517578E-4,9.0,0.05642767,0.14723496,9.805383,-0.0030574985,-0.0043736994,0.0057268143,0.007985243,9.331196E-4,0.4638128,2017-02-09 18:16:39,40.88158836863347
0.052642822,0.14117432,9.025726,-0.0010528564,4.119873E-4,-3.0517578E-4,9.0,0.059657294,0.15195195,9.805291,-0.0036041439,-0.0014553815,0.010069847,0.008274812,8.978756E-4,0.46371382,2017-02-09 18:16:40,57.75924465331344
0.039474487,0.14476013,9.024536,-2.4414063E-4,-0.0034637451,3.0517578E-4,9.0,0.059006702,0.15115757,9.805307,0.0042130947,5.989373E-4,-0.0063619614,0.008223527,9.0860756E-4,0.4637275,2017-02-09 18:16:41,62.50683973521291
0.056228638,0.12083435,9.038895,-4.5776367E-4,-0.0018310547,5.0354004E-4,9.0,0.059290834,0.15102056,9.805308,-0.006834157,-0.012475014,-6.0081482E-5,0.008224041,8.926567E-4,0.4637409,2017-02-09 18:16:42,41.61601248076033
0.059814453,0.16270447,9.043671,-0.0024871826,-1.9836426E-4,3.0517578E-4,9.0,0.06337661,0.15375134,9.805241,0.008577831,0.0042304248,-3.2424927E-5,0.008444021,7.727112E-4,0.4637452,2017-02-09 18:16:43,39.89561973675836
0.059814453,0.14237976,9.032898,0.0017852783,0.003036499,0.002746582,9.0,0.058204755,0.14568625,9.805395,0.0049406923,-0.019516855,-6.9618225E-5,0.007957208,8.172199E-4,0.46392423,2017-02-09 18:16:44,29.2973814254741
0.049057007,0.124420166,9.038895,-6.5612793E-4,-6.1035156E-4,-7.171631E-4,9.0,0.059040416,0.15120421,9.805306,-0.005383823,-0.0018360317,0.0010633469,0.008226432,9.081789E-4,0.46372658,2017-02-09 18:16:45,36.7894703701769
0.0657959,0.1483612,9.049652,-0.0020751953,-0.0010223389,-0.0025482178,9.0,0.059251595,0.14299496,9.8054285,-0.017536964,-0.005028233,0.0052776337,0.007860295,7.074837E-4,0.46406108,2017-02-09 18:16:46,56.94622703792288
0.059814453,0.13519287,9.031708,-0.0024719238,0.0016326904,0.0021362305,9.0,0.058076646,0.15007646,9.80533,0.012215093,-0.008057103,0.02012825,0.008152675,9.2521554E-4,0.4637449,2017-02-09 18:16:47,40.866233976898066
0.037094116,0.12802124,9.028122,-0.0014648438,-0.0012207031,-5.0354004E-4,9.0,0.05883319,0.14620852,9.805384,0.009122863,0.012231067,0.008197784,0.007995669,8.011594E-4,0.46392077,2017-02-09 18:16:48,64.37267388529543
0.056228638,0.13877869,9.040085,0.0025939941,0.0016326904,-1.0681152E-4,9.0,0.06110129,0.14778085,9.8053465,-0.0071467124,0.0065909624,-0.009537697,0.008029141,6.9963135E-4,0.46399248,2017-02-09 18:16:49,61.46626222307966
0.06341553,0.13998413,9.030518,1.6784668E-4,-8.087158E-4,-0.0011138916,9.0,0.058201637,0.1477895,9.805364,0.0013351627,3.1337142E-5,-0.011017799,0.008052222,8.663509E-4,0.46383992,2017-02-09 18:16:50,55.20258327388751
0.055038452,0.13639832,9.047256,-4.5776367E-5,-8.087158E-4,1.0681152E-4,9.0,0.06276066,0.14279093,9.80541,0.0067108534,0.022622228,-0.008703232,0.00793405,5.451191E-4,0.46416667,2017-02-09 18:16:51,42.92038315586103
0.062210083,0.13160706,9.017349,-6.5612793E-4,-0.0012207031,-0.0015258789,9.0,0.05675013,0.146089,9.805398,-0.004511997,-0.009171262,0.006965637,0.007941047,8.919422E-4,0.46386766,2017-02-09 18:16:52,44.01931128612361
0.04307556,0.1375885,9.058029,-2.4414063E-4,3.9672852E-4,-0.0011291504,9.0,0.05694103,0.14442098,9.805421,0.006089147,7.5651705E-4,-0.01739788,0.007870145,8.4450474E-4,0.4639398,2017-02-09 18:16:53,60.77030285024516
0.062210083,0.14237976,9.053238,9.765625E-4,-4.119873E-4,0.0015258789,9.0,0.05876332,0.14760867,9.805363,-0.017135162,-0.023762241,0.014017105,0.008057318,8.369107E-4,0.46386278,2017-02-09 18:16:54,63.02457705241889
0.0657959,0.13040161,9.055634,0.0015869141,-8.087158E-4,0.0019378662,9.0,0.053072635,0.14916906,9.805372,0.0048811696,-0.008375481,-0.023103714,0.007993483,0.0011288705,0.463642,2017-02-09 18:16:55,64.8574568100917
0.06700134,0.1483612,9.04248,-4.4250488E-4,-0.0036621094,0.0013275146,9.0,0.061087497,0.15155767,9.805288,0.0058728084,0.006193176,-0.014698029,0.008290766,8.244652E-4,0.46376935,2017-02-09 18:16:56,58.2844978368331
0.044265747,0.12562561,9.050858,-0.0024871826,0.0038604736,-3.0517578E-4,9.0,0.061975203,0.14952978,9.805315,0.0050582364,8.863807E-4,-0.008090973,0.00822006,7.3738967E-4,0.46387511,2017-02-09 18:16:57,60.29972534913224
0.059814453,0.14596558,9.030518,5.645752E-4,0.0010223389,5.0354004E-4,9.0,0.060625803,0.14366387,9.80541,-0.005669497,-0.0056889653,-0.0072755814,0.007923017,6.6135015E-4,0.46407247,2017-02-09 18:16:58,60.071642295333376
0.047851563,0.14955139,9.044876,1.6784668E-4,4.119873E-4,0.001739502,9.0,0.06253866,0.14532109,9.805374,0.0045161396,-6.0722232E-5,-0.00688076,0.008043144,6.140558E-4,0.4640592,2017-02-09 18:16:59,61.59934540236668
0.0382843,0.14117432,9.044876,0.0021972656,0.0034484863,0.0025482178,9.0,0.056891482,0.15144925,9.805315,-0.0058875196,0.01683405,0.0035591125,0.008186767,0.0010104035,0.46365702,2017-02-09 18:17:00,48.71622160580409
0.052642822,0.14476013,9.068802,-6.5612793E-4,-1.9836426E-4,0.0017242432,9.0,0.056383424,0.15019786,9.805338,0.023305476,-0.0023169965,0.0058898926,0.008118179,0.0010040968,0.46369296,2017-02-09 18:17:01,41.54681001707565
0.056228638,0.14356995,9.036499,-0.0041046143,-6.1035156E-4,0.0033569336,9.0,0.06217707,0.14400968,9.805395,0.010766942,0.016549036,0.022445679,0.007975326,5.997362E-4,0.46410167,2017-02-09 18:17:02,61.58297916778106
0.035888672,0.1268158,9.064011,-0.0014648438,-4.119873E-4,-0.0011138916,9.0,0.057868935,0.13717881,9.80552,0.015995298,0.008603737,-0.012072563,0.0075647393,6.3396076E-4,0.46425575,2017-02-09 18:17:03,45.77137953700415
0.055038452,0.12921143,9.050858,-8.544922E-4,-0.0026397705,0.001739502,9.0,0.06091646,0.14326054,9.805415,0.016764373,5.853474E-4,0.011230469,0.007911661,6.388948E-4,0.46409667,2017-02-09 18:17:04,59.081964880724406
0.061019897,0.14476013,9.058029,0.0028076172,-0.0016326904,3.0517578E-4,9.0,0.05495368,0.14221941,9.805466,0.010329809,0.011194468,-0.0022258759,0.0077236514,8.8247034E-4,0.46397272,2017-02-09 18:17:05,46.99893110774308
0.061019897,0.12083435,9.020935,0.0024719238,0.0020599365,0.0015411377,9.0,0.05412548,0.1543342,9.805286,-0.005691331,-0.012046754,-0.0076646805,0.00825197,0.0012017749,0.46346456,2017-02-09 18:17:06,62.44749309286787
0.050247192,0.12562561,9.058029,-3.8146973E-4,0.0010375977,0.001953125,9.0,0.053179502,0.1507822,9.8053465,0.0011721961,-0.0135189,0.009479523,0.00806897,0.001161621,0.46358037,2017-02-09 18:17:07,42.43861806047334
0.057434082,0.13040161,9.0269165,0.001449585,-1.8310547E-4,-0.0013122559,9.0,0.053040408,0.14919369,9.805371,-0.008261163,0.004716754,0.020049095,0.007993837,0.0011308918,0.4636401,2017-02-09 18:17:08,42.53079268178156
0.058624268,0.13639832,9.028122,-7.7819824E-4,2.1362305E-4,-0.0017089844,9.0,0.053480107,0.15793988,9.805232,-0.012260422,0.0061909556,-0.0027694702,0.008399877,0.0013146118,0.46330234,2017-02-09 18:17:09,43.566788803376866
0.037094116,0.13998413,9.031708,-0.0040283203,4.272461E-4,0.0015563965,9.0,0.052534714,0.14022449,9.805507,0.0053308345,0.0033363253,0.018357277,0.0075763003,9.446355E-4,0.46398538,2017-02-09 18:17:10,53.79175697339443
0.071777344,0.13877869,9.041275,8.392334E-4,0.0016479492,-6.866455E-4,9.0,0.058329783,0.14583217,9.805392,-0.0011422709,-0.0112398565,-0.014501572,0.007966759,8.1500324E-4,0.46392184,2017-02-09 18:17:11,55.79016258410122
0.0765686,0.15194702,9.060425,-3.6621094E-4,0.0014343262,0.0015411377,9.0,0.05409249,0.14345212,9.805451,-0.0032721795,0.0027701557,0.0064754486,0.0077590374,9.498897E-4,0.46389937,2017-02-09 18:17:12,42.59786636893632
0.039474487,0.14715576,9.034103,-0.0011901855,-0.0022277832,0.0017547607,9.0,0.056281097,0.1498373,9.805345,-0.013631463,-0.0066084117,0.0024442673,0.008099456,0.0010002995,0.46370456,2017-02-09 18:17:13,47.5089698715058
0.04307556,0.12562561,9.055634,0.001449585,0.0014343262,0.0017547607,9.0,0.057554558,0.14473662,9.805413,-0.0016674884,-0.0019779652,0.017665863,0.007898913,8.2430005E-4,0.4639442,2017-02-09 18:17:14,61.0778912469634
0.06460571,0.13279724,9.054443,-9.918213E-4,-7.9345703E-4,3.2043457E-4,9.0,0.055250872,0.14790632,9.805379,-7.8618526E-4,0.0021625757,-0.007247925,0.007987807,0.0010016169,0.4637532,2017-02-09 18:17:15,42.84066883342882
0.059814453,0.13877869,9.056839,-1.6784668E-4,0.0022583008,-7.6293945E-5,9.0,0.05678772,0.14631201,9.805394,-0.009372119,-0.0011273324,8.28743E-4,0.007952018,8.9544855E-4,0.46385977,2017-02-09 18:17:16,58.947731042401685
0.055038452,0.10887146,9.037689,4.4250488E-4,1.5258789E-5,-2.89917E-4,9.0,0.054122437,0.15365452,9.805297,0.0086606,0.011289507,-0.015358925,0.008221151,0.0011861003,0.46349168,2017-02-09 18:17:17,60.920632287119886
0.058624268,0.15194702,9.058029,-0.0013885498,-0.0018157959,-4.8828125E-4,9.0,0.05435471,0.14839615,9.805377,0.008438781,0.014933437,0.004763603,0.007988796,0.0010532802,0.46370864,2017-02-09 18:17:18,53.968243146865156
0.059814453,0.13400269,9.047256,0.0024719238,8.392334E-4,-2.89917E-4,9.0,0.057801887,0.15319069,9.805284,0.025622252,-0.004972413,0.016478539,0.008287017,0.0010100354,0.46361268,2017-02-09 18:17:19,60.240372331360355
0.050247192,0.13279724,9.046066,3.0517578E-5,-0.0026397705,1.2207031E-4,9.0,0.05805701,0.15059732,9.805322,-0.015309546,-0.002621755,-0.013843536,0.008175764,9.382224E-4,0.4637235,2017-02-09 18:17:20,60.03881470005791
0.032302856,0.14715576,9.050858,6.4086914E-4,6.2561035E-4,0.001953125,9.0,0.05002306,0.14639255,9.805429,0.005305346,-0.0070288777,3.5762787E-4,0.007795913,0.001201222,0.46366826,2017-02-09 18:17:21,61.44920480343994
0.04067993,0.14117432,9.058029,3.0517578E-5,0.0012359619,0.0011444092,9.0,0.058536217,0.15005511,9.805327,0.0034629144,4.258901E-4,0.01978302,0.008162565,9.0407644E-4,0.46375856,2017-02-09 18:17:22,54.767006027370435
0.06341553,0.1483612,9.068802,-3.8146973E-4,-3.9672852E-4,9.460449E-4,9.0,0.05279042,0.14934699,9.805371,0.007500872,-0.0074519217,0.0036754608,0.00799487,0.0011456913,0.463627,2017-02-09 18:17:23,60.63456322047383
0.050247192,0.15672302,9.080765,8.392334E-4,2.2888184E-4,-0.0012969971,9.0,0.055941787,0.15028238,9.805339,-0.020510789,-0.0010931045,0.019163132,0.008111573,0.0010259022,0.4636773,2017-02-09 18:17:24,41.38973231038879
0.035888672,0.13400269,9.054443,0.0020599365,0.0036621094,1.2207031E-4,9.0,0.050843902,0.14886603,9.805388,-0.012255762,1.1099875E-4,-8.1443787E-4,0.007927171,0.001221942,0.46359205,2017-02-09 18:17:25,65.0752333070855
0.049057007,0.12562561,9.047256,6.5612793E-4,0.0048980713,1.2207031E-4,9.0,0.059536763,0.14375351,9.805416,0.0012545399,-0.008316651,-0.010296822,0.007901322,7.1235443E-4,0.46403864,2017-02-09 18:17:26,56.860248555522055
0.052642822,0.13877869,9.055634,2.2888184E-4,-0.0024261475,-0.0013122559,9.0,0.057324592,0.14248212,9.805448,-3.0474365E-4,0.007175803,-0.0011177063,0.0077915615,7.8208826E-4,0.4640281,2017-02-09 18:17:27,44.77771184466346
0.046661377,0.14596558,9.078369,-0.003616333,-0.0026245117,0.001953125,9.0,0.057701677,0.14482851,9.80541,-0.0054135323,0.0027054101,0.008934975,0.007906544,8.198329E-4,0.46394458,2017-02-09 18:17:28,62.71481510094904
0.061019897,0.13040161,9.064011,-1.8310547E-4,-0.0020141602,7.324219E-4,9.0,0.05959584,0.14300412,9.805427,3.0040741E-5,-0.01833357,-0.0045814514,0.007868847,6.922349E-4,0.4640703,2017-02-09 18:17:29,58.56539401421678
0.07058716,0.14356995,9.060425,2.4414063E-4,-0.0028381348,9.460449E-4,9.0,0.05724486,0.1412128,9.805467,0.0022124872,0.010862127,0.014266014,0.007732301,7.560794E-4,0.46407673,2017-02-09 18:17:30,52.71452778641364
0.047851563,0.14356995,9.040085,4.4250488E-4,2.1362305E-4,3.3569336E-4,9.0,0.062770985,0.14708433,9.8053465,0.019828767,-0.0017741024,-0.022219658,0.008128329,6.446997E-4,0.46399507,2017-02-09 18:17:31,53.44178779072169
0.051452637,0.110076904,9.066406,-0.0013885498,0.004470825,9.460449E-4,9.0,0.061370153,0.14397627,9.805401,0.022306692,0.005858347,-3.9672852E-4,0.007954736,6.3519884E-4,0.4640806,2017-02-09 18:17:32,55.50370479681647
0.058624268,0.14117432,9.060425,2.4414063E-4,-5.950928E-4,0.0017547607,9.0,0.053466763,0.14746225,9.805396,-0.008686319,0.008607164,-0.00253582,0.007925594,0.0010714219,0.4637213,2017-02-09 18:17:33,61.058475019703565
0.047851563,0.15074158,9.06282,-1.6784668E-4,8.239746E-4,-7.6293945E-5,9.0,0.060178082,0.14596444,9.805379,6.396957E-4,-0.017584756,0.025532722,0.00801642,7.350664E-4,0.46396792,2017-02-09 18:17:34,47.21972758631282
0.049057007,0.14596558,9.040085,2.2888184E-4,-5.950928E-4,-9.0026855E-4,9.0,0.06460312,0.15236728,9.805253,0.0014247485,0.0018238425,-2.8419495E-4,0.0084104305,6.854254E-4,0.46383458,2017-02-09 18:17:35,41.70182906782787
0.047851563,0.124420166,9.058029,-1.6784668E-4,-1.8310547E-4,-0.0013122559,9.0,0.05815916,0.14591776,9.805392,-0.016588587,0.0040920824,0.009744644,0.007966597,8.2466117E-4,0.46391368,2017-02-09 18:17:36,64.86121018529599
0.059814453,0.13519287,9.052048,8.392334E-4,-1.9836426E-4,0.0023651123,9.0,0.054118257,0.1458932,9.805415,-8.9877844E-4,-6.6922605E-4,-0.0015859604,0.007870024,0.0010056087,0.4638023,2017-02-09 18:17:37,47.40726784876121
0.061019897,0.119644165,9.053238,-0.0011901855,-1.9836426E-4,0.0031738281,9.0,0.05338363,0.14538595,9.805427,-0.006181799,0.008231372,-0.014621735,0.007829736,0.0010267943,0.46380216,2017-02-09 18:17:38,49.981710134505704
0.058624268,0.107681274,9.067596,-1.6784668E-4,-0.0018157959,-0.0017089844,9.0,0.05742812,0.13790676,9.805512,-0.017150164,-0.012513503,0.015130043,0.0075872107,6.7074556E-4,0.46421432,2017-02-09 18:17:39,42.032236086189805
0.061019897,0.14596558,9.044876,8.544922E-4,0.0028533936,0.0019683838,9.0,0.06332541,0.15209733,9.805265,1.4922395E-4,0.013895124,-0.020133972,0.008368036,7.365211E-4,0.4638099,2017-02-09 18:17:40,62.9996440831441
0.050247192,0.12083435,9.041275,-0.0011901855,-1.8310547E-4,0.0023651123,9.0,0.057230067,0.14209276,9.805454,0.0046002977,0.0028251559,-0.008550644,0.0077717267,7.7725836E-4,0.46404105,2017-02-09 18:17:41,63.787658126682416
0.032302856,0.13877869,9.023331,-7.7819824E-4,0.0028533936,9.460449E-4,9.0,0.055799805,0.14097773,9.805478,0.0059401803,0.005093977,0.0032291412,0.007687516,8.1551296E-4,0.464046,2017-02-09 18:17:42,62.092332092156326
0.04547119,0.12802124,9.052048,4.4250488E-4,0.0010375977,7.324219E-4,9.0,0.056319784,0.1430736,9.805445,-0.019670468,0.0031609237,0.003334999,0.0077945516,8.410116E-4,0.46397647,2017-02-09 18:17:43,42.60041807625988
0.04307556,0.13160706,9.041275,0.001663208,2.2888184E-4,-0.0021209717,9.0,0.06155187,0.14386897,9.805402,0.009016294,0.0048740506,-2.8896332E-4,0.007954183,6.2453654E-4,0.46408996,2017-02-09 18:17:44,61.8622709785776
0.029907227,0.12083435,9.052048,-5.79834E-4,0.0010375977,1.2207031E-4,9.0,0.05569352,0.14513549,9.805418,-0.0023290813,0.012055114,0.0026016235,0.007872973,9.1719197E-4,0.46387646,2017-02-09 18:17:45,41.86850313821261
0.053833008,0.119644165,9.049652,2.2888184E-4,1.5258789E-5,0.0017547607,9.0,0.06359027,0.14242087,9.80541,-0.0048597082,-0.011807829,-5.712509E-4,0.007936951,4.992331E-4,0.4642045,2017-02-09 18:17:46,64.1133069843429
0.06341553,0.12562561,9.036499,4.4250488E-4,-0.0032348633,-0.0015106201,9.0,0.066591285,0.142613,9.8053875,-0.019549597,-0.0023260415,0.014142036,0.008016633,3.6893899E-4,0.46427998,2017-02-09 18:17:47,45.15040149739921
0.051452637,0.17347717,9.041275,0.0012512207,-0.0012054443,-0.002105713,9.0,0.050123375,0.14096825,9.805509,-0.0103575215,-0.0068339854,0.020570755,0.0075529623,0.0010703162,0.46388844,2017-02-09 18:17:48,48.75364427802779
0.039474487,0.12921143,9.035294,6.4086914E-4,-0.0016174316,0.001953125,9.0,0.05797206,0.14326546,9.805432,-0.0032586232,-0.00182648,0.011606216,0.007842275,7.712627E-4,0.4640147,2017-02-09 18:17:49,42.65243009006028
0.0382843,0.15434265,9.052048,3.0517578E-5,-0.0026397705,-0.0015106201,9.0,0.056421474,0.14542916,9.805409,0.00653778,0.008124247,0.021539688,0.007903449,8.913336E-4,0.46388495,2017-02-09 18:17:50,52.669668035974794
0.058624268,0.14715576,9.059219,8.544922E-4,4.272461E-4,0.0011444092,9.0,0.06355806,0.15043624,9.80529,0.0071347244,-0.0024474412,-0.004957199,0.008298442,6.8740814E-4,0.4638828,2017-02-09 18:17:51,63.05321431836827
0.03111267,0.14476013,9.056839,0.0010528564,-0.0014038086,0.00440979,9.0,0.05819052,0.1494764,9.805338,0.003728345,-0.007554531,-0.0059633255,0.008128232,9.061306E-4,0.4637721,2017-02-09 18:17:52,62.928440346389536
0.04067993,0.12322998,9.037689,-0.0030059814,0.0016479492,0.0017547607,9.0,0.059054475,0.14146644,9.805451,0.0053062364,-0.002554521,-0.008107185,0.007786549,6.80706E-4,0.46411684,2017-02-09 18:17:54,57.25549669772111
0.039474487,0.13639832,9.052048,0.0010528564,0.0014343262,7.324219E-4,9.0,0.05820959,0.14665996,9.805381,-0.005864896,-0.0049378276,-0.022788048,0.008001342,8.396854E-4,0.46388537,2017-02-09 18:17:55,41.584285234612615
0.055038452,0.13639832,9.031708,4.4250488E-4,0.0010223389,-0.0017089844,9.0,0.058418196,0.14611137,9.8053875,0.0011340976,0.0015766323,-0.016039848,0.007981471,8.175364E-4,0.46391314,2017-02-09 18:17:56,60.9784383661247
0.0657959,0.13519287,9.016159,2.4414063E-4,0.0016479492,-0.0015106201,9.0,0.05545973,0.14631322,9.805402,0.0074262284,0.003708616,0.0013122559,0.007920701,9.551306E-4,0.46382278,2017-02-09 18:17:57,59.54949064316529
0.047851563,0.12562561,9.053238,-9.765625E-4,0.0012359619,-0.0015106201,9.0,0.056869593,0.14951558,9.805346,0.026478842,-0.0027962327,0.002617836,0.008098806,9.663754E-4,0.4637338,2017-02-09 18:17:58,59.20905251370173
0.049057007,0.12562561,9.043671,0.0018615723,6.2561035E-4,-0.0025177002,9.0,0.060353644,0.15285861,9.805273,0.010123361,0.012134507,-0.0058689117,0.008332254,8.8769966E-4,0.4636969,2017-02-09 18:17:59,62.58171344411065
0.051452637,0.12802124,9.050858,-0.0011749268,-3.9672852E-4,-0.0017089844,9.0,0.05727422,0.1487091,9.805355,0.0033862852,0.0051777363,0.02576828,0.008071895,9.2942297E-4,0.46377733,2017-02-09 18:18:00,42.45248196142943
0.056228638,0.1268158,9.061615,-1.6784668E-4,-0.0014038086,0.0031738281,9.0,0.058499895,0.14601246,9.805388,-0.015716802,-0.007967934,0.024643898,0.007978929,8.115624E-4,0.46391937,2017-02-09 18:18:01,59.396607600604085
0.07058716,0.13040161,9.058029,-0.0016021729,-0.0014038086,0.0011444092,9.0,0.056241352,0.14820603,9.805369,-0.004089631,0.009091243,-2.670288E-5,0.008024751,9.6410344E-4,0.46376875,2017-02-09 18:18:02,62.66570843563529
0.021530151,0.14237976,9.048462,-0.0011901855,8.239746E-4,0.0017547607,9.0,0.053669017,0.13707425,9.805545,0.0019173734,-0.018835098,-0.001830101,0.007456035,0.0010270084,0.4639687,2017-02-09 18:18:03,58.38322443875499
0.053833008,0.13400269,9.073578,4.4250488E-4,0.0032653809,-9.1552734E-5,9.0,0.056979917,0.14525682,9.805409,0.0059962124,-1.6009808E-4,0.015870094,0.007908851,8.6223293E-4,0.4639074,2017-02-09 18:18:04,60.97684328065492
0.055038452,0.13400269,9.044876,6.4086914E-4,0.002456665,0.0017547607,9.0,0.05084818,0.14349568,9.805469,-0.011074834,0.0014697164,-0.004307747,0.007684375,0.0010966606,0.4638073,2017-02-09 18:18:05,61.20654774699874
0.06341553,0.1483612,9.047256,4.4250488E-4,-3.9672852E-4,-0.0012969971,9.0,0.055977818,0.14684282,9.805391,-0.005013421,0.0056193173,-0.0043935776,0.007956886,9.4419357E-4,0.463816,2017-02-09 18:18:06,62.925416114893935
0.050247192,0.13160706,9.055634,0.0010375977,-0.001449585,6.2561035E-4,9.0,0.059040304,0.14216667,9.805442,0.0065304637,-0.00318712,-0.013132095,0.007817863,6.9766707E-4,0.4640884,2017-02-09 18:18:07,60.442546610802154
0.06341553,0.14356995,9.031708,6.2561035E-4,-0.002456665,0.0028533936,9.0,0.055450626,0.14322965,9.805448,-0.006935768,0.017297253,-8.3065033E-4,0.0077810674,8.836927E-4,0.46394604,2017-02-09 18:18:08,59.53567491614653
0.07896423,0.13998413,9.059219,2.2888184E-4,-0.0012359619,2.1362305E-4,9.0,0.061529502,0.14328013,9.80541,0.005400423,0.0100904405,0.010759354,0.007927042,6.118172E-4,0.4641129,2017-02-09 18:18:09,58.41688920116639
0.044265747,0.13160706,9.044876,-0.0011901855,0.0012054443,-0.0018310547,9.0,0.06296171,0.15100831,9.805285,5.3765625E-4,0.005444333,-0.017944336,0.00831021,7.2750647E-4,0.46384338,2017-02-09 18:18:10,64.20134335325264
0.0657959,0.119644165,9.056839,-0.0014038086,3.8146973E-4,8.239746E-4,9.0,0.063839756,0.14203762,9.805413,-0.01108107,-0.0019082874,-0.020000458,0.007925536,4.7909367E-4,0.46422675,2017-02-09 18:18:11,46.63391344929916
0.052642822,0.11605835,9.043671,-7.9345703E-4,-0.0016479492,4.119873E-4,9.0,0.061759666,0.14313953,9.805411,0.0015607178,-0.0018537939,0.010169983,0.007926131,5.9820234E-4,0.46412492,2017-02-09 18:18:12,49.07394239040044
0.04307556,0.1268158,9.056839,6.4086914E-4,7.9345703E-4,0.0012359619,9.0,0.053996667,0.14207979,9.805472,-0.011584438,-0.01396957,-0.016970634,0.0076947254,9.222088E-4,0.4639517,2017-02-09 18:18:13,54.78013461211653
0.052642822,0.13040161,9.061615,8.392334E-4,-8.392334E-4,-0.0012207031,9.0,0.05573437,0.14120774,9.805475,-0.007194862,0.016775966,-0.018288612,0.0076963673,8.238152E-4,0.46403497,2017-02-09 18:18:14,61.62007857925056
0.061019897,0.13519287,9.056839,4.4250488E-4,-0.0016479492,1.5258789E-5,9.0,0.058103237,0.14536612,9.8054,0.007380478,9.945929E-4,0.0047445297,0.007940337,8.143214E-4,0.4639342,2017-02-09 18:18:15,43.55045955776439
0.039474487,0.119644165,9.048462,4.272461E-4,-2.1362305E-4,2.1362305E-4,9.0,0.06008766,0.1500969,9.805317,-0.0124583505,0.012019783,0.014958382,0.008201102,8.353669E-4,0.4638,2017-02-09 18:18:16,62.51705671260364
0.052642822,0.13998413,9.020935,4.272461E-4,-0.0014343262,0.0012207031,9.0,0.061672017,0.14652058,9.805362,0.011243843,0.0154450685,-0.020127296,0.00807687,6.809242E-4,0.46398714,2017-02-09 18:18:17,58.73635212042667
0.058624268,0.13639832,9.056839,0.0016479492,0.0026245117,-3.9672852E-4,9.0,0.055736784,0.14169067,9.805468,-0.0155519955,0.01638642,-0.010781288,0.007718256,8.349655E-4,0.46401566,2017-02-09 18:18:18,41.18274373295649
0.056228638,0.12322998,9.060425,-0.0021972656,-0.0012359619,2.1362305E-4,9.0,0.061159212,0.14137737,9.805441,0.01175493,-0.00604029,-0.012987137,0.007832295,5.840918E-4,0.46417883,2017-02-09 18:18:19,61.4645756146965
0.056228638,0.13519287,9.047256,0.0020599365,0.0018157959,8.239746E-4,9.0,0.051303387,0.1439728,9.805459,-7.159747E-4,-0.001348108,0.012508392,0.0077167023,0.0010873269,0.46380088,2017-02-09 18:18:20,59.04389929985075
0.052642822,0.14117432,9.035294,3.0517578E-5,-4.272461E-4,0.0020446777,9.0,0.0579304,0.1465623,9.805384,0.013546441,0.001158908,-0.006579399,0.00799033,8.499511E-4,0.46388152,2017-02-09 18:18:21,51.920949394606204
0.035888672,0.15911865,9.055634,0.0012512207,0.0032196045,0.0014343262,9.0,0.053697836,0.14626196,9.805412,0.009028267,-0.0082736015,0.011193275,0.007876771,0.0010330855,0.4637758,2017-02-09 18:18:22,41.38195493161268
0.055038452,0.1268158,9.040085,-0.0014038086,-0.0014343262,0.0028686523,9.0,0.05374776,0.14005955,9.805503,-0.014904942,0.002347082,0.008599281,0.007597509,8.8629115E-4,0.46402574,2017-02-09 18:18:23,57.96381862903444
0.049057007,0.1531372,9.072388,-7.9345703E-4,1.8310547E-4,-0.0010070801,9.0,0.058489166,0.14336023,9.805428,0.011806481,0.0016715974,0.010548592,0.007858782,7.502438E-4,0.4640253,2017-02-09 18:18:24,52.24918116716967
0.047851563,0.12322998,9.047256,2.2888184E-4,-2.1362305E-4,-1.9836426E-4,9.0,0.055382334,0.14787047,9.805379,-0.008063294,-0.0049333572,0.0075387955,0.00798929,9.948766E-4,0.4637583,2017-02-09 18:18:25,62.02256168693837
0.035888672,0.12322998,9.054443,4.272461E-4,-0.0018463135,-8.087158E-4,9.0,0.057876386,0.14817654,9.80536,0.013559017,-0.0016314685,2.975464E-4,0.008062039,8.8997366E-4,0.4638154,2017-02-09 18:18:26,63.02317843002559
0.050247192,0.13400269,9.047256,-0.0016021729,0.0022125244,8.239746E-4,9.0,0.05211062,0.14438234,9.805449,9.44674E-4,-0.0076787323,-0.005850792,0.0077542868,0.0010606027,0.46380693,2017-02-09 18:18:27,58.856411722035205
0.050247192,0.122039795,9.016159,6.4086914E-4,-2.1362305E-4,0.0022583008,9.0,0.05218987,0.14583236,9.805427,-0.0074913166,-0.013768911,0.004034996,0.007821733,0.0010908238,0.46375105,2017-02-09 18:18:28,62.47240018072922
0.04547119,0.15194702,9.069992,-7.9345703E-4,-1.5258789E-5,0.0014343262,9.0,0.05484253,0.14545743,9.805418,0.010360997,0.0068130195,0.006593704,0.007867427,9.629205E-4,0.4638399,2017-02-09 18:18:29,64.90432222098812
0.037094116,0.114852905,9.067596,-0.0018005371,-1.5258789E-5,0.0018463135,9.0,0.06250698,0.14510281,9.805378,-0.0050312616,-0.014239624,0.004799843,0.00803253,6.1039266E-4,0.46406707,2017-02-09 18:18:30,64.71295710719079
0.034698486,0.112457275,9.048462,-0.0013885498,-0.0010375977,6.2561035E-4,9.0,0.05578035,0.14427522,9.805429,-0.01320995,0.007985041,-0.008320808,0.0078361295,8.932468E-4,0.46391335,2017-02-09 18:18:31,61.141064368437064
0.029907227,0.1375885,9.030518,0.0018615723,3.9672852E-4,-0.0026397705,9.0,0.056478728,0.13822764,9.805513,-0.010240659,0.004069671,0.0036830902,0.007579262,7.208797E-4,0.46417508,2017-02-09 18:18:32,62.1443085958561
0.07417297,0.14596558,9.056839,3.0517578E-5,-6.2561035E-4,6.2561035E-4,9.0,0.048440684,0.14216602,9.8055,0.018731255,0.0064469725,-0.0026359558,0.007567391,0.001173843,0.46379355,2017-02-09 18:18:33,63.008611399102385
0.044265747,0.13877869,9.060425,6.4086914E-4,-0.0018463135,0.0010223389,9.0,0.053131208,0.13979699,9.80551,-0.00477124,0.00975427,0.010514259,0.007571068,9.078682E-4,0.46401912,2017-02-09 18:18:34,41.32751835180318
0.044265747,0.13279724,9.050858,0.0010528564,-0.0010375977,8.239746E-4,9.0,0.05968221,0.14418446,9.8054085,0.011916816,0.010492891,0.0020093918,0.00792424,7.158645E-4,0.4640254,2017-02-09 18:18:35,46.32206011191027
0.046661377,0.14955139,9.041275,0.0012512207,-2.1362305E-4,-5.950928E-4,9.0,0.057464417,0.14283437,9.805441,-0.01357333,-0.0014548004,0.021762848,0.00781079,7.8401796E-4,0.46401787,2017-02-09 18:18:36,48.26034828483501
0.04307556,0.122039795,9.085541,-7.9345703E-4,-1.5258789E-5,-3.9672852E-4,9.0,0.05809233,0.14262193,9.805441,0.002611719,0.009539917,0.012786865,0.00781603,7.5086096E-4,0.46404383,2017-02-09 18:18:37,57.557172127717976
0.06460571,0.13639832,9.037689,3.0517578E-5,0.0022125244,0.0014343262,9.0,0.061306033,0.14248489,9.805424,-0.0015286095,-0.0046549737,0.0033960342,0.007885818,6.033172E-4,0.46413857,2017-02-09 18:18:38,61.875474404055105
0.059814453,0.14476013,9.037689,0.0030822754,-8.392334E-4,0.0030670166,9.0,0.061675906,0.14650324,9.805362,-0.016254827,0.0047428906,0.013596535,0.008076178,6.803455E-4,0.46398795,2017-02-09 18:18:39,58.952830597211836
0.056228638,0.14356995,9.04248,0.0016479492,5.950928E-4,-0.0014190674,9.0,0.049858782,0.15187286,9.805347,-0.0053444095,9.813905E-4,-0.027926445,0.008039955,0.0013361867,0.46344417,2017-02-09 18:18:40,63.50706874229593
0.051452637,0.14117432,9.052048,0.0016479492,-2.1362305E-4,0.0010223389,9.0,0.05693104,0.14383548,9.805429,-0.005907133,-0.0024120063,-0.004404068,0.00784344,8.313096E-4,0.46396294,2017-02-09 18:18:41,60.815121055733286
0.04547119,0.1531372,9.041275,-7.9345703E-4,-0.0020446777,1.5258789E-5,9.0,0.057454124,0.14076349,9.805471,0.016357735,0.007641554,0.0024433136,0.00771694,7.362031E-4,0.46410054,2017-02-09 18:18:42,60.752992562340246
0.06819153,0.1268158,9.054443,-1.8310547E-4,-8.239746E-4,-0.0012207031,9.0,0.062313203,0.14643523,9.805359,0.0106790885,-0.008337706,0.0045137405,0.008088169,6.501389E-4,0.46400836,2017-02-09 18:18:43,60.029510027618365
0.051452637,0.16749573,9.025726,2.2888184E-4,-4.119873E-4,-8.087158E-4,9.0,0.06758289,0.14649081,9.805324,0.014211781,0.014388457,-0.015386581,0.008215297,4.1478305E-4,0.46415228,2017-02-09 18:18:44,49.98142537037062
0.059814453,0.15194702,9.04248,-5.79834E-4,-6.2561035E-4,0.0014343262,9.0,0.06479684,0.14419338,9.805376,-0.007091813,0.0070557594,-0.01121521,0.008045585,4.863612E-4,0.464167,2017-02-09 18:18:45,62.8694863211562
0.061019897,0.14356995,9.037689,-3.8146973E-4,3.9672852E-4,-5.950928E-4,9.0,0.061692055,0.15091857,9.805295,0.010067172,-0.00648202,-0.022163391,0.008276153,7.824379E-4,0.4638117,2017-02-09 18:18:46,41.41255381814619
0.057434082,0.13400269,9.04248,-3.8146973E-4,-0.0018463135,0.0016326904,9.0,0.061230417,0.1402674,9.805456,-0.0014697276,0.00215742,-0.010340691,0.0077838213,5.5501156E-4,0.46422526,2017-02-09 18:18:47,64.75738990707126
0.055038452,0.1268158,9.035294,-1.6784668E-4,-0.0028686523,6.2561035E-4,9.0,0.06073232,0.14956275,9.805322,-0.009383507,-0.009997964,0.009501457,0.0081921825,7.9397735E-4,0.4638393,2017-02-09 18:18:48,62.60185528899826
0.061019897,0.14476013,9.036499,-0.0011901855,-0.0020446777,0.0,9.0,0.062217727,0.14853598,9.805328,-0.0023832954,-0.015046462,-0.0058250427,0.008180867,7.0335664E-4,0.46392164,2017-02-09 18:18:49,54.92600955537022
0.06460571,0.124420166,9.064011,8.392334E-4,-0.0012359619,0.0020446777,9.0,0.06067595,0.1470197,9.80536,2.555251E-4,0.0019639134,-0.0052871704,0.008075888,7.372872E-4,0.4639395,2017-02-09 18:18:50,63.770020742949065
0.059814453,0.11605835,9.065201,8.392334E-4,3.9672852E-4,-6.1035156E-4,9.0,0.06392278,0.14750743,9.805332,0.0020839348,0.0027787834,-0.0038881302,0.008174682,6.0282816E-4,0.46401012,2017-02-09 18:18:51,57.51046083045911
0.041870117,0.12562561,9.041275,6.4086914E-4,-0.0020446777,-3.9672852E-4,9.0,0.06028942,0.1486985,9.805338,-0.0054152273,0.0038879067,0.010007858,0.0081426455,7.9374574E-4,0.46386155,2017-02-09 18:18:52,40.887283341723204
0.04067993,0.12562561,9.047256,-0.002609253,0.0012054443,1.5258789E-5,9.0,0.06506093,0.14499232,9.805363,-0.0026362613,-0.0022634417,8.583069E-6,0.008087933,4.9312005E-4,0.46414232,2017-02-09 18:18:53,58.404313875114084
0.041870117,0.122039795,9.020935,-0.002609253,5.950928E-4,0.0010223389,9.0,0.06234411,0.1395309,9.805459,-0.0013035946,0.011222586,-0.024112701,0.0077768886,4.878138E-4,0.46428567,2017-02-09 18:18:54,61.724047622529774
0.044265747,0.13998413,9.058029,-0.0016021729,-0.0036773682,0.0010223389,9.0,0.05851156,0.14001065,9.805476,-0.013308015,0.0072120875,-0.013297081,0.0077079157,6.7114824E-4,0.46416008,2017-02-09 18:18:55,61.91860124697559
0.049057007,0.12083435,9.047256,0.0020599365,0.0014038086,-0.0024414063,9.0,0.054751765,0.1466731,9.805401,0.009278342,0.0129813105,0.015979767,0.007920252,9.953162E-4,0.4637887,2017-02-09 18:18:56,44.98652971410184
0.056228638,0.13519287,9.048462,4.272461E-4,-0.0022583008,-0.0026397705,9.0,0.058842793,0.14509532,9.8054,0.004335683,0.0037230104,0.019906998,0.007945573,7.74793E-4,0.46396562,2017-02-09 18:18:57,46.030475887156896
0.056228638,0.13877869,9.054443,-0.0020141602,-1.5258789E-5,0.0028533936,9.0,0.06393024,0.14920928,9.805306,-0.002760157,0.011875153,-0.01211834,0.008251778,6.421267E-4,0.46394223,2017-02-09 18:18:58,57.34066802596946
0.058624268,0.13877869,9.046066,0.0016479492,0.0010070801,0.0022583008,9.0,0.06722648,0.14795282,9.805304,0.0049736574,-0.0025085658,-0.01053524,0.008272929,4.648444E-4,0.4640839,2017-02-09 18:18:59,59.80427777005781
0.053833008,0.13998413,9.04248,0.0012512207,-1.5258789E-5,0.002456665,9.0,0.060658317,0.14618582,9.805373,-0.0021349825,-0.0032751262,0.0012769699,0.008037777,7.1865413E-4,0.4639724,2017-02-09 18:19:00,44.71692197241776
0.061019897,0.15194702,9.068802,-9.918213E-4,0.0020141602,0.0026550293,9.0,0.062153902,0.1499923,9.805306,-0.008333717,-0.012871996,-0.0030164719,0.008245192,7.4013276E-4,0.46386158,2017-02-09 18:19:01,65.13633089737553
0.052642822,0.13160706,9.0759735,-3.8146973E-4,-2.1362305E-4,0.0020446777,9.0,0.060109764,0.14263882,9.8054285,-0.002862364,-1.05232E-4,0.021668434,0.007864487,6.6063623E-4,0.46409917,2017-02-09 18:19:02,54.426885956817884
0.06819153,0.14117432,9.041275,2.2888184E-4,0.0026245117,-1.9836426E-4,9.0,0.060693603,0.14090842,9.8054495,0.0025842674,-0.0056842864,-0.017130852,0.007800092,5.9407065E-4,0.4641847,2017-02-09 18:19:03,57.388662152176295
0.062210083,0.14715576,9.050858,-1.8310547E-4,-0.0010375977,-0.0028533936,9.0,0.054312564,0.1412933,9.805482,0.0073005445,0.011958137,-1.5068054E-4,0.007666633,8.896829E-4,0.463992,2017-02-09 18:19:04,61.956539771876294
0.057434082,0.15434265,9.079559,-1.6784668E-4,-8.392334E-4,6.1035156E-4,9.0,0.051635507,0.13891044,9.805531,0.02170315,0.008091837,0.022550583,0.0074956417,9.5439283E-4,0.46401304,2017-02-09 18:19:05,55.51946164268372
0.050247192,0.117248535,9.072388,-9.460449E-4,-0.002166748,-2.89917E-4,9.0,0.055999834,0.14105251,9.805475,-0.026595674,1.1177361E-4,-0.0040540695,0.0076956255,8.082709E-4,0.46404856,2017-02-09 18:19:06,49.55552402968529
0.04307556,0.12562561,9.050858,-0.0023498535,-0.0050201416,0.0035858154,9.0,0.05940404,0.13695379,9.805514,-0.011782609,-0.008034736,0.002878189,0.0075908843,5.597532E-4,0.46430737,2017-02-09 18:19:07,41.12041102768201
0.058624268,0.12802124,9.049652,-3.3569336E-4,6.1035156E-5,5.340576E-4,9.0,0.058643084,0.14449805,9.80541,0.004475046,5.776286E-4,0.004014969,0.007913853,7.698464E-4,0.46398398,2017-02-09 18:19:08,36.94661675477959
0.06819153,0.14715576,9.067596,-7.324219E-4,0.0014953613,7.324219E-4,9.0,0.06352487,0.1392072,9.805456,-0.0048210546,-0.014870673,-0.0171175,0.0077902023,4.2723192E-4,0.4643314,2017-02-09 18:19:09,65.7172887477393
0.06819153,0.1483612,9.058029,-0.0021514893,-0.0029907227,0.0035858154,9.0,0.06187223,0.14275873,9.805416,-0.008080151,9.63822E-4,-0.01013279,0.007911583,5.842705E-4,0.4641433,2017-02-09 18:19:10,57.77823611484531
0.044265747,0.13519287,9.044876,-9.460449E-4,0.0030975342,0.0015563965,9.0,0.06285707,0.14421575,9.805388,-0.013758086,0.0020662248,-0.0065517426,0.008000718,5.739983E-4,0.46411228,2017-02-09 18:19:11,42.41979511153667
0.046661377,0.13279724,9.06282,-0.0025634766,0.0035095215,-6.866455E-4,9.0,0.061622445,0.13683811,9.805502,0.014901936,-0.0114439875,-0.011247635,0.0076381485,4.5740866E-4,0.46437356,2017-02-09 18:19:12,43.3127465922737
0.06460571,0.14955139,9.031708,-9.460449E-4,-7.4768066E-4,0.0011444092,9.0,0.060486056,0.14917105,9.805328,0.002771575,-0.002551362,0.01098156,0.008168656,7.959179E-4,0.4638481,2017-02-09 18:19:13,41.6206505924666
0.057434082,0.14715576,9.059219,-0.0023498535,-7.4768066E-4,0.0011444092,9.0,0.061095636,0.14747521,9.805351,-0.009735502,0.0014553368,0.012771606,0.008106397,7.290474E-4,0.46393293,2017-02-09 18:19:14,45.17092069577821
0.051452637,0.112457275,9.059219,-0.0013427734,0.001083374,5.340576E-4,9.0,0.06258971,0.1503514,9.805298,-0.01230564,-0.0071829706,0.009112358,0.008271724,7.289207E-4,0.46385932,2017-02-09 18:19:15,51.63076270075354
0.052642822,0.14117432,9.059219,0.002319336,-0.0025787354,0.0017547607,9.0,0.050730664,0.14865722,9.805392,0.0034149326,0.017109022,-0.017791748,0.007915053,0.0012221679,0.46359724,2017-02-09 18:19:16,59.19296836016167
0.051452637,0.12921143,9.036499,-9.460449E-4,-7.4768066E-4,-7.6293945E-5,9.0,0.0566126,0.1428018,9.805447,0.008716259,0.012827411,0.025226593,0.0077891853,8.21523E-4,0.46399552,2017-02-09 18:19:17,50.40074354470587
0.047851563,0.13040161,9.052048,-9.460449E-4,-0.0019683838,-2.746582E-4,9.0,0.055352353,0.14596175,9.805408,-0.024794895,-0.0067702383,-0.0053596497,0.007902273,9.517668E-4,0.4638339,2017-02-09 18:19:18,41.25510000839256
0.039474487,0.12921143,9.049652,-0.0011444092,6.713867E-4,0.0013427734,9.0,0.0565287,0.14897172,9.805356,0.025595915,0.010854647,-0.005839348,0.008066162,9.6902536E-4,0.46374607,2017-02-09 18:19:19,52.94657680448532
0.04307556,0.117248535,9.030518,-0.0025634766,0.0022888184,0.0017547607,9.0,0.061446626,0.14430079,9.805396,0.009079721,0.018755183,-0.02361393,0.00797121,6.3932687E-4,0.46406975,2017-02-09 18:19:20,64.60280621671757
0.053833008,0.14476013,9.050858,-0.001953125,8.8500977E-4,0.0033874512,9.0,0.050553318,0.13951689,9.805528,-0.0011904165,-0.0151138455,-0.010590553,0.0074974913,0.0010171584,0.46395862,2017-02-09 18:19:21,52.295745776998466
0.034698486,0.1531372,9.0711975,-3.3569336E-4,-0.0017700195,-4.8828125E-4,9.0,0.055741485,0.14883554,9.805363,0.0047735684,-9.920597E-4,0.0018892288,0.008041413,0.0010012157,0.46372965,2017-02-09 18:19:22,62.09104978518709
0.058624268,0.15553284,9.069992,0.0016937256,-0.002166748,0.0035858154,9.0,0.053127278,0.14669757,9.805409,-0.0047541186,-0.013316199,0.008306503,0.0078829955,0.0010688636,0.4637425,2017-02-09 18:19:23,46.737250272320914
0.047851563,0.13160706,9.0269165,0.002105713,0.0014953613,-6.866455E-4,9.0,0.061064214,0.14911315,9.805326,0.008268759,-0.00477238,-0.006166458,0.008179699,7.686028E-4,0.4638665,2017-02-09 18:19:24,53.9060883707078
0.0765686,0.1268158,9.043671,6.866455E-4,-5.493164E-4,-0.0019073486,9.0,0.066200055,0.14821512,9.805306,0.01066374,0.012724325,0.0061092377,0.008260509,5.170447E-4,0.46404496,2017-02-09 18:19:25,48.12462765163807
0.037094116,0.12921143,9.016159,-1.2207031E-4,0.002090454,7.324219E-4,9.0,0.06125774,0.14387284,9.805404,0.0021019392,-0.009521052,-0.01331234,0.007947403,6.3783734E-4,0.46408165,2017-02-09 18:19:26,58.610491914205284
0.058624268,0.16870117,9.044876,-5.340576E-4,-0.0025787354,0.0031738281,9.0,0.053202167,0.1426652,9.805469,-0.006038651,0.0034897923,-0.003572464,0.007702423,9.7154756E-4,0.46390614,2017-02-09 18:19:27,42.139032933295795
0.051452637,0.13998413,9.032898,0.0019073486,0.001876831,0.0015563965,9.0,0.059951663,0.1446884,9.8054,-0.0074378885,-6.392896E-4,0.005590439,0.007953388,7.15505E-4,0.4640127,2017-02-09 18:19:28,60.57411768000671
0.058624268,0.114852905,9.043671,0.0025177002,6.1035156E-5,9.3078613E-4,9.0,0.059024442,0.14907098,9.805339,0.005340237,-0.011953399,0.014570236,0.0081296,8.59235E-4,0.46381152,2017-02-09 18:19:29,54.60025918353948
0.04547119,0.117248535,9.056839,-7.324219E-4,0.001083374,0.0011444092,9.0,0.05473237,0.14127944,9.80548,-0.005058963,-0.013183817,0.0041999817,0.007675927,8.7050017E-4,0.46400422,2017-02-09 18:19:30,50.65399219093316
0.049057007,0.1375885,9.032898,-1.373291E-4,-0.0027923584,-0.0027313232,9.0,0.054002415,0.1428978,9.80546,-0.0020103045,0.004456982,0.0055770874,0.007731846,9.410173E-4,0.46391907,2017-02-09 18:19:31,65.70988461693582
0.049057007,0.14715576,9.018555,-0.003982544,-9.613037E-4,1.373291E-4,9.0,0.060681798,0.1450677,9.805389,0.012192443,0.018073946,0.0069093704,0.007987793,6.915494E-4,0.4640178,2017-02-09 18:19:32,54.699012705561216
0.059814453,0.13040161,9.064011,-0.0011444092,-1.373291E-4,0.0013580322,9.0,0.050956573,0.15034209,9.805366,-0.014689356,0.010905743,-0.01918888,0.007996602,0.0012512413,0.46353605,2017-02-09 18:19:33,62.28784083293875
0.047851563,0.12322998,9.049652,-0.002960205,-0.0037994385,-0.0021209717,9.0,0.05890981,0.14132532,9.805455,0.009069309,-0.004751608,0.010987282,0.0077767503,6.83914E-4,0.46411848,2017-02-09 18:19:34,61.23574935006411
0.04307556,0.1268158,9.049652,-5.340576E-4,0.0016937256,5.340576E-4,9.0,0.05748371,0.14414784,9.805422,0.011554025,0.0033643395,0.0050239563,0.007870622,8.137629E-4,0.4639658,2017-02-09 18:19:35,41.68549103258674
0.055038452,0.12562561,9.052048,4.8828125E-4,0.001083374,7.4768066E-4,0.0,0.05751724,0.1399814,9.805483,0.025873605,0.011966094,0.022740364,0.0076830825,7.151309E-4,0.46413365,2017-02-09 18:19:36,61.735536195296
0.058624268,0.13877869,9.044876,2.746582E-4,-1.373291E-4,7.324219E-4,9.0,0.05197288,0.13755797,9.805548,-0.009715069,0.0021702498,0.0021505356,0.00744247,9.076888E-4,0.46407667,2017-02-09 18:19:37,49.70310693203179
0.055038452,0.13400269,9.019745,-3.3569336E-4,0.00289917,-0.0015106201,9.0,0.05862009,0.13629179,9.805528,-0.0038502105,-0.0037367344,0.004231453,0.0075424253,5.795213E-4,0.46431214,2017-02-09 18:19:38,43.60742396704196
0.052642822,0.13998413,9.053238,-0.0025634766,-0.0027923584,7.324219E-4,9.0,0.061112847,0.14406717,9.805401,-0.0037969314,0.006933287,-0.00237751,0.007952761,6.4887386E-4,0.46406984,2017-02-09 18:19:39,60.28805348899986
0.053833008,0.14117432,9.068802,-7.324219E-4,6.1035156E-5,-9.0026855E-4,9.0,0.06121938,0.14327869,9.805412,-0.0020202473,0.008514687,0.014175415,0.007919644,6.257124E-4,0.46410435,2017-02-09 18:19:40,42.69842188552718
0.047851563,0.14356995,9.060425,0.0012969971,-0.0037994385,-0.0017089844,9.0,0.059981793,0.14182383,9.805441,0.0056836866,-0.0040237904,-0.0047359467,0.007824629,6.473855E-4,0.4641283,2017-02-09 18:19:41,60.50154993578053
0.037094116,0.124420166,9.0711975,0.002105713,-0.0015563965,-0.0010986328,9.0,0.05865789,0.15214182,9.805294,-0.0038488582,-0.00990811,-0.013422012,0.008259797,9.4718166E-4,0.46367842,2017-02-09 18:19:42,61.774655293067944
0.055038452,0.13040161,9.031708,-9.460449E-4,-1.373291E-4,-4.8828125E-4,9.0,0.057156056,0.1445723,9.805418,0.010652594,0.013695553,2.9277802E-4,0.007882067,8.3837175E-4,0.4639397,2017-02-09 18:19:43,58.95073919590375
0.08015442,0.13160706,9.06282,6.713867E-4,0.0014953613,-2.746582E-4,9.0,0.059092753,0.14473164,9.805404,-0.017459221,-0.016365036,0.007051468,0.007935041,7.5509166E-4,0.4639871,2017-02-09 18:19:44,62.77911657431258
0.021530151,0.12562561,9.028122,-7.324219E-4,-0.0033874512,7.324219E-4,9.0,0.060850926,0.14847717,9.805337,-0.008317858,-0.017410055,0.014227867,0.008145909,7.633728E-4,0.46388602,2017-02-09 18:19:45,48.6394647500057
0.057434082,0.14237976,9.067596,4.7302246E-4,2.746582E-4,-7.6293945E-5,9.0,0.05767082,0.14654711,9.805386,-0.0053782426,0.0035166293,-0.011414528,0.007983511,8.6125714E-4,0.4638749,2017-02-09 18:19:46,58.358488501178265
0.061019897,0.13040161,9.056839,8.8500977E-4,4.7302246E-4,0.0025634766,9.0,0.064027324,0.14352424,9.80539,7.049069E-4,-0.004479274,-0.018159866,0.007997148,5.0532457E-4,0.46417242,2017-02-09 18:19:47,43.57244443322443
0.0657959,0.14356995,9.052048,0.0014953613,-7.4768066E-4,-0.002319336,9.0,0.059714977,0.14497231,9.805397,-0.031201337,0.0025641173,0.005973816,0.007960626,7.3275145E-4,0.46399477,2017-02-09 18:19:48,48.88729598178624
0.041870117,0.124420166,9.038895,6.866455E-4,0.0022888184,-2.746582E-4,9.0,0.06302539,0.1472712,9.805342,-0.016328257,-0.01157175,-0.015470505,0.00814279,6.376271E-4,0.46399465,2017-02-09 18:19:49,48.87103850631196
0.058624268,0.13639832,9.034103,-0.0011444092,-0.002166748,-4.8828125E-4,9.0,0.059299216,0.14943203,9.805332,0.0026746467,-0.013571769,-0.015769005,0.008152415,8.553001E-4,0.4638047,2017-02-09 18:19:50,45.101175985044186
0.06341553,0.119644165,9.0711975,-0.0015563965,-0.0019683838,0.0013427734,9.0,0.053817715,0.14503025,9.805429,-0.0054965913,-0.014457479,0.022589684,0.007823904,9.990063E-4,0.4638285,2017-02-09 18:19:51,59.56577270675321
0.061019897,0.1268158,9.06282,-3.3569336E-4,-0.002380371,-0.0012969971,9.0,0.060861655,0.13988869,9.805464,-0.0143578015,-0.008403838,-0.005681038,0.007757985,5.62743E-4,0.4642302,2017-02-09 18:19:52,45.366806233098046
0.06939697,0.14356995,9.053238,-0.0013580322,-0.0019683838,1.2207031E-4,9.0,0.0641304,0.1422436,9.8054085,0.0077647753,0.01935269,-0.007498741,0.007941719,4.7084253E-4,0.46422657,2017-02-09 18:19:53,57.32648601824805
0.029907227,0.10647583,9.044876,2.746582E-4,-0.0025787354,-0.0010986328,9.0,0.05139155,0.14342667,9.805467,-0.004413672,-0.01289168,-0.0016880035,0.007694087,0.0010706397,0.46382523,2017-02-09 18:19:54,62.18323285158918
0.04547119,0.12802124,9.066406,-0.0017547607,-0.0039978027,-2.89917E-4,9.0,0.05074229,0.13940091,9.805529,-0.007397823,-0.0055391937,0.02666378,0.007496712,0.0010059632,0.46396852,2017-02-09 18:19:55,52.64664494714814
0.051452637,0.12562561,9.084351,0.0012969971,8.8500977E-4,0.0029754639,9.0,0.05655113,0.12690185,9.805666,2.575256E-4,-0.0098723695,0.002207756,0.007069229,4.5318084E-4,0.4646314,2017-02-09 18:19:56,61.14888013623365
0.055038452,0.13279724,9.066406,-0.0023498535,-0.0019683838,0.001953125,9.0,0.051331833,0.12265586,9.805749,-0.00694263,0.008247122,0.008701324,0.006753847,5.884226E-4,0.46465704,2017-02-09 18:19:57,45.61508368826288
0.051452637,0.12083435,9.072388,-3.3569336E-4,8.69751E-4,0.0029754639,9.0,0.04602477,0.12709074,9.805719,0.0028317124,-0.0028898492,0.008255005,0.0068286858,9.305897E-4,0.4643313,2017-02-09 18:19:58,55.995284899609
0.039474487,0.13279724,9.056839,-1.2207031E-4,0.0033111572,0.003189087,9.0,0.042095866,0.13322695,9.805655,-0.0030708238,-0.0048621,-0.017050743,0.007013274,0.0012504741,0.46397534,2017-02-09 18:19:59,54.394791152180346
0.059814453,0.13519287,9.073578,-5.340576E-4,0.00289917,0.003982544,9.0,0.05177024,0.13975704,9.805518,-0.002425246,-0.0036738515,0.011358261,0.0075371014,9.680821E-4,0.46398285,2017-02-09 18:20:00,59.636915716722456
0.047851563,0.117248535,9.0711975,-7.324219E-4,-0.0036010742,1.2207031E-4,9.0,0.05794914,0.13604894,9.805535,0.022962451,-2.271682E-4,-0.012631416,0.007515579,6.039943E-4,0.46430326,2017-02-09 18:20:01,62.726230724268206
0.053833008,0.110076904,9.064011,7.6293945E-5,-0.0033874512,0.001953125,9.0,0.05295357,0.14290734,9.805466,0.0024981312,-0.0017133355,-0.021284103,0.0077074985,9.883593E-4,0.4638895,2017-02-09 18:20:02,57.37374397539618
0.032302856,0.13400269,9.050858,-0.0013427734,-0.0025787354,3.2043457E-4,9.0,0.060418557,0.13631023,9.805516,-0.00201153,0.021164969,-0.012327194,0.007585811,4.99166E-4,0.4643613,2017-02-09 18:20:03,62.623255409997114
