ACC_X,ACC_Y,ACC_Z,GYRO_X,GYRO_Y,GYRO_Z,LIGH_1,GRAV_X,GRAV_Y,GRAV_Z,LINACC_X,LINACC_Y,LINACC_Z,ROTVEC_X,ROTVEC_Y,ROTVEC_Z,TIME,VOICE
9.182362,1.1683705,2.1242554,0.13957977,0.81512994,1.078692,0.0,0.0,0.0,0.0,0.0,0.0,0.0,0.0,0.0,0.0,2017-05-27 13:01:26,71.95720676988631
7.1664443,-4.656722,4.681263,-0.649011,-0.76630867,0.4827259,0.0,9.615864,-0.93544215,1.6824156,-2.4494195,-3.7212799,2.9988475,0.16553448,-0.62194777,0.26753944,2017-05-27 13:01:27,46.609469400887406
5.847239,-7.941567,0.7787141,0.12680908,0.079750374,-0.056836274,2.0,8.684144,-4.1998715,-1.7655358,-2.7674732,-3.7225418,2.5945282,-0.009111691,-0.7680718,0.27191713,2017-05-27 13:01:28,76.56508786832524
5.667674,-8.571242,1.027711,0.10765302,0.019089539,-0.05045092,2.0,8.386934,-4.897381,-1.3584498,-2.7192602,-3.6738615,2.3861609,-0.04535239,-0.75313,0.29628012,2017-05-27 13:01:29,81.06251965163607
5.7538652,-8.020576,0.6063316,0.091689646,0.018025314,-0.04619402,0.0,8.058589,-5.490309,-1.0421414,-2.3047237,-2.5302668,1.648473,-0.06367847,-0.740999,0.32770053,2017-05-27 13:01:30,77.06266999531462
5.7442884,-8.034941,0.7811083,0.12255217,0.012704188,-0.036615998,2.0,7.575742,-6.1957035,-0.62595,-1.8314533,-1.8392372,1.4070582,-0.0842466,-0.7244426,0.3690548,2017-05-27 13:01:31,82.51044729925881
5.775413,-8.051701,0.87448215,0.10233189,0.025474891,-0.03342332,2.0,6.9999847,-6.865569,-0.18591183,-1.2245717,-1.1861315,1.060394,-0.104288034,-0.70611817,0.41209537,2017-05-27 13:01:32,48.82826342672557
5.811326,-8.056489,0.7978677,0.098074995,0.012704188,-0.054707825,0.0,6.40459,-7.4221177,0.25259495,-0.5932641,-0.6343713,0.54527277,-0.11951714,-0.68763137,0.4540713,2017-05-27 13:01:33,82.36469024005169
5.9717374,-7.896077,0.86969376,0.086368516,0.032924466,-0.05045092,2.0,6.0792775,-7.6622334,0.70920855,-0.10754013,-0.2338438,0.16048521,-0.12653798,-0.66919994,0.4790695,2017-05-27 13:01:34,70.21597440378842
5.868787,-7.8410106,0.7691373,0.09062542,0.029731791,-0.039808672,2.0,5.6731257,-7.939205,0.97727,0.19566107,0.0981946,-0.20813268,-0.12900254,-0.65843105,0.50916046,2017-05-27 13:01:35,46.991069121852235
5.9358244,-7.85777,1.0923545,0.101267666,0.0031261616,-0.036615998,0.0,5.4088597,-8.0981045,1.1555676,0.52696466,0.24033451,-0.06321311,-0.12935746,-0.65142083,0.5289046,2017-05-27 13:01:36,66.01523393590712
5.8185086,-7.9846625,0.7906851,0.091689646,0.02760334,-0.052579373,0.0,5.1509013,-8.25282,1.2367707,0.6676073,0.26815748,-0.44608563,-0.12952282,-0.6482022,0.54637134,2017-05-27 13:01:37,82.77652633584356
4.073136,-8.808268,2.2104468,0.21513976,0.09571375,0.061292715,2.0,3.2832036,-9.011449,2.045672,0.78993225,0.20318127,0.1647749,-0.21828674,-0.5899582,0.5926699,2017-05-27 13:01:38,69.06635538236128
3.3022027,-6.375759,-3.4063504,-2.6635892,0.65230346,0.3826887,2.0,3.090167,-8.75867,-3.1475294,0.21203566,2.3829107,-0.258821,-0.35073265,-0.7331207,0.4120168,2017-05-27 13:01:40,50.235315310819644
5.310938,-5.7365074,-4.8261123,-0.14776102,0.6703953,0.08683412,2.0,4.4691415,-6.8677874,-5.388015,0.36774445,0.056283474,0.18601322,-0.48281974,-0.735933,0.19062229,2017-05-27 13:01:41,80.59197179714434
5.6102133,-6.136339,-5.501277,0.049120635,0.051016293,-0.021716844,2.0,4.876917,-6.691315,-5.254751,0.7332964,0.554976,-0.24652576,-0.48995018,-0.72654426,0.16413414,2017-05-27 13:01:42,80.41681918596544
5.5503583,-6.471527,-4.7925935,0.008680083,-0.09584677,-0.12388246,2.0,5.067758,-6.917325,-4.7580285,0.4826002,0.44579792,-0.034564972,-0.4893161,-0.7093389,0.16663547,2017-05-27 13:01:43,82.50755945810735
5.217564,-6.5864487,-5.8029466,-0.034953147,-0.42469233,-0.09940528,0.0,4.6375203,-7.030939,-5.0229197,0.5800438,0.44449043,-0.7800269,-0.47994208,-0.7250884,0.19368811,2017-05-27 13:01:44,81.61859633795413
4.6501384,-6.5146227,-6.2434793,0.15022203,0.085071504,-0.069606975,2.0,4.662058,-6.8070874,-5.300864,-0.011919498,0.29246473,-0.94261503,-0.4861541,-0.7307004,0.17921296,2017-05-27 13:01:45,52.640197181718506
5.7921724,-6.8929067,-4.5005007,0.039542608,0.2745036,-0.040872894,2.0,5.1637607,-7.0541005,-4.44361,0.62841177,0.16119385,-0.056890488,-0.4801979,-0.7042521,0.17461002,2017-05-27 13:01:46,81.51377671015106
5.689222,-6.7444663,-4.2730513,0.091689646,0.016961088,-0.04619402,2.0,5.439802,-6.9808245,-4.2245784,0.24941969,0.23635817,-0.04847288,-0.4717322,-0.7020415,0.16639306,2017-05-27 13:01:47,80.96117742373187
5.832874,-6.7444663,-4.3041763,0.11935949,0.030796016,-0.04193712,2.0,5.59652,-6.8543954,-4.226896,0.23635387,0.109929085,-0.07728052,-0.46471086,-0.7067924,0.15989338,2017-05-27 13:01:48,77.34718696521456
5.3037553,-7.2783732,-4.1940427,0.12468062,0.041438267,-0.047258247,2.0,5.1250677,-7.3040853,-4.0687156,0.16192818,0.028106213,-0.1684227,-0.47804862,-0.69203776,0.1877191,2017-05-27 13:01:49,75.77722553330416
5.370793,-7.2664022,-4.1796775,0.12680908,0.023346439,-0.05045092,2.0,5.2431726,-7.2641664,-3.9889174,0.12762022,-0.0022358894,-0.19076014,-0.47191423,-0.6933074,0.18570982,2017-05-27 13:01:50,77.45809255576623
5.275025,-7.3789296,-3.9354692,0.13851555,0.010575738,-0.027037969,2.0,5.2914095,-7.323472,-3.8128927,-0.016384602,-0.055457592,-0.122576475,-0.46865892,-0.68902993,0.18842225,2017-05-27 13:01:51,68.76641742131656
5.2606597,-7.3885064,-3.8253357,0.10552457,0.026539115,-0.03342332,2.0,5.154723,-7.3445454,-3.9568803,0.0053801537,0.018288136,-0.11984658,-0.47229633,-0.6918677,0.19231233,2017-05-27 13:01:52,72.9709041664747
5.1624975,-7.3310456,-4.0096893,0.14915779,0.022282215,-0.07279965,2.0,5.185699,-7.3432026,-3.9187138,-0.023201466,0.012156963,-0.09097552,-0.4714159,-0.6910614,0.19161479,2017-05-27 13:01:53,78.84501646013334
5.09546,-7.4363904,-3.899556,0.05444176,0.038245592,-0.118561335,2.0,5.2148676,-7.364125,-3.8399518,-0.119407654,-0.072265625,-0.059604168,-0.46836174,-0.6902321,0.19349219,2017-05-27 13:01:54,64.34394223716838
5.442619,-7.275979,-3.839701,0.15980005,-0.047956645,0.052778915,2.0,5.4472103,-7.183755,-3.8590107,-0.004591465,-0.09222412,0.01930976,-0.4617203,-0.69539136,0.18150848,2017-05-27 13:01:55,80.01907196625126
5.478532,-7.1634517,-3.887585,0.13957977,0.008447288,-0.04193712,2.0,5.4535713,-7.1914587,-3.8356113,0.024960518,0.02800703,-0.05197358,-0.45923197,-0.6961808,0.18340811,2017-05-27 13:01:56,50.91412746211031
5.54557,-7.0820484,-3.9785647,0.07040514,0.029731791,-0.047258247,2.0,5.492282,-7.1696334,-3.8212075,0.053287983,0.08758497,-0.15735722,-0.45654303,-0.69742084,0.18291862,2017-05-27 13:01:57,62.53011473057681
5.2439003,-7.419631,-3.899556,0.1746992,-0.03837862,-0.04619402,2.0,5.4225817,-7.209155,-3.8463082,-0.17868137,-0.21047592,-0.05324769,-0.4589446,-0.6967618,0.18563007,2017-05-27 13:01:58,69.55672453447795
6.108207,-7.8146744,-5.5300074,-0.05730188,0.17340219,-0.36014044,2.0,4.575367,-7.128577,-4.941644,-0.11437082,-0.13782501,-0.4471054,-0.45781595,-0.7364498,0.2139341,2017-05-27 13:01:59,36.602281085076015
5.5000796,-7.00304,-4.3209357,0.18534145,0.009511513,-0.036615998,2.0,5.4614115,-6.946806,-4.2526813,0.038668156,-0.056233883,-0.06825447,-0.42938817,-0.72969323,0.19374834,2017-05-27 13:02:00,51.42947737196492
5.3636103,-7.079654,-4.3281183,0.118295275,0.002061937,-0.0451298,2.0,5.342479,-7.014648,-4.2922096,0.021131039,-0.065006256,-0.0359087,-0.42854708,-0.73156625,0.20158905,2017-05-27 13:02:01,79.4716071955619
5.4138885,-7.0365586,-4.3161473,0.09913922,0.032924466,-0.055772047,2.0,5.357752,-6.985638,-4.3203883,0.056136608,-0.050920486,0.0042409897,-0.42462194,-0.7348297,0.20232375,2017-05-27 13:02:02,40.36597210268394
5.4091,-7.043741,-4.407127,0.11723105,0.011639963,-0.054707825,2.0,5.3962793,-6.9423976,-4.342084,0.041551113,-0.07261324,-0.026735783,-0.42420092,-0.7358249,0.19926037,2017-05-27 13:02:03,42.60202958883461
5.4378304,-6.933608,-4.2658687,0.10446034,9.97711E-4,-0.038744446,2.0,5.421676,-6.9382076,-4.3170724,0.01615429,0.004599571,0.051203728,-0.42306906,-0.73560995,0.1989611,2017-05-27 13:02:04,69.31996981767624
5.4378304,-7.055712,-4.246715,0.09594654,9.97711E-4,-0.029166419,2.0,5.4072766,-6.9852247,-4.2589197,0.030553818,-0.0704875,0.012204647,-0.422128,-0.7341338,0.20230442,2017-05-27 13:02:05,41.231328005934785
5.4593782,-7.041347,-4.2419267,0.09594654,0.012704188,-0.048322473,2.0,5.3811374,-6.983065,-4.295411,0.07824087,-0.0582819,0.05348444,-0.4221966,-0.7353605,0.20303221,2017-05-27 13:02:06,54.80071252486633
5.433042,-7.03177,-4.3999443,0.092753865,-0.0021949643,-0.03342332,2.0,5.3910227,-6.970015,-4.3042054,0.042019367,-0.06175518,-0.09573889,-0.42123732,-0.736215,0.20271836,2017-05-27 13:02:07,80.7269734634766
5.4019175,-7.0341644,-4.4406457,0.10233189,0.016961088,-0.039808672,2.0,5.4028234,-6.9557114,-4.3125386,-9.059906E-4,-0.078453064,-0.12810707,-0.42147225,-0.7363691,0.2014868,2017-05-27 13:02:08,44.3468238589546
5.4234653,-7.026982,-4.2658687,0.112974145,0.008447288,-0.034487545,2.0,5.3987226,-6.9908104,-4.2606087,0.024742603,-0.036171436,-0.0052599907,-0.42095634,-0.73486483,0.20364127,2017-05-27 13:02:09,70.93747175957493
5.492897,-7.0102224,-4.2754455,0.09701077,0.0031261616,-0.04193712,2.0,5.3766546,-7.0196977,-4.240971,0.11624241,0.009475231,-0.034474373,-0.41992798,-0.73477197,0.20644557,2017-05-27 13:02:10,40.59113160963041
5.3157263,-7.07726,-4.478953,0.12680908,-0.06498425,-0.016395718,2.0,5.3257923,-7.0222583,-4.3004923,-0.010066032,-0.055001736,-0.1784606,-0.41931713,-0.73718196,0.2086522,2017-05-27 13:02:11,51.1027838943215
5.337274,-7.2065473,-4.043208,0.089561194,0.016961088,-0.0451298,2.0,5.3216534,-7.1779513,-4.0407186,0.015620708,-0.028595924,-0.0024895668,-0.41032127,-0.73325014,0.22239934,2017-05-27 13:02:12,76.01988103851282
5.3396683,-7.273585,-3.9641995,0.1236164,0.0031261616,-0.03555177,2.0,5.3709598,-7.170757,-3.987915,-0.031291485,-0.102828026,0.023715496,-0.4098776,-0.7316607,0.22074817,2017-05-27 13:02:13,60.57432939217822
5.3564277,-7.2233067,-4.1701007,0.07998317,0.035052918,-0.054707825,2.0,5.3715787,-7.179868,-3.9706476,-0.015151024,-0.043438435,-0.19945312,-0.4096028,-0.73121285,0.22136404,2017-05-27 13:02:14,78.02068962860076
5.6030307,-7.120356,-4.0336313,0.0022947267,0.019089539,0.017659485,2.0,5.379681,-7.1364026,-4.037474,0.22334957,0.016046524,0.0038428307,-0.41214243,-0.7321151,0.21723825,2017-05-27 13:02:15,77.94574128890059
5.595848,-7.3310456,-3.8923733,0.05869866,0.26811823,0.06767807,2.0,5.3599095,-7.1099725,-4.109755,0.23593855,-0.22107315,0.21738172,-0.42788845,-0.7255692,0.2058961,2017-05-27 13:02:16,79.27274768686223
5.7538652,-6.967127,-4.0456023,0.121487945,0.012704188,-0.078120776,2.0,5.6788297,-6.9132433,-4.0160117,0.07503557,-0.053883553,-0.029590607,-0.4206436,-0.72651124,0.19054113,2017-05-27 13:02:17,78.6919476605635
5.856816,-6.895301,-4.0623617,0.12893753,0.019089539,-0.034487545,2.0,5.697391,-6.9577074,-3.9115818,0.15942478,0.06240654,-0.15077996,-0.41644475,-0.7252647,0.19488889,2017-05-27 13:02:18,72.0013907214824
5.988497,-6.9383965,-3.8684313,0.10446034,0.063787,-0.08237768,0.0,5.754422,-6.963752,-3.8161755,0.2340746,0.025355339,-0.05225587,-0.4123967,-0.72422355,0.19600987,2017-05-27 13:02:19,38.56978356839565
5.7658362,-7.0461354,-3.957017,0.08211161,0.035052918,-0.03768022,2.0,5.736456,-6.9882684,-3.7983644,0.029380322,-0.05786705,-0.15865254,-0.41151243,-0.7240996,0.19842532,2017-05-27 13:02:20,37.901716484128166
5.703587,-7.0126166,-3.791817,0.069340914,0.04356672,-0.07279965,0.0,5.7347293,-6.986569,-3.8040938,-0.031142235,-0.026047707,0.012276888,-0.4111695,-0.724496,0.19865157,2017-05-27 13:02:21,74.56169746261551
5.655703,-7.1347213,-3.7247794,0.07572626,0.04037404,-0.11111176,0.0,5.7020984,-7.0140324,-3.8026068,-0.0463953,-0.120688915,0.07782745,-0.41265792,-0.7235969,0.20003416,2017-05-27 13:02:22,71.02385298745384
5.7227407,-7.1586633,-3.8492777,0.06508401,0.008447288,-0.048322473,0.0,5.7095637,-7.0119023,-3.795325,0.013176918,-0.14676094,-0.053952694,-0.41361675,-0.72279245,0.19898427,2017-05-27 13:02:23,60.54190288586899
5.7825956,-6.945579,-3.875614,0.118295275,0.013768413,-0.06747852,0.0,5.695402,-7.011566,-3.8171687,0.08719349,0.06598711,-0.058445215,-0.41400746,-0.72333896,0.1991953,2017-05-27 13:02:24,73.91336809576812
5.7442884,-7.1227503,-3.8899791,0.09594654,0.011639963,-0.07279965,0.0,5.690358,-7.009665,-3.828167,0.053930283,-0.11308527,-0.061812162,-0.41552618,-0.72285557,0.19820453,2017-05-27 13:02:25,79.13478143131923
5.7179523,-7.0724716,-3.7942111,0.106588796,0.0031261616,-0.028102195,0.0,5.705022,-7.0010123,-3.8221664,0.012930393,-0.07145929,0.027955294,-0.41709104,-0.72174186,0.19615865,2017-05-27 13:02:26,81.19982314915931
5.945401,-6.967127,-3.9665937,0.07679049,0.010575738,-0.039808672,0.0,5.7642264,-6.9367867,-3.8503351,0.18117476,-0.030340195,-0.11625862,-0.41668606,-0.7229697,0.19134633,2017-05-27 13:02:27,59.99076426078282
5.6126075,-7.1131735,-3.8612487,0.06721246,-0.0011307392,0.010209911,0.0,5.755698,-6.9482436,-3.8424275,0.09632921,-0.1146512,-0.078676224,-0.41787344,-0.7220049,0.19133252,2017-05-27 13:02:28,63.385664150488175
5.655703,-7.1083846,-3.8444893,0.19385526,0.002061937,-0.0664143,0.0,5.7426963,-6.934267,-3.886873,-0.08699322,-0.17411757,0.04238367,-0.41982442,-0.72244227,0.18977465,2017-05-27 13:02:29,71.38381982046519
5.928642,-6.71813,-3.7870286,0.11935949,0.005254612,-0.03555177,0.0,5.914656,-6.7899075,-3.8838625,0.013985634,0.071777344,0.096833944,-0.41619354,-0.72443414,0.1794819,2017-05-27 13:02:30,72.0817407638752
5.7658362,-6.95755,-3.957017,0.08211161,-0.0021949643,0.013402589,0.0,5.899941,-6.7894464,-3.9069822,0.035883427,-0.014874935,-0.071582556,-0.41924092,-0.72348994,0.17782304,2017-05-27 13:02:31,36.728745040070216
6.0148335,-7.1131735,-3.6912606,0.10020345,0.059530094,-0.060028948,0.0,6.0773,-6.834806,-3.53868,-0.06246662,-0.27836752,-0.1525805,-0.40988222,-0.7158345,0.17995904,2017-05-27 13:02:32,77.84611937831505
6.2542534,-6.7229185,-3.4973302,0.036349937,-0.01815834,-0.052579373,0.0,6.2292433,-6.616904,-3.6855805,0.025010109,-0.10601473,0.1882503,-0.40235016,-0.72527695,0.16993117,2017-05-27 13:02:33,81.20232051918262
6.582259,-6.220136,-4.196437,0.03528571,0.032924466,-0.043001346,0.0,6.366343,-6.159151,-4.2077255,0.21591616,-0.06098509,0.011288643,-0.3802685,-0.7549372,0.1590404,2017-05-27 13:02:34,35.689593664124246
5.713164,-5.659893,-5.668871,0.3173054,-0.108617485,0.020852163,0.0,5.794564,-5.528985,-5.6589537,-0.08139992,-0.13090801,-0.009917259,-0.452339,-0.7641438,0.10370319,2017-05-27 13:02:35,80.52932317691285
5.4043117,-5.619191,-5.819706,0.05869866,-0.052213546,0.02510906,0.0,5.487168,-5.601706,-5.8891644,0.044036865,0.10222483,0.13410234,-0.46662524,-0.76323307,0.109262,2017-05-27 13:02:36,38.713914551581105
5.4258595,-6.0740895,-5.561132,0.11084569,0.14679655,0.012338363,0.0,5.374678,-5.9854856,-5.608672,0.051181316,-0.08860397,0.047540188,-0.4847426,-0.7422852,0.11920617,2017-05-27 13:02:37,64.10818014736054
5.4617724,-6.205771,-5.405509,0.10552457,0.029731791,-0.0025607906,0.0,5.5017033,-6.176048,-5.268597,-0.03993082,-0.029723167,-0.13691187,-0.49522954,-0.7234441,0.115647845,2017-05-27 13:02:38,39.09943730492683
5.394735,-6.4404025,-5.3887496,0.09594654,0.051016293,-0.025973745,0.0,5.401787,-6.387339,-5.117914,-0.0070519447,-0.053063393,-0.2708354,-0.4992919,-0.71529615,0.12541544,2017-05-27 13:02:39,78.91642886271657
5.203199,-6.459556,-5.3863554,0.09381809,0.025474891,-0.038744446,0.0,5.235991,-6.4556737,-5.2037587,-0.03279209,-0.0038824081,-0.18259668,-0.5042304,-0.7148913,0.13157266,2017-05-27 13:02:40,38.87129007201168
5.677251,-5.722142,-4.079121,0.3236907,0.2745036,-0.27606666,0.0,5.660283,-6.04724,-5.2499995,0.016967773,0.32509756,1.1708784,-0.49977893,-0.71965027,0.1011518,2017-05-27 13:02:41,70.41646044197637
6.785766,-5.439626,-5.4342394,-0.095613986,-0.022415243,-0.011074591,0.0,6.4147854,-5.3819795,-5.104432,0.37098074,-0.05764675,-0.32980728,-0.4611747,-0.73998076,0.06868881,2017-05-27 13:02:42,38.59330348539706
6.369175,-6.1387334,-4.455011,0.2555803,0.042502493,-0.07599233,2.0,6.302289,-5.9419312,-4.598372,0.06688595,-0.19680214,0.14336109,-0.44136295,-0.73460907,0.109919995,2017-05-27 13:02:43,80.6923280663277
6.271013,-6.208165,-4.526837,0.09062542,0.035052918,-0.047258247,2.0,6.1576424,-6.1389813,-4.5350566,0.11337042,-0.06918383,0.008219719,-0.4394659,-0.7335484,0.12531048,2017-05-27 13:02:44,69.1115209276537
6.4266357,-6.1411276,-4.2850223,0.12893753,0.016961088,-0.07386388,2.0,6.3902507,-6.0837326,-4.2805724,0.03638506,-0.05739498,-0.0044498444,-0.429441,-0.73063594,0.12073056,2017-05-27 13:02:45,81.90926005827549
6.4936733,-6.126762,-4.198831,0.10339612,-0.0021949643,-0.034487545,2.0,6.4796844,-6.0940466,-4.128765,0.013988972,-0.03271532,-0.070065975,-0.42362428,-0.7287324,0.12170269,2017-05-27 13:02:46,62.00125604395504
6.579865,-6.1507044,-4.0863037,0.092753865,0.028667565,-0.040872894,2.0,6.486044,-6.08901,-4.126206,-0.025889397,-0.06648302,-0.06304836,-0.423441,-0.7287494,0.121360995,2017-05-27 13:02:47,59.716480719529095
6.570288,-6.1387334,-4.043208,0.10233189,0.02121799,-0.039808672,2.0,6.500019,-6.096553,-4.0929475,0.07026911,-0.04218054,0.04973936,-0.42282397,-0.7279438,0.12155631,2017-05-27 13:02:48,38.23615493186778
6.534375,-6.1243677,-4.100669,0.08317584,0.014832638,-0.043001346,2.0,6.4916906,-6.092955,-4.1114764,0.042684555,-0.0314126,0.010807514,-0.4220252,-0.72905535,0.12231848,2017-05-27 13:02:49,80.05040448894903
6.615778,-6.0956373,-4.1461587,0.089561194,0.002061937,-0.04193712,0.0,6.5365314,-6.071353,-4.0721984,0.07924652,-0.024284363,-0.073960304,-0.42061856,-0.7284946,0.120583594,2017-05-27 13:02:50,77.66646944943048
6.6229606,-6.0645127,-4.016872,0.11723105,0.010575738,-0.03768022,2.0,6.6039677,-6.0427623,-4.005378,0.05969429,-0.012173653,-0.01149416,-0.41856015,-0.72734094,0.118084796,2017-05-27 13:02:51,40.32328009211212
6.6445084,-6.1076083,-4.0503907,0.09488232,0.005254612,-0.047258247,2.0,6.6056623,-6.0337234,-4.0161977,0.038846016,-0.073884964,-0.03419304,-0.4185255,-0.72774,0.11765621,2017-05-27 13:02:52,62.88091471190516
6.5271926,-6.126762,-4.0503907,0.08104739,0.0073830625,-0.028102195,2.0,6.5607853,-6.0615635,-4.0477123,-0.0335927,-0.06519842,-0.0026783943,-0.41924095,-0.7284318,0.12017052,2017-05-27 13:02:53,74.51716196171974
6.601413,-6.0740895,-4.1892543,0.098074995,-0.01602989,-0.036615998,2.0,6.5469704,-5.987402,-4.178354,0.15739298,-0.045986176,0.13514566,-0.4229127,-0.7308773,0.11492736,2017-05-27 13:02:54,68.54368208403474
6.6325374,-6.007052,-4.256292,0.08211161,-0.0011307392,-0.03768022,2.0,6.546587,-6.0032444,-4.1561565,0.085950375,-0.0038075447,-0.10013533,-0.42381555,-0.7295789,0.114969365,2017-05-27 13:02:55,79.73603831003071
6.711546,-6.033388,-4.1198225,0.089561194,0.015896864,-0.040872894,2.0,6.6081166,-5.985658,-4.0835166,0.10342932,-0.04772997,-0.036305904,-0.4240856,-0.7268788,0.11147751,2017-05-27 13:02:56,73.69234702605574
6.630143,-6.0740895,-4.1102457,0.08211161,-0.0011307392,-0.031294867,2.0,6.555108,-5.9968386,-4.151972,0.075035095,-0.07725096,0.041726112,-0.4271012,-0.72751373,0.11198012,2017-05-27 13:02:57,41.37823459674911
6.9102645,-6.1219735,-3.99293,0.13851555,0.06059432,-0.008946143,2.0,6.532898,-5.986777,-4.2012115,0.058938026,-0.0681591,-0.040715218,-0.4292004,-0.72800356,0.11097142,2017-05-27 13:02:58,71.3497010958582
5.5120506,-5.3199162,-5.1996074,-1.7036582,-2.0476358,-0.37823227,2.0,6.01945,-5.524134,-5.424076,-0.50739956,0.20421791,0.22446871,-0.46812078,-0.7466015,0.085780345,2017-05-27 13:02:59,76.00993311832187
6.2422824,-5.281609,-6.485294,-0.7607547,-1.3441828,-0.25903904,0.0,6.108396,-5.299467,-5.5473886,0.13388634,0.017858028,-0.9379053,-0.44856182,-0.762647,0.084774405,2017-05-27 13:03:00,72.7501641228229
5.605425,-4.685453,-6.621763,0.2598372,0.40008214,0.10599017,2.0,5.205171,-4.200135,-7.171854,0.40025377,-0.4853177,0.5500908,-0.4591985,-0.8091968,0.05940036,2017-05-27 13:03:01,81.54935839486842
7.3029137,-5.1571107,-5.671265,0.5769763,0.6491108,-0.0025607906,2.0,6.3990726,-4.7812934,-5.688714,0.903841,-0.3758173,0.017448902,-0.48588595,-0.7442839,0.029003536,2017-05-27 13:03:02,79.52189438010967
6.117784,-6.2392898,-4.658518,0.3779662,0.19042979,0.061292715,2.0,6.041245,-6.237368,-4.5573044,0.07653904,-0.0019216537,-0.101213455,-0.47719175,-0.7103843,0.10777649,2017-05-27 13:03:03,81.8304855836036
5.9956794,-6.5241995,-4.478953,0.06508401,-0.06604847,-0.055772047,2.0,5.977386,-6.5431833,-4.1985726,-0.010437012,-0.05763054,-0.06250763,-0.48277307,-0.69354004,0.11797305,2017-05-27 13:03:04,69.04209240518874
5.9358244,-6.4547677,-4.5459905,0.08211161,0.024410665,-0.056836274,2.0,5.916063,-6.461501,-4.4067693,0.019761562,0.0067334175,-0.13922119,-0.48123503,-0.7022076,0.11892271,2017-05-27 13:03:05,79.71753016768243
5.943007,-6.4739213,-4.383185,0.10552457,0.0073830625,-0.038744446,2.0,5.9575276,-6.451964,-4.3646812,-0.014520645,-0.021957397,-0.018503666,-0.4787799,-0.7023579,0.11849576,2017-05-27 13:03:06,80.61745479224223
6.057929,-6.5218053,-4.957793,0.14170823,0.04356672,-0.044065572,2.0,6.0004687,-6.432052,-4.335146,0.057460308,-0.08975315,-0.6226473,-0.4751417,-0.70375514,0.11847978,2017-05-27 13:03:07,47.5442945569454
6.1943984,-6.612785,-4.2778397,0.089561194,-0.010708766,-0.0579005,2.0,6.0043235,-6.50743,-4.2156653,0.19007492,-0.105354786,-0.06217432,-0.47466564,-0.69973683,0.12148082,2017-05-27 13:03:08,74.69696734223535
5.9861026,-6.495469,-4.3664255,0.10020345,0.02121799,-0.0451298,2.0,5.9381247,-6.5225077,-4.285555,0.047977924,0.027038574,-0.08087063,-0.47714055,-0.7005993,0.12321309,2017-05-27 13:03:09,74.75328908255533
5.969343,-6.517017,-4.3903675,0.10765302,0.025474891,-0.043001346,2.0,5.9742136,-6.5039825,-4.263493,-0.0048704147,-0.013034344,-0.12687445,-0.47495034,-0.7012844,0.1225067,2017-05-27 13:03:10,42.76958287674663
6.033987,-6.5601125,-4.256292,0.101267666,0.0031261616,-0.048322473,2.0,5.9882894,-6.498034,-4.2528067,0.04569769,-0.062078476,-0.0034852028,-0.47444433,-0.70123845,0.12202187,2017-05-27 13:03:11,82.11536218188988
5.9956794,-6.5625067,-4.3329067,0.09701077,9.97711E-4,-0.03555177,2.0,5.9277797,-6.5032096,-4.3289857,0.067899704,-0.059297085,-0.003921032,-0.4754029,-0.7033555,0.12422396,2017-05-27 13:03:12,74.48957870623262
5.9023056,-6.5481415,-4.337695,0.121487945,0.046759393,-0.030230645,2.0,5.911876,-6.4861965,-4.375999,-0.009570599,-0.06194496,0.038303852,-0.47528708,-0.70513546,0.12436387,2017-05-27 13:03:13,77.02630945824569
6.678027,-6.6846113,-5.6185927,-0.4319091,0.71828544,-0.03555177,2.0,6.250392,-5.965466,-4.638555,0.4276352,-0.7191453,-0.9800377,-0.4747057,-0.71495104,0.08985123,2017-05-27 13:03:14,75.18406066486106
7.791331,-3.5625722,-4.5340195,0.19917639,-0.06498425,0.05384314,0.0,7.841988,-3.6157053,-4.647613,-0.050657272,0.05313301,0.11359358,-0.46107554,-0.7241351,-0.069010064,2017-05-27 13:03:15,72.13466401349092
7.460931,-3.964798,-4.8404775,0.07998317,0.019089539,-0.028102195,0.0,7.6075325,-3.958311,-4.7568493,-0.14660168,-0.0064868927,-0.08362818,-0.4681441,-0.7234452,-0.047914352,2017-05-27 13:03:16,77.75416759370827
7.4848733,-4.3239284,-4.8189297,0.12468062,-0.030929044,-0.07173543,0.0,7.528927,-4.139795,-4.727345,0.1402998,-0.2966609,-0.06046009,-0.47424436,-0.7184148,-0.041039027,2017-05-27 13:03:17,81.49839607254243
6.199187,-4.663905,-5.6545057,-0.4191384,-0.22674647,0.15494454,2.0,6.411481,-4.9775815,-5.503365,-0.2122941,0.31367636,-0.15114069,-0.5164043,-0.7168822,0.016814055,2017-05-27 13:03:18,72.50236185787247
6.4098763,-5.6096144,-4.993706,0.11403837,0.015896864,-0.029166419,2.0,6.3850193,-5.590454,-4.9141374,0.024857044,-0.01916027,-0.07956886,-0.5474455,-0.6714572,0.017546631,2017-05-27 13:03:19,43.04647220353887
6.467337,-5.645528,-4.981735,0.086368516,0.010575738,-0.044065572,2.0,6.38507,-5.622228,-4.8776846,0.0248065,-0.0065398216,-0.12081003,-0.55154717,-0.66669965,0.015436189,2017-05-27 13:03:20,79.26801601557236
6.491279,-5.659893,-4.9242744,0.10339612,0.016961088,-0.036615998,2.0,6.390324,-5.615681,-4.8783517,0.10095501,-0.044211864,-0.045922756,-0.5531045,-0.66543376,0.013779156,2017-05-27 13:03:21,81.82175565133193
6.405088,-5.628768,-4.9482164,0.08743274,0.02760334,-0.0493867,2.0,6.398458,-5.632399,-4.848318,0.006629944,0.003631115,-0.09989834,-0.55433416,-0.6632564,0.012885804,2017-05-27 13:03:22,82.36335606470598
6.4457893,-5.6646814,-4.871602,0.11723105,0.014832638,-0.036615998,2.0,6.403649,-5.6048436,-4.8733335,0.12354374,-0.0095591545,-0.09403658,-0.5551532,-0.6635328,0.011171096,2017-05-27 13:03:23,80.46412926704676
6.306926,-5.719748,-4.8165355,0.1321302,0.02121799,-0.017459944,2.0,6.3451014,-5.6107326,-4.9426513,-0.038175583,-0.109015465,0.1261158,-0.556756,-0.6648517,0.01339942,2017-05-27 13:03:24,54.26746836782215
6.4266357,-5.6551046,-4.9482164,0.077854715,-6.651413E-5,-0.0664143,2.0,6.3705187,-5.6268263,-4.89139,0.056117058,-0.02827835,-0.05682659,-0.5542041,-0.66501826,0.014381144,2017-05-27 13:03:26,43.61819877811303
6.4864907,-5.583278,-4.8165355,0.089561194,0.0031261616,-0.043001346,2.0,6.4292707,-5.5773053,-4.8711934,0.071585655,-0.04906845,-0.014773846,-0.55279243,-0.66541886,0.010709461,2017-05-27 13:03:27,80.42421830807888
6.4098763,-5.521029,-5.048773,0.101267666,0.015896864,-0.04193712,2.0,6.3856874,-5.524263,-4.987577,0.024188995,0.0032339096,-0.06119585,-0.55418324,-0.6687126,0.010497566,2017-05-27 13:03:28,43.59788225747793
6.613384,-5.3223104,-5.084686,0.10446034,0.029731791,-0.039808672,2.0,6.462712,-5.2864785,-5.1436267,0.15067196,-0.03583193,0.058940887,-0.5449056,-0.6821509,0.005659328,2017-05-27 13:03:29,81.99018143322702
6.567894,-5.410896,-4.8979383,0.08317584,9.97711E-4,-0.04619402,2.0,6.4946375,-5.4178653,-4.9635553,0.07325649,0.006969452,0.065617085,-0.54641414,-0.674168,0.0070269518,2017-05-27 13:03:30,57.39555865272372
6.505645,-5.4899044,-4.9865236,0.13000175,0.023346439,-0.027037969,2.0,6.501532,-5.366458,-5.0101523,0.0041127205,-0.123446465,0.023628712,-0.5452316,-0.67688197,0.0059134434,2017-05-27 13:03:31,81.77587943362768
6.333262,-6.6654577,-3.674501,0.39286536,-0.17459944,-0.056836274,0.0,6.0822124,-6.656585,-3.8557706,0.25104952,-0.008872509,0.18126965,-0.47381473,-0.6870875,0.123829745,2017-05-27 13:03:32,81.64770105893771
7.343615,-7.326257,-3.4685998,-0.47554234,0.11912671,-0.5559579,0.0,6.507863,-6.2933583,-3.7698495,0.835752,-1.0328989,0.30124974,-0.45098624,-0.6991568,0.10791352,2017-05-27 13:03:33,65.01873505582468
4.2503066,-9.844957,3.697246,1.1942269,-0.18737014,0.9626914,0.0,3.6974132,-7.9949236,4.310537,0.5528934,-1.8500338,-0.6132908,-0.21959424,-0.48166603,0.5529275,2017-05-27 13:03:34,76.64834068424456
2.4450784,-9.186552,3.352481,0.5301504,0.07123657,-0.05045092,0.0,2.3968947,-9.030207,2.9800422,0.04818368,-0.15634537,0.37243867,-0.2562258,-0.5314212,0.612998,2017-05-27 13:03:35,77.79828105226747
2.818574,-8.78672,3.6589386,0.09594654,-0.021351017,-0.084506124,0.0,2.7306163,-8.674576,3.6695874,0.08795762,-0.11214447,-0.010648727,-0.2288766,-0.51041025,0.6196153,2017-05-27 13:03:36,82.61284738409651
2.983774,-8.63828,3.7954082,0.09381809,0.018025314,-0.0621574,0.0,2.8941283,-8.540789,3.8534849,0.089645624,-0.097491264,-0.05807662,-0.22556055,-0.5026424,0.6114665,2017-05-27 13:03:37,81.51152139368907
3.0268695,-8.652645,3.7978024,0.10339612,0.026539115,-0.047258247,0.0,2.933927,-8.535489,3.8350856,0.092942476,-0.11715603,-0.037283182,-0.22921424,-0.5019222,0.6048086,2017-05-27 13:03:38,75.07490947360203
3.043629,-8.643068,3.8911762,0.084240064,0.0063188374,-0.032359093,0.0,2.9511464,-8.5227585,3.8501577,0.10924196,-0.041300774,-0.05474949,-0.23123653,-0.5002262,0.601175,2017-05-27 13:03:39,82.08538792426003
3.1010897,-8.576031,3.8432922,0.098074995,0.009511513,-0.044065572,0.0,2.9651341,-8.519109,3.8474882,0.13595557,-0.05692196,-0.0041959286,-0.23346858,-0.49932465,0.5976571,2017-05-27 13:03:40,81.77811391184352
3.105878,-8.6095495,3.8815994,0.09701077,0.010575738,-0.028102195,0.0,2.9653249,-8.509813,3.867855,0.14055324,-0.09973621,0.013744354,-0.23417594,-0.49795172,0.5965972,2017-05-27 13:03:41,82.01579069862078
3.067571,-8.588001,3.8432922,0.09381809,0.008447288,-0.039808672,0.0,2.9568257,-8.5037985,3.8875444,0.11074519,-0.08420277,-0.044252157,-0.23535733,-0.49638426,0.59556985,2017-05-27 13:03:42,79.46434706416352
3.0484173,-8.499416,3.9151182,0.092753865,0.023346439,-0.04619402,0.0,2.9892106,-8.492722,3.886991,0.059206724,-0.0066947937,0.028127193,-0.23554058,-0.49632573,0.5931213,2017-05-27 13:03:43,48.691096428394175
3.0627825,-8.542512,4.006098,0.106588796,0.024410665,-0.027037969,0.0,2.9729671,-8.445041,4.001644,0.08981538,-0.09747124,0.004453659,-0.23782748,-0.48929647,0.59002095,2017-05-27 13:03:44,79.75758926529254
3.0172927,-8.585608,4.0467997,0.09913922,0.010575738,-0.03768022,0.0,2.9525561,-8.42828,4.0517764,0.064736605,-0.15732765,-0.0049767494,-0.23947893,-0.485867,0.5887094,2017-05-27 13:03:45,49.88528301027037
3.0125043,-8.508993,4.171298,0.109781474,0.015896864,-0.044065572,0.0,2.926956,-8.412866,4.1020756,0.092731,-0.081762314,-0.026545525,-0.24015084,-0.4828871,0.5889226,2017-05-27 13:03:46,79.27572792598177
3.007716,-8.513782,4.1425676,0.09488232,0.009511513,-0.03555177,0.0,2.9467876,-8.393497,4.1274734,0.060928345,-0.12028408,0.01509428,-0.23948023,-0.48187825,0.5879279,2017-05-27 13:03:47,81.14918830761594
3.0556,-8.444349,4.1760864,0.09381809,0.008447288,-0.04619402,0.0,2.9705155,-8.383587,4.1306057,0.08508444,-0.060762405,0.04548073,-0.23891498,-0.4819931,0.58687526,2017-05-27 13:03:48,75.0217296885119
3.0723593,-8.429984,4.1282024,0.10446034,0.018025314,-0.04619402,0.0,2.9710062,-8.372311,4.1530633,0.10135317,-0.057673454,-0.024860859,-0.2381433,-0.4811865,0.58743554,2017-05-27 13:03:49,80.58432325849279
3.0029275,-8.441956,4.26946,0.09381809,0.008447288,-0.036615998,0.0,2.9796133,-8.362348,4.166948,0.023314238,-0.07960796,0.10251236,-0.23676476,-0.48113123,0.58831453,2017-05-27 13:03:50,75.22517574880058
3.0005333,-8.470686,4.24073,0.08849697,9.97711E-4,-0.043001346,0.0,2.9872906,-8.346808,4.1925254,0.013242722,-0.123877525,0.048204422,-0.23568946,-0.4803032,0.58868057,2017-05-27 13:03:51,49.0160313019254
3.0148985,-8.422802,4.3460746,0.101267666,0.012704188,-0.039808672,0.0,2.9993649,-8.340235,4.1969857,0.015533686,-0.082567215,0.14908886,-0.23513736,-0.48033708,0.588424,2017-05-27 13:03:52,77.98630987219907
3.0388405,-8.391677,4.168904,0.106588796,0.014832638,-0.04193712,0.0,2.9847286,-8.330538,4.226575,0.054111958,-0.061139107,-0.05767107,-0.23542789,-0.4786213,0.5886094,2017-05-27 13:03:53,80.12678480195355
2.7611132,-8.918402,3.330933,0.225782,-0.073498055,-0.15793766,0.0,2.668507,-8.80938,3.3829427,0.09260607,-0.10902214,-0.052009583,-0.26377398,-0.50787914,0.5869223,2017-05-27 13:03:54,79.13084815589588
3.1346085,-8.343793,4.281431,0.10233189,0.019089539,-0.052579373,0.0,3.140725,-8.252144,4.267127,-0.00611639,-0.091649055,0.014304161,-0.23447406,-0.47692662,0.57753134,2017-05-27 13:03:55,82.8009979562483
3.165733,-8.360553,4.3915644,0.10020345,0.013768413,-0.043001346,0.0,3.1637568,-8.231966,4.2890286,0.0019762516,-0.12858677,0.102535725,-0.23419695,-0.47589093,0.5757147,2017-05-27 13:03:56,81.9441429787619
3.091513,-8.281544,4.4155064,0.106588796,0.019089539,-0.031294867,0.0,3.1185982,-8.217526,4.349367,-0.027085304,-0.064017296,0.06613922,-0.23440297,-0.4725455,0.5776036,2017-05-27 13:03:57,72.30429322705673
3.1681273,-8.279149,4.401141,0.101267666,0.014832638,-0.036615998,0.0,3.1229784,-8.2077675,4.364625,0.04514885,-0.07138157,0.03651619,-0.23360187,-0.47211885,0.5780032,2017-05-27 13:03:58,80.91593568045533
3.1872811,-8.255207,4.4538136,0.10339612,0.014832638,-0.043001346,0.0,3.1342752,-8.196812,4.3770986,0.053005934,-0.058395386,0.07671499,-0.23284172,-0.47182077,0.5778812,2017-05-27 13:03:59,71.68656476344744
3.1824925,-8.252813,4.4442368,0.09381809,0.011639963,-0.040872894,0.0,3.1463919,-8.187206,4.3863716,0.036100626,-0.06560707,0.057865143,-0.23221047,-0.47163078,0.57759273,2017-05-27 13:04:00,53.66562905140283
3.127426,-8.324639,4.484938,0.10871725,0.018025314,-0.051515147,0.0,3.1242447,-8.177038,4.4210324,0.003181219,-0.14760113,0.063905716,-0.23215552,-0.46978068,0.57859737,2017-05-27 13:04:01,81.36045348307248
3.1130607,-8.274361,4.583101,0.101267666,0.014832638,-0.054707825,0.0,3.0982957,-8.164162,4.4628954,0.014765024,-0.110198975,0.1202054,-0.23211993,-0.46752113,0.57969385,2017-05-27 13:04:02,82.5942070965385
3.1585505,-8.250419,4.413112,0.10552457,0.015896864,-0.043001346,0.0,3.126626,-8.152046,4.465282,0.031924486,-0.09837246,-0.0521698,-0.2314455,-0.4677253,0.5783677,2017-05-27 13:04:03,79.89908382631535
3.139397,-8.214506,4.5447936,0.09913922,0.014832638,-0.03342332,0.0,3.130274,-8.138702,4.4870143,0.0091228485,-0.07580376,0.057779312,-0.23087612,-0.46682134,0.57835054,2017-05-27 13:04:04,80.6671161832489
3.0963013,-8.243237,4.693234,0.101267666,0.011639963,-0.0451298,0.0,3.1009967,-8.148952,4.488742,-0.0046954155,-0.09428501,0.20449209,-0.23258285,-0.4658788,0.5782697,2017-05-27 13:04:05,61.392029491927225
3.1346085,-8.219295,4.5567646,0.09701077,0.011639963,-0.03342332,0.0,3.0899742,-8.13755,4.516937,0.044634342,-0.081744194,0.039827824,-0.23270977,-0.46426985,0.57828313,2017-05-27 13:04:06,77.0867245122054
3.1082723,-8.214506,4.587889,0.09913922,0.011639963,-0.0451298,0.0,3.0974848,-8.139613,4.5080676,0.010787487,-0.074893,0.07982159,-0.23337878,-0.464421,0.57700723,2017-05-27 13:04:07,81.47687682316453
3.153762,-8.209718,4.5663414,0.10765302,0.014832638,-0.0493867,0.0,3.107862,-8.132768,4.513279,0.045900106,-0.07695007,0.05306244,-0.23308723,-0.46428132,0.5764737,2017-05-27 13:04:08,75.17100227865893
3.1346085,-8.183381,4.623802,0.10552457,0.023346439,-0.025973745,0.0,3.084536,-8.116105,4.5590425,0.05007243,-0.067276,0.06475973,-0.2333349,-0.4616366,0.5768269,2017-05-27 13:04:09,48.85873014502623
3.1250317,-8.231265,4.630985,0.09913922,0.009511513,-0.043001346,0.0,3.0876095,-8.111557,4.565053,0.06615257,-0.067035675,0.0036826134,-0.23349322,-0.46122444,0.5762199,2017-05-27 13:04:10,82.45922664940282
3.151368,-8.152257,4.6884456,0.09594654,0.012704188,-0.043001346,0.0,3.1076035,-8.103537,4.565732,0.043764353,-0.04872036,0.122713566,-0.23274916,-0.46156287,0.5756623,2017-05-27 13:04:11,80.82154692771869
3.12982,-8.176199,4.595072,0.10339612,0.015896864,-0.027037969,0.0,3.0967271,-8.098174,4.582604,0.033092976,-0.078024864,0.012467861,-0.23262247,-0.46069407,0.5762607,2017-05-27 13:04:12,81.29521366086726
3.0651767,-8.176199,4.6764746,0.101267666,0.011639963,-0.052579373,0.0,3.067265,-8.097862,4.6029243,-0.0020883083,-0.078336716,0.073550224,-0.23378004,-0.45898047,0.5764514,2017-05-27 13:04:13,82.55558048216037
3.0867245,-8.204929,4.6525326,0.098074995,0.011639963,-0.03555177,0.0,3.0857425,-8.097181,4.591758,0.012953043,-0.031133652,0.091899395,-0.23369998,-0.45964098,0.5754018,2017-05-27 13:04:14,83.32013408862485
3.163339,-8.161834,4.669292,0.10765302,0.014832638,-0.044065572,0.0,3.094864,-8.095588,4.5884275,0.06847501,-0.06624603,0.08086443,-0.23327664,-0.46004054,0.57535666,2017-05-27 13:04:15,82.45453573809044
3.0963013,-8.176199,4.6764746,0.09701077,0.010575738,-0.03768022,0.0,3.0740972,-8.085856,4.619443,0.02220416,-0.09034252,0.05703163,-0.23252016,-0.4587029,0.5772308,2017-05-27 13:04:16,49.55625232818568
3.1370027,-8.1163435,4.6740804,0.08849697,0.014832638,-0.051515147,0.0,3.077167,-8.078068,4.63101,-0.00720191,-0.1148901,0.047858715,-0.2317004,-0.45847479,0.5778241,2017-05-27 13:04:17,76.54181426218977
3.1202433,-8.204929,4.5040917,0.10339612,0.011639963,-0.0493867,0.0,3.0966778,-8.082044,4.6110244,0.02356553,-0.122885704,-0.10693264,-0.23141015,-0.45973092,0.57720923,2017-05-27 13:04:18,81.43738250115705
3.163339,-8.133103,4.666898,0.10020345,0.010575738,-0.032359093,0.0,3.1089137,-8.073307,4.6180916,0.05442524,-0.059796333,0.04880619,-0.23070014,-0.45969588,0.5770464,2017-05-27 13:04:19,82.5100486230275
3.1226375,-8.154651,4.702811,0.09594654,0.012704188,-0.039808672,0.0,3.0865428,-8.069066,4.6404557,0.038488865,-0.12389183,0.043201447,-0.23043264,-0.45858848,0.57859623,2017-05-27 13:04:20,81.509809963632
3.117849,-8.178593,4.595072,0.10020345,0.012704188,-0.051515147,0.0,3.07266,-8.071934,4.644678,0.045189142,-0.106658936,-0.049606323,-0.23093686,-0.45809987,0.5788798,2017-05-27 13:04:21,50.536185255149626
3.1010897,-8.173804,4.6645036,0.101267666,0.012704188,-0.04619402,0.0,3.0831187,-8.071937,4.6377378,0.017971039,-0.101867676,0.026765823,-0.23094037,-0.45848414,0.57823354,2017-05-27 13:04:22,81.7321507101851
3.103484,-8.133103,4.693234,0.10233189,0.012704188,-0.05045092,0.0,3.0851657,-8.058379,4.6599007,0.018318176,-0.0747242,0.0333333,-0.23017418,-0.45763636,0.5785558,2017-05-27 13:04:23,80.98513413612807
3.093907,-8.185776,4.777031,0.09062542,0.012704188,-0.03768022,0.0,3.049326,-8.057819,4.684393,0.044581175,-0.12795639,0.092638016,-0.23086876,-0.4559189,0.5797675,2017-05-27 13:04:24,77.60856872959432
3.1082723,-8.185776,4.717176,0.10446034,0.011639963,-0.039808672,0.0,3.0720918,-8.055102,4.674181,0.036180496,-0.13067341,0.042994976,-0.22988826,-0.45698413,0.5796072,2017-05-27 13:04:25,77.07761756429807
3.139397,-8.123527,4.71957,0.09913922,0.015896864,-0.036615998,0.0,3.0869105,-8.048853,4.6751833,0.05248642,-0.07467365,0.044386864,-0.2288226,-0.4574628,0.57989186,2017-05-27 13:04:26,69.35010564703033
3.1465795,-8.109161,4.695628,0.10020345,0.013768413,-0.03342332,0.0,3.0923502,-8.048504,4.672189,0.05422926,-0.0606575,0.02343893,-0.22853221,-0.45777473,0.579944,2017-05-27 13:04:27,80.7510043377892
3.093907,-8.161834,4.7459064,0.098074995,0.010575738,-0.040872894,0.0,3.0741403,-8.04496,4.6902747,0.019766808,-0.11687374,0.055631638,-0.22863671,-0.45671415,0.5807599,2017-05-27 13:04:28,79.48785007487052
3.1106665,-8.14268,4.803367,0.10446034,0.014832638,-0.038744446,0.0,3.0575242,-8.043594,4.7034597,0.05314231,-0.09908581,0.0999074,-0.22904085,-0.4557747,0.5811598,2017-05-27 13:04:29,82.57819766280602
3.12982,-8.157045,4.717176,0.10446034,0.012704188,-0.0451298,0.0,3.076841,-8.042213,4.693213,0.052978992,-0.114831924,0.023962975,-0.22911929,-0.4563081,0.5797986,2017-05-27 13:04:30,49.936148901242596
3.1106665,-8.11395,4.779425,0.09701077,0.012704188,-0.03555177,0.0,3.071078,-8.036399,4.7069273,0.03958845,-0.07755089,0.072497845,-0.22933985,-0.45543027,0.5795803,2017-05-27 13:04:31,77.95875660320735
3.0819361,-8.161834,4.7387238,0.09488232,0.012704188,-0.058964726,0.0,3.0492184,-8.035319,4.7229548,0.032717705,-0.12651443,0.015769005,-0.22999094,-0.45420313,0.5799668,2017-05-27 13:04:32,81.8296926526321
3.12982,-8.152257,4.7483006,0.08849697,0.0073830625,-0.040872894,0.0,3.0740042,-8.035321,4.7068577,0.055815935,-0.11693573,0.04144287,-0.22958183,-0.45531222,0.57901263,2017-05-27 13:04:33,70.67014684481747
3.12982,-8.123527,4.8177323,0.08743274,0.005254612,-0.040872894,0.0,3.0886486,-8.027202,4.7111235,0.04117155,-0.09632492,0.10660887,-0.2290524,-0.45534006,0.5784768,2017-05-27 13:04:34,50.51675395690111
3.093907,-8.123527,4.6022544,0.10446034,0.018025314,-0.03768022,0.0,3.0830352,-8.0277405,4.713882,0.010871887,-0.095786095,-0.11162758,-0.22924078,-0.45509073,0.5785837,2017-05-27 13:04:35,81.70740015024018
3.031658,-8.130709,4.8320975,0.10233189,0.013768413,-0.036615998,0.0,3.044501,-8.025245,4.7430863,-0.012843132,-0.10546398,0.08901119,-0.22965235,-0.45324355,0.5802659,2017-05-27 13:04:36,70.0395068889161
3.103484,-8.0924015,4.8416743,0.10446034,0.014832638,-0.036615998,0.0,3.0741198,-8.024367,4.725434,0.029364109,-0.06803417,0.1162405,-0.2295224,-0.454301,0.57858163,2017-05-27 13:04:37,50.89842905186802
3.091513,-8.12592,4.7602715,0.10339612,0.013768413,-0.0451298,0.0,3.0796115,-8.02646,4.7182965,0.011901379,-0.0994606,0.04197502,-0.22989602,-0.45451254,0.57781684,2017-05-27 13:04:38,82.5273165778279
3.127426,-8.118738,4.9374423,0.106588796,0.012704188,-0.039808672,0.0,3.0764008,-8.020418,4.7306504,0.051025152,-0.09832001,0.20679188,-0.22896111,-0.45429152,0.5790449,2017-05-27 13:04:39,82.02955438137714
3.0771477,-8.106767,4.7866077,0.10765302,0.013768413,-0.043001346,0.0,3.0563025,-8.016755,4.749848,0.013662577,-0.099588394,-0.035066128,-0.22857319,-0.45340872,0.58065903,2017-05-27 13:04:40,81.87453110417259
3.139397,-8.14268,4.7746367,0.098074995,0.020153765,-0.030230645,0.0,3.0825634,-8.01458,4.736529,0.056833506,-0.1281004,0.038107872,-0.22755556,-0.4546677,0.58036405,2017-05-27 13:04:41,82.98020554671265
3.0843303,-8.185776,4.8105497,0.10233189,0.011639963,-0.051515147,0.0,3.0855336,-8.020343,4.724825,-0.0012032986,-0.16543293,0.08572483,-0.22745642,-0.455373,0.58058333,2017-05-27 13:04:42,81.55692243198651
3.0532057,-8.070854,4.8225207,0.09913922,0.010575738,-0.03555177,0.0,3.0387344,-8.001102,4.787363,0.05996108,-0.029049873,0.056705475,-0.22718552,-0.45199463,0.58297104,2017-05-27 13:04:43,76.00332083580955
3.0148985,-8.154651,4.791396,0.10020345,0.013768413,-0.034487545,0.0,3.0518303,-8.006651,4.769725,-0.036931753,-0.14799976,0.021671295,-0.22736546,-0.4528981,0.5821638,2017-05-27 13:04:44,82.59974610198107
3.0867245,-8.087613,4.7985787,0.10339612,0.014832638,-0.03555177,0.0,3.0758471,-8.010096,4.7484655,0.010877371,-0.07751751,0.0501132,-0.22684352,-0.45435414,0.58156914,2017-05-27 13:04:45,67.2526035760069
3.1226375,-8.121132,4.8057613,0.10339612,0.013768413,-0.044065572,0.0,3.081328,-8.012646,4.7406034,0.041309595,-0.108486176,0.06515789,-0.22688784,-0.45477292,0.58128524,2017-05-27 13:04:46,79.60408762466705
3.0843303,-8.070854,4.863222,0.09913922,0.013768413,-0.03768022,0.0,3.0786762,-8.007907,4.750323,0.0056540966,-0.06294727,0.1128993,-0.22566548,-0.45483628,0.58294004,2017-05-27 13:04:47,81.29683014265066
3.0244753,-8.085219,4.8344917,0.10233189,0.010575738,-0.055772047,0.0,3.0538926,-8.007466,4.767033,-0.029417276,-0.07775307,0.06745863,-0.22591086,-0.45377666,0.5841106,2017-05-27 13:04:48,72.38943488907654
3.1609447,-8.1163435,4.848857,0.10020345,0.02121799,-0.029166419,0.0,3.0817006,-8.000727,4.760449,0.07924414,-0.1156168,0.08840799,-0.22540163,-0.45439935,0.5827958,2017-05-27 13:04:49,47.50521942236561
3.141791,-8.058883,4.8416743,0.09913922,0.016961088,-0.030230645,0.0,3.093158,-7.9887323,4.773146,0.0486331,-0.070150375,0.068528175,-0.22471884,-0.45402503,0.5824955,2017-05-27 13:04:50,82.71739188141436
3.1322143,-8.1402855,4.8344917,0.09913922,0.009511513,-0.055772047,0.0,3.0659184,-7.991928,4.785355,0.06629586,-0.14835739,0.04913664,-0.22545904,-0.45297134,0.58329076,2017-05-27 13:04:51,80.13726083577076
3.1322143,-8.063671,4.7985787,0.10765302,0.013768413,-0.03768022,0.0,3.0908518,-7.98982,4.7728205,0.041362524,-0.07385111,0.025758266,-0.22482179,-0.45399234,0.5825438,2017-05-27 13:04:52,54.72559314825138
3.0819361,-8.058883,4.7842135,0.10765302,0.016961088,-0.025973745,0.0,3.0509045,-7.9752502,4.822631,0.031031609,-0.08363247,-0.03841734,-0.22454967,-0.4513222,0.5847344,2017-05-27 13:04:53,81.53744710830827
3.0891187,-8.037335,4.896741,0.10446034,0.016961088,-0.03555177,0.0,3.0361285,-7.9630656,4.851999,0.052990198,-0.07426977,0.044742107,-0.22409348,-0.44988778,0.58573437,2017-05-27 13:04:54,81.95692356170811
3.091513,-8.090008,4.8704047,0.09594654,0.022282215,-0.034487545,0.0,3.0540922,-7.972046,4.8259115,0.03742075,-0.11796188,0.0444932,-0.22471292,-0.45105556,0.5841586,2017-05-27 13:04:55,65.4669074431773
3.1106665,-8.106767,4.8799815,0.101267666,0.012704188,-0.03555177,0.0,3.0789528,-7.973188,4.8081927,0.034107924,-0.056964397,-0.0144023895,-0.22501485,-0.45190567,0.5822433,2017-05-27 13:04:56,57.96717675294582
3.0627825,-8.0684595,4.911106,0.10446034,0.016961088,-0.040872894,0.0,3.076449,-7.960942,4.8300385,-0.013666391,-0.10751772,0.08106756,-0.22449154,-0.45093253,0.58256716,2017-05-27 13:04:57,76.9381079614839
3.0867245,-8.061277,4.95899,0.09913922,0.012704188,-0.034487545,0.0,3.0441232,-7.9611526,4.8501296,0.042601347,-0.100124836,0.10886049,-0.22558029,-0.4492502,0.58304113,2017-05-27 13:04:59,76.5517904132865
1.2479776,-9.258378,2.167351,0.24068117,0.032924466,0.0942837,0.0,1.5420996,-9.315341,2.6489162,-0.29412198,0.056962967,-0.48156524,-0.34208387,-0.49791715,0.57430756,2017-05-27 13:05:00,83.0569274676998
1.7818847,-8.7125,3.6110547,0.4162783,0.28940272,-0.28351623,0.0,1.9795711,-8.856164,3.717532,-0.19768643,0.14366436,-0.10647726,-0.2975323,-0.47109783,0.58844864,2017-05-27 13:05:01,78.79016498893478
1.3940239,-9.370906,3.2160115,0.1534147,0.0063188374,0.061292715,0.0,1.6064821,-9.179635,3.0535069,-0.21245825,-0.19127083,0.16250467,-0.3336896,-0.48266524,0.5767128,2017-05-27 13:05:02,73.13456666666563
2.2104468,-9.006987,3.2399535,0.28537863,0.27663204,-0.2313692,0.0,2.2415702,-8.872796,3.5240948,-0.0311234,-0.13419056,-0.2841413,-0.29780245,-0.48128462,0.5734601,2017-05-27 13:05:03,78.67424079812535
2.7419596,-9.181764,2.4690206,0.28963554,0.16275994,-0.0706712,0.0,2.7732904,-9.055883,2.5436666,-0.031330824,-0.12588024,-0.074645996,-0.27435222,-0.5431758,0.5725028,2017-05-27 13:05:04,48.246998338379896
2.7204118,-9.062054,2.9741971,0.14809358,0.064851224,-0.03342332,0.0,2.7136598,-8.948641,2.9543674,0.006752014,-0.11341286,0.01982975,-0.2745218,-0.52345675,0.57488394,2017-05-27 13:05:05,46.825170619452976
2.6797101,-8.966286,3.12982,0.10446034,0.033988692,-0.063221626,0.0,2.677244,-8.913622,3.0903265,-0.0047163963,-0.086182594,-0.003602028,-0.2730762,-0.5175583,0.5780286,2017-05-27 13:05:06,79.9356718814315
2.6868927,-8.973468,3.3213563,0.10020345,0.014832638,-0.0493867,0.0,2.67562,-8.868782,3.2181005,0.011272669,-0.10468578,0.10325575,-0.27151197,-0.5120584,0.5790153,2017-05-27 13:05:07,79.75915063180324
3.1082723,-8.731653,4.324527,0.08849697,-0.6183814,-0.043001346,0.0,3.045076,-8.577417,3.6504521,0.06319642,-0.15423584,0.67407465,-0.22795127,-0.51177824,0.60030663,2017-05-27 13:05:08,63.16927085451803
2.7419596,-8.827422,3.5464113,-0.0072833,0.1106129,-0.04193712,0.0,2.713941,-8.709732,3.597982,0.013653278,-0.09853554,-0.0036866665,-0.26165754,-0.49808565,0.58435553,2017-05-27 13:05:09,79.02316734058387
2.5384524,-8.7532015,3.8432922,0.089561194,0.012704188,-0.038744446,0.0,2.5117452,-8.663523,3.8477137,0.026707172,-0.089678764,-0.0044214725,-0.27282116,-0.47894657,0.58132976,2017-05-27 13:05:10,81.34844512655962
2.5839422,-8.671799,3.9223008,0.091689646,0.023346439,-0.0536436,0.0,2.546241,-8.650749,3.8537755,0.03770113,-0.0210495,0.068525314,-0.27183148,-0.4791866,0.5800852,2017-05-27 13:05:11,81.20001361957316
2.593519,-8.722076,3.8672342,0.10339612,0.022282215,-0.047258247,0.0,2.565154,-8.636616,3.8728845,0.028364897,-0.08546066,-0.005650282,-0.2715292,-0.4783406,0.5788449,2017-05-27 13:05:12,80.56772926630407
2.6150668,-8.74123,3.8911762,0.109781474,0.014832638,-0.034487545,0.0,2.5645995,-8.63915,3.8675985,0.031313658,-0.047014236,0.042731285,-0.2718271,-0.47845313,0.57859415,2017-05-27 13:05:13,78.74281845316565
2.5671828,-8.74123,3.9893386,0.09701077,0.013768413,-0.03768022,0.0,2.523011,-8.62203,3.9326098,0.04417181,-0.11919975,0.05672884,-0.2712192,-0.47532395,0.5811959,2017-05-27 13:05:14,71.90441519809755
2.5791538,-8.7053175,4.0467997,0.10020345,0.014832638,-0.039808672,2.0,2.545879,-8.606341,3.9521866,0.03327489,-0.098976135,0.094613075,-0.27076912,-0.47452992,0.5798347,2017-05-27 13:05:15,81.71577573911026
2.545635,-8.676587,3.9677908,0.101267666,0.015896864,-0.04193712,0.0,2.550159,-8.596398,3.9710228,-0.0045239925,-0.08018875,-0.0032320023,-0.27120337,-0.47326833,0.578651,2017-05-27 13:05:16,80.61923780982967
2.5671828,-8.6574335,3.994127,0.1236164,0.020153765,-0.047258247,0.0,2.5322998,-8.586869,4.002939,0.034883022,-0.07056427,-0.008812189,-0.271948,-0.47111696,0.5783827,2017-05-27 13:05:17,81.52620924994298
2.545635,-8.65025,4.1258082,0.09381809,0.010575738,-0.0493867,2.0,2.502792,-8.5763645,4.0438075,0.042843103,-0.07388592,0.08200073,-0.27258414,-0.46853077,0.57889307,2017-05-27 13:05:18,44.616159384958124
2.5528176,-8.6574335,4.0132804,0.09701077,0.011639963,-0.038744446,2.0,2.5303226,-8.580288,4.0182734,0.022495031,-0.07714558,-0.004992962,-0.2734564,-0.469411,0.57628393,2017-05-27 13:05:19,81.47323557722268
2.5384524,-8.643068,4.1545386,0.09594654,0.013768413,-0.04193712,0.0,2.5369081,-8.57039,4.035208,0.0015442371,-0.072678566,0.119330406,-0.27313903,-0.4686755,0.57590514,2017-05-27 13:05:20,79.2527258983784
2.4905684,-8.626308,4.257489,0.13106598,0.024410665,-0.031294867,2.0,2.463715,-8.528674,4.166802,0.026853323,-0.097634315,0.090687275,-0.2730036,-0.46154228,0.5786929,2017-05-27 13:05:21,77.69078079212858
2.4833858,-8.645462,4.245518,0.101267666,0.015896864,-0.04193712,2.0,2.4572065,-8.516973,4.194486,0.026179314,-0.1284895,0.051032066,-0.2741077,-0.45935357,0.5770969,2017-05-27 13:05:22,71.77843768716532
2.497751,-8.590396,4.2119994,0.098074995,0.012704188,-0.04619402,0.0,2.47576,-8.503098,4.211691,0.021991014,-0.08729839,3.0851364E-4,-0.27461255,-0.4580955,0.57468796,2017-05-27 13:05:23,79.96183939857885
2.5384524,-8.573636,4.276643,0.11084569,0.014832638,-0.048322473,2.0,2.4915009,-8.505105,4.1983337,0.046951532,-0.06853104,0.07830906,-0.2752421,-0.45846084,0.57298684,2017-05-27 13:05:24,49.80909602549018
2.5192988,-8.571242,4.14975,0.09381809,0.014832638,-0.047258247,2.0,2.4575229,-8.502769,4.223019,0.03304553,-0.09959698,0.056017876,-0.27562457,-0.45685562,0.5743904,2017-05-27 13:05:25,45.286137609748224
2.5025394,-8.6095495,4.276643,0.092753865,0.011639963,-0.044065572,2.0,2.4759595,-8.4948225,4.2282405,0.026579857,-0.11472702,0.04840231,-0.27551004,-0.45649803,0.573035,2017-05-27 13:05:26,75.85338040133992
2.5192988,-8.604761,4.291008,0.1151026,0.016961088,-0.0451298,2.0,2.4718125,-8.489855,4.2406244,0.047486305,-0.11490631,0.050383568,-0.27573878,-0.4558031,0.57278347,2017-05-27 13:05:27,79.76843055581818
2.4881742,-8.564059,4.3676224,0.10233189,0.014832638,-0.03555177,2.0,2.4699662,-8.468545,4.284089,0.018208027,-0.0955143,0.08353329,-0.27494675,-0.4538464,0.57297856,2017-05-27 13:05:28,74.97541719800091
2.5001452,-8.542512,4.396353,0.106588796,0.016961088,-0.04193712,0.0,2.4752338,-8.45189,4.3138347,0.024911404,-0.09062195,0.0825181,-0.27493796,-0.4521778,0.5718782,2017-05-27 13:05:29,46.309750175783506
2.4522612,-8.571242,4.3795934,0.101267666,0.014832638,-0.036615998,2.0,2.4458332,-8.443637,4.3466406,0.0064280033,-0.12760544,0.032952785,-0.27532226,-0.4500896,0.5727098,2017-05-27 13:05:30,81.91424871679448
2.473809,-8.535329,4.3915644,0.09701077,0.014832638,-0.04193712,2.0,2.435372,-8.444989,4.349888,0.03843689,-0.09033966,0.04167652,-0.27576458,-0.44963467,0.5727885,2017-05-27 13:05:31,74.60118677503799
2.4498668,-8.540117,4.3460746,0.10765302,0.016961088,-0.043001346,2.0,2.4557283,-8.440517,4.3471217,0.027657509,-0.070869446,0.073173046,-0.2757843,-0.4497794,0.5713166,2017-05-27 13:05:32,81.16494347855038
2.4642322,-8.532935,4.396353,0.11190992,0.015896864,-0.039808672,2.0,2.4422946,-8.411568,4.410342,0.021937609,-0.121367455,-0.013989449,-0.27509496,-0.44660708,0.5716506,2017-05-27 13:05:33,82.03093940531639
2.428319,-8.51857,4.563947,0.10339612,0.013768413,-0.040872894,2.0,2.40716,-8.396247,4.4585896,0.021158934,-0.122323036,0.10535765,-0.27485543,-0.44399288,0.5733392,2017-05-27 13:05:34,44.957663999604435
2.392406,-8.4826565,4.551976,0.086368516,0.014832638,-0.060028948,0.0,2.4094968,-8.372043,4.5026226,-0.017090797,-0.11061382,0.0493536,-0.27415895,-0.44189027,0.57294935,2017-05-27 13:05:35,81.81558671214374
2.4474726,-8.453926,4.50888,0.09594654,0.016961088,-0.036615998,2.0,2.4241579,-8.373752,4.4915643,0.023314714,-0.080174446,0.017315865,-0.27426812,-0.44246012,0.5719911,2017-05-27 13:05:36,43.90537594334005
2.4546554,-8.513782,4.547188,0.1151026,0.013768413,-0.0493867,2.0,2.4046664,-8.364322,4.5195227,0.049988985,-0.14945984,0.027665138,-0.27405456,-0.4409791,0.57299197,2017-05-27 13:05:37,82.00911554888611
2.404377,-8.50181,4.597466,0.106588796,0.013768413,-0.04619402,2.0,2.3840044,-8.36035,4.537781,0.02037263,-0.14146042,0.05968523,-0.27431896,-0.43975753,0.57366186,2017-05-27 13:05:38,46.79427025902295
2.4570496,-8.468291,4.611831,0.09913922,0.012704188,-0.04619402,2.0,2.4069185,-8.354611,4.5362535,0.050131083,-0.113679886,0.075577736,-0.27425402,-0.43988654,0.5720583,2017-05-27 13:05:39,66.9699101932896
2.4378958,-8.418014,4.587889,0.10233189,0.015896864,-0.030230645,2.0,2.3779428,-8.343937,4.571052,0.059952974,-0.07407665,0.01683712,-0.2745302,-0.4376921,0.57285875,2017-05-27 13:05:40,79.58613001765922
2.3756466,-8.470686,4.630985,0.10552457,0.012704188,-0.043001346,0.0,2.3651505,-8.345839,4.5742145,0.0104961395,-0.12484741,0.056770325,-0.27528864,-0.43703103,0.57263803,2017-05-27 13:05:41,80.9608637344199
2.4019828,-8.420407,4.59986,0.091689646,0.016961088,-0.04193712,0.0,2.3952527,-8.342225,4.565134,0.0067300797,-0.07818222,0.034726143,-0.2752842,-0.43756318,0.57061267,2017-05-27 13:05:42,69.40082233231566
2.3828292,-8.475474,4.6046486,0.10020345,0.013768413,-0.0451298,2.0,2.4025424,-8.342749,4.560342,-0.019713163,-0.13272572,0.044306755,-0.27519804,-0.43789646,0.57032204,2017-05-27 13:05:43,74.8276953380702
2.4019828,-8.3821,4.6764746,0.11935949,0.015896864,-0.048322473,2.0,2.3877633,-8.328174,4.5946183,0.045344114,-0.13772392,0.09143305,-0.27499652,-0.4360236,0.5707282,2017-05-27 13:05:44,75.46495336989635
2.3876176,-8.389283,4.6860514,0.101267666,0.015896864,-0.031294867,2.0,2.3647385,-8.316962,4.626722,0.022879124,-0.07232094,0.05932951,-0.27529797,-0.43395147,0.5710794,2017-05-27 13:05:45,77.96449901189672
2.3948002,-8.437167,4.6980224,0.10339612,0.014832638,-0.047258247,2.0,2.371873,-8.303393,4.647393,0.022927284,-0.1337738,0.05062914,-0.2752069,-0.43279332,0.5700235,2017-05-27 13:05:46,67.85506118190226
2.3971944,-8.360553,4.683657,0.10339612,0.018025314,-0.031294867,2.0,2.35083,-8.292861,4.6767993,0.046364307,-0.0676918,0.006857872,-0.27558553,-0.43081576,0.5701609,2017-05-27 13:05:47,46.17374112328193
2.3110032,-8.317456,4.741118,0.10871725,0.014832638,-0.04193712,2.0,2.3142865,-8.286093,4.7069235,-0.0032832623,-0.031363487,0.03419447,-0.27635098,-0.42853686,0.5708817,2017-05-27 13:05:48,82.48002466163376
2.3900118,-8.372523,4.851251,0.098074995,0.011639963,-0.047258247,2.0,2.3393223,-8.280822,4.703824,0.012382269,-0.05099964,0.051659107,-0.2761324,-0.428862,0.5693643,2017-05-27 13:05:49,62.382296682835445
2.392406,-8.377312,4.8081555,0.091689646,0.035052918,-0.048322473,0.0,2.3525357,-8.274322,4.708668,0.039870262,-0.10299015,0.099487305,-0.27689055,-0.42808452,0.5670311,2017-05-27 13:05:50,77.08202035632291
2.3636756,-8.379706,4.741118,0.09594654,0.012704188,-0.038744446,2.0,2.352566,-8.268567,4.7187533,0.0111095905,-0.1111393,0.022364616,-0.27678818,-0.4275498,0.5668475,2017-05-27 13:05:51,80.44263711411611
2.392406,-8.312668,4.851251,0.09701077,0.013768413,-0.031294867,2.0,2.3213549,-8.263251,4.743458,0.07105112,-0.049416542,0.10779333,-0.27692127,-0.42598775,0.5682603,2017-05-27 13:05:52,80.92841715107122
2.3301568,-8.3629465,4.827309,0.089561194,0.012704188,-0.038744446,0.0,2.3248935,-8.252893,4.7597275,0.012445927,-0.074139595,0.12743664,-0.27603674,-0.425588,0.56877756,2017-05-27 13:05:53,46.914652736138976
2.356493,-8.334216,4.8225207,0.11616682,0.018025314,-0.040872894,2.0,2.3405404,-8.238188,4.7775025,0.015952587,-0.09602833,0.045018196,-0.27501637,-0.42518368,0.5684971,2017-05-27 13:05:54,82.38158056462467
2.3612814,-8.327033,4.7985787,0.10339612,0.013768413,-0.04193712,2.0,2.3368459,-8.230166,4.79311,0.02443552,-0.09686661,0.0054688454,-0.27561048,-0.42386115,0.5673414,2017-05-27 13:05:55,75.1226884535261
2.3397336,-8.295909,4.88477,0.09701077,0.014832638,-0.03342332,2.0,2.3173652,-8.221835,4.8168073,0.019974232,-0.098015785,0.041626453,-0.27541497,-0.42256096,0.5683525,2017-05-27 13:05:56,78.10400314397872
2.3014264,-8.341399,4.9518075,0.10339612,0.014832638,-0.056836274,2.0,2.270409,-8.20409,4.8691406,0.031017303,-0.13730907,0.082666874,-0.27525374,-0.41949767,0.57046133,2017-05-27 13:05:57,80.06876298755768
2.3397336,-8.288726,4.9135003,0.112974145,0.014832638,-0.05045092,0.0,2.2975118,-8.19428,4.8729467,0.042221785,-0.09444618,0.04055357,-0.27473977,-0.4196033,0.5689699,2017-05-27 13:05:58,80.13536164972264
2.3181858,-8.252813,5.0212393,0.09913922,0.013768413,-0.03555177,2.0,2.3127506,-8.180371,4.88908,0.03177142,-0.09638405,-0.07613611,-0.27384996,-0.41920462,0.5685537,2017-05-27 13:05:59,81.22358927149062
2.3540988,-8.250419,4.95899,0.07040514,0.008447288,-0.0451298,2.0,2.3009226,-8.1550255,4.936772,0.053176165,-0.09539318,0.022218227,-0.2730919,-0.41679192,0.5689229,2017-05-27 13:06:00,75.45616250484757
2.3397336,-8.274361,4.9996915,0.09594654,0.014832638,-0.03768022,2.0,2.2985651,-8.143336,4.957123,0.04116845,-0.13102436,0.042568684,-0.27255955,-0.4158947,0.5691842,2017-05-27 13:06:01,74.73252495755514
2.2750902,-8.226477,5.071518,0.109781474,0.014832638,-0.044065572,2.0,2.259466,-8.133784,4.9906654,-0.0011351109,-0.13818264,0.0018434525,-0.27233264,-0.41398284,0.57141405,2017-05-27 13:06:02,79.19462147898105
2.2942438,-8.24563,4.9877205,0.10339612,0.014832638,-0.040872894,2.0,2.2753189,-8.130688,4.9885106,0.018924952,-0.11494255,-7.901192E-4,-0.27242634,-0.41405395,0.57007194,2017-05-27 13:06:03,79.56117379697707
2.3277626,-8.236053,5.0667295,0.10446034,0.014832638,-0.039808672,0.0,2.2796974,-8.13444,4.9803886,0.048065186,-0.101613045,0.086340904,-0.2729259,-0.41422495,0.5692396,2017-05-27 13:06:04,66.91404416517373
2.3301568,-8.238448,5.1481323,0.098074995,0.013768413,-0.040872894,2.0,2.277183,-8.136013,4.9789686,0.04579115,-0.100040436,0.11888552,-0.2729486,-0.41429737,0.5694607,2017-05-27 13:06:05,46.794160093794105
2.2463598,-8.228871,5.0906715,0.11190992,0.015896864,-0.055772047,2.0,2.2380817,-8.127428,5.010618,0.0082781315,-0.10144329,0.08005333,-0.27312642,-0.4122275,0.5711118,2017-05-27 13:06:06,70.30363547912518
2.2918496,-8.252813,5.083489,0.11190992,0.013768413,-0.052579373,2.0,2.2403834,-8.132202,5.001836,0.051466227,-0.12061119,0.08165312,-0.27369305,-0.4123948,0.57036555,2017-05-27 13:06:07,76.61027222614817
2.2655134,-8.180987,4.9661727,0.16086428,0.025474891,-0.03555177,2.0,2.268654,-8.121856,5.005902,-0.003140688,-0.059131622,-0.03972912,-0.27245706,-0.4129615,0.5698909,2017-05-27 13:06:08,45.995322712833456
2.203264,-8.154651,5.191228,0.07253359,0.010575738,-0.04193712,0.0,2.1712654,-8.064334,5.1402845,0.034392834,-0.12623024,0.11798096,-0.2718031,-0.4050204,0.573479,2017-05-27 13:06:09,77.16071564790991
2.2439656,-8.192958,5.1265845,0.101267666,0.014832638,-0.040872894,2.0,2.2086985,-8.084396,5.0926003,0.035267115,-0.108561516,0.033984184,-0.27249742,-0.40754732,0.5712518,2017-05-27 13:06:10,47.67230902221559
2.2918496,-8.123527,5.1984105,0.10020345,0.013768413,-0.04193712,2.0,2.225846,-8.088243,5.0790086,0.06600356,-0.035284042,0.11940193,-0.2718939,-0.40879866,0.5713777,2017-05-27 13:06:11,82.70235508602178
2.2774844,-8.118738,5.3324857,0.091689646,0.012704188,-0.039808672,2.0,2.2199924,-8.053285,5.1367903,0.057492018,-0.06545353,0.1956954,-0.26970008,-0.4066429,0.5730534,2017-05-27 13:06:12,78.38305786284198
2.1841104,-8.1642275,5.205593,0.11403837,0.011639963,-0.055772047,2.0,2.2106636,-8.038406,5.164048,-0.026553154,-0.12582111,0.041544914,-0.26885328,-0.40549323,0.5740692,2017-05-27 13:06:13,80.5147217097044
2.2319946,-8.133103,5.3205147,0.09062542,0.018025314,-0.04193712,2.0,2.199739,-8.003479,5.2226295,0.03225565,-0.12962437,0.09788513,-0.2674149,-0.40275213,0.5748611,2017-05-27 13:06:14,45.00910447480506
2.2152352,-8.106767,5.2462945,0.08530429,0.012704188,-0.03768022,2.0,2.1951642,-8.00384,5.224002,0.02007103,-0.102926254,0.022292614,-0.26716653,-0.40283006,0.5755871,2017-05-27 13:06:15,80.38934311979929
2.2319946,-8.11395,5.3300915,0.10446034,0.013768413,-0.0451298,2.0,2.1954763,-8.003326,5.224656,0.014970541,-0.06992149,0.091070175,-0.26679334,-0.40303597,0.57614434,2017-05-27 13:06:16,65.14175643697668
2.1936872,-8.054094,5.4234653,0.09913922,0.013768413,-0.039808672,0.0,2.1617792,-7.9857626,5.2654257,0.031908035,-0.06833172,0.15803957,-0.26595467,-0.4010064,0.57856786,2017-05-27 13:06:17,81.93256476498223
2.2272062,-8.042124,5.382764,0.084240064,0.010575738,-0.048322473,2.0,2.1718843,-7.9575524,5.3038373,0.05532193,-0.08457136,0.07892656,-0.2647222,-0.3993767,0.57810855,2017-05-27 13:06:18,69.76261126807768
2.15538,-7.9846625,5.61979,-0.00196217,-0.0032591894,-0.031294867,0.0,2.1352456,-7.8824887,5.429319,0.020134449,-0.102173805,0.19047117,-0.26421624,-0.39162683,0.5763391,2017-05-27 13:06:19,81.51030257483134
2.167351,-8.183381,5.191228,0.086368516,0.011639963,-0.047258247,2.0,2.1561177,-8.079131,5.123397,-0.015102863,-0.087491035,0.053465843,-0.27438417,-0.40434238,0.57121205,2017-05-27 13:06:20,67.64350715974619
2.2224178,-8.228871,5.0523643,0.09701077,0.013768413,-0.038744446,2.0,2.1806488,-8.1123,5.060213,0.041769028,-0.11657143,-0.00784874,-0.27619568,-0.4070834,0.56886816,2017-05-27 13:06:21,44.63333841935341
2.4115596,-8.678981,4.008492,-0.014732875,-0.026672143,-0.0493867,2.0,2.3994305,-8.570595,4.1180134,0.012129068,-0.10838604,-0.10952139,-0.2976153,-0.44884843,0.55071026,2017-05-27 13:06:22,43.207466190531306
3.0556,-8.7292595,3.5033157,0.10871725,-0.4151143,0.008081462,0.0,3.0696692,-8.618461,3.5312414,0.07212186,-0.09164524,0.08220744,-0.25218785,-0.50631815,0.57200253,2017-05-27 13:06:23,80.44091018237634
3.0579941,-8.789114,3.4290953,-0.008347519,0.29578808,-0.043001346,0.0,3.0779397,-8.695854,3.3284807,-0.019945621,-0.09325981,0.10061455,-0.22650796,-0.52819395,0.6013921,2017-05-27 13:06:24,47.163428688382155
2.854487,-8.63828,2.8161798,-0.01686132,-0.25441632,0.18793552,0.0,2.8089542,-8.95099,2.8565626,0.045532703,0.3127098,-0.040382862,-0.27352703,-0.5287143,0.5703801,2017-05-27 13:06:25,48.211207335502586
2.866458,-8.789114,3.721188,0.16724962,0.032924466,0.0942837,0.0,2.668615,-8.671827,3.7213306,0.19784284,-0.11728668,-1.4257431E-4,-0.2705997,-0.48686832,0.5751402,2017-05-27 13:06:26,81.71881826006653
2.7371712,-8.762778,3.6804867,0.084240064,0.022282215,-0.069606975,0.0,2.644562,-8.723342,3.6166272,0.09260917,-0.03943634,0.06385946,-0.27290836,-0.49104413,0.5754135,2017-05-27 13:06:27,68.98433120327353
2.689287,-8.887277,3.6349967,0.12042372,0.015896864,-0.044065572,0.0,2.65667,-8.740331,3.5663881,0.032616854,-0.14694595,0.06860852,-0.274842,-0.4925715,0.5729044,2017-05-27 13:06:28,74.25145848893712
2.698864,-8.808268,3.6182373,0.10339612,0.014832638,-0.039808672,0.0,2.6679144,-8.725244,3.5948243,0.030949593,-0.083024025,0.023412943,-0.27381572,-0.49167055,0.57300836,2017-05-27 13:06:29,68.03848324110277
2.6797101,-8.767567,3.8600516,0.12042372,0.029731791,-0.043001346,0.0,2.6383474,-8.698683,3.680007,0.041362762,-0.068883896,0.18004465,-0.27298728,-0.4876985,0.5748823,2017-05-27 13:06:30,48.27377082098185
2.6605566,-8.765172,3.5727475,0.10552457,0.015896864,-0.03768022,0.0,2.648659,-8.706,3.655211,0.011897564,-0.059171677,-0.0824635,-0.2736942,-0.4885976,0.57365566,2017-05-27 13:06:31,80.28041944459665
2.7012582,-8.791509,3.663727,0.098074995,0.013768413,-0.04193712,0.0,2.6645005,-8.6983595,3.6618834,0.036757708,-0.093149185,0.0018436909,-0.27301773,-0.4886279,0.5733017,2017-05-27 13:06:32,77.6678839605094
2.6701334,-8.7532015,3.6780925,0.11190992,0.014832638,-0.040872894,0.0,2.6742187,-8.693295,3.6668184,-0.0040853024,-0.05990696,0.011274099,-0.27200353,-0.48893595,0.5738053,2017-05-27 13:06:33,45.867659502878205
2.6797101,-8.779537,3.7235823,0.10020345,0.013768413,-0.03555177,0.0,2.671815,-8.68967,3.67715,0.007895231,-0.08986759,0.046432257,-0.27174982,-0.48853818,0.5741366,2017-05-27 13:06:34,72.3945785295293
2.689287,-8.846576,3.7523127,0.09913922,0.012704188,-0.038744446,0.0,2.6663933,-8.688467,3.6839223,0.022893667,-0.15810871,0.06839037,-0.27169928,-0.4882128,0.5744766,2017-05-27 13:06:35,70.10469630385923
2.6222494,-8.810662,3.8073792,0.11190992,0.015896864,-0.039808672,0.0,2.636058,-8.689261,3.7038257,-0.013808727,-0.12140083,0.10355353,-0.27211058,-0.4869428,0.5757783,2017-05-27 13:06:36,45.1909247658497
2.6342204,-8.743625,3.781043,0.118295275,0.016961088,-0.040872894,0.0,2.6388865,-8.672963,3.7398386,-0.00466609,-0.070661545,0.041204453,-0.2713263,-0.4854929,0.5760295,2017-05-27 13:06:37,78.34914407731964
2.677316,-8.731653,3.8935704,0.118295275,0.022282215,-0.04619402,0.0,2.646446,-8.65128,3.784452,0.03086996,-0.08037281,0.10911846,-0.27013406,-0.48381218,0.5763177,2017-05-27 13:06:38,74.20895150370394
2.6629508,-8.750807,3.7954082,0.10446034,0.014832638,-0.040872894,0.0,2.6463723,-8.636243,3.8186917,0.06685686,-0.07865143,0.07487869,-0.269661,-0.48226947,0.5763856,2017-05-27 13:06:40,69.52175545903643
2.6437972,-8.700529,3.8863878,0.10552457,0.015896864,-0.040872894,0.0,2.6211402,-8.630096,3.8498638,0.022656918,-0.07043266,0.036524057,-0.26999116,-0.4804335,0.57724124,2017-05-27 13:06:41,45.141683263580276
2.6078842,-8.750807,3.934272,0.11723105,0.014832638,-0.047258247,0.0,2.605055,-8.627375,3.8668442,0.0028290749,-0.12343216,0.06742787,-0.27018946,-0.47941995,0.57784325,2017-05-27 13:06:42,45.48465888999715
2.6318262,-8.707711,3.9390604,0.10765302,0.013768413,-0.04193712,0.0,2.6185975,-8.609284,3.8978934,0.013228655,-0.12955189,0.04834962,-0.2690685,-0.47839826,0.5778008,2017-05-27 13:06:43,82.10221034983762
2.6581624,-8.698134,3.9725792,0.08849697,0.011639963,-0.044065572,0.0,2.616758,-8.586657,3.9487078,0.041404247,-0.11147785,0.023871422,-0.26843897,-0.47603828,0.57787144,2017-05-27 13:06:44,78.56702512773442
2.5911248,-8.693346,3.9917328,0.11403837,0.015896864,-0.043001346,0.0,2.5940855,-8.5847,3.967878,-0.002960682,-0.10864639,0.023854733,-0.2689138,-0.47474194,0.57853454,2017-05-27 13:06:45,77.29228398743902
2.5767596,-8.669404,4.099472,0.09594654,0.011639963,-0.051515147,0.0,2.566334,-8.577148,4.002106,0.010425568,-0.09225559,0.097365856,-0.2692169,-0.4727279,0.579504,2017-05-27 13:06:46,77.71307562898888
2.5839422,-8.710106,4.061165,0.10765302,0.013768413,-0.043001346,0.0,2.5822117,-8.56868,4.0100274,0.001730442,-0.14142609,0.051137447,-0.26840493,-0.4727624,0.5792806,2017-05-27 13:06:47,78.61895061453679
2.6198552,-8.611943,4.0707417,0.11190992,0.012704188,-0.0493867,0.0,2.5842698,-8.560794,4.025512,0.035585403,-0.05114937,0.045229435,-0.26771498,-0.47231844,0.5797428,2017-05-27 13:06:48,44.92980942275726
2.5983074,-8.628703,4.0922894,0.092753865,0.011639963,-0.04619402,0.0,2.5806165,-8.541456,4.0687037,0.017690897,-0.087246895,0.023585796,-0.26649162,-0.47067714,0.5807859,2017-05-27 13:06:49,81.79944811763815
2.6150668,-8.62152,4.111443,0.10339612,0.013768413,-0.0451298,0.0,2.5905046,-8.541401,4.0625305,0.02456212,-0.08011913,0.048912525,-0.26628152,-0.47112924,0.58047193,2017-05-27 13:06:50,45.677905391968004
2.593519,-8.611943,4.204817,0.10020345,0.013768413,-0.047258247,0.0,2.586044,-8.528876,4.0915823,0.024234295,-0.13095093,0.022254944,-0.26568624,-0.46989167,0.5810205,2017-05-27 13:06:51,77.56867405318059
2.6126726,-8.63828,4.111443,0.118295275,0.019089539,-0.036615998,0.0,2.5527296,-8.525701,4.119027,0.05994296,-0.112579346,-0.007584095,-0.2662418,-0.46808478,0.5821602,2017-05-27 13:06:52,79.70224102954259
2.5743654,-8.607155,4.173692,0.084240064,0.023346439,-0.039808672,0.0,2.53687,-8.494736,4.192154,0.037495375,-0.11241913,-0.018461704,-0.2651156,-0.46472934,0.5833452,2017-05-27 13:06:53,66.78425719666623
2.5983074,-8.573636,4.173692,0.11084569,0.018025314,-0.044065572,0.0,2.5554664,-8.495126,4.1800485,0.042840958,-0.078510284,-0.0063562393,-0.26532826,-0.4652717,0.5819684,2017-05-27 13:06:54,59.94743531106035
2.593519,-8.576031,4.2838254,0.08530429,0.014832638,-0.036615998,0.0,2.545401,-8.470805,4.235184,0.048117876,-0.10522556,0.048641205,-0.2645292,-0.4626986,0.5826289,2017-05-27 13:06:55,78.54556806544988
2.5025394,-8.602366,4.3197384,0.09488232,0.011639963,-0.047258247,0.0,2.5142143,-8.482292,4.2308207,-0.011674881,-0.12007427,0.08891773,-0.26586106,-0.46217537,0.5832092,2017-05-27 13:06:56,45.647014651069114
2.545635,-8.552089,4.31495,0.10233189,0.014832638,-0.038744446,0.0,2.5292199,-8.479063,4.2283483,0.01641512,-0.0730257,0.086601734,-0.26478392,-0.4629295,0.5836026,2017-05-27 13:06:57,82.05780229814903
2.5887306,-8.576031,4.2503066,0.106588796,0.013768413,-0.0536436,0.0,2.5470572,-8.470468,4.2348638,0.04167342,-0.105563164,0.015442848,-0.26404884,-0.46299055,0.5831521,2017-05-27 13:06:58,61.339304663577494
2.5767596,-8.561666,4.279037,0.08743274,0.013768413,-0.034487545,0.0,2.5517242,-8.465726,4.241531,0.025035381,-0.095939636,0.037506104,-0.26450393,-0.46236327,0.5820719,2017-05-27 13:06:59,74.58176545922623
2.6030958,-8.520964,4.377199,0.10871725,0.015896864,-0.03555177,0.0,2.523022,-8.476576,4.2370305,0.06570864,-0.041994095,0.0036993027,-0.2659518,-0.4617805,0.5823225,2017-05-27 13:07:00,81.25038946959656
2.5312698,-8.583213,4.252701,0.09381809,0.012704188,-0.043001346,0.0,2.5201774,-8.47744,4.236991,0.011092424,-0.10577297,0.015709877,-0.2659073,-0.46180826,0.5825884,2017-05-27 13:07:01,79.4910327616048
2.581548,-8.580819,4.324527,0.11190992,0.015896864,-0.044065572,0.0,2.5377288,-8.466135,4.2491026,0.04381919,-0.114684105,0.075424194,-0.26521206,-0.4615394,0.5819867,2017-05-27 13:07:02,81.16900279875722
2.5408466,-8.611943,4.326921,0.09913922,0.012704188,-0.043001346,0.0,2.5372114,-8.454219,4.273072,0.003635168,-0.15772438,0.05384922,-0.26516,-0.46024358,0.5815826,2017-05-27 13:07:03,62.17487170702845
2.5911248,-8.523358,4.336498,0.077854715,0.012704188,-0.04619402,0.0,2.538365,-8.44668,4.287273,0.0120584965,-0.10301399,0.13781023,-0.26498687,-0.45955616,0.58142257,2017-05-27 13:07:04,76.36610455353623
2.521693,-8.523358,4.3700166,0.112974145,0.015896864,-0.044065572,0.0,2.4974244,-8.464655,4.27585,0.024268627,-0.058703423,0.094166756,-0.2666229,-0.45924348,0.58245945,2017-05-27 13:07:05,77.69803740384658
2.5671828,-8.573636,4.317344,0.091689646,0.012704188,-0.043001346,0.0,2.5089922,-8.454266,4.2896085,0.058190584,-0.11937046,0.02773571,-0.26623693,-0.4587033,0.581836,2017-05-27 13:07:06,45.48935423773747
2.5600002,-8.566454,4.329315,0.09701077,0.012704188,-0.0451298,0.0,2.5312774,-8.441267,4.3020973,0.04308796,-0.07730293,0.03918886,-0.2656429,-0.4583535,0.5807317,2017-05-27 13:07:07,80.31986917820312
2.557606,-8.535329,4.482544,0.09488232,0.014832638,-0.054707825,0.0,2.5356534,-8.431363,4.3189087,0.02195263,-0.10396576,0.16363525,-0.26585075,-0.45729676,0.5797521,2017-05-27 13:07:08,79.67642517464095
2.5408466,-8.47308,4.425083,0.09488232,0.014832638,-0.03768022,0.0,2.5269775,-8.414158,4.3573766,0.013869047,-0.058921814,0.067706585,-0.2652588,-0.4554925,0.5803127,2017-05-27 13:07:09,79.86060855741178
2.4881742,-8.492233,4.3556514,0.10339612,0.014832638,-0.03555177,0.0,2.4927006,-8.411438,4.3823,0.04814601,-0.078401566,0.06911945,-0.2654636,-0.45397574,0.58198076,2017-05-27 13:07:10,64.79342644685477
2.5623944,-8.475474,4.410718,0.09701077,0.013768413,-0.04193712,0.0,2.5068405,-8.405501,4.3856225,0.055553913,-0.06997299,0.025095463,-0.26461148,-0.45428652,0.58202386,2017-05-27 13:07:11,45.910640038393
2.5671828,-8.480263,4.386776,0.101267666,0.012704188,-0.04619402,0.0,2.51626,-8.401523,4.387851,0.05092287,-0.07874012,-0.0010752678,-0.2643942,-0.45428798,0.58157283,2017-05-27 13:07:12,70.34568669599058
2.5600002,-8.465898,4.4298716,0.09594654,0.013768413,-0.031294867,0.0,2.5035603,-8.397395,4.402992,0.056439877,-0.068502426,0.026879787,-0.26486987,-0.45315987,0.5815032,2017-05-27 13:07:13,44.872697992237335
2.509722,-8.5473,4.410718,0.10233189,0.012704188,-0.043001346,0.0,2.4755669,-8.41335,4.388337,0.03415513,-0.13395023,0.022380829,-0.2664897,-0.45303455,0.58169866,2017-05-27 13:07:14,82.15491018695191
2.4762032,-8.508993,4.4418426,0.098074995,0.010575738,-0.052579373,0.0,2.4920928,-8.412977,4.379689,-0.015889645,-0.09601593,0.06215334,-0.26699293,-0.45322487,0.579993,2017-05-27 13:07:15,80.48172525309627
2.509722,-8.499416,4.532822,0.10871725,0.014832638,-0.0451298,0.0,2.5100431,-8.404029,4.386614,-3.2114983E-4,-0.09538746,0.14620829,-0.26636097,-0.45320722,0.5793668,2017-05-27 13:07:16,45.79440549482161
2.509722,-8.525752,4.386776,0.101267666,0.012704188,-0.04619402,0.0,2.516511,-8.402411,4.3860073,-0.006788969,-0.12334061,7.686615E-4,-0.2665354,-0.4531388,0.5786618,2017-05-27 13:07:17,82.01543724277133
2.521693,-8.511387,4.446631,0.10020345,0.014832638,-0.038744446,0.0,2.5092773,-8.400362,4.3940687,0.0124156475,-0.11102486,0.052562237,-0.2666579,-0.45261288,0.57883537,2017-05-27 13:07:18,45.07928641395235
2.5360582,-8.497022,4.4562078,0.12042372,0.016961088,-0.048322473,0.0,2.4777398,-8.408265,4.396849,0.058318377,-0.08875656,0.059358597,-0.26733696,-0.4520814,0.58019835,2017-05-27 13:07:19,57.915637376176356
2.545635,-8.492233,4.5423994,0.10765302,0.013768413,-0.047258247,0.0,2.4993618,-8.409005,4.3831744,0.04627323,-0.08322811,0.15922499,-0.2672319,-0.45288786,0.57904327,2017-05-27 13:07:20,76.97426817054915
2.5408466,-8.449138,4.4394484,0.092753865,0.011639963,-0.044065572,0.0,2.511238,-8.3977,4.3980336,0.029608488,-0.051437378,0.041414738,-0.26655996,-0.4524472,0.5787285,2017-05-27 13:07:21,77.4798405442779
2.5240872,-8.487445,4.362834,0.11723105,0.016961088,-0.044065572,0.0,2.5121813,-8.405139,4.38326,0.011905909,-0.08230591,-0.020425797,-0.2667771,-0.4531511,0.5787166,2017-05-27 13:07:22,79.59264225273691
2.5049336,-8.513782,4.4681787,0.10020345,0.013768413,-0.03342332,0.0,2.4915068,-8.399073,4.406627,0.032580376,-0.047671318,0.09746456,-0.26638275,-0.45206723,0.5802292,2017-05-27 13:07:23,62.82536276297677
2.5192988,-8.485051,4.4657845,0.077854715,0.012704188,-0.05045092,0.0,2.4899578,-8.390919,4.423006,0.029340982,-0.09413242,0.042778492,-0.26554126,-0.45163846,0.5811074,2017-05-27 13:07:24,81.63678752982025
2.5192988,-8.51857,4.4633904,0.10552457,0.012704188,-0.0493867,0.0,2.508076,-8.39391,4.407065,0.011222839,-0.12465954,0.056325436,-0.26510683,-0.45279202,0.580746,2017-05-27 13:07:25,45.44846981541202
2.5528176,-8.432379,4.5040917,0.106588796,0.014832638,-0.038744446,0.0,2.512757,-8.385655,4.420093,0.04006052,-0.046723366,0.08399868,-0.2640217,-0.45269254,0.58157766,2017-05-27 13:07:26,81.77332527206347
2.5312698,-8.532935,4.410718,0.10020345,0.013768413,-0.039808672,0.0,2.4982371,-8.38154,4.4360986,0.033032656,-0.15139484,-0.025380611,-0.26381654,-0.45191014,0.58255225,2017-05-27 13:07:27,80.30149359345101
2.5073278,-8.470686,4.561553,0.10446034,0.013768413,-0.044065572,0.0,2.4779663,-8.381027,4.448422,0.029361486,-0.08965874,0.11313105,-0.2642894,-0.4509376,0.58310694,2017-05-27 13:07:28,81.46089220270338
2.497751,-8.480263,4.4777555,0.121487945,0.016961088,-0.043001346,0.0,2.4845333,-8.380736,4.4453077,0.013217688,-0.099526405,0.032447815,-0.26422176,-0.45115325,0.58278847,2017-05-27 13:07:29,81.48589671858394
2.5192988,-8.441956,4.5040917,0.08849697,0.013768413,-0.03555177,0.0,2.498485,-8.378149,4.442362,0.020813704,-0.063806534,0.061729908,-0.26335457,-0.45182624,0.5830187,2017-05-27 13:07:30,54.64298070015435
2.569577,-8.463503,4.5280337,0.112974145,0.014832638,-0.0451298,0.0,2.4845743,-8.381715,4.4434385,0.070637465,-0.055452347,-0.027932167,-0.26394948,-0.45141816,0.5832058,2017-05-27 13:07:31,82.14299806780245
2.4666264,-8.475474,4.532822,0.092753865,0.013768413,-0.039808672,0.0,2.457906,-8.379622,4.462177,0.008720398,-0.0958519,0.07064533,-0.26385286,-0.4504153,0.584863,2017-05-27 13:07:32,82.4771986129363
2.4953568,-8.508993,4.472967,0.091689646,0.010575738,-0.040872894,0.0,2.4754648,-8.380771,4.4502983,0.019891977,-0.12822247,0.022668839,-0.26328868,-0.45141667,0.5846251,2017-05-27 13:07:33,78.26036112104694
2.545635,-8.446744,4.494515,0.092753865,0.020153765,-0.043001346,0.0,2.5014267,-8.369351,4.4572644,0.058573484,-0.0893631,0.061192513,-0.26166597,-0.45196646,0.58476394,2017-05-27 13:07:34,71.97633901388608
2.5623944,-8.451532,4.7004166,0.106588796,0.013768413,-0.04193712,0.0,2.5006695,-8.365842,4.464273,0.0617249,-0.0856905,0.23614359,-0.26134562,-0.45175645,0.58509237,2017-05-27 13:07:35,77.75476781108135
2.521693,-8.463503,4.575918,0.10233189,0.015896864,-0.03768022,0.0,2.4679887,-8.35215,4.5078835,0.05370426,-0.11135292,0.06803465,-0.26095796,-0.44951403,0.58699834,2017-05-27 13:07:36,45.073202038457964
2.48578,-8.418014,4.5280337,0.09594654,0.014832638,-0.038744446,0.0,2.4635181,-8.339171,4.5342803,0.022261858,-0.07884216,-0.006246567,-0.26032022,-0.44838536,0.58756477,2017-05-27 13:07:37,44.58528632261067
2.5001452,-8.461109,4.5783124,0.10765302,0.014832638,-0.043001346,0.0,2.478184,-8.332228,4.539051,0.017172813,-0.10493946,0.060809135,-0.26035607,-0.4480932,0.5863021,2017-05-27 13:07:38,49.78430016164779
2.521693,-8.415619,4.6405616,0.08849697,0.014832638,-0.03555177,0.0,2.4834843,-8.329887,4.5404487,0.038208723,-0.08573151,0.100112915,-0.26048604,-0.44793814,0.58568996,2017-05-27 13:07:39,44.06618445736491
2.5264814,-8.449138,4.573524,0.11084569,0.014832638,-0.040872894,0.0,2.4847748,-8.329494,4.5404625,0.041706562,-0.11964321,0.033061504,-0.26106286,-0.4476014,0.5847895,2017-05-27 13:07:40,82.58619980099617
2.4809916,-8.389283,4.647744,0.1151026,0.015896864,-0.040872894,0.0,2.457361,-8.316631,4.5788016,0.040390015,-0.101382256,0.033029556,-0.2608318,-0.44554785,0.5861874,2017-05-27 13:07:41,79.47614849909046
2.4690206,-8.3629465,4.7387238,0.08211161,0.018025314,-0.04619402,0.0,2.4542508,-8.28103,4.644524,0.014769793,-0.08191681,0.09419966,-0.2588595,-0.44292995,0.58747303,2017-05-27 13:07:42,44.55994914738031
2.4881742,-8.3390045,4.6884456,0.10446034,0.016961088,-0.038744446,0.0,2.4628527,-8.2702675,4.6591234,0.025321484,-0.06873703,0.029322147,-0.2582365,-0.4424531,0.58731246,2017-05-27 13:07:43,51.5412053435091
2.4522612,-8.350976,4.7985787,0.09381809,0.014832638,-0.04193712,0.0,2.453777,-8.243341,4.711338,-0.0015158653,-0.107634544,0.087240696,-0.2566956,-0.4403362,0.5887702,2017-05-27 13:07:44,79.0302779555044
2.4522612,-8.377312,4.7722425,0.10552457,0.015896864,-0.04193712,0.0,2.4266508,-8.227602,4.752717,0.025610447,-0.1497097,0.019525528,-0.25615144,-0.43825257,0.5904664,2017-05-27 13:07:45,69.63673464794556
2.428319,-8.300697,4.815338,0.10765302,0.014832638,-0.0579005,0.0,2.4082768,-8.208569,4.794789,0.020042181,-0.09212875,0.020549297,-0.25598815,-0.4358943,0.59091383,2017-05-27 13:07:46,81.6175823903378
2.4355016,-8.3150625,4.7842135,0.10339612,0.014832638,-0.047258247,0.0,2.4265263,-8.201141,4.798297,0.008975267,-0.113921165,-0.0140833855,-0.2560029,-0.43568048,0.5893912,2017-05-27 13:07:47,49.05105856280883
2.4522612,-8.274361,4.9422307,0.11190992,0.015896864,-0.0451298,0.0,2.4253871,-8.198099,4.8040676,0.01729703,-0.0738678,0.05915451,-0.25577727,-0.4354753,0.5896375,2017-05-27 13:07:48,45.755686721746514
2.4498668,-8.267179,4.9182887,0.10233189,0.016961088,-0.03342332,0.0,2.4052622,-8.181329,4.8426204,0.04460454,-0.08584976,0.075668335,-0.25562704,-0.43330118,0.5902723,2017-05-27 13:07:49,81.33620308516774
2.3995886,-8.240842,4.9374423,0.10765302,0.013768413,-0.048322473,2.0,2.390963,-8.173952,4.8621182,0.008625507,-0.06688976,0.07532406,-0.25604436,-0.4319054,0.59018356,2017-05-27 13:07:50,49.6422558908762
2.4067712,-8.283937,4.7818193,0.109781474,0.014832638,-0.044065572,0.0,2.4056666,-8.173488,4.855641,0.0011045933,-0.11044979,-0.073821545,-0.25577354,-0.43244782,0.5896376,2017-05-27 13:07:51,75.00725452549152
2.4307132,-8.252813,4.8656163,0.09913922,0.013768413,-0.04193712,0.0,2.4052544,-8.168681,4.863927,0.025458813,-0.084132195,0.001689434,-0.25500333,-0.4324142,0.59054613,2017-05-27 13:07:52,58.38808453716241
2.3948002,-8.276755,5.00448,0.12042372,0.018025314,-0.043001346,2.0,2.386212,-8.157643,4.8917527,0.008588076,-0.119112015,0.112727165,-0.2549093,-0.43082628,0.5913164,2017-05-27 13:07:53,81.69120008562226
2.4067712,-8.1642275,4.9757495,0.09381809,0.016961088,-0.03768022,0.0,2.3704538,-8.135319,4.93639,0.03631735,-0.02890873,0.03935957,-0.25441974,-0.42846796,0.59188473,2017-05-27 13:07:54,75.20173750529848
2.4546554,-8.243237,4.9877205,0.09062542,0.012704188,-0.044065572,0.0,2.3950336,-8.132957,4.9284086,0.05962181,-0.11027908,0.059311867,-0.25428945,-0.42901978,0.59041107,2017-05-27 13:07:55,44.31324421194758
2.4474726,-8.243237,4.9757495,0.11084569,0.016961088,-0.03768022,0.0,2.4007506,-8.129309,4.931647,0.046721935,-0.11392784,0.04410267,-0.25453734,-0.4286802,0.5894956,2017-05-27 13:07:56,81.21008572190044
2.4235306,-8.2169,4.992509,0.10233189,0.013768413,-0.04193712,2.0,2.397219,-8.124952,4.9405355,0.026311636,-0.091947556,0.051973343,-0.2543531,-0.42826077,0.5897638,2017-05-27 13:07:57,79.65508938619655
2.3876176,-8.219295,5.0020857,0.11084569,0.014832638,-0.040872894,0.0,2.358503,-8.11467,4.9759407,0.029114485,-0.10462475,0.026144981,-0.2546454,-0.42597342,0.59122825,2017-05-27 13:07:58,79.71516216566874
2.3660698,-8.207323,5.181651,0.106588796,0.014832638,-0.051515147,2.0,2.3560085,-8.077772,5.0367866,-0.0019097328,-0.11039734,0.010789394,-0.25375506,-0.4228519,0.5907616,2017-05-27 13:07:59,79.55513781135153
2.4019828,-8.154651,5.073912,0.11084569,0.014832638,-0.04193712,2.0,2.3632555,-8.057084,5.0664406,0.038727283,-0.097566605,0.0074715614,-0.25345647,-0.42124012,0.5896331,2017-05-27 13:08:00,66.71072138846188
2.4211364,-8.171411,5.1960163,0.09488232,0.011639963,-0.0451298,0.0,2.3661196,-8.064959,5.0525546,0.055016756,-0.10645199,0.1434617,-0.25387174,-0.42183,0.58924997,2017-05-27 13:08:01,79.50094255284827
2.392406,-8.209718,5.04997,0.11403837,0.016961088,-0.034487545,0.0,2.36186,-8.109412,4.982916,0.056882143,-0.10269928,0.06705427,-0.25602362,-0.42472804,0.5886731,2017-05-27 13:08:02,68.76052248091378
2.368464,-8.185776,5.085883,0.106588796,0.012704188,-0.04619402,2.0,2.3201602,-8.087588,5.037676,0.048303843,-0.09818745,0.048207283,-0.2554458,-0.42177892,0.59100735,2017-05-27 13:08:03,73.11760026184078
2.380435,-8.324639,4.8656163,0.089561194,0.011639963,-0.047258247,0.0,2.3751898,-8.214764,4.8006806,0.0052452087,-0.10987568,0.064935684,-0.2609942,-0.43256843,0.5860077,2017-05-27 13:08:04,72.19448300510594
2.3971944,-8.35337,4.8919525,0.092753865,0.013768413,-0.054707825,0.0,2.3927824,-8.217048,4.788017,0.004411936,-0.13632202,0.10393572,-0.26056468,-0.43357253,0.5856598,2017-05-27 13:08:05,80.29640409796701
2.4259248,-8.350976,4.7985787,0.09701077,0.014832638,-0.03342332,0.0,2.395512,-8.219054,4.783206,0.030412674,-0.13192177,0.015372753,-0.26021707,-0.43406385,0.58610016,2017-05-27 13:08:06,56.939167189807414
2.4091654,-8.259995,4.9039235,0.106588796,0.014832638,-0.032359093,0.0,2.3631244,-8.213629,4.8085704,0.04604101,-0.04636669,0.09535313,-0.2601298,-0.43262413,0.5879648,2017-05-27 13:08:07,79.62263866512524
2.356493,-8.329428,4.8680105,0.098074995,0.011639963,-0.047258247,0.0,2.362957,-8.211649,4.8120327,-0.0064640045,-0.11777878,0.05597782,-0.2599787,-0.4325109,0.5880949,2017-05-27 13:08:08,77.86479551304656
2.392406,-8.322245,4.9015293,0.10765302,0.014832638,-0.044065572,0.0,2.3909564,-8.215708,4.791229,0.0062379837,-0.11611366,0.016926765,-0.25997233,-0.43373922,0.58656925,2017-05-27 13:08:09,73.96423388738035
2.4139538,-8.298303,4.872799,0.112974145,0.013768413,-0.048322473,0.0,2.3931768,-8.21713,4.78768,0.020776987,-0.08117294,0.08511877,-0.25989065,-0.43399665,0.58662283,2017-05-27 13:08:10,44.826721935714374
2.44029,-8.343793,4.8775873,0.098074995,0.014832638,-0.034487545,2.0,2.3962066,-8.211291,4.796173,0.044083357,-0.1325016,0.08141422,-0.2590686,-0.43398926,0.5873354,2017-05-27 13:08:11,82.45895822606582
2.3971944,-8.269572,4.8536453,0.10233189,0.015896864,-0.032359093,0.0,2.3738487,-8.205811,4.8166285,0.023345709,-0.06376171,0.03701687,-0.2592957,-0.43265003,0.58811677,2017-05-27 13:08:12,81.06206151206604
2.4019828,-8.307879,4.8560395,0.09701077,0.012704188,-0.044065572,0.0,2.3822813,-8.180448,4.8554535,0.01970148,-0.12743187,5.8603287E-4,-0.25797492,-0.4311493,0.5882265,2017-05-27 13:08:13,77.19495579195234
2.4115596,-8.305486,4.896741,0.09594654,0.012704188,-0.040872894,0.0,2.3891332,-8.174202,4.8625975,0.022426367,-0.13128376,0.034143448,-0.25761557,-0.4309417,0.58800477,2017-05-27 13:08:14,82.10790430872244
2.3948002,-8.271967,4.935048,0.10765302,0.014832638,-0.043001346,0.0,2.3867447,-8.177836,4.857658,0.0080554485,-0.094130516,0.077390194,-0.25796178,-0.4310268,0.58783233,2017-05-27 13:08:15,81.71281666077677
2.3971944,-8.279149,4.935048,0.09701077,0.012704188,-0.039808672,2.0,2.371128,-8.151853,4.9087114,0.0404315,-0.053076744,0.06943226,-0.2566048,-0.42881155,0.5894655,2017-05-27 13:08:16,70.4177355146725
2.3517046,-8.279149,4.947019,0.098074995,0.010575738,-0.05045092,0.0,2.3531156,-8.156703,4.9093223,-0.0014109612,-0.12244606,0.03769684,-0.25715417,-0.428446,0.5900346,2017-05-27 13:08:17,44.30148386297197
2.4139538,-8.288726,4.992509,0.09062542,0.011639963,-0.0451298,2.0,2.3771272,-8.148944,4.9106393,0.03682661,-0.13978195,0.0818696,-0.2565818,-0.4287107,0.5889717,2017-05-27 13:08:18,62.076406340542675
2.4019828,-8.197746,4.887164,0.109781474,0.014832638,-0.036615998,0.0,2.3804388,-8.148203,4.910264,0.02154398,-0.04954338,-0.0230999,-0.25679502,-0.42860532,0.5884091,2017-05-27 13:08:19,42.88615316179314
2.3900118,-8.281544,4.992509,0.11723105,0.016961088,-0.03768022,0.0,2.3705852,-8.146101,4.9185104,0.043368578,-0.08277035,0.028508663,-0.25686646,-0.4280717,0.5888113,2017-05-27 13:08:20,81.85128817269087
2.3732524,-8.295909,4.8919525,0.10871725,0.011639963,-0.051515147,0.0,2.358112,-8.160553,4.9005184,0.015140295,-0.13535595,-0.008565903,-0.25843945,-0.4281964,0.5880172,2017-05-27 13:08:21,81.1511692385152
2.3900118,-8.26239,4.968567,0.09913922,0.013768413,-0.047258247,0.0,2.3710694,-8.154793,4.903853,0.018942356,-0.10759735,0.064713955,-0.25786194,-0.428346,0.58775926,2017-05-27 13:08:22,79.6946241094445
2.416348,-8.224083,4.935048,0.09488232,0.013768413,-0.039808672,2.0,2.379896,-8.145193,4.9155183,0.036452055,-0.07888985,0.01952982,-0.25723782,-0.4280269,0.58762723,2017-05-27 13:08:23,81.66021038428433
2.4091654,-8.248025,4.9254713,0.101267666,0.013768413,-0.044065572,0.0,2.3577883,-8.148718,4.9203296,0.051377058,-0.09930706,0.005141735,-0.257779,-0.42741433,0.5883957,2017-05-27 13:08:24,81.09249774929759
2.356493,-8.24563,4.9877205,0.09594654,0.013768413,-0.039808672,0.0,2.3429756,-8.138197,4.9447565,0.01351738,-0.10743332,0.04296398,-0.25696456,-0.4264467,0.58998525,2017-05-27 13:08:25,75.2962087366016
2.284667,-8.334216,4.935048,0.031028807,-0.0011307392,0.022980615,0.0,2.2931786,-8.21893,4.833313,-0.008511543,-0.11528587,0.101735115,-0.26210424,-0.42996624,0.58970684,2017-05-27 13:08:26,67.80221429669274
2.119467,-8.3868885,4.968567,0.017193884,0.0073830625,-0.0451298,0.0,2.1310403,-8.210937,4.9203253,-0.011573315,-0.17595196,0.048241615,-0.26257667,-0.42448407,0.5987834,2017-05-27 13:08:27,80.270941762427
2.1338322,-8.252813,5.205593,0.007615857,-0.017094117,0.0016961098,0.0,2.0826867,-8.180097,4.991876,0.051145554,-0.07271671,0.21371698,-0.2665015,-0.4176866,0.5943535,2017-05-27 13:08:28,67.52612606569878
2.0931308,-8.269572,5.1505265,0.11723105,0.016961088,-0.0451298,2.0,2.0681183,-8.144526,5.055687,0.025012493,-0.12504673,0.09483957,-0.2647358,-0.41490558,0.5960275,2017-05-27 13:08:29,79.01494508904239
1.2144588,-8.640674,4.585495,-0.05730188,0.016961088,0.031494416,0.0,1.1940374,-8.592454,4.573225,0.020421386,-0.04821968,0.012269974,-0.29653755,-0.42296088,0.6267779,2017-05-27 13:08:30,80.90070701870417
1.8968062,-8.360553,4.95899,0.18534145,-0.058598895,-0.3079934,0.0,1.7380223,-8.3505535,4.8392067,0.15878391,-0.009999275,0.1197834,-0.26961797,-0.4249415,0.62001604,2017-05-27 13:08:31,80.5473158971422
2.3540988,-7.965509,5.8424506,-0.08603595,-0.26825124,0.03681554,0.0,2.3167858,-7.7459807,5.5500154,0.037312984,-0.2195282,0.29243517,-0.22411501,-0.40841207,0.62122446,2017-05-27 13:08:32,81.32684768748646
2.119467,-8.00621,5.4857144,0.086368516,0.014832638,-0.030230645,2.0,2.124424,-7.9090014,5.3948956,0.009408236,-0.05171919,0.13870335,-0.23555364,-0.4116447,0.6245322,2017-05-27 13:08:33,73.70065745837658
1.9901801,-7.6710224,5.478532,0.06295556,0.032924466,-0.028102195,0.0,2.1214406,-7.9523516,5.3319774,-0.13126051,0.28132915,0.14655447,-0.23876819,-0.41368413,0.6219961,2017-05-27 13:08:35,40.27059726529601
-2.5157075,-0.8619126,-11.331158,0.0118727535,2.063466,-0.11962556,0.0,0.78075856,0.3973519,-9.76744,-3.296466,-1.2592645,-1.5637178,-0.6930823,-0.7194705,-0.042250387,2017-05-27 13:08:36,74.4750023983625
0.57281274,0.39743748,-9.715072,0.09062542,0.02121799,-0.044065572,0.0,0.9248274,0.288155,-9.758694,-0.3232842,0.099705696,0.08432293,-0.69084495,-0.72131,-0.04327864,2017-05-27 13:08:37,79.17342778675652
0.45310268,0.36391866,-9.73662,0.09913922,0.015896864,-0.04193712,0.0,0.658981,0.28521904,-9.780328,-0.20587835,0.07869962,0.043707848,-0.68971354,-0.723155,-0.033734947,2017-05-27 13:08:38,80.43600674212662
0.4818331,0.3878607,-9.712678,0.10871725,0.012704188,-0.043001346,0.0,0.5922805,0.2588299,-9.785329,-0.11044741,0.1290308,0.07265091,-0.68913066,-0.7238866,-0.030396221,2017-05-27 13:08:39,42.8465726930783
0.4866215,0.35194764,-9.655217,0.09913922,0.013768413,-0.04193712,0.0,0.54013234,0.260433,-9.788301,-0.053510845,0.09151465,0.1330843,-0.6892369,-0.7238902,-0.028619822,2017-05-27 13:08:40,81.46050039021753
0.5081693,0.30885202,-9.784504,0.10020345,0.012704188,-0.04193712,0.0,0.4985666,0.2704841,-9.790234,0.009602696,0.038367927,0.0057296753,-0.68948287,-0.72372395,-0.027530344,2017-05-27 13:08:41,81.33161777886912
0.46507367,0.37588966,-9.758167,0.101267666,0.014832638,-0.04193712,0.0,0.46499732,0.28535372,-9.791465,7.635355E-5,0.09053594,0.03329754,-0.69082993,-0.72248167,-0.026910594,2017-05-27 13:08:42,79.92263795099578
0.4794389,0.4141969,-9.777321,0.11403837,-6.651413E-5,-0.038744446,0.0,0.4391054,0.29249862,-9.792449,0.04033351,0.12169829,0.015128136,-0.69274974,-0.7206759,-0.026276046,2017-05-27 13:08:43,79.22243745215549
0.8002619,0.3878607,-9.3343935,0.13319442,-0.028800592,-0.038744446,0.0,0.61748046,0.35003316,-9.78093,0.046311975,0.059375316,-0.3148203,-0.6942152,-0.718856,-0.034730565,2017-05-27 13:08:44,73.01863684433852
0.6925228,0.37588966,-9.70789,0.038478382,0.0935853,-0.0132030435,0.0,0.621149,0.3469597,-9.780809,0.07137382,0.028929949,0.072919846,-0.6962815,-0.71685046,-0.034778006,2017-05-27 13:08:45,48.89632702530763
0.44113165,-0.49081135,-9.803658,0.08743274,0.0808146,-0.10579063,1.0,0.75609654,0.37191674,-9.770382,-0.3149649,-0.8627281,-0.033275604,-0.71913034,-0.6935434,-0.040949635,2017-05-27 13:08:46,58.81967692694946
0.96306765,0.50996494,-9.770139,0.11084569,0.0063188374,-0.044065572,0.0,0.83495724,0.43920472,-9.761167,0.12811041,0.07076022,-0.008972168,-0.72071445,-0.6915574,-0.046275016,2017-05-27 13:08:47,81.40587038246329
0.9151836,0.45489833,-9.753379,0.09701077,0.016961088,-0.04193712,1.0,0.85955715,0.444681,-9.758784,0.06520325,0.00542894,0.086808205,-0.72184896,-0.69028515,-0.047401305,2017-05-27 13:08:48,81.89775364690536
0.694917,0.33039984,-9.372701,0.101267666,0.010575738,-0.04193712,1.0,0.7071531,0.33835915,-9.775269,-0.012236059,-0.007959306,0.40256786,-0.72355694,-0.68910474,-0.03803664,2017-05-27 13:08:49,77.26126577788929
0.7763199,0.2777274,-9.688736,0.098074995,0.013768413,-0.04193712,0.0,0.70094454,0.32891303,-9.776038,0.07537538,-0.051185638,0.08730221,-0.72489214,-0.6877286,-0.037498023,2017-05-27 13:08:50,68.82538900717196
0.8146271,0.32321724,-9.6049385,0.10020345,0.011639963,-0.043001346,1.0,0.71547043,0.3312501,-9.774909,0.09915668,-0.008032858,0.16997051,-0.72562766,-0.68691057,-0.038133036,2017-05-27 13:08:51,80.16114564294324
0.7739257,0.35913026,-9.753379,0.09913922,0.014832638,-0.043001346,0.0,0.7221409,0.3354579,-9.774272,0.039813757,0.014095545,0.052017212,-0.72600996,-0.68648285,-0.038535856,2017-05-27 13:08:52,81.03889018509251
0.7404069,0.40462008,-9.755774,0.10020345,0.013768413,-0.04193712,0.0,0.72860307,0.34024054,-9.773627,0.011803806,0.06437954,0.017853737,-0.72648096,-0.6859604,-0.03895286,2017-05-27 13:08:53,41.83678256244094
0.76434886,0.37588966,-9.729437,0.10020345,0.012704188,-0.043001346,1.0,0.7344263,0.34588593,-9.772991,0.029922545,0.030003726,0.043554306,-0.7264071,-0.686015,-0.039366167,2017-05-27 13:08:54,72.51898402031071
0.7332243,0.33279404,-9.786898,0.098074995,0.018025314,-0.043001346,0.0,0.74347764,0.34983167,-9.77217,-0.01025337,-0.01703763,-0.0147275925,-0.72620124,-0.6862024,-0.039837424,2017-05-27 13:08:55,45.56605395942863
0.76434886,0.36391866,-9.681553,0.101267666,0.011639963,-0.043001346,0.0,0.75052285,0.35232407,-9.771542,-0.01729858,-0.0075590312,0.06844044,-0.7259817,-0.6864113,-0.040182725,2017-05-27 13:08:56,80.87135776925373
0.8050503,0.38307226,-9.755774,0.098074995,0.013768413,-0.04193712,0.0,0.75436234,0.34774333,-9.771409,0.05068797,0.035328925,0.01563549,-0.7259025,-0.6864902,-0.04016312,2017-05-27 13:08:57,73.56145521877694
0.7691373,0.32561144,-9.64564,0.09913922,0.013768413,-0.04193712,1.0,0.7556453,0.35057992,-9.771208,0.013492048,-0.024968475,0.12556744,-0.72547626,-0.68693316,-0.040302042,2017-05-27 13:08:58,82.02125270144974
0.7284359,0.2705448,-9.880272,0.10020345,0.011639963,-0.043001346,0.0,0.74904364,0.33629754,-9.772219,-0.02060777,-0.065752745,-0.10805321,-0.7253405,-0.687114,-0.039552152,2017-05-27 13:08:59,82.71034773351798
0.7404069,0.32800564,-9.743802,0.101267666,0.011639963,-0.04193712,1.0,0.7591115,0.33772734,-9.771394,-0.049829245,0.050133348,0.070687294,-0.72484845,-0.68760246,-0.03996635,2017-05-27 13:09:00,71.30404815271235
0.75956047,0.36391866,-9.808446,0.09913922,0.014832638,-0.043001346,0.0,0.7606864,0.34334517,-9.771073,-0.0011259317,0.020573497,-0.03737259,-0.724572,-0.6878819,-0.04021678,2017-05-27 13:09:01,80.6865325276527
1.2024878,0.40940848,-9.750985,0.09913922,0.015896864,-0.0451298,0.0,1.2129136,0.33387753,-9.725625,-0.010425806,0.075530946,-0.025360107,-0.800159,-0.5963342,-0.059881724,2017-05-27 13:09:02,76.96689025824575
1.1953052,0.2753332,-9.607333,0.13532287,-0.04476397,-0.040872894,0.0,1.2339069,0.25979787,-9.7252445,-0.038601637,0.015535325,0.11791134,-0.7996039,-0.59706205,-0.05845578,2017-05-27 13:09:03,70.48248419013905
1.2384008,0.25378537,-9.439739,0.089561194,0.038245592,-0.043001346,0.0,1.3379595,0.22847086,-9.712265,-0.09955871,0.02531451,0.2725258,-0.79898065,-0.59734213,-0.06175953,2017-05-27 13:09:04,42.6017994803611
1.0947487,0.16519992,-9.609727,0.10020345,0.016961088,-0.043001346,0.0,1.1473249,0.1983698,-9.737282,-0.052576184,-0.03316988,0.1275549,-0.7997656,-0.59735936,-0.053013332,2017-05-27 13:09:05,77.26000201615953
1.1354501,0.21547815,-9.743802,0.09913922,0.014832638,-0.043001346,0.0,1.1495494,0.20096377,-9.736969,-0.01409924,0.014514387,-0.0068330765,-0.79970324,-0.59742945,-0.05318155,2017-05-27 13:09:06,38.716466250980545
1.2000936,0.19632454,-9.772532,0.101267666,0.018025314,-0.04193712,0.0,1.1538149,0.203517,-9.736412,0.015154123,0.009566948,0.10992527,-0.7995973,-0.5975475,-0.053430643,2017-05-27 13:09:07,72.83595992549223
1.1426327,0.23942018,-9.786898,0.09913922,0.013768413,-0.043001346,0.0,1.1522512,0.20445451,-9.736575,-0.009618521,0.034965664,-0.050322533,-0.7995146,-0.59766513,-0.05339124,2017-05-27 13:09:08,79.84586764489038
1.0660183,0.18674773,-9.973646,0.10020345,0.025474891,-0.04193712,0.0,1.1416016,0.2089834,-9.737736,-0.07558322,-0.022235677,-0.23591042,-0.7992923,-0.5980118,-0.053081635,2017-05-27 13:09:09,75.00796150835231
1.1306617,0.22744916,-9.679159,0.10020345,0.0063188374,-0.043001346,0.0,1.119223,0.20772824,-9.74036,0.011438727,0.019720927,0.061201096,-0.79883915,-0.5987288,-0.0521027,2017-05-27 13:09:10,40.45682866929183
1.0827777,0.16998832,-9.667188,0.10020345,0.010575738,-0.043001346,0.0,1.1264352,0.20452803,-9.739596,-0.043657422,-0.034539714,0.072408676,-0.798849,-0.5986831,-0.052301552,2017-05-27 13:09:11,39.41730843328978
1.1617863,0.20590134,-9.667188,0.09913922,0.013768413,-0.04193712,0.0,1.1424723,0.20035098,-9.737816,0.01931405,0.0055503547,0.070628166,-0.79856133,-0.59899104,-0.052820202,2017-05-27 13:09:12,67.43516829142283
1.0564415,0.25378537,-9.533113,0.098074995,0.012704188,-0.04193712,1.0,1.1004028,0.20472959,-9.742568,-0.043961287,0.049055785,0.20945549,-0.79883987,-0.5988218,-0.051236942,2017-05-27 13:09:13,60.12789347775694
1.0755951,0.19153613,-9.6049385,0.10020345,0.010575738,-0.043001346,0.0,1.0945753,0.20121919,-9.743298,-0.018980145,-0.009683058,0.13835907,-0.7990905,-0.59851843,-0.05090029,2017-05-27 13:09:14,64.05575662293448
1.0755951,0.21068975,-9.837176,0.10020345,0.016961088,-0.043001346,0.0,1.1098449,0.20385854,-9.741515,-0.034249783,0.006831214,-0.09566116,-0.79918444,-0.598317,-0.051613174,2017-05-27 13:09:15,42.35249822026259
1.1186907,0.21547815,-9.858724,0.101267666,0.018025314,-0.04193712,0.0,1.1558429,0.20911394,-9.736054,-0.04672897,-0.02476041,0.032953262,-0.798858,-0.5985203,-0.053652413,2017-05-27 13:09:16,81.37737733263967
1.1378443,0.19153613,-9.727043,0.098074995,0.009511513,-0.04193712,0.0,1.16851,0.22136666,-9.734266,-0.030665636,-0.02983053,0.0072231293,-0.79891455,-0.5983686,-0.054552123,2017-05-27 13:09:17,71.744851884712
1.0779893,0.25857377,-9.633669,0.10233189,0.0073830625,-0.040872894,0.0,1.1628684,0.21366554,-9.735118,-0.08487904,0.044908226,0.10144901,-0.7989018,-0.59842193,-0.054083116,2017-05-27 13:09:18,77.45947925581751
1.1881226,0.079008654,-9.367912,0.10446034,0.012704188,-0.0451298,0.0,1.2606803,0.16769038,-9.723839,-0.07255769,-0.08868173,0.3559265,-0.799849,-0.5966736,-0.05675282,2017-05-27 13:09:19,80.48810773837074
-1.1629834,4.7764325,-9.470863,-0.13711877,0.14998923,-0.7485826,0.0,0.9665439,0.40759084,-9.750387,-2.1295273,4.3688416,0.27952385,-0.78256637,-0.62025905,-0.051602736,2017-05-27 13:09:20,75.22709540589008
0.66379243,0.31364042,-9.750985,0.09913922,0.011639963,-0.04193712,0.0,0.48225987,-0.07019961,-9.794536,0.18153256,0.38384002,0.04355049,-0.85600305,-0.51637304,-0.019211426,2017-05-27 13:09:21,75.06189480789195
0.6733692,0.34476504,-9.97604,0.09701077,0.012704188,-0.043001346,0.0,0.4936033,8.2344486E-4,-9.794219,0.17976594,0.3439416,-0.18182087,-0.8547077,-0.5184987,-0.02154565,2017-05-27 13:09:22,80.87531066017276
0.66379243,0.260968,-9.755774,0.10020345,0.011639963,-0.04193712,0.0,0.54649264,0.09860657,-9.790916,0.055050552,0.10490057,0.09978676,-0.8545608,-0.51857847,-0.026439324,2017-05-27 13:09:23,53.53374342608413
0.57041854,0.23702596,-9.806051,0.10020345,0.012704188,-0.043001346,0.0,0.57819253,0.18207665,-9.7879,-0.0077739954,0.054949313,-0.018151283,-0.853866,-0.51957375,-0.030023716,2017-05-27 13:09:24,41.41032917237329
0.6206968,0.2896984,-9.734225,0.09913922,0.012704188,-0.043001346,0.0,0.60506314,0.23469804,-9.785151,0.015633643,0.05500035,0.050925255,-0.8527348,-0.52129376,-0.03258021,2017-05-27 13:09:25,81.6838820164658
0.587178,0.23942018,-9.705495,0.10020345,0.013768413,-0.04193712,0.0,0.61888254,0.2671225,-9.783458,-0.031704545,-0.027702332,0.077962875,-0.8518236,-0.5226988,-0.034037758,2017-05-27 13:09:26,75.54626481649824
0.6278794,0.2825158,-9.698313,0.098074995,0.016961088,-0.04193712,0.0,0.63202536,0.28780347,-9.782031,-0.030482173,-0.0076818764,0.10766029,-0.85053945,-0.5247165,-0.035151817,2017-05-27 13:09:27,70.5250665508746
0.6254852,0.22505496,-9.6288805,0.09701077,0.009511513,-0.04193712,0.0,0.62244326,0.32206765,-9.781578,0.003041923,-0.097012684,0.15269756,-0.8491309,-0.5269709,-0.03564672,2017-05-27 13:09:28,78.76870848294953
0.6063316,0.320823,-9.717466,0.101267666,0.019089539,-0.043001346,0.0,0.62517256,0.35092542,-9.780412,-0.018840969,-0.030102402,0.062945366,-0.8477118,-0.5291946,-0.036538098,2017-05-27 13:09:29,78.50985125077753
0.61112,0.2777274,-9.808446,0.09913922,0.012704188,-0.044065572,0.0,0.6317911,0.34979042,-9.780025,-0.02067113,-0.07206303,-0.028421402,-0.8459426,-0.5319996,-0.036787633,2017-05-27 13:09:30,71.72742068973895
0.6087258,0.31124622,-9.69113,0.101267666,0.010575738,-0.04193712,0.0,0.6302705,0.3427934,-9.780372,-0.021544695,-0.03154719,0.08924198,-0.8449863,-0.53353375,-0.03652734,2017-05-27 13:09:31,57.71061124995978
0.6374562,0.29927522,-9.7007065,0.098074995,0.018025314,-0.043001346,0.0,0.62626576,0.34262303,-9.780634,0.011190414,-0.043347806,0.079927444,-0.84442055,-0.5344413,-0.036347233,2017-05-27 13:09:32,80.98558386750001
0.6278794,0.28491,-9.863512,0.09913922,0.016961088,-0.043001346,0.0,0.6282171,0.334086,-9.780804,-3.3771992E-4,-0.049176008,-0.08270836,-0.84413743,-0.53489643,-0.03619679,2017-05-27 13:09:33,69.63276031345073
0.599149,0.3184288,-9.770139,0.09488232,0.015896864,-0.04193712,0.0,0.62680125,0.3180075,-9.78143,-0.027652264,4.2131543E-4,0.011291504,-0.8438597,-0.53536433,-0.035694268,2017-05-27 13:09:34,73.92182007006816
0.587178,0.31124622,-9.695918,0.09594654,0.014832638,-0.043001346,0.0,0.63058245,0.34153748,-9.7803955,0.014056385,0.04392901,0.091659546,-0.84401137,-0.5350759,-0.036502045,2017-05-27 13:09:35,73.08157291311619
0.66379243,0.36870706,-9.772532,0.098074995,0.023346439,-0.043001346,0.0,0.63449997,0.35353285,-9.779715,0.029292464,0.01517421,0.0071821213,-0.8444667,-0.5343245,-0.037001014,2017-05-27 13:09:36,50.204275389274585
0.6015432,0.40701428,-9.774927,0.10020345,0.012704188,-0.043001346,0.0,0.63558966,0.35617995,-9.779549,-0.03404647,0.050834328,0.0046215057,-0.84481263,-0.5337694,-0.037121657,2017-05-27 13:09:37,82.24659452178423
0.65182143,0.37588966,-9.6528225,0.098074995,0.015896864,-0.044065572,0.0,0.63071346,0.34419978,-9.780292,0.021107972,0.031689882,0.12746906,-0.8452488,-0.53311396,-0.036585983,2017-05-27 13:09:38,72.64320805602841
0.6063316,0.2801216,-9.829993,0.10446034,0.014832638,-0.04193712,0.0,0.63318115,0.3327788,-9.78053,-0.08909881,-0.11251226,-0.1595974,-0.8460378,-0.5318724,-0.03638559,2017-05-27 13:09:39,45.68796612892094
0.66618663,0.31364042,-9.724648,0.101267666,0.014832638,-0.043001346,0.0,0.6258479,0.31680825,-9.781533,0.040338755,-0.0031678379,0.056884766,-0.84692246,-0.53051084,-0.03563959,2017-05-27 13:09:40,82.09957821939703
0.6206968,0.2681506,-9.703101,0.09913922,0.014832638,-0.04193712,0.0,0.6264837,0.31247407,-9.7816305,-0.0057868958,-0.044323474,0.07852936,-0.8476194,-0.52940124,-0.03555411,2017-05-27 13:09:41,76.27979027407896
0.623091,0.30166942,-9.73662,0.10020345,0.012704188,-0.04193712,0.0,0.6353775,0.3099708,-9.781135,-0.012286544,-0.008301377,0.044514656,-0.84835047,-0.52820504,-0.035876997,2017-05-27 13:09:42,43.48980285437767
-0.5189432,1.6304513,-8.826823,0.27154368,-0.112874374,-1.9862765,0.0,0.40607274,0.41645563,-9.789383,-0.9250159,1.2139957,0.9625597,0.82601434,0.5628676,0.02907891,2017-05-27 13:09:43,57.2161964573046
0.8050503,-0.25378537,-9.633669,0.10552457,0.0063188374,-0.043001346,0.0,0.8581143,-0.2690824,-9.765328,-0.05306399,0.015297025,0.13165951,-0.96418893,-0.2612143,-0.03868266,2017-05-27 13:09:44,79.77619741678292
0.9175778,-0.50278234,-10.703877,0.1363871,0.037181366,-0.069606975,0.0,0.77492493,-0.34240124,-9.769989,-0.24281359,-0.098131865,-0.7998133,-0.96418273,-0.26169154,-0.033589307,2017-05-27 13:09:45,82.40400175902586
0.7667431,-0.47405192,-9.31524,0.10446034,0.016961088,-0.043001346,0.0,0.84380907,-0.30834275,-9.765415,-0.077065945,-0.16570917,0.4501753,-0.96235645,-0.26789486,-0.03726953,2017-05-27 13:09:46,68.81493904686265
0.84335756,-0.7230489,-10.605715,0.042735286,0.0063188374,-0.051515147,0.0,0.79588836,-0.62290746,-9.754433,0.0474692,-0.100141466,-0.8512821,-0.9615078,-0.26988965,-0.030526765,2017-05-27 13:09:47,46.27073390375101
0.7715315,-0.5674258,-9.4972,0.09594654,0.022282215,-0.04193712,0.0,0.7921606,-0.5224558,-9.76063,-0.09963775,-0.0018743873,0.019221306,-0.9606813,-0.2733953,-0.03159238,2017-05-27 13:09:48,42.27168336390321
0.7380127,-0.5434838,-9.638457,0.09381809,0.010575738,-0.043001346,0.0,0.7925529,-0.5233053,-9.760553,-0.054540217,-0.020178497,0.12209606,-0.95996875,-0.27587986,-0.031504583,2017-05-27 13:09:49,69.74988118734068
0.7739257,-0.5434838,-9.916184,0.07253359,0.013768413,-0.04619402,0.0,0.77522844,-0.46705672,-9.764799,-0.0013027191,-0.07642707,-0.1513853,-0.9596087,-0.2775201,-0.03138747,2017-05-27 13:09:50,77.50875192859252
0.7428011,-0.40701428,-9.774927,0.10020345,0.014832638,-0.044065572,0.0,0.77069044,-0.34903955,-9.770086,-0.054225564,0.02821654,0.078956604,-0.9590152,-0.2800458,-0.032761168,2017-05-27 13:09:51,63.07053872803198
0.74519527,-0.3854665,-9.782109,0.10020345,0.012704188,-0.044065572,0.0,0.7702685,-0.35793966,-9.7698,-0.02507323,-0.027526826,-0.012309074,-0.9587242,-0.2810144,-0.0325845,2017-05-27 13:09:52,69.7257393260258
0.6781576,-0.37588966,-9.746197,0.09913922,0.014832638,-0.043001346,0.0,0.75123817,-0.33104998,-9.77223,-0.07308054,-0.04483968,0.026033401,-0.9586318,-0.28154948,-0.032021943,2017-05-27 13:09:53,65.71190647726362
0.7380127,-0.32321724,-9.69113,0.10020345,0.013768413,-0.044065572,0.0,0.74923724,-0.32833022,-9.772474,-0.011224568,0.005112976,0.081344604,-0.9588704,-0.280758,-0.031985093,2017-05-27 13:09:54,62.888886955034415
0.7356185,-0.35194764,-9.71986,0.10020345,0.015896864,-0.043001346,0.0,0.74303764,-0.33271968,-9.772801,-0.024178565,-0.007256955,0.02421093,-0.95880836,-0.2809995,-0.031611543,2017-05-27 13:09:55,59.76527097310027
0.8002619,-0.2753332,-9.801263,0.09913922,0.011639963,-0.043001346,0.0,0.7557844,-0.33091256,-9.771882,0.044477522,0.055579364,-0.029380798,-0.9586053,-0.28160828,-0.032245073,2017-05-27 13:09:56,38.6184182772517
0.7212533,-0.33997664,-9.770139,0.098074995,0.012704188,-0.044065572,0.0,0.74348694,-0.32215595,-9.773122,-0.022233665,-0.017820686,0.0029830933,-0.9585427,-0.28193334,-0.03175918,2017-05-27 13:09:57,38.943161780900574
0.74758947,-0.39504328,-9.968858,0.028900355,0.0063188374,-0.052579373,0.0,0.7465825,-0.3640457,-9.771412,0.08240986,-0.04296857,-0.01788044,-0.9586499,-0.2814139,-0.03132402,2017-05-27 13:09:58,72.63124484845372
0.7787141,-0.1436521,-9.674371,0.09913922,0.014832638,-0.04193712,0.0,0.72367144,-0.15381697,-9.778706,0.055042684,0.010164872,0.10433483,-0.95867145,-0.2820005,-0.033207804,2017-05-27 13:09:59,81.39791686228165
0.6757634,-0.17477672,-9.772532,0.09913922,0.014832638,-0.043001346,0.0,0.714411,-0.15503763,-9.779367,-0.038647592,-0.019739091,0.006834984,-0.95891327,-0.28123713,-0.032750703,2017-05-27 13:10:00,76.70729098852925
0.6901286,-0.18914193,-9.7007065,0.10020345,0.013768413,-0.043001346,0.0,0.710334,-0.15605436,-9.779645,-0.020205379,-0.033087566,0.078938484,-0.9587885,-0.28168726,-0.032527927,2017-05-27 13:10:01,61.32076349447614
0.7116765,-0.15083471,-9.693524,0.10020345,0.013768413,-0.043001346,0.0,0.70853126,-0.15570958,-9.779782,0.003145218,0.00487487,0.086257935,-0.9587961,-0.2816739,-0.03244479,2017-05-27 13:10:02,63.46090818430601
0.6781576,-0.1412579,-9.892242,0.10020345,0.012704188,-0.04193712,0.0,0.70609695,-0.15686846,-9.77994,-0.02793932,0.015610561,-0.11230278,-0.95895493,-0.28114694,-0.032318648,2017-05-27 13:10:03,76.67049111542161
0.7356185,-0.16280572,-9.7007065,0.10020345,0.013768413,-0.043001346,0.0,0.7098851,-0.15690602,-9.779666,0.025733352,-0.0058996975,0.078959465,-0.9590318,-0.28085968,-0.03250912,2017-05-27 13:10:04,57.6367036176745
0.7212533,-0.18914193,-9.755774,0.09913922,0.013768413,-0.04193712,0.0,0.7141662,-0.15816037,-9.779338,-9.5546246E-5,-0.014222145,0.054689407,-0.95925975,-0.2800503,-0.032716148,2017-05-27 13:10:05,69.57211846234324
0.7308301,-0.1388637,-9.705495,0.09913922,0.013768413,-0.044065572,0.0,0.7135172,-0.16130747,-9.77933,0.017312884,0.022443771,0.07383537,-0.9595391,-0.27909097,-0.032657452,2017-05-27 13:10:06,78.65429901287749
0.7212533,-0.18674773,-9.739014,0.10020345,0.013768413,-0.043001346,0.0,0.7148124,-0.16044052,-9.779249,0.006440878,-0.02630721,0.04023552,-0.95960325,-0.27886295,-0.0327376,2017-05-27 13:10:07,61.08041804936527
0.682946,-0.15562311,-9.784504,0.10020345,0.013768413,-0.043001346,0.0,0.71778727,-0.16131635,-9.779018,0.0441674,-0.011066169,0.08070564,-0.959368,-0.27965018,-0.032856166,2017-05-27 13:10:08,40.22516520306937
0.7092823,-0.16998832,-9.595362,0.09913922,0.013768413,-0.043001346,0.0,0.7202643,-0.16288234,-9.778808,-0.010982037,-0.0071059763,0.18344593,-0.95909554,-0.28056407,-0.032937873,2017-05-27 13:10:09,82.69604491555228
0.7044938,-0.15801731,-9.6288805,0.10020345,0.014832638,-0.044065572,0.0,0.7207241,-0.16359034,-9.778762,-0.016230285,0.0055730343,0.14988136,-0.95875114,-0.28173453,-0.03292788,2017-05-27 13:10:10,80.95932368829344
0.7140707,-0.1436521,-9.74859,0.101267666,0.014832638,-0.044065572,0.0,0.7182636,-0.160636,-9.778994,-0.0041929483,0.016983896,0.030403137,-0.9585067,-0.28258595,-0.03283359,2017-05-27 13:10:11,66.11401187490166
0.6733692,-0.17956513,-9.724648,0.10020345,0.014832638,-0.043001346,0.0,0.7176003,-0.16216357,-9.7790165,-0.044231057,-0.017401561,0.05436802,-0.9587685,-0.2816985,-0.03279599,2017-05-27 13:10:12,72.65962345995115
0.7188591,-0.16280572,-9.724648,0.101267666,0.013768413,-0.043001346,0.0,0.7196478,-0.16005923,-9.7789,-7.8874826E-4,-0.0027464926,0.05425167,-0.95894665,-0.2810809,-0.032938275,2017-05-27 13:10:13,42.78899055719546
0.6805518,-0.17956513,-9.722255,0.10020345,0.014832638,-0.043001346,0.0,0.7194451,-0.1605788,-9.778907,0.011384964,0.028897703,0.05665207,-0.9590784,-0.28063166,-0.032929406,2017-05-27 13:10:14,77.45391288947738
0.7356185,-0.20111294,-9.717466,0.09913922,0.013768413,-0.043001346,0.0,0.72080123,-0.16076033,-9.778806,0.014817238,-0.040352613,0.06133938,-0.95938617,-0.27956843,-0.033013437,2017-05-27 13:10:15,38.49823880966996
0.7044938,-0.18435353,-9.8683,0.101267666,0.013768413,-0.044065572,0.0,0.7185392,-0.16388091,-9.778921,-0.014045358,-0.020472616,-0.08937931,-0.9595919,-0.2788719,-0.032871272,2017-05-27 13:10:16,74.50584022101546
0.7260417,-0.15083471,-9.667188,0.10020345,0.013768413,-0.043001346,0.0,0.71837074,-0.16431855,-9.778924,-0.0019058585,0.018272236,0.13807201,-0.95948887,-0.27922657,-0.032850027,2017-05-27 13:10:18,77.9856134619993
0.7140707,-0.12449849,-9.7007065,0.10020345,0.013768413,-0.044065572,0.0,0.71462303,-0.16274817,-9.779226,-5.5235624E-4,0.038249686,0.07851982,-0.959398,-0.27956632,-0.03268217,2017-05-27 13:10:19,79.38377385436053
0.66379243,-0.17238252,-9.791686,0.10020345,0.013768413,-0.043001346,0.0,0.7134351,-0.16547039,-9.779266,-0.049642682,-0.006912127,-0.012419701,-0.9592519,-0.28007075,-0.032575477,2017-05-27 13:10:20,80.96529695702655
0.7068881,-0.12928689,-9.73662,0.101267666,0.013768413,-0.044065572,0.0,0.71589774,-0.1650443,-9.779096,-0.009009659,0.035757408,0.0424757,-0.9588071,-0.28157416,-0.032673538,2017-05-27 13:10:21,82.18464740040616
0.682946,-0.17238252,-9.7007065,0.10020345,0.013768413,-0.043001346,0.0,0.71791184,-0.1673172,-9.778908,-0.015812218,0.009299889,0.018345833,-0.95846087,-0.2827336,-0.03271718,2017-05-27 13:10:22,75.90635833825937
0.7332243,-0.1412579,-9.729437,0.10020345,0.013768413,-0.0451298,0.0,0.7141106,-0.16679253,-9.779197,0.01911366,0.02553463,0.049759865,-0.95836425,-0.28308696,-0.03253172,2017-05-27 13:10:23,77.28054476764348
0.7380127,-0.1604115,-9.69113,0.10020345,0.013768413,-0.043001346,0.0,0.71788216,-0.16775417,-9.778899,0.020130515,0.0073426664,0.08776951,-0.95844877,-0.2827738,-0.03270865,2017-05-27 13:10:24,42.96359925325801
0.6877344,-0.19153613,-9.755774,0.10020345,0.013768413,-0.044065572,0.0,0.7114338,-0.16902786,-9.779351,-0.023699403,-0.022508264,0.02357769,-0.9584901,-0.28267455,-0.032376304,2017-05-27 13:10:25,42.40121711274688
0.7380127,-0.11492168,-9.722255,0.10020345,0.013768413,-0.044065572,0.0,0.71340925,-0.16952668,-9.779197,0.01263243,0.028268784,0.07849026,-0.9584921,-0.28265375,-0.032466292,2017-05-27 13:10:26,77.4593425426362
0.6973112,-0.1436521,-9.655217,0.101267666,0.013768413,-0.044065572,0.0,0.7152033,-0.1634769,-9.779174,-0.017892063,0.019824803,0.12395668,-0.9584854,-0.28267428,-0.03264102,2017-05-27 13:10:27,39.990379682399755
0.7116765,-0.12210429,-9.777321,0.10020345,0.014832638,-0.044065572,0.0,0.71134377,-0.16307965,-9.779459,3.3271313E-4,0.040975362,0.0021381378,-0.9582907,-0.28335947,-0.032444626,2017-05-27 13:10:28,72.62149121779632
0.6973112,-0.15322891,-9.739014,0.10020345,0.014832638,-0.044065572,0.0,0.7090808,-0.16532816,-9.779585,-0.011769593,0.012099251,0.040571213,-0.95822555,-0.2835902,-0.03230047,2017-05-27 13:10:29,76.11091479594958
0.7212533,-0.1436521,-9.722255,0.10020345,0.012704188,-0.044065572,0.0,0.7087747,-0.16392934,-9.77963,0.01247859,0.020277247,0.057374954,-0.95825714,-0.28348833,-0.032304056,2017-05-27 13:10:30,62.7352613743962
0.7068881,-0.17238252,-9.73662,0.10020345,0.013768413,-0.043001346,0.0,0.70875037,-0.16171204,-9.779668,-0.0018622875,-0.010670483,0.043047905,-0.9582933,-0.28336936,-0.03233719,2017-05-27 13:10:31,38.66727073439534
0.7212533,-0.20350714,-9.688736,0.101267666,0.013768413,-0.044065572,0.0,0.70881903,-0.16103284,-9.779674,0.012434244,-0.0424743,0.090937614,-0.9582844,-0.28340012,-0.03234979,2017-05-27 13:10:32,38.98884859640204
0.7260417,-0.1604115,-9.698313,0.10020345,0.014832638,-0.043001346,0.0,0.7088192,-0.16025224,-9.77969,0.017222464,-1.5926361E-4,0.08137703,-0.95850235,-0.28266352,-0.03237498,2017-05-27 13:10:33,46.389157501183654
0.8050503,-0.14604631,-9.758167,0.10020345,0.013768413,-0.04193712,0.0,0.71143514,-0.15976079,-9.779507,0.093615174,0.013714477,0.021339417,-0.9588134,-0.2815899,-0.032530453,2017-05-27 13:10:34,50.217271893976736
0.74998367,-0.1436521,-9.813234,0.10020345,0.013768413,-0.043001346,0.0,0.7128695,-0.15814227,-9.779428,-0.008375704,-0.01424025,0.08590317,-0.9588235,-0.28154847,-0.032624774,2017-05-27 13:10:35,75.00441232291423
0.7116765,-0.15562311,-9.705495,0.10020345,0.014832638,-0.044065572,0.0,0.713656,-0.1566779,-9.779394,-0.0019795299,0.0010547936,0.07389927,-0.95884013,-0.28148875,-0.032685466,2017-05-27 13:10:36,57.07945873423384
0.7212533,-0.18435353,-9.722255,0.101267666,0.014832638,-0.043001346,0.0,0.70903057,-0.15770957,-9.779716,0.012222707,-0.026643962,0.057460785,-0.9588855,-0.28136334,-0.032446317,2017-05-27 13:10:37,74.10538998106365
0.7164649,-0.17477672,-9.621698,0.10020345,0.014832638,-0.044065572,0.0,0.70917684,-0.15761098,-9.779707,0.0072880387,-0.017165735,0.15800858,-0.9589236,-0.2812327,-0.032457337,2017-05-27 13:10:38,39.39071415606887
0.7284359,-0.17717093,-9.741408,0.10020345,0.013768413,-0.043001346,0.0,0.7121214,-0.15732667,-9.779494,0.016314447,-0.019844264,0.038085938,-0.9590572,-0.28075737,-0.032614615,2017-05-27 13:10:39,74.92837347987494
0.7260417,-0.1412579,-9.750985,0.10020345,0.012704188,-0.044065572,0.0,0.7130191,-0.159792,-9.779391,0.013022602,0.018534109,0.028406143,-0.95922303,-0.28018096,-0.032634143,2017-05-27 13:10:40,72.90594538995096
0.7044938,-0.11492168,-9.70789,0.10020345,0.013768413,-0.044065572,0.0,0.71490085,-0.15632205,-9.779313,-0.010407031,0.041400366,0.07142353,-0.9590929,-0.28061888,-0.032767825,2017-05-27 13:10:41,82.37655107756865
0.7020996,-0.18435353,-9.758167,0.10020345,0.014832638,-0.044065572,0.0,0.7130965,-0.16049552,-9.779375,-0.010996878,-0.02385801,0.02120781,-0.95898724,-0.28098544,-0.03261272,2017-05-27 13:10:42,80.56491575724097
0.7236475,-0.16998832,-9.882666,0.10020345,0.013768413,-0.044065572,0.0,0.7097467,-0.16024041,-9.779624,0.013900757,-0.0097479075,-0.10304165,-0.9591217,-0.2805487,-0.0324604,2017-05-27 13:10:43,40.405592414337974
0.7380127,-0.16998832,-9.698313,0.09913922,0.014832638,-0.043001346,0.0,0.7083484,-0.16034965,-9.77972,-0.020613968,0.023880154,0.05986023,-0.9594255,-0.27951685,-0.032409634,2017-05-27 13:10:44,76.96204013263397
0.7284359,-0.16998832,-9.825205,0.10020345,0.013768413,-0.043001346,0.0,0.7121554,-0.16189706,-9.779418,0.016280472,-0.008091256,-0.045786858,-0.9593454,-0.27976406,-0.032569584,2017-05-27 13:10:45,75.82230978866592
0.7092823,-0.19153613,-9.681553,0.101267666,0.014832638,-0.044065572,0.0,0.71109396,-0.15948427,-9.779538,-0.0018116832,-0.03205186,0.09798527,-0.9595312,-0.27913713,-0.032563705,2017-05-27 13:10:46,70.04355335662747
0.6733692,-0.1604115,-9.727043,0.10020345,0.013768413,-0.043001346,0.0,0.7161837,-0.16157474,-9.779128,-0.006901443,-0.029961392,0.085603714,-0.9595075,-0.27918106,-0.03278272,2017-05-27 13:10:47,79.56200747630284
0.6805518,-0.08379706,-9.636064,0.101267666,0.012704188,-0.043001346,0.0,0.3910419,0.19240871,-9.796964,0.28950992,-0.27620578,0.16090012,0.96007735,0.27885047,0.021887992,2017-05-27 13:10:48,38.24989196239998
0.6877344,-0.093373865,-9.71986,0.101267666,0.013768413,-0.044065572,0.0,0.49404836,0.102019906,-9.793668,0.19368607,-0.19539377,0.07380772,-0.9603029,-0.27777052,-0.025651328,2017-05-27 13:10:49,76.1491414635815
0.7164649,-0.06464344,-9.717466,0.09913922,0.014832638,-0.043001346,0.0,0.5810998,0.027373925,-9.789385,0.13536507,-0.09201737,0.07191849,-0.9605924,-0.27637285,-0.028871424,2017-05-27 13:10:50,79.73709031444953
0.6733692,-0.10055647,-9.703101,0.10020345,0.014832638,-0.043001346,0.0,0.6395543,-0.028449051,-9.785732,0.033814907,-0.07210742,0.08263111,-0.9605859,-0.27605838,-0.030955564,2017-05-27 13:10:51,80.83856026002832
0.7212533,-0.095768064,-9.724648,0.10020345,0.013768413,-0.043001346,0.0,0.680245,-0.068496235,-9.782789,0.041008294,-0.02727183,0.058140755,-0.9602334,-0.27701133,-0.032375593,2017-05-27 13:10:52,69.43735512967437
0.6877344,-0.1436521,-9.70789,0.101267666,0.013768413,-0.044065572,0.0,0.70959914,-0.106273524,-9.780367,-0.021864712,-0.037378572,0.07247734,-0.9599607,-0.27773258,-0.033270594,2017-05-27 13:10:53,77.79181063670843
0.670975,-0.110133275,-9.791686,0.10020345,0.012704188,-0.044065572,0.0,0.7274627,-0.12944499,-9.778774,-0.05648768,0.019311711,-0.012911797,-0.9596306,-0.2787254,-0.033801455,2017-05-27 13:10:54,75.32284296583231
0.6997054,-0.079008654,-9.760562,0.09913922,0.013768413,-0.043001346,0.0,0.7414379,-0.1408135,-9.77757,-0.04173249,0.061804846,0.017007828,-0.9591928,-0.28011867,-0.034299932,2017-05-27 13:10:55,63.77742028999381
0.6853402,-0.11252748,-9.710283,0.10020345,0.013768413,-0.043001346,0.0,0.74303395,-0.14150172,-9.777441,-0.05769372,0.028974243,0.067157745,-0.95899385,-0.28078738,-0.034356102,2017-05-27 13:10:56,80.61283622021323
1.3437457,-0.25857377,-9.83957,0.09701077,-0.094782546,-0.051515147,0.0,1.4049492,-0.24615653,-9.702369,-0.0037426949,0.013918966,-0.06537533,-0.95619166,-0.2835148,-0.065283224,2017-05-27 13:10:57,40.0758536714817
1.4371196,-0.21068975,-9.6767645,0.10339612,0.022282215,-0.043001346,0.0,1.5122035,-0.25740245,-9.685941,-0.07508385,0.046712697,0.009176254,-0.95609957,-0.2823458,-0.070444226,2017-05-27 13:10:58,80.75302028805618
0.8122329,-0.17238252,-9.743802,0.101267666,0.013768413,-0.044065572,0.0,0.8895933,-0.2303107,-9.763504,-0.07736039,0.057928175,0.019701958,-0.9575965,-0.2842695,-0.040183693,2017-05-27 13:10:59,79.0433451749145
0.8265981,-0.15801731,-9.681553,0.10020345,0.012704188,-0.043001346,0.0,0.87363625,-0.22399427,-9.765091,-0.047038138,0.06597696,0.083538055,-0.95735896,-0.28521022,-0.039470073,2017-05-27 13:11:00,68.12508746938997
0.7906851,-0.16759412,-9.767744,0.10020345,0.012704188,-0.04193712,0.0,0.8562471,-0.21744052,-9.766776,-0.06556201,0.049846396,-9.6797943E-4,-0.95729905,-0.2855618,-0.03870512,2017-05-27 13:11:01,82.25785741010287
0.7930793,-0.16280572,-9.794081,0.10020345,0.013768413,-0.043001346,0.0,0.83997405,-0.21278033,-9.768293,-0.04689473,0.049974605,-0.025787354,-0.9574011,-0.285355,-0.03798091,2017-05-27 13:11:02,77.92444079939617
0.8002619,-0.17956513,-9.703101,0.10020345,0.013768413,-0.043001346,0.0,0.8307516,-0.20614849,-9.769225,-0.030489683,0.026583359,0.06612396,-0.957398,-0.28544867,-0.03762361,2017-05-27 13:11:03,76.3800539659321
0.8265981,-0.20350714,-9.650429,0.10020345,0.014832638,-0.043001346,0.0,0.8220559,-0.19874664,-9.770113,0.0045422316,-0.004760504,0.11968422,-0.9575412,-0.28504726,-0.037314657,2017-05-27 13:11:04,77.49693494333995
0.7811083,-0.1436521,-9.715072,0.10020345,0.014832638,-0.043001346,0.0,0.8144312,-0.19264391,-9.770878,-0.03332287,0.048991814,0.05580616,-0.9577998,-0.28424573,-0.037047774,2017-05-27 13:11:05,78.33643244295212
0.8194155,-0.1364695,-9.705495,0.10020345,0.013768413,-0.043001346,0.0,0.8121774,-0.18828978,-9.771148,0.00723809,0.05182028,0.06565285,-0.9580257,-0.2835078,-0.037016686,2017-05-27 13:11:06,78.48388326951661
0.83378077,-0.21068975,-9.703101,0.10020345,0.014832638,-0.044065572,0.0,0.8082064,-0.18085346,-9.771618,-0.010338664,-0.0058942735,0.020632744,-0.95842993,-0.2821806,-0.036958113,2017-05-27 13:11:07,76.94085197150636
