ACC_X,ACC_Y,ACC_Z,GYRO_X,GYRO_Y,GYRO_Z,LIGH_1,GRAV_X,GRAV_Y,GRAV_Z,LINACC_X,LINACC_Y,LINACC_Z,ROTVEC_X,ROTVEC_Y,ROTVEC_Z,TIME,VOICE
0.0,0.0,0.0,0.0,0.0,0.0,0.0,0.0,0.0,0.0,0.0,0.0,0.0,0.0,0.0,0.0,2016-12-07 19:06:07,49.9517083075769
8.168945,-0.43476868,5.1877136,0.03277585,-0.014011737,-0.0012586769,53.0,8.325212,-0.46271986,5.162087,0.16662313,-0.02686873,-0.040885564,0.054794934,-0.4838116,0.14532104,2016-12-07 19:06:08,72.0434921154044
8.142792,-0.35630798,5.2661743,0.055617444,0.002932464,0.0323616,53.0,8.365529,-0.37060255,5.1040173,0.22056083,-0.030093864,-0.23515882,0.07994262,-0.482322,0.18042834,2016-12-07 19:06:09,51.25084791066782
7.907425,-0.36938477,5.619217,0.014469182,0.022864016,0.008682833,62.0,8.227331,-0.3534887,5.3250785,0.32753012,0.014260672,-0.2865049,0.07911881,-0.4706884,0.18275122,2016-12-07 19:06:10,48.45281012642396
8.025116,-0.38246155,5.4230804,0.024389114,-0.009185675,0.016337086,58.0,8.046702,-0.35671544,5.5940795,0.010697426,0.05189497,0.15956107,0.06909256,-0.45849043,0.17065744,2016-12-07 19:06:11,54.70152181213061
7.959732,-0.36938477,5.56691,-0.018760432,0.00728969,-0.012728193,60.0,8.125851,-0.36250305,5.4780946,0.17156783,0.005246331,-0.1062481,0.06778168,-0.46460766,0.16628538,2016-12-07 19:06:12,71.6251797774219
7.86821,-0.36938477,5.7368927,0.021307845,-0.004378625,0.014085736,64.0,8.121399,-0.3686943,5.4842806,0.24794784,-0.042358276,-0.22136225,0.068525545,-0.4643438,0.16836481,2016-12-07 19:06:13,66.12190869387088
7.8289795,-0.38246155,5.7368927,0.005177288,0.0053664674,0.004188967,64.0,7.94411,-0.36008742,5.738628,0.11241026,-0.019578729,0.058943085,0.060686972,-0.45092142,0.15872064,2016-12-07 19:06:14,61.634710212751955
8.443527,-0.14709473,3.971695,-0.18340527,-0.0194435,-0.12875542,35.0,7.978455,-0.37078968,5.690092,-0.69770616,0.0105800545,1.3996828,0.023088034,-0.4590889,0.08586057,2016-12-07 19:06:15,59.93153918994052
9.515717,-0.33015442,2.37648,0.4612013,-0.122139454,0.18431573,11.0,9.180607,-0.4453952,3.418845,-0.31277585,-0.5679783,1.0352842,0.17454073,-0.5457663,0.28749442,2016-12-07 19:06:16,54.52030606364477
9.515717,-0.38246155,2.324173,0.21435593,-0.02772327,0.058739036,11.0,9.492446,-0.32369024,2.4411254,0.012684282,0.030438783,0.15290698,0.3879519,-0.47589862,0.51960623,2016-12-07 19:06:17,64.4208197590475
9.473221,-0.36283875,2.3437958,-0.026634503,0.0030894792,-0.0074214716,12.0,9.521995,-0.3434604,2.3203492,0.055853896,0.010668616,-0.022350663,0.41836855,-0.4545272,0.5530397,2016-12-07 19:06:18,53.42489066049542
9.512451,-0.38246155,2.3437958,0.021924622,-0.0022079896,0.0048693325,14.0,9.509735,-0.3538085,2.3685775,0.0027325489,0.0139409,0.025877746,0.41385654,-0.45607194,0.5507502,2016-12-07 19:06:19,52.92742353777213
9.504272,-0.37101746,2.3536072,-0.032346822,0.0017437446,-0.0075493692,10.0,9.516851,-0.35408428,2.339779,0.023468995,0.013665083,-0.0029208427,0.3952632,-0.47376865,0.52627516,2016-12-07 19:06:20,48.22964944280491
9.512451,-0.39227295,2.353592,-0.002864285,8.3709625E-4,3.8971534E-4,10.0,9.516998,-0.35323727,2.3393052,0.037236486,8.9177256E-4,0.010225653,0.4050385,-0.46545961,0.5382938,2016-12-07 19:06:21,50.32859770039619
9.483032,-0.36283875,2.3339844,0.003020448,7.3672127E-4,2.9588433E-4,10.0,9.514187,-0.36061528,2.3495953,0.020804616,-0.006486271,0.06137698,0.40595433,-0.46409366,0.54039806,2016-12-07 19:06:22,56.083780835068254
9.492844,-0.36283875,2.3732147,0.010142176,6.746418E-4,0.002461498,10.0,9.512917,-0.35391876,2.3557482,-0.021326683,2.10272E-4,0.0130484,0.40757182,-0.46233124,0.5423534,2016-12-07 19:06:23,58.80819226881802
9.532059,-0.32362366,2.3634033,0.0027682232,0.0066105565,0.0017256838,10.0,9.506843,-0.3760081,2.3767521,0.0017466034,-0.007497312,-0.05518656,0.4055571,-0.46317968,0.5421237,2016-12-07 19:06:24,55.41640834829083
9.54187,-0.35630798,2.324173,-0.0016397199,8.482869E-4,-0.00237665,10.0,9.50953,-0.3549964,2.3692234,-0.09281522,-0.014487727,-7.170135E-4,0.4057405,-0.46321222,0.5408348,2016-12-07 19:06:25,54.51432208740449
9.554947,-0.35630798,2.3503265,-0.030067844,7.325146E-4,-0.008370148,11.0,9.514328,-0.34456414,2.3514311,-0.019915102,-0.004055465,0.008731355,0.39428067,-0.47399208,0.524969,2016-12-07 19:06:26,69.38707312090797
9.522263,-0.3432312,2.3928223,1.699592E-4,8.4880606E-4,0.0014273508,11.0,9.520744,-0.3505182,2.3244262,-0.027119322,-0.010009509,-0.03189401,0.39803022,-0.47222158,0.5288,2016-12-07 19:06:27,65.73046616734906
9.54187,-0.3530426,2.3339844,-8.304892E-4,3.8852875E-5,-7.382412E-5,14.0,9.51534,-0.35855043,2.3452392,-0.018903386,-0.018041749,0.016159615,0.40546548,-0.46478537,0.539417,2016-12-07 19:06:28,51.51722864720281
9.483032,-0.37265015,2.3732147,-0.015982227,0.0020300506,-0.003171971,15.0,9.510269,-0.3572004,2.365922,0.0028090305,0.023237655,0.052161593,0.41063836,-0.4589489,0.5470989,2016-12-07 19:06:29,56.84731119992871
9.476501,-0.39553833,2.3372498,0.0062731015,-0.0023990031,-9.345588E-4,14.0,9.521617,-0.3460404,2.321524,0.014613776,0.00808864,-0.007555452,0.4063413,-0.46550864,0.537973,2016-12-07 19:06:30,54.89791877151056
9.54187,-0.4118805,2.324173,-0.014178076,0.004027225,-0.0030304312,15.0,9.51772,-0.36320764,2.334838,-0.016522486,0.031782456,0.0057585537,0.39190972,-0.4767325,0.52252203,2016-12-07 19:06:31,52.186279536254276
9.201904,-0.31707764,1.9188385,-0.017706545,0.018088419,-0.010403173,15.0,9.523437,-0.33596665,2.3155324,-0.0020076379,0.011035617,0.6472716,0.38764435,-0.4798282,0.5152906,2016-12-07 19:06:32,52.75963190028369
9.72493,-0.6308899,2.768753,-0.008852075,0.0027043943,1.3374382E-4,15.0,9.519744,-0.3421087,2.3297682,-0.06898045,-0.30124763,0.39567885,0.3876954,-0.48058003,0.5155345,2016-12-07 19:06:33,66.23053957432384
9.241135,-0.4216919,4.298584,0.06259935,-0.06980005,0.013174058,13.0,9.531532,-0.27486235,2.2901387,-0.057192326,0.106507376,-2.5042236,0.39533627,-0.4777418,0.51732934,2016-12-07 19:06:34,75.43108659751424
9.489563,-0.35630798,2.4418488,0.36618647,-0.08602189,0.12149575,13.0,9.420984,-0.29935682,2.7066247,-0.072398,0.054772224,0.26858246,0.36640665,-0.47872984,0.50522256,2016-12-07 19:06:35,73.84262937637627
9.476486,-0.35630798,2.3372498,0.023539629,-0.0013863979,0.0064048436,14.0,9.492707,-0.35228318,2.4361467,0.04018601,0.0018458422,0.052585978,0.40856394,-0.45703876,0.5480325,2016-12-07 19:06:36,51.51846835810532
9.532059,-0.3432312,2.3830109,0.029123496,0.006805834,0.0074224267,12.0,9.490104,-0.3578416,2.4454553,-0.016898243,-0.0037125975,-0.047068298,0.40065557,-0.46316844,0.53933895,2016-12-07 19:06:37,66.91590979473854
9.437271,-0.3432312,2.428772,0.016524084,-0.0034124278,0.006321557,13.0,9.4950485,-0.37633803,2.4233882,0.016054453,-0.038308267,-0.0452926,0.4118435,-0.45504168,0.552763,2016-12-07 19:06:38,55.78189153096596
9.463425,-0.3432312,2.428772,-0.044760704,7.2245736E-4,-0.011821524,13.0,9.49122,-0.34847215,2.4424772,0.038437746,-0.008315564,0.019024342,0.4065328,-0.45850298,0.54561156,2016-12-07 19:06:39,62.75892816526295
9.414383,-0.2745819,2.4026337,-0.040081874,-0.0032561955,-0.017204842,14.0,9.501696,-0.31456983,2.4060779,0.07641494,-0.055783235,0.036137484,0.4011912,-0.46528772,0.5344874,2016-12-07 19:06:40,59.17798023710916
9.463425,-0.35630798,2.481079,-0.014274877,0.0039422917,-3.7325372E-4,15.0,9.49255,-0.32162076,2.4409926,0.04002889,0.01888793,-0.051531035,0.40212017,-0.46215016,0.53899604,2016-12-07 19:06:41,54.8828599645093
9.450348,-0.38246155,2.4549255,-0.018914793,0.0017511457,-0.0037935416,14.0,9.4966345,-0.35295534,2.4206934,0.057453357,0.013612918,-0.030042036,0.3959168,-0.46876147,0.5316699,2016-12-07 19:06:42,51.149862780053624
9.489563,-0.36938477,2.428772,0.040284432,-0.0030886554,0.010656996,14.0,9.485882,-0.35348594,2.4624126,0.019299095,-0.026389657,0.026100956,0.40360257,-0.46000558,0.543389,2016-12-07 19:06:43,61.1594954637848
9.483032,-0.3432312,2.4516602,-0.03573824,-4.2255616E-4,-0.009680082,12.0,9.498445,-0.34325853,2.4149795,0.0045157303,0.037402514,-0.02101764,0.40693423,-0.45969388,0.5442024,2016-12-07 19:06:44,56.72660997463438
9.492844,-0.38246155,2.4222412,-0.016918037,0.0038240158,-0.003749078,16.0,9.484711,-0.3639922,2.465395,0.004948848,-0.009863171,0.09545445,0.40005893,-0.4628056,0.53990525,2016-12-07 19:06:45,62.83979509610081
9.463425,-0.35630798,2.481079,0.024852242,-0.0027893744,0.00516553,16.0,9.494745,-0.33757427,2.4302824,0.042223576,0.016554752,-0.021380097,0.40161753,-0.4635108,0.5380772,2016-12-07 19:06:46,57.67571550448241
9.443802,-0.38246155,2.4614716,0.0317284,-5.341967E-4,0.008619232,15.0,9.494543,-0.33554766,2.4313452,0.09650379,0.045822076,-0.033937808,0.39945102,-0.4652605,0.5354157,2016-12-07 19:06:48,77.452604408746
9.463409,-0.3432312,2.4418488,-0.060821656,-6.10242E-4,-0.017592926,16.0,9.487702,-0.3039535,2.462012,-0.004841608,0.07823553,0.048079394,0.38428524,-0.47631258,0.51599497,2016-12-07 19:06:49,72.00213522163209
9.450333,-0.30400085,2.5333862,0.02530199,2.666641E-4,0.0054085883,16.0,9.499039,-0.3630433,2.4097407,0.07375887,-0.09063636,0.012559583,0.40884364,-0.4582139,0.5475493,2016-12-07 19:06:50,65.91513331690048
9.437271,-0.33015442,2.3503265,-9.938043E-4,6.234448E-4,-1.3043683E-4,15.0,9.494595,-0.32713622,2.4322953,0.04207311,-0.027488584,0.03511413,0.40739086,-0.4582602,0.5448779,2016-12-07 19:06:51,59.57783843906007
9.489578,-0.36938477,2.4418488,-0.023969736,7.477713E-4,-0.00437768,16.0,9.492242,-0.33898932,2.4398396,0.0124797765,0.028760063,0.0017975217,0.4019428,-0.4626808,0.5393544,2016-12-07 19:06:52,55.71867454706026
9.489563,-0.35630798,2.4157104,0.050284147,-0.010981162,0.017345775,16.0,9.49932,-0.380537,2.4059305,0.005938119,-0.026407974,-0.0048711197,0.4106928,-0.45705938,0.5505073,2016-12-07 19:06:53,68.37662132376988
9.489563,-0.33015442,2.428772,-0.0022492362,0.013017435,-0.005568376,16.0,9.494283,-0.34068888,2.4316497,0.0145206675,-1.8018861E-4,-0.0063926433,0.40353242,-0.4613545,0.54098165,2016-12-07 19:06:54,54.04465461052531
9.50264,-0.35630798,2.4157104,-0.07321001,0.009283718,-0.031215679,16.0,9.442992,-0.47106293,2.6035357,-0.077630326,-0.14417459,0.19273406,0.4230554,-0.43421528,0.58133686,2016-12-07 19:06:55,55.283546449211094
9.463425,-0.33015442,2.4680023,-0.0040589985,-0.0025481633,-1.4691844E-4,16.0,9.50115,-0.38649035,2.397742,0.035742607,-0.060829606,-0.08427112,0.4123323,-0.45602384,0.55237377,2016-12-07 19:06:56,53.06811283993607
9.437271,-0.3432312,2.389557,-0.021659413,0.006384578,-0.005729129,15.0,9.468967,-0.36194855,2.5254765,0.030067185,-0.021439875,0.11467499,0.38727167,-0.47029042,0.5270878,2016-12-07 19:06:57,59.68725000261951
9.463425,-0.3432312,2.428772,0.055224076,-0.020032605,0.014600606,16.0,9.582991,-0.39570495,2.044529,0.13046986,-0.055196274,-0.3798929,0.42222643,-0.4666799,0.54475504,2016-12-07 19:06:58,50.546908554909244
9.50264,-0.3432312,2.3110962,-7.853186E-4,-0.007919416,-2.5178932E-4,15.0,9.512046,-0.35300553,2.359398,0.034344323,-0.012427637,0.062865876,0.39851853,-0.4706089,0.53064567,2016-12-07 19:06:59,60.38312411121959
9.50264,-0.3432312,2.3110962,-0.068231866,0.0030158076,-0.01796763,15.0,9.519768,-0.34873366,2.328687,0.026386097,-0.021845324,0.02684831,0.38829207,-0.48008168,0.5165921,2016-12-07 19:07:00,61.05703314162099
9.512451,-0.3530426,2.294754,-0.028125843,0.0025259242,-0.0069703273,15.0,9.522391,-0.33812353,2.3195148,0.04262926,0.016005509,-0.036805447,0.3909724,-0.4783581,0.51891017,2016-12-07 19:07:01,51.463582024528634
9.483032,-0.37265015,2.3339844,0.0058438024,5.8554433E-4,0.0017684592,14.0,9.519527,-0.3563783,2.328512,-0.0010948485,0.024991427,-0.02780807,0.41449547,-0.4576555,0.5494956,2016-12-07 19:07:02,50.282960038768934
9.522263,-0.37265015,2.3830109,0.04154403,-0.0018572932,0.008826367,12.0,9.51645,-0.37546268,2.3380733,-0.017928248,0.004675292,0.009346738,0.4239128,-0.44841892,0.5627357,2016-12-07 19:07:03,57.678912114859735
9.483032,-0.39227295,2.3045654,-0.1013021,0.0033210681,-0.026074247,12.0,9.51344,-0.35564533,2.3533695,0.047298785,0.039344765,0.03791048,0.40186948,-0.46747568,0.5352045,2016-12-07 19:07:04,60.7925007702222
9.5516815,-0.39227295,2.265335,0.009391125,-0.01054262,0.0014139627,14.0,9.534693,-0.3710813,2.263257,4.4974417E-4,-0.0033319045,0.05676066,0.4017827,-0.47270244,0.5307635,2016-12-07 19:07:05,67.47797852275596
9.528793,-0.38246155,2.15419,0.043948513,-0.0076429434,0.008750094,14.0,9.555522,-0.35951722,2.175575,0.0212793,-0.019008523,-0.017301016,0.41016814,-0.4700998,0.5355381,2016-12-07 19:07:06,60.49132417182541
9.489563,-0.38246155,2.2457275,0.0041773273,0.0016938713,0.0021819607,15.0,9.544919,-0.35450748,2.2224367,0.051536858,0.026862238,0.015940353,0.417391,-0.460885,0.5469395,2016-12-07 19:07:07,58.39919259008103
9.532059,-0.38246155,2.2457275,0.0075075123,-7.932374E-4,0.001902261,16.0,9.536177,-0.36970478,2.257221,-0.025307043,0.011664952,-0.017377082,0.40433568,-0.47057617,0.5337754,2016-12-07 19:07:08,52.59999277979102
9.5811,-0.4118805,1.6377106,0.0051991795,-0.0156184565,8.5817004E-4,15.0,9.548726,-0.38493153,2.2009203,-0.026377784,-0.0035617908,0.4711361,0.41908798,-0.4609914,0.5490494,2016-12-07 19:07:09,58.60388575222469
9.437271,-0.3432312,2.5595398,-0.057957865,0.043972045,-0.015752997,19.0,9.522129,-0.36402816,2.3166652,0.11046913,-0.0098991515,-0.21671952,0.40010345,-0.46776998,0.5346172,2016-12-07 19:07:10,62.95696085966217
9.424194,-0.35630798,2.5726166,-0.021573817,0.0023921314,-0.006341355,19.0,9.4608965,-0.3574551,2.5561779,0.048766892,-0.016553452,-0.0026531578,0.40626553,-0.45220363,0.5525257,2016-12-07 19:07:11,59.57382942400298
9.453613,-0.3530426,2.6183777,-0.0025877503,2.0127342E-4,-0.0012740114,19.0,9.453012,-0.3722803,2.5830884,0.014111658,-0.045391947,-0.018397944,0.40817398,-0.44910058,0.5572669,2016-12-07 19:07:12,59.82563024616768
9.453613,-0.36283875,2.5497284,0.010126118,6.4330886E-4,0.005023544,19.0,9.454521,-0.35175064,2.5804436,0.0428612,0.015998755,0.006197906,0.39640695,-0.45959374,0.5413235,2016-12-07 19:07:13,60.674627157251805
9.473221,-0.39227295,2.5889587,-0.04447214,0.0010096529,-0.011975034,19.0,9.455988,-0.3652679,2.5731833,0.030707298,-0.024759231,-0.001062427,0.3837937,-0.47066197,0.5254664,2016-12-07 19:07:14,54.081127826654765
9.4339905,-0.39227295,2.6477966,0.03892127,-0.0021449425,0.009628492,19.0,9.458346,-0.35091078,2.5665016,0.033065755,0.016838595,-0.034984857,0.3811594,-0.47315913,0.5208224,2016-12-07 19:07:15,50.39571134185637
9.404572,-0.3432312,2.628189,-0.08223982,0.004818877,-0.023262074,19.0,9.45718,-0.3483081,2.5711522,0.18172324,-0.08952148,0.09224909,0.39407244,-0.46213293,0.5373352,2016-12-07 19:07:16,60.10947445655876
9.473221,-0.4020691,2.569336,0.038761858,-0.0020984523,0.012744432,19.0,9.455546,-0.36647418,2.5746331,0.030346507,-0.014916531,0.08144588,0.39028162,-0.46525246,0.5340167,2016-12-07 19:07:17,48.5759961344531
9.476501,-0.38246155,2.5595398,0.02232947,-0.0015828738,0.006430773,19.0,9.462738,-0.37065995,2.547468,-0.0034034243,0.010709792,-0.013157509,0.39889935,-0.45935437,0.5434522,2016-12-07 19:07:18,57.32084726113382
9.411118,-0.3432312,2.598755,0.016451817,-1.14371884E-4,0.004044224,19.0,9.457709,-0.37458313,2.565506,0.05966966,-0.03407443,-0.022360016,0.40166977,-0.4558923,0.54821265,2016-12-07 19:07:19,55.743650756742895
9.492844,-0.2942047,2.5301208,-0.02352956,0.0025445959,-0.0059036175,19.0,9.459481,-0.37268627,2.5592396,0.02058099,-0.04579794,0.09395662,0.39155132,-0.46493328,0.5350278,2016-12-07 19:07:20,58.87742251018344
9.450348,-0.36938477,2.5072327,0.03337458,-0.0010954171,0.009047699,19.0,9.462044,-0.34616572,2.5534847,-0.0040975767,-0.0056570293,0.03372042,0.40467188,-0.4539217,0.54958504,2016-12-07 19:07:21,59.20157799004486
9.424194,-0.4020691,2.4124298,0.009939937,-5.032379E-4,0.0045576734,19.0,9.466467,-0.364692,2.5344436,0.054807264,0.04391843,0.069160834,0.4019605,-0.45739725,0.54624504,2016-12-07 19:07:22,59.599746588807996
9.450348,-0.3432312,2.5072327,-0.050707266,0.0057960344,-0.013545545,19.0,9.487089,-0.3660763,2.4559162,0.03456795,-0.03918793,-0.05022773,0.39470714,-0.4678725,0.53280395,2016-12-07 19:07:23,65.76719005356539
9.1888275,-0.25170898,2.481079,-0.009823688,0.0017054637,-0.003194154,19.0,9.467932,-0.35135314,2.5308523,-0.2437156,-0.21755616,0.29805213,0.3761749,-0.47897145,0.51278937,2016-12-07 19:07:24,57.67445050427717
9.437271,-0.38246155,2.5726166,-0.01911817,0.0023321076,-0.0012138373,19.0,9.470368,-0.34527972,2.522554,0.07288598,0.040022943,-0.0123879155,0.3861389,-0.47150967,0.5242205,2016-12-07 19:07:25,66.79002127081789
9.437271,-0.38246155,2.5072327,0.04337098,-0.0041534537,0.011084617,19.0,9.48026,-0.36208075,2.4827337,0.055533845,0.01908981,-0.025554778,0.38712442,-0.4728742,0.5244128,2016-12-07 19:07:26,64.30358496339815
9.424194,-0.36938477,2.5203094,-0.04500438,-0.0014723649,-0.013033776,19.0,9.485961,-0.3686934,2.459876,0.0198195,-9.4401586E-4,-0.019027045,0.40422875,-0.45962855,0.5448595,2016-12-07 19:07:27,42.26065030769753
9.443802,-0.3530426,2.481079,-0.033738982,2.525185E-4,-0.009481219,19.0,9.479842,-0.35526845,2.485311,0.027321333,0.01248092,0.12899095,0.39357942,-0.4673206,0.53225535,2016-12-07 19:07:28,57.81735943128911
9.463425,-0.3432312,2.481079,0.042335887,-9.3513704E-4,0.00970484,19.0,9.477627,-0.36041763,2.4930065,0.011485517,-0.0062886244,0.02772369,0.38502887,-0.4739568,0.5222685,2016-12-07 19:07:29,51.41693786436338
9.424194,-0.38246155,2.428772,-0.0025017888,0.0025197202,-2.0009337E-4,19.0,9.47415,-0.36032513,2.5062008,0.022397425,0.02178043,-0.016368069,0.39017725,-0.46909508,0.52939945,2016-12-07 19:07:30,62.31808421049752
9.463425,-0.3432312,2.4549255,0.019129159,-0.010288049,0.0037173089,19.0,9.473416,-0.35507968,2.5097206,0.03451558,-0.028191335,0.085298635,0.40379736,-0.457441,0.5461441,2016-12-07 19:07:31,57.631828974654546
9.437271,-0.36938477,2.585678,-0.026203038,0.0035037696,-0.006293832,19.0,9.475271,-0.3539756,2.5028636,0.051126182,0.014380252,-0.08921727,0.39654762,-0.46396133,0.53677243,2016-12-07 19:07:32,61.76043199299423
9.473221,-0.39227295,2.3928223,-0.009197904,-0.0071756933,-0.0023093263,19.0,9.465166,-0.3692139,2.53864,-9.751384E-4,0.012155822,0.15507922,0.38918197,-0.4683262,0.53036773,2016-12-07 19:07:33,47.78372066156878
9.515732,-0.39553833,2.3634033,-0.026416,-6.5286603E-4,-0.008126172,18.0,9.470238,-0.3673654,2.5199223,0.017717093,0.014004339,0.23170386,0.39885333,-0.46143055,0.54098713,2016-12-07 19:07:34,55.784729325433034
9.450348,-0.35630798,2.481079,-0.021921223,0.0021232937,-0.0066656144,19.0,9.484204,-0.34870657,2.4695463,0.045303617,0.005422441,-0.02297727,0.38713238,-0.47348237,0.52293134,2016-12-07 19:07:35,59.161426902652565
9.463425,-0.38246155,2.4908905,0.012017403,0.0010405749,0.003354277,19.0,9.477971,-0.36553314,2.490953,0.011829684,-0.0114041,0.012049776,0.39281905,-0.46760195,0.5323367,2016-12-07 19:07:36,64.9399828396759
9.522263,-0.4118805,2.4908905,-0.062660396,0.0033295783,-0.014859997,19.0,9.464921,-0.3706919,2.5393395,-0.12380351,0.037918534,0.07405669,0.39488354,-0.46324164,0.53800595,2016-12-07 19:07:37,66.14311920520704
9.463425,-0.38246155,2.5072327,-0.05818748,0.0025684286,-0.018778529,19.0,9.478359,-0.35960528,2.4903355,0.025838258,0.021764452,-0.01580859,0.3926331,-0.46780562,0.5316021,2016-12-07 19:07:38,70.01934632600518
9.483032,-0.38246155,2.510498,-0.02375679,1.5351709E-4,-0.0057139727,19.0,9.477353,-0.37148392,2.492423,-0.002408334,-0.0037345234,-0.027341284,0.37979725,-0.47817752,0.5164438,2016-12-07 19:07:39,56.04359901659842
9.463425,-0.43148804,2.539917,-0.034597527,0.0021475963,-0.008232956,19.0,9.465366,-0.4134118,2.5310733,0.04008542,-0.059282783,0.07941081,0.38777554,-0.46965495,0.53119874,2016-12-07 19:07:40,48.02454013637277
9.424194,-0.39553833,2.5072327,0.013823662,-0.002319926,0.0016654251,19.0,9.475751,-0.37754768,2.497597,0.036849923,-0.03703897,0.03231424,0.402779,-0.4587857,0.54573846,2016-12-07 19:07:41,64.71879774122553
9.473221,-0.37265015,2.4908905,-0.04293858,8.902387E-4,-0.010932282,19.0,9.480473,-0.34930235,2.4837549,-0.040150262,0.00482667,-0.02238911,0.38724005,-0.47269621,0.5238921,2016-12-07 19:07:42,62.679107487418555
9.522263,-0.3432312,2.4026337,-0.012892249,0.0024180685,-0.0027722123,20.0,9.477271,-0.38204637,2.4911385,-0.015760165,-0.096468195,0.11979342,0.38269472,-0.47598648,0.5206337,2016-12-07 19:07:43,66.33478506308496
9.489563,-0.39553833,2.389557,-0.051980633,-1.0790416E-4,-0.012710558,19.0,9.502053,-0.35420334,2.3991463,0.06270065,-0.02719009,0.003778973,0.3806264,-0.48245025,0.5113691,2016-12-07 19:07:44,65.20216696206275
9.492844,-0.38246155,2.4418488,0.01644298,0.0014758863,0.004631216,20.0,9.502106,-0.35987845,2.398095,0.008723872,0.02149126,-0.012706726,0.40260324,-0.46430913,0.5390104,2016-12-07 19:07:45,67.26958261341261
9.483032,-0.37265015,2.4320526,0.011974548,-0.0014778815,0.003445966,20.0,9.50242,-0.37887532,2.3939211,0.02265846,-0.038366616,-0.030500717,0.40276057,-0.46448928,0.54002655,2016-12-07 19:07:46,66.86654050062677
9.463425,-0.37265015,2.3830109,0.034712493,-0.0026386164,0.009387164,20.0,9.500164,-0.37867513,2.4028924,0.019955005,-0.02405801,0.048416913,0.40840343,-0.45895824,0.5475663,2016-12-07 19:07:47,48.235717470024596
9.50264,-0.37265015,2.3928223,-0.08183331,0.0053427173,-0.02018291,20.0,9.49741,-0.381641,2.4132829,-0.009592602,-2.712701E-4,-0.011139064,0.3728376,-0.48774466,0.50419956,2016-12-07 19:07:48,57.34316306269412
9.50264,-0.35630798,2.4549255,-0.014415612,-3.8117619E-4,-0.004533726,9.0,9.502781,-0.3770215,2.3927777,0.009597589,-0.021927001,-0.059518564,0.3627799,-0.4964006,0.49018615,2016-12-07 19:07:49,64.77350459790871
9.463425,-0.3530426,2.4124298,0.027931541,-0.0043673855,0.008379914,17.0,9.498732,-0.37260228,2.4094946,0.059830938,-0.018473256,0.039554,0.36566383,-0.49349216,0.4943529,2016-12-07 19:07:50,63.76044781578636
9.463425,-0.3432312,2.3732147,0.0039499826,6.986057E-5,0.0015831112,21.0,9.494522,-0.3786193,2.4250965,0.028380433,-0.038110618,0.014294963,0.35813293,-0.49809164,0.4862164,2016-12-07 19:07:51,56.88586707043416
9.483032,-0.4020691,2.4320526,0.082266666,-0.0023600615,0.021856239,20.0,9.495054,-0.36420855,2.4252226,0.0016717847,0.017161174,0.04166181,0.39658174,-0.4680352,0.5332846,2016-12-07 19:07:52,61.94904027814934
9.463425,-0.38246155,2.4418488,0.018377008,-3.7309193E-4,0.0035462559,20.0,9.495752,-0.3795648,2.4201288,-0.011250254,0.015425299,0.036568105,0.4152408,-0.4518604,0.5570058,2016-12-07 19:07:53,61.019293639203134
9.483032,-0.4020691,2.4124298,-0.032312058,-5.9470406E-4,-0.009252864,19.0,9.50299,-0.3758061,2.3921435,0.036848262,-0.008056686,0.022203105,0.41241956,-0.4560663,0.5516062,2016-12-07 19:07:54,59.8805079376751
9.483032,-0.39227295,2.3928223,-0.077730425,0.013368086,-0.021807611,12.0,9.45471,-0.34789303,2.5802763,-0.052292522,0.019856364,0.16947477,0.39030218,-0.4641851,0.5337035,2016-12-07 19:07:55,52.082624799511834
9.476486,-0.38246155,2.4026337,-0.014145067,-0.0018306508,-0.0042554513,20.0,9.499675,-0.35920447,2.4078043,0.01991344,0.022165228,0.024243576,0.40984607,-0.45752215,0.54833674,2016-12-07 19:07:56,55.96763824911051
9.512451,-0.39227295,2.4418488,-0.006597169,0.0017389741,-0.0030310368,20.0,9.496274,-0.3631685,2.4205942,0.002556309,0.019732134,-0.043140728,0.4078967,-0.4583424,0.5469852,2016-12-07 19:07:57,62.565594126519564
9.483032,-0.4020691,2.4222412,0.041196167,-0.0024827062,0.01279809,20.0,9.495632,-0.3763724,2.4210935,0.015870731,0.018617673,-0.0033283976,0.38844767,-0.47506595,0.5236928,2016-12-07 19:07:58,56.99052597482729
9.492844,-0.38246155,2.3928223,0.03531114,-9.48962E-4,0.008990364,20.0,9.490944,-0.38035572,2.4387908,0.06566347,0.014634376,-0.012871743,0.39301643,-0.47029838,0.5305636,2016-12-07 19:07:59,56.468570315616084
9.489563,-0.35630798,2.389557,-0.0727122,0.0019287776,-0.019448835,20.0,9.501495,-0.37312356,2.3984907,0.021733198,-0.032614868,0.014929884,0.3852375,-0.47889352,0.5180577,2016-12-07 19:08:00,61.81647393842506
9.512451,-0.4216919,2.353592,0.027695173,-0.0018495294,0.007880322,20.0,9.505459,-0.36513817,2.3839707,0.03931811,0.029851897,4.0984078E-4,0.3989587,-0.46829826,0.53395706,2016-12-07 19:08:01,59.34913628888943
9.483032,-0.4020691,2.4418488,-0.023712752,0.003086358,-0.006584232,20.0,9.496291,-0.3738091,2.4189098,0.016995506,0.034474507,0.01984652,0.40459874,-0.46153417,0.54338264,2016-12-07 19:08:02,62.47244976630463
9.473221,-0.39227295,2.4418488,0.013126574,-8.5195777E-4,0.0030815885,20.0,9.498261,-0.3769463,2.4106688,0.0048798486,0.018043775,-1.3280337E-4,0.4056894,-0.46099362,0.5444764,2016-12-07 19:08:03,60.31874776546949
9.492844,-0.37265015,2.3928223,0.0,-0.0,0.0,19.0,9.499005,-0.38963842,2.405718,0.01938971,-0.008412699,-0.019303875,0.40095535,-0.46540025,0.53910786,2016-12-07 19:08:04,64.97001057884007
9.453613,-0.37265015,2.3830109,0.066476084,-0.0041371873,0.01642463,18.0,9.4983835,-0.37558618,2.4104018,0.03224275,-0.035077497,-3.996571E-4,0.40920305,-0.4579289,0.5486931,2016-12-07 19:08:05,64.10944189618041
9.522263,-0.4020691,2.3045654,0.07324663,-0.007938936,0.017405998,18.0,9.506882,-0.36455417,2.3783793,-0.013740889,0.044056244,0.008438937,0.41869426,-0.45121652,0.5577683,2016-12-07 19:08:06,62.82005688818047
9.515717,-0.35630798,2.4156952,-0.05898998,0.007030661,-0.016956924,18.0,9.508232,-0.3685804,2.3723533,0.0012295223,-0.014451382,-0.13379057,0.4321288,-0.43837065,0.574507,2016-12-07 19:08:07,73.17401672167068
9.476501,-0.38246155,2.428772,-0.05392438,0.0023773925,-0.012362487,17.0,9.50219,-0.36779726,2.3965616,0.022766529,0.001292339,-0.015376926,0.42751396,-0.44167674,0.57005376,2016-12-07 19:08:08,62.04329729596588
9.463425,-0.3530426,2.4026337,-0.035275966,0.0011784869,-0.012600173,16.0,9.499413,-0.35733998,2.409121,0.101174966,-0.04801627,0.02574827,0.41084474,-0.45647672,0.54975015,2016-12-07 19:08:09,54.435056159477995
9.280365,-0.3432312,2.428772,0.06360448,-0.0019349436,0.01817348,19.0,9.499488,-0.36688206,2.4073849,0.19652654,-0.028288573,-0.0026620945,0.40182504,-0.4645186,0.5389929,2016-12-07 19:08:10,48.45027125310327
9.489563,-0.3432312,2.389557,-0.11330062,0.0033146928,-0.03009153,18.0,9.503104,-0.36166626,2.393868,0.023642741,-0.019444576,0.009373549,0.43156898,-0.4378592,0.5745486,2016-12-07 19:08:11,69.73246329855445
9.50264,-0.39227295,2.353592,-0.031754185,8.470848E-4,-0.0072123427,18.0,9.504269,-0.3689359,2.3881269,0.03812766,0.026054168,0.018186374,0.42305538,-0.446404,0.5642069,2016-12-07 19:08:12,61.63802810894779
9.483032,-0.4118805,2.4614716,-0.063466,0.0030344813,-0.01662787,18.0,9.502567,-0.3742441,2.3940637,0.0091852555,0.020745981,-0.030358145,0.41841668,-0.45036954,0.5591209,2016-12-07 19:08:13,61.890439581795775
9.512451,-0.36283875,2.324173,-0.009304442,0.0016984531,-0.0024468247,18.0,9.497074,-0.37326482,2.415915,0.0036918921,-0.0055154446,0.00511345,0.39724368,-0.46785027,0.53424037,2016-12-07 19:08:14,61.89222640298602
9.450348,-0.38246155,2.4026337,0.07859469,-0.0028598553,0.020195246,19.0,9.497327,-0.36564967,2.416089,0.044805653,0.0020997326,0.018907959,0.4190268,-0.4485908,0.5606659,2016-12-07 19:08:15,60.7315823808723
9.54187,-0.37265015,2.4222412,0.010628359,-0.0020779877,0.002309694,18.0,9.499317,-0.35798657,2.409401,-0.048546594,-0.017477881,-0.042261608,0.42797744,-0.4404899,0.57085276,2016-12-07 19:08:16,61.89215048736145
9.522263,-0.4020691,2.3830109,0.015650596,5.8723264E-4,0.0046412703,16.0,9.497161,-0.3779893,2.4148417,0.099121615,0.08510254,0.12662314,0.44961238,-0.417981,0.59908754,2016-12-07 19:08:17,58.323975173210236
9.489563,-0.3432312,2.3372498,-0.066497065,0.0035330262,-0.018958306,15.0,9.502097,-0.3808986,2.3948827,0.008714728,-0.04038989,0.052183,0.4485674,-0.42028293,0.5965187,2016-12-07 19:08:18,55.67758781989291
9.473221,-0.3432312,2.4222412,-0.04142411,0.003861647,-0.011464449,16.0,9.49998,-0.3858726,2.4024727,0.020217704,-0.031743567,-0.008328787,0.44677424,-0.42171797,0.59524167,2016-12-07 19:08:19,58.675574851318615
9.476501,-0.3432312,2.37648,-0.0026804593,-3.644553E-5,-0.0013676794,17.0,9.49626,-0.36130115,2.4209316,0.043738242,-0.020792482,0.037370745,0.43885309,-0.4290041,0.5850605,2016-12-07 19:08:20,67.04762666987847
9.483032,-0.38246155,2.4320526,-0.0063953935,9.199463E-4,2.3023038E-4,17.0,9.50055,-0.35258952,2.405333,0.0071676415,0.015159848,-0.019088978,0.4492687,-0.41897386,0.59657335,2016-12-07 19:08:21,67.23703094836141
9.473221,-0.4020691,2.3830109,-0.006948159,-2.3795845E-4,-0.0019791266,16.0,9.499889,-0.38223428,2.4034133,0.03374827,0.012755801,0.033472892,0.44622064,-0.42232278,0.59436554,2016-12-07 19:08:22,59.92402589371969
9.492844,-0.4020691,2.4026337,0.06899598,-2.8742E-4,0.017203238,16.0,9.498589,-0.37898996,2.4090624,0.018826904,0.0023797834,-0.028979816,0.44937477,-0.41832954,0.59874773,2016-12-07 19:08:23,58.602378626923255
9.483032,-0.4118805,2.4124298,-0.09367119,0.0026356878,-0.024463799,16.0,9.498014,-0.376349,2.4117365,0.032240253,0.03280059,0.013194504,0.4472736,-0.42082238,0.5957203,2016-12-07 19:08:24,60.8772234953628
9.532059,-0.4216919,2.4320526,-0.015074277,0.0014498219,-0.0055995383,17.0,9.498184,-0.37416288,2.4114099,-0.008818643,0.034447536,-0.026632376,0.4329181,-0.43544203,0.5780378,2016-12-07 19:08:25,62.1076106848745
9.453613,-0.36283875,2.3732147,0.10196508,-0.0063412962,0.023910183,16.0,9.4985,-0.36861297,2.411022,0.033111475,-0.03960544,0.03843317,0.44244865,-0.42604625,0.5890539,2016-12-07 19:08:26,68.25019138512614
9.463425,-0.38246155,2.3928223,0.087275095,-0.005163827,0.023859857,16.0,9.497845,-0.3737575,2.4128122,0.045794096,0.019483414,-1.1638481E-4,0.4498434,-0.41807368,0.59891665,2016-12-07 19:08:27,54.313099699708346
9.450348,-0.36938477,2.389557,0.0031481748,-0.0025744182,9.371083E-4,16.0,9.501371,-0.35964915,2.4010391,0.03522968,0.021720573,0.058339335,0.44201407,-0.42694056,0.5877584,2016-12-07 19:08:28,61.28578215405646
9.492844,-0.3432312,2.4026337,-0.04787736,0.0034194104,-0.0109841935,16.0,9.501872,-0.38301247,2.3954425,0.022109788,-0.04250378,0.011881641,0.44518128,-0.42383876,0.59274715,2016-12-07 19:08:29,52.12383076186205
9.50264,-0.37265015,2.3928223,0.047296714,-0.0022108022,0.011870707,16.0,9.502562,-0.37067434,2.3946395,0.06366082,-0.0029249734,-0.0025415532,0.44418862,-0.42501113,0.590686,2016-12-07 19:08:30,47.852445993214516
9.483032,-0.39227295,2.4222412,-0.018024297,3.294892E-4,-0.0038723869,16.0,9.500537,-0.37083387,2.4026406,0.0071551716,0.010535838,0.019079834,0.4381949,-0.4306948,0.5838509,2016-12-07 19:08:31,54.23041810023548
9.453613,-0.39227295,2.4124298,0.02211113,-3.7572815E-4,0.0055391095,15.0,9.49663,-0.3735164,2.4176245,0.07148687,-0.0056142416,0.0063068094,0.44655144,-0.42111766,0.59518856,2016-12-07 19:08:32,67.99000327885749
9.483032,-0.37265015,2.4026337,-0.011020324,9.300893E-4,-0.002275716,16.0,9.494135,-0.38298556,2.4259312,0.04161339,-0.0016158522,0.028749956,0.4419316,-0.42539734,0.5906535,2016-12-07 19:08:33,71.43734846168635
9.463425,-0.38246155,2.3437958,-0.060024615,-2.4214553E-4,-0.016564926,15.0,9.507386,-0.38119006,2.3737507,0.026815059,-0.02867124,0.04765438,0.4537795,-0.41608852,0.6016195,2016-12-07 19:08:34,74.4783638463381
9.50264,-0.4020691,2.3437958,-0.019982632,0.0023288042,-0.004942309,16.0,9.500657,-0.37900436,2.4008875,-0.0063454662,-0.011254982,0.12628958,0.4478299,-0.42077142,0.5960114,2016-12-07 19:08:35,51.023790652425916
9.512451,-0.37265015,2.2359161,0.02496336,-5.910592E-4,0.005146686,16.0,9.52022,-0.37671643,2.3224738,0.013217158,-0.00896706,0.07511642,0.43546772,-0.4380989,0.5759026,2016-12-07 19:08:36,50.82837739723428
9.450348,-0.3432312,2.4026337,0.025369527,-5.180537E-4,0.006454237,17.0,9.5118475,-0.3621846,2.3588088,0.07294667,-0.021675942,-0.038372483,0.44275054,-0.42864537,0.5862618,2016-12-07 19:08:37,67.85469105809638
9.50264,-0.35630798,2.37648,0.038299594,-0.0018035925,0.009101586,17.0,9.511221,-0.3490023,2.3633204,0.058699507,0.03236742,-0.020240357,0.44635734,-0.42452958,0.5903125,2016-12-07 19:08:38,64.49075437273908
9.443802,-0.25497437,2.4222412,0.056414206,0.0010647214,0.014338063,20.0,9.501503,-0.3588521,2.4006414,0.26690692,-0.15454689,-0.037400883,0.44921678,-0.4191637,0.5967317,2016-12-07 19:08:39,55.31735306608045
9.450348,-0.35630798,2.3110962,0.025960824,-0.0027881926,0.01136691,19.0,9.499884,-0.34760725,2.4086869,0.060983144,0.006521784,0.07960741,0.45327717,-0.414462,0.6016075,2016-12-07 19:08:40,62.70596817476246
9.453613,-0.3530426,2.3830109,-0.093956396,0.00344989,-0.024265181,20.0,9.511461,-0.35093912,2.3620615,0.03179134,0.002407165,-0.008363911,0.44883588,-0.42205775,0.5933406,2016-12-07 19:08:41,54.334405591028094
9.463425,-0.38246155,2.4157104,-0.008884538,0.0037215846,-0.0011250676,20.0,9.510967,-0.37124693,2.3609493,0.003964565,0.010122802,-0.06347253,0.44870993,-0.42210546,0.59438944,2016-12-07 19:08:42,51.82459627548332
9.476501,-0.38246155,2.3372498,0.0030012287,-0.003829601,1.1681673E-4,18.0,9.507704,-0.36454836,2.3750925,0.027941497,0.016821345,-0.022088796,0.45698386,-0.41253057,0.6047207,2016-12-07 19:08:43,57.28588410151118
9.473221,-0.36283875,2.3732147,0.027294748,-0.001116749,0.00677376,18.0,9.518016,-0.36092997,2.333987,0.051874373,-0.020421274,-0.063194044,0.46112898,-0.4103016,0.6071796,2016-12-07 19:08:44,61.0800085961867
9.463425,-0.39227295,2.3928223,0.064828455,-1.5033518E-4,0.016275125,18.0,9.504149,-0.36540732,2.3891442,0.024387604,0.0023420884,0.0055833533,0.45911732,-0.40892464,0.6086475,2016-12-07 19:08:45,62.05962957130386
9.473221,-0.37265015,2.4124298,-0.004102411,1.7022731E-4,-0.001120146,18.0,9.502145,-0.379205,2.3949637,0.02238246,0.0021647573,-0.015837686,0.47104618,-0.39497077,0.6241146,2016-12-07 19:08:46,54.29521718495795
9.522263,-0.36283875,2.4320526,0.003396831,-4.999677E-4,2.3451948E-4,18.0,9.497474,-0.36610273,2.4154372,-0.036686152,0.0019580703,0.0316018,0.4646235,-0.40125182,0.6168311,2016-12-07 19:08:47,58.0150093370063
9.522263,-0.4216919,2.3634033,-0.013118768,0.001316633,-0.001953635,19.0,9.496003,-0.37285292,2.4201863,-0.010999195,-0.018723898,0.009384772,0.46458045,-0.40093645,0.61756194,2016-12-07 19:08:48,69.70057448160163
9.473221,-0.4118805,2.3830109,-0.024455441,6.5981253E-4,-0.0050720074,18.0,9.504046,-0.3685884,2.3890657,0.010664173,0.026401684,0.01912535,0.46920496,-0.39754775,0.6209592,2016-12-07 19:08:49,62.39206592336438
9.532059,-0.37265015,2.3437958,-0.09919162,0.0015056542,-0.025432324,18.0,9.499571,-0.3843781,2.4043295,-0.007432001,-0.030249061,0.020768661,0.47760728,-0.3864847,0.6329019,2016-12-07 19:08:50,63.489862881756196
9.561478,-0.3334198,2.3437958,0.0169695,6.0613605E-4,0.0033526334,19.0,9.500702,-0.3615312,2.4034052,-0.03354127,-0.007402152,0.04708493,0.46686137,-0.39934182,0.61863625,2016-12-07 19:08:51,63.19710058730631
9.522263,-0.3334198,2.3830109,-0.06529876,0.0035161637,-0.015405526,19.0,9.502675,-0.36233813,2.395469,0.03653319,-0.035449773,-0.015332451,0.4659995,-0.4008546,0.6171598,2016-12-07 19:08:52,60.145472613268865
9.241135,-0.17324829,2.3503265,0.03644095,-0.0035535542,0.010216997,19.0,9.506772,-0.32655752,2.3843296,0.36814842,-0.2732077,0.0662057,0.46481323,-0.40320885,0.61290264,2016-12-07 19:08:53,65.42345866525613
9.463425,-0.36938477,2.37648,-0.051037233,0.0022689512,-0.011921559,19.0,9.502198,-0.33878368,2.4008029,0.049500953,0.041382127,0.017764479,0.4690941,-0.39687103,0.6201632,2016-12-07 19:08:54,60.93419642835096
9.463425,-0.35630798,2.4157104,0.016013646,-3.1949868E-4,0.0033143703,19.0,9.501851,-0.36177772,2.39882,0.049301434,-0.0069209994,-0.011759438,0.44661248,-0.4221457,0.5934424,2016-12-07 19:08:55,60.93458530771646
9.483032,-0.4118805,2.4614716,-0.013444881,2.6503537E-4,-9.986536E-4,19.0,9.499874,-0.3466,2.408866,0.020112958,0.021149404,-0.015555868,0.4774464,-0.38630584,0.63127565,2016-12-07 19:08:56,60.31273061099487
9.492844,-0.3530426,2.4222412,-0.104162395,0.0034636722,-0.027487697,19.0,9.499714,-0.38281584,2.404015,-0.0072890143,-0.042307176,-0.02040683,0.47491568,-0.38974908,0.62954557,2016-12-07 19:08:57,56.20649560092435
9.463425,-0.36283875,2.3830109,-0.021069698,3.5641645E-4,-0.0058193114,19.0,9.499317,-0.35131523,2.410383,0.07403653,0.030054506,0.026822124,0.466221,-0.39969754,0.6177431,2016-12-07 19:08:58,56.67742493023242
9.522263,-0.39227295,2.4222412,-0.01833428,8.295394E-4,-0.0042979443,19.0,9.505871,-0.36554134,2.382269,0.012473126,-0.011771882,-0.0012839738,0.46839967,-0.3989046,0.6194049,2016-12-07 19:08:59,61.18203781802582
9.522263,-0.3432312,2.3928223,0.047841463,-0.0034376886,0.0128480485,19.0,9.505314,-0.38067698,2.3821185,-0.0021007457,-0.02552085,3.6598867E-4,0.4772337,-0.38837165,0.63086355,2016-12-07 19:09:00,50.73144149414407
9.453613,-0.36283875,2.4320526,0.019357733,-1.3677061E-4,0.0044249734,19.0,9.508582,-0.37649092,2.3697083,0.056060895,-0.008741538,-0.06833389,0.4647452,-0.40392643,0.61468554,2016-12-07 19:09:01,52.615713908507935
9.483032,-0.3432312,2.3732147,-0.009411474,-5.8174226E-4,-0.0036738066,19.0,9.501731,-0.36657852,2.3985622,0.008064636,0.013497208,0.0023135638,0.48275813,-0.3803014,0.6380727,2016-12-07 19:09:02,54.863868760029504
9.463425,-0.36283875,2.4222412,0.008952319,-0.0012790712,0.0028444491,19.0,9.502379,-0.36396468,2.3964014,0.022616893,0.0037846884,0.012840569,0.46065587,-0.40699604,0.6106781,2016-12-07 19:09:03,59.74876968566516
9.512451,-0.4118805,2.4026337,0.007411643,-6.2531786E-4,0.002961499,19.0,9.506093,-0.36503673,2.3814592,-9.5601805E-4,0.015183956,-0.029339362,0.47237235,-0.39426678,0.62416273,2016-12-07 19:09:04,47.63355121446466
9.492844,-0.37265015,2.4222412,0.0058955294,0.0011200303,0.0015183131,19.0,9.501999,-0.38180622,2.3951302,0.02223698,-0.014056843,-0.042912118,0.46619514,-0.400623,0.6183804,2016-12-07 19:09:05,51.922223673800815
9.54187,-0.3530426,2.4124298,-0.051367536,0.0011383229,-0.013638539,19.0,9.502837,-0.35769796,2.3955235,0.023075782,-0.017189283,-0.028898347,0.4667053,-0.40008345,0.61763,2016-12-07 19:09:06,51.08563008407841
9.463425,-0.38246155,2.4222412,-0.01740851,6.9185783E-4,-0.0031575912,19.0,9.497358,-0.37365133,2.4147398,0.0039762035,-0.019522304,0.0039383788,0.48243335,-0.37965915,0.6390659,2016-12-07 19:09:07,55.06586463441405
9.532059,-0.3530426,2.4026337,-0.02947535,5.9693656E-4,-0.006271482,19.0,9.501997,-0.3730035,2.3965187,0.022235317,-0.03249482,0.012957785,0.4752181,-0.38986242,0.62900436,2016-12-07 19:09:08,58.99485224918603
9.5811,-0.3432312,2.3928223,0.008535767,-0.0015851895,0.002178377,19.0,9.509329,-0.36720535,2.368168,0.043187074,-0.04031702,-0.02901307,0.47478434,-0.39228103,0.62626207,2016-12-07 19:09:10,57.327740851395426
9.54187,-0.38246155,2.3928223,0.042485222,7.7446096E-4,0.013521103,19.0,9.505532,-0.3695747,2.3829923,-0.0014697739,0.025415376,-0.014188763,0.4801486,-0.38438788,0.63444614,2016-12-07 19:09:11,61.03001041629794
9.489563,-0.38246155,2.37648,-0.07126334,0.0018853063,-0.019387165,19.0,9.504969,-0.3671613,2.3856153,0.025207287,0.014208428,0.015674956,0.4748882,-0.3909927,0.6275149,2016-12-07 19:09:12,53.25850892686252
9.492844,-0.4020691,2.4124298,5.4923905E-5,-0.0010072341,-6.130311E-4,19.0,9.50436,-0.35863322,2.389337,0.010977581,0.022736525,0.019396774,0.46884885,-0.39796394,0.6199843,2016-12-07 19:09:13,56.019873427140354
9.50264,-0.36283875,2.3928223,0.034656752,2.4561323E-5,0.008389375,19.0,9.501773,-0.37523267,2.397066,-0.0052298345,-0.007483257,0.01350521,0.46823448,-0.3981274,0.6206444,2016-12-07 19:09:14,53.81763949507442
9.522263,-0.3432312,2.481079,0.001664719,-7.2147504E-6,1.2388035E-4,19.0,9.501861,-0.357007,2.3994966,0.008478633,-0.0028779781,-0.011305122,0.45982042,-0.40768155,0.60952157,2016-12-07 19:09:15,54.04278036415538
9.483032,-0.39227295,2.3928223,0.05094139,-0.0038684097,0.014789399,19.0,9.503452,-0.36494645,2.3919873,-0.0031199441,0.027822359,0.047237474,0.48658603,-0.37608132,0.64210886,2016-12-07 19:09:16,49.64729439252774
9.492844,-0.3432312,2.3634033,0.017174833,2.8167095E-4,0.0037776805,19.0,9.501724,-0.3705912,2.3979754,-0.0052788826,0.010778531,0.02803502,0.4725251,-0.39291236,0.62573,2016-12-07 19:09:17,54.905140834719774
9.4339905,-0.43148804,2.4222412,0.0058763293,3.4827238E-4,0.0019142797,19.0,9.503776,-0.3645387,2.3907616,0.010393994,0.01683101,0.020821242,0.4642738,-0.40316653,0.6148396,2016-12-07 19:09:18,52.44403941636692
9.50264,-0.36283875,2.3830109,-0.022474902,-0.0017451809,-0.008031616,19.0,9.501883,-0.3744403,2.3967507,0.04936129,-0.033931628,0.040430624,0.46432146,-0.4029579,0.61534727,2016-12-07 19:09:19,49.15721413298062
9.492844,-0.3334198,2.3928223,0.04095876,-0.0021236313,0.011703658,19.0,9.505657,-0.36559102,2.3831127,0.02589562,-0.02508233,-4.4828936E-4,0.46802527,-0.39941654,0.61894035,2016-12-07 19:09:20,52.177397900227604
9.532059,-0.3530426,2.3732147,-8.205677E-4,-4.1067335E-4,0.0011171537,19.0,9.500212,-0.37807155,2.4027984,-0.0067910533,-0.023942538,0.019237576,0.47878626,-0.38513732,0.6340125,2016-12-07 19:09:21,52.62168622427414
9.473221,-0.38246155,2.471283,-0.056268375,0.0025920332,-0.013642991,18.0,9.499868,-0.36998338,2.4054093,0.033726655,-0.0022339907,-0.05987354,0.48067722,-0.38248274,0.63612884,2016-12-07 19:09:22,57.20325449578996
9.522263,-0.38246155,2.3928223,0.1033302,-0.0036731684,0.02731654,19.0,9.496133,-0.38340247,2.4180288,0.029991534,-0.0020327333,0.07532903,0.4640505,-0.40170792,0.6172909,2016-12-07 19:09:23,73.69882610729576
9.512451,-0.3530426,2.4026337,-0.015635481,7.5136876E-4,-0.00561677,19.0,9.499136,-0.37706703,2.4072013,-0.0079100095,-0.0109160375,0.009942795,0.47466925,-0.38982064,0.6291893,2016-12-07 19:09:24,57.92082746060643
9.453613,-0.37265015,2.3928223,-0.003666993,0.0013967848,-0.0016479193,18.0,9.500454,-0.36765823,2.4034595,0.0615526,-0.05439023,0.033519033,0.48503354,-0.3770493,0.6411806,2016-12-07 19:09:25,55.265862821339546
9.512451,-0.36283875,2.4320526,0.013685028,0.001313083,0.004917196,19.0,9.498326,-0.37827584,2.4102063,0.017981453,-0.012250567,-0.012187775,0.48893225,-0.37135193,0.6471988,2016-12-07 19:09:26,61.907976066735785
9.473221,-0.36283875,2.4026337,0.034075554,-0.001616583,0.008454961,19.0,9.50726,-0.35426715,2.3784194,0.027498404,-0.01375845,0.02209919,0.46287975,-0.40556708,0.61176455,2016-12-07 19:09:27,58.37620187231464
9.50264,-0.38246155,2.481079,0.012016396,-8.4889954E-4,0.0038885607,19.0,9.502196,-0.3682292,2.3964658,0.008856884,0.012183748,-0.0010287586,0.4656521,-0.40126348,0.61708724,2016-12-07 19:09:28,63.70484624906141
9.512451,-0.4020691,2.4418488,-0.071603425,0.0033638815,-0.017400872,19.0,9.502132,-0.38162273,2.394627,0.03599117,0.01336734,-0.043415066,0.47216183,-0.39363956,0.62561584,2016-12-07 19:09:29,56.702569558222024
9.473221,-0.36283875,2.3830109,0.023786308,-4.1558036E-5,0.0055291224,19.0,9.498618,-0.3689067,2.410512,0.0052356534,0.01246302,0.026951188,0.4703206,-0.3947972,0.62374693,2016-12-07 19:09:30,63.590103937609186
9.512451,-0.37265015,2.3634033,-0.0020239106,-0.0016552599,9.095559E-4,19.0,9.507627,-0.37717378,2.3734286,-0.012996026,0.004195932,0.0034880112,0.47197044,-0.39531466,0.6237263,2016-12-07 19:09:31,53.306706084511134
9.512451,-0.4020691,2.4320526,0.029450053,-4.4425097E-4,0.006720223,19.0,9.506334,-0.3742054,2.3790712,0.026572315,0.020784665,-0.018109892,0.47492197,-0.39131442,0.62756884,2016-12-07 19:09:32,60.47466726033232
9.473221,-0.39227295,2.4222412,-0.048749965,6.306345E-4,-0.011667012,19.0,9.502424,-0.3725536,2.3949,0.02299182,-0.03279685,0.009910582,0.4719554,-0.39403257,0.6247939,2016-12-07 19:09:33,66.88665967949424
9.512451,-0.4118805,2.3928223,0.014297649,-5.870746E-4,0.0039220275,19.0,9.502031,-0.36541846,2.397551,-0.0049712937,0.015951265,0.06847168,0.47116193,-0.3947276,0.6236855,2016-12-07 19:09:34,61.47400264401373
9.453613,-0.37265015,2.3634033,-0.0058638453,0.0043934085,-0.0018548574,19.0,9.501614,-0.37078583,2.3983862,-0.017914947,0.02384644,-0.016811162,0.47146794,-0.3941266,0.6245395,2016-12-07 19:09:35,62.88557477998634
9.610519,-0.4216919,2.481079,0.001984087,1.2919022E-4,4.7617455E-4,19.0,9.500187,-0.3790406,2.4027455,-0.02043634,-0.011291249,-0.021676462,0.473091,-0.3920108,0.62711436,2016-12-07 19:09:36,55.96406717935169
9.50264,-0.38246155,2.4124298,0.027991628,1.6308049E-4,0.006263486,19.0,9.499429,-0.3759794,2.4062164,0.01966737,0.005390331,-0.018205494,0.47208953,-0.39281797,0.62609375,2016-12-07 19:09:37,56.09269529458166
9.50264,-0.35630798,2.3634033,-0.023902167,-2.0140853E-5,-0.0060738134,19.0,9.507616,-0.35519847,2.3768604,0.02785421,-0.014689788,-0.0067004394,0.4764683,-0.38965645,0.6282853,2016-12-07 19:09:38,56.35596117701863
9.512451,-0.39227295,2.4124298,-0.018214682,0.0025955809,-0.0050470214,19.0,9.501919,-0.3613135,2.3986228,0.022157172,0.033676565,0.06954324,0.46473706,-0.4020178,0.6157892,2016-12-07 19:09:39,51.557443947936825
9.515717,-0.35630798,2.37648,0.0044983905,-9.0789946E-4,-7.3283E-4,19.0,9.503979,-0.3666434,2.3896322,-0.0030235108,-0.026134728,0.019691685,0.48802808,-0.3741819,0.6437734,2016-12-07 19:09:40,53.33546339774759
9.50264,-0.39227295,2.4124298,0.020187518,-8.9610013E-4,0.006977382,19.0,9.508411,-0.37478304,2.3706634,-0.01221126,0.0338274,-0.040138002,0.47974703,-0.3859418,0.6329904,2016-12-07 19:09:41,52.55222538257356
9.453613,-0.3432312,2.353592,-0.043306183,8.559083E-5,-0.013996259,19.0,9.500383,-0.39066604,2.400104,0.11596416,-0.077398024,0.057404105,0.4833099,-0.3797702,0.63943374,2016-12-07 19:09:42,57.1339912792558
9.450348,-0.3432312,2.4026337,0.04977605,-0.0038469844,0.013213964,19.0,9.522786,-0.36460787,2.3138728,0.01629221,-0.039112568,-0.07199938,0.46056765,-0.4123827,0.60531044,2016-12-07 19:09:43,70.70838933843731
9.476486,-0.3432312,2.3634033,-0.02077493,8.6929003E-4,-0.0059846956,18.0,9.512784,-0.35146168,2.356652,-0.021458864,-0.051814046,-0.013288442,0.4794409,-0.3872695,0.6304402,2016-12-07 19:09:44,64.5417905933826
9.512451,-0.36283875,2.3732147,-0.12141235,0.0058789225,-0.025658844,19.0,9.508218,-0.35735884,2.3741312,-0.0124057885,0.010390514,-0.009429456,0.46194017,-0.40685177,0.6106804,2016-12-07 19:09:45,71.57101719715048
9.50264,-0.38246155,2.4026337,0.013565581,-4.7841875E-4,0.0027077543,20.0,9.5112705,-0.36915174,2.3600516,-0.009352351,0.012217988,-0.023509108,0.42889798,-0.4423844,0.56971484,2016-12-07 19:09:46,61.119368899788185
9.590912,-0.30400085,2.2751465,-0.11071674,0.005238113,-0.029037734,18.0,9.506913,-0.39340994,2.373651,-0.0819906,-0.12005814,0.1271689,0.40923193,-0.4598408,0.54765743,2016-12-07 19:09:47,66.16220973333134
10.1171875,0.06210327,2.5987701,0.03525256,9.861841E-4,0.010973675,19.0,9.515729,-0.3462908,2.3455038,-0.26368058,-0.26456872,-0.09253839,0.4052079,-0.46495146,0.5384546,2016-12-07 19:09:48,63.30909532203843
9.476501,-0.39553833,2.4026337,0.10921938,-0.0028451157,0.02962127,19.0,9.515754,-0.34535596,2.3455362,0.09047338,0.03601377,-0.024404231,0.42123464,-0.4503194,0.5585323,2016-12-07 19:09:49,61.937899938038534
9.528793,-0.38246155,2.389557,0.005037448,-0.0026358706,0.0010566917,9.0,9.508681,-0.36709225,2.3707883,0.014576365,4.595381E-4,-0.009912868,0.41952157,-0.45077255,0.5586317,2016-12-07 19:09:50,64.14956025260989
8.718109,-0.38246155,4.5699005,0.013255572,0.13719626,0.0036766035,4.0,9.4102,-0.3516431,2.737673,0.63869655,0.056967348,-1.7842824,0.4232309,-0.42109755,0.58946383,2016-12-07 19:09:51,54.331977094895656
8.561203,-0.35630798,4.5862427,-0.036746874,0.017972669,-0.018480863,36.0,8.686072,-0.35025984,4.538708,0.14611448,-0.00975115,-0.051348977,0.35697785,-0.37518963,0.6141902,2016-12-07 19:09:52,66.15229881012871
8.610245,-0.39227295,4.589508,-0.061795607,0.0032292542,-0.032182507,39.0,8.643247,-0.36680913,4.6184573,0.13052972,9.40275E-4,0.042020734,0.34593725,-0.3804993,0.6034019,2016-12-07 19:09:53,55.451812203563414
8.571014,-0.3432312,4.6679688,-0.0226965,0.0011884918,-0.012112011,39.0,8.641706,-0.37061602,4.621031,0.06088754,-0.016486999,-0.009887304,0.34343264,-0.38269964,0.5996491,2016-12-07 19:09:54,49.0632380487373
8.580826,-0.4020691,4.6287384,0.037132714,-0.0024884942,0.019557988,39.0,8.637084,-0.3661469,4.630023,0.05626457,0.0152228465,0.0127254315,0.35267165,-0.37360185,0.6148062,2016-12-07 19:09:55,55.49814651147378
8.580826,-0.4118805,4.5699005,-0.02808157,8.3679624E-4,-0.015142299,39.0,8.634967,-0.36787573,4.6338325,0.08138873,-0.013746682,0.05739558,0.34907433,-0.37669697,0.6094749,2016-12-07 19:09:56,53.508158045333154
8.580826,-0.4118805,4.609131,6.060979E-4,0.001817843,-0.0010976326,39.0,8.634161,-0.3722831,4.6349835,0.066961996,0.00908664,0.017685503,0.3451649,-0.38012084,0.60365367,2016-12-07 19:09:57,49.378012381482385
8.580826,-0.38246155,4.5993195,-0.028884592,8.814903E-4,-0.017010823,39.0,8.636186,-0.37494156,4.630993,0.055366743,-0.007192165,-0.013545529,0.34262946,-0.3827599,0.59935915,2016-12-07 19:09:58,49.74388105018318
8.590622,-0.38246155,4.579712,0.0047160997,-0.0013467029,0.002281457,39.0,8.641247,-0.36346054,4.6224604,0.06042782,0.01790918,0.046023957,0.34223348,-0.38369927,0.59729207,2016-12-07 19:09:59,48.723149749804676
8.610245,-0.3334198,4.609131,0.013205864,0.0016002425,0.006832098,39.0,8.644315,-0.36962125,4.61623,0.05094828,-0.043420237,0.02411119,0.35271552,-0.3745426,0.6140418,2016-12-07 19:10:00,46.175368021788
8.571014,-0.4020691,4.560089,0.016018877,-3.920039E-4,0.009160665,39.0,8.633236,-0.36258677,4.637475,0.06603757,0.005162627,0.047417663,0.34462404,-0.3805119,0.6022779,2016-12-07 19:10:01,54.070002710484104
8.600433,-0.3530426,4.5404816,0.019687496,7.7591115E-4,0.010451369,39.0,8.637158,-0.3621747,4.630198,0.06995974,-0.021666018,0.040140703,0.35804644,-0.36835188,0.62325627,2016-12-07 19:10:02,49.31269436361137
8.590622,-0.37265015,4.5993195,0.034178656,-0.0019388384,0.018265631,39.0,8.637541,-0.36241463,4.6294646,0.0567218,-0.035526305,0.06664818,0.34380367,-0.38188627,0.600184,2016-12-07 19:10:03,45.513653826184104
8.551407,-0.4216919,4.5699005,-0.021598015,6.681554E-4,-0.010551151,39.0,8.641748,-0.36955756,4.621037,0.06092994,0.03905287,0.030979972,0.34360695,-0.38254425,0.59989274,2016-12-07 19:10:04,46.17816214877979
8.600433,-0.36283875,4.609131,0.024067037,-1.4317731E-4,0.011642904,39.0,8.634419,-0.37024656,4.634665,0.053601023,-0.016117502,0.044607803,0.34174392,-0.38326088,0.5979547,2016-12-07 19:10:05,50.66902233384389
8.590622,-0.38246155,4.5993195,-0.003471365,7.8306365E-4,-0.0018330031,39.0,8.631771,-0.37136477,4.639505,0.023711743,-0.03085608,0.0358274,0.3470238,-0.37815797,0.6068424,2016-12-07 19:10:06,52.18031303702584
8.620041,-0.37265015,4.648346,-0.019608628,8.0733217E-4,-0.009187665,39.0,8.64329,-0.36498448,4.6185217,0.07609072,-0.010855429,-0.08049838,0.3470795,-0.37947044,0.60506696,2016-12-07 19:10:07,49.464867251259065
8.571014,-0.38246155,4.560089,0.010412371,-0.0040490185,0.0067213676,39.0,8.642606,-0.3583279,4.6203218,0.034546334,0.03666215,0.016644273,0.34762886,-0.3790374,0.60540456,2016-12-07 19:10:08,63.72901766948728
8.580826,-0.37265015,4.589508,0.00858576,-1.14036826E-4,0.003458696,39.0,8.64201,-0.36277357,4.6210885,0.047570627,-0.022264881,0.031031098,0.33768082,-0.3877718,0.5897799,2016-12-07 19:10:09,58.54982221104748
8.561203,-0.3530426,4.609131,-0.008185358,0.0015692589,-0.0034710395,39.0,8.639903,-0.3598064,4.6252575,0.0992804,-0.0066390513,0.009126231,0.3356559,-0.3891247,0.58696944,2016-12-07 19:10:10,63.52734134620711
8.580826,-0.3530426,4.6581573,0.0040811924,0.0043439725,0.0018674715,39.0,8.62448,-0.36089265,4.6538677,0.07090245,0.0068567274,-0.0042908583,0.34975258,-0.3745429,0.6118003,2016-12-07 19:10:11,56.9680051058095
8.580826,-0.3334198,4.589508,0.0032807253,-4.4229283E-4,4.3355706E-4,39.0,8.632513,-0.3581031,4.639166,0.051694807,-0.044835117,0.049108982,0.3563422,-0.36944795,0.6208345,2016-12-07 19:10:12,61.25535814758181
8.580826,-0.39227295,4.618927,-0.0020071312,9.026451E-4,-1.8265036E-4,39.0,8.634767,-0.36750403,4.634236,0.040327333,0.013865691,0.030558078,0.3530543,-0.37289545,0.6159335,2016-12-07 19:10:13,55.124096713252726
8.551407,-0.3432312,4.618927,-0.026279412,0.0010897439,-0.015715918,39.0,8.631405,-0.37528762,4.6398697,0.05058666,-0.03477895,0.022572001,0.3553172,-0.37038514,0.6203132,2016-12-07 19:10:14,50.213594678026745
8.521973,-0.31707764,4.6123962,0.021117236,0.004318622,0.012485026,39.0,8.637637,-0.35215572,4.630075,0.084058926,-0.052508067,0.09449947,0.35400683,-0.3721444,0.61623967,2016-12-07 19:10:15,49.1520702916981
8.68869,-0.38246155,4.707199,-0.06616426,0.0012609212,-0.03505865,39.0,8.640873,-0.34810224,4.6243396,0.08673494,-0.0072188973,0.048979297,0.34922564,-0.3771483,0.60765123,2016-12-07 19:10:16,57.18642640430155
8.600433,-0.35630798,4.573166,-0.0050770687,-0.0019465054,-0.0041366145,38.0,8.65334,-0.36109054,4.599966,0.058901515,-0.020581873,0.037149616,0.34902272,-0.37908384,0.6062108,2016-12-07 19:10:17,48.764638662860584
8.600433,-0.39227295,4.589508,0.03270464,-0.0025893212,0.018467102,39.0,8.658962,-0.36554384,4.5890236,0.07814408,-0.011414777,-0.014654093,0.3557949,-0.373471,0.61669326,2016-12-07 19:10:18,45.90767644827188
8.590622,-0.37265015,4.5993195,-0.018859614,7.349454E-4,-0.009970166,39.0,8.650366,-0.37030423,4.60483,0.055926222,0.011065493,0.055633597,0.3452227,-0.3821589,0.60129267,2016-12-07 19:10:19,51.15879865424045
8.639664,-0.3432312,4.550293,0.018158648,-6.367966E-4,0.010124061,39.0,8.640301,-0.3790525,4.622976,0.045861434,-0.024923442,0.03291861,0.34362498,-0.38240865,0.6007042,2016-12-07 19:10:20,58.20664037532946
8.600433,-0.37265015,4.589508,-0.008048772,7.6326705E-4,-0.003356899,39.0,8.637755,-0.36330575,4.6289926,0.056937113,0.018063987,0.052555636,0.34248555,-0.38301048,0.59826344,2016-12-07 19:10:21,54.98237383941979
8.590622,-0.36283875,4.5993195,-0.048770927,0.0023915838,-0.026591051,39.0,8.636167,-0.36053407,4.632174,0.05534762,-0.0064050606,0.04211675,0.3376431,-0.38702574,0.5904914,2016-12-07 19:10:22,52.286617037699024
8.610245,-0.3530426,4.618927,0.0056101223,-1.6696113E-5,0.0036212301,39.0,8.639198,-0.37246487,4.6255713,0.09949405,-0.002939106,0.048805967,0.33931154,-0.38603738,0.5935582,2016-12-07 19:10:23,46.946371483793136
8.610245,-0.36283875,4.5404816,0.08668946,-0.00464681,0.04830204,39.0,8.637191,-0.37129796,4.629415,-0.011376614,0.008149819,0.038542908,0.33987314,-0.385384,0.59473765,2016-12-07 19:10:24,46.68378441510525
8.6527405,-0.38246155,4.520874,0.004468818,0.015155977,0.0015884235,39.0,8.636689,-0.35746554,4.6314387,0.15121213,0.010283845,-0.20378439,0.34293738,-0.38090113,0.6003815,2016-12-07 19:10:25,57.75450734422273
8.548126,-0.35630798,4.5993195,0.0012130991,-0.0068752514,1.6253885E-4,39.0,8.608395,-0.3500922,4.6843734,0.06843676,0.004036838,0.13517721,0.3315131,-0.38925934,0.5833237,2016-12-07 19:10:26,66.8025390534288
8.600433,-0.3530426,4.560089,0.004151296,-0.0022812707,0.0028663813,39.0,8.656576,-0.35881865,4.5940557,0.08857216,0.023373913,0.0328201,0.34055242,-0.3870702,0.5921905,2016-12-07 19:10:27,60.94611846835744
8.580826,-0.38246155,4.5699005,-0.04445867,0.0037276065,-0.024250848,39.0,8.645296,-0.36413422,4.6148324,0.09171788,0.017235499,-0.0024652795,0.33951148,-0.3863938,0.5926064,2016-12-07 19:10:28,45.17240364656314
8.580826,-0.39227295,4.579712,0.043191154,-0.0022035495,0.02285178,39.0,8.640287,-0.36371803,4.624234,0.03186533,-0.010217131,0.048425637,0.33855376,-0.38682088,0.59153956,2016-12-07 19:10:29,45.89836849685861
8.600433,-0.38246155,4.579712,0.002657027,5.9590425E-4,0.0015292207,39.0,8.648493,-0.35987967,4.6091714,0.04043291,-0.005750656,0.03273489,0.35434183,-0.37339887,0.61549467,2016-12-07 19:10:30,47.44515599793009
8.610245,-0.36283875,4.579712,-0.0020800286,0.0012376097,-0.0029617432,39.0,8.639947,-0.3730267,4.6241302,0.07274798,-0.0052772975,0.047693662,0.34951863,-0.37689078,0.6097966,2016-12-07 19:10:31,52.28749702869439
8.590622,-0.4020691,4.53067,0.03644018,-3.9846764E-4,0.02037436,39.0,8.637274,-0.3743654,4.6290126,0.09731599,0.0070043127,-0.05638719,0.34833282,-0.37762818,0.6084917,2016-12-07 19:10:32,54.50120482151619
8.561203,-0.36283875,4.589508,0.052152157,-0.0031269686,0.027295096,18.0,8.640901,-0.37404242,4.6222634,0.0730431,-0.02046302,0.07425434,0.34188223,-0.38394243,0.597595,2016-12-07 19:10:33,58.228583370108744
8.580826,-0.36283875,4.579712,0.042562436,-0.0016018728,0.022922779,21.0,8.643552,-0.36419216,4.61809,0.06273307,-0.02368345,0.04165329,0.3519264,-0.37508768,0.6126017,2016-12-07 19:10:34,46.66417721680204
8.580826,-0.32362366,4.5699005,-0.017215414,-1.5521707E-4,-0.0084529305,20.0,8.638986,-0.3667547,4.6264253,0.08596016,-0.05403019,0.06253273,0.34055188,-0.3849273,0.59516567,2016-12-07 19:10:35,54.59843456098331
8.541595,-0.3334198,4.589508,-0.0028116554,0.002143651,1.9863455E-4,23.0,8.652447,-0.359653,4.6017594,0.085248545,-0.019144313,0.02532284,0.3427309,-0.3845189,0.59645826,2016-12-07 19:10:36,54.81635259160717
8.541595,-0.3432312,4.5993195,0.024175003,-4.0592125E-4,0.011616704,21.0,8.636788,-0.35650337,4.6313257,0.08321015,0.011245994,0.06850909,0.3421074,-0.383164,0.5972934,2016-12-07 19:10:37,49.40793153685309
8.600433,-0.3432312,4.560089,0.024185045,-0.0029826171,0.012487858,23.0,8.638131,-0.3436021,4.629798,0.057312034,-0.0030934198,0.06698153,0.34845617,-0.37760606,0.6063859,2016-12-07 19:10:38,55.394406558289205
8.580826,-0.3530426,4.6287384,-0.03505566,0.0015274783,-0.016855098,23.0,8.653874,-0.3607143,4.5989923,0.10029627,-0.0065852497,0.036176138,0.35594848,-0.37259358,0.617359,2016-12-07 19:10:39,55.0820773637151
8.600433,-0.38246155,4.5862427,0.013711573,-0.0022300705,0.00814277,21.0,8.644983,-0.35959256,4.6157713,0.064163774,0.021777155,-0.015146651,0.3433489,-0.3831648,0.5983334,2016-12-07 19:10:40,67.52002416890831
8.587357,-0.33015442,4.5470123,-0.048114937,0.0038979768,-0.02728444,19.0,8.646235,-0.36227727,4.613215,0.13351831,-0.021768557,0.06401871,0.3451036,-0.38167533,0.60114104,2016-12-07 19:10:41,67.35436129683399
8.590622,-0.32362366,4.609131,0.009491968,-0.0011912598,0.0050521987,19.0,8.641307,-0.36451602,4.622265,0.047378592,-0.037202325,0.044906244,0.34363827,-0.38251168,0.5994933,2016-12-07 19:10:42,64.79891741673688
8.580826,-0.38246155,4.5699005,-0.001595085,-4.3148122E-4,-2.370982E-4,24.0,8.642208,-0.3677902,4.6203184,0.034148965,0.01357956,0.043881644,0.34305725,-0.3830934,0.59880686,2016-12-07 19:10:43,64.49972581083705
8.590622,-0.36283875,4.589508,0.03940407,-0.0010513653,0.020305982,39.0,8.640014,-0.37705278,4.623677,0.045573797,-0.022923728,0.03361983,0.34671548,-0.37947366,0.6055185,2016-12-07 19:10:44,70.44257028121001
8.531784,-0.39227295,4.648346,0.018799514,-0.0051195547,0.01263332,38.0,8.628269,-0.36380273,4.6466136,0.02020939,0.04480771,0.029315671,0.34988236,-0.37549827,0.6112618,2016-12-07 19:10:45,64.40932639803879
8.535049,-0.36938477,4.625473,-0.0016863506,-0.0011436634,-0.0014554403,36.0,8.644072,-0.37093937,4.616584,0.13211754,-0.01624919,-0.070200406,0.350657,-0.37650067,0.61072266,2016-12-07 19:10:46,58.71502800907187
8.551407,-0.38246155,4.5699005,-0.0063296193,-0.0017686356,-0.003541425,37.0,8.637001,-0.36933938,4.629924,0.06980262,-0.015210325,0.05348713,0.34995502,-0.3763364,0.61044526,2016-12-07 19:10:47,62.43338579863652
8.590622,-0.3334198,4.618927,0.0060636685,8.2937453E-4,0.0017178708,37.0,8.642955,-0.36949557,4.618787,0.062135354,-0.028986882,0.0014888942,0.35461396,-0.3724496,0.61731106,2016-12-07 19:10:48,61.3798803721176
8.610245,-0.3432312,4.609131,0.0034372562,-0.0014762201,0.0011544866,37.0,8.639455,-0.34910667,4.6269155,0.058635496,-0.022218354,0.036858235,0.351475,-0.3750407,0.6112872,2016-12-07 19:10:49,54.414235872622584
8.590622,-0.37265015,4.560089,-0.02925711,0.003683687,-0.014162367,36.0,8.630687,-0.3742688,4.641291,0.07710826,-0.033760138,0.0920953,0.33860287,-0.3855561,0.5938342,2016-12-07 19:10:50,61.0313041687682
8.571014,-0.37265015,4.618927,-0.008678793,0.0015312362,-0.0034935358,36.0,8.642385,-0.36071113,4.620549,0.08951238,0.03583462,0.029290728,0.35824272,-0.36884657,0.6227661,2016-12-07 19:10:51,71.93481183429975
8.590622,-0.38246155,4.579712,-0.014450943,7.053953E-4,-0.008695624,37.0,8.645143,-0.3668777,4.614901,0.050703038,-0.012748683,0.07932539,0.3456812,-0.3810654,0.6025126,2016-12-07 19:10:52,62.09517141887834
8.590622,-0.3530426,4.579712,0.10595469,-0.0016619931,0.05556728,37.0,8.637431,-0.37239578,4.6288776,0.06873603,-0.003389032,-0.012769075,0.35724345,-0.36897898,0.6227239,2016-12-07 19:10:53,72.31968712321145
8.600433,-0.36283875,4.609131,-0.027736383,0.0011576123,-0.012091223,36.0,8.635701,-0.37395635,4.6319757,0.054882918,0.034654096,0.014677787,0.3416921,-0.3835138,0.59804153,2016-12-07 19:10:54,64.61255107102562
8.580826,-0.3530426,4.5993195,-0.0074640955,-0.0016945844,-0.00546747,36.0,8.643683,-0.3773554,4.616788,0.07648477,-0.023226354,0.0131107485,0.33859992,-0.38730755,0.59197545,2016-12-07 19:10:55,64.35279366046367
8.590622,-0.4118805,4.63855,-0.0,0.0,-0.0,37.0,8.640152,-0.37078553,4.6239266,0.08657367,-0.0030361367,0.020248879,0.3446114,-0.38144642,0.60178137,2016-12-07 19:10:56,54.53145999393545
8.600433,-0.36283875,4.589508,0.010344551,-0.0013325309,0.007643082,36.0,8.643043,-0.37895966,4.6178565,0.07584382,0.0024100747,0.027799342,0.34620088,-0.3804186,0.6045,2016-12-07 19:10:57,69.9084778747496
8.561203,-0.36283875,4.618927,0.006712688,3.5757147E-4,0.004014873,36.0,8.63818,-0.3785573,4.6269794,0.09860287,-0.024064014,0.008999871,0.3457021,-0.3802602,0.60428053,2016-12-07 19:10:58,57.25252116776407
8.600433,-0.39227295,4.618927,-0.04525349,0.001479384,-0.023469185,36.0,8.638125,-0.37805635,4.627121,0.04368587,0.030554077,0.023443641,0.34663022,-0.3793961,0.60580075,2016-12-07 19:10:59,52.67537716673914
8.590622,-0.3432312,4.5993195,0.0015857507,9.3708694E-4,8.872976E-4,36.0,8.64731,-0.37796813,4.6099405,0.09373216,0.0034015798,-0.034597877,0.35202354,-0.37549344,0.6131469,2016-12-07 19:11:00,53.6698783020516
8.571014,-0.38246155,4.5699005,-0.06469555,0.001979695,-0.033725854,36.0,8.634276,-0.37913442,4.634212,0.053458035,0.02947601,0.05777508,0.34909,-0.3766644,0.6103462,2016-12-07 19:11:01,53.603500486621
8.590622,-0.3530426,4.579712,0.078069404,-0.0023808635,0.039262775,37.0,8.642293,-0.36906633,4.6200614,0.061473623,-0.014937288,0.0027637235,0.3446766,-0.38146725,0.60145783,2016-12-07 19:11:02,57.67968939571196
8.610245,-0.37265015,4.6287384,-0.077685595,0.0029868914,-0.039085824,39.0,8.640534,-0.3538146,4.6245384,0.059716213,0.013934794,-0.00637955,0.34992212,-0.37652403,0.6092444,2016-12-07 19:11:03,60.74898855404346
8.629852,-0.3334198,4.5699005,0.018948339,-3.7331734E-4,0.0100314915,39.0,8.63845,-0.36098048,4.627879,0.057631258,-0.006851454,0.0514425,0.34405538,-0.38163468,0.60056365,2016-12-07 19:11:04,59.87511000355256
8.541595,-0.37265015,4.618927,0.037659008,-1.0648917E-5,0.020316206,39.0,8.637255,-0.3573478,4.6303916,0.07005617,-0.0032187675,-5.2622554E-4,0.3469115,-0.37875447,0.6052397,2016-12-07 19:11:05,48.70633673283636
8.5121765,-0.36283875,4.618927,-0.026356269,-7.4931135E-4,-0.011718729,39.0,8.636861,-0.36386964,4.630616,0.11133869,-0.012203543,0.011605643,0.3463044,-0.37960443,0.60459965,2016-12-07 19:11:06,51.93141933828536
8.600433,-0.39227295,4.609131,0.013626698,-0.001999177,0.008335486,39.0,8.637548,-0.36485946,4.6292577,0.08396997,0.030130599,0.025580134,0.35298532,-0.3733712,0.61520755,2016-12-07 19:11:07,75.5382559088855
8.571014,-0.3530426,4.5993195,0.026914213,5.102115E-4,0.013737737,39.0,8.631438,-0.37673527,4.639692,0.03784335,-0.023522772,0.007127738,0.3550046,-0.37074906,0.6200365,2016-12-07 19:11:08,55.4721328668915
8.610245,-0.36283875,4.7268066,-0.0035857214,-1.6549701E-4,-0.0038706723,39.0,8.63256,-0.3732516,4.637886,0.011237784,-0.04419474,0.006474736,0.34593895,-0.37930354,0.6050624,2016-12-07 19:11:09,56.68821012483693
8.561203,-0.3432312,4.5470123,-0.020125926,0.0038158407,-0.012976429,39.0,8.620854,-0.3619448,4.660499,0.06863212,-0.02393695,0.13584143,0.34922844,-0.37481546,0.61137444,2016-12-07 19:11:10,68.75322440960736
8.610245,-0.3432312,4.5993195,0.006539699,0.0014654044,0.0055068764,39.0,8.637757,-0.3587852,4.6293435,0.07151181,-0.0028511418,0.024026813,0.34524548,-0.38054657,0.60224944,2016-12-07 19:11:11,61.382592053443084
8.64946,-0.39227295,4.63855,-0.013867842,0.006263339,-0.0076335752,39.0,8.621006,-0.36247772,4.660177,-6.7420054E-4,0.0052716862,-0.011601903,0.3406209,-0.38206217,0.5981153,2016-12-07 19:11:12,62.28797037491731
8.561203,-0.39553833,4.5862427,-0.07512815,0.0011709714,-0.04025901,39.0,8.63218,-0.36585945,4.639181,0.0501843,-0.025154887,0.024088746,0.35140917,-0.37420043,0.613443,2016-12-07 19:11:13,63.09637328879311
8.590622,-0.4216919,4.5993195,-0.009926005,-5.1630446E-4,-0.006687516,36.0,8.642318,-0.340917,4.622175,0.061498564,0.026832387,0.045738395,0.33592993,-0.3892979,0.5854018,2016-12-07 19:11:14,60.59628016925064
8.590622,-0.36283875,4.579712,0.03450498,9.366074E-4,0.01691843,36.0,8.6339855,-0.3700226,4.6354904,0.039545894,-0.01589354,0.05905365,0.35134897,-0.37430757,0.61339307,2016-12-07 19:11:15,54.92517630639404
8.64946,-0.37265015,4.550293,-0.09366853,0.003745188,-0.04946547,36.0,8.6458845,-0.3695764,4.6132946,0.037825063,-0.0018270077,0.050478585,0.3462337,-0.3806789,0.6035021,2016-12-07 19:11:16,51.152427309816694
8.580826,-0.37265015,4.589508,0.0229172,-0.0013984042,0.013100476,36.0,8.636824,-0.36433473,4.630652,0.06977685,0.0026555478,0.040250853,0.35321814,-0.3730556,0.6156845,2016-12-07 19:11:17,60.25561406684949
8.590622,-0.36283875,4.5993195,0.016046643,-2.0391651E-4,0.007573792,36.0,8.643857,-0.35346776,4.6183524,0.07665852,-0.026579432,0.028295638,0.34205303,-0.3840765,0.5960234,2016-12-07 19:11:18,59.54281007134547
8.571014,-0.39227295,4.579712,0.041448284,-0.0030506481,0.024016242,36.0,8.643088,-0.364445,4.6189394,0.090148345,0.01484561,0.027522098,0.34165737,-0.38445356,0.5962511,2016-12-07 19:11:19,60.78982206109159
8.590622,-0.4020691,4.5993195,0.0034273777,1.0078124E-4,8.8488864E-4,36.0,8.642962,-0.36069128,4.6194687,0.04852332,0.007058115,0.043032035,0.3398112,-0.38599715,0.5930269,2016-12-07 19:11:20,56.11771484326184
8.600433,-0.37265015,4.550293,0.01608624,1.003282E-4,0.008815814,36.0,8.637164,-0.37364239,4.6292744,0.043077342,0.007905983,0.03857408,0.34392586,-0.38171095,0.6012716,2016-12-07 19:11:21,50.301429937320464
8.531784,-0.38246155,4.6875763,-0.0024874276,0.003265087,-0.001630565,37.0,8.643448,-0.37528068,4.617397,0.15797159,-0.007531292,-0.05438205,0.3488094,-0.3779014,0.6084683,2016-12-07 19:11:22,54.55209958320127
8.571014,-0.36283875,4.579712,-0.018751722,-0.0017811159,-0.010704534,36.0,8.62551,-0.36863115,4.651355,0.01745024,-0.014502118,0.10215843,0.3524666,-0.37261462,0.6159264,2016-12-07 19:11:23,58.810254579677036
8.620041,-0.36283875,4.648346,-0.022653554,0.0011113454,-0.011493688,37.0,8.649945,-0.36241522,4.6062474,0.041801266,-0.008931339,-0.03818627,0.3421714,-0.38477233,0.596041,2016-12-07 19:11:24,48.06589250649256
8.590622,-0.38246155,4.579712,0.025333354,-0.0020162489,0.013941383,39.0,8.644955,-0.37634286,4.6144886,0.07775669,-0.008593485,0.078913055,0.3374976,-0.3883962,0.590052,2016-12-07 19:11:25,59.73833256318144
8.600433,-0.36283875,4.609131,0.04700096,-0.0015503666,0.024290906,39.0,8.651774,-0.36871642,4.6023064,0.01647427,0.026273634,0.0122495005,0.3517973,-0.37626317,0.61148804,2016-12-07 19:11:26,56.85624416608515
8.629852,-0.38246155,4.5699005,6.2105554E-4,9.647924E-4,-2.771457E-4,39.0,8.64249,-0.37042835,4.619582,0.048936483,-0.018004417,0.027731588,0.34843886,-0.37826374,0.6075609,2016-12-07 19:11:27,54.589709981689076
8.600433,-0.39227295,4.648346,0.0026282133,6.321232E-4,0.001959508,39.0,8.63312,-0.3641484,4.637569,0.09316188,0.0036009667,0.047512017,0.35052425,-0.3750542,0.6118925,2016-12-07 19:11:28,57.86047564388725
8.590622,-0.37265015,4.609131,-0.040510383,0.0033802171,-0.02176821,39.0,8.624477,-0.36232966,4.6537623,0.04270325,0.0054062563,0.05185234,0.350462,-0.37386027,0.61308163,2016-12-07 19:11:29,63.770251070540866
8.561203,-0.38246155,4.560089,0.020414667,-0.0038298178,0.01286981,37.0,8.641605,-0.3770535,4.620702,0.059200797,0.0062760245,0.033766143,0.3395419,-0.38625184,0.59383774,2016-12-07 19:11:30,63.11651415500495
8.571014,-0.39227295,4.5699005,-0.013506804,0.0014885209,-0.0074166995,37.0,8.650935,-0.36782658,4.603956,0.083205156,0.013257112,0.028495988,0.34179243,-0.38518265,0.5957212,2016-12-07 19:11:32,68.0107111900839
8.629852,-0.37265015,4.560089,0.03180285,-0.0038624615,0.0156121515,34.0,8.666031,-0.35952806,4.5761375,-0.05099151,-0.005399034,-0.10926206,0.35112992,-0.37873125,0.6076755,2016-12-07 19:11:33,52.56165132959306
8.620041,-0.39227295,4.501251,-0.014664349,-0.00221493,-0.00631756,33.0,8.680067,-0.37440765,4.548257,0.11442787,0.005537968,0.023208793,0.34721014,-0.38440716,0.600314,2016-12-07 19:11:34,47.48360418036454
8.708313,-0.37265015,4.4424133,-0.021020496,-0.0031289735,-0.012259004,32.0,8.695713,-0.36990598,4.518643,0.019551815,-0.0021566001,0.037548646,0.3370694,-0.39508978,0.58173066,2016-12-07 19:11:35,71.51405243843776
8.590622,-0.39227295,4.618927,0.03770345,0.014808345,0.021064885,35.0,8.673279,-0.3511697,4.563037,0.09246025,0.030200038,-0.040640745,0.34183627,-0.38742262,0.5920496,2016-12-07 19:11:36,51.22710998925753
8.561203,-0.36938477,4.63855,-0.017935287,0.0016670163,-0.009956315,35.0,8.639492,-0.36011046,4.626002,0.0859136,0.007638922,-0.004916011,0.34306163,-0.3826366,0.5987564,2016-12-07 19:11:37,72.71039162785249
8.620041,-0.37265015,4.5993195,0.006037081,-0.0026151226,0.0033249494,34.0,8.638575,-0.36845893,4.6270604,0.04413478,-0.014329905,0.023382954,0.35143742,-0.37500912,0.6127193,2016-12-07 19:11:38,58.14629855272823
8.580826,-0.4020691,4.5993195,-0.020220954,0.003260853,-0.010909426,34.0,8.628135,-0.3822449,4.6453815,0.020074716,-0.028115893,0.028083652,0.34298366,-0.3813899,0.6016792,2016-12-07 19:11:39,55.27176113954563
8.541595,-0.36283875,4.6287384,-0.025320128,-9.863728E-4,-0.014050917,35.0,8.632181,-0.36522815,4.639228,0.077643625,-0.011397606,0.010071858,0.33877265,-0.38555983,0.59324574,2016-12-07 19:11:40,69.29191220891637
8.620041,-0.36283875,4.6287384,0.06086953,-0.004420592,0.03324689,35.0,8.640088,-0.36437684,4.6245565,0.017525889,-0.009662354,-0.004669109,0.3437874,-0.38207415,0.60010886,2016-12-07 19:11:41,62.97273432600643
8.580826,-0.3530426,4.609131,-0.0730795,0.002900221,-0.03867455,36.0,8.635868,-0.36257145,4.6325717,0.041428834,-0.022062792,0.056134887,0.35021397,-0.37579262,0.6108,2016-12-07 19:11:42,50.950416460101664
8.580826,-0.3530426,4.5404816,-0.0062407865,-0.0018877998,-0.0032304723,36.0,8.633925,-0.3642049,4.6360626,0.054169644,-0.023855092,0.09849272,0.3451222,-0.38037235,0.6028317,2016-12-07 19:11:43,49.56619255339657
8.600433,-0.3530426,4.589508,0.04240459,-0.0025011303,0.023313878,39.0,8.64639,-0.36296263,4.612873,0.09281189,0.0047867405,0.050056692,0.34804973,-0.37910676,0.6058855,2016-12-07 19:11:44,46.71967646326068
8.669083,-0.4118805,4.520859,0.024309954,-0.0070405775,0.015449217,36.0,8.650347,-0.3868894,4.6035,-0.08029554,0.008100668,0.21774808,0.35017756,-0.3786561,0.60942847,2016-12-07 19:11:45,50.37553331258404
8.587357,-0.3432312,4.6123962,-0.02914528,0.015315967,-0.017707435,37.0,8.6464815,-0.37096816,4.6120634,0.07259003,-0.028409895,0.007455278,0.35558736,-0.37077427,0.6196704,2016-12-07 19:11:46,54.12872029162429
8.61351,-0.19940186,4.952362,-0.009102121,0.0212672,-0.004785483,46.0,8.476001,-0.34417325,4.9203,-0.14567886,-0.15348838,-0.037506666,0.32931936,-0.37450087,0.5983368,2016-12-07 19:11:47,53.597042140647375
8.325851,-0.31707764,5.056961,0.015667746,-6.177494E-5,0.010774711,47.0,8.442417,-0.33111393,4.9785914,0.12038429,-0.017845921,-0.07455735,0.32764176,-0.37253946,0.598564,2016-12-07 19:11:48,64.72175839870958
8.325851,-0.33015442,4.9262085,-3.5803032E-4,-0.0023353947,8.293349E-4,46.0,8.438466,-0.35674053,4.983515,0.11497821,-0.015560285,0.16442305,0.33920515,-0.36164853,0.6203043,2016-12-07 19:11:49,70.36758664858282
8.404297,-0.31707764,4.782379,0.019479048,-0.010799303,0.012266432,44.0,8.491694,-0.3627967,4.891818,0.07432001,-0.035908375,0.056595024,0.34453687,-0.3634612,0.62176335,2016-12-07 19:11:50,62.163352177238366
8.443527,-0.38246155,4.8346863,0.02770666,0.009827567,0.014802636,41.0,8.524249,-0.35135165,4.8357134,0.09894787,0.029077861,0.017613178,0.34977424,-0.36243087,0.6250262,2016-12-07 19:11:51,58.81341637752564
8.521973,-0.3432312,4.625473,-0.0643954,2.6862894E-4,-0.037130065,39.0,8.51794,-0.35245928,4.846737,0.006076118,-0.011438314,0.20073551,0.34707975,-0.36394516,0.62184465,2016-12-07 19:11:52,57.10981821490063
8.482758,-0.35630798,4.886978,0.022807298,0.0074728667,0.014243591,41.0,8.552294,-0.3447293,4.7864194,0.10767839,0.009399709,-0.007942847,0.3424278,-0.37216365,0.6092788,2016-12-07 19:11:53,62.31650502407065
8.456604,-0.3432312,4.8739014,0.022608155,-0.011629487,0.0134126395,39.0,8.526458,-0.36176437,4.831052,0.008812823,-0.020773415,0.059029125,0.343909,-0.36770594,0.6163985,2016-12-07 19:11:54,71.38784489212827
8.43045,-0.33015442,4.900055,-0.035708945,0.0035450915,-0.02084612,43.0,8.530252,-0.35106018,4.825139,0.1264978,-0.0377922,-0.10542676,0.34847063,-0.36411914,0.6223409,2016-12-07 19:11:55,65.88057277285618
8.691971,-0.30400085,4.847763,0.04351592,-0.002252272,0.025980506,46.0,8.420387,-0.33404413,5.015566,-0.20308566,-0.04824979,0.101611,0.32462066,-0.37255704,0.59667736,2016-12-07 19:11:56,58.52476019956327
8.378143,-0.36938477,4.9392853,0.04100141,0.002248959,0.026247714,46.0,8.447748,-0.35748482,4.9677105,0.08709823,0.026081212,0.01986564,0.34592444,-0.3565714,0.63001925,2016-12-07 19:11:57,63.442483648240504
8.404297,-0.35630798,4.9392853,-0.008709727,2.046925E-4,-0.0069114566,46.0,8.444332,-0.35028213,4.974029,0.040548466,0.0053933444,0.043619778,0.33912563,-0.36247298,0.61879265,2016-12-07 19:11:58,58.455825676466695
8.404297,-0.36283875,4.981781,-0.009346014,0.0017344089,-0.006093874,47.0,8.448706,-0.35962227,4.965929,0.08581218,-0.01911358,-0.032738212,0.33314738,-0.36852112,0.6088413,2016-12-07 19:11:59,71.51909898853205
8.35199,-0.35630798,4.886978,-0.063584924,0.0011196927,-0.035281003,46.0,8.476563,-0.3853343,4.9162765,0.08642985,-0.003964565,-6.6921266E-4,0.3402839,-0.3652636,0.61885256,2016-12-07 19:12:00,62.54034150038376
8.365067,-0.3432312,4.9262085,0.06557823,-0.0027948827,0.038315095,27.0,8.456951,-0.3659724,4.9514065,0.094058044,-0.025463698,0.020840777,0.33208203,-0.37049147,0.606345,2016-12-07 19:12:01,62.716755926459925
8.394485,-0.36283875,4.9327393,0.060736228,-0.004049101,0.036072247,44.0,8.448188,-0.35912183,4.9668455,0.07250025,-0.019022472,0.034846026,0.344741,-0.3578052,0.6281682,2016-12-07 19:12:02,52.355355693628134
8.394485,-0.38246155,4.9719696,-0.0017526001,6.4081687E-4,-0.0014460718,44.0,8.442292,-0.36455062,4.9764657,0.09301889,0.016819136,0.073140785,0.34973848,-0.3520538,0.6378591,2016-12-07 19:12:03,56.00029778538389
8.374878,-0.3432312,4.9719696,-0.0039623845,-5.910149E-4,-0.004085808,44.0,8.445389,-0.3637976,4.971261,0.109311104,-0.039146677,0.041254256,0.35091954,-0.3512534,0.6394422,2016-12-07 19:12:04,63.41737408174379
8.227783,-0.2942047,4.8150635,0.008454168,-9.0249104E-4,0.007044896,44.0,8.452081,-0.36215883,4.9599967,0.102848426,-0.0058122524,-0.02495789,0.3327436,-0.3693121,0.6077874,2016-12-07 19:12:05,60.19450643785824
8.378143,-0.3432312,4.9392853,0.018875161,-0.0032272835,0.012229252,45.0,8.43615,-0.33726093,4.9887886,0.05817411,0.00434266,0.06076908,0.33036953,-0.36936897,0.60440713,2016-12-07 19:12:06,65.68406878034543
8.325851,-0.36938477,4.9392853,-0.023823826,0.0017122031,-0.013969713,47.0,8.447332,-0.3492163,4.9690027,0.12530072,0.018533058,0.024816982,0.33309653,-0.3683404,0.60827726,2016-12-07 19:12:07,57.1271911691613
8.482758,-0.4020691,4.922943,0.055977795,-0.0045930804,0.038762923,43.0,8.438267,-0.39130804,4.9812565,-0.062002342,0.008747149,0.053072717,0.34319016,-0.35802755,0.62911403,2016-12-07 19:12:08,65.12165813304523
8.39122,-0.36938477,4.9131317,0.00636989,0.00232518,0.0011797433,44.0,8.452457,-0.36451072,4.959183,0.07594358,-0.010381707,0.042237706,0.33952484,-0.3630566,0.6193526,2016-12-07 19:12:09,63.532285769508164
8.417374,-0.36938477,4.9392853,-0.008323731,-4.567643E-4,-0.0064248,29.0,8.445668,-0.36363864,4.9708,0.08212278,-0.024882397,0.041213937,0.34399685,-0.3580503,0.62781125,2016-12-07 19:12:10,50.47928762199214
8.31604,-0.3530426,4.9327393,0.015034432,2.3160689E-4,0.0091994945,34.0,8.453183,-0.3600385,4.9582725,0.09028967,-0.019529812,0.054947343,0.34575608,-0.35723972,0.6294209,2016-12-07 19:12:11,54.18592864158473
8.394485,-0.4020691,4.854294,0.022478651,-0.0011855278,0.013909497,39.0,8.451623,-0.36777675,4.9603643,0.061488587,0.013592967,0.043419015,0.33578816,-0.36652547,0.6134271,2016-12-07 19:12:12,51.440637609101074
8.414108,-0.39227295,4.9327393,-0.00350829,0.0016700412,-0.0032679876,39.0,8.44583,-0.36613497,4.9703417,0.055695947,0.0016143976,-0.0010852884,0.33411193,-0.3673035,0.6113092,2016-12-07 19:12:13,60.49879305874231
8.394485,-0.4020691,4.9327393,-0.036503334,0.0058633555,-0.02439398,39.0,8.407474,-0.3564592,5.0356445,0.017339673,-0.015950512,0.07783815,0.3294169,-0.36691448,0.6080059,2016-12-07 19:12:14,49.006776815494604
8.378143,-0.3432312,4.9131317,0.011650129,-0.0011758895,0.006687612,39.0,8.4383545,-0.37139484,4.982635,0.061841063,-0.030886162,0.06568924,0.3421507,-0.35903272,0.6260947,2016-12-07 19:12:15,55.52642258029699
8.312775,-0.36938477,4.9392853,-0.035314795,-0.0035280949,-0.02582288,41.0,8.42288,-0.33762428,5.0111384,0.11790695,0.034233265,0.07506155,0.32503942,-0.37318686,0.59604967,2016-12-07 19:12:16,59.31191866510055
7.8420563,-0.21247864,4.390106,0.041419245,-0.0024388444,0.027873697,41.0,8.443688,-0.35559383,4.9747424,0.03993412,-0.04232583,0.20762093,0.34479356,-0.35754406,0.6285023,2016-12-07 19:12:17,51.63471058533517
8.665802,-0.39553833,4.2593536,-0.0012796798,-0.00978047,0.0012776975,41.0,8.46666,-0.39256722,4.9327435,-0.1277797,-0.06567888,0.58785254,0.34650397,-0.36026344,0.6287952,2016-12-07 19:12:18,57.20617573106097
8.39122,-0.36938477,5.004654,0.011457139,0.025876082,0.0067556975,41.0,8.498728,-0.34918657,4.880583,0.13583437,0.018562805,-0.090843745,0.34099886,-0.36655223,0.61519814,2016-12-07 19:12:19,62.38805699611382
8.365067,-0.3432312,4.893524,0.001647104,-0.0014811652,0.0024979902,43.0,8.456374,-0.3603878,4.9527993,0.08064054,-0.021492116,0.06164862,0.33385083,-0.36895466,0.60902,2016-12-07 19:12:20,58.32823143580328
8.365067,-0.38246155,4.952362,-0.0336627,-0.054318078,-0.026173258,44.0,8.268977,-0.29016745,5.264048,-0.08029554,0.10482263,0.30624166,0.31820977,-0.36265883,0.6002856,2016-12-07 19:12:21,51.97132861400681
8.312775,-0.38246155,5.004669,0.0038399468,-0.0019344006,0.002280299,44.0,8.414087,-0.35252586,5.0248637,0.10678306,0.02876318,0.02433357,0.33488077,-0.3630331,0.6157982,2016-12-07 19:12:22,55.8627769154067
8.35527,-0.3432312,5.0013885,0.018295245,-0.0028336905,0.010722574,47.0,8.4241,-0.35207123,5.008092,0.08844747,0.029298523,0.050285302,0.33300745,-0.3658018,0.61137265,2016-12-07 19:12:23,51.18584065653174
8.345459,-0.3530426,4.981781,-0.05135059,0.0028350155,-0.03199129,47.0,8.418247,-0.35478422,5.01773,0.082594976,-0.041516226,0.05992404,0.33186755,-0.36608183,0.6104759,2016-12-07 19:12:24,54.92696956686355
8.335648,-0.38246155,4.9719696,0.031668328,-0.0034045004,0.020238133,47.0,8.405352,-0.36617714,5.038488,0.056079186,-0.012048113,0.09430162,0.3250291,-0.3708035,0.6014436,2016-12-07 19:12:25,61.885683989175355
8.35527,-0.3530426,5.0013885,0.0069260015,0.0058351066,0.0041121463,47.0,8.406024,-0.3626506,5.037622,0.0875646,0.0050730263,-0.007874679,0.34035712,-0.35701576,0.6268106,2016-12-07 19:12:26,50.46879359271067
8.338928,-0.3432312,4.965439,-0.014357231,-0.0018736316,-0.009914191,47.0,8.410308,-0.35361835,5.03111,0.086995974,-0.014232252,0.04812179,0.3473757,-0.350379,0.63784057,2016-12-07 19:12:27,52.02770841233782
8.325851,-0.38246155,5.0112,0.0020205593,0.0020680418,2.4654222E-5,46.0,8.412953,-0.34420967,5.0273385,0.07839431,0.022620218,0.06763828,0.34059593,-0.35738024,0.6252317,2016-12-07 19:12:28,51.790938459344346
8.338928,-0.33015442,4.9392853,-0.018462738,4.6839577E-4,-0.00949491,46.0,8.410244,-0.37727028,5.029497,0.07491108,-0.051613364,0.09830567,0.33587027,-0.36162153,0.61989,2016-12-07 19:12:29,51.39797287882275
8.35199,-0.3432312,4.965439,-0.04814833,0.0021458021,-0.02910804,46.0,8.419608,-0.35879865,5.0151634,0.05671432,-0.01828995,0.07097728,0.33081937,-0.3672391,0.60878336,2016-12-07 19:12:30,46.052578962279426
8.374878,-0.3530426,5.0112,0.009425798,0.0013525964,0.0067729647,46.0,8.414533,-0.36396602,5.0233045,0.051639106,0.0037833375,0.051877283,0.33640835,-0.3614974,0.6193808,2016-12-07 19:12:31,53.81814046565971
8.345459,-0.4118805,4.981781,0.02541276,-7.7733304E-4,0.015906414,45.0,8.412731,-0.3695278,5.0259123,0.049837638,-0.0017783755,0.013624504,0.33983287,-0.35811648,0.62576914,2016-12-07 19:12:32,52.21859150844644
8.345459,-0.39227295,4.962158,-3.741653E-4,0.0010760418,-3.2781693E-4,45.0,8.4148855,-0.37048203,5.022234,0.106846236,-0.04391409,0.02291991,0.33393726,-0.3639224,0.61550117,2016-12-07 19:12:33,48.97632645917993
8.345459,-0.3334198,4.9915924,0.024795394,-0.0016315815,0.01483058,45.0,8.417591,-0.36579186,5.0180435,0.08193823,0.0019575248,0.04661669,0.33837715,-0.3600822,0.6223078,2016-12-07 19:12:34,49.7552276529492
8.306229,-0.36283875,5.0013885,-0.042098824,7.210452E-4,-0.025787478,46.0,8.411132,-0.37641487,5.0280766,0.048238177,-0.022285819,0.056649886,0.3399409,-0.35791987,0.6264741,2016-12-07 19:12:35,54.44779418793872
8.335648,-0.38246155,4.981781,-0.0068226084,-0.0011932576,-0.0031387906,46.0,8.424538,-0.3705049,5.0060253,0.061644044,-0.002755514,0.007357598,0.3310209,-0.36772472,0.60925937,2016-12-07 19:12:36,59.01349907935617
8.35527,-0.36283875,4.9719696,0.0067045926,-0.0011230686,0.00319651,46.0,8.4150095,-0.36159402,5.0226727,0.07993142,0.006871769,0.050336428,0.33019337,-0.36730203,0.6085054,2016-12-07 19:12:37,56.000368438363985
8.374878,-0.37265015,5.0210114,0.025303237,-0.0014586602,0.015457386,46.0,8.4056835,-0.36144057,5.0382776,0.056410052,0.033549506,0.06685102,0.33755165,-0.3594412,0.6222682,2016-12-07 19:12:38,56.03376904294387
8.404297,-0.36283875,4.981781,-0.03882905,0.0036725362,-0.026627176,45.0,8.409322,-0.36885595,5.0316644,0.032808043,-0.028347285,0.032996755,0.337973,-0.3594118,0.6229501,2016-12-07 19:12:39,51.81653870064207
8.312775,-0.38246155,5.0438843,-0.013766985,0.0013116834,-0.00700736,45.0,8.416644,-0.34672922,5.020986,0.10823205,0.03464051,0.008698102,0.3312509,-0.36642453,0.60916895,2016-12-07 19:12:40,73.94863447295565
8.35527,-0.39227295,5.040619,-0.07337387,0.0028676623,-0.04401343,46.0,8.400425,-0.37971666,5.0456996,0.051235914,0.0016866184,0.0060328892,0.3273767,-0.36820102,0.6069917,2016-12-07 19:12:41,63.443282797235284
8.312775,-0.3432312,4.965439,-0.03954979,-0.0029803037,-0.026946245,47.0,8.409996,-0.3674706,5.0306396,0.071455285,-0.043859173,0.091037445,0.33440134,-0.3627278,0.61706215,2016-12-07 19:12:42,63.67960204622952
8.374878,-0.39227295,4.9719696,-0.002024236,6.973044E-4,0.001543683,43.0,8.418975,-0.371752,5.0152817,0.042461336,0.00961775,0.01661393,0.33802688,-0.36057615,0.62204796,2016-12-07 19:12:43,51.8407084657758
8.31604,-0.38246155,5.0013885,0.031075515,3.6314366E-4,0.017915947,34.0,8.422415,-0.37308228,5.009404,0.08676238,-0.01895324,-0.0028838492,0.3332908,-0.36533627,0.61360866,2016-12-07 19:12:44,61.007360710824784
8.35199,-0.3432312,4.9785156,-0.006768682,-0.002080001,-0.0026430553,44.0,8.410851,-0.3654185,5.02936,0.074112184,-0.023693271,0.046216823,0.33511403,-0.3622559,0.6177394,2016-12-07 19:12:45,70.77688747928642
8.306229,-0.38246155,4.9915924,0.05232092,-0.0015858319,0.032257665,44.0,8.421922,-0.3610213,5.011117,0.08626941,0.006728081,0.02606978,0.3369569,-0.36186978,0.61906487,2016-12-07 19:12:46,69.84047961610815
8.35527,-0.39227295,4.9719696,-0.06403616,0.004074314,-0.041141003,48.0,8.415314,-0.37704325,5.021028,0.078968756,-0.006178423,0.05099525,0.3301268,-0.36739597,0.60940605,2016-12-07 19:12:47,61.782415062272605
8.384689,-0.36283875,5.040619,0.012988101,-0.0015798967,0.008190029,47.0,8.4197235,-0.3704871,5.0141187,0.07045105,-0.029978387,0.015450914,0.3334979,-0.36489823,0.6140789,2016-12-07 19:12:48,76.53896112264681
8.35527,-0.4020691,4.981781,-0.029924316,7.716101E-4,-0.018111762,48.0,8.415258,-0.35645396,5.022625,0.05236568,-0.01594529,0.05119809,0.33084103,-0.36672863,0.60916466,2016-12-07 19:12:49,60.36538180844987
8.374878,-0.3334198,4.981781,-0.021027885,-0.0015904269,-0.012028839,48.0,8.419817,-0.3647006,5.0143867,0.016062766,-0.02419188,0.056580056,0.34743056,-0.3517071,0.6370812,2016-12-07 19:12:50,54.22634714082403
8.2964325,-0.3530426,4.9719696,-0.01662157,0.0018285258,-0.00837334,47.0,8.414681,-0.3589001,5.0234175,0.09264895,0.02246962,0.05199075,0.3351312,-0.36264488,0.6170774,2016-12-07 19:12:51,50.466017576061255
8.325851,-0.36283875,5.0504303,-0.0027285975,-5.714332E-4,-0.003215852,48.0,8.407887,-0.37548265,5.0335717,0.07223423,-0.048594322,0.021283872,0.33722618,-0.3600737,0.6222546,2016-12-07 19:12:52,55.13146016620966
8.35527,-0.3530426,5.0013885,0.003842587,0.0013023771,0.0012852324,48.0,8.413113,-0.36349538,5.025713,0.063011564,-0.02211662,0.055736266,0.34045663,-0.3574065,0.626366,2016-12-07 19:12:53,60.475154357525575
8.338928,-0.38246155,4.9785156,0.033362597,-0.0062677856,0.025012983,48.0,8.386648,-0.33403385,5.07178,0.050995663,0.047335885,0.10035321,0.33488685,-0.36002845,0.6184646,2016-12-07 19:12:54,53.9997280512402
8.404297,-0.36283875,4.893524,0.0016101986,-0.002089961,-7.775295E-5,47.0,8.419871,-0.3480569,5.015476,0.056978676,-0.021168578,0.0576695,0.33728638,-0.36151746,0.61856073,2016-12-07 19:12:55,54.19108419743154
8.365067,-0.37265015,4.9719696,0.0022173643,0.003296873,0.0028108337,48.0,8.429975,-0.36656922,4.997154,0.05346053,-0.012440185,0.039347626,0.34315836,-0.35690403,0.6288256,2016-12-07 19:12:56,52.161187741575546
8.378143,-0.38246155,4.965439,-0.03341643,0.0082139885,-0.02193166,48.0,8.376005,-0.32542276,5.089894,-5.0876784E-4,0.05594698,0.13208762,0.32871133,-0.3637126,0.60902303,2016-12-07 19:12:57,48.303467563891644
8.35199,-0.36938477,4.9785156,-0.014962488,-3.9138168E-4,-0.01016906,48.0,8.405921,-0.36059353,5.0379405,0.0838885,-0.0064645265,0.039272808,0.338962,-0.3582252,0.62428176,2016-12-07 19:12:58,46.13471761064691
8.394485,-0.3530426,4.952362,-0.041182,-1.047837E-4,-0.02392786,48.0,8.424848,-0.3557979,5.006572,0.04833378,-0.001668823,0.07600593,0.3323765,-0.3664792,0.6104756,2016-12-07 19:12:59,56.78360376063219
8.404297,-0.3334198,5.0112,0.01747139,-6.512093E-4,0.010794199,47.0,8.418439,-0.3754691,5.015904,-0.039684724,-0.021408465,-0.023816487,0.3437269,-0.35512763,0.6318416,2016-12-07 19:13:00,53.841289609552035
8.394485,-0.4020691,4.893524,0.0039111506,-0.0011135826,0.0033659663,47.0,8.426209,-0.36092967,5.0039115,0.0488625,0.021691531,0.11569896,0.33546656,-0.36371768,0.6159212,2016-12-07 19:13:01,53.50219545099807
8.414108,-0.3530426,4.9425507,0.03808042,0.005673355,0.023107994,47.0,8.428142,-0.36326006,5.0004864,0.06894303,0.019381681,0.050161436,0.33893514,-0.360994,0.6213396,2016-12-07 19:13:02,51.6218204641592
8.365067,-0.31707764,4.952362,-0.05911733,0.0044556004,-0.038367707,47.0,8.414014,-0.37564018,5.0233126,-0.003971216,-0.18089977,0.48905975,0.33496985,-0.36281717,0.61765426,2016-12-07 19:13:03,53.61670355070026
8.35199,-0.39553833,4.952362,0.015913893,0.0052653686,0.011465536,47.0,8.430498,-0.3482425,4.997581,0.03176141,-0.0050707925,0.05872611,0.33981827,-0.36027935,0.6216247,2016-12-07 19:13:04,49.68457263712167
8.312775,-0.3432312,4.9915924,0.028990703,6.7258974E-5,0.017679492,48.0,8.434488,-0.34943783,4.99076,0.15331703,-0.008929131,0.0057124156,0.34805384,-0.35267136,0.635229,2016-12-07 19:13:05,50.03298610904733
8.325851,-0.3334198,4.952362,0.042102452,-0.0027024967,0.027485488,48.0,8.411301,-0.35478678,5.0293674,0.075648464,0.012962592,0.044320166,0.3466952,-0.35135612,0.63666046,2016-12-07 19:13:06,54.83676939694704
8.338928,-0.36938477,4.9915924,-0.020947153,0.0060817488,-0.013067233,48.0,8.426285,-0.3556216,5.0041623,0.04977113,-0.042353597,0.032735307,0.3412785,-0.35783046,0.62583405,2016-12-07 19:13:07,58.256643017524105
8.374878,-0.36283875,5.0504303,-0.0062668445,4.0721422E-4,-0.004524902,48.0,8.422015,-0.35588887,5.0113273,0.099982865,0.052721564,0.039900452,0.33980945,-0.35914844,0.6235046,2016-12-07 19:13:08,54.758694563484944
8.352005,-0.38246155,5.0177307,-0.02687647,1.7467572E-5,-0.014865203,48.0,8.4172125,-0.37615564,5.0179124,0.06793963,0.005214091,0.0056247115,0.3396091,-0.35900703,0.6250603,2016-12-07 19:13:09,51.69511010300279
8.365067,-0.38246155,4.9392853,-0.046272177,-1.890578E-4,-0.028997578,48.0,8.424299,-0.36097708,5.007122,0.09055403,-0.0056127873,0.073435076,0.34162837,-0.35811898,0.6260131,2016-12-07 19:13:10,53.809752141628955
8.338928,-0.3432312,4.965439,-0.06836691,0.006329734,-0.043883327,48.0,8.422797,-0.3332291,5.011569,0.087144785,0.0072795833,0.05376271,0.33124262,-0.3669947,0.6073533,2016-12-07 19:13:11,64.4472965818501
8.35199,-0.36938477,4.952362,0.018618455,7.8877044E-4,0.011790455,48.0,8.421755,-0.34420568,5.0125794,0.07248196,0.037164032,0.06839311,0.33807006,-0.3607088,0.61985683,2016-12-07 19:13:12,51.35615694338828
8.469681,-0.36938477,4.7169952,-0.011471374,-0.006064391,-0.0076646786,44.0,8.42509,-0.34146547,5.0071583,-0.03314556,0.026283924,0.2672773,0.32583645,-0.37247932,0.5981125,2016-12-07 19:13:13,53.35736299849262
8.39122,-0.33015442,4.8608246,-0.017773433,0.0040483093,-0.009413688,46.0,8.47604,-0.3556656,4.9194164,0.072284944,-0.0015365651,0.029711794,0.34226298,-0.36328056,0.6201725,2016-12-07 19:13:14,58.536958357713274
8.453339,-0.39227295,4.893524,0.067267805,-0.005161296,0.03886513,46.0,8.473004,-0.3541723,4.9247503,0.042009093,0.027197413,0.06228624,0.33348593,-0.3711549,0.60562,2016-12-07 19:13:15,53.791193764845715
9.394775,-0.4020691,4.275696,0.10931012,-0.035603642,0.07948644,46.0,8.508914,-0.3945388,4.8593335,-0.5326708,0.13599089,0.1583382,0.35352445,-0.35996038,0.6345999,2016-12-07 19:13:16,62.06539896649933
8.338913,-0.35630798,5.004654,-0.07603074,0.033282526,-0.06209815,49.0,8.505834,-0.4310777,4.861621,0.17018119,-0.07694867,-0.12342609,0.3432274,-0.36561656,0.6228679,2016-12-07 19:13:17,72.27179412575131
8.299698,-0.35630798,4.952362,-0.04877748,0.0018440913,-0.029632505,51.0,8.414092,-0.35494795,5.0246835,0.05132321,-0.013908321,0.06670886,0.32959783,-0.3676968,0.60714126,2016-12-07 19:13:18,60.14184479817702
8.35199,-0.33015442,4.952362,-0.02190029,-0.007303704,-0.013432789,49.0,8.430265,-0.35091272,4.9977894,0.080992185,-0.02402437,0.06722386,0.3257756,-0.3731608,0.5979977,2016-12-07 19:13:19,57.097312968845806
8.35199,-0.36938477,4.965439,0.042161707,-0.0048107626,0.028641282,48.0,8.436278,-0.35400644,4.9874115,0.08700596,0.0137429405,0.07046601,0.3379606,-0.36275506,0.61824274,2016-12-07 19:13:20,62.06177516876372
8.404297,-0.3432312,4.9131317,-0.025337119,0.0012538253,-0.019967735,48.0,8.46453,-0.3556316,4.939194,0.060775314,-0.055983953,0.035869382,0.33647245,-0.3673346,0.61144125,2016-12-07 19:13:21,66.37120839737598
8.404297,-0.3432312,4.9131317,0.05139302,-0.001712398,0.03132066,48.0,8.466775,-0.33641437,4.936694,0.09026057,0.01771465,0.04698953,0.33920595,-0.36500406,0.61500937,2016-12-07 19:13:22,59.779744769302035
8.378143,-0.35630798,4.8739014,0.015010658,-2.1043821E-4,0.008614368,48.0,8.463143,-0.35395283,4.941691,0.086630195,1.7621387E-4,0.079226874,0.33879054,-0.36502331,0.6159111,2016-12-07 19:13:23,66.32946664410579
8.374878,-0.38246155,4.9719696,0.028165145,5.839333E-4,0.016375104,48.0,8.451399,-0.35056114,4.9619923,0.10212517,0.0035678956,0.0041856966,0.33661354,-0.3657107,0.61360914,2016-12-07 19:13:24,54.664479455010905
8.42392,-0.38246155,4.8444824,0.041557502,-0.0053079613,0.024870096,47.0,8.469756,-0.3616799,4.929789,0.063975066,0.020325568,0.057232644,0.33475247,-0.36969212,0.6086879,2016-12-07 19:13:25,68.77940937735457
8.443527,-0.36938477,4.847763,-0.028957807,-0.0011955436,-0.016342053,47.0,8.495911,-0.35301358,4.88521,0.06632188,0.014665135,0.033913698,0.3392983,-0.36875653,0.61190903,2016-12-07 19:13:26,49.81719060509367
8.463135,-0.4020691,4.824875,-0.018818367,0.004713918,-0.01055107,47.0,8.484361,-0.37734982,4.9034314,0.0125047155,-0.009600421,0.08182808,0.33974114,-0.36675775,0.61620986,2016-12-07 19:13:27,55.73559708199282
8.384689,-0.36283875,4.922943,-0.042558365,0.0038879255,-0.025189055,47.0,8.486703,-0.37238252,4.899754,0.11018981,-0.018253475,0.010049412,0.33498818,-0.37135178,0.6076173,2016-12-07 19:13:28,66.08672045006233
8.42392,-0.37265015,4.8739014,-0.032609425,0.0016950102,-0.020352958,46.0,8.460667,-0.36411738,4.9451933,0.029671475,-0.023608709,0.06910888,0.33406475,-0.36913434,0.60899127,2016-12-07 19:13:29,75.18622889051446
8.443527,-0.36283875,4.805252,0.0087056095,-0.0015964705,0.0047624963,45.0,8.480327,-0.36110234,4.911624,0.00728652,0.006310914,0.09204167,0.33870462,-0.36714423,0.61398375,2016-12-07 19:13:30,54.95170988536688
8.404297,-0.37265015,4.8739014,-0.02593175,-7.3471817E-4,-0.013433102,45.0,8.522894,-0.3626473,4.837267,0.10551945,-0.008518251,0.015663732,0.3412016,-0.37014565,0.6121516,2016-12-07 19:13:31,67.4569789380467
8.433716,-0.39227295,4.8150635,-0.0010268837,0.002197486,-6.217835E-4,46.0,8.479087,-0.37103662,4.913023,0.061712213,-0.016907595,0.1050402,0.32656288,-0.3779482,0.59448516,2016-12-07 19:13:32,54.95412014247403
8.414108,-0.4216919,4.9327393,-0.024774069,0.005230778,-0.014690543,46.0,8.48223,-0.35932982,4.9084673,0.07847578,-0.0052007902,0.05962352,0.33578545,-0.36969033,0.6091142,2016-12-07 19:13:33,49.32191436478458
8.404297,-0.36283875,4.9327393,-0.019295493,0.0021434808,-0.011198094,46.0,8.459291,-0.37361264,4.9468365,0.055537164,-0.033103943,-0.0109696835,0.33657855,-0.36660197,0.6141953,2016-12-07 19:13:34,57.065942151607736
8.443527,-0.38246155,4.9033203,0.052702405,-0.003444696,0.031812653,46.0,8.459074,-0.35770655,4.948384,0.04169901,0.01004284,0.004197335,0.34197247,-0.36162716,0.6220686,2016-12-07 19:13:35,46.82911882097123
8.453339,-0.4020691,4.9327393,-0.002571063,-6.8338134E-4,-0.0021831288,46.0,8.475983,-0.37198967,4.9183073,0.11308946,-0.004240252,0.06946344,0.34539452,-0.36058608,0.6261562,2016-12-07 19:13:36,67.03410908032565
8.472946,-0.3530426,4.805252,0.03438691,-0.0067142393,0.020310134,45.0,8.480144,-0.37468952,4.9109216,0.076389164,0.0066802017,0.17104077,0.3409135,-0.36577144,0.6178802,2016-12-07 19:13:37,52.07115202515262
8.404297,-0.42167664,4.847748,-0.057212524,0.0035703063,-0.035755742,45.0,8.504036,-0.35496792,4.8709116,0.14114235,-0.028079577,0.13103057,0.33121228,-0.37673742,0.5976753,2016-12-07 19:13:38,51.08630030564043
8.414108,-0.38246155,4.8739014,0.0115660485,-0.0036812879,0.0078090215,46.0,8.507112,-0.3396197,4.8666315,0.076116495,0.041750036,-0.023073286,0.3345653,-0.37432772,0.6018497,2016-12-07 19:13:39,46.428363925768814
8.456604,-0.33015442,4.795456,0.022461277,0.003217895,0.011534872,45.0,8.477392,-0.3590423,4.9168367,0.034617,-0.019875875,0.14644659,0.33818302,-0.3672689,0.613321,2016-12-07 19:13:40,64.2340819291468
8.39122,-0.38246155,4.8216095,-0.011699187,0.0036940514,-0.006622357,46.0,8.467604,-0.3510144,4.934255,0.09109023,-0.010505729,0.030930093,0.33482918,-0.36890233,0.6088577,2016-12-07 19:13:41,71.13668569055369
8.384689,-0.3530426,4.9131317,-0.013515087,0.0012665655,-0.007489444,39.0,8.474972,-0.3603929,4.920911,0.07160409,-0.005868132,0.016947707,0.33507222,-0.3698817,0.60855246,2016-12-07 19:13:42,62.108886870531215
8.374878,-0.3530426,4.9033203,0.017313313,7.752217E-4,0.011132234,6.0,8.457895,-0.3616032,4.950116,0.09500159,0.0061461567,0.04679085,0.3322136,-0.370415,0.60624784,2016-12-07 19:13:43,56.10693374792049
8.42392,-0.36283875,4.9131317,0.055142894,-0.0035956989,0.030876368,4.0,8.460249,-0.3646387,4.9458685,0.056494012,0.016731044,0.083404675,0.3403178,-0.36347806,0.61930215,2016-12-07 19:13:44,65.72379616012722
8.35527,-0.36283875,4.952362,-0.037902027,0.0014469946,-0.02080153,7.0,8.468329,-0.3774448,4.931057,0.09181597,-0.0096954,0.014111658,0.3399075,-0.36475247,0.6186636,2016-12-07 19:13:45,54.72903751181746
8.378143,-0.36938477,4.8608246,-0.049620274,0.0043522725,-0.028616564,18.0,8.448295,-0.3650661,4.9662285,0.085401505,0.016303642,0.103764534,0.33426836,-0.36739174,0.6112817,2016-12-07 19:13:46,68.67147287473476
8.36998,-0.3988037,4.9915924,0.010707945,-1.3994191E-4,0.005983494,17.0,8.458173,-0.36468405,4.949416,0.08165891,0.030306032,-0.049251556,0.32641292,-0.37562132,0.59661686,2016-12-07 19:13:47,58.0858713239015
8.561203,-0.37265015,4.805252,0.0246805,-0.006052852,0.015392899,45.0,8.478342,-0.3788638,4.913712,0.033726655,-0.051975477,0.10572936,0.33617327,-0.36988953,0.61062616,2016-12-07 19:13:48,64.85582231837827
8.43045,-0.35630798,4.8346863,-0.012891351,0.0021769064,-0.0073553124,46.0,8.530758,-0.35659862,4.8238344,0.15424478,-0.002469592,-0.025009017,0.33426276,-0.37707886,0.599465,2016-12-07 19:13:49,72.46469970232538
8.35199,-0.38246155,4.886978,-0.027916374,0.0031699138,-0.016504195,46.0,8.4905405,-0.34647796,4.8950033,0.1276467,0.034891777,-0.008321929,0.32040116,-0.3843423,0.58104753,2016-12-07 19:13:50,50.023045565640246
8.414108,-0.37265015,4.854294,0.008838702,1.9584085E-4,0.0061226552,45.0,8.482979,-0.36442235,4.906798,0.07922397,0.0033270468,0.044333883,0.33022803,-0.37513754,0.59979665,2016-12-07 19:13:51,68.31945080773008
8.414108,-0.39227295,4.9719696,-0.031812858,0.004936263,-0.020263834,46.0,8.471068,-0.36010906,4.9276495,0.0536933,0.021260645,0.024324425,0.319462,-0.38290718,0.58299696,2016-12-07 19:13:52,69.97557373208654
8.394485,-0.3530426,4.9033203,0.008785591,-0.002281784,0.0053921,46.0,8.459676,-0.36304313,4.9469666,0.069542415,-0.022534437,0.08450243,0.32869405,-0.37400368,0.5999018,2016-12-07 19:13:54,73.39802715410305
8.384689,-0.36283875,4.9915924,0.02029019,-0.0024435793,0.012757255,47.0,8.425005,-0.358756,5.0060935,0.048491728,0.008993376,0.03466646,0.32209536,-0.37559116,0.5932823,2016-12-07 19:13:55,63.66268580131471
8.325851,-0.33015442,4.9392853,-0.034076747,4.12062E-5,-0.02103772,47.0,8.436817,-0.3475321,4.9869566,0.12921873,-0.0061245165,0.068697795,0.32885465,-0.37106135,0.6021549,2016-12-07 19:13:56,60.36169003664217
8.463135,-0.38246155,4.9425507,0.021499285,-0.004074126,0.013682594,47.0,8.447476,-0.3507328,4.9686537,-0.051619984,0.04425727,-0.0027732835,0.32883912,-0.3724959,0.6009745,2016-12-07 19:13:57,66.65684566029431
8.384689,-0.4118805,4.9719696,-0.002248942,0.0022817808,-0.0012566482,47.0,8.4532,-0.3615073,4.9581356,0.07668678,0.019862443,0.013949551,0.3219964,-0.37891817,0.589549,2016-12-07 19:13:58,65.6397800119118
8.35527,-0.3530426,4.9425507,-0.007042628,7.031999E-4,-0.0059663868,47.0,8.437938,-0.3657034,4.9837613,0.088664435,-0.011574365,0.080436036,0.3264505,-0.37326962,0.59939045,2016-12-07 19:13:59,61.285545676026715
8.384689,-0.37265015,4.883713,-0.011140551,-0.0010230697,-0.0064301523,47.0,8.446898,-0.36602047,4.968531,0.04314468,-0.01189141,0.0788266,0.3352379,-0.3665126,0.6129565,2016-12-07 19:14:00,51.59077860171528
8.394485,-0.38246155,4.883713,0.02041059,-0.0020631482,0.011258063,46.0,8.443694,-0.3656584,4.9740057,0.05413057,0.0028907855,0.06976978,0.32105917,-0.3786936,0.5893808,2016-12-07 19:14:01,51.947981882000505
8.365067,-0.33015442,4.9392853,0.032954574,-0.0011479671,0.018121067,44.0,8.461294,-0.35967052,4.9444456,0.09840086,-0.046402518,0.013879719,0.3265474,-0.375829,0.59603184,2016-12-07 19:14:02,62.873887388664414
8.374878,-0.37265015,4.9425507,0.030802475,-0.003243798,0.021232203,46.0,8.455731,-0.3538146,4.9543734,0.079217315,0.027555116,0.051048454,0.3279556,-0.3740191,0.5988308,2016-12-07 19:14:03,65.38424652495718
8.394485,-0.38246155,4.9425507,-6.013251E-5,0.0022224928,-7.939058E-4,43.0,8.448293,-0.36811966,4.966007,0.0445388,-0.013990622,0.021820905,0.33108768,-0.3703113,0.6060658,2016-12-07 19:14:04,63.74170811298808
8.365067,-0.36283875,4.962158,0.050661564,-0.005268017,0.027689733,43.0,8.454658,-0.3652885,4.9553742,0.010042346,-0.038400177,-0.0024324423,0.33599362,-0.3667735,0.612983,2016-12-07 19:14:05,65.29414554382589
8.374878,-0.38246155,4.9131317,0.020143226,1.073042E-4,0.01375525,43.0,8.444759,-0.35818353,4.972738,0.06824639,0.02318619,0.042172033,0.3189936,-0.380365,0.5855715,2016-12-07 19:14:06,71.91949658287088
8.365067,-0.36283875,4.9425507,0.028168159,-0.0023433568,0.016552072,46.0,8.453866,-0.37192398,4.95623,0.077352665,-0.004174603,0.03928486,0.32284844,-0.3782773,0.5916691,2016-12-07 19:14:07,69.34698327782704
8.394485,-0.39227295,4.9327393,-0.0354489,4.7393327E-4,-0.020900765,46.0,8.452205,-0.35803455,4.960085,0.089311205,-0.0039055413,0.056760035,0.33092144,-0.37097725,0.6044697,2016-12-07 19:14:08,54.57633465111187
8.384689,-0.37265015,4.9425507,-0.06091575,0.0024073527,-0.035019483,46.0,8.455873,-0.3676826,4.953122,0.079358645,-0.013553556,0.008936275,0.3313956,-0.37100488,0.6055127,2016-12-07 19:14:09,58.07290708173287
8.345459,-0.37265015,4.952362,0.0068928995,-1.7902175E-4,0.0038026038,44.0,8.445001,-0.36683974,4.9717007,0.09572734,-0.012710676,0.068375655,0.3392724,-0.36249486,0.6200953,2016-12-07 19:14:10,62.82941341390966
8.42392,-0.39227295,4.9327393,0.013856137,-5.9085403E-4,0.00682777,42.0,8.444281,-0.37130058,4.972589,0.04053932,0.025168188,0.055732526,0.3338694,-0.3674201,0.6113821,2016-12-07 19:14:11,63.283031882433896
8.365067,-0.4020691,4.9327393,0.0030451086,-3.0010872E-4,0.0017825123,43.0,8.440447,-0.362927,4.979711,0.10479455,-0.008797938,0.049145147,0.33585957,-0.36511514,0.61473113,2016-12-07 19:14:12,62.16655368190117
8.365067,-0.36283875,4.893524,0.03436277,-0.0017026153,0.022256706,43.0,8.446938,-0.3631488,4.968678,0.09766431,0.018220924,0.06535298,0.33181283,-0.36957747,0.60726863,2016-12-07 19:14:13,70.18196674358542
8.374878,-0.37265015,4.962158,-0.023302658,0.0026310321,-0.014424273,44.0,8.439257,-0.36085752,4.981878,0.07636339,0.034132548,0.01045094,0.32809162,-0.37178782,0.60185176,2016-12-07 19:14:14,68.45407891113935
8.404297,-0.4020691,5.1779175,0.024023907,-6.2902004E-4,0.013065135,43.0,8.43615,-0.37031904,4.9864435,0.10049745,-0.016189983,0.05587759,0.3307199,-0.36927933,0.6071717,2016-12-07 19:14:15,58.99305856297424
8.365067,-0.3432312,4.9262085,-0.03738178,-0.0033469994,-0.024079341,43.0,8.440655,-0.374812,4.978478,0.080363706,-0.032213833,0.057276286,0.32720432,-0.37312225,0.6007208,2016-12-07 19:14:16,56.878419729260116
8.338928,-0.35630798,4.9392853,-0.014702876,0.0024496065,-0.007855173,43.0,8.441166,-0.36163864,4.9785857,0.07929795,-0.006835425,0.03270995,0.33396563,-0.36697745,0.6112833,2016-12-07 19:14:17,60.22963135506853
8.394485,-0.38246155,4.9719696,-0.024540262,3.16554E-4,-0.01334037,44.0,8.441687,-0.35532954,4.9781594,0.05155265,0.012419844,-0.02050825,0.32017076,-0.37906736,0.58767456,2016-12-07 19:14:18,58.42604017593614
8.345459,-0.37265015,4.962158,0.009342536,-0.0020530964,0.003508023,44.0,8.452122,-0.357866,4.9602394,0.17061098,-0.019093031,-0.010735666,0.32588267,-0.37536156,0.5961213,2016-12-07 19:14:19,50.55436429349213
8.35199,-0.3432312,4.9262085,-0.012619827,-0.0025519878,-0.0056023756,43.0,8.435447,-0.36452827,4.988063,0.08453527,-0.022464683,0.07399954,0.33261672,-0.36738846,0.6101407,2016-12-07 19:14:20,66.97280615696403
8.39122,-0.36938477,4.9262085,-0.006127938,-4.236055E-4,-0.0028721676,44.0,8.445717,-0.35478717,4.9713583,0.06860967,0.013581327,0.06908353,0.32278684,-0.37723953,0.59151345,2016-12-07 19:14:21,54.361674990216
8.374878,-0.3530426,4.9131317,-0.01244323,0.0021238509,-0.007662571,44.0,8.446279,-0.3666977,4.969538,0.08446295,0.028243292,0.009895618,0.32281196,-0.3774479,0.5922063,2016-12-07 19:14:22,61.14964431516259
8.394485,-0.32362366,4.9425507,0.017754946,-4.0477247E-4,0.010198024,44.0,8.43651,-0.37794495,4.985263,0.046376023,-0.03743626,0.013836076,0.33026418,-0.36978093,0.60688317,2016-12-07 19:14:23,54.08019733347216
8.374878,-0.37265015,4.9131317,-0.022833299,7.835815E-4,-0.012513914,44.0,8.44847,-0.3560774,4.966583,0.09918562,0.01085678,0.06322064,0.33581504,-0.36606723,0.6131318,2016-12-07 19:14:24,55.916409104847105
8.35527,-0.38246155,4.9327393,0.014456178,-0.00239789,0.009508628,44.0,8.446778,-0.36348715,4.9689245,0.07026483,0.017882552,0.038358353,0.33423638,-0.36740693,0.6111409,2016-12-07 19:14:25,57.718640228476524
8.345459,-0.36283875,4.9033203,-0.020214848,-0.0042991405,-0.0113503495,44.0,8.455644,-0.36378703,4.9538007,0.011028292,0.003962357,0.0913363,0.3358422,-0.3671158,0.61248726,2016-12-07 19:14:26,52.67052510921958
8.365067,-0.32362366,4.9719696,-0.01651133,0.0025032253,-0.0103810895,44.0,8.453034,-0.36221588,4.9583654,0.07652135,-0.02170722,0.0141794095,0.33755165,-0.3649816,0.61583513,2016-12-07 19:14:27,56.07389335674924
8.404297,-0.3530426,4.9033203,0.00911807,-3.207845E-4,0.006439146,44.0,8.438745,-0.34888074,4.9835987,0.03499026,-0.02199239,0.1075142,0.3339593,-0.36658356,0.61086047,2016-12-07 19:14:28,51.07842903809037
8.404297,-0.3530426,4.9425507,4.836097E-4,6.652857E-4,-1.4208688E-4,44.0,8.451793,-0.35527042,4.960986,0.075279355,-0.014761724,0.030420078,0.32639897,-0.37483808,0.5968105,2016-12-07 19:14:29,45.81380000753885
8.365067,-0.36283875,4.962158,0.040395644,-0.0026173203,0.024634505,47.0,8.447936,-0.3640476,4.966915,0.09866355,-0.023538904,0.036349468,0.33626255,-0.36565375,0.61446244,2016-12-07 19:14:30,47.89712810540453
8.433716,-0.37265015,4.962158,6.196707E-5,0.0021997397,-1.8441751E-4,47.0,8.445652,-0.36658174,4.970613,0.06913839,-0.039693374,0.026426831,0.3309126,-0.37014902,0.60603213,2016-12-07 19:14:31,53.11435252768007
8.374878,-0.37265015,4.9719696,0.015282575,-0.002012339,0.009514674,47.0,8.443156,-0.36002618,4.975328,0.05302159,0.007723197,0.031141665,0.3272928,-0.3731501,0.59974355,2016-12-07 19:14:32,59.27671524723834
8.374878,-0.39227295,4.9425507,0.008293001,3.3965602E-4,0.0057293256,47.0,8.432299,-0.37118763,4.9928894,0.069795966,-0.016365677,0.04809519,0.33842793,-0.3618219,0.6206773,2016-12-07 19:14:33,59.76336375558895
8.35527,-0.36283875,4.9425507,0.01352995,-0.001413007,0.0075754505,47.0,8.444044,-0.3695398,4.9731236,0.09477131,-0.015410777,0.04255777,0.344785,-0.35718825,0.62959254,2016-12-07 19:14:34,54.89280114363106
8.384689,-0.38246155,4.922943,-0.01748849,-7.902894E-5,-0.01052432,47.0,8.444809,-0.3621688,4.972367,0.08191578,-0.03528047,0.0281805,0.34141257,-0.3604762,0.623355,2016-12-07 19:14:35,51.86954494133853
8.335648,-0.36283875,4.9425507,-0.0043410254,0.0014367985,-0.001666726,47.0,8.439796,-0.3712143,4.9802027,0.09052327,-0.017085264,0.049637284,0.3516618,-0.34983388,0.64192665,2016-12-07 19:14:36,50.81162216065099
8.31604,-0.37265015,4.981781,0.006073161,1.0244064E-4,0.0034457687,47.0,8.4389515,-0.36958775,4.981756,0.049118545,-0.0019297536,0.050672695,0.34127852,-0.35992467,0.62445605,2016-12-07 19:14:37,51.13800721613477
8.365067,-0.36283875,4.9131317,0.013319416,-0.0020240704,0.007761642,47.0,8.4425955,-0.36545128,4.9758844,0.06608163,-0.011322241,0.058939345,0.3481987,-0.35368434,0.6352312,2016-12-07 19:14:38,61.12581299277614
8.414108,-0.3530426,4.9719696,-0.0102199875,0.0018101534,-0.0048218295,47.0,8.440492,-0.37296417,4.9788938,0.092200875,-0.017896397,0.005871198,0.3397922,-0.36156797,0.6218951,2016-12-07 19:14:39,61.19706168231577
8.384689,-0.36283875,4.9327393,-0.05639349,0.0022143475,-0.033655323,47.0,8.430966,-0.37523648,4.9948373,0.067659475,-0.021591486,0.051311567,0.34500194,-0.35536888,0.63226056,2016-12-07 19:14:40,59.30073905412315
8.374878,-0.32362366,4.952362,0.03014835,-5.7217147E-4,0.017881636,46.0,8.43662,-0.36070806,4.9863553,0.060106102,0.020661654,0.042169124,0.350425,-0.35062712,0.639673,2016-12-07 19:14:41,64.75181101443317
8.345459,-0.38246155,4.922943,-0.02088329,3.6842993E-4,-0.009869719,46.0,8.4302025,-0.36279258,4.9970455,0.094550185,0.0049567977,0.08010018,0.3399366,-0.36009178,0.6230854,2016-12-07 19:14:42,47.7074822555693
8.384689,-0.39227295,4.883713,0.028656173,-0.0045995167,0.016205704,44.0,8.438994,-0.3683575,4.9817743,0.048860006,0.013012211,0.023967788,0.34438613,-0.35724646,0.62917984,2016-12-07 19:14:43,56.49648649268896
8.374878,-0.37265015,4.952362,-0.027106015,0.003963786,-0.015544815,44.0,8.444674,-0.37539193,4.9716144,0.06966379,0.006415946,0.024907595,0.34116784,-0.36064756,0.62398165,2016-12-07 19:14:44,62.59009847414278
8.35527,-0.3530426,4.9327393,0.04543294,-0.0019990867,0.025063513,44.0,8.450137,-0.36513677,4.963088,0.08724371,-0.024628092,0.059762765,0.34623381,-0.3564777,0.63085324,2016-12-07 19:14:45,56.4946064956722
8.394485,-0.3530426,4.883713,-0.02556571,1.6841461E-4,-0.0140116615,44.0,8.449305,-0.35577813,4.965187,0.032759827,-0.016114775,0.101246886,0.34691492,-0.3557083,0.6315494,2016-12-07 19:14:46,60.919598676425586
8.42392,-0.36283875,4.8346863,-0.005322299,-3.1858933E-4,-0.0033588668,42.0,8.475341,-0.36524,4.9199176,0.044345934,-0.024731329,0.08469447,0.3474037,-0.35843766,0.62929034,2016-12-07 19:14:47,58.71863970485614
8.433716,-0.36283875,4.8739014,-0.005574609,0.003254289,-0.0031443841,42.0,8.469695,-0.36743438,4.9294686,0.067420885,0.027651418,0.050846025,0.35175234,-0.3535509,0.6373779,2016-12-07 19:14:48,57.90518707548923
8.433716,-0.4216919,4.893524,0.009889611,-0.0014492063,0.0073998165,42.0,8.462523,-0.36674452,4.941821,0.04514816,0.0418659,0.03849594,0.3514452,-0.35293186,0.63797206,2016-12-07 19:14:49,57.26932165509842
8.384689,-0.38246155,4.883713,-0.018491698,0.0017626869,-0.011884184,42.0,8.458213,-0.37631273,4.948474,0.027218249,-0.008563324,0.072389685,0.34967983,-0.35412478,0.6362289,2016-12-07 19:14:50,57.338194735055986
8.42392,-0.32362366,4.8739014,-0.047844384,0.0028949762,-0.029997563,43.0,8.472625,-0.35477492,4.9253607,0.04162918,-0.041506927,0.035655733,0.34844753,-0.3569867,0.6307167,2016-12-07 19:14:51,55.30822836643816
8.257202,-0.37265015,4.893524,0.007353836,0.0010291246,0.007089572,43.0,8.472758,-0.38376334,4.922955,0.84536356,0.052087784,-0.04847178,0.34258044,-0.36271372,0.6230758,2016-12-07 19:14:52,53.77603789159494
8.43045,-0.36938477,4.9392853,0.0040076305,-0.005481734,0.0026146977,43.0,8.468744,-0.3801729,4.9301353,-0.003111631,-0.026043855,0.04043042,0.3449958,-0.36019236,0.627008,2016-12-07 19:14:53,66.5096959238514
8.39122,-0.3432312,4.965439,0.0019639889,-0.0015290419,-8.7835186E-4,44.0,8.434311,-0.33864194,4.9918056,0.07141704,0.02910745,0.033999328,0.34543595,-0.35521778,0.6299879,2016-12-07 19:14:54,60.80774408315284
8.365067,-0.35630798,4.8608246,-0.080854185,0.0011633281,-0.04747693,42.0,8.459023,-0.36139166,4.948203,0.08250935,-0.020882966,0.085739024,0.3441825,-0.35959318,0.625884,2016-12-07 19:14:55,69.79089592624103
8.394485,-0.3530426,4.9425507,0.02024337,0.007651892,0.012513217,42.0,8.4783125,-0.36970362,4.9144626,0.079787605,-0.028640898,-0.02509589,0.3461682,-0.36032394,0.6267346,2016-12-07 19:14:56,60.6126139649361
8.39122,-0.35630798,4.9131317,-0.006930732,-0.0014494658,-0.003736035,42.0,8.476548,-0.3477753,4.919102,0.086414054,0.0063537275,0.015776793,0.3460564,-0.3598548,0.6256913,2016-12-07 19:14:57,53.77659783577953
8.652725,-0.25170898,4.886978,0.026586141,-0.0052938233,0.012273748,43.0,8.471411,-0.33932433,4.928533,-0.31371275,0.06928611,-0.21995814,0.34601733,-0.3596491,0.6249666,2016-12-07 19:14:58,56.06241820664955
8.39122,-0.3432312,4.8739014,-0.020281162,-0.0016900678,-0.010205384,43.0,8.465825,-0.35316464,4.9371533,0.07569086,-0.012655938,0.07468953,0.34574673,-0.35888535,0.62706673,2016-12-07 19:14:59,61.33763386846685
8.42392,-0.38246155,4.893524,0.0016224717,-2.2385294E-4,0.0018940767,44.0,8.4795265,-0.36631516,4.9126196,0.03490048,0.0023795497,0.09110436,0.33604822,-0.36958605,0.60988146,2016-12-07 19:15:00,55.93923411444934
8.365067,-0.35630798,4.86084,0.048269246,-2.6277403E-4,0.026877448,44.0,8.485581,-0.3593232,4.902672,0.10906752,-0.018814538,0.01296693,0.34433097,-0.3625135,0.62242866,2016-12-07 19:15:01,65.70280190571351
8.325851,-0.4020691,5.0013885,-0.061712753,0.007808911,-0.034935456,46.0,8.451414,-0.35312074,4.9617834,0.10214097,0.014628634,-0.023263661,0.34404728,-0.3588632,0.62604254,2016-12-07 19:15:02,65.35475404368162
8.374878,-0.39227295,4.9425507,0.0074638193,-2.5860875E-4,0.003713284,46.0,8.409441,-0.35642254,5.0323606,0.032927755,0.02494716,0.10179472,0.3362399,-0.36107394,0.6191728,2016-12-07 19:15:03,53.10358458866119
8.384689,-0.36283875,4.893524,0.011636035,-0.0030832556,0.00635704,45.0,8.451117,-0.3751573,4.960674,0.060982313,-0.021028265,0.08458973,0.34541512,-0.35753286,0.62992793,2016-12-07 19:15:04,64.12139126903872
8.404297,-0.3432312,4.922943,-0.007996732,0.001544947,-0.0046310164,44.0,8.4598875,-0.361005,4.946752,0.05613322,0.006744344,0.029806564,0.33555925,-0.3676392,0.61150414,2016-12-07 19:15:05,61.65883504811597
8.306229,-0.38246155,5.070038,0.07665143,0.0031613878,0.044836756,47.0,8.434359,-0.36297193,4.990014,0.09870595,-0.008842881,0.0049671372,0.33970597,-0.36059076,0.62227106,2016-12-07 19:15:06,61.954185806946484
8.414108,-0.3530426,4.9425507,-0.06966078,-0.0035448615,-0.042807702,44.0,8.424249,-0.3580467,5.007419,0.02414569,-0.015847454,0.08444424,0.33008096,-0.36864087,0.606582,2016-12-07 19:15:07,61.84305693111569
8.306229,-0.38246155,4.981781,-0.048648633,0.0041572526,-0.027103676,45.0,8.449507,-0.35239413,4.965082,0.14272767,0.01679612,0.031839143,0.3480918,-0.354787,0.63283074,2016-12-07 19:15:08,55.913592635458826
8.414108,-0.36283875,4.9131317,0.0036827684,-0.0011501518,0.004142621,45.0,8.443074,-0.3641049,4.975168,0.10720537,0.005488063,0.0042467983,0.34225842,-0.35942572,0.6251416,2016-12-07 19:15:09,56.38653691976573
8.325851,-0.31707764,5.004669,0.012285301,0.0015796011,0.0072658374,46.0,8.427869,-0.3522712,5.001732,0.10583619,-0.011762529,-0.0105556855,0.34260976,-0.35712883,0.6272251,2016-12-07 19:15:10,60.78912554826107
8.39122,-0.36938477,4.9785156,0.012421261,-0.0012380364,0.007481252,45.0,8.425485,-0.35615894,5.005473,0.089831606,-0.0020299018,0.034046296,0.32219434,-0.37550193,0.59324396,2016-12-07 19:15:11,58.251651137360916
8.345459,-0.36283875,4.9915924,0.004350098,9.3540706E-4,0.0030760234,45.0,8.420754,-0.3726636,5.0122256,0.08510223,-0.01853454,0.027178345,0.33613688,-0.36252436,0.6186335,2016-12-07 19:15:12,59.33571814351634
8.394485,-0.38246155,4.9719696,-0.019978162,-0.0014830389,-0.011802522,45.0,8.431322,-0.36595044,4.9949265,0.04118775,0.015419273,0.07798073,0.343317,-0.3573569,0.6283477,2016-12-07 19:15:13,61.813882532387126
8.394485,-0.3530426,4.9425507,0.04100827,-0.0018723062,0.02613358,45.0,8.441421,-0.35940954,4.9783154,0.06490697,-0.018900866,0.03412943,0.3471474,-0.35449502,0.6333743,2016-12-07 19:15:14,57.91792375908101
8.31604,-0.31381226,5.0602264,0.038549714,0.0112875,0.025374675,44.0,8.418156,-0.37486777,5.016424,0.6136971,0.36063102,-0.33637246,0.35160017,-0.3466956,0.64592737,2016-12-07 19:15:15,50.73738896387021
8.365067,-0.29092407,4.900055,-0.08931459,-0.007631678,-0.062833376,45.0,8.399573,-0.38833234,5.046458,0.023059985,-0.17040679,0.1295126,0.34386623,-0.35316968,0.6347694,2016-12-07 19:15:16,64.70867026477228
8.39122,-0.31707764,5.0308075,0.050511837,-3.0493215E-4,0.03154172,46.0,8.419792,-0.3367901,5.0163803,0.07051922,-0.009901775,-0.0503888,0.3487594,-0.35008636,0.6377532,2016-12-07 19:15:17,53.161858482069405
8.453339,-0.3530426,4.981781,0.013770872,-0.005361426,0.00968143,44.0,8.424688,-0.3461447,5.0075135,-0.047167435,-0.0056360383,0.06332747,0.3474117,-0.35231385,0.6350954,2016-12-07 19:15:18,55.1834587871962
8.312775,-0.3432312,4.965439,-0.016992632,0.0035920823,-0.009698536,45.0,8.433611,-0.3506823,4.9921565,0.08433825,0.0034467306,0.07521077,0.36036804,-0.3397366,0.65636784,2016-12-07 19:15:19,56.32670384172193
8.35199,-0.36938477,4.900055,0.030614955,-0.0021655979,0.019178817,46.0,8.434433,-0.3577861,4.990263,0.08589448,0.008992415,0.085626796,0.35587263,-0.34500948,0.648734,2016-12-07 19:15:20,50.647881396666136
8.384689,-0.36283875,4.952362,0.032661494,-7.343223E-4,0.021182813,46.0,8.433478,-0.36346102,4.991466,0.057327,-0.007646248,0.04679085,0.36353964,-0.3366607,0.6621787,2016-12-07 19:15:21,56.59569301096366
8.325851,-0.4118805,5.0112,0.01519376,0.005097571,0.0092322035,47.0,8.419311,-0.37114593,5.0147643,0.080261454,0.010077989,0.008163147,0.36251983,-0.33535904,0.66372764,2016-12-07 19:15:22,61.072971188011984
8.345459,-0.3334198,5.0308075,-0.02940021,1.721925E-4,-0.018688025,49.0,8.4032545,-0.36953834,5.0417404,0.08122246,-0.015409296,-0.025028968,0.35822976,-0.3385766,0.6579588,2016-12-07 19:15:23,48.82377412145374
8.495834,-0.35630798,4.5862427,0.029159099,-0.003147199,0.020417852,46.0,8.41881,-0.37155944,5.015573,-0.054611906,0.026215028,0.36024633,0.3533043,-0.34550607,0.64766496,2016-12-07 19:15:24,56.71565767782813
8.417374,-0.38246155,4.795456,0.05387728,-0.0011703835,0.030059883,44.0,8.4952,-0.35462135,4.8863287,0.1329264,-0.014728316,0.17256625,0.33977264,-0.36803478,0.6131313,2016-12-07 19:15:25,45.91484662608741
8.42392,-0.4020691,4.8444824,0.008777814,0.0017056222,0.0029186306,46.0,8.48289,-0.3481444,4.908132,0.07913585,0.033225317,0.04566815,0.3466412,-0.35993284,0.6258754,2016-12-07 19:15:26,53.43549737089158
8.482758,-0.36938477,4.7039185,-0.050998364,-0.008498887,-0.029434454,41.0,8.562212,-0.36646715,4.767034,0.06311465,-0.03957881,0.054394104,0.3461288,-0.3707369,0.6144922,2016-12-07 19:15:27,55.92498658819039
8.443527,-0.33015442,4.8216095,-0.006421395,0.0069044344,-0.0037685812,42.0,8.552513,-0.35524234,4.785259,0.12535974,-0.028596189,-0.029612035,0.34621873,-0.36922878,0.6155233,2016-12-07 19:15:28,53.302476721487714
8.394485,-0.3432312,4.9425507,0.02711886,0.008022037,0.016505318,46.0,8.490518,-0.3580582,4.894211,0.10038356,0.023311513,-0.06359556,0.3499143,-0.35748327,0.6312622,2016-12-07 19:15:29,47.75443581467252
8.417374,-0.38246155,4.900055,0.00204931,4.8538926E-4,0.0017966966,45.0,8.445668,-0.3477948,4.9719324,0.06915502,-0.007286131,0.0413669,0.3443672,-0.35760635,0.62748295,2016-12-07 19:15:30,49.041255164327275
8.384689,-0.39227295,4.9327393,0.004895468,5.745903E-4,0.0027840955,45.0,8.455723,-0.37313533,4.9529705,0.06558865,0.021854755,0.022404907,0.33180785,-0.37060586,0.6065825,2016-12-07 19:15:31,63.840761940886836
8.374878,-0.36283875,4.952362,-0.03393889,0.0013953852,-0.022426976,46.0,8.457095,-0.3604168,4.951568,0.09420186,0.0073326062,-0.006238641,0.34230438,-0.36103073,0.62304527,2016-12-07 19:15:32,53.244470897915186
8.394485,-0.37265015,4.9425507,0.059617937,-2.9163144E-4,0.036007192,46.0,8.44111,-0.35498542,4.97916,0.07821641,0.012763984,0.048593983,0.34473374,-0.3567105,0.62913394,2016-12-07 19:15:33,62.659218538617914
8.394485,-0.3530426,4.952362,-0.04045917,-0.0030303572,-0.022817902,46.0,8.450255,-0.35696033,4.9634824,0.08736176,0.0107890535,0.08739792,0.34548068,-0.35734022,0.62894523,2016-12-07 19:15:34,57.31527969440191
8.384689,-0.36283875,4.9915924,0.073324196,0.0071535567,0.045245808,47.0,8.431743,-0.37549102,4.993508,0.082470275,-0.034982365,-0.10050202,0.3504678,-0.3497265,0.6417654,2016-12-07 19:15:35,51.923951624944316
8.299698,-0.3432312,4.952362,-0.040677633,-0.001648419,-0.024678601,46.0,8.418769,-0.35777685,5.016644,0.055875514,0.0099725155,0.086078204,0.3304138,-0.3676314,0.60799176,2016-12-07 19:15:36,51.94190060945996
8.338928,-0.3432312,4.965439,0.03178392,-0.0015949372,0.017634215,46.0,8.429134,-0.34013283,5.0004387,0.10710229,3.7586055E-4,0.04263217,0.33906507,-0.36067435,0.6201338,2016-12-07 19:15:37,51.21222448318672
8.365067,-0.3530426,4.9033203,0.024271205,-0.002429586,0.014953743,46.0,8.435125,-0.355164,4.9892783,0.07223257,-0.014655289,0.05871281,0.3382205,-0.36230403,0.6188858,2016-12-07 19:15:38,52.229603519801614
8.404297,-0.36283875,4.981781,0.0015946673,1.9872207E-4,-9.4916165E-4,46.0,8.45085,-0.36587456,4.9618206,0.115196854,-0.025365861,0.0040144445,0.35017714,-0.35266832,0.63739365,2016-12-07 19:15:39,47.26413648093644
8.35527,-0.37265015,4.952362,-0.008786656,-1.6835911E-4,-0.004505625,46.0,8.431223,-0.3542941,4.995935,0.06832952,0.02707565,0.051748842,0.3350749,-0.3647103,0.6141149,2016-12-07 19:15:40,57.452268249920465
8.433716,-0.43148804,4.9915924,-0.0387139,0.0051676785,-0.02478183,46.0,8.423249,-0.3728464,5.0080175,0.033115633,-0.018717352,0.009350272,0.33995554,-0.35918742,0.6247081,2016-12-07 19:15:41,50.53821776487975
