ACC_X,ACC_Y,ACC_Z,GYRO_X,GYRO_Y,GYRO_Z,LIGH_1,GRAV_X,GRAV_Y,GRAV_Z,LINACC_X,LINACC_Y,LINACC_Z,ROTVEC_X,ROTVEC_Y,ROTVEC_Z,TIME,VOICE
6.441,-2.748,-3.089,0.16862066,0.2737031,1.8426085,0.0,0.0,0.0,0.0,0.0,0.0,0.0,0.0,0.0,0.0,2017-07-16 05:16:59,47.36629462182072
5.153,-6.461,-4.239,0.11974511,-0.11730133,0.085532226,0.0,0.0,0.0,0.0,0.0,0.0,0.0,0.0,0.0,0.0,2017-07-16 05:17:00,56.64095777878472
4.453,-6.423,-5.185,-0.10752622,0.0024437779,0.07453522,0.0,0.0,0.0,0.0,0.0,0.0,0.0,0.0,0.0,0.0,2017-07-16 05:17:02,57.10905052105807
4.396,-6.491,-5.353,0.015884556,-0.007331333,0.050097443,0.0,0.0,0.0,0.0,0.0,0.0,0.0,0.0,0.0,0.0,2017-07-16 05:17:03,58.261719950295316
4.459,-6.632,-4.434,0.13685155,-0.032991,0.2504872,0.0,5.203556,-6.8125267,-4.762656,-0.5745559,0.10652685,0.278656,-0.6833606,0.5252106,-0.48965383,2017-07-16 05:17:04,58.99919637505282
4.938,-6.957,-4.046,0.120967,0.007331333,0.03176911,0.0,5.0641427,-7.490691,-3.7966294,-0.17514277,0.5246911,-0.3173704,-0.64654845,0.5249279,-0.5297463,2017-07-16 05:17:05,59.91459124671198
5.307,-7.089,-3.367,-0.13074212,0.03543478,-0.012218889,0.0,5.1830697,-7.7576594,-3.020751,0.0069303513,0.6226592,-0.16524911,-0.6216246,0.51729906,-0.5640233,2017-07-16 05:17:06,61.780752778051784
5.125,-7.263,-3.108,0.039100446,0.010997,0.029325332,0.0,5.056609,-7.924791,-2.7926362,0.12639093,0.626791,-0.2593639,-0.6099645,0.5199309,-0.5718336,2017-07-16 05:17:07,61.76253822571475
5.24,-7.236,-2.884,-0.013440778,0.0,0.0012218889,0.0,5.0513835,-7.96148,-2.6960678,0.18861628,0.7254801,-0.18793225,-0.60685897,0.51882887,-0.5755647,2017-07-16 05:17:08,62.156559605806414
5.309,-7.224,-2.854,0.008553222,0.0048875557,0.021994,0.0,5.0687914,-7.9460735,-2.7088099,0.20420837,0.73507357,-0.19519019,-0.6030602,0.52386,-0.57683986,2017-07-16 05:17:09,64.12086781802601
5.292,-7.158,-3.022,0.012218889,-0.010997,0.015884556,0.0,5.1048236,-7.893393,-2.7938337,0.20617628,0.709393,-0.10416627,-0.60119367,0.5301057,-0.57563823,2017-07-16 05:17:10,62.65245407014811
5.429,-7.179,-2.506,0.101416774,0.034212887,0.007331333,0.0,5.3193064,-7.813355,-2.6128263,0.14069366,0.6523552,0.04782629,-0.59549344,0.5278301,-0.58712107,2017-07-16 05:17:11,64.82513834547446
5.604,-7.126,-2.511,0.07331333,0.02077211,-0.0061094444,0.0,5.4601927,-7.7397585,-2.5402448,0.02980709,0.56675863,0.044244766,-0.59070075,0.5297066,-0.593278,2017-07-16 05:17:12,60.032043864220924
5.642,-7.123,-2.463,0.036656667,-0.008553222,0.018328333,0.0,5.6148367,-7.623621,-2.5542939,0.017163277,0.53862095,-0.031706095,-0.5896554,0.5315442,-0.5956754,2017-07-16 05:17:13,60.71174404766302
5.598,-7.172,-2.378,0.039100446,0.018328333,0.026881555,0.0,5.7504854,-7.542508,-2.4925652,-0.062485218,0.42350817,0.07256508,-0.58559215,0.5330734,-0.6007009,2017-07-16 05:17:14,60.98304048854129
5.943,-6.959,-2.146,0.034212887,0.015884556,0.023215888,0.0,6.0827956,-7.344826,-2.2855003,-0.13879585,0.439826,0.10950017,-0.58353627,0.5253699,-0.6126522,2017-07-16 05:17:15,59.0294195757916
5.978,-6.924,-2.01,0.09775111,-0.0048875557,0.012218889,0.0,6.1649413,-7.2912006,-2.2365794,-0.13094139,0.31120062,0.078579426,-0.5815103,0.5252424,-0.61566746,2017-07-16 05:17:16,60.3500203484798
6.117,-6.888,-1.915,0.018328333,0.014662666,0.0012218889,0.0,6.275991,-7.2304673,-2.1219559,-0.20499086,0.40946722,0.10095596,-0.58087194,0.5203628,-0.62102926,2017-07-16 05:17:17,63.370943489229205
6.109,-6.837,-2.034,0.019550223,-0.019550223,0.02077211,0.0,6.346539,-7.1784697,-2.0883987,-0.20653915,0.38146973,0.09739864,-0.5800143,0.519675,-0.62307894,2017-07-16 05:17:18,63.0423565665546
6.119,-6.873,-1.891,-0.034212887,0.009775111,0.036656667,0.0,6.3777823,-7.171239,-2.0168328,-0.23378229,0.3002391,0.13883281,-0.5783916,0.5179701,-0.62615585,2017-07-16 05:17:19,59.51338829330445
6.099,-6.853,-1.91,-0.008553222,0.010997,0.032991,0.0,6.401571,-7.1483517,-2.022708,-0.2765708,0.25535154,0.108707905,-0.5778239,0.51889205,-0.62625575,2017-07-16 05:17:20,58.044982397605494
6.107,-6.857,-2.012,-0.0061094444,0.0061094444,0.03543478,0.0,6.4200974,-7.131529,-2.0233736,-0.3140974,0.24952888,0.08537364,-0.5786169,0.51804036,-0.62630445,2017-07-16 05:17:22,61.76730562863224
6.152,-6.813,-2.028,0.0024437779,-0.012218889,0.028103445,0.0,6.4518538,-7.104512,-2.017393,-0.29085398,0.26351213,0.10939312,-0.5783566,0.5180367,-0.6268474,2017-07-16 05:17:23,57.70313457057413
6.067,-6.874,-1.885,0.0048875557,0.013440778,0.048875555,0.0,6.4316406,-7.1314487,-1.9866652,-0.37164068,0.21544886,0.10566521,-0.5767959,0.51826465,-0.62795925,2017-07-16 05:17:24,61.743769175465985
6.206,-6.739,-1.928,-0.10263867,0.010997,0.037878554,0.0,6.4966354,-7.088441,-1.9282386,-0.21363544,0.34544086,0.04023862,-0.5796891,0.5121263,-0.6302749,2017-07-16 05:17:25,60.915777201501946
6.145,-6.789,-1.846,0.068425775,-0.010997,0.026881555,0.0,6.5150733,-7.065829,-1.9489152,-0.20707321,0.32182884,0.05491519,-0.5782825,0.51473916,-0.6298814,2017-07-16 05:17:26,59.57730751941749
6.274,-6.746,-1.784,0.058650665,0.0061094444,0.010997,0.0,6.532341,-7.0576115,-1.9206843,-0.27534103,0.28561163,0.1776843,-0.57964134,0.5118042,-0.6308791,2017-07-16 05:17:27,62.15105329616408
8.698,-1.67,-2.217,-0.7453522,0.25659665,-0.03543478,0.0,9.240711,-2.3155508,-2.3276353,-0.54271126,0.64555085,0.11063528,0.6896186,-0.378289,0.5973581,2017-07-16 05:17:28,61.570789292282
9.169,-0.395,-2.435,0.068425775,0.087976,-0.12707645,0.0,9.559142,-0.89892995,-1.9962717,-0.84014225,0.94793,-0.3007282,0.56551176,-0.531016,0.49844894,2017-07-16 05:17:29,60.52343885705661
10.138,0.612,1.134,0.058650665,0.10752622,-0.34579456,0.0,9.71556,-0.08613176,1.3307441,-0.099559784,0.11313176,-0.012744188,0.48160654,-0.44744393,0.5565914,2017-07-16 05:17:30,66.45494821041831
8.247,1.601,4.868,0.153958,0.18450522,-0.026881555,0.0,8.238083,1.1014102,5.2049265,-0.61508274,0.02358985,0.39807367,0.3857013,-0.2930138,0.6203569,2017-07-16 05:17:31,65.64719547033953
8.996,0.717,3.084,-0.009775111,-0.1331859,0.030547222,0.0,9.401034,0.856967,2.6564167,-0.44403458,-0.18796694,0.25358343,0.4781217,-0.36872765,0.58443564,2017-07-16 05:17:32,54.29566069059497
9.12,-0.032,-1.578,0.197946,-0.22360566,0.07820089,0.0,9.661928,0.2097574,-1.6653935,-0.5419283,-0.24175741,0.08739352,0.6053361,-0.46741802,0.50127685,2017-07-16 05:17:33,57.861385554044375
9.627,-0.389,-2.11,0.175952,-0.034212887,0.014662666,0.0,9.483992,-0.5294963,-2.4380176,-0.29299164,-0.09250367,0.08201766,0.61356634,-0.49783596,0.49675995,2017-07-16 05:17:34,54.107022391282854
9.236,-0.768,-2.741,0.08919789,-0.051319335,-0.03543478,0.0,9.394844,-0.6879422,-2.7265491,-0.055844307,-0.028057814,0.24054909,0.6188339,-0.50602365,0.49165124,2017-07-16 05:17:35,54.43078259160429
9.001,-0.789,-2.561,0.039100446,-0.012218889,0.010997,0.0,9.383433,-0.741624,-2.7516508,-0.23943329,-0.09337598,0.24565077,0.6226867,-0.50254995,0.49494293,2017-07-16 05:17:36,52.97457670249823
10.415,-2.333,-3.631,0.23460266,0.14540477,0.395892,0.0,9.377474,-0.6753451,-2.7887785,-2.980474,-1.7006547,0.9297786,0.6386343,-0.4840809,0.5014278,2017-07-16 05:17:37,54.73280070649275
9.504,-1.055,-2.321,-0.21871811,-0.22604944,-0.43988,0.0,9.402001,-1.3543874,-2.436883,0.10199833,0.29938745,0.11588287,0.61509824,-0.49588367,0.52719855,2017-07-16 05:17:38,52.3256837755435
9.312,0.042,-3.529,0.14418289,0.085532226,0.31035978,0.0,9.403851,-1.4187089,-2.3927488,-0.14085102,1.0437089,-0.93525124,0.6175873,-0.49049172,0.53310525,2017-07-16 05:17:39,53.145035276997916
8.58,-2.001,-2.131,0.14784856,0.14784856,0.18083955,0.0,9.384789,-0.798813,-2.7309442,-0.80478954,-1.202187,0.5999441,0.6322262,-0.4894174,0.504424,2017-07-16 05:17:40,53.99055902415833
9.164,-1.356,-2.205,-0.20161167,-0.08431033,-0.263928,0.0,9.326292,-1.1897564,-2.788402,0.057707787,0.35375637,0.3014021,0.6291163,-0.49636844,0.5127315,2017-07-16 05:17:41,56.71246346868997
9.497,-0.278,-2.875,0.037878554,-0.091641665,0.13440777,0.0,9.3476095,-1.2537895,-2.6871192,0.042390823,0.94778955,-0.33088064,0.6256719,-0.49551952,0.51784325,2017-07-16 05:17:42,54.62922128353067
8.933,-1.003,-2.875,0.14051722,0.04520989,0.23338078,0.0,9.369286,-0.86144257,-2.7649302,-0.65928555,-0.6835574,0.10193014,0.6308199,-0.4929893,0.5039154,2017-07-16 05:17:43,53.376634147734975
8.617,-1.73,-2.469,-0.03176911,0.062316332,-0.114857554,0.0,9.338095,-0.8870643,-2.8606777,-0.51109505,-0.6599358,0.49067783,0.6323429,-0.4959803,0.5008826,2017-07-16 05:17:45,52.74730913793477
9.193,-1.103,-2.506,-0.07820089,-0.0024437779,-0.118523225,0.0,9.303024,-1.189172,-2.865312,-0.023024559,0.574172,0.2763121,0.62836546,-0.50124556,0.508348,2017-07-16 05:17:46,57.024084637757255
9.625,-0.544,-2.711,0.034212887,-0.028103445,0.164955,0.0,9.322615,-1.1280832,-2.8260725,-0.10561466,0.4810832,0.19607234,0.62739104,-0.50046986,0.5076892,2017-07-16 05:17:47,52.549343108295304
8.941,-1.163,-2.661,0.068425775,-0.024437778,0.14051722,0.0,9.35713,-0.88034946,-2.799916,-0.4971304,-0.5676505,0.2889161,0.6289914,-0.49711746,0.5015792,2017-07-16 05:17:48,53.246157918316975
8.746,-1.482,-2.548,-0.052541222,0.0,-0.091641665,0.0,9.356849,-0.97135943,-2.7706013,-0.56284904,-0.39264053,0.12760139,0.62666583,-0.4985492,0.5047118,2017-07-16 05:17:49,53.89624766412008
8.999,-1.037,-2.746,0.024437778,0.03543478,0.021994,0.0,9.334515,-1.1909047,-2.760253,-0.33551502,0.1539048,0.014252901,0.623173,-0.5023835,0.5104924,2017-07-16 05:17:50,51.93448004787159
9.246,-0.734,-2.687,0.072091445,0.026881555,0.123410776,0.0,9.331347,-1.138949,-2.7926946,-0.10134792,0.30394906,0.18869448,0.6243134,-0.5026137,0.50781506,2017-07-16 05:17:51,52.419902244141085
9.045,-1.168,-2.432,0.034212887,-0.0048875557,0.08064467,0.0,9.353566,-0.97653645,-2.7798486,-0.4505663,-0.41146356,0.31684852,0.6257774,-0.5001354,0.5038455,2017-07-16 05:17:52,52.89041364312942
8.937,-1.337,-2.462,-0.058650665,-0.026881555,-0.06964767,0.0,9.363887,-1.0598853,-2.7137904,-0.41288662,-0.13111472,0.14979053,0.62401456,-0.49896958,0.50893193,2017-07-16 05:17:53,52.805164423926726
9.089,-0.927,-2.768,-0.009775111,-0.008553222,-0.02077211,0.0,9.362288,-1.1918484,-2.664107,-0.27328873,0.3858484,-0.14289284,0.62078834,-0.5004533,0.5138793,2017-07-16 05:17:54,52.78863739879228
9.164,-0.858,-2.756,0.07942278,0.042766113,0.10630433,0.0,9.359104,-1.1477683,-2.6944783,-0.27510452,0.13276827,0.06447816,0.6217115,-0.50085425,0.511436,2017-07-16 05:17:55,53.36861624185872
8.923,-1.237,-2.565,0.028103445,0.023215888,0.051319335,0.0,9.366336,-1.039747,-2.7131274,-0.4293356,-0.28125298,0.26512742,0.6239207,-0.4990531,0.50821507,2017-07-16 05:17:56,52.50086871075308
8.986,-1.283,-2.478,-0.040322334,-0.0061094444,-0.052541222,0.0,9.359245,-1.1255851,-2.7033305,-0.29724503,-0.005414963,0.15833044,0.62324643,-0.499395,0.51121,2017-07-16 05:17:57,52.045365374689396
9.117,-0.854,-2.674,-0.0061094444,-0.015884556,0.0,0.0,9.357575,-1.2067397,-2.673946,-0.24057579,0.3527397,-5.4121017E-5,0.6216899,-0.49983492,0.51445305,2017-07-16 05:17:58,52.45137989177363
9.049,-1.057,-2.685,0.057428777,0.009775111,0.08431033,0.0,9.364915,-1.1038355,-2.6926434,-0.43091488,-0.096164584,0.12064338,0.6234713,-0.49856806,0.5111563,2017-07-16 05:17:59,52.067645883053444
8.884,-1.299,-2.604,-0.0048875557,0.0061094444,-0.0036656666,0.0,9.372387,-1.0671843,-2.681389,-0.42638683,-0.19081569,0.13638902,0.62406117,-0.4972529,0.5108571,2017-07-16 05:18:00,52.034772290816065
9.126,-0.978,-2.523,-0.0036656666,0.0036656666,-0.042766113,0.0,9.36287,-1.1647657,-2.6740139,-0.23686981,0.18676573,0.15101385,0.6221738,-0.49923596,0.5133401,2017-07-16 05:18:01,52.04161624845582
9.096,-0.975,-2.665,0.040322334,0.0024437779,0.08308844,0.0,9.366186,-1.1236092,-2.6800115,-0.3151865,0.05160916,0.07601142,0.6235433,-0.49783158,0.5125142,2017-07-16 05:18:02,54.843774469767574
9.05,-1.171,-2.506,0.034212887,-0.007331333,0.037878554,0.0,9.370881,-1.0688766,-2.6859822,-0.37288094,-0.13912332,0.18698215,0.62388116,-0.49771404,0.5105658,2017-07-16 05:18:03,52.134577009136436
8.967,-1.216,-2.567,-0.007331333,-0.0036656666,-0.021994,0.0,9.3663645,-1.1291078,-2.6770732,-0.39436436,0.016107798,0.058073282,0.62327737,-0.49801412,0.51267993,2017-07-16 05:18:04,51.963352681307164
9.124,-1.007,-2.573,0.018328333,0.018328333,0.0024437779,0.0,9.359874,-1.1891538,-2.6737795,-0.24587345,0.21715379,0.011779547,0.622424,-0.49891198,0.5143327,2017-07-16 05:18:05,51.38156788651642
9.141,-1.024,-2.61,0.028103445,0.014662666,0.057428777,0.0,9.359098,-1.1378033,-2.698721,-0.32209873,0.09480333,0.10472083,0.6231631,-0.49926367,0.51180476,2017-07-16 05:18:07,52.23302415657511
9.005,-1.144,-2.578,0.0036656666,-0.0036656666,0.030547222,0.0,9.369866,-1.1042384,-2.6751955,-0.22786617,-0.0537616,0.1711955,0.6234878,-0.4976545,0.5120658,2017-07-16 05:18:08,52.9923753544248
9.03,-1.159,-2.531,0.0036656666,-0.018328333,-0.018328333,0.0,9.372468,-1.1189764,-2.6599157,-0.32946777,0.07897639,0.07391572,0.62282354,-0.49770352,0.5129169,2017-07-16 05:18:09,52.728999610599786
9.103,-1.067,-2.688,-0.0012218889,0.0048875557,0.0024437779,0.0,9.370824,-1.1549981,-2.6502883,-0.36582375,0.23499805,-0.007711649,0.62237215,-0.49777505,0.51433736,2017-07-16 05:18:10,52.80147975368895
8.952,-0.961,-2.601,0.043988,0.014662666,0.040322334,0.0,9.36955,-1.1252005,-2.6675613,-0.18454933,0.01720047,0.048561335,0.62269795,-0.49825197,0.51266026,2017-07-16 05:18:11,53.07906121865052
9.029,-1.057,-2.415,0.059872556,-0.014662666,0.014662666,0.0,9.366201,-1.0839087,-2.6962569,-0.33720112,0.026908636,0.2812569,0.6243518,-0.49765015,0.5108582,2017-07-16 05:18:12,53.30330700163594
9.108,-1.071,-2.668,-0.036656667,-0.012218889,0.02077211,0.0,9.366335,-1.0949,-2.691353,-0.4103346,0.055899978,0.0463531,0.62446827,-0.49725264,0.5115554,2017-07-16 05:18:13,53.2889730827688
9.066,-1.037,-2.631,0.025659667,-0.0061094444,0.030547222,0.0,9.367644,-1.1071982,-2.6817482,-0.22364426,0.04919827,0.0837481,0.62291723,-0.49870354,0.5114692,2017-07-16 05:18:14,53.48706863197548
9.108,-1.082,-2.614,0.040322334,0.0024437779,0.036656667,0.0,9.366175,-1.0951042,-2.6918304,-0.4041748,-0.0068957806,0.097830296,0.6231258,-0.49895832,0.51067936,2017-07-16 05:18:15,52.61265861993291
9.016,-1.127,-2.56,0.013440778,0.015884556,0.013440778,0.0,9.359307,-1.111333,-2.7090063,-0.34630775,-0.038666964,0.0940063,0.6232141,-0.49972495,0.51041776,2017-07-16 05:18:16,53.6993105859227
9.014,-1.092,-2.543,0.0024437779,0.0036656666,0.008553222,0.0,9.356907,-1.1340084,-2.7079034,-0.28490734,0.06800842,0.13690329,0.6234244,-0.4994063,0.51137704,2017-07-16 05:18:17,52.832759400683855
9.075,-1.076,-2.585,0.0048875557,-0.007331333,0.028103445,0.0,9.359872,-1.1465348,-2.692337,-0.3188715,0.09153485,0.11333704,0.62273896,-0.4994669,0.5121545,2017-07-16 05:18:18,52.884403784396746
9.019,-1.077,-2.615,0.024437778,-0.009775111,0.04154422,0.0,9.367152,-1.1200919,-2.6781034,-0.3451519,0.0010919571,0.06610346,0.62246335,-0.49908382,0.51180255,2017-07-16 05:18:19,54.895862448880436
9.01,-1.095,-2.589,0.013440778,-0.0048875557,0.023215888,0.0,9.362139,-1.138163,-2.6879964,-0.37313843,0.012162924,0.0679965,0.6224606,-0.4995923,0.51191366,2017-07-16 05:18:20,52.73704143555874
8.978,-1.098,-2.626,0.007331333,0.0012218889,0.014662666,0.0,9.365345,-1.146376,-2.6733067,-0.3643446,0.092375994,0.057306767,0.6224604,-0.4988424,0.5129359,2017-07-16 05:18:21,52.92197540527128
9.054,-1.052,-2.675,0.021994,0.017106444,0.019550223,0.0,9.365398,-1.1385739,-2.6764495,-0.28439808,0.046573877,0.062449455,0.6227665,-0.49862093,0.51270705,2017-07-16 05:18:22,53.267476870124504
9.077,-1.07,-2.553,0.02077211,0.0036656666,0.030547222,0.0,9.356602,-1.14542,-2.7041516,-0.2656021,0.05641997,0.13815165,0.6229704,-0.4997812,0.51166546,2017-07-16 05:18:23,53.31297576833095
9.049,-1.113,-2.525,0.013440778,-0.010997,0.023215888,0.0,9.361504,-1.1221819,-2.6969132,-0.329504,0.012181878,0.114913225,0.6233194,-0.4989762,0.5114661,2017-07-16 05:18:24,53.27976743673873
9.087,-1.085,-2.557,0.0036656666,-0.0012218889,0.013440778,0.0,9.358303,-1.1474878,-2.6973774,-0.26930332,0.06248772,0.061377525,0.6231983,-0.49915117,0.5122228,2017-07-16 05:18:25,53.258249071606144
9.014,-1.052,-2.588,0.019550223,-0.0036656666,0.028103445,0.0,9.358571,-1.1460409,-2.6970592,-0.3445711,0.09404087,0.109059095,0.62360525,-0.49862635,0.51244795,2017-07-16 05:18:26,53.099152947382095
9.063,-1.09,-2.584,0.0024437779,0.013440778,0.029325332,0.0,9.358306,-1.125547,-2.7065954,-0.37730598,0.018547058,0.08459544,0.62396824,-0.4986598,0.511502,2017-07-16 05:18:28,53.281998865545326
9.025,-1.121,-2.602,0.0036656666,0.0061094444,0.014662666,0.0,9.352237,-1.1511623,-2.7167845,-0.27423668,0.043162227,0.15578437,0.624166,-0.4989331,0.51197624,2017-07-16 05:18:29,52.7349167546096
9.069,-1.069,-2.613,0.012218889,-0.009775111,0.019550223,0.0,9.364478,-1.1417806,-2.6782987,-0.32347775,0.06878066,0.075298786,0.6232064,-0.49816567,0.51300156,2017-07-16 05:18:30,52.67569109168326
9.116,-1.095,-2.56,0.015884556,0.0024437779,0.034212887,0.0,9.3592825,-1.147213,-2.6940932,-0.32428265,0.07321298,0.060093164,0.6227821,-0.49950272,0.5121159,2017-07-16 05:18:31,52.827144693515066
8.98,-1.116,-2.607,0.014662666,0.0012218889,0.030547222,0.0,9.361244,-1.1258326,-2.6962986,-0.35424423,-0.021167397,0.1192987,0.6233701,-0.49888143,0.5116534,2017-07-16 05:18:32,52.70059966489206
9.066,-1.126,-2.586,0.0036656666,0.0024437779,0.007331333,0.0,9.362047,-1.1257757,-2.69353,-0.3870468,0.0047756433,0.11353016,0.62259835,-0.49970302,0.5113005,2017-07-16 05:18:33,52.657582947362485
9.028,-1.08,-2.616,0.010997,0.0012218889,0.021994,0.0,9.3598175,-1.1455561,-2.6929402,-0.33181763,0.06555605,0.0769403,0.6223281,-0.5000095,0.5118301,2017-07-16 05:18:34,52.72671768661376
9.068,-1.096,-2.592,0.014662666,0.008553222,0.030547222,0.0,9.366513,-1.1166317,-2.6817791,-0.34251308,0.039631724,0.09177923,0.62235993,-0.49940044,0.5114325,2017-07-16 05:18:35,52.878796050198744
9.022,-1.109,-2.626,0.010997,-0.0061094444,0.021994,0.0,9.366421,-1.1228327,-2.6795168,-0.37642097,8.326769E-4,0.09351683,0.6225653,-0.4990288,0.5118893,2017-07-16 05:18:36,52.531419069488685
9.039,-1.082,-2.615,-0.0036656666,0.0036656666,0.017106444,0.0,9.36855,-1.1284741,-2.6696887,-0.28254986,0.06847417,0.056688786,0.6224233,-0.4987038,0.5124883,2017-07-16 05:18:37,52.12713146836806
8.969,-1.078,-2.632,0.023215888,-0.0048875557,0.036656667,0.0,9.373835,-1.1111114,-2.6583927,-0.3398342,0.023111343,0.081392765,0.62285554,-0.49758545,0.51274735,2017-07-16 05:18:38,53.11884772047979
9.045,-1.118,-2.578,0.019550223,0.0061094444,0.028103445,0.0,9.36024,-1.1482853,-2.690309,-0.3152399,0.03028524,0.11230898,0.6224786,-0.49968788,0.51215124,2017-07-16 05:18:39,53.08561253001991
9.013,-1.088,-2.602,0.0036656666,0.0061094444,0.010997,0.0,9.367427,-1.1253712,-2.674926,-0.33742714,0.052371264,0.10892606,0.6220247,-0.49946824,0.5118631,2017-07-16 05:18:40,53.82492280398016
9.057,-1.101,-2.612,0.021994,0.0061094444,0.021994,0.0,9.35962,-1.1547225,-2.6897054,-0.26062012,0.0817225,0.1137054,0.62179327,-0.5005097,0.51196516,2017-07-16 05:18:41,51.754809577082625
9.025,-1.109,-2.61,0.015884556,0.0012218889,0.029325332,0.0,9.367872,-1.1152064,-2.6776278,-0.29387188,0.04420638,0.055627823,0.62238044,-0.4991629,0.51160747,2017-07-16 05:18:42,52.411025409569206
9.057,-1.102,-2.613,0.010997,0.0,0.03176911,0.0,9.360509,-1.1291878,-2.6974473,-0.34450912,0.0031877756,0.06944728,0.62189174,-0.5007816,0.51076853,2017-07-16 05:18:43,52.40193082735425
8.996,-1.119,-2.661,0.0024437779,0.0036656666,0.012218889,0.0,9.371598,-1.1054544,-2.6686137,-0.32859802,0.04245448,0.038613558,0.62233186,-0.49876297,0.5117009,2017-07-16 05:18:44,55.39870400772742
8.999,-1.127,-2.608,0.015884556,0.009775111,0.028103445,0.0,9.366597,-1.1167965,-2.6814222,-0.33159733,0.04379654,0.07442212,0.62254846,-0.49914718,0.51157665,2017-07-16 05:18:45,53.359943557279934
9.057,-1.054,-2.554,0.013440778,0.007331333,0.025659667,0.0,9.364923,-1.1285621,-2.682345,-0.2899227,0.07156205,0.11034489,0.6233031,-0.4982517,0.5124106,2017-07-16 05:18:46,52.06432633673626
9.001,-1.114,-2.604,0.008553222,-0.0048875557,0.028103445,0.0,9.364864,-1.1221747,-2.6852295,-0.33486462,-0.0028252602,0.12422943,0.62336594,-0.4983207,0.5120879,2017-07-16 05:18:47,51.97731599094805
9.05,-1.089,-2.656,0.0036656666,0.008553222,0.024437778,0.0,9.356468,-1.1734469,-2.6925685,-0.33046818,0.06044686,0.072568655,0.62369335,-0.49828646,0.5136545,2017-07-16 05:18:48,52.364687456535385
9.054,-1.09,-2.552,0.017106444,0.012218889,0.02077211,0.0,9.368702,-1.1283216,-2.6692197,-0.31470203,0.038321614,0.11721969,0.62297827,-0.49798635,0.51286095,2017-07-16 05:18:49,52.99509971493695
9.008,-1.092,-2.614,0.010997,0.0036656666,0.026881555,0.0,9.355137,-1.158954,-2.7034564,-0.3111372,0.06295407,0.124456406,0.6234803,-0.49910942,0.51248074,2017-07-16 05:18:51,52.81178025451787
9.075,-1.045,-2.512,0.007331333,-0.010997,0.021994,0.0,9.358926,-1.1715822,-2.6848264,-0.283926,0.12658226,0.17282629,0.622531,-0.49934277,0.5132494,2017-07-16 05:18:52,53.095847160602254
9.0,-1.141,-2.588,0.014662666,-0.0024437779,0.030547222,0.0,9.3660755,-1.1264608,-2.679202,-0.36407566,0.0044608116,0.09720206,0.62261194,-0.49895456,0.5120582,2017-07-16 05:18:53,52.2432270389414
9.101,-1.098,-2.632,-0.007331333,0.007331333,0.013440778,0.0,9.357578,-1.165126,-2.69233,-0.25657845,0.06712592,0.060329914,0.62212443,-0.50023174,0.5123947,2017-07-16 05:18:54,52.74445448842992
9.039,-1.057,-2.64,0.021994,0.0061094444,0.017106444,0.0,9.366876,-1.1085795,-2.6838627,-0.32387543,0.04357946,0.06486273,0.62304133,-0.4986566,0.5114883,2017-07-16 05:18:55,56.78135580220192
8.982,-1.096,-2.579,0.009775111,0.0024437779,0.034212887,0.0,9.366688,-1.1057837,-2.685674,-0.37068748,-0.04921627,0.03067398,0.6232936,-0.49843392,0.51146257,2017-07-16 05:18:56,53.48989216229732
9.095,-1.103,-2.645,0.010997,0.009775111,0.010997,0.0,9.366468,-1.131588,-2.6756668,-0.3034687,0.05158794,0.15866685,0.6222527,-0.499222,0.5121825,2017-07-16 05:18:57,52.95014684345433
9.035,-1.088,-2.554,0.015884556,0.0,0.025659667,0.0,9.371059,-1.113909,-2.6669946,-0.31405926,0.044909,0.070994616,0.6229648,-0.49788928,0.51247597,2017-07-16 05:18:58,52.40347062562506
9.126,-1.063,-2.563,0.008553222,0.0061094444,0.024437778,0.0,9.362629,-1.1481792,-2.682026,-0.30762863,0.047179222,0.11002588,0.62329125,-0.49825022,0.51308286,2017-07-16 05:18:59,52.196424392148344
9.031,-1.124,-2.558,0.008553222,-0.0012218889,0.019550223,0.0,9.3714285,-1.0995632,-2.6716383,-0.35142803,0.014563203,0.095638275,0.62351626,-0.49743655,0.5121056,2017-07-16 05:19:00,52.916666819981735
9.019,-1.119,-2.624,0.010997,-0.0061094444,0.025659667,0.0,9.356855,-1.154613,-2.6993563,-0.31385517,0.03961301,0.1423564,0.6231407,-0.49932408,0.5123269,2017-07-16 05:19:01,52.09655592689282
9.06,-1.067,-2.638,0.017106444,0.0024437779,0.024437778,0.0,9.362319,-1.1384865,-2.6872382,-0.3303194,0.047486544,0.09923816,0.6232873,-0.49852175,0.51248854,2017-07-16 05:19:02,52.34135120877647
8.993,-1.077,-2.624,0.018328333,-0.0036656666,0.03176911,0.0,9.354382,-1.1557273,-2.7074387,-0.2803812,0.09472728,0.12843871,0.6242425,-0.4983596,0.5126518,2017-07-16 05:19:03,52.63267828620654
9.03,-1.091,-2.58,0.02077211,0.0061094444,0.018328333,0.0,9.354367,-1.1467165,-2.7113256,-0.29536724,0.049716473,0.110325575,0.62487584,-0.49776432,0.5125519,2017-07-16 05:19:04,52.17239218347267
9.039,-1.108,-2.606,0.008553222,0.012218889,0.029325332,0.0,9.353857,-1.1477696,-2.7126303,-0.334857,0.05276954,0.1576302,0.624938,-0.49775308,0.51256037,2017-07-16 05:19:05,52.636338162620795
9.105,-1.115,-2.552,0.025659667,0.0,0.014662666,0.0,9.357744,-1.1330322,-2.7054114,-0.25274467,0.018032193,0.15341139,0.625194,-0.4970614,0.5125928,2017-07-16 05:19:06,52.3604317849578
9.0,-1.119,-2.572,0.009775111,-0.007331333,0.034212887,0.0,9.358501,-1.1266398,-2.7054663,-0.3785019,0.02263987,0.065466166,0.6251007,-0.4971816,0.5123154,2017-07-16 05:19:07,53.49147890012483
9.059,-1.095,-2.569,0.015884556,-0.0061094444,0.015884556,0.0,9.353371,-1.1687196,-2.7053623,-0.2793703,0.07771969,0.08336234,0.62377393,-0.49883983,0.5128985,2017-07-16 05:19:08,53.08079744728654
8.998,-1.074,-2.59,0.0061094444,0.0012218889,0.008553222,0.0,9.366356,-1.1054978,-2.686937,-0.32735634,0.028497815,0.074937105,0.6238309,-0.49782592,0.511732,2017-07-16 05:19:09,52.0983914441299
9.017,-1.115,-2.628,0.013440778,0.012218889,0.034212887,0.0,9.359363,-1.144862,-2.694811,-0.33936214,0.029862046,0.11281109,0.6234947,-0.4986497,0.51245195,2017-07-16 05:19:10,52.917024087988615
9.043,-1.098,-2.632,0.018328333,0.013440778,0.018328333,0.0,9.360321,-1.1477647,-2.6902442,-0.28032112,0.039764643,0.09924412,0.6230052,-0.49902785,0.51247096,2017-07-16 05:19:11,58.51009938828923
9.004,-1.102,-2.521,-0.0036656666,0.0048875557,0.025659667,0.0,9.369366,-1.106671,-2.67594,-0.34536552,-0.014329076,0.09394002,0.6230874,-0.4981938,0.5118545,2017-07-16 05:19:12,52.64316143313444
9.03,-1.088,-2.613,-0.0036656666,-0.0012218889,0.029325332,0.0,9.361715,-1.1660173,-2.6775177,-0.38571548,0.088017344,0.075517654,0.6217459,-0.49994746,0.5129341,2017-07-16 05:19:14,52.545654319922406
9.079,-1.071,-2.564,0.018328333,-0.0012218889,0.017106444,0.0,9.367212,-1.1373192,-2.6706278,-0.28821182,0.06631923,0.10662794,0.6219699,-0.49931714,0.51245207,2017-07-16 05:19:15,53.15576017531846
8.968,-1.107,-2.631,0.0048875557,0.018328333,0.015884556,0.0,9.367783,-1.097127,-2.6854024,-0.3297825,-0.021872997,0.13140249,0.62342393,-0.49825698,0.51126516,2017-07-16 05:19:16,52.65345877412944
9.048,-1.115,-2.578,0.014662666,-0.0061094444,0.026881555,0.0,9.362547,-1.1371475,-2.6870127,-0.3955469,0.02414751,0.105012655,0.62247,-0.49953038,0.5119351,2017-07-16 05:19:17,52.10783833482818
9.074,-1.041,-2.601,0.015884556,0.0,0.019550223,0.0,9.363595,-1.143729,-2.6805537,-0.27659512,0.06572902,0.059553623,0.6224548,-0.4992196,0.51247555,2017-07-16 05:19:18,52.3895327008697
9.054,-1.074,-2.622,0.007331333,-0.0024437779,0.024437778,0.0,9.374347,-1.0831529,-2.668108,-0.3493471,0.0221529,0.07210803,0.6231036,-0.49777257,0.5114611,2017-07-16 05:19:19,51.97653903515252
8.967,-1.14,-2.609,0.010997,0.0048875557,0.024437778,0.0,9.363293,-1.1363233,-2.6847558,-0.3962927,-0.003676653,0.075755835,0.62287134,-0.49891457,0.5122766,2017-07-16 05:19:20,53.16254365012469
9.051,-1.059,-2.62,0.009775111,0.009775111,0.023215888,0.0,9.350116,-1.2044351,-2.7009394,-0.3211155,0.10043514,0.08593941,0.62229395,-0.5004596,0.5133916,2017-07-16 05:19:21,51.616318200428275
9.105,-1.083,-2.625,0.014662666,0.008553222,0.019550223,0.0,9.360876,-1.1323402,-2.6948438,-0.25087643,0.0483402,0.10584378,0.6234163,-0.49874935,0.51197696,2017-07-16 05:19:22,52.47843962510628
9.061,-1.09,-2.579,0.013440778,-0.0036656666,0.024437778,0.0,9.3699665,-1.0703092,-2.688597,-0.34396648,-0.051690817,0.14259696,0.6238117,-0.49793497,0.51043725,2017-07-16 05:19:23,52.95253600765126
9.006,-1.136,-2.572,0.009775111,-0.0048875557,0.029325332,0.0,9.3597,-1.14804,-2.6922884,-0.31070042,0.05904007,0.13128829,0.6222106,-0.5001224,0.5118727,2017-07-16 05:19:24,52.447072860532444
9.066,-1.088,-2.592,0.009775111,-0.0061094444,0.018328333,0.0,9.363,-1.1710721,-2.6708088,-0.30700016,0.0710721,0.06280875,0.6216999,-0.49966243,0.5134152,2017-07-16 05:19:25,52.44291794232364
9.049,-1.078,-2.628,0.019550223,-0.0012218889,0.017106444,0.0,9.375447,-1.0930326,-2.6602066,-0.3104477,0.007032633,0.024206638,0.6217493,-0.49905974,0.51132905,2017-07-16 05:19:26,52.214210936886445
8.957,-1.13,-2.548,0.02077211,0.009775111,0.026881555,0.0,9.37272,-1.0861514,-2.6726074,-0.38272,-0.026848674,0.100607395,0.6218689,-0.4995439,0.51054186,2017-07-16 05:19:27,52.19384469172121
8.989,-1.098,-2.512,0.0061094444,0.0061094444,0.030547222,0.0,9.332952,-1.3597517,-2.6865354,-0.34595108,0.22575176,0.11253548,0.61614233,-0.50729066,0.5154983,2017-07-16 05:19:28,53.66347783736258
9.049,-1.113,-2.583,0.0061094444,-0.0061094444,0.024437778,0.0,9.32724,-1.3736835,-2.6992536,-0.2782402,0.31968343,0.13225365,0.6185964,-0.50493777,0.5168296,2017-07-16 05:19:29,52.44349738805329
9.081,-1.072,-2.634,0.015884556,-0.0048875557,0.023215888,0.0,9.34649,-1.2447556,-2.695207,-0.22949028,0.1777556,0.11720705,0.62209797,-0.5004113,0.51490927,2017-07-16 05:19:30,52.893603674029315
9.048,-1.131,-2.647,0.010997,0.013440778,0.017106444,0.0,9.368293,-1.0758364,-2.6922207,-0.28829288,-0.008163571,0.118220806,0.6252143,-0.4963589,0.5113415,2017-07-16 05:19:31,52.962281880586815
8.998,-1.144,-2.569,0.008553222,0.013440778,0.007331333,0.0,9.375169,-1.018652,-2.6905305,-0.234169,-0.090348005,0.08953047,0.62590164,-0.4954049,0.5099213,2017-07-16 05:19:32,52.23926295102396
8.981,-1.092,-2.591,0.017106444,0.008553222,0.029325332,0.0,9.371174,-1.0636252,-2.6870458,-0.34117413,-0.016374826,0.12904572,0.62402457,-0.49758872,0.5104247,2017-07-16 05:19:33,52.510381968221694
9.022,-1.115,-2.542,-0.0012218889,-0.010997,0.037878554,0.0,9.359284,-1.1480942,-2.6937087,-0.3432846,0.040094137,0.14870858,0.6220019,-0.50045437,0.51167023,2017-07-16 05:19:35,53.00816784903388
9.077,-1.083,-2.597,0.0048875557,-0.014662666,0.013440778,0.0,9.362765,-1.1359012,-2.6867797,-0.31376553,0.06490123,0.08577967,0.6223351,-0.4996866,0.51181877,2017-07-16 05:19:36,52.30530878994082
8.986,-1.091,-2.584,0.007331333,-0.012218889,0.030547222,0.0,9.364151,-1.133506,-2.6829526,-0.39215088,0.011505961,0.029952526,0.62281233,-0.4988961,0.5122349,2017-07-16 05:19:37,56.04010372044141
9.035,-1.074,-2.657,0.0061094444,0.02077211,0.02077211,0.0,9.36169,-1.143102,-2.6874664,-0.3546896,0.031102061,0.061466455,0.6235728,-0.49817625,0.5128143,2017-07-16 05:19:38,52.486967798227404
8.992,-1.124,-2.585,0.014662666,0.012218889,0.023215888,0.0,9.363303,-1.1119827,-2.6948915,-0.35730362,-0.025017262,0.13589144,0.6236044,-0.49851656,0.51140404,2017-07-16 05:19:39,54.18656292099836
9.098,-1.088,-2.614,0.013440778,0.009775111,0.012218889,0.0,9.354634,-1.1400033,-2.7132308,-0.2676344,0.0400033,0.20123076,0.6241063,-0.49882624,0.51174206,2017-07-16 05:19:40,52.79179437544309
9.044,-1.092,-2.565,0.0048875557,-0.0061094444,0.025659667,0.0,9.3617525,-1.1203865,-2.696797,-0.34775257,0.013386488,0.11479688,0.6243661,-0.49765986,0.5120774,2017-07-16 05:19:41,51.95957983310845
9.084,-1.07,-2.639,0.0061094444,-0.009775111,0.023215888,0.0,9.361516,-1.1429261,-2.688145,-0.32651615,0.09792614,0.04314494,0.6238703,-0.4978384,0.51296276,2017-07-16 05:19:42,52.77622244196405
9.002,-1.072,-2.604,0.025659667,-0.007331333,0.025659667,0.0,9.368959,-1.1234372,-2.6703715,-0.3439598,0.016437173,0.0073714256,0.6230983,-0.49789512,0.51271343,2017-07-16 05:19:43,53.53890438700323
8.999,-1.112,-2.628,0.010997,0.019550223,0.015884556,0.0,9.371999,-1.1149757,-2.663243,-0.29899883,9.7572803E-4,0.019243002,0.6231108,-0.4975144,0.51279587,2017-07-16 05:19:44,52.70206120897416
9.044,-1.097,-2.625,0.012218889,0.010997,0.018328333,0.0,9.360683,-1.1388323,-2.6927783,-0.30568314,0.036832333,0.10077834,0.6230032,-0.4991598,0.512039,2017-07-16 05:19:45,52.73827686203499
9.069,-1.095,-2.59,0.024437778,0.0012218889,0.018328333,0.0,9.363784,-1.1295295,-2.6859117,-0.2787838,0.049529433,0.15291166,0.62246495,-0.4994805,0.51172894,2017-07-16 05:19:46,52.93359272928413
9.069,-1.112,-2.59,0.009775111,0.0036656666,0.03176911,0.0,9.354728,-1.1437938,-2.7113075,-0.2857275,0.031793833,0.12130761,0.6230285,-0.5000737,0.51128495,2017-07-16 05:19:47,52.91214926202478
9.036,-1.132,-2.609,0.009775111,-0.010997,0.015884556,0.0,9.372521,-1.1165802,-2.6607306,-0.36452103,0.03458023,0.064730644,0.62179387,-0.49903095,0.5121352,2017-07-16 05:19:48,52.685815674825164
9.042,-1.107,-2.649,0.009775111,0.009775111,0.014662666,0.0,9.366824,-1.1430906,-2.669523,-0.31982422,0.05409062,0.057523012,0.62191325,-0.49933124,0.5126679,2017-07-16 05:19:49,52.77992387626817
9.038,-1.09,-2.601,0.014662666,0.010997,0.024437778,0.0,9.368443,-1.1255126,-2.671308,-0.33644295,0.013512611,0.10830808,0.6219979,-0.49931696,0.512034,2017-07-16 05:19:50,52.90650529798611
9.072,-1.083,-2.582,0.0024437779,0.0036656666,0.02077211,0.0,9.36269,-1.1348627,-2.6874723,-0.29469013,0.045862675,0.06347227,0.62271625,-0.49924687,0.5119908,2017-07-16 05:19:51,52.67643690311669
9.01,-1.115,-2.603,0.015884556,-0.007331333,0.024437778,0.0,9.364199,-1.1374413,-2.681128,-0.3691988,0.025441289,0.14212799,0.6224204,-0.49929187,0.51221144,2017-07-16 05:19:52,52.527725588242966
9.061,-1.072,-2.597,0.013440778,0.007331333,0.019550223,0.0,9.367914,-1.1381094,-2.667824,-0.32291412,0.030109406,0.053823948,0.62208587,-0.4990294,0.5126947,2017-07-16 05:19:53,52.615402784993805
9.028,-1.103,-2.586,0.017106444,0.0012218889,0.021994,0.0,9.36432,-1.1280735,-2.6846492,-0.33331966,0.009073496,0.101649284,0.62225986,-0.49967158,0.51161265,2017-07-16 05:19:55,52.817574892587544
9.083,-1.106,-2.548,0.014662666,0.0024437779,0.013440778,0.0,9.365107,-1.1333565,-2.6796815,-0.26410675,0.062356472,0.120681524,0.6228822,-0.49864167,0.5124401,2017-07-16 05:19:56,53.21968815515479
9.029,-1.109,-2.555,0.014662666,-0.0048875557,0.032991,0.0,9.366556,-1.1255298,-2.6779168,-0.37755585,5.297661E-4,0.059916735,0.62245417,-0.49908572,0.51199114,2017-07-16 05:19:57,53.02997624060717
9.026,-1.085,-2.621,0.0048875557,0.0061094444,0.024437778,0.0,9.36503,-1.1409451,-2.67672,-0.2980299,0.026945114,0.0367198,0.6226087,-0.49883175,0.5126732,2017-07-16 05:19:58,52.62906053797626
8.972,-1.127,-2.616,0.009775111,0.009775111,0.030547222,0.0,9.370231,-1.1289779,-2.6635673,-0.3952303,0.010977864,0.08156729,0.62185323,-0.49910188,0.51245165,2017-07-16 05:19:59,53.30569579182465
9.071,-1.101,-2.571,0.012218889,0.012218889,0.007331333,0.0,9.357117,-1.1742456,-2.6899667,-0.2861166,0.073245645,0.11896658,0.6221882,-0.50003195,0.5128627,2017-07-16 05:20:00,53.04383879874194
9.104,-1.085,-2.626,0.008553222,-0.0012218889,0.025659667,0.0,9.364261,-1.1280819,-2.6848538,-0.31026077,0.03908193,0.09385371,0.6228977,-0.49888667,0.5120089,2017-07-16 05:20:01,52.805378974411575
9.018,-1.084,-2.567,0.017106444,-0.008553222,0.030547222,0.0,9.353599,-1.1718447,-2.7032177,-0.31459904,0.0718447,0.06521773,0.6224539,-0.5003767,0.51227945,2017-07-16 05:20:02,52.6110716137022
9.022,-1.08,-2.609,0.0024437779,0.0061094444,0.015884556,0.0,9.353987,-1.1631255,-2.705635,-0.33198643,0.03912556,0.044635057,0.62334967,-0.4993838,0.5124284,2017-07-16 05:20:03,52.79935446111474
8.986,-1.126,-2.632,0.021994,0.0,0.021994,0.0,9.3658905,-1.1217104,-2.6818388,-0.37289047,0.0037103891,0.071838856,0.6240811,-0.49725097,0.51269984,2017-07-16 05:20:04,53.27398586895529
9.069,-1.071,-2.58,0.019550223,0.0024437779,0.023215888,0.0,9.345797,-1.1873025,-2.7233815,-0.31979656,0.06330252,0.17738152,0.6237889,-0.49974117,0.5126203,2017-07-16 05:20:05,53.09964080040238
9.101,-1.029,-2.591,0.019550223,0.0048875557,0.023215888,0.0,9.35368,-1.1561774,-2.7096748,-0.25067997,0.074177384,0.09967494,0.62473667,-0.49785447,0.5128658,2017-07-16 05:20:06,55.64443301894369
9.03,-1.094,-2.614,0.0048875557,0.0048875557,0.028103445,0.0,9.365991,-1.0975751,-2.691462,-0.39199066,-0.01442492,0.081462145,0.6251862,-0.4963553,0.5120994,2017-07-16 05:20:07,52.44688932755487
9.018,-1.114,-2.606,0.008553222,-0.010997,0.026881555,0.0,9.358457,-1.1571621,-2.6927052,-0.31745625,0.048162103,0.0967052,0.6235907,-0.49842188,0.5130346,2017-07-16 05:20:08,52.61618530632926
9.061,-1.079,-2.597,0.009775111,-0.0012218889,0.021994,0.0,9.368456,-1.1404736,-2.6649137,-0.3024559,0.07747364,0.04491377,0.6227405,-0.4980633,0.5133394,2017-07-16 05:20:09,52.500831464689924
9.057,-1.114,-2.604,0.021994,-0.0024437779,0.036656667,0.0,9.367472,-1.1365143,-2.6700578,-0.39647198,-0.02048564,0.07605767,0.6221253,-0.4990943,0.5125526,2017-07-16 05:20:10,52.41366382553415
9.034,-1.107,-2.636,0.0048875557,0.024437778,0.019550223,0.0,9.362434,-1.1423436,-2.6851952,-0.25043392,0.02434361,0.122195244,0.6216952,-0.50040174,0.51171076,2017-07-16 05:20:11,53.21455563707409
9.043,-1.107,-2.583,0.0061094444,0.0036656666,0.018328333,0.0,9.372364,-1.100653,-2.6679182,-0.32936382,-0.006346941,0.08491826,0.62133825,-0.49996474,0.5109352,2017-07-16 05:20:12,52.00803143044351
9.074,-1.09,-2.584,0.018328333,-0.010997,0.034212887,0.0,9.3644085,-1.1426803,-2.6781633,-0.33340836,0.051680326,0.082163334,0.62103444,-0.5008638,0.5116574,2017-07-16 05:20:13,51.9838794779464
9.051,-1.106,-2.603,0.014662666,-0.0036656666,0.023215888,0.0,9.374951,-1.1039947,-2.6574187,-0.3729515,-5.2452087E-6,0.07341862,0.621586,-0.49912068,0.5117402,2017-07-16 05:20:14,52.545155249496844
8.989,-1.145,-2.606,0.017106444,0.0061094444,0.019550223,0.0,9.364855,-1.1346238,-2.6800215,-0.3218546,0.015623808,0.065021515,0.62148607,-0.500398,0.5115767,2017-07-16 05:20:16,52.45433416009868
9.053,-1.104,-2.584,0.014662666,0.0024437779,0.014662666,0.0,9.370444,-1.119202,-2.6669412,-0.3584442,0.012202024,0.08194113,0.6212207,-0.500061,0.5115434,2017-07-16 05:20:17,52.55250939462377
9.059,-1.069,-2.566,0.014662666,0.0012218889,0.028103445,0.0,9.360908,-1.1560009,-2.684673,-0.26190758,0.04900086,0.11367297,0.62139654,-0.500746,0.5120113,2017-07-16 05:20:18,52.635234148565004
9.037,-1.131,-2.54,0.013440778,-0.0061094444,0.029325332,0.0,9.363545,-1.1375437,-2.6833606,-0.32654572,0.0065436363,0.14336061,0.6228281,-0.49889722,0.51236117,2017-07-16 05:20:19,52.36250151715033
9.025,-1.094,-2.588,0.008553222,-0.0048875557,0.015884556,0.0,9.363236,-1.1571432,-2.6760433,-0.2832365,0.06114328,0.09004331,0.6223859,-0.49907514,0.5131143,2017-07-16 05:20:20,52.67931904515698
8.996,-1.104,-2.619,0.015884556,0.009775111,0.023215888,0.0,9.366259,-1.147701,-2.6695309,-0.35825825,0.046701074,0.0605309,0.6219551,-0.49927953,0.5128505,2017-07-16 05:20:21,52.49248750165353
9.068,-1.112,-2.606,0.014662666,0.0048875557,0.03176911,0.0,9.358637,-1.1716152,-2.6858144,-0.2866373,0.058615208,0.10081434,0.62202305,-0.50002575,0.51287925,2017-07-16 05:20:22,53.091036642711344
8.994,-1.101,-2.632,0.007331333,0.008553222,0.030547222,0.0,9.36551,-1.136768,-2.6768274,-0.31750965,0.0037679672,0.063827515,0.6229498,-0.49841127,0.51274335,2017-07-16 05:20:23,52.53622697879355
9.022,-1.1,-2.618,0.012218889,-0.0012218889,0.03176911,0.0,9.35548,-1.1887665,-2.689275,-0.36248016,0.088766456,0.15427494,0.62325066,-0.4986717,0.5140567,2017-07-16 05:20:24,51.99368524394646
9.087,-1.092,-2.547,0.012218889,0.0048875557,0.012218889,0.0,9.359619,-1.148005,-2.6925855,-0.30061913,0.01600504,0.12058544,0.62367713,-0.49830762,0.51278657,2017-07-16 05:20:25,53.756192465133104
9.065,-1.11,-2.578,0.013440778,-0.0061094444,0.024437778,0.0,9.360795,-1.1350923,-2.6939704,-0.36079502,0.025092244,0.121970415,0.6231617,-0.49902284,0.51195264,2017-07-16 05:20:26,52.74134772695562
9.059,-1.118,-2.56,0.018328333,-0.0012218889,0.028103445,0.0,9.352998,-1.1753341,-2.7037828,-0.28399754,0.08733404,0.08578277,0.6226917,-0.5001096,0.51251864,2017-07-16 05:20:27,51.90774895866113
9.086,-1.116,-2.604,0.0036656666,0.007331333,0.017106444,0.0,9.361332,-1.1278305,-2.6951604,-0.255332,0.060830474,0.040160418,0.6238557,-0.4982158,0.5120877,2017-07-16 05:20:28,52.51658875698649
8.953,-1.14,-2.591,0.010997,0.010997,0.021994,0.0,9.37346,-1.0673525,-2.6775782,-0.34445953,-0.01264751,0.10457826,0.62384677,-0.49732655,0.5109187,2017-07-16 05:20:29,52.2884619072211
8.987,-1.106,-2.545,0.010997,0.0036656666,0.023215888,0.0,9.368587,-1.1236742,-2.6715827,-0.3915863,-0.0023258924,0.1005826,0.6213613,-0.5001229,0.51155096,2017-07-16 05:20:30,52.32631264801537
9.039,-1.12,-2.558,0.009775111,0.0048875557,0.03176911,0.0,9.351071,-1.2089046,-2.695634,-0.2790718,0.10590458,0.11163378,0.62090874,-0.50190777,0.51293993,2017-07-16 05:20:31,52.239799818477834
9.109,-1.069,-2.577,-0.0012218889,0.0036656666,0.023215888,0.0,9.356966,-1.1892899,-2.6838717,-0.23896599,0.08028996,0.049871683,0.6220914,-0.49984163,0.51361704,2017-07-16 05:20:32,52.26836717432606
9.057,-1.147,-2.586,0.012218889,0.008553222,0.02077211,0.0,9.372279,-1.085443,-2.6744387,-0.32227898,-0.016556978,0.08243871,0.62339085,-0.49773714,0.51140237,2017-07-16 05:20:33,52.71487483212043
8.933,-1.145,-2.539,0.007331333,0.0061094444,0.025659667,0.0,9.370596,-1.0735604,-2.6851013,-0.36259556,-0.011439681,0.13610125,0.6230736,-0.49867964,0.5102514,2017-07-16 05:20:34,53.333447995960306
9.023,-1.072,-2.559,0.012218889,-0.0048875557,0.028103445,0.0,9.3545265,-1.184158,-2.6946301,-0.35952663,0.090157986,0.11863017,0.6210164,-0.5017236,0.5122223,2017-07-16 05:20:36,51.98359765991323
9.084,-1.089,-2.58,0.0061094444,0.0024437779,0.025659667,0.0,9.356102,-1.2022792,-2.6811008,-0.28410244,0.13927925,0.09210086,0.62009156,-0.5021798,0.5129347,2017-07-16 05:20:37,52.12122867293569
8.98,-1.1,-2.555,0.0048875557,0.0,0.032991,0.0,9.369101,-1.132747,-2.6659408,-0.3741007,0.007747054,0.06794071,0.62202114,-0.49901387,0.51256675,2017-07-16 05:20:38,52.64286696818408
9.036,-1.149,-2.625,0.010997,0.010997,0.017106444,0.0,9.355848,-1.1733699,-2.6947615,-0.29484844,0.047369838,0.15976143,0.6221758,-0.50029176,0.5125829,2017-07-16 05:20:39,51.70690698520498
8.958,-1.1,-2.604,0.012218889,0.0061094444,0.008553222,0.0,9.362777,-1.1400896,-2.6849551,-0.24477673,0.09108961,0.108955145,0.6225317,-0.49934846,0.5121782,2017-07-16 05:20:40,52.82488093098913
9.067,-1.109,-2.572,0.015884556,-0.0024437779,0.030547222,0.0,9.363497,-1.1241702,-2.6891608,-0.33749676,0.01417017,0.12516093,0.62291014,-0.49909118,0.51166594,2017-07-16 05:20:41,53.14946270275624
9.066,-1.104,-2.551,0.019550223,-0.0024437779,0.026881555,0.0,9.359789,-1.1526326,-2.6900165,-0.2677889,0.054632545,0.1060164,0.62211025,-0.5001315,0.51207966,2017-07-16 05:20:42,53.59154676668082
9.095,-1.125,-2.505,0.0036656666,0.0036656666,0.017106444,0.0,9.370828,-1.1193489,-2.665528,-0.36082745,-0.030651093,0.0695281,0.6227933,-0.4980287,0.5126255,2017-07-16 05:20:43,53.42774994416649
9.06,-1.082,-2.604,-0.0048875557,0.0012218889,0.024437778,0.0,9.362658,-1.1514091,-2.680543,-0.35165787,0.050409198,0.10454297,0.6221849,-0.49955544,0.5125649,2017-07-16 05:20:44,52.79990022734603
9.083,-1.041,-2.576,0.014662666,0.0012218889,0.013440778,0.0,9.363101,-1.1426525,-2.682741,-0.2701006,0.05865252,0.075740814,0.6223695,-0.49943757,0.51227415,2017-07-16 05:20:45,54.23788688350294
9.049,-1.132,-2.566,0.015884556,-0.0024437779,0.026881555,0.0,9.372106,-1.0917351,-2.6724765,-0.33010578,0.017735124,0.08747649,0.62295425,-0.49818307,0.5114362,2017-07-16 05:20:46,52.30149010455448
8.961,-1.167,-2.564,0.014662666,0.0061094444,0.032991,0.0,9.358949,-1.1362213,-2.6999006,-0.39794827,-0.030778766,0.13590074,0.6231312,-0.4993637,0.5116711,2017-07-16 05:20:47,52.2522311331527
9.132,-1.065,-2.559,0.014662666,0.008553222,0.009775111,0.0,9.357344,-1.1599436,-2.6953752,-0.2923441,0.10594356,0.06137514,0.6219764,-0.50057095,0.51197153,2017-07-16 05:20:48,52.476141315227835
9.002,-1.104,-2.582,0.012218889,0.008553222,0.026881555,0.0,9.373956,-1.094561,-2.6648252,-0.30295563,0.010560989,0.044825315,0.6225563,-0.49828896,0.51166546,2017-07-16 05:20:49,52.32011577610686
9.075,-1.124,-2.591,0.0061094444,0.0036656666,0.03176911,0.0,9.362116,-1.1388942,-2.6877728,-0.3561163,0.014894247,0.14277267,0.6219006,-0.5002778,0.51159376,2017-07-16 05:20:50,52.2961724421695
9.087,-1.12,-2.555,-0.0012218889,-0.010997,0.012218889,0.0,9.366114,-1.1325463,-2.676499,-0.2871132,0.04954636,0.07849884,0.6219676,-0.4996196,0.51199114,2017-07-16 05:20:51,52.13631484229643
9.029,-1.113,-2.585,0.009775111,-0.007331333,0.024437778,0.0,9.371958,-1.1084598,-2.6661015,-0.37395763,0.035459876,0.019101381,0.621796,-0.49930257,0.51158744,2017-07-16 05:20:52,52.379612128548516
9.0,-1.114,-2.662,0.015884556,0.0061094444,0.032991,0.0,9.363806,-1.1573606,-2.6739535,-0.32580566,0.06636059,0.088953495,0.6209075,-0.5008069,0.51228863,2017-07-16 05:20:53,53.564698801219606
9.075,-1.096,-2.595,0.015884556,0.0048875557,0.015884556,0.0,9.369638,-1.1241949,-2.6676712,-0.27363873,-0.0038051605,0.07067132,0.62089586,-0.50050145,0.5114692,2017-07-16 05:20:54,55.85779841378057
9.085,-1.109,-2.558,0.008553222,-0.007331333,0.025659667,0.0,9.37798,-1.088038,-2.6533093,-0.4069805,0.017037988,0.07530928,0.6217446,-0.49871317,0.51150465,2017-07-16 05:20:56,52.09074700679838
9.083,-1.1,-2.541,0.007331333,-0.010997,0.029325332,0.0,9.361605,-1.1298478,-2.6933618,-0.34760475,0.028847814,0.07336187,0.6219846,-0.5004582,0.5110568,2017-07-16 05:20:57,51.92502220912282
9.079,-1.136,-2.588,0.007331333,0.0012218889,0.017106444,0.0,9.369208,-1.0996909,-2.6793702,-0.27020836,-0.02430904,0.08237028,0.6225955,-0.49898368,0.511128,2017-07-16 05:20:58,52.52555996305528
8.962,-1.149,-2.588,0.0024437779,0.0,0.017106444,0.0,9.375283,-1.0810182,-2.6656835,-0.37128353,-0.020981789,0.05668354,0.6228057,-0.49802116,0.5113197,2017-07-16 05:20:59,53.06021857246563
9.034,-1.082,-2.649,0.015884556,0.008553222,0.023215888,0.0,9.358586,-1.1615728,-2.6903582,-0.3215866,0.07557285,0.1353581,0.6225179,-0.49964145,0.51262325,2017-07-16 05:21:00,52.95261043665818
9.067,-1.074,-2.607,0.013440778,0.008553222,0.023215888,0.0,9.365369,-1.1371894,-2.677136,-0.30436897,0.013189435,0.11213589,0.6233045,-0.4979834,0.5129676,2017-07-16 05:21:01,54.0956797209493
9.024,-1.121,-2.614,0.0012218889,-0.0048875557,0.034212887,0.0,9.367425,-1.1184416,-2.6778457,-0.36742496,0.004441619,0.10784578,0.6241397,-0.49697256,0.5128294,2017-07-16 05:21:02,53.88082411831829
9.081,-1.139,-2.571,0.015884556,-0.0012218889,0.012218889,0.0,9.360721,-1.1223214,-2.699585,-0.3177204,-0.0036786795,0.16058493,0.62423927,-0.4979617,0.5119208,2017-07-16 05:21:03,52.42091233267935
9.035,-1.104,-2.588,0.007331333,-0.0048875557,0.021994,0.0,9.362081,-1.139538,-2.687626,-0.35808086,0.069538,0.06662583,0.624107,-0.49751505,0.5130251,2017-07-16 05:21:04,52.190257589839526
9.074,-1.102,-2.579,0.015884556,0.007331333,0.025659667,0.0,9.358326,-1.1663415,-2.6892014,-0.32932568,0.09534156,0.058201313,0.62403804,-0.49768227,0.513804,2017-07-16 05:21:05,52.65203085662455
8.978,-1.108,-2.6,0.013440778,0.0048875557,0.03543478,0.0,9.362509,-1.1490688,-2.6820636,-0.31150913,0.016068816,0.085063696,0.62397903,-0.49739054,0.5135473,2017-07-16 05:21:06,52.390810914179305
9.089,-1.127,-2.614,0.008553222,0.0024437779,0.017106444,0.0,9.353275,-1.1881478,-2.6972077,-0.26427555,0.07414782,0.16720772,0.6242543,-0.49782115,0.5142659,2017-07-16 05:21:07,52.057065144704765
9.001,-1.088,-2.597,0.014662666,0.0012218889,0.014662666,0.0,9.361786,-1.151476,-2.6835544,-0.274786,0.067476034,0.09555435,0.6248953,-0.4963155,0.5141334,2017-07-16 05:21:08,51.60114528712234
9.062,-1.112,-2.596,0.017106444,0.0061094444,0.030547222,0.0,9.357972,-1.1781498,-2.6852756,-0.36297226,0.075149775,0.07827544,0.62443113,-0.49698764,0.51464725,2017-07-16 05:21:09,52.23314496634805
9.068,-1.107,-2.531,0.018328333,0.009775111,0.021994,0.0,9.353721,-1.1888381,-2.6953666,-0.2927208,0.086838126,0.052366734,0.62459594,-0.49729806,0.5145972,2017-07-16 05:21:10,52.47422304617285
9.001,-1.158,-2.524,0.012218889,0.0048875557,0.018328333,0.0,9.360337,-1.1608891,-2.6845574,-0.35933685,0.0028891563,0.16055751,0.6249583,-0.4962877,0.5144383,2017-07-16 05:21:11,53.688226084434035
9.114,-1.072,-2.594,0.008553222,-0.0024437779,0.026881555,0.0,9.352229,-1.2001617,-2.6955228,-0.31122875,0.08616173,0.07952285,0.62441874,-0.49752855,0.5148562,2017-07-16 05:21:12,52.254925922922695
9.061,-1.096,-2.608,0.013440778,-0.0048875557,0.024437778,0.0,9.370561,-1.1337852,-2.6603572,-0.27356052,0.005785227,0.053357124,0.6244,-0.495747,0.5144016,2017-07-16 05:21:13,51.787102637698894
8.987,-1.128,-2.6,0.019550223,0.0024437779,0.026881555,0.0,9.371717,-1.1234814,-2.6606588,-0.39471722,-0.0015186071,0.066658735,0.6240772,-0.49616882,0.51383275,2017-07-16 05:21:14,52.02557320843785
9.036,-1.149,-2.596,0.015884556,0.0061094444,0.028103445,0.0,9.357256,-1.1961428,-2.6798146,-0.3272562,0.10014284,0.055814505,0.62311196,-0.49836132,0.51469564,2017-07-16 05:21:16,51.7982454345093
9.073,-1.085,-2.598,0.009775111,0.0061094444,0.026881555,0.0,9.357223,-1.1884924,-2.6833324,-0.32022285,0.07349241,0.08633256,0.62392807,-0.4975195,0.5147751,2017-07-16 05:21:17,52.01082646059143
9.122,-1.082,-2.601,0.012218889,0.0048875557,0.019550223,0.0,9.36075,-1.130539,-2.6960392,-0.26275063,0.03553891,0.110039234,0.6251267,-0.4966652,0.512942,2017-07-16 05:21:18,51.61592321975199
9.108,-1.069,-2.625,0.009775111,0.0012218889,0.019550223,0.0,9.3755245,-1.0289128,-2.6853745,-0.26752472,-0.040087223,0.0603745,0.62626004,-0.49468613,0.5107663,2017-07-16 05:21:19,52.09477885814397
9.099,-1.12,-2.621,0.013440778,0.0024437779,0.03176911,0.0,9.384573,-0.9971913,-2.6656737,-0.3945732,-0.14980865,0.08167362,0.62518746,-0.49502745,0.5099895,2017-07-16 05:21:20,52.355780557483946
8.994,-1.09,-2.633,0.008553222,0.0036656666,0.009775111,0.0,9.38859,-0.973773,-2.660174,-0.28559017,-0.13222694,0.058173895,0.6244409,-0.49568605,0.50897527,2017-07-16 05:21:21,52.813903137312764
9.025,-1.112,-2.537,0.023215888,-0.0036656666,0.015884556,0.0,9.383836,-1.0117135,-2.6627884,-0.46383572,-0.106286526,0.06178832,0.62325007,-0.49731657,0.50937486,2017-07-16 05:21:22,53.351398620404346
9.086,-1.077,-2.555,0.010997,-0.0061094444,0.018328333,0.0,9.380612,-1.0785991,-2.647854,-0.3526125,-0.029400945,0.014854193,0.62143123,-0.49882483,0.5112558,2017-07-16 05:21:23,52.06850886284116
8.998,-1.098,-2.549,0.009775111,0.0048875557,0.046431776,0.0,9.371983,-1.1526176,-2.6472259,-0.42798233,0.022617579,0.047225952,0.6203798,-0.50009984,0.51314247,2017-07-16 05:21:24,53.46156700174596
8.931,-1.115,-2.56,0.019550223,0.0036656666,0.03176911,0.0,9.350221,-1.2914542,-2.6600654,-0.38522053,0.14545417,0.1010654,0.61857176,-0.50298566,0.5160433,2017-07-16 05:21:25,52.708440586109035
9.104,-1.124,-2.621,0.0036656666,0.007331333,0.028103445,0.0,9.339399,-1.3310144,-2.6785138,-0.23539925,0.20701444,0.057513714,0.6202119,-0.5018995,0.5174497,2017-07-16 05:21:26,52.132976292652174
9.083,-1.102,-2.626,0.021994,0.0048875557,0.015884556,0.0,9.340149,-1.2873788,-2.6971667,-0.25714874,0.17737877,0.09616661,0.62249345,-0.50001913,0.51647395,2017-07-16 05:21:27,57.913613525265845
9.048,-1.125,-2.583,0.0024437779,0.0012218889,0.013440778,0.0,9.356133,-1.1804653,-2.6906624,-0.30813313,0.05546534,0.10766244,0.6249855,-0.49656692,0.5148009,2017-07-16 05:21:28,53.56426203185372
9.084,-1.109,-2.604,0.013440778,0.0048875557,0.017106444,0.0,9.36617,-1.1236749,-2.6800447,-0.3901701,0.01567483,0.07104468,0.62526596,-0.49566796,0.51361203,2017-07-16 05:21:29,52.57393066403259
8.968,-1.126,-2.614,0.015884556,0.007331333,0.034212887,0.0,9.36368,-1.1557826,-2.675083,-0.40867996,0.0337826,0.06108284,0.62466645,-0.4961684,0.51456314,2017-07-16 05:21:30,53.17505249090229
8.938,-1.159,-2.5,0.019550223,0.007331333,0.034212887,0.0,9.349145,-1.2586898,-2.6794763,-0.39614487,0.11368978,0.08847618,0.622443,-0.49917927,0.5163829,2017-07-16 05:21:31,52.983267913124635
8.989,-1.139,-2.541,0.008553222,0.0024437779,0.03176911,0.0,9.341852,-1.3211347,-2.6748452,-0.3298521,0.18513465,0.11684513,0.6216633,-0.49991393,0.5182023,2017-07-16 05:21:32,51.787100347190886
8.953,-1.11,-2.638,0.0048875557,0.0012218889,0.040322334,0.0,9.336889,-1.3703831,-2.6673877,-0.3838892,0.26038313,0.029387712,0.6212404,-0.5000593,0.51993793,2017-07-16 05:21:33,52.15421366793536
9.092,-1.083,-2.596,0.024437778,0.0012218889,0.037878554,0.0,9.326017,-1.394562,-2.6927674,-0.33401775,0.25756204,0.11676741,0.62293226,-0.49924776,0.520481,2017-07-16 05:21:34,51.46357206711596
8.992,-1.108,-2.56,0.017106444,-0.0012218889,0.03543478,0.0,9.3220005,-1.3815974,-2.7132778,-0.35700035,0.25459743,0.1462779,0.6245919,-0.49822047,0.52003384,2017-07-16 05:21:35,51.36667016925509
9.048,-1.042,-2.619,0.010997,0.0048875557,0.026881555,0.0,9.32631,-1.3121098,-2.732897,-0.33431053,0.20810986,0.099897146,0.62753326,-0.49552092,0.5185791,2017-07-16 05:21:36,51.618804629678365
9.084,-1.086,-2.664,0.018328333,0.010997,0.014662666,0.0,9.343606,-1.1699756,-2.7383618,-0.26660633,0.079975605,0.15536189,0.62913,-0.49377427,0.51463056,2017-07-16 05:21:37,54.41042131058657
9.147,-1.112,-2.551,0.017106444,0.0024437779,0.007331333,0.0,9.363934,-1.0332383,-2.7238908,-0.28093338,-0.09376168,0.13389087,0.62971824,-0.49227503,0.51117325,2017-07-16 05:21:38,53.991962351436555
9.006,-1.112,-2.534,0.023215888,-0.009775111,0.023215888,0.0,9.370159,-1.0027018,-2.713875,-0.39215946,-0.12529826,0.12987494,0.62736255,-0.49475786,0.50913054,2017-07-16 05:21:40,51.83834997245275
9.023,-1.091,-2.561,0.008553222,-0.0036656666,0.025659667,0.0,9.363147,-1.0766196,-2.7097623,-0.31514645,-0.029380322,0.115762234,0.6249729,-0.49756238,0.5103218,2017-07-16 05:21:41,53.03937136674718
9.077,-1.053,-2.661,0.02077211,0.008553222,0.019550223,0.0,9.374504,-1.056814,-2.6781073,-0.2875042,-0.034186006,0.09810734,0.62405455,-0.49709293,0.51066566,2017-07-16 05:21:42,53.154856447936176
8.968,-1.121,-2.519,0.018328333,0.008553222,0.023215888,0.0,9.3814,-1.0190338,-2.668581,-0.35739994,-0.10596621,0.07358098,0.6232753,-0.49758184,0.5093491,2017-07-16 05:21:43,52.10234381022506
9.065,-1.097,-2.585,0.0048875557,0.007331333,0.025659667,0.0,9.364166,-1.0874118,-2.701911,-0.31716633,-0.018588185,0.09791088,0.622998,-0.49963248,0.50982386,2017-07-16 05:21:44,53.286861070166125
9.128,-1.098,-2.567,0.007331333,-0.0048875557,0.019550223,0.0,9.373498,-1.0664337,-2.6778057,-0.28049755,0.011433721,0.11380577,0.6224687,-0.4990619,0.50998825,2017-07-16 05:21:45,52.166000287023806
9.014,-1.107,-2.555,0.014662666,-0.0048875557,0.034212887,0.0,9.379047,-1.0675215,-2.6578743,-0.38604736,-0.07047856,0.0748744,0.6227983,-0.4976305,0.51124984,2017-07-16 05:21:46,51.964784006601896
9.06,-1.092,-2.604,0.009775111,0.0024437779,0.015884556,0.0,9.367334,-1.121466,-2.6768923,-0.30733395,0.029466033,0.07289219,0.6230088,-0.49834082,0.51225877,2017-07-16 05:21:47,56.89778364128066
9.081,-1.106,-2.579,0.007331333,0.007331333,0.012218889,0.0,9.3751,-1.0859334,-2.6643329,-0.31910038,-0.011066556,0.09333277,0.6230539,-0.49764144,0.5117157,2017-07-16 05:21:48,54.392230908163455
8.995,-1.096,-2.57,0.010997,0.0,0.030547222,0.0,9.366668,-1.1082447,-2.6847246,-0.37166786,0.012244701,0.114724636,0.62316495,-0.49854618,0.51151216,2017-07-16 05:21:49,52.61907207954621
9.104,-1.103,-2.594,0.014662666,0.0036656666,0.024437778,0.0,9.363387,-1.1443162,-2.681032,-0.29138756,0.024316192,0.06803203,0.62280124,-0.49881178,0.51269144,2017-07-16 05:21:50,53.10288433297885
9.019,-1.13,-2.603,0.008553222,0.0036656666,0.021994,0.0,9.374409,-1.1004437,-2.6608129,-0.35540867,-0.029556274,0.05781293,0.6232683,-0.49719244,0.5125264,2017-07-16 05:21:51,52.3416447419572
9.114,-1.098,-2.572,0.0048875557,0.007331333,0.014662666,0.0,9.361035,-1.1378816,-2.6919613,-0.33803558,0.06488168,0.09696126,0.6236767,-0.4982762,0.5124761,2017-07-16 05:21:52,52.68088413696699
9.0,-1.095,-2.565,0.009775111,-0.0024437779,0.026881555,0.0,9.368115,-1.1091156,-2.6793056,-0.31211567,1.1563301E-4,0.114305496,0.6237277,-0.4975644,0.5121762,2017-07-16 05:21:53,52.97302020159562
9.03,-1.088,-2.57,0.013440778,-0.0012218889,0.034212887,0.0,9.358637,-1.156018,-2.692571,-0.3026371,0.04401803,0.09257102,0.6237439,-0.4982233,0.5130998,2017-07-16 05:21:54,53.030940498346055
9.005,-1.14,-2.614,0.014662666,-0.0012218889,0.019550223,0.0,9.3621,-1.1388731,-2.6878326,-0.3320999,0.014873147,0.11783266,0.6234506,-0.49834797,0.51257515,2017-07-16 05:21:55,52.845050171404395
9.039,-1.109,-2.608,0.023215888,0.008553222,0.02077211,0.0,9.357265,-1.1616037,-2.694928,-0.30126572,0.06360364,0.12992787,0.6236084,-0.49851343,0.5130828,2017-07-16 05:21:56,52.402138077771276
9.039,-1.102,-2.624,0.010997,0.0036656666,0.028103445,0.0,9.360491,-1.1441058,-2.6912124,-0.31949043,0.038105845,0.11421251,0.62436885,-0.49737027,0.5131632,2017-07-16 05:21:57,52.6286870889421
9.016,-1.143,-2.578,0.0061094444,-0.0024437779,0.024437778,0.0,9.361259,-1.1392949,-2.6905868,-0.27725983,-0.0047051907,0.08758688,0.62436616,-0.49734157,0.5130312,2017-07-16 05:21:58,53.286451998346315
9.044,-1.079,-2.58,0.012218889,-0.0036656666,0.017106444,0.0,9.3608,-1.1440495,-2.690167,-0.31680012,0.06504953,0.11016703,0.6235428,-0.49835202,0.5126904,2017-07-16 05:21:59,53.673807765894566
9.047,-1.085,-2.613,0.0048875557,-0.0024437779,0.024437778,0.0,9.368968,-1.1464249,-2.6605573,-0.33996773,0.042424917,0.04855728,0.62293947,-0.4975913,0.5138882,2017-07-16 05:22:00,53.27912411798625
9.006,-1.095,-2.625,0.013440778,0.014662666,0.024437778,0.0,9.373252,-1.145537,-2.6458082,-0.33225155,0.03653705,0.042808294,0.62222934,-0.49772415,0.5141534,2017-07-16 05:22:01,53.47811246681275
9.056,-1.14,-2.594,0.008553222,0.010997,0.014662666,0.0,9.367566,-1.1492672,-2.664266,-0.29556656,-0.0027327538,0.09026623,0.6234575,-0.4971323,0.5141256,2017-07-16 05:22:03,52.81470186515921
9.019,-1.143,-2.591,0.007331333,0.0061094444,0.02077211,0.0,9.366973,-1.1429977,-2.669038,-0.32797337,0.024997711,0.075037956,0.6234302,-0.49741116,0.51365453,2017-07-16 05:22:04,53.64055638024357
9.049,-1.098,-2.586,0.009775111,0.0036656666,0.021994,0.0,9.371182,-1.1239698,-2.6623304,-0.34618282,0.037969828,0.11033034,0.62307364,-0.49751413,0.5131236,2017-07-16 05:22:05,52.786236927424554
9.089,-1.078,-2.579,0.014662666,-0.0036656666,0.021994,0.0,9.3636,-1.1427017,-2.6809728,-0.2845993,0.058701754,0.08497286,0.6231881,-0.49832538,0.5128855,2017-07-16 05:22:06,52.52368765694307
9.039,-1.11,-2.569,0.008553222,0.0,0.024437778,0.0,9.372039,-1.111406,-2.6645987,-0.3240385,0.019405961,0.006598711,0.62310714,-0.4975884,0.5126036,2017-07-16 05:22:07,52.16885961402511
9.026,-1.113,-2.644,0.010997,0.0,0.02077211,0.0,9.359183,-1.1636524,-2.687381,-0.29818344,0.07365239,0.138381,0.6230293,-0.49885148,0.51316786,2017-07-16 05:22:08,52.18960816486228
9.032,-1.124,-2.58,0.008553222,-0.0012218889,0.02077211,0.0,9.365026,-1.1442134,-2.675348,-0.34602642,0.050213456,0.097347975,0.6230239,-0.49824288,0.5131175,2017-07-16 05:22:09,52.57911334432628
9.05,-1.119,-2.62,0.02077211,0.012218889,0.029325332,0.0,9.356495,-1.1645107,-2.6963503,-0.27849483,0.10351074,0.16235042,0.62292844,-0.49943545,0.5126789,2017-07-16 05:22:10,53.27938985616907
8.993,-1.119,-2.545,0.0061094444,0.0012218889,0.02077211,0.0,9.363725,-1.1211963,-2.6896088,-0.37072468,0.002196312,0.14460874,0.62356615,-0.49829423,0.5119602,2017-07-16 05:22:11,52.50773380385166
9.078,-1.1,-2.59,0.0048875557,-0.0048875557,0.019550223,0.0,9.355305,-1.1695671,-2.6982963,-0.3333044,0.075567126,0.1062963,0.62370557,-0.498564,0.5132417,2017-07-16 05:22:12,54.59229195343791
9.086,-1.064,-2.598,0.015884556,0.008553222,0.02077211,0.0,9.365365,-1.1251433,-2.6822355,-0.30436516,0.055143237,0.061235428,0.6243586,-0.49692282,0.51297253,2017-07-16 05:22:13,52.20706151859359
8.972,-1.119,-2.565,0.015884556,0.010997,0.030547222,0.0,9.35437,-1.1536276,-2.7083735,-0.33137035,-0.0103724,0.10637355,0.6249406,-0.4975318,0.5129748,2017-07-16 05:22:14,53.82493757024393
9.067,-1.112,-2.566,0.0024437779,0.015884556,0.014662666,0.0,9.356729,-1.1519915,-2.7009149,-0.3037281,0.06399143,0.14991474,0.62443113,-0.4977892,0.51297605,2017-07-16 05:22:15,53.28350952780933
9.048,-1.114,-2.555,0.007331333,-0.0024437779,0.024437778,0.0,9.365705,-1.1286079,-2.6795905,-0.32970428,0.045607924,0.11259055,0.6241284,-0.49707627,0.5130773,2017-07-16 05:22:16,53.05517613026346
9.098,-1.089,-2.563,0.015884556,-0.010997,0.018328333,0.0,9.36251,-1.151199,-2.6811454,-0.28450966,0.08419895,0.15914536,0.62358433,-0.4978383,0.51341534,2017-07-16 05:22:17,52.858040665422024
8.976,-1.128,-2.601,0.008553222,-0.0024437779,0.034212887,0.0,9.369449,-1.1347681,-2.6638558,-0.39344883,0.0067681074,0.06285572,0.62249714,-0.4983133,0.51304454,2017-07-16 05:22:18,52.67091817652805
9.057,-1.132,-2.61,0.013440778,0.010997,0.015884556,0.0,9.360915,-1.1617004,-2.6821883,-0.31891537,0.030700326,0.1291883,0.6223994,-0.49937215,0.5129659,2017-07-16 05:22:19,53.13899650627423
8.994,-1.103,-2.638,0.0048875557,0.0061094444,0.025659667,0.0,9.36264,-1.1591443,-2.677264,-0.2836399,0.043144226,0.08126402,0.6231363,-0.49820042,0.5135959,2017-07-16 05:22:20,52.00940406387849
9.089,-1.114,-2.613,0.015884556,0.0024437779,0.03176911,0.0,9.355971,-1.1780779,-2.6922734,-0.29097176,0.114077926,0.13427329,0.62322325,-0.49885923,0.5135285,2017-07-16 05:22:21,52.049392940463626
9.057,-1.082,-2.566,0.014662666,0.0,0.028103445,0.0,9.360064,-1.1516901,-2.6894653,-0.354064,0.039690137,0.08546519,0.6239317,-0.49782908,0.5132303,2017-07-16 05:22:22,53.12638106287957
9.035,-1.113,-2.582,0.0036656666,0.0048875557,0.013440778,0.0,9.3628025,-1.153869,-2.6789775,-0.31480217,0.033869028,0.051977396,0.6233642,-0.49800292,0.51347566,2017-07-16 05:22:23,53.29783029067766
9.001,-1.134,-2.585,0.019550223,0.0036656666,0.02077211,0.0,9.363947,-1.1550968,-2.6744373,-0.35694695,0.04009676,0.079437256,0.6229519,-0.4982863,0.51348555,2017-07-16 05:22:25,54.2411579486489
9.032,-1.108,-2.634,0.013440778,0.0061094444,0.024437778,0.0,9.365903,-1.1460418,-2.6714952,-0.30990314,0.02104175,0.04949522,0.62415516,-0.4966273,0.5140934,2017-07-16 05:22:26,53.134195857754605
9.115,-1.077,-2.578,0.012218889,0.0,0.023215888,0.0,9.361094,-1.1529353,-2.6853378,-0.32409477,0.020935297,0.106337786,0.6236874,-0.49792385,0.51332664,2017-07-16 05:22:27,52.94808688324014
9.016,-1.128,-2.571,0.012218889,-0.0061094444,0.017106444,0.0,9.369808,-1.1294327,-2.6648605,-0.35880852,0.011432648,0.05886054,0.6233014,-0.49735847,0.51332575,2017-07-16 05:22:28,51.91497975780683
9.066,-1.121,-2.603,0.0024437779,0.007331333,0.024437778,0.0,9.364259,-1.146752,-2.6769478,-0.29725838,0.060752034,0.07994795,0.6226508,-0.49879086,0.5128852,2017-07-16 05:22:29,52.836699589107994
9.024,-1.097,-2.566,0.010997,0.0012218889,0.025659667,0.0,9.362401,-1.1588064,-2.6782498,-0.34340096,0.06180644,0.087249756,0.6229753,-0.49845213,0.51343256,2017-07-16 05:22:30,54.311117113240705
8.993,-1.12,-2.595,0.015884556,0.0,0.023215888,0.0,9.362204,-1.152191,-2.681789,-0.37220383,0.04219103,0.09678888,0.6234104,-0.498089,0.51330584,2017-07-16 05:22:31,54.01627823304811
9.041,-1.08,-2.597,0.0061094444,0.0061094444,0.02077211,0.0,9.357739,-1.1631907,-2.692596,-0.31673908,0.08319068,0.095596075,0.62385005,-0.49809167,0.5134071,2017-07-16 05:22:32,52.742597987727116
9.039,-1.094,-2.561,0.013440778,0.0,0.023215888,0.0,9.358364,-1.1650655,-2.6896129,-0.30136395,0.06306553,0.058612823,0.6241998,-0.49750045,0.5138424,2017-07-16 05:22:33,52.37061136661825
9.053,-1.136,-2.518,0.008553222,-0.0012218889,0.021994,0.0,9.360642,-1.1500756,-2.6881473,-0.3676424,0.036075592,0.058147192,0.62428445,-0.4973191,0.51346636,2017-07-16 05:22:34,52.22129593881518
9.051,-1.119,-2.606,-0.0061094444,0.0,0.024437778,0.0,9.36333,-1.1423889,-2.6820536,-0.2983303,0.014388919,0.074053526,0.6239358,-0.49744424,0.5132952,2017-07-16 05:22:35,52.85648298664029
9.05,-1.113,-2.606,0.015884556,-0.007331333,0.02077211,0.0,9.36192,-1.1508199,-2.6833694,-0.28692055,0.05881989,0.14636946,0.62434983,-0.496992,0.51377517,2017-07-16 05:22:36,53.624446285067876
9.014,-1.113,-2.572,0.021994,0.0012218889,0.024437778,0.0,9.366594,-1.1348383,-2.6738522,-0.377594,0.049838305,0.06085229,0.6241368,-0.49677134,0.5135844,2017-07-16 05:22:37,53.66040069216413
9.053,-1.133,-2.574,0.0048875557,0.008553222,0.019550223,0.0,9.365358,-1.134901,-2.6781476,-0.3123579,0.0019010305,0.10414767,0.6240968,-0.49704194,0.51334304,2017-07-16 05:22:38,53.416166213888665
9.08,-1.082,-2.58,0.018328333,-0.0036656666,0.023215888,0.0,9.358518,-1.1584687,-2.6919293,-0.28351784,0.062468767,0.11392927,0.62395567,-0.49792522,0.5133488,2017-07-16 05:22:39,52.203004061956406
9.0,-1.116,-2.592,0.010997,0.0012218889,0.026881555,0.0,9.363818,-1.1402423,-2.6812618,-0.34481812,0.007242322,0.08526182,0.62397975,-0.49734855,0.5132908,2017-07-16 05:22:40,52.948479691473594
9.044,-1.126,-2.579,0.013440778,0.009775111,0.019550223,0.0,9.363767,-1.1330769,-2.6844747,-0.38176632,0.04707694,0.10147476,0.6237075,-0.4978545,0.5127127,2017-07-16 05:22:41,53.87272515562073
9.078,-1.073,-2.549,0.012218889,0.0024437779,0.018328333,0.0,9.36114,-1.1367737,-2.6920633,-0.31814003,0.048773646,0.052063227,0.6238949,-0.49800825,0.51257193,2017-07-16 05:22:42,53.10808119494862
9.074,-1.108,-2.572,0.009775111,0.0036656666,0.023215888,0.0,9.360235,-1.1519946,-2.6887324,-0.28623486,0.043994546,0.11673236,0.6232037,-0.49870268,0.5128163,2017-07-16 05:22:43,53.03826148341252
8.996,-1.09,-2.644,0.009775111,0.0012218889,0.024437778,0.0,9.364945,-1.1466706,-2.6745787,-0.36894512,0.016670585,0.07457876,0.6236083,-0.49747187,0.5136108,2017-07-16 05:22:44,53.27123157865187
9.049,-1.116,-2.577,0.013440778,0.0048875557,0.019550223,0.0,9.365041,-1.1418624,-2.6762931,-0.316041,0.025862336,0.09929323,0.62351984,-0.49767056,0.51330525,2017-07-16 05:22:45,54.319676453818026
9.068,-1.12,-2.546,0.0048875557,-0.0061094444,0.024437778,0.0,9.361997,-1.1541791,-2.6816556,-0.33999634,0.04117906,0.08965564,0.6231958,-0.49835062,0.5132436,2017-07-16 05:22:46,55.38340169914339
9.035,-1.11,-2.54,0.014662666,-0.0061094444,0.026881555,0.0,9.36958,-1.1345843,-2.663476,-0.33258057,0.037584305,0.10647607,0.6223354,-0.4984959,0.5129545,2017-07-16 05:22:48,53.243132327461204
9.036,-1.102,-2.488,0.010997,-0.0024437779,0.026881555,0.0,9.371211,-1.1591859,-2.6470962,-0.3362112,0.04318583,0.13109612,0.6179175,-0.5031325,0.51180255,2017-07-16 05:22:49,52.7320125368258
9.034,-1.094,-2.548,0.013440778,0.0036656666,0.028103445,0.0,9.37226,-1.1871084,-2.6309502,-0.34926033,0.056108356,0.09595013,0.6156919,-0.5050392,0.51215357,2017-07-16 05:22:50,52.56615736049693
9.031,-1.138,-2.61,0.025659667,0.0061094444,0.021994,0.0,9.375611,-1.1885775,-2.618323,-0.3706112,0.11257756,0.05732298,0.6172151,-0.5025364,0.51380974,2017-07-16 05:22:51,52.28512095808027
9.06,-1.095,-2.566,0.019550223,0.009775111,0.02077211,0.0,9.371854,-1.1952151,-2.6287317,-0.30285358,0.07121515,0.052731752,0.6189657,-0.5009087,0.5146243,2017-07-16 05:22:52,52.89488085984905
9.062,-1.131,-2.57,0.008553222,0.0024437779,0.023215888,0.0,9.371759,-1.1609862,-2.644361,-0.35175896,0.069986224,0.06536102,0.6216211,-0.4984096,0.5143622,2017-07-16 05:22:53,52.84309993903954
9.086,-1.101,-2.577,0.012218889,0.0036656666,0.015884556,0.0,9.365866,-1.1615967,-2.6648934,-0.26186562,0.08959663,0.050893307,0.62370914,-0.49684873,0.51466876,2017-07-16 05:22:54,52.807766636462155
8.988,-1.118,-2.616,0.015884556,-0.009775111,0.03176911,0.0,9.360056,-1.172889,-2.6803136,-0.3180561,0.07588899,0.0603137,0.62496406,-0.49606237,0.5150591,2017-07-16 05:22:55,52.80872934172244
9.084,-1.116,-2.607,0.0061094444,0.0012218889,0.023215888,0.0,9.3639555,-1.1501083,-2.6765587,-0.33795547,0.060108304,0.01855874,0.6251224,-0.49566972,0.5145866,2017-07-16 05:22:56,52.652020481899804
8.952,-1.132,-2.618,0.012218889,0.0048875557,0.023215888,0.0,9.369854,-1.0879235,-2.6819139,-0.34385395,-0.01807642,0.07791376,0.6262688,-0.49449664,0.512951,2017-07-16 05:22:57,52.959751930813816
8.987,-1.107,-2.519,0.02077211,0.0012218889,0.023215888,0.0,9.353798,-1.1679028,-2.7042305,-0.36679745,0.060902834,0.1852305,0.6251681,-0.49703345,0.51380736,2017-07-16 05:22:58,52.383528045198574
9.079,-1.082,-2.574,0.007331333,0.0,0.026881555,0.0,9.347182,-1.1840796,-2.7200255,-0.28818226,0.09207964,0.13402557,0.62518597,-0.49782047,0.5135589,2017-07-16 05:22:59,52.58749623784533
9.142,-1.096,-2.573,0.0061094444,-0.0024437779,0.014662666,0.0,9.367198,-1.1030856,-2.6849961,-0.21919823,-0.014914393,0.10899615,0.6258053,-0.49524176,0.5130098,2017-07-16 05:23:00,52.769858194635795
8.986,-1.12,-2.626,-0.007331333,0.009775111,0.015884556,0.0,9.376791,-1.042444,-2.6757262,-0.30479145,-0.100556016,0.03572607,0.62659246,-0.4937671,0.51193386,2017-07-16 05:23:01,52.41670491198781
9.055,-1.126,-2.63,0.0024437779,0.007331333,0.015884556,0.0,9.379609,-1.0464468,-2.664263,-0.39360905,-0.08455324,0.105262995,0.6259439,-0.4939978,0.51223606,2017-07-16 05:23:02,52.27622948792502
8.976,-1.141,-2.592,0.026881555,0.0,0.030547222,0.0,9.365684,-1.1533303,-2.6691191,-0.36168385,0.032330275,0.09511924,0.6236966,-0.4970812,0.51416826,2017-07-16 05:23:03,53.03920997954479
9.057,-1.115,-2.59,0.018328333,0.0012218889,0.03543478,0.0,9.343599,-1.2721773,-2.6924188,-0.28659916,0.15717733,0.1024189,0.6227777,-0.49942276,0.5163856,2017-07-16 05:23:04,51.87407490592676
9.018,-1.13,-2.604,0.009775111,-0.0036656666,0.028103445,0.0,9.345294,-1.2434889,-2.6999292,-0.30129433,0.18348897,0.12592936,0.6245348,-0.49760866,0.5161469,2017-07-16 05:23:05,54.59734963075188
9.067,-1.104,-2.622,0.010997,0.0061094444,0.015884556,0.0,9.344283,-1.2229877,-2.712765,-0.20428276,0.1249876,0.10376501,0.62573427,-0.49675864,0.5155646,2017-07-16 05:23:06,52.914815614857424
9.123,-1.095,-2.606,0.008553222,0.0012218889,0.015884556,0.0,9.363998,-1.0955758,-2.6991992,-0.24299812,0.009575844,0.13319921,0.62729996,-0.49408057,0.512987,2017-07-16 05:23:07,52.27351313878995
9.084,-1.086,-2.606,0.013440778,0.0,0.008553222,0.0,9.375221,-1.0082093,-2.6942754,-0.27822113,-0.09979069,0.10627532,0.6278285,-0.49315435,0.5106209,2017-07-16 05:23:08,51.90105002526786
8.943,-1.145,-2.586,0.009775111,0.0024437779,0.015884556,0.0,9.3777685,-1.0214847,-2.68038,-0.30576897,-0.12951529,0.0653801,0.6266982,-0.49387318,0.5110514,2017-07-16 05:23:10,51.98112206219739
9.09,-1.113,-2.607,0.010997,0.0,0.036656667,0.0,9.365768,-1.1550764,-2.668067,-0.27576828,0.04207635,0.061066866,0.62277645,-0.49817973,0.51369625,2017-07-16 05:23:11,51.65447842375243
8.963,-1.146,-2.577,0.028103445,-0.0012218889,0.039100446,0.0,9.355574,-1.2542872,-2.6590211,-0.2835741,0.1282872,0.046021223,0.6210957,-0.49981242,0.51642746,2017-07-16 05:23:12,51.78508451289234
9.079,-1.104,-2.634,0.018328333,0.0012218889,0.026881555,0.0,9.342036,-1.3201643,-2.6746833,-0.35003662,0.20516431,0.102683306,0.6209153,-0.5008344,0.5177169,2017-07-16 05:23:13,52.051879436967845
9.132,-1.094,-2.651,0.008553222,0.007331333,0.017106444,0.0,9.345724,-1.2555883,-2.692835,-0.26272392,0.11858833,0.07883501,0.6234355,-0.49862266,0.5162229,2017-07-16 05:23:14,53.32726960012158
9.091,-1.073,-2.608,0.012218889,0.0,0.017106444,0.0,9.353459,-1.1663977,-2.7060523,-0.21545982,0.07539773,0.1350522,0.62667155,-0.4952303,0.51461166,2017-07-16 05:23:15,51.53131865868716
9.134,-1.1,-2.569,0.014662666,-0.0012218889,0.010997,0.0,9.366506,-1.0740092,-2.6991665,-0.33150578,-0.021990776,0.09316659,0.62773126,-0.4935308,0.5125379,2017-07-16 05:23:16,52.43733016646993
8.938,-1.134,-2.571,0.009775111,0.0024437779,0.03176911,0.0,9.365625,-1.0954609,-2.6935945,-0.40662575,-0.030539155,0.11459446,0.62608856,-0.49532637,0.5124957,2017-07-16 05:23:17,52.843727318734246
9.004,-1.11,-2.604,0.013440778,0.0036656666,0.03543478,0.0,9.354705,-1.1931738,-2.6900315,-0.27970505,0.07117379,0.07003164,0.62417793,-0.49754933,0.5147497,2017-07-16 05:23:18,52.36703365484971
9.128,-1.124,-2.616,0.009775111,0.0024437779,0.021994,0.0,9.348862,-1.2250841,-2.6959894,-0.30586147,0.12708402,0.10798931,0.62363756,-0.49853125,0.51517475,2017-07-16 05:23:19,52.18999604873779
9.078,-1.084,-2.589,0.0,-0.0048875557,0.010997,0.0,9.368259,-1.1281894,-2.670827,-0.26925945,0.00818944,0.061826944,0.6253229,-0.49512178,0.5142689,2017-07-16 05:23:20,52.40327532742671
9.067,-1.12,-2.615,0.0061094444,0.0012218889,0.023215888,0.0,9.379515,-1.0612782,-2.6587193,-0.36651516,-0.059721828,0.038719416,0.62575907,-0.4939459,0.5129034,2017-07-16 05:23:21,52.10784064499678
8.965,-1.116,-2.594,0.009775111,0.0012218889,0.034212887,0.0,9.373583,-1.1267889,-2.6526809,-0.37158298,-0.0032111406,0.06368089,0.62349623,-0.4964892,0.51397884,2017-07-16 05:23:22,52.17486569867742
9.026,-1.109,-2.651,0.012218889,0.0048875557,0.018328333,0.0,9.357297,-1.2034212,-2.6764107,-0.2562971,0.08442128,0.075410604,0.6227548,-0.49863353,0.5148872,2017-07-16 05:23:23,52.39287262711641
9.11,-1.096,-2.598,0.007331333,0.017106444,0.013440778,0.0,9.36321,-1.1659689,-2.6723053,-0.25321007,0.06996894,0.074305296,0.62319607,-0.4978718,0.51411504,2017-07-16 05:23:24,52.54274815329143
9.139,-1.104,-2.59,0.015884556,0.0024437779,0.014662666,0.0,9.370362,-1.0878614,-2.6801653,-0.29536247,-0.012138605,0.05916524,0.6244243,-0.49673405,0.5118566,2017-07-16 05:23:25,51.9526165030958
9.026,-1.118,-2.537,0.0036656666,-0.010997,0.030547222,0.0,9.370435,-1.096192,-2.676516,-0.36943436,-0.08280802,0.075515985,0.62383693,-0.49728444,0.5119488,2017-07-16 05:23:26,52.41166071451386
8.981,-1.136,-2.551,0.014662666,0.0012218889,0.030547222,0.0,9.360694,-1.1761448,-2.6766596,-0.3846941,0.055144787,0.07565951,0.6217559,-0.49989125,0.5133263,2017-07-16 05:23:27,52.46525315611443
9.09,-1.074,-2.643,0.009775111,0.018328333,0.026881555,0.0,9.345026,-1.2376145,-2.7035508,-0.31602573,0.09661448,0.09755087,0.62186134,-0.5011299,0.51410174,2017-07-16 05:23:28,52.277548360572474
9.103,-1.132,-2.57,0.009775111,0.008553222,0.018328333,0.0,9.359654,-1.1600595,-2.687295,-0.19065475,0.017059445,0.16329503,0.6227561,-0.49918807,0.512878,2017-07-16 05:23:29,52.688258317319864
9.104,-1.151,-2.552,0.015884556,-0.0012218889,0.012218889,0.0,9.374712,-1.0977837,-2.6608307,-0.30171204,-0.038216352,0.09983063,0.6224758,-0.4981852,0.5119263,2017-07-16 05:23:31,52.69928759276341
8.964,-1.122,-2.613,-0.0012218889,-0.007331333,0.037878554,0.0,9.375717,-1.1168461,-2.6493397,-0.4117174,-0.0051538944,0.03633976,0.621254,-0.4991214,0.5123755,2017-07-16 05:23:32,52.65050479190971
9.065,-1.126,-2.582,0.021994,0.0036656666,0.028103445,0.0,9.359995,-1.2239908,-2.657574,-0.35899448,0.06099081,0.08857393,0.61992794,-0.5011865,0.5147509,2017-07-16 05:23:33,54.331656347482784
9.01,-1.118,-2.558,0.009775111,0.008553222,0.018328333,0.0,9.349896,-1.2803668,-2.6665576,-0.3078966,0.14236677,0.033557653,0.6205487,-0.5008751,0.5165768,2017-07-16 05:23:34,53.34010037959263
9.108,-1.136,-2.594,0.013440778,0.008553222,0.015884556,0.0,9.354913,-1.2118703,-2.6809304,-0.22191238,0.10387027,0.052930355,0.6229498,-0.49862108,0.5150641,2017-07-16 05:23:35,52.169438068480716
9.147,-1.086,-2.602,0.017106444,0.0,0.021994,0.0,9.364454,-1.0870514,-2.7010605,-0.22845459,0.0020513535,0.08106065,0.62625253,-0.4955033,0.51193625,2017-07-16 05:23:36,52.78963023430463
9.093,-1.124,-2.649,0.015884556,-0.0024437779,0.017106444,0.0,9.373893,-1.0094517,-2.6984317,-0.27189255,-0.0885483,0.102431774,0.6273182,-0.4940178,0.5101207,2017-07-16 05:23:37,52.094575325887085
9.141,-1.112,-2.607,0.008553222,-0.0012218889,0.009775111,0.0,9.377721,-0.9596305,-2.703305,-0.24872112,-0.15936947,0.09630489,0.62742007,-0.4941399,0.5082322,2017-07-16 05:23:38,52.11501707690821
9.126,-1.115,-2.651,0.010997,0.0036656666,0.017106444,0.0,9.375919,-0.94972247,-2.7130423,-0.24991894,-0.16527754,0.062042236,0.6266036,-0.4956759,0.5068606,2017-07-16 05:23:39,52.42077051228533
9.007,-1.112,-2.616,0.024437778,0.0,0.025659667,0.0,9.364392,-1.066399,-2.7095,-0.30939198,-0.023601055,0.15149999,0.6235539,-0.49932617,0.50907695,2017-07-16 05:23:40,51.96631883758528
9.069,-1.131,-2.602,0.02077211,0.007331333,0.024437778,0.0,9.352014,-1.1913817,-2.7001572,-0.28301334,0.06038165,0.09815717,0.62073326,-0.5023544,0.51200926,2017-07-16 05:23:41,51.47701784020892
9.036,-1.134,-2.577,0.009775111,-0.0048875557,0.03176911,0.0,9.34407,-1.2980722,-2.6783879,-0.35607052,0.20107222,0.1333878,0.61889064,-0.50352174,0.5155423,2017-07-16 05:23:42,52.21940231492815
8.97,-1.15,-2.582,0.015884556,-0.0024437779,0.037878554,0.0,9.349631,-1.3139256,-2.6511154,-0.37963104,0.16392565,0.0691154,0.6187349,-0.50233096,0.5173455,2017-07-16 05:23:43,51.473601131511714
8.963,-1.121,-2.643,0.015884556,0.012218889,0.018328333,0.0,9.353456,-1.288735,-2.6499894,-0.2644558,0.16373503,0.05798936,0.6205986,-0.4999692,0.5177214,2017-07-16 05:23:44,51.458743540426624
9.056,-1.119,-2.583,0.008553222,0.0061094444,0.0048875557,0.0,9.3643265,-1.2042656,-2.6513312,-0.22032642,0.09026563,0.06833124,0.6232905,-0.4966782,0.5165225,2017-07-16 05:23:45,51.851570403610275
9.126,-1.069,-2.589,0.012218889,0.0024437779,0.018328333,0.0,9.366015,-1.1128587,-2.6850896,-0.21301556,-0.026141405,0.07708955,0.6262384,-0.49469882,0.5136105,2017-07-16 05:23:46,52.01462795939153
9.068,-1.131,-2.576,0.013440778,0.0061094444,0.025659667,0.0,9.363301,-1.07065,-2.7115927,-0.24130154,-0.038349986,0.103592634,0.6272325,-0.49480516,0.5114719,2017-07-16 05:23:47,51.96198194764504
9.065,-1.124,-2.563,0.008553222,-0.010997,0.029325332,0.0,9.360869,-1.0836924,-2.714797,-0.3448696,6.9248676E-4,0.13579702,0.6268559,-0.49544707,0.51150864,2017-07-16 05:23:48,55.36786106514951
9.048,-1.086,-2.624,0.0048875557,0.0,0.029325332,0.0,9.354494,-1.1836914,-2.6949396,-0.36449432,0.027691364,0.109939575,0.62507004,-0.4966801,0.51474494,2017-07-16 05:23:49,53.45755488009346
9.075,-1.058,-2.602,0.026881555,0.0,0.036656667,0.0,9.348044,-1.2411774,-2.691454,-0.3440447,0.101177454,0.12745404,0.62368023,-0.49824584,0.5159664,2017-07-16 05:23:50,54.54996534499002
8.968,-1.11,-2.573,0.018328333,0.0012218889,0.023215888,0.0,9.340387,-1.2930301,-2.6936333,-0.35038757,0.14203012,0.07463336,0.62387085,-0.4981187,0.5176905,2017-07-16 05:23:51,52.0593328379108
8.989,-1.18,-2.541,0.013440778,0.0024437779,0.034212887,0.0,9.331668,-1.3735781,-2.6839585,-0.3476677,0.21557808,0.10395861,0.6227937,-0.49897078,0.52015716,2017-07-16 05:23:52,52.082590849143635
8.987,-1.138,-2.59,0.015884556,0.0012218889,0.034212887,0.0,9.326734,-1.4003787,-2.6872613,-0.2777338,0.30237865,0.11126137,0.62302244,-0.49885392,0.5210017,2017-07-16 05:23:53,52.33618228005865
9.005,-1.12,-2.58,0.025659667,0.0036656666,0.040322334,0.0,9.329036,-1.3712128,-2.6943026,-0.39103603,0.25521278,0.084302664,0.62431604,-0.4975949,0.52048635,2017-07-16 05:23:55,51.88429853433358
9.042,-1.157,-2.552,0.014662666,0.009775111,0.03176911,0.0,9.328668,-1.3641526,-2.699156,-0.32066727,0.19515252,0.16515613,0.62507236,-0.49689355,0.5204727,2017-07-16 05:23:56,52.07974252621913
9.062,-1.169,-2.601,0.0061094444,-0.0024437779,0.029325332,0.0,9.332984,-1.3411758,-2.6957428,-0.31698418,0.19817579,0.1357429,0.6262298,-0.49525836,0.52060604,2017-07-16 05:23:57,51.72589909693424
9.011,-1.136,-2.613,0.010997,-0.009775111,0.02077211,0.0,9.347053,-1.2706012,-2.6811497,-0.27505302,0.16760111,0.12914968,0.62734175,-0.49309525,0.51973313,2017-07-16 05:23:58,52.15974541409591
9.091,-1.12,-2.607,0.014662666,-0.0012218889,0.029325332,0.0,9.357209,-1.198988,-2.6787016,-0.2662096,0.078987956,0.07170153,0.62734616,-0.49296305,0.51750773,2017-07-16 05:23:59,51.84834198513349
9.11,-1.115,-2.625,0.0036656666,0.009775111,0.0061094444,0.0,9.358119,-1.1432843,-2.699804,-0.3541193,0.03928435,0.085803986,0.6282611,-0.49288914,0.51516235,2017-07-16 05:24:00,52.223399649838626
9.127,-1.125,-2.639,0.010997,0.007331333,0.03543478,0.0,9.364742,-1.0856385,-2.700626,-0.2667427,-0.05236149,0.12062597,0.62825567,-0.49293855,0.51318973,2017-07-16 05:24:01,51.632530832275876
8.986,-1.113,-2.578,0.017106444,-0.0036656666,0.029325332,0.0,9.362255,-1.1178578,-2.696103,-0.26125526,0.0138578415,0.14710307,0.6267564,-0.49461034,0.5135475,2017-07-16 05:24:02,51.94568499300584
9.072,-1.122,-2.626,0.019550223,-0.0036656666,0.03176911,0.0,9.362738,-1.1145294,-2.6958108,-0.2907381,-0.0074706078,0.06981087,0.6261826,-0.49532154,0.5130857,2017-07-16 05:24:03,52.080434962308495
9.109,-1.106,-2.628,0.014662666,-0.0024437779,0.021994,0.0,9.363259,-1.1298761,-2.6875932,-0.34925938,-0.01312387,0.1535933,0.6248409,-0.49659133,0.5131671,2017-07-16 05:24:04,51.276954571453885
8.953,-1.128,-2.559,0.021994,-0.0012218889,0.032991,0.0,9.377652,-1.0412222,-2.6731853,-0.3576517,-0.08277774,0.07818532,0.6256148,-0.49487433,0.51139075,2017-07-16 05:24:05,52.00358445539058
8.981,-1.124,-2.54,0.010997,0.0048875557,0.039100446,0.0,9.366442,-1.1554484,-2.6655443,-0.35944176,0.04344845,0.03754425,0.622198,-0.4987731,0.5134692,2017-07-16 05:24:06,51.871677848032824
8.952,-1.104,-2.608,0.018328333,0.0024437779,0.039100446,0.0,9.361922,-1.2242358,-2.6506724,-0.30192184,0.115235806,0.08167243,0.62050974,-0.5001143,0.51547366,2017-07-16 05:24:07,51.43721049602681
9.038,-1.133,-2.56,0.010997,0.0036656666,0.036656667,0.0,9.354592,-1.2809153,-2.6497667,-0.43459225,0.14991522,0.055766582,0.61996025,-0.50074923,0.5170743,2017-07-16 05:24:08,51.78566531024029
9.013,-1.107,-2.616,0.009775111,0.0036656666,0.034212887,0.0,9.349705,-1.3060821,-2.654729,-0.3137045,0.14508212,0.07072878,0.6198985,-0.5010782,0.5176247,2017-07-16 05:24:09,52.731046896946545
8.983,-1.145,-2.577,0.025659667,-0.0024437779,0.036656667,0.0,9.346565,-1.3021673,-2.6676714,-0.40956497,0.13516724,0.119671345,0.6208617,-0.50054383,0.51744026,2017-07-16 05:24:10,52.46352492365898
8.974,-1.145,-2.627,0.019550223,0.0024437779,0.036656667,0.0,9.345466,-1.2995359,-2.6728046,-0.37146568,0.15453589,0.0458045,0.62171686,-0.4997432,0.5176242,2017-07-16 05:24:11,51.38146257663596
8.946,-1.133,-2.625,0.010997,0.0024437779,0.034212887,0.0,9.34831,-1.3065488,-2.6594033,-0.40131092,0.17254889,0.08540344,0.62240475,-0.49820092,0.5189579,2017-07-16 05:24:12,50.991535109663076
8.981,-1.122,-2.594,0.02077211,0.008553222,0.023215888,0.0,9.354073,-1.2726927,-2.655552,-0.3640728,0.13669264,0.13055182,0.6224036,-0.4980052,0.5180318,2017-07-16 05:24:13,51.38783936939002
9.078,-1.112,-2.548,0.0,0.012218889,0.03176911,0.0,9.361853,-1.2035872,-2.6603613,-0.37185287,0.06258714,0.08936119,0.62370276,-0.49662414,0.51630205,2017-07-16 05:24:14,51.42237268082643
9.045,-1.136,-2.588,0.010997,0.0036656666,0.026881555,0.0,9.375448,-1.1262658,-2.6463022,-0.41144848,-0.003734231,0.062302113,0.62411773,-0.49537957,0.5146822,2017-07-16 05:24:15,51.691950853033816
9.02,-1.139,-2.561,0.008553222,-0.0036656666,0.013440778,0.0,9.388601,-1.0403643,-2.63481,-0.25260162,-0.09563577,0.052809954,0.62412626,-0.49477705,0.5123531,2017-07-16 05:24:16,51.99850840418914
9.022,-1.12,-2.591,0.009775111,0.0048875557,0.02077211,0.0,9.390449,-0.9861238,-2.6490421,-0.3124485,-0.10887623,0.03404212,0.6241163,-0.49552235,0.50975716,2017-07-16 05:24:18,52.88082300035373
8.962,-1.149,-2.565,0.015884556,0.007331333,0.028103445,0.0,9.389633,-1.003444,-2.6454263,-0.37063313,-0.13255608,0.07342625,0.6232874,-0.49637893,0.50999755,2017-07-16 05:24:19,51.40445525970609
9.014,-1.132,-2.592,0.017106444,0.0012218889,0.024437778,0.0,9.383246,-1.0473709,-2.651052,-0.41424656,-0.08362913,0.1030519,0.6221249,-0.4981231,0.510469,2017-07-16 05:24:20,52.226179406867
8.977,-1.146,-2.608,0.015884556,0.008553222,0.040322334,0.0,9.374682,-1.1099162,-2.6559024,-0.40068245,-0.053083777,0.09090233,0.6207997,-0.50002104,0.5115149,2017-07-16 05:24:21,53.46322056843597
8.928,-1.157,-2.576,0.017106444,0.0024437779,0.039100446,0.0,9.361146,-1.198664,-2.6650615,-0.3831463,0.05966389,0.06806159,0.6201151,-0.5013358,0.5136361,2017-07-16 05:24:22,53.05080566941796
9.017,-1.175,-2.561,0.017106444,0.0,0.028103445,0.0,9.34571,-1.2590783,-2.6912518,-0.38070965,0.12807822,0.16125178,0.62075627,-0.5018738,0.5147509,2017-07-16 05:24:23,52.653777095816764
9.105,-1.07,-2.582,0.017106444,0.010997,0.024437778,0.0,9.337343,-1.2739255,-2.7132144,-0.34134293,0.11292553,0.12321448,0.6227139,-0.5005625,0.5153549,2017-07-16 05:24:24,54.19863704822369
9.123,-1.09,-2.563,0.009775111,-0.0048875557,0.019550223,0.0,9.342719,-1.1866504,-2.7342064,-0.24771881,0.04965043,0.16820645,0.6256266,-0.49799302,0.51320237,2017-07-16 05:24:25,52.486851071923624
9.095,-1.127,-2.554,-0.0012218889,-0.0024437779,0.019550223,0.0,9.359116,-1.068052,-2.7270124,-0.20711517,-0.040947914,0.1500125,0.6275168,-0.49523893,0.5107799,2017-07-16 05:24:26,51.83901743049542
9.133,-1.083,-2.641,0.0036656666,-0.0048875557,0.014662666,0.0,9.375893,-0.9626597,-2.708565,-0.23089218,-0.10634029,0.12656498,0.6281153,-0.49352765,0.5085203,2017-07-16 05:24:27,51.97190535286674
9.08,-1.108,-2.652,0.017106444,0.0061094444,0.021994,0.0,9.389361,-0.90861034,-2.6804314,-0.40636158,-0.21038961,0.059431314,0.6268,-0.4937466,0.5072342,2017-07-16 05:24:28,52.374399069687826
9.018,-1.181,-2.614,0.018328333,0.018328333,0.017106444,0.0,9.389795,-0.9245415,-2.6734586,-0.2807951,-0.20945847,0.07545853,0.6246418,-0.496116,0.5067214,2017-07-16 05:24:29,51.7611951979302
8.967,-1.186,-2.518,0.008553222,0.0036656666,0.018328333,0.0,9.377828,-1.0342578,-2.6752656,-0.3388281,-0.0977422,0.13926554,0.62210923,-0.4993803,0.5087778,2017-07-16 05:24:30,51.79817884310468
8.975,-1.132,-2.548,0.013440778,-0.0048875557,0.039100446,0.0,9.361195,-1.1970357,-2.6656203,-0.35519505,0.08203566,0.12362027,0.619427,-0.5022141,0.5131179,2017-07-16 05:24:31,51.33531330354374
9.014,-1.124,-2.542,0.0,0.0012218889,0.043988,0.0,9.351369,-1.2744746,-2.6642053,-0.41036892,0.13147461,0.09820533,0.6193199,-0.50227433,0.51573247,2017-07-16 05:24:32,53.55884207475163
8.922,-1.141,-2.589,0.02077211,0.0012218889,0.040322334,0.0,9.345287,-1.3321463,-2.6573315,-0.38328743,0.23714626,0.10633135,0.6187542,-0.50262254,0.5176518,2017-07-16 05:24:33,52.40193059560684
8.944,-1.179,-2.559,0.024437778,-0.0024437779,0.03176911,0.0,9.332706,-1.3821133,-2.675961,-0.33270645,0.23111331,0.101961136,0.61948425,-0.5026682,0.51881844,2017-07-16 05:24:34,53.1322739898664
8.999,-1.155,-2.546,0.009775111,0.0061094444,0.03176911,0.0,9.3248625,-1.4045434,-2.691585,-0.3548622,0.2945434,0.11458516,0.62041533,-0.5023121,0.51933783,2017-07-16 05:24:35,52.65738815679076
9.086,-1.118,-2.597,0.009775111,0.0012218889,0.042766113,0.0,9.321249,-1.4014477,-2.7056713,-0.3502493,0.24644768,0.16467142,0.6213607,-0.50185823,0.5191032,2017-07-16 05:24:37,52.73338560723627
9.047,-1.17,-2.56,0.013440778,-0.0061094444,0.028103445,0.0,9.330409,-1.3176064,-2.716206,-0.28340912,0.14760649,0.15620613,0.62363774,-0.49956375,0.51721615,2017-07-16 05:24:38,51.916724274695255
9.127,-1.12,-2.644,0.012218889,-0.0048875557,0.02077211,0.0,9.353371,-1.2115868,-2.6864371,-0.3123703,0.07958686,0.090437174,0.62517136,-0.49611586,0.5161692,2017-07-16 05:24:39,51.91457518069513
9.122,-1.112,-2.597,0.018328333,0.0048875557,0.012218889,0.0,9.370131,-1.0783174,-2.684827,-0.23813057,-0.019682646,0.08382702,0.6276523,-0.49289015,0.5133641,2017-07-16 05:24:40,52.05955724439914
9.073,-1.144,-2.567,0.007331333,-0.0012218889,0.012218889,0.0,9.388116,-0.9518432,-2.669771,-0.29511547,-0.13915676,0.07177091,0.6280977,-0.49154216,0.51012427,2017-07-16 05:24:41,56.248158724014125
9.074,-1.107,-2.6,0.0024437779,0.0012218889,0.015884556,0.0,9.398845,-0.8751946,-2.6582294,-0.35084438,-0.24580544,0.079229355,0.6279347,-0.49115148,0.5079645,2017-07-16 05:24:42,52.10173556771642
9.028,-1.145,-2.533,0.018328333,0.0061094444,0.019550223,0.0,9.399957,-0.9231255,-2.638005,-0.4119568,-0.24087453,0.11400509,0.62436783,-0.49463686,0.508302,2017-07-16 05:24:43,51.8297901292372
8.986,-1.176,-2.613,0.0048875557,0.0024437779,0.036656667,0.0,9.382462,-1.0707344,-2.644492,-0.3804617,-0.061265588,0.08649182,0.6210403,-0.4991398,0.51090354,2017-07-16 05:24:44,51.75642264557284
9.034,-1.169,-2.588,0.015884556,-0.0036656666,0.036656667,0.0,9.364008,-1.2046136,-2.6523004,-0.33600807,0.066613555,0.08130026,0.6192358,-0.50177354,0.5139255,2017-07-16 05:24:45,52.8195104607164
9.072,-1.112,-2.603,0.012218889,-0.0024437779,0.036656667,0.0,9.358758,-1.275041,-2.6378617,-0.3807583,0.15004098,0.0428617,0.61826843,-0.5022327,0.51641977,2017-07-16 05:24:46,51.706849971821185
9.136,-1.092,-2.699,0.012218889,0.0048875557,0.03176911,0.0,9.360492,-1.2231182,-2.6562378,-0.28249168,0.098118186,0.061237812,0.6211207,-0.4996394,0.5155397,2017-07-16 05:24:47,51.90218233766677
9.085,-1.118,-2.589,0.024437778,0.009775111,0.010997,0.0,9.3595,-1.162505,-2.686775,-0.17449951,0.08950508,0.110774994,0.6225275,-0.49944663,0.5128422,2017-07-16 05:24:48,51.820476693868265
9.158,-1.1,-2.564,0.010997,0.008553222,0.007331333,0.0,9.370112,-1.0486755,-2.696601,-0.2531128,-0.05332446,0.11960101,0.6242574,-0.4977862,0.50957775,2017-07-16 05:24:49,52.52166417376912
9.14,-1.049,-2.608,0.0036656666,0.0036656666,0.015884556,0.0,9.385507,-0.95627594,-2.677352,-0.30250645,-0.1467241,0.13735199,0.6252214,-0.4955857,0.508005,2017-07-16 05:24:50,52.211770223413005
9.11,-1.071,-2.62,0.007331333,-0.008553222,0.010997,0.0,9.394005,-0.912001,-2.6629558,-0.26600456,-0.17699897,0.036955833,0.624806,-0.495369,0.5069292,2017-07-16 05:24:51,52.06319305098678
9.05,-1.132,-2.582,0.009775111,-0.0048875557,0.012218889,0.0,9.39732,-0.88146794,-2.6615398,-0.28032017,-0.22853208,0.06353974,0.62370306,-0.49668425,0.5052015,2017-07-16 05:24:52,52.32864483127565
9.112,-1.071,-2.612,0.0012218889,0.0024437779,0.0036656666,0.0,9.394366,-0.91534925,-2.6605291,-0.30936623,-0.19965076,0.052529097,0.62276167,-0.49781236,0.50581795,2017-07-16 05:24:53,51.44210746495845
9.108,-1.082,-2.596,0.009775111,0.0061094444,0.013440778,0.0,9.38349,-0.9298331,-2.6936858,-0.25949,-0.19416684,0.049685717,0.6228001,-0.49945948,0.50466263,2017-07-16 05:24:54,51.36916410272826
9.098,-1.092,-2.622,0.007331333,0.007331333,0.02077211,0.0,9.373775,-0.9793431,-2.7099166,-0.23777485,-0.13465685,0.13191652,0.6223636,-0.5008301,0.5052808,2017-07-16 05:24:55,51.4737117221694
9.062,-1.136,-2.636,0.008553222,0.0024437779,0.024437778,0.0,9.362885,-1.0769527,-2.710527,-0.34388542,-0.048047304,0.13152695,0.6208881,-0.5026891,0.50767654,2017-07-16 05:24:57,51.88517359540248
9.006,-1.134,-2.542,0.013440778,0.0036656666,0.032991,0.0,9.3470955,-1.220608,-2.7041306,-0.34109592,0.08660805,0.1621306,0.6196232,-0.503924,0.5121,2017-07-16 05:24:58,51.43653733269489
8.975,-1.13,-2.555,0.018328333,0.0061094444,0.030547222,0.0,9.327386,-1.3675119,-2.7018802,-0.31938553,0.2405119,0.11688018,0.61816496,-0.5055983,0.5162297,2017-07-16 05:24:59,51.722770165472774
8.99,-1.141,-2.541,0.0061094444,0.0036656666,0.039100446,0.0,9.320849,-1.4357452,-2.6890135,-0.385849,0.29274523,0.100013494,0.61822623,-0.5048741,0.5191612,2017-07-16 05:25:00,52.95613174736974
9.012,-1.131,-2.574,0.021994,-0.0036656666,0.032991,0.0,9.317075,-1.497223,-2.668495,-0.32307434,0.36122298,0.15649486,0.6177093,-0.50447065,0.5218816,2017-07-16 05:25:01,51.32498454823427
8.989,-1.121,-2.592,0.012218889,0.0036656666,0.037878554,0.0,9.317786,-1.5148598,-2.6560295,-0.39878654,0.35885978,0.064029455,0.61875707,-0.502553,0.52370304,2017-07-16 05:25:02,53.16937370529929
9.004,-1.128,-2.551,0.025659667,0.009775111,0.032991,0.0,9.311621,-1.510583,-2.6799722,-0.35562038,0.3405831,0.14097214,0.6208447,-0.50119096,0.5236133,2017-07-16 05:25:03,51.66943425475694
8.986,-1.175,-2.534,0.013440778,0.0036656666,0.036656667,0.0,9.30978,-1.4791309,-2.703801,-0.2997799,0.32313085,0.1678009,0.6228708,-0.49988744,0.5226182,2017-07-16 05:25:04,51.59525381753818
8.978,-1.136,-2.564,0.012218889,-0.007331333,0.03543478,0.0,9.316389,-1.4302334,-2.7073452,-0.23638916,0.35323334,0.10434532,0.6243847,-0.4981766,0.5217774,2017-07-16 05:25:05,51.038296930918975
9.018,-1.096,-2.552,0.008553222,-0.0036656666,0.039100446,0.0,9.325066,-1.3750651,-2.7060583,-0.36206532,0.2500651,0.0720582,0.6261586,-0.495879,0.52113706,2017-07-16 05:25:06,52.02870748090401
8.984,-1.139,-2.624,0.019550223,0.0036656666,0.04154422,0.0,9.333476,-1.3378115,-2.695716,-0.3634758,0.16481149,0.13171601,0.6263014,-0.49516645,0.52054214,2017-07-16 05:25:07,51.97498628093972
9.036,-1.161,-2.608,0.009775111,0.009775111,0.036656667,0.0,9.338362,-1.3178735,-2.6886055,-0.38036156,0.17887342,0.06660557,0.62599784,-0.49518424,0.52006817,2017-07-16 05:25:08,52.0047702225321
8.962,-1.137,-2.59,0.0036656666,0.012218889,0.032991,0.0,9.345055,-1.2985234,-2.6747282,-0.3350544,0.17152345,0.13572812,0.6251637,-0.4955235,0.5196251,2017-07-16 05:25:09,51.90066974778408
8.993,-1.173,-2.565,0.021994,0.0061094444,0.03543478,0.0,9.355117,-1.2539464,-2.6607952,-0.353117,0.13194644,0.08079529,0.62416255,-0.49606845,0.51824224,2017-07-16 05:25:10,53.16714930347527
9.038,-1.152,-2.601,0.018328333,-0.0012218889,0.028103445,0.0,9.3706665,-1.1852901,-2.6374362,-0.35766697,0.030290127,0.065436125,0.623906,-0.49518996,0.51698124,2017-07-16 05:25:11,52.031319171040174
9.06,-1.125,-2.59,0.012218889,-0.0024437779,0.015884556,0.0,9.390627,-1.0303844,-2.6315076,-0.29562664,-0.07061553,0.06250763,0.62524563,-0.4931911,0.5129075,2017-07-16 05:25:12,51.29498939953116
9.083,-1.094,-2.634,0.0048875557,0.0024437779,0.007331333,0.0,9.398451,-0.89774007,-2.6520934,-0.28245068,-0.19925994,0.080093384,0.6272029,-0.49176785,0.5085758,2017-07-16 05:25:13,51.72420898119317
9.135,-1.079,-2.561,-0.0024437779,-0.007331333,0.023215888,0.0,9.399093,-0.8351132,-2.670213,-0.30909252,-0.25088674,-0.014786959,0.62725234,-0.49264336,0.5054969,2017-07-16 05:25:14,52.595747757625674
9.055,-1.124,-2.652,0.015884556,0.0048875557,0.029325332,0.0,9.387646,-0.88188636,-2.6953275,-0.24864578,-0.22511363,0.10032749,0.62538856,-0.4962989,0.50460863,2017-07-16 05:25:15,53.1930610532386
9.036,-1.163,-2.548,0.023215888,0.013440778,0.030547222,0.0,9.374418,-0.98820704,-2.7044654,-0.40241814,-0.18779296,0.12246537,0.62309057,-0.49964738,0.5063391,2017-07-16 05:25:16,51.60751958644079
9.019,-1.127,-2.566,0.012218889,0.0061094444,0.030547222,0.0,9.364012,-1.1049429,-2.695322,-0.37001133,-0.032057047,0.13032198,0.62038153,-0.50254345,0.50908303,2017-07-16 05:25:18,52.26379946151157
8.992,-1.141,-2.584,0.007331333,0.0024437779,0.037878554,0.0,9.35591,-1.2020603,-2.6818616,-0.33791065,0.110060334,0.13886166,0.61875886,-0.50385946,0.51204836,2017-07-16 05:25:19,52.46410566667005
8.984,-1.124,-2.542,0.019550223,-0.0012218889,0.03543478,0.0,9.351004,-1.2743402,-2.665553,-0.32800388,0.13634014,0.11955309,0.6174152,-0.50468194,0.5144711,2017-07-16 05:25:20,51.06880218785047
8.983,-1.141,-2.604,0.009775111,-0.014662666,0.037878554,0.0,9.340748,-1.3309257,-2.6738493,-0.35774803,0.18392575,0.088849306,0.61834663,-0.50396013,0.5165301,2017-07-16 05:25:21,52.204517731629664
8.972,-1.145,-2.589,0.012218889,0.0,0.039100446,0.0,9.336727,-1.3561437,-2.6752205,-0.37872696,0.2231437,0.06622052,0.61999464,-0.5020009,0.5183122,2017-07-16 05:25:22,51.56401683981418
9.028,-1.122,-2.595,0.021994,0.0024437779,0.037878554,0.0,9.334875,-1.3493015,-2.6851282,-0.37987518,0.18730152,0.10212827,0.620694,-0.5016397,0.5180178,2017-07-16 05:25:23,51.59394274390451
9.059,-1.076,-2.613,0.007331333,0.013440778,0.029325332,0.0,9.338772,-1.2773367,-2.7066815,-0.2917719,0.15033674,0.06768155,0.62370676,-0.49899122,0.516412,2017-07-16 05:25:24,56.362862765725
9.037,-1.133,-2.612,0.013440778,0.0036656666,0.023215888,0.0,9.357676,-1.1430238,-2.7014446,-0.23367596,0.05502379,0.103444576,0.625841,-0.4960427,0.5135399,2017-07-16 05:25:25,51.68796574861667
9.114,-1.102,-2.565,0.013440778,0.0036656666,0.0061094444,0.0,9.373807,-1.0197412,-2.69486,-0.2288065,-0.09325886,0.08285999,0.6269271,-0.4943299,0.5104009,2017-07-16 05:25:26,51.46096731781648
9.17,-1.092,-2.578,0.0012218889,0.0036656666,0.012218889,0.0,9.393795,-0.8890569,-2.6714418,-0.3507948,-0.26094306,0.059441805,0.62671274,-0.49339312,0.50695777,2017-07-16 05:25:27,52.37722722016674
9.028,-1.088,-2.591,0.0024437779,-0.0061094444,0.017106444,0.0,9.408091,-0.83594495,-2.638077,-0.31509018,-0.28205508,0.0050771236,0.6247788,-0.49412137,0.505518,2017-07-16 05:25:28,51.39128383187011
8.939,-1.157,-2.609,0.009775111,0.008553222,0.030547222,0.0,9.397298,-0.94066614,-2.6412792,-0.38729763,-0.18333381,2.7918816E-4,0.62155217,-0.4983379,0.50688595,2017-07-16 05:25:29,55.628099642851026
9.012,-1.163,-2.631,0.019550223,0.012218889,0.03176911,0.0,9.379817,-1.0902122,-2.6459215,-0.41881657,-0.04978776,0.065921545,0.6193266,-0.50133723,0.5103953,2017-07-16 05:25:30,52.00711571302483
8.999,-1.119,-2.553,0.024437778,0.0012218889,0.023215888,0.0,9.359864,-1.205303,-2.6665688,-0.30486393,0.0843029,0.082568645,0.6182578,-0.50370073,0.5126119,2017-07-16 05:25:31,51.634261742988585
9.139,-1.114,-2.56,0.0061094444,0.0024437779,0.019550223,0.0,9.360173,-1.1876391,-2.6733992,-0.23917294,0.08163917,0.06139922,0.62085766,-0.5008405,0.5133115,2017-07-16 05:25:32,51.01355135359344
8.974,-1.12,-2.585,0.019550223,-0.0012218889,0.024437778,0.0,9.376394,-1.0833052,-2.6608462,-0.4023943,-0.036694765,0.075846195,0.6225855,-0.49804893,0.5115017,2017-07-16 05:25:33,51.7674984797129
8.992,-1.162,-2.613,0.013440778,-0.007331333,0.024437778,0.0,9.369121,-1.1236786,-2.6697102,-0.36212063,-0.022321463,0.11171007,0.6232241,-0.49770382,0.5128355,2017-07-16 05:25:34,51.25261163776653
9.013,-1.072,-2.58,0.019550223,-0.0061094444,0.030547222,0.0,9.356519,-1.2114552,-2.6755128,-0.26451874,0.12545526,0.123512745,0.6208608,-0.50094414,0.51401085,2017-07-16 05:25:35,52.2638947522674
9.108,-1.048,-2.582,0.015884556,0.008553222,0.02077211,0.0,9.361691,-1.1595484,-2.6804016,-0.2946911,0.073548436,0.102401495,0.6226348,-0.4989873,0.51313275,2017-07-16 05:25:36,51.3225419726049
9.022,-1.137,-2.551,0.0061094444,0.0024437779,0.010997,0.0,9.376991,-1.0672153,-2.6652396,-0.26299095,-0.040784717,0.070239544,0.6237534,-0.49681088,0.511481,2017-07-16 05:25:38,51.39216682861988
8.975,-1.144,-2.574,0.007331333,0.0048875557,0.029325332,0.0,9.370173,-1.114216,-2.669982,-0.3511734,-0.025784016,0.11898184,0.62311757,-0.49785107,0.51243263,2017-07-16 05:25:39,56.11060498628088
9.141,-1.126,-2.592,0.0061094444,0.0061094444,0.021994,0.0,9.358915,-1.1893852,-2.677031,-0.31791496,0.07038522,0.08003116,0.62212515,-0.4994506,0.5139875,2017-07-16 05:25:40,52.03158862463451
9.079,-1.107,-2.594,0.014662666,0.0,0.018328333,0.0,9.365851,-1.1518124,-2.6691926,-0.206851,0.04481244,0.1271925,0.6223091,-0.49882096,0.51323205,2017-07-16 05:25:41,51.92989447538964
8.95,-1.169,-2.578,0.012218889,0.0036656666,0.03176911,0.0,9.376849,-1.0689763,-2.6650312,-0.42684937,-0.10002375,0.087031126,0.6234021,-0.49724096,0.5113253,2017-07-16 05:25:42,52.3853468773646
8.922,-1.163,-2.537,0.008553222,-0.0012218889,0.024437778,0.0,9.371656,-1.1025637,-2.669611,-0.3616562,0.011563778,0.035610914,0.62276626,-0.49827147,0.5118302,2017-07-16 05:25:43,51.91996950768906
9.012,-1.139,-2.607,0.009775111,0.007331333,0.03543478,0.0,9.355336,-1.1957436,-2.6866856,-0.3393364,0.04074359,0.11068559,0.6213784,-0.50087094,0.513243,2017-07-16 05:25:44,51.3596034809569
9.043,-1.108,-2.54,0.018328333,0.0,0.021994,0.0,9.352314,-1.2204518,-2.6860964,-0.24731445,0.13245177,0.106096506,0.6213152,-0.5009194,0.5140649,2017-07-16 05:25:45,51.74386447119101
9.02,-1.121,-2.597,0.007331333,0.0012218889,0.026881555,0.0,9.358387,-1.1686395,-2.687985,-0.37138653,0.009639502,0.08698487,0.6224265,-0.4996342,0.5129242,2017-07-16 05:25:46,51.807098739974435
9.068,-1.138,-2.619,0.012218889,-0.0048875557,0.026881555,0.0,9.350136,-1.2066553,-2.6998827,-0.2831354,0.10065532,0.07788277,0.62274355,-0.49984616,0.51380175,2017-07-16 05:25:47,55.01291402175312
9.011,-1.136,-2.6,0.013440778,0.0012218889,0.021994,0.0,9.355543,-1.1777685,-2.6938972,-0.29854298,0.08376849,0.11189723,0.6234796,-0.49862182,0.5135976,2017-07-16 05:25:48,52.02124594665239
9.018,-1.101,-2.585,0.008553222,0.0024437779,0.025659667,0.0,9.34705,-1.1979067,-2.7144177,-0.28004932,0.034906745,0.1504178,0.6234137,-0.4997521,0.51319385,2017-07-16 05:25:49,51.70416988489129
9.06,-1.118,-2.557,-0.0012218889,-0.0012218889,0.018328333,0.0,9.361509,-1.166356,-2.6780868,-0.2605095,0.06635594,0.051086664,0.62344766,-0.49785283,0.5139944,2017-07-16 05:25:50,52.42878345822041
9.066,-1.092,-2.615,0.0036656666,0.0048875557,0.036656667,0.0,9.356914,-1.1774867,-2.6892614,-0.34391403,0.044486642,0.082261324,0.6235164,-0.49833873,0.51384616,2017-07-16 05:25:51,51.92259946357958
9.018,-1.122,-2.573,0.014662666,0.009775111,0.018328333,0.0,9.367872,-1.1293389,-2.6717017,-0.29087257,0.040338874,0.105701685,0.62397397,-0.49686554,0.5134042,2017-07-16 05:25:52,51.965777322186
9.037,-1.162,-2.507,0.008553222,0.0061094444,0.019550223,0.0,9.365785,-1.1392094,-2.6748238,-0.39478493,0.018209338,0.098823786,0.6232211,-0.4979694,0.51310015,2017-07-16 05:25:53,52.465222178711066
9.086,-1.085,-2.592,0.0024437779,-0.007331333,0.019550223,0.0,9.368444,-1.1460595,-2.662551,-0.282444,0.061059475,0.07055092,0.6226357,-0.49807337,0.5135814,2017-07-16 05:25:54,52.288018497386275
9.068,-1.106,-2.586,0.014662666,0.0036656666,0.029325332,0.0,9.36606,-1.1514999,-2.6685934,-0.35206032,0.021499872,0.05859351,0.62232685,-0.49876818,0.5132631,2017-07-16 05:25:55,53.34105487169665
9.041,-1.139,-2.631,0.007331333,0.013440778,0.017106444,0.0,9.3624,-1.1584184,-2.678417,-0.30039978,0.040418386,0.07041693,0.62293005,-0.49851722,0.51338226,2017-07-16 05:25:56,53.706804366844985
9.044,-1.151,-2.614,0.0024437779,-0.0012218889,0.023215888,0.0,9.371988,-1.140992,-2.6522415,-0.3879881,-0.022007942,0.06024146,0.622678,-0.49749252,0.51395947,2017-07-16 05:25:57,52.33605969611627
9.066,-1.091,-2.566,0.015884556,-0.0036656666,0.021994,0.0,9.363068,-1.1670452,-2.6723318,-0.2670679,0.07104528,0.06433177,0.6225257,-0.4987111,0.5137253,2017-07-16 05:25:58,51.68037673137078
9.036,-1.136,-2.565,0.013440778,0.0012218889,0.026881555,0.0,9.373345,-1.1292124,-2.6524897,-0.38934517,-0.008787632,0.07848978,0.6224645,-0.49777234,0.51341146,2017-07-16 05:26:00,51.769599668029464
9.05,-1.108,-2.608,-0.0012218889,0.014662666,0.023215888,0.0,9.36507,-1.1658982,-2.6658075,-0.3460703,0.018898249,0.05980754,0.62245786,-0.4984622,0.5139739,2017-07-16 05:26:01,52.078772995879234
9.111,-1.13,-2.613,0.0061094444,0.012218889,0.010997,0.0,9.369006,-1.1336849,-2.6658816,-0.28600597,0.017684817,0.07588172,0.6228254,-0.4980067,0.5131145,2017-07-16 05:26:02,51.90406185653519
9.032,-1.145,-2.531,0.023215888,-0.0061094444,0.018328333,0.0,9.360717,-1.1663392,-2.6808643,-0.3057165,0.040339112,0.13986444,0.62225074,-0.4994898,0.5130955,2017-07-16 05:26:03,53.79559733901152
9.123,-1.076,-2.577,-0.0024437779,-0.0012218889,0.025659667,0.0,9.357991,-1.1774907,-2.6855009,-0.28099155,0.07549071,0.095500946,0.62305605,-0.49872196,0.5137461,2017-07-16 05:26:04,52.79023789086544
8.988,-1.165,-2.627,0.015884556,0.0,0.030547222,0.0,9.370184,-1.1350526,-2.661148,-0.3931837,-0.016947389,0.102148056,0.6235269,-0.49688533,0.51384795,2017-07-16 05:26:05,53.132141328445286
9.041,-1.153,-2.603,0.009775111,0.0061094444,0.02077211,0.0,9.358791,-1.1812824,-2.6810389,-0.3397913,0.042282343,0.067038774,0.62296677,-0.4986054,0.5140431,2017-07-16 05:26:06,52.59976898942671
9.014,-1.137,-2.56,0.012218889,0.007331333,0.015884556,0.0,9.362579,-1.1678941,-2.6736715,-0.30157948,0.069894075,0.059671402,0.6222526,-0.49912027,0.5135131,2017-07-16 05:26:07,52.2553618997765
9.023,-1.085,-2.566,0.024437778,0.009775111,0.028103445,0.0,9.350707,-1.19996,-2.7008843,-0.2777071,0.10596001,0.13088441,0.62245107,-0.50026137,0.5133427,2017-07-16 05:26:08,52.22149581788184
9.043,-1.084,-2.565,0.0061094444,0.008553222,0.028103445,0.0,9.3590145,-1.168202,-2.685993,-0.3050146,0.032202005,0.05999303,0.6226876,-0.49920708,0.51317537,2017-07-16 05:26:09,52.89707398132386
9.006,-1.151,-2.576,0.015884556,-0.0012218889,0.028103445,0.0,9.350828,-1.193344,-2.7033925,-0.31482792,0.04734397,0.16839242,0.62289923,-0.49983117,0.51327515,2017-07-16 05:26:10,52.87408349562622
9.084,-1.108,-2.627,0.013440778,0.0048875557,0.014662666,0.0,9.356733,-1.1897773,-2.6844673,-0.27873325,0.058777213,0.09246731,0.62257123,-0.49927428,0.5139058,2017-07-16 05:26:11,52.45323878429424
9.001,-1.104,-2.594,0.014662666,0.009775111,0.02077211,0.0,9.362737,-1.1584855,-2.6772194,-0.325737,0.05448556,0.0732193,0.62339103,-0.49787933,0.5137375,2017-07-16 05:26:12,53.1020164476471
9.092,-1.092,-2.574,0.019550223,-0.0024437779,0.02077211,0.0,9.3574915,-1.1741561,-2.6886961,-0.28949165,0.041156054,0.12569618,0.6231836,-0.49872592,0.5135526,2017-07-16 05:26:13,52.648863122951454
9.108,-1.138,-2.543,0.007331333,-0.0061094444,0.02077211,0.0,9.370233,-1.1218328,-2.6665788,-0.33923244,-0.052167177,0.06457877,0.62346464,-0.4972419,0.51308537,2017-07-16 05:26:14,52.18688913641958
9.019,-1.151,-2.58,0.0061094444,0.0036656666,0.032991,0.0,9.361246,-1.1732033,-2.6760123,-0.32624626,0.047203302,0.044012308,0.622934,-0.4983893,0.51400495,2017-07-16 05:26:15,51.918194253511615
9.077,-1.125,-2.626,0.009775111,0.0024437779,0.017106444,0.0,9.359874,-1.1812383,-2.6772816,-0.244874,0.08023834,0.097281694,0.62277806,-0.49864903,0.51411265,2017-07-16 05:26:16,52.05114136122735
8.994,-1.144,-2.607,0.007331333,0.010997,0.015884556,0.0,9.3747425,-1.1047864,-2.657834,-0.36874294,-0.019213557,0.054834127,0.6235771,-0.4966522,0.5130232,2017-07-16 05:26:17,52.09356853420609
8.987,-1.173,-2.592,0.012218889,0.0061094444,0.026881555,0.0,9.366122,-1.1437856,-2.6716895,-0.3461218,0.02778554,0.11868954,0.62292475,-0.4981797,0.5132253,2017-07-16 05:26:19,54.36466531456307
9.117,-1.152,-2.57,0.012218889,-0.008553222,0.021994,0.0,9.355784,-1.2026098,-2.6820536,-0.23278427,0.08660972,0.09305358,0.6222356,-0.49956936,0.51424783,2017-07-16 05:26:20,52.13034458004248
9.114,-1.109,-2.62,0.013440778,0.0,0.018328333,0.0,9.360894,-1.1753677,-2.676301,-0.2568941,0.10136771,0.081300974,0.62316954,-0.49810952,0.5142122,2017-07-16 05:26:21,51.98266597503899
9.09,-1.115,-2.606,0.013440778,0.0061094444,0.014662666,0.0,9.371497,-1.098403,-2.6718788,-0.3204975,-0.033596992,0.073878765,0.6248866,-0.4957264,0.51293147,2017-07-16 05:26:22,52.50558824402561
8.978,-1.163,-2.573,0.012218889,0.007331333,0.025659667,0.0,9.369859,-1.1116756,-2.6721404,-0.39185905,-0.051324368,0.099140406,0.6239682,-0.4968953,0.5127805,2017-07-16 05:26:23,52.37305443944778
9.079,-1.103,-2.525,0.019550223,0.0012218889,0.028103445,0.0,9.350902,-1.2221582,-2.6902363,-0.32790184,0.073158145,0.16223621,0.6216179,-0.5007545,0.5141032,2017-07-16 05:26:24,52.388253107918445
9.129,-1.124,-2.576,0.009775111,0.0012218889,0.023215888,0.0,9.348102,-1.2433287,-2.6902657,-0.29510117,0.12532866,0.16926575,0.6214827,-0.5009238,0.5147267,2017-07-16 05:26:25,54.50532250094132
9.042,-1.137,-2.527,0.007331333,-0.012218889,0.009775111,0.0,9.368031,-1.152193,-2.6613646,-0.2820301,0.052192926,0.09136462,0.6225444,-0.49812678,0.51379097,2017-07-16 05:26:26,51.767996469570264
9.044,-1.118,-2.576,0.0048875557,0.0012218889,0.025659667,0.0,9.372325,-1.1185733,-2.6605868,-0.41532516,-0.006426692,0.03658676,0.62360555,-0.49675778,0.5133691,2017-07-16 05:26:27,51.23064076274567
8.995,-1.133,-2.615,0.013440778,0.010997,0.029325332,0.0,9.360654,-1.1749938,-2.6772983,-0.30565357,0.072993755,0.09729838,0.6227324,-0.4987069,0.5138727,2017-07-16 05:26:28,52.076499066262485
9.039,-1.132,-2.613,0.014662666,0.010997,0.010997,0.0,9.365132,-1.1588502,-2.6686628,-0.30013275,0.026850224,0.10766268,0.6233507,-0.49749157,0.51415783,2017-07-16 05:26:29,51.70858843608728
9.002,-1.131,-2.555,0.009775111,-0.0024437779,0.025659667,0.0,9.358998,-1.1835715,-2.6793141,-0.35699844,0.052571416,0.12431407,0.6222089,-0.4994628,0.513729,2017-07-16 05:26:30,51.94342135739258
9.081,-1.107,-2.58,0.012218889,-0.0024437779,0.02077211,0.0,9.356288,-1.1964282,-2.6830664,-0.24128819,0.113428235,0.11706638,0.6232362,-0.49837232,0.5146189,2017-07-16 05:26:31,52.85929599893591
9.007,-1.12,-2.606,0.015884556,-0.009775111,0.02077211,0.0,9.363052,-1.174682,-2.6690354,-0.3560524,0.054682016,0.06303549,0.6248006,-0.49568853,0.5155883,2017-07-16 05:26:32,52.62981590427718
9.041,-1.126,-2.602,0.009775111,0.010997,0.024437778,0.0,9.353105,-1.2064085,-2.689684,-0.27210426,0.09840846,0.099684,0.625409,-0.49598315,0.51598126,2017-07-16 05:26:33,52.939924307856224
8.983,-1.103,-2.681,-0.0036656666,0.010997,0.030547222,0.0,9.361604,-1.1722376,-2.6751862,-0.37860394,0.06923759,-0.005813837,0.62624574,-0.49417892,0.5161067,2017-07-16 05:26:34,52.63914906202661
9.071,-1.121,-2.6,0.017106444,0.012218889,0.023215888,0.0,9.358808,-1.1701024,-2.6858807,-0.3028078,0.033102393,0.16288066,0.62651306,-0.49439174,0.51566046,2017-07-16 05:26:35,56.51485828299374
9.068,-1.136,-2.554,0.008553222,-0.0012218889,0.024437778,0.0,9.363944,-1.1502827,-2.6765323,-0.2959442,0.014282703,0.12253237,0.62609035,-0.49444517,0.5152073,2017-07-16 05:26:36,52.82887248050719
9.105,-1.113,-2.589,0.009775111,-0.010997,0.019550223,0.0,9.364736,-1.1744696,-2.663217,-0.31373596,0.0854696,0.059216976,0.6260883,-0.49376076,0.51669025,2017-07-16 05:26:37,52.801599469918195
9.06,-1.133,-2.621,0.014662666,-0.007331333,0.034212887,0.0,9.364617,-1.167345,-2.6667643,-0.36861706,0.02134502,0.07576418,0.62711567,-0.4926389,0.51692164,2017-07-16 05:26:38,53.38858064138405
9.072,-1.112,-2.588,0.013440778,0.009775111,0.019550223,0.0,9.3668785,-1.1504428,-2.6661704,-0.32287884,0.019442797,0.05817032,0.6281813,-0.49124855,0.5170644,2017-07-16 05:26:39,53.24405218436751
8.998,-1.155,-2.588,0.0061094444,0.012218889,0.02077211,0.0,9.365611,-1.1520323,-2.6699405,-0.34761143,0.048032284,0.14494038,0.6289703,-0.4904339,0.517424,2017-07-16 05:26:40,52.55613830027846
9.099,-1.132,-2.572,0.0061094444,0.012218889,0.013440778,0.0,9.371174,-1.1333488,-2.6583881,-0.23517418,0.057348847,0.14138818,0.62905526,-0.48972395,0.5174484,2017-07-16 05:26:41,53.048869360121614
9.073,-1.096,-2.521,0.010997,-0.014662666,0.032991,0.0,9.371155,-1.1326808,-2.6587348,-0.35215473,0.014680743,0.04373479,0.6285755,-0.4903576,0.51710373,2017-07-16 05:26:42,52.97790772890352
9.093,-1.14,-2.573,0.0036656666,-0.0024437779,0.02077211,0.0,9.376206,-1.1152697,-2.6482666,-0.29820633,-0.01273036,0.036266565,0.62882,-0.48949915,0.517215,2017-07-16 05:26:43,52.90674042912557
8.998,-1.131,-2.607,0.013440778,0.0048875557,0.026881555,0.0,9.3756485,-1.1187911,-2.6487641,-0.40464878,-0.051208854,0.060764074,0.6287174,-0.4896568,0.5172415,2017-07-16 05:26:45,52.33098090804191
9.019,-1.114,-2.615,0.018328333,0.015884556,0.009775111,0.0,9.358324,-1.1865399,-2.680357,-0.2693243,0.0975399,0.1063571,0.6289242,-0.49103415,0.51800305,2017-07-16 05:26:46,52.643558779166675
9.112,-1.112,-2.539,0.012218889,0.010997,0.017106444,0.0,9.370655,-1.1384327,-2.6580486,-0.2916546,-0.011567235,0.09704852,0.6301843,-0.48825252,0.5183504,2017-07-16 05:26:47,52.07923927665166
9.035,-1.152,-2.541,0.007331333,-0.0061094444,0.030547222,0.0,9.361795,-1.1727645,-2.6742883,-0.3187952,0.05376458,0.13528824,0.63056594,-0.48860756,0.51889133,2017-07-16 05:26:48,52.831976470760864
9.09,-1.131,-2.557,0.012218889,-0.0036656666,0.018328333,0.0,9.35613,-1.1908568,-2.6860938,-0.2991295,0.09385681,0.09009385,0.63136816,-0.48818737,0.5193834,2017-07-16 05:26:49,53.7428304949898
9.014,-1.133,-2.679,0.007331333,0.0024437779,0.026881555,0.0,9.36786,-1.1453952,-2.6648993,-0.3538599,0.0123951435,-0.014100552,0.63145083,-0.48697218,0.5190308,2017-07-16 05:26:50,51.92618040751658
9.022,-1.137,-2.586,0.015884556,0.018328333,0.02077211,0.0,9.354041,-1.1976794,-2.6903343,-0.25504112,0.056679368,0.11233425,0.63061494,-0.4893809,0.51891875,2017-07-16 05:26:51,53.14268214674911
9.11,-1.125,-2.582,0.0061094444,0.0061094444,0.008553222,0.0,9.364808,-1.1620144,-2.6684284,-0.24080849,0.06201434,0.09142852,0.6307265,-0.4880943,0.518939,2017-07-16 05:26:52,54.142112697017794
9.056,-1.13,-2.53,0.018328333,-0.0048875557,0.02077211,0.0,9.369641,-1.1254451,-2.667137,-0.32164097,0.011445165,0.13413692,0.63119256,-0.48742393,0.5180958,2017-07-16 05:26:53,51.767184053715255
9.122,-1.122,-2.576,0.012218889,-0.010997,0.03176911,0.0,9.358976,-1.1989975,-2.672523,-0.32497597,0.074997544,0.083523035,0.6305749,-0.4885039,0.5198462,2017-07-16 05:26:54,52.29825197005017
9.087,-1.102,-2.63,0.0048875557,0.0036656666,0.021994,0.0,9.355903,-1.1953485,-2.6848874,-0.28090286,0.08134854,0.034887314,0.631659,-0.487748,0.51977336,2017-07-16 05:26:55,51.95598609638324
9.061,-1.103,-2.59,0.008553222,0.008553222,0.017106444,0.0,9.364959,-1.1312673,-2.6810749,-0.35195923,-0.019732714,0.04907489,0.6326286,-0.48628983,0.5184823,2017-07-16 05:26:56,52.23984934875369
8.974,-1.152,-2.6,0.018328333,0.008553222,0.03176911,0.0,9.354132,-1.1935028,-2.6918762,-0.34713173,0.1045028,0.1158762,0.63082314,-0.48919287,0.51883364,2017-07-16 05:26:57,52.97194459619057
9.095,-1.14,-2.543,0.013440778,0.0024437779,0.025659667,0.0,9.336157,-1.2727753,-2.7178326,-0.31215668,0.14877534,0.14883256,0.6301125,-0.4914561,0.5196496,2017-07-16 05:26:58,51.84359459766813
9.114,-1.096,-2.551,0.0024437779,-0.007331333,0.014662666,0.0,9.349319,-1.205105,-2.7034044,-0.21031952,0.074104905,0.15140438,0.6311594,-0.48935983,0.51883394,2017-07-16 05:26:59,52.950742040691814
9.02,-1.157,-2.511,0.013440778,-0.02077211,0.023215888,0.0,9.363621,-1.1327809,-2.6851087,-0.33362103,0.0047808886,0.08410859,0.6316084,-0.487825,0.5176806,2017-07-16 05:27:00,53.03118763368022
8.986,-1.151,-2.571,0.012218889,-0.0048875557,0.030547222,0.0,9.356542,-1.2005789,-2.680329,-0.40754128,0.045578957,0.05032897,0.63025284,-0.48932618,0.51929784,2017-07-16 05:27:01,52.31214161088457
9.051,-1.101,-2.645,0.017106444,0.012218889,0.026881555,0.0,9.35538,-1.2072929,-2.6813612,-0.26937962,0.11329293,0.057361126,0.63054955,-0.48899758,0.5196499,2017-07-16 05:27:02,52.68962256076078
9.034,-1.109,-2.627,0.017106444,0.018328333,0.013440778,0.0,9.367083,-1.139126,-2.670314,-0.34808254,0.018125892,0.08831406,0.63139445,-0.48732862,0.5185118,2017-07-16 05:27:03,52.94716804087612
8.998,-1.122,-2.59,0.014662666,0.0061094444,0.023215888,0.0,9.369607,-1.1383044,-2.6617925,-0.31960678,0.007304311,0.09279251,0.6300226,-0.48865652,0.51805216,2017-07-16 05:27:05,52.357466439997786
9.077,-1.12,-2.551,0.007331333,-0.0048875557,0.025659667,0.0,9.355151,-1.2218099,-2.6755774,-0.34515095,0.08180988,0.1505773,0.6290387,-0.49063918,0.5194762,2017-07-16 05:27:06,52.373780289725644
9.127,-1.12,-2.569,0.012218889,-0.019550223,0.02077211,0.0,9.3594475,-1.1971532,-2.6716979,-0.24244785,0.108153224,0.07169795,0.62957364,-0.48975065,0.5192008,2017-07-16 05:27:07,52.80607002791366
9.108,-1.12,-2.609,0.012218889,-0.0024437779,0.019550223,0.0,9.374207,-1.1134079,-2.6561246,-0.3272066,0.0044078827,0.013124704,0.6307033,-0.48748133,0.51795113,2017-07-16 05:27:08,53.23808052010922
9.01,-1.121,-2.631,0.024437778,0.0024437779,0.030547222,0.0,9.372851,-1.1308235,-2.6535468,-0.364851,-0.009176493,0.074546814,0.629522,-0.4888714,0.51790863,2017-07-16 05:27:09,52.59385354268176
9.022,-1.137,-2.621,0.0048875557,0.019550223,0.0061094444,0.0,9.36866,-1.1452714,-2.6621299,-0.28265953,0.035271406,0.089129925,0.62934864,-0.48954177,0.5178383,2017-07-16 05:27:10,52.223682417845616
9.044,-1.102,-2.521,0.015884556,0.0061094444,0.028103445,0.0,9.371668,-1.1109163,-2.6661034,-0.336668,9.162426E-4,0.07610345,0.630304,-0.4885185,0.5171034,2017-07-16 05:27:11,52.04864794562085
9.095,-1.097,-2.534,0.009775111,-0.014662666,0.021994,0.0,9.364533,-1.1575462,-2.671326,-0.25653362,0.065546155,0.11832595,0.6295721,-0.48973328,0.51791555,2017-07-16 05:27:12,52.50426977526622
8.998,-1.108,-2.566,0.012218889,-0.029325332,0.028103445,0.0,9.376755,-1.1158198,-2.6460984,-0.40275478,-0.0021802187,0.013098478,0.62944996,-0.4885757,0.517746,2017-07-16 05:27:13,52.773318951095334
9.051,-1.124,-2.63,0.0036656666,0.0036656666,0.024437778,0.0,9.36927,-1.1493613,-2.6582189,-0.40826988,-0.0066387653,-0.03378105,0.6284935,-0.4904359,0.5176319,2017-07-16 05:27:14,53.62003975689983
9.031,-1.15,-2.645,0.008553222,0.017106444,0.015884556,0.0,9.369928,-1.1265193,-2.6656682,-0.39592838,-0.020480633,0.09166837,0.62914854,-0.48998302,0.5169089,2017-07-16 05:27:15,52.27711414093483
9.031,-1.09,-2.509,0.019550223,0.0061094444,0.023215888,0.0,9.357903,-1.154788,-2.6956527,-0.3269024,0.064787984,0.18665266,0.6291458,-0.4915441,0.516314,2017-07-16 05:27:16,52.53908288829641
9.106,-1.118,-2.525,-0.010997,-0.013440778,0.028103445,0.0,9.357753,-1.1735501,-2.688061,-0.32875252,0.060550094,0.057060957,0.6282809,-0.49225613,0.5167774,2017-07-16 05:27:17,52.00634933464373
9.006,-1.128,-2.608,0.0012218889,-0.013440778,0.028103445,0.0,9.374105,-1.1114154,-2.6573093,-0.354105,0.013415337,-0.005690813,0.62844133,-0.49045545,0.5163829,2017-07-16 05:27:18,51.91615501450702
8.957,-1.118,-2.632,0.023215888,0.0048875557,0.029325332,0.0,9.363867,-1.1696482,-2.668395,-0.40686703,0.050648212,0.049395084,0.62783253,-0.49180952,0.5173676,2017-07-16 05:27:19,52.583100900755724
9.072,-1.14,-2.586,0.009775111,0.019550223,0.017106444,0.0,9.353978,-1.1887237,-2.694515,-0.2589779,0.07572365,0.08751488,0.6288895,-0.491813,0.51733166,2017-07-16 05:27:20,52.112602839388344
9.072,-1.112,-2.561,0.010997,0.0036656666,0.009775111,0.0,9.361098,-1.1341202,-2.6933281,-0.3290987,0.02112019,0.09932804,0.63013864,-0.4901498,0.5163752,2017-07-16 05:27:21,51.72527799511894
8.995,-1.091,-2.547,0.010997,0.0012218889,0.036656667,0.0,9.35776,-1.1820275,-2.6843152,-0.33876038,0.07302749,0.072315216,0.62922686,-0.49085185,0.51784265,2017-07-16 05:27:22,52.08662386241671
9.005,-1.127,-2.597,0.014662666,-0.0012218889,0.040322334,0.0,9.346033,-1.2545246,-2.6922567,-0.39403343,0.11152458,0.11025667,0.62840766,-0.4923116,0.5193043,2017-07-16 05:27:23,52.82546074023686
9.092,-1.124,-2.58,0.013440778,-0.0048875557,0.008553222,0.0,9.34592,-1.2471344,-2.696083,-0.3089199,0.13313448,0.10508299,0.6292718,-0.4914051,0.5194042,2017-07-16 05:27:24,52.285207976293655
9.059,-1.108,-2.579,0.012218889,0.009775111,0.012218889,0.0,9.359053,-1.1347973,-2.7001398,-0.22305298,0.03779733,0.114139795,0.6318774,-0.48826197,0.5171473,2017-07-16 05:27:26,52.72421631584007
9.132,-1.08,-2.621,0.0024437779,0.013440778,0.012218889,0.0,9.371266,-1.0322851,-2.6989148,-0.23026657,-0.034714937,0.1129148,0.63316125,-0.4865318,0.51463187,2017-07-16 05:27:27,52.382862149349634
9.117,-1.114,-2.607,0.019550223,-0.0036656666,0.018328333,0.0,9.381687,-0.98830354,-2.6791055,-0.3736868,-0.16269648,0.13710546,0.63220793,-0.4867335,0.5135626,2017-07-16 05:27:28,52.6462368099563
8.97,-1.162,-2.555,0.0012218889,-0.0048875557,0.019550223,0.0,9.378051,-1.0676833,-2.6613185,-0.33905125,-0.05731666,0.078318596,0.6292507,-0.4896254,0.5152331,2017-07-16 05:27:29,51.953570140818066
9.034,-1.137,-2.604,0.012218889,-0.010997,0.036656667,0.0,9.366139,-1.1913582,-2.6507533,-0.40713978,0.030358195,0.067753315,0.6270599,-0.4918808,0.5184978,2017-07-16 05:27:30,52.50426816698783
9.087,-1.084,-2.646,0.010997,0.0048875557,0.019550223,0.0,9.358112,-1.2298378,-2.6615152,-0.31711197,0.13483775,0.067515135,0.6273686,-0.49204484,0.5194125,2017-07-16 05:27:31,52.874552389686386
9.105,-1.103,-2.61,0.010997,0.009775111,0.014662666,0.0,9.3703785,-1.127584,-2.6636393,-0.26537895,0.024583936,0.053639412,0.62961537,-0.48927733,0.5173445,2017-07-16 05:27:32,52.58391085564199
9.025,-1.13,-2.54,0.0061094444,0.0012218889,0.024437778,0.0,9.37313,-1.08476,-2.6717253,-0.33512974,-0.039240003,0.083725214,0.63057494,-0.4884622,0.5161189,2017-07-16 05:27:33,51.81757072280206
9.034,-1.108,-2.57,0.007331333,-0.0061094444,0.025659667,0.0,9.353725,-1.1857544,-2.6967072,-0.31472588,0.06375444,0.11770725,0.6292557,-0.4914581,0.51735175,2017-07-16 05:27:34,52.37547238065087
9.068,-1.121,-2.535,0.012218889,-0.0012218889,0.028103445,0.0,9.35558,-1.1840532,-2.6910074,-0.26058006,0.072053194,0.070007324,0.62999284,-0.4902165,0.51804835,2017-07-16 05:27:35,51.8058305331827
9.054,-1.139,-2.609,0.018328333,0.0012218889,0.018328333,0.0,9.36969,-1.121247,-2.6687357,-0.34768963,-0.034752965,0.08873582,0.6312685,-0.4874092,0.51792353,2017-07-16 05:27:36,51.917959831538056
8.969,-1.152,-2.578,0.014662666,0.0012218889,0.030547222,0.0,9.357729,-1.1899986,-2.6809008,-0.38072872,0.055998683,0.05990076,0.6301863,-0.48944163,0.51888055,2017-07-16 05:27:37,52.16304120094211
9.079,-1.11,-2.634,0.0048875557,0.0036656666,0.023215888,0.0,9.346746,-1.231506,-2.7003996,-0.32374668,0.13750601,0.12739968,0.63025206,-0.4903717,0.51928324,2017-07-16 05:27:38,51.87387306317995
9.105,-1.086,-2.574,0.009775111,-0.0061094444,0.019550223,0.0,9.3585415,-1.166977,-2.6881757,-0.25354195,0.08097708,0.1141758,0.63105583,-0.48869964,0.51829964,2017-07-16 05:27:39,52.18226135470736
9.01,-1.177,-2.567,0.014662666,0.0,0.03176911,0.0,9.356302,-1.1868223,-2.687283,-0.36430264,0.024822354,0.09628296,0.6303815,-0.48952267,0.518573,2017-07-16 05:27:40,51.76563567407165
9.074,-1.13,-2.607,0.0024437779,0.0061094444,0.018328333,0.0,9.346528,-1.2305226,-2.7015975,-0.31852818,0.104522586,0.06459737,0.6309292,-0.48956257,0.51961035,2017-07-16 05:27:41,51.952333663561696
8.993,-1.112,-2.65,0.007331333,0.013440778,0.019550223,0.0,9.360977,-1.1698663,-2.6784208,-0.2989769,0.0698663,0.048420668,0.63198924,-0.48698157,0.51947963,2017-07-16 05:27:42,51.94363369748665
9.073,-1.107,-2.576,0.017106444,0.0048875557,0.026881555,0.0,9.349121,-1.2096183,-2.7020645,-0.30612087,0.08461833,0.13106441,0.63133067,-0.48906904,0.519156,2017-07-16 05:27:43,52.46565572205676
