ACC_X,ACC_Y,ACC_Z,GYRO_X,GYRO_Y,GYRO_Z,LIGH_1,GRAV_X,GRAV_Y,GRAV_Z,LINACC_X,LINACC_Y,LINACC_Z,ROTVEC_X,ROTVEC_Y,ROTVEC_Z,TIME,VOICE
6.8186865,3.083732,5.66947,0.766025,-0.66706485,0.98471475,0.0,7.4101,4.8034,4.2646,2.2556,-2.0692,-0.1354,-0.394036,-0.356787,-0.836104,2017-10-19 22:03:24,40.027862034543055
9.576807,5.3438582,1.532289,0.014660765,0.02443461,0.6621779,1.0,8.2024,3.5623,4.0249,1.3321999,1.7565,-2.513,0.508328,0.209672,0.835191,2017-10-19 22:03:25,47.915571917125526
7.967903,3.620033,4.223372,-0.312763,-0.05009095,-0.6291912,1.0,7.9068,3.187,4.8471,-2.4994,-0.3867,1.9369999,0.489484,0.115196,0.8544,2017-10-19 22:03:26,65.97290169005427
7.843405,-1.3120226,7.28795,0.43982297,0.63529986,-0.8820894,1.0,6.8262997,3.5605998,6.0738997,0.8217,-4.4296,0.7341,0.41893,0.121702,0.882235,2017-10-19 22:03:27,47.84210062115332
5.7843914,3.9552212,7.2209125,-1.2144,-0.1600467,-0.5155703,0.0,5.4467,3.5312998,7.3506,-0.56769997,1.9346999,2.5506,0.328843,0.120808,0.917244,2017-10-19 22:03:28,63.100922654956115
7.249643,4.865018,6.742072,-0.82711154,-0.32375857,-0.25411993,1.0,6.9631,3.6016998,5.8917,0.65489995,1.1972,0.8093,0.418047,0.165465,0.888987,2017-10-19 22:03:29,63.76367734512861
3.5051112,2.767697,0.02873042,-0.7171558,-0.22235495,0.55955255,1.0,6.9765997,4.5106997,5.2105,-2.7909,-1.5888,-2.9782,0.429419,0.217117,0.87337,2017-10-19 22:03:30,56.0008403510207
5.133168,1.8770541,4.7979803,0.2968805,0.42638394,-0.43493605,1.0,6.9694,3.6915998,5.8282,-1.1852,-1.7076,-0.3919,0.401951,0.202307,0.892729,2017-10-19 22:03:31,64.36427085711213
13.962984,1.0055647,9.615114,-0.7538077,0.17959438,0.6169739,1.0,6.4585,3.2416,6.6294,7.6047997,-1.2947,2.4317,-0.349924,-0.198861,-0.914208,2017-10-19 22:03:32,67.79320702011523
7.843405,3.2273839,10.352529,-0.18448131,0.97249746,0.71837753,1.0,6.6031,1.6826999,7.0523996,-0.6015,1.0065,1.2615,0.362354,0.064526,0.925741,2017-10-19 22:03:33,56.8901670977654
7.9104424,3.1028855,0.9672575,-0.77457714,-1.0665708,-0.57176983,1.0,8.578,2.475,4.0572,0.0625,0.37739998,-3.026,-0.507353,-0.189029,-0.838339,2017-10-19 22:03:34,52.31685457463566
4.4819455,-2.4612393,11.712435,-1.2156218,1.205848,0.13316862,0.0,5.0624,1.155,8.319099,-0.3581,-4.7395997,1.0188999,0.257016,0.062374,0.964369,2017-10-19 22:03:36,60.52016137834418
4.10845,3.0550013,4.5202527,-1.0592403,-0.28344148,-0.8539896,1.0,6.4428997,2.6764998,6.8915997,-2.0881,0.0082,-3.6762998,0.358112,0.137141,0.923373,2017-10-19 22:03:37,58.198231164698626
5.094861,1.6089035,7.0006456,0.05742133,-0.14172074,0.21991149,0.0,5.4453998,2.5444999,7.7486997,0.3161,-0.3004,-1.8894,-0.298061,-0.158137,-0.939296,2017-10-19 22:03:38,59.13549756971858
7.795521,2.8060043,7.393295,-0.15515977,0.6927212,0.9541715,1.0,6.4093,2.9673,6.8033,1.6230999,-0.0778,1.041,-0.34005,-0.187946,-0.918284,2017-10-19 22:03:39,61.05471588858495
5.8801594,3.083732,6.5984197,0.24923302,0.18081611,0.43249258,1.0,6.4273,3.1555,6.7008,-0.0817,0.0959,-0.2583,-0.343426,-0.201185,-0.914635,2017-10-19 22:03:40,68.84186890406595
7.8146744,-0.047884032,9.902418,-0.020769417,-0.36774087,0.5448918,1.0,5.4835997,0.035099998,8.1301,1.9547,0.0039,0.6792,-0.290654,-0.049108,-0.944076,2017-10-19 22:03:41,63.38999215758907
15.868769,2.5378537,11.903971,-1.9449949,1.9010127,1.4135422,1.0,8.7409,1.5241,4.1763997,6.5772,0.50879997,6.9452,-0.475222,-0.247437,-0.804771,2017-10-19 22:03:42,50.915342698145565
7.422025,6.0525417,3.3327289,0.07819075,-0.09407324,0.04642576,1.0,7.9852996,5.206,2.3025,-0.6561,1.2823,-0.92999995,-0.455671,-0.424579,-0.769939,2017-10-19 22:03:43,58.198613973239375
7.9104424,3.9264908,6.167464,-0.32620203,1.8973475,1.0238101,1.0,7.1411,4.5123,4.9813,0.3487,-0.119399995,-0.82589996,-0.348993,-0.352455,-0.846082,2017-10-19 22:03:44,60.69348769399524
1.8291701,3.1316159,8.485051,-0.15271631,0.33841935,-0.29443705,0.0,4.8863,1.1563,8.4235,-2.074,1.4175999,0.8355,0.250778,-0.06012,0.847822,2017-10-19 22:03:45,60.48894923862828
5.2863975,3.0071173,4.8458643,1.237613,0.9260717,-0.095294975,0.0,6.62,2.8673,6.6425,-1.4814,0.0716,-1.6216999,0.399992,0.035127,0.858042,2017-10-19 22:03:46,54.02980940876917
5.841852,2.0398598,8.485051,-0.6731735,0.26267204,0.54244834,0.0,5.1066,1.3765999,8.2581,0.97029996,-0.304,0.86429995,0.272742,0.067533,0.95950997,2017-10-19 22:03:47,56.99419474103921
3.667917,1.2258313,6.943185,1.4892894,0.59620446,0.68050385,0.0,2.7993,2.8927999,8.9423,0.4635,-1.8662,-1.8037,0.158316,0.147417,0.972172,2017-10-19 22:03:48,57.02677261297773
4.8745947,2.815581,7.9104424,0.38240165,0.5656612,0.49357912,0.0,4.917,1.9391999,8.2602,0.0819,0.5331,-0.24579999,0.270741,0.05894,0.946783,2017-10-19 22:03:49,60.9215517700056
2.2984335,1.3694834,10.323798,-0.747699,-0.9773844,-1.3133602,0.0,4.3254,3.0252,8.2649,-1.9911,-1.4108,2.2305,0.264323,0.093481,0.925015,2017-10-19 22:03:50,63.69097253245446
2.4899697,2.585738,7.929596,0.20158553,-0.3213151,0.5375614,0.0,4.0692997,3.2236,8.3197,-1.3219999,-0.8451,-0.40359998,-0.210128,-0.185971,-0.957686,2017-10-19 22:03:51,60.93091079644615
4.5872903,2.5761611,7.2687964,1.1191051,-0.48624873,0.8173377,0.0,5.3464,5.1805,6.3834,-0.7905,-2.6341999,0.8548,-0.141359,-0.393132,-0.815723,2017-10-19 22:03:52,55.6502846975679
5.544971,7.07726,5.985504,-0.8491027,-1.6493361,1.6371188,0.0,6.9192996,5.5455,4.1881,-0.3797,0.048899997,-0.1566,-0.220383,-0.493637,-0.719941,2017-10-19 22:03:53,56.02622425127865
9.337387,2.2409728,5.2768207,1.0201449,-0.33475414,0.59131753,1.0,8.8973,3.5540998,2.0916,-0.8171,-1.7361,3.5965998,-0.423047,-0.472955,-0.689245,2017-10-19 22:03:54,59.42802850425031
8.485051,2.2505496,0.78529817,0.09285152,0.30543262,-0.02443461,0.0,9.2849,2.9817,1.0339999,0.5097,-0.19029999,-1.1465,-0.48747,-0.458343,-0.672848,2017-10-19 22:03:55,66.59346151672776
10.0269165,3.4476504,2.4037786,0.5314528,0.27855456,0.3371976,1.0,9.104,2.7867,2.3493,0.8678,0.37809998,0.1114,-0.432131,-0.441056,-0.689644,2017-10-19 22:03:56,70.70753420433091
7.5082164,3.4476504,2.4037786,-0.95172805,0.31154126,-0.22235495,1.0,8.9706,2.6313999,2.9621,-0.6847,0.1321,-0.72959995,-0.409525,-0.420262,-0.705134,2017-10-19 22:03:57,77.81890027743049
7.1251445,-3.4284968,-3.7541082,-1.3805554,-5.362175,1.3023647,2.0,7.8875,-0.2462,-5.8219,-0.1559,-3.5379,0.83669996,-0.889794,-0.180076,-0.401713,2017-10-19 22:03:58,73.56734627857597
2.327164,-9.097966,2.9975405,-2.2968533,1.3219124,-0.45081854,2.0,5.6777,-7.3696,3.1018,-3.4671998,-1.5606999,-0.311,-0.460893,0.359756,-0.785729,2017-10-19 22:03:59,58.82256719319778
5.0182467,-8.580819,3.8498764,-0.32253686,-1.2021828,0.18081611,1.0,4.4319997,-8.5849,1.681,0.6181,0.110999994,2.087,-0.33909,0.556601,-0.756454,2017-10-19 22:04:00,44.768661675292336
11.453861,-9.643845,-0.641646,-1.6065756,-0.16126843,0.39950585,2.0,5.1805997,-8.3249,-0.1609,6.2405996,-1.2778,-0.4757,-0.689175,0.217811,-0.534521,2017-10-19 22:04:01,45.21550128639815
2.6240451,-9.509769,1.685518,1.5858061,-0.02565634,-0.96516705,1.0,3.8137,-8.8679,1.7275,-1.8987999,-0.0753,0.6281,-0.526937,0.36641,-0.65093,2017-10-19 22:04:02,48.8039202208816
1.9632454,-10.448297,11.3964,1.9792033,-1.060462,-1.6566665,1.0,5.1593,-6.7827997,4.8522997,-3.27,-3.6113,6.3938,0.234926,-0.426461,0.857175,2017-10-19 22:04:03,47.13862175190765
0.58418524,2.327164,11.329363,0.23945917,0.43127087,-0.47525316,0.0,-0.0109,0.84499997,9.7701,0.88379997,1.4361,0.3067,0.010823,-0.047904998,-0.981734,2017-10-19 22:04:04,60.876072842388425
-2.5187001,3.1316159,5.257667,3.0921998,2.2479842,2.3921483,0.0,-0.2199,3.8316998,9.0243,-2.1817,0.044299997,-4.6026,0.129923,-0.204891,-0.880651,2017-10-19 22:04:05,60.8988025851345
-6.6654577,7.8912888,-3.016694,-4.7073274,-0.2687807,4.3127084,1.0,3.0579,8.881,2.8186998,-7.1805,-3.7428,-1.6055,-0.135393,-0.529748,-0.827829,2017-10-19 22:04:06,50.97394534701401
4.213795,-7.872135,5.1235914,-2.6841419,0.8527679,-1.7055358,1.0,5.6594,-5.8547,5.4646997,-1.8305999,-2.4352,0.8361,-0.482707,0.071658,-0.695129,2017-10-19 22:04:07,59.64696929379642
11.061212,-7.0581064,6.445191,0.57176983,0.6743952,-1.2754866,2.0,7.0334,-5.7464,3.6985,3.8107,-1.0925,2.7180998,-0.504395,0.23877,-0.805442,2017-10-19 22:04:08,56.34993619852659
5.1235914,0.06703765,9.548077,0.88086766,0.57665676,1.7788396,1.0,2.5007,0.058,9.4822,1.9499999,0.6673,-0.522,-0.128241,-0.028881,-0.979375,2017-10-19 22:04:09,58.325820340769674
4.1276035,-0.18195933,8.207323,-0.48747045,-0.23457225,-0.9224065,1.0,4.6665,-0.5232,8.6092,-0.5685,0.34899998,-0.4493,-0.250218,0.011508,-0.965971,2017-10-19 22:04:10,54.249549686548036
5.48751,-1.0342951,7.374141,0.24556783,0.14538592,-0.034208454,1.0,5.3828,-0.5179,8.1807995,-0.5133,-0.20529999,-0.931,-0.287344,0.018002,-0.957125,2017-10-19 22:04:11,59.52550088770914
3.7445314,0.4309563,11.3964,0.19547687,0.93951076,0.18081611,1.0,3.5498998,0.8404,9.102799,0.092099994,-0.5793,2.4380999,-0.167189,-0.063583,-0.974957,2017-10-19 22:04:12,44.96015514242069
6.493075,-0.08619126,6.253655,0.3921755,-1.3206906,0.344528,0.0,5.6404,1.4800999,7.8844,0.4243,-0.2609,-3.2124,-0.280117,-0.140977,-0.934611,2017-10-19 22:04:13,53.16677065635343
2.633622,0.82360536,8.331821,0.68783426,0.42027527,0.06841691,0.0,2.7461998,0.7346,9.3855,-0.2676,0.105399996,-0.8858,-0.13294,-0.057767,-0.982849,2017-10-19 22:04:14,52.23685753236999
3.9456444,2.2218192,9.136273,0.09896017,-0.16615534,0.35552356,0.0,3.6053998,2.1915,8.8525,0.2913,-0.1223,0.35549998,-0.138183,-0.1742,-0.911279,2017-10-19 22:04:15,49.1696448723253
4.232949,0.6703765,8.801085,0.096516706,0.021991149,0.4288274,0.0,4.1349,0.64169997,8.8691,0.1125,-0.0464,-0.1317,-0.16549,-0.143954,-0.822945,2017-10-19 22:04:16,48.962740430265434
3.7924154,1.1492168,10.381259,-0.12339478,0.16982053,-0.45570546,0.0,3.8853,1.2211,8.920899,-0.058399998,-0.0596,1.395,-0.115996,-0.178053,-0.754341,2017-10-19 22:04:17,48.97312955996916
5.161899,4.2999864,8.025364,-1.065349,-1.1496484,-1.219287,0.0,4.2812,4.755,7.4315996,-0.1129,-0.7065,-0.1981,-0.118238,-0.327274,-0.868409,2017-10-19 22:04:18,57.668474237354474
4.012682,4.596867,7.5848308,-0.28344148,0.4251622,0.593761,0.0,3.9276998,5.7792,6.8806,0.1735,-0.97029996,0.43379998,-0.113975,-0.369045,-0.88191,2017-10-19 22:04:19,63.01550354026376
6.6654577,2.4133554,7.383718,0.5094616,0.5510004,0.18692476,0.0,4.8055997,2.0147998,8.3076,1.6256,0.4964,-0.96999997,-0.128396,-0.239336,-0.766293,2017-10-19 22:04:20,55.58861022974967
2.6623523,0.58418524,9.768343,-0.49846604,0.014660765,-1.3390166,0.0,3.1267,0.9291,9.248199,-0.3261,-0.4233,0.5367,-0.120246,-0.118364,-0.870304,2017-10-19 22:04:21,60.97165490837419
2.96881,1.3790601,10.0269165,-0.28099802,-0.75625116,-0.4605924,1.0,2.5739,0.8114,9.427899,0.6899,0.7148,-0.0164,-0.112522,-0.098421,-0.895853,2017-10-19 22:04:22,63.27761380998443
6.1387334,-0.80445176,6.7708025,0.58276546,0.39950585,0.1685988,1.0,5.8272,0.2651,7.8831,0.60929996,-1.0311999,-1.1517,-0.298195,-0.097602,-0.915056,2017-10-19 22:04:23,64.4166731742253
1.6759412,3.6391866,7.565677,0.64873886,-0.8417723,1.2302825,1.0,5.2181997,1.6159999,8.144199,-3.29,2.4464998,-1.7472999,-0.242494,-0.188129,-0.883949,2017-10-19 22:04:24,61.6155473351597
7.1059904,-1.8579005,5.2289367,-0.23579398,0.10629055,1.110553,1.0,7.4391,-1.6731,6.1668997,-0.4016,-0.065,-1.1243,-0.220721,-0.369941,-0.281068,2017-10-19 22:04:25,60.84423873928536
7.651869,-2.9975405,5.6407394,0.0036651914,0.036651913,-0.2125811,2.0,7.3243,-2.6181,5.9723,0.7334,-0.6357,-0.213,-0.319209,-0.309903,-0.392722,2017-10-19 22:04:26,66.70991310460268
8.1402855,-1.7812861,5.861006,-0.15760323,0.4691445,-0.312763,2.0,7.6926,-2.2019,5.6695,0.4125,0.4368,0.15959999,-0.321435,-0.323543,-0.429999,2017-10-19 22:04:27,57.67176101367266
6.9719152,-2.5570073,6.4068837,-0.07086037,-0.14660765,0.072082095,2.0,7.0134997,-2.6023,6.3409996,-0.0134,0.0150999995,-0.4951,-0.362999,-0.211968,-0.575451,2017-10-19 22:04:28,64.16631190342534
6.9719152,-4.003105,6.339846,0.26145032,-0.14660765,0.04520403,2.0,6.8531,-3.4169,6.1261,-0.058199998,-0.47079998,0.103099994,-0.38992,-0.189202,-0.547972,2017-10-19 22:04:29,68.05429908252711
7.345411,2.1164744,7.2783732,0.5729916,-0.8857546,-1.5210544,2.0,7.2075,1.5874,6.4577,-0.8653,-0.88839996,1.2411,-0.28212,-0.30192,-0.750287,2017-10-19 22:04:30,64.52166092089041
7.6135616,4.912902,1.8866309,0.13316862,-0.36163223,0.4373795,2.0,7.7091,4.9790998,3.4564,0.1704,-0.0391,-1.7262,-0.349498,-0.450981,-0.772383,2017-10-19 22:04:31,67.12332258192097
7.1730285,5.4204726,5.2768207,0.68050385,0.36285394,0.1563815,2.0,6.6721997,5.5639,4.5491,0.0744,-0.52849996,0.98109996,-0.273283,-0.441171,-0.812915,2017-10-19 22:04:32,68.37394055752172
7.7189064,3.763685,5.2002063,0.33475414,0.9505063,-0.28832838,2.0,7.0734,4.659,4.9426,0.6128,-0.7572,0.73289996,-0.321113,-0.371935,-0.839574,2017-10-19 22:04:33,59.98438439105299
6.789956,5.209783,3.169923,0.5290093,0.10506882,-0.05497787,1.0,7.1973996,4.6934,4.7263,-0.4041,0.4046,-1.5308,-0.330335,-0.387174,-0.825687,2017-10-19 22:04:34,59.4379999974786
5.1523223,6.081272,5.9184666,0.20647246,-0.2406809,-0.10384709,0.0,5.9198,5.8999,5.1299996,-0.5427,0.35,1.0252,-0.218151,-0.436863,-0.827283,2017-10-19 22:04:35,61.707908021711475
7.7093296,4.232949,4.3861775,1.1239921,0.14172074,0.21013764,0.0,7.7527,4.6782,3.7654998,0.156,-0.5901,1.0424,-0.327172,-0.448292,-0.767035,2017-10-19 22:04:36,56.636547762051
8.465898,4.0701427,1.283292,0.57176983,-0.111177474,0.27488935,1.0,8.8487,4.0663,1.155,-0.35639998,-0.014699999,-0.0422,-0.144543,-0.648612,-0.45033,2017-10-19 22:04:37,57.9036780937745
7.8912888,2.0398598,5.1810527,-0.21135937,0.37018433,-0.90041536,1.0,7.529,2.1531,5.9031997,0.2924,-0.368,-0.8006,-0.065775,-0.441241,-0.370254,2017-10-19 22:04:38,55.155664703778356
8.264784,3.514688,2.834735,0.93584555,0.05497787,0.015882496,1.0,7.395,4.9929,4.0685997,0.89769995,-1.3278999,-1.4095,1.75E-4,-0.54678,-0.473903,2017-10-19 22:04:39,59.1106134222814
6.7133417,5.3438582,4.232949,0.004886922,-0.204029,-0.035430185,1.0,6.79,5.7748,4.0885,-0.43609998,-0.7502,-0.292,0.021027,-0.54003197,-0.515772,2017-10-19 22:04:40,58.01213786869173
7.2209125,5.583278,2.6910827,-0.10629055,-0.48747045,0.3042109,1.0,6.4547997,5.625,4.7815,0.3515,-0.17799999,-1.4294,-0.019247,-0.503702,-0.591947,2017-10-19 22:04:41,66.73946089390506
5.755661,5.803545,5.8801594,-0.6939429,-0.8417723,-0.2125811,0.0,6.0162,5.7567,5.1802,-0.2473,0.12109999,-0.21169999,-0.076458,-0.4809,-0.691126,2017-10-19 22:04:42,65.88133938516275
6.588843,5.6886234,3.763685,0.22113322,0.10629055,-0.061086524,0.0,6.7475996,5.637,4.3431,0.1064,0.0942,0.0308,-0.147209,-0.504483,-0.70883,2017-10-19 22:04:43,59.732033035458954
7.2687964,4.0701427,3.3901896,0.16737707,-0.13194689,0.28832838,0.0,7.8396997,4.3642,3.9575999,-0.60789996,-0.3139,-0.592,-0.252341,-0.486205,-0.695412,2017-10-19 22:04:44,54.312740057177784
8.599973,3.6870706,3.9935284,0.10873401,-0.02687807,-0.19303341,1.0,7.9058,4.1761,4.0281997,-0.7626,-0.3996,-0.3001,-0.226242,-0.493384,-0.666122,2017-10-19 22:04:45,50.78859324732502
7.28795,4.9799395,4.098873,-0.35063663,-0.2003638,-0.40194932,0.0,6.9641,5.2274,4.5105,0.2518,-0.2003,-0.4118,-0.214665,-0.472779,-0.750839,2017-10-19 22:04:46,49.43620924563718
8.7053175,2.825158,4.606444,-1.8203784,-1.6798794,-0.7611381,4.0,7.759,4.565,3.8895,1.503,-1.3687999,0.2119,-0.416957,-0.357541,-0.82259,2017-10-19 22:04:47,66.17029412603311
7.192182,4.5681367,5.7843914,0.24556783,-0.4618141,0.37873644,4.0,6.3894997,5.6963,4.7848,0.58379996,-1.1126,0.6365,0.475873,0.190526,0.807758,2017-10-19 22:04:48,67.74953882889268
5.5258174,4.3766007,4.8745947,-0.27000242,0.042760566,-0.1001819,0.0,5.9737,4.3403,6.4533,-1.2049,0.47489998,-0.2058,0.390542,0.127643,0.867386,2017-10-19 22:04:49,61.69598517714407
7.0006456,5.650316,4.2521024,0.028099801,0.2125811,0.010995574,1.0,6.744,5.4346,4.5991,-0.0664,-0.124,0.5876,0.457667,0.220463,0.838493,2017-10-19 22:04:50,56.04239732605039
11.990162,3.8977604,4.185065,-0.15760323,0.59620446,-0.23945917,1.0,7.1516,5.6313996,3.6483,0.5538,0.7962,-0.0558,0.480191,0.281334,0.82168,2017-10-19 22:04:51,57.49224371629772
5.659893,4.271256,4.7979803,-0.8258898,-0.4178318,-0.3933972,1.0,7.7300997,5.2148,3.0365,-2.4101,-0.4917,1.2844,0.530414,0.252664,0.800251,2017-10-19 22:04:52,60.13575121440268
8.8777,5.45878,2.7581203,0.14049901,-0.50457466,0.22968532,1.0,7.5913,5.4639,2.9475,0.1318,-0.074999996,0.7952,0.502632,0.311573,0.804484,2017-10-19 22:04:53,60.09423782754205
9.11712,6.5505357,0.8331822,-0.06719518,0.59498274,0.012217305,1.0,7.8058,5.5909,1.995,1.2206,0.7093,-0.90559995,-0.49583,-0.380426,-0.780271,2017-10-19 22:04:54,56.17087946803367
9.165004,4.5872903,1.8100165,0.25167647,0.07696902,0.2919936,4.0,8.2869,4.8988,1.8700999,0.56079996,-0.2527,-0.23089999,-0.541028,-0.33457,-0.771436,2017-10-19 22:04:55,45.62445231212876
7.824251,6.253655,0.019153614,0.2687807,1.0897835,-0.3811799,8.0,7.8977,5.7039,1.1223999,-0.4015,0.233,-0.5194,-0.49234,-0.434101,-0.751707,2017-10-19 22:04:56,47.862727337411
7.843405,6.5026517,1.3982137,-0.014660765,-0.5900958,0.10751228,1.0,7.4764,6.0720997,1.8441999,-0.6843,-0.2839,1.7366999,-0.43823,-0.462472,-0.764869,2017-10-19 22:04:57,51.27477809311059
6.435614,6.1387334,5.2480903,-0.23212878,-0.2565634,-0.05253441,1.0,6.7135997,6.1157,3.7006,-0.5065,0.1038,1.0586,-0.332386,-0.45178,-0.811599,2017-10-19 22:04:58,54.624411795057014
5.899313,8.1402855,4.5394063,0.081855945,0.13805555,0.4654793,1.0,5.736,6.819,4.0949,-0.3189,0.50549996,2.9377,-0.098259,-0.52933997,-0.730891,2017-10-19 22:04:59,51.687599070985016
5.583278,9.605537,4.414908,0.40561453,0.05131268,0.19792034,1.0,5.4923997,7.4075,3.3363,0.2395,1.7579999,0.5419,0.0544,-0.572509,-0.604238,2017-10-19 22:05:00,60.26439753980358
4.4723687,6.483498,0.7278373,0.25900686,0.23335052,0.1282817,1.0,6.8236,7.0339,0.36339998,-2.3822,-0.583,0.3606,0.104352,-0.687136,-0.431719,2017-10-19 22:05:01,64.7971742002944
6.5984197,8.935161,-1.6567876,0.06719518,-0.2932153,-0.08552113,1.0,6.6331,7.2078,-0.46809998,-0.1314,1.1740999,-1.5695,0.179033,-0.700614,-0.373446,2017-10-19 22:05:02,73.91462330233597
7.1730285,5.841852,-0.81402856,-0.080634214,0.019547688,-0.010995574,1.0,6.8241,7.0403,-0.18519999,0.4807,-1.1877999,-0.6475,0.165505,-0.692544,-0.374313,2017-10-19 22:05:03,75.80114376528279
6.885724,6.090849,0.31603462,-0.5571091,0.0,0.26145032,0.0,6.6473,7.2068996,-0.20789999,-0.047599997,-0.5999,-0.7227,0.161319,-0.696116,-0.393878,2017-10-19 22:05:04,69.70067362600491
6.6271505,6.5218053,-1.2449849,-0.04642576,-0.15760323,-0.17470746,0.0,6.7976,7.0221996,-0.8059,0.036599997,-0.34579998,-0.5143,0.172464,-0.714706,-0.365304,2017-10-19 22:05:05,75.75088880600815
8.331821,9.3661175,-2.633622,-0.21502456,0.3286455,0.04886922,0.0,6.7297997,7.0769997,-0.8919,0.35979998,1.786,-2.1636999,0.193348,-0.71033597,-0.350738,2017-10-19 22:05:06,76.21004747980733
7.52737,7.5944076,-0.45010993,-0.18203785,-0.23457225,-0.16982053,0.0,6.8339996,7.0231,-0.37629998,0.6277,0.8104,-0.1514,0.243766,-0.675934,-0.306248,2017-10-19 22:05:07,70.94148994080173
6.8091097,7.8625584,-0.47884035,-0.13561209,-0.059864793,-0.05253441,0.0,6.6228,7.2132998,-0.5254,0.2024,0.9037,0.2924,0.258992,-0.676302,-0.308785,2017-10-19 22:05:08,70.58744562408097
8.465898,7.920019,0.30645782,0.07696902,0.46792278,-0.036651913,0.0,6.4908,7.3392,-0.4181,0.74689996,0.2575,0.64559996,0.30415,-0.654839,-0.276955,2017-10-19 22:05:09,68.81352829961902
6.588843,8.418014,0.23942018,-0.18081611,-0.10506882,0.18814649,0.0,5.7576,7.9206996,0.53029996,0.4831,0.5462,-0.6601,0.292536,-0.6224,-0.349879,2017-10-19 22:05:10,59.01152698171685
5.746084,7.5944076,-0.32561144,0.08674286,0.02565634,0.017104227,1.0,5.8827,7.8462,0.018299999,-0.0936,-0.3105,-0.3125,0.307878,-0.63573,-0.324476,2017-10-19 22:05:11,62.4569494456098
5.1810527,7.6231384,1.6184803,-0.59253925,-0.6560693,0.71959925,0.0,5.5597997,7.9831,1.2362,-0.5538,-0.5362,0.8372,0.20125,-0.629656,-0.455954,2017-10-19 22:05:12,59.38163323348077
8.1402855,6.0525417,3.6391866,-0.02565634,0.34574974,0.056199603,0.0,7.5235,5.2239,3.5038,0.6902,0.9015,0.059899997,-0.031262,-0.565808,-0.509867,2017-10-19 22:05:13,58.399600897816356
8.714894,5.6215854,3.86903,0.07941248,0.06841691,-0.39584067,0.0,7.6507998,5.3377,3.0239,1.0135,0.1792,1.1696,0.064215,-0.584551,-0.38758,2017-10-19 22:05:14,60.12334305619583
2.873042,6.6271505,4.7405195,-0.46303585,0.344528,-0.036651913,1.0,3.5142,7.2811,5.5502996,-1.8627,-0.7725,-0.94629997,0.244006,-0.389591,-0.477527,2017-10-19 22:05:15,64.0219920186851
5.8322754,7.335834,1.5801731,-0.16126843,0.37018433,-2.1038198,0.0,3.7644,7.3519998,5.2864,0.1512,-1.0791,13.2245,0.211142,-0.42631,-0.555482,2017-10-19 22:05:16,53.96956029400769
10.773908,-0.7374141,-1.9728222,2.4092524,-0.015882496,0.77213365,0.0,9.7347,0.923,0.7439,1.3916,-1.2213,-1.0512,-0.381917,-0.565141,-0.451199,2017-10-19 22:05:17,57.10822862904461
7.1251445,2.1930888,0.545878,0.16126843,-0.42760566,0.25900686,1.0,9.5689,2.0265,0.70669997,-2.4919,0.1512,-0.1705,-0.305722,-0.614096,-0.446659,2017-10-19 22:05:19,62.09499703800519
10.793061,1.5897499,2.4899697,-0.23701571,0.4654793,0.19181168,1.0,9.6206,1.5389,1.1156,0.95699996,-0.2121,2.1548,-0.294737,-0.599008,-0.431826,2017-10-19 22:05:20,66.90377041194662
10.6877165,1.7717092,0.5746084,0.095294975,-0.2003638,0.21868975,1.0,9.5948,1.7835,0.96379995,1.1104,-0.0949,-0.4581,-0.32944,-0.587174,-0.474187,2017-10-19 22:05:21,64.01101886241351
8.034941,0.59376204,0.11492168,0.5363397,-0.73670346,0.9810496,1.0,9.711599,1.2587,-0.51879996,-2.2626998,-0.1072,0.6976,-0.399606,-0.605613,-0.449682,2017-10-19 22:05:22,64.12290333328288
13.340492,0.41180268,-0.9959879,0.23090705,0.0061086523,-0.1966986,1.0,9.7494,0.8843,0.5805,3.495,-0.1135,-1.6912999,-0.388912,-0.560848,-0.475002,2017-10-19 22:05:23,62.79557576499168
9.423578,0.7374141,-0.2681506,-0.5338962,0.13194689,-0.312763,1.0,9.731299,0.7795,0.9289,0.0122,-0.0279,-1.6293,-0.344186,-0.578077,-0.428043,2017-10-19 22:05:24,67.59266219998406
10.237606,0.7469909,3.1603463,0.33108896,0.26633725,0.22968532,5.0,9.4418,0.77,2.5356,0.3423,0.1777,0.1793,-0.311014,-0.523494,-0.460821,2017-10-19 22:05:25,62.181420537321046
2.0015526,2.0590134,8.6095495,-0.9370673,0.5448918,0.06963864,10.0,2.2977998,-0.561,9.517099,0.1435,1.6912999,1.7278999,-0.10096,-0.056414,-0.700015,2017-10-19 22:05:26,62.00618756285192
-0.19153613,1.6184803,11.473015,-0.042760566,0.51923543,-0.22724187,0.0,-0.3376,2.0985,9.5735,0.4175,-0.5584,1.2789,0.080817,-0.073174,-0.775764,2017-10-19 22:05:27,59.55842226826233
2.8060043,1.3982137,9.212888,1.0690142,-1.609019,2.4239132,1.0,2.4394,2.5872998,9.1392,-0.4987,-1.4808999,0.6364,0.009624,-0.18422,-0.67896,2017-10-19 22:05:28,62.97321012777231
2.4995465,0.095768064,10.70687,-0.040317107,0.19181168,0.18570304,1.0,3.5319,0.736,9.1188,-0.89989996,-0.58239996,1.3728,-0.046621,-0.182895,-0.444802,2017-10-19 22:05:29,61.43591123751588
3.9743748,3.0550013,5.803545,0.5143485,-0.25778514,-0.61453044,0.0,4.8157,0.5168,8.5271,-0.2084,2.1873999,-2.7008,-0.076244,-0.243768,-0.385437,2017-10-19 22:05:30,63.00413232301875
5.7269306,0.22984336,7.97748,-0.032986723,0.27000242,0.28099802,0.0,5.2407,0.5349,8.2715,0.0804,-0.2137,-0.0806,-0.041977,-0.270021,-0.242421,2017-10-19 22:05:31,63.40701935968799
4.367024,-0.34476504,8.532935,-0.09285152,0.24801129,0.04520403,0.0,4.7992,-0.33519998,8.5454,-0.52529997,0.0229,0.18349999,-0.066167,-0.244795,-0.186714,2017-10-19 22:05:32,57.83159315283068
5.056554,-0.37349546,8.734048,0.09773844,0.02932153,0.05375614,0.0,4.2251997,-0.2522,8.8461,0.6396,-0.1094,-0.039899997,-0.04365,-0.215584,-0.13876,2017-10-19 22:05:33,60.63957995528127
4.4244847,0.23942018,8.762778,-0.15027285,-0.12950343,-0.2761111,0.0,4.3515997,-0.0824,8.7878,0.0321,0.0827,0.2636,-0.051811,-0.22266,-0.200806,2017-10-19 22:05:34,58.33103007618785
4.405331,0.05746084,9.32781,-0.19792034,-0.18448131,-0.3652974,1.0,4.5655,-0.1838,8.677,-0.24149999,0.34149998,0.7966,-0.079657,-0.229125,-0.291641,2017-10-19 22:05:35,55.026408835664995
4.606444,1.2162545,9.184157,-0.004886922,-0.047647487,0.030543262,1.0,5.2936997,0.91319996,8.2044,-0.2473,0.6321,0.44759998,-0.014154,-0.285466,-0.209469,2017-10-19 22:05:36,60.418643491175686
5.1810527,0.93852705,8.686164,0.19547687,0.10995574,0.32498032,0.0,5.2535996,1.0871999,8.2088995,-0.5699,-0.1506,0.2861,0.018141,-0.284832,-0.134178,2017-10-19 22:05:37,65.46515899217444
5.4204726,1.1204864,7.967903,0.0,0.19058995,0.10384709,1.0,5.0491,1.4006,8.2894,0.7338,-0.1516,-0.7654,0.054516,-0.27089,-0.068858,2017-10-19 22:05:38,64.6528531991346
4.510676,1.0630256,8.207323,-0.05375614,0.19058995,-0.015882496,2.0,4.7936997,1.0598,8.4892,-0.22559999,0.014099999,-0.19139999,0.021558,-0.257326,-0.125674,2017-10-19 22:05:39,62.77817688276787
3.6966474,0.1436521,8.523358,0.047647487,-0.1282817,0.05009095,12.0,4.5519,0.1882,8.6841,-0.5809,-0.1302,-0.2793,-0.022414,-0.238178,-0.130839,2017-10-19 22:05:40,63.552374697137026
4.6255975,1.3503298,8.734048,0.10995574,-0.111177474,-0.3298672,0.0,4.6281,0.70229995,8.6172,-0.75549996,0.7556,-0.094399996,0.013474,-0.245258,-0.119927,2017-10-19 22:05:41,60.773321886593486
3.5817258,1.1013328,7.776367,-0.07086037,0.035430185,0.04642576,0.0,4.2409,0.7654,8.809,0.045199998,-0.0823,-0.0909,0.029918,-0.223373,-0.037915,2017-10-19 22:05:42,62.59272380431967
4.213795,0.9959879,8.42759,-0.096516706,0.05864306,-0.11606439,0.0,4.1442,0.6533,8.8638,-0.2891,0.4224,-0.2245,0.025375,-0.217072,-0.033426,2017-10-19 22:05:43,68.13401561223446
4.1180267,1.3599066,8.532935,-0.312763,-0.4007276,-0.45081854,0.0,4.5449,0.8271,8.6504,-0.515,0.6696,-0.4122,0.027251,-0.241262,-0.065467,2017-10-19 22:05:44,70.06562927514503
4.5298295,0.50757074,8.619126,-0.18203785,-0.33475414,-0.45814893,0.0,4.6232,0.48659998,8.6347,-0.1034,0.30539998,-0.0532,0.007613,-0.248934,-0.089032,2017-10-19 22:05:45,74.72212140862597
4.7500963,-0.47884035,10.01734,-0.030543262,0.13683382,-0.2565634,2.0,3.8792999,-0.011899999,9.0067,0.6634,-0.49789998,0.99509996,-0.011391,-0.200954,-0.065324,2017-10-19 22:05:46,76.42524867200058
3.9360676,0.22984336,9.088389,-0.019547688,0.10995574,0.08552113,0.0,4.2801,0.072399996,8.823,-0.6217,0.13319999,-0.1344,-0.016751,-0.222699,-0.08067,2017-10-19 22:05:47,71.8212483401152
5.755661,-1.6663644,10.754754,-0.22235495,-0.09407324,0.064751714,0.0,3.9171,-0.2926,8.985499,1.3511,-1.3927,1.5557,-0.037464,-0.201535,-0.106679,2017-10-19 22:05:48,71.04093308423235
3.8786068,0.22026655,9.557653,-0.10751228,-0.4899139,-0.14172074,0.0,4.2236,-0.024799999,8.8504,-0.7414,-0.1908,0.9167,-0.03842,-0.217429,-0.164061,2017-10-19 22:05:49,68.50964576376217
4.0892963,0.641646,8.580819,0.10873401,0.089186326,-0.10506882,1.0,4.4193997,0.2889,8.749499,-0.3105,0.3667,-0.2568,-0.007942,-0.231921,-0.104401,2017-10-19 22:05:50,65.04610586711078
4.7979803,0.1340753,7.9391727,0.08307767,0.0073303827,0.10506882,1.0,4.5834,0.24219999,8.6662,-0.58309996,-0.0962,0.1504,-0.02161,-0.240159,-0.137879,2017-10-19 22:05:51,72.07282091501979
3.916914,-0.21068975,7.8146744,0.017104227,-0.013439035,-0.09407324,18.0,4.4923,-0.6268,8.6946,-0.5995,0.42369998,-0.9273,-0.056601,-0.231287,-0.098271,2017-10-19 22:05:52,71.93631441078789
5.497087,-0.17238252,8.868123,-0.10140363,-0.27122417,-0.05497787,29.0,4.5109997,-0.52919996,8.6914,1.1861,0.0314,-0.218,-0.045497,-0.232858,-0.081832,2017-10-19 22:05:53,72.27591553159584
4.4340615,0.1340753,8.925584,-0.2406809,0.16249016,0.12583824,31.0,3.948,-0.46359998,8.9648,0.5356,0.43629998,0.1251,-0.050583,-0.198457,-0.120188,2017-10-19 22:05:54,74.35558413203441
4.414908,0.11492168,8.858546,-0.02932153,-0.16249016,-0.5338962,0.0,4.3992,-0.3075,8.7591,-0.9963,0.7306,-0.1193,-0.054786,-0.219866,-0.179788,2017-10-19 22:05:55,72.38558413929252
4.644751,0.038307227,9.643845,-0.15149458,0.05253441,-0.096516706,0.0,4.226,-0.3893,8.8407,-0.587,0.5577,0.9853,-0.048988,-0.213227,-0.131881,2017-10-19 22:05:56,73.2838328412622
3.8498764,0.15322891,9.308656,-0.07574729,-0.15515977,0.20158553,0.0,4.3124,-0.2967,8.8025,-1.115,0.7197,0.62149996,-0.044662,-0.221806,-0.126264,2017-10-19 22:05:57,61.16356740752085
3.9839516,-0.15322891,8.274361,0.13072516,0.08552113,-0.2932153,0.0,4.1471,-0.20979999,8.8841,-0.50769997,0.1127,-0.41149998,-0.033882,-0.215646,-0.10684,2017-10-19 22:05:58,67.47282696555563
4.2904096,-0.06703765,8.571242,0.009773844,-0.04520403,-0.2089159,0.0,4.0403,-0.2085,8.9332,-0.1357,-0.055299997,-0.3628,-0.03591,-0.208627,-0.121662,2017-10-19 22:05:59,68.33894262490003
4.8458643,-0.4405331,9.174581,0.12339478,0.11362094,-0.034208454,0.0,3.9577,-0.197,8.9703,0.5159,0.17819999,-0.4982,-0.034467,-0.20161,-0.118398,2017-10-19 22:06:00,63.4290038036475
4.7788267,-0.37349546,9.356541,-0.14416419,-0.09040806,0.22357668,20.0,4.2711997,-0.056399997,8.8274,-0.701,-0.14919999,-0.27609998,-0.036179,-0.22049099,-0.145103,2017-10-19 22:06:01,62.94601887894985
3.1890767,-0.076614454,9.289502,-0.014660765,0.21868975,-0.015882496,14.0,4.1313,-0.1002,8.8934,0.74369997,-0.3013,1.0009999,-0.033858,-0.216519,-0.123674996,2017-10-19 22:06:02,70.72888064052675
1.7238252,0.641646,8.2169,-0.2724459,-0.08307767,0.07574729,0.0,4.079,0.20089999,8.9158,-2.1653,0.3473,-0.5512,-0.02974,-0.213274,-0.144979,2017-10-19 22:06:03,67.8991375155734
6.2345014,-1.9728222,7.795521,0.27000242,-0.408058,1.0616838,0.0,4.6133,0.1357,8.652599,1.9855,-0.9012,-3.5623999,-0.020972,-0.238992,-0.115107,2017-10-19 22:06:04,66.13824963744179
4.8745947,0.009576807,6.244078,0.10262536,-0.05742133,-0.4361578,1.0,4.2904,0.0845,8.8179,0.2995,0.101399995,-2.4043999,-0.024503,-0.225111,-0.134105,2017-10-19 22:06:05,72.42423741034416
1.7812861,1.3790601,7.5561004,-0.3200934,0.062308256,0.032986723,1.0,4.5543,0.23869999,8.6816,-2.5348,1.3096,-1.13,-0.02374,-0.238314,-0.146687,2017-10-19 22:06:06,70.28978977315985
3.064578,-1.2449849,8.0924015,0.3286455,0.042760566,-0.14416419,1.0,4.4679,0.036599997,8.7296,-1.6243,-0.8017,-1.5704,-0.026064,-0.23517899,-0.120094,2017-10-19 22:06:07,69.6842365608621
5.535394,-0.51714754,8.66701,0.014660765,-0.10995574,0.18692476,2.0,4.2823997,-0.3129,8.8166,-1.2614,-0.20529999,0.0778,-0.052486,-0.219284,-0.156425,2017-10-19 22:06:08,70.65867704631177
3.763685,0.0,9.069236,-0.12339478,-0.16249016,0.017104227,0.0,4.4597,-0.2953,8.7289,1.7672,-0.1249,1.0289,-0.062893,-0.231054,-0.175726,2017-10-19 22:06:09,67.91765192269557
3.667917,0.02873042,9.739613,-0.344528,0.3213151,-0.54244834,0.0,4.9965997,-0.0761,8.4379,-0.91969997,0.1157,-1.1205,-0.038891,-0.261291,-0.127427,2017-10-19 22:06:10,73.3056005315526
3.9456444,-0.48841715,9.385271,0.05131268,0.09040806,0.34330627,0.0,4.6656,0.0115,8.6256,0.099199995,-0.5901,-0.49519998,-0.030343,-0.2435,-0.122255,2017-10-19 22:06:11,68.09778352323171
4.3287168,-0.019153614,10.352529,-0.030543262,0.25045475,0.04642576,0.0,4.2241,-0.1166,8.8494,-0.36929998,0.0191,0.9765,-0.026229,-0.217641,-0.087483,2017-10-19 22:06:12,71.25640280521583
3.9935284,0.6991069,8.24563,-0.09407324,-0.12583824,-0.32375857,0.0,4.4339,0.0836,8.7466,-0.18779999,0.671,-0.7245,-0.029515,-0.230845,-0.134841,2017-10-19 22:06:13,65.44216548058097
5.535394,-0.20111294,8.39886,0.2003638,-0.12583824,0.2406809,6.0,4.8065,0.2233,8.545,0.8598,-0.4793,0.5272,-0.024167,-0.252469,-0.13678,2017-10-19 22:06:14,70.31914693821236
5.142745,-0.047884032,8.178593,0.056199603,0.19547687,0.021991149,0.0,4.429,0.3951,8.7404995,-0.045599997,-0.38709998,-0.6106,-0.007221,-0.234167,-0.11489,2017-10-19 22:06:15,71.96166573904821
4.654328,0.06703765,8.791509,0.032986723,0.019547688,0.040317107,0.0,4.5354,0.1319,8.6938,0.11229999,0.0047,0.0541,-0.024451,-0.236937,-0.127747,2017-10-19 22:06:16,77.18233483926798
5.6790466,0.18195933,9.050082,-0.061086524,-0.02321288,0.07819075,0.0,4.7221,0.1452,8.593599,-0.2223,-0.116399996,-0.66889995,-0.027385,-0.246994,-0.142144,2017-10-19 22:06:17,76.45812686979451
5.746084,-0.019153614,8.676587,0.19914207,-0.3042109,-0.27855456,10.0,4.2366,-0.2374,8.8411,0.5595,-0.5362,0.4455,-0.044092,-0.21745,-0.139989,2017-10-19 22:06:18,70.27912316125406
4.9320555,-0.9768343,7.2113357,0.530231,0.05253441,0.1685988,19.0,4.8599997,0.0139999995,8.5176,-0.0764,-0.5829,-2.093,-0.037918,-0.255197,-0.146335,2017-10-19 22:06:19,77.30246886036083
3.8307228,-0.1436521,10.7356,-0.02565634,0.10262536,-0.12461651,0.0,4.5174,0.117199995,8.7034,-0.66389996,-0.1766,1.8195,-0.029495,-0.237868,-0.1577,2017-10-19 22:06:20,79.32070530806983
5.133168,-0.5363012,9.078813,-0.1001819,0.17470746,0.09285152,1.0,4.5733,-0.0162,8.6749,-0.0042,-0.5818,0.65169996,-0.03174,-0.237069,-0.127796,2017-10-19 22:06:21,77.90979855039603
6.1387334,-0.5363012,9.394848,0.047647487,0.10140363,0.028099801,1.0,4.8094997,-0.1727,8.544499,0.45479998,-0.2775,-0.0508,-0.045493,-0.248274,-0.146332,2017-10-19 22:06:22,75.34456475684277
5.056554,-0.22026655,7.8050976,0.26389378,0.07452556,0.13194689,1.0,4.5615,-0.29659998,8.676,0.39,0.072299995,-0.74189997,-0.046795,-0.235485,-0.127023,2017-10-19 22:06:23,81.17368461863802
4.405331,-0.5554548,9.691729,-0.3933972,0.087964594,-0.041538835,0.0,4.3075,-0.4791,8.7969,-0.37469998,-0.617,1.2057999,-0.057014998,-0.218143,-0.13269,2017-10-19 22:06:24,80.90843520133524
5.3821654,-0.45010993,7.785944,-0.21746802,0.06841691,-0.02321288,0.0,4.5194,-0.5699,8.6845,0.805,0.46449998,-1.3485999,-0.060136,-0.231511,-0.124618,2017-10-19 22:06:25,81.29003800527084
4.5872903,-0.9959879,8.456321,-0.017104227,-0.08307767,-0.037873644,0.0,4.3399997,-0.65959996,8.769199,0.2006,-0.0336,-0.47259998,-0.059919,-0.226415,-0.119347,2017-10-19 22:06:26,80.0969910947818
5.650316,-0.59376204,10.400413,-0.3408628,-0.081855945,0.19425514,0.0,4.8506,-0.1047,8.5223,0.0506,0.046299998,0.7461,-0.043661,-0.252139,-0.144348,2017-10-19 22:06:27,78.7257181909734
5.2002063,0.8714894,8.801085,0.48380527,0.05742133,-0.015882496,2.0,5.2787,1.1036,8.190599,-0.4186,0.0976,0.1378,0.018393,-0.28645,-0.135549,2017-10-19 22:06:28,82.76887753687723
6.301539,1.8004397,8.8777,-0.2406809,0.1563815,0.04520403,19.0,5.532,2.243,7.7804,1.0332999,0.2868,-0.2934,0.084207,-0.307525,-0.106793,2017-10-19 22:06:29,82.09238429312256
6.38773,2.528277,7.4028716,0.16615534,-0.24556783,0.008552114,0.0,5.7451,1.7682999,7.7482996,0.79969996,0.64599997,-0.1533,0.057704,-0.319741,-0.115262,2017-10-19 22:06:30,81.17428278410881
6.2823853,1.5610195,7.632715,-0.10873401,0.0012217305,-0.0842994,0.0,5.2769,1.4677,8.134399,0.7697,0.2418,-0.8059,0.048203,-0.287983,-0.100659,2017-10-19 22:06:31,78.80389492977761
6.1195793,0.6799533,8.954314,-0.31642818,-0.05375614,-0.14172074,0.0,5.2644,1.2364,8.1809,0.94909996,-0.2907,0.0986,0.035425,-0.289976,-0.099155,2017-10-19 22:06:32,79.67749090656446
5.793968,1.3215994,7.335834,0.118507855,-0.2968805,-0.49357912,0.0,5.5169,0.81509995,8.0665,0.5189,0.42659998,-0.56119996,0.011007,-0.297657,-0.104536,2017-10-19 22:06:33,76.31872489265959
6.081272,0.4405331,7.929596,0.18570304,-0.0073303827,-0.35185838,25.0,5.0716,0.4247,8.3826,0.093399994,0.2794,-0.37849998,0.00235,-0.268247,-0.081617996,2017-10-19 22:06:34,76.31041850232297
5.3247046,-0.17238252,8.772355,-0.019547688,-0.09896017,-0.064751714,0.0,5.1681,0.4903,8.319799,0.9575,-0.6102,0.43949997,2.39E-4,-0.275327,-0.089969,2017-10-19 22:06:35,74.83864366869145
4.759673,0.7565677,8.274361,0.06963864,0.042760566,-0.3530801,0.0,4.9614997,0.5277,8.4424,-0.4725,0.6957,-0.8407,0.011283,-0.264375,-0.073855996,2017-10-19 22:06:36,73.71213826898429
6.291962,-0.33518824,8.513782,0.19058995,-0.12705997,0.0073303827,0.0,4.5449,0.2137,8.6872,1.9071,-0.3421,0.94329995,-0.00432,-0.246408,-0.064971,2017-10-19 22:06:37,78.46959995185522
4.9895163,0.08619126,8.619126,0.042760566,0.12705997,0.11606439,9.0,4.8654,0.4008,8.505,0.58489996,-0.1672,-1.6488999,0.00112,-0.257603,-0.075143,2017-10-19 22:06:38,75.92727949730171
5.8226986,0.58418524,8.24563,0.06352998,0.010995574,0.14049901,5.0,5.2837,0.5725,8.2416,0.2922,0.0427,-0.384,0.007408,-0.28226,-0.077318996,2017-10-19 22:06:39,75.47476656362359
5.7269306,0.7469909,9.251195,0.06352998,-0.15149458,-0.08674286,0.0,4.9613,0.6954,8.4303,1.0181,-0.1788,0.152,0.025151,-0.2658,-0.06026,2017-10-19 22:06:40,75.02583507936279
5.0757074,-0.40222588,8.829816,0.12705997,-0.041538835,0.21135937,0.0,4.8819,0.283,8.500299,0.0289,-0.70589995,0.3955,0.009665,-0.257891,-0.019751,2017-10-19 22:06:41,74.8655071395876
6.0716953,-0.79487497,6.943185,0.19547687,-0.21868975,-0.10262536,0.0,4.8268,0.1964,8.5342,-0.151,-0.4621,-1.4526,0.005814,-0.257745,-0.032833,2017-10-19 22:06:42,75.5106912372772
5.631162,-1.6376339,8.925584,0.17348573,0.03176499,0.17348573,0.0,4.66,-0.43179998,8.6179,0.2225,-1.3706,1.2875999,-0.025125,-0.244904,-0.00953,2017-10-19 22:06:43,75.54673862087643
5.21936,0.18195933,8.264784,0.13194689,-0.037873644,-0.16371189,0.0,4.0766,-0.3416,8.9126,0.9163,0.6667,-0.6461,-0.021802,-0.209349,-0.027088,2017-10-19 22:06:44,71.26601234788504
4.003105,-1.0055647,9.299079,-0.44837508,0.5546656,0.23335052,0.0,4.9059997,-0.3128,8.4854,-1.2504,0.010199999,-0.217,-0.03867,-0.251403,-0.066868,2017-10-19 22:06:45,65.6622046475602
5.544971,-0.37349546,8.00621,0.13316862,-0.043982297,0.18570304,0.0,4.8162,-0.3293,8.536099,-0.1501,0.3308,-1.0819,-0.041667,-0.248979,-0.091801,2017-10-19 22:06:46,67.2476888877583
4.759673,0.31603462,8.255207,0.10873401,0.05742133,0.37629297,0.0,5.2908,0.4068,8.246799,-0.2444,-0.1144,-0.29119998,-0.007869,-0.279982,-0.093014,2017-10-19 22:06:47,74.38060085861578
5.707777,0.12449849,9.059659,0.08674286,-0.07452556,0.19914207,2.0,5.2644,0.016999999,8.2738,-0.2767,0.0416,0.0739,-0.024202,-0.278544,-0.086476,2017-10-19 22:06:48,72.18856731402683
3.1316159,1.091756,0.19153613,0.50823987,-0.6939429,0.2406809,0.0,6.4094996,0.97059995,7.3582997,-2.947,-0.1609,-6.8125,0.043568,-0.367409,-0.011839,2017-10-19 22:06:49,67.76989788484539
5.046977,0.7086837,11.243171,0.004886922,-0.43860123,-0.37018433,0.0,5.3652,-0.124299996,8.2078,0.1025,0.80149996,3.3764,-0.029741,-0.283956,-0.077716,2017-10-19 22:06:50,60.57965867913751
5.535394,-1.1013328,4.76925,1.2498302,-1.6065756,0.71593404,1.0,7.4624,0.057099998,6.3623,-1.2685,-0.8124,-2.9387,0.091199,-0.415214,0.169893,2017-10-19 22:06:51,64.85452115900469
8.532935,0.6895301,11.789049,-2.225993,3.5295794,-1.6261233,4.0,8.4095,0.4382,5.0256,1.9282999,-0.6461,1.6204,0.20074,-0.451071,0.311744,2017-10-19 22:06:52,65.73611260270486
7.8912888,1.4556746,6.2249246,0.37018433,-0.041538835,0.3738495,1.0,7.29,1.9568,6.2605996,0.53249997,-0.42589998,-0.6105,0.308002,-0.298727,0.468321,2017-10-19 22:06:53,60.08489767896374
6.9719152,1.7142484,6.0525417,0.25045475,0.5681047,0.46425757,2.0,7.1731997,2.1828,6.3206,-0.1052,-0.30969998,-0.4942,0.328705,-0.257437,0.526128,2017-10-19 22:06:54,60.26433205419472
5.544971,2.5474305,6.1195793,0.0012217305,-0.05375614,-0.11606439,2.0,6.5104,2.0860999,7.0308,-0.4985,-0.4969,-0.2171,0.32556,-0.188513,0.62189597,2017-10-19 22:06:55,62.55848695005782
6.83784,1.3599066,7.2592196,0.028099801,-0.05864306,0.24190263,4.0,6.2468996,1.8583,7.3275,0.62909997,-0.3662,-0.0739,0.303028,-0.186777,0.625332,2017-10-19 22:06:56,70.45808153417644
6.1004257,2.078167,6.090849,0.09285152,0.13805555,-0.017104227,1.0,6.822,1.9175999,6.7788,0.3357,0.29009998,-0.30719998,0.333045,-0.198936,0.634052,2017-10-19 22:06:57,73.53869441592559
6.5696893,0.30645782,6.7708025,-0.02565634,0.32375857,0.073303826,0.0,6.3887,1.495,7.2882,0.42769998,-1.1192,-0.7797,0.299253,-0.197101,0.642153,2017-10-19 22:06:58,75.44775535303755
5.5162406,1.5801731,6.540959,0.26267204,0.24678956,-0.2932153,0.0,6.1724997,1.37,7.4961996,-1.8851,0.21239999,-0.17459999,0.285754,-0.175139,0.673661,2017-10-19 22:06:59,73.23239785917492
7.297527,0.36391866,11.444284,-0.21013764,0.34330627,-0.2602286,0.0,6.1059,1.2981,7.5632,1.1629,-0.941,3.8374999,0.29697,-0.161834,0.714631,2017-10-19 22:07:00,72.51203661334982
7.5848308,-0.095768064,7.374141,-0.08552113,0.1966986,0.12339478,0.0,5.6355,0.6041,8.0028,1.0274,-1.0088,0.1401,0.238533,-0.183809,0.685477,2017-10-19 22:07:01,75.80388600878574
6.253655,0.842759,6.799533,0.021991149,0.24801129,-0.16737707,0.0,6.5848,1.0007,7.1977997,-0.3085,-0.21079999,-1.1204,0.26854,-0.24301,0.589378,2017-10-19 22:07:02,76.43139264249517
4.453215,0.038307227,8.111555,-0.043982297,0.18448131,-0.07574729,0.0,6.1798,0.75,7.5772996,-0.33319998,-0.4297,0.87149996,0.247401,-0.236857,0.599636,2017-10-19 22:07:03,75.99004316756007
6.253655,1.091756,8.034941,-0.18692476,0.18936822,-0.6084218,0.0,6.2900996,0.90279996,7.4691997,-0.6892,0.417,0.5585,0.270543,-0.217749,0.63378197,2017-10-19 22:07:04,78.27281922527908
5.2289367,1.7046716,6.3206925,-0.042760566,0.17837265,-0.14416419,0.0,6.0937,0.7884,7.6429,1.6360999,-0.0858,1.1587,0.263245,-0.199916,0.672383,2017-10-19 22:07:05,71.98462384988228
5.094861,0.06703765,6.694188,-0.13805555,-0.06352998,-0.25534168,0.0,6.0392,-0.235,7.7228,-0.9863,0.3439,-0.6867,0.231772,-0.226983,0.700647,2017-10-19 22:07:06,76.73537216180003
4.9320555,-0.22026655,1.9919758,0.041538835,0.012217305,0.08674286,0.0,6.5983996,-1.0732,7.1748,-2.0481,0.92109996,-5.3631997,0.224691,-0.289305,0.681333,2017-10-19 22:07:07,71.49608404072559
5.8226986,-0.047884032,7.8146744,-0.09285152,-0.080634214,-0.1282817,0.0,6.6190996,-0.3744,7.2261,-0.7058,0.23879999,1.0576,0.212537,-0.293147,0.593198,2017-10-19 22:07:09,73.92228094127228
5.544971,-1.6567876,9.059659,0.17837265,0.41538835,0.095294975,0.0,4.9983997,-1.4420999,8.3129,0.51989996,-0.1989,0.7014,0.129052,-0.238606,0.674788,2017-10-19 22:07:10,60.40263354699876
6.742072,-1.292869,6.301539,0.43371433,0.4459316,0.008552114,0.0,5.7938,-1.9087,7.6784,0.6624,0.044099998,-0.23009999,0.120292,-0.306659,0.60251397,2017-10-19 22:07:11,61.89975910824327
7.785944,3.8307228,1.7238252,-0.78801614,0.037873644,0.25289822,3.0,6.3608,5.5541997,4.9859,1.1912,-1.6955999,-3.5860999,0.490324,-0.044899,0.605488,2017-10-19 22:07:12,59.46024658782677
11.281479,-0.8619126,5.995081,-0.48258352,-0.7770206,0.61575216,0.0,8.4871,2.9503,3.9285998,3.2624998,-3.1302,1.6631999,0.307783,-0.44473,0.214565,2017-10-19 22:07:13,52.64110279275934
0.0,-3.1124623,6.397307,-1.8533652,1.1081096,-1.4269812,0.0,-1.2123,-2.1478999,9.4914,1.2178,-1.1276,1.8223,-0.11589,-0.043782,0.693197,2017-10-19 22:07:14,45.49516134283672
0.20111294,-2.9400797,5.3821654,-1.0445795,0.7831292,0.75991637,0.0,-2.5016,-1.6812999,9.3319,2.5226,-3.3223,-1.2242,-0.169112,-0.022428,0.822868,2017-10-19 22:07:15,49.435111092368224
-3.9264908,-2.3558946,8.226477,-0.23457225,0.43249258,0.23701571,1.0,-5.0723,-2.2781,8.0778,0.6525,-0.104499996,0.5552,-0.298726,-0.042214,0.917192,2017-10-19 22:07:16,54.93988184812257
-5.3725886,-2.930503,7.8050976,0.18936822,0.17592919,-0.04642576,1.0,-5.8019,-2.3516998,7.5483,0.5126,-0.59929997,0.2339,-0.334155,-0.059023,0.919951,2017-10-19 22:07:17,52.35454841800981
-6.9144545,-1.1875241,7.3071036,0.79779,-0.36163223,0.034208454,0.0,-5.9442997,-1.262,7.6969,-0.6878,-0.0464,-0.3468,-0.326001,0.025388,0.908168,2017-10-19 22:07:18,54.01172977429633
-6.4739213,-1.3694834,7.479486,0.172264,-0.021991149,0.17715092,0.0,-6.2386,-1.3787,7.4396,-0.2059,0.021699999,-1.0E-4,-0.346659,0.012115,0.90971,2017-10-19 22:07:19,53.644280089363576
-4.759673,-1.6663644,7.0964136,-0.20158553,-0.4251622,-0.23823744,1.0,-5.2011,-1.6685,8.1445,0.7427,-0.26569998,-0.92389995,-0.290914,0.01052,0.899809,2017-10-19 22:07:20,50.80321055689963
-6.9527617,-3.3423057,3.064578,0.61208695,0.19181168,-0.13072516,1.0,-7.4989996,-3.852,5.0095997,0.5305,0.5153,-2.0115,-0.497423,-0.062018,0.814153,2017-10-19 22:07:21,51.06064721618161
-7.517793,-4.4723687,3.667917,0.037873644,-0.05375614,-0.0073303827,0.0,-8.0989,-4.4891,3.2286,0.7409,0.106,0.042099997,-0.570867,-0.09427,0.767179,2017-10-19 22:07:22,55.15261931079448
-7.6231384,-4.5298295,2.9113493,-0.10629055,-0.12461651,0.07819075,0.0,-8.141,-4.5257998,3.0674999,0.5772,0.0448,-0.15879999,-0.577529,-0.099001,0.764579,2017-10-19 22:07:23,45.51225949914396
-7.9391727,-3.9935284,3.5434184,-0.0036651914,0.18814649,-0.012217305,0.0,-8.1928,-4.2499,3.3142998,0.4919,0.258,-0.0831,-0.568296,-0.097316,0.778468,2017-10-19 22:07:24,46.580208221768274
-7.3549876,-1.8483237,4.759673,0.15027285,0.18325958,-0.24556783,0.0,-7.5466,-2.8016,5.6008,0.3527,1.0783,-0.6146,-0.459647,0.064772,0.783662,2017-10-19 22:07:25,50.61268049739222
-6.38773,-3.2082303,2.0015526,-1.251052,-0.6291912,0.1685988,0.0,-7.5789,-4.0306997,4.7415,1.3757,0.7733,-2.8111,-0.492754,-0.124262996,0.836203,2017-10-19 22:07:26,53.02649750023196
-7.7093296,-2.9113493,3.5625722,0.05375614,-0.08307767,-0.089186326,0.0,-8.1538,-3.6601999,4.0358,0.2762,0.8032,-0.78819996,0.493197,0.225797,-0.840079,2017-10-19 22:07:27,58.39180822624536
-7.97748,-3.916914,3.3806129,0.16615534,0.39828414,0.13561209,0.0,-8.571199,-3.3049998,3.4320998,0.6465,-0.1909,-0.083799995,-0.532813,-0.20277,0.821571,2017-10-19 22:07:28,53.378036057525094
-6.7324953,-6.9527617,3.4955344,0.23579398,0.5693264,0.4691445,0.0,-7.9817,-5.1921997,2.3456,1.5449,-1.6295999,0.69369996,-0.620231,-0.049686998,0.697868,2017-10-19 22:07:29,51.62904769770114
-10.084377,-8.992621,5.746084,-2.1135938,-0.40439278,-1.7690657,0.0,-7.8669,-4.3129997,3.9596,-1.7279999,-5.2486997,0.926,-0.470755,0.276594,0.429355,2017-10-19 22:07:30,52.39464826860257
-6.7133417,-5.6982,-1.6950948,3.1264083,-0.7782423,-1.4575244,0.0,-7.1654,-5.2184997,4.1944,1.3034999,0.0933,-6.9491997,-0.389657,0.382484,0.148766,2017-10-19 22:07:31,57.86215218580675
-8.331821,-4.5202527,4.9224787,1.3390166,-0.2125811,-0.02565634,0.0,-7.7075,-4.6247,3.9211,-0.4465,-0.5129,-1.9771999,-0.261119,0.488287,-0.038521,2017-10-19 22:07:32,55.87076824748945
-7.9008656,-4.7788267,2.1547816,0.05375614,0.0012217305,-0.042760566,0.0,-7.8627996,-5.275,2.5530999,0.042799998,0.41489998,-0.3286,-0.298322,0.530698,-0.063166,2017-10-19 22:07:33,58.950658359087704
-7.5944076,-5.267244,2.5187001,-0.05253441,-0.039095376,-0.0842994,0.0,-7.6405997,-5.5861998,2.5661,0.1236,0.34489998,-0.067099996,-0.30471,0.525655,-0.084004,2017-10-19 22:07:34,56.099275217588215
-9.078813,-4.1659107,1.2641385,-1.097114,-0.593761,0.16615534,0.0,-8.7925,-4.2732,0.7752,-0.38639998,-0.1108,0.0254,-0.282858,0.61678797,-0.010972,2017-10-19 22:07:35,61.909967266424
-8.90643,-3.2369606,0.1340753,-0.37995818,0.55955255,-0.42027527,0.0,-9.191,-2.9371998,-1.7515,0.3275,-0.28579998,1.8867999,0.447679,0.629016,-0.512515,2017-10-19 22:07:36,56.53478335235618
-10.658986,-2.9783869,-0.05746084,-1.2608259,-1.5625932,0.17959438,0.0,-8.7107,-4.1201997,-1.8212,-0.8118,1.9319999,0.8487,0.333604,0.69395,-0.495803,2017-10-19 22:07:37,45.15489901055804
-6.0621185,-3.5817258,-0.90979666,-0.4166101,-0.3652974,0.18203785,0.0,-9.594399,-1.9207,-0.6545,3.6453,-1.6696999,-0.21519999,0.422069,0.597955,-0.508775,2017-10-19 22:07:38,51.079082393504535
-8.513782,-4.6160207,-1.5514427,2.5754077,2.751337,1.1679744,0.0,-8.5714,-4.2563,-2.1411998,0.8035,-1.4419,-0.49699998,0.496015,0.60261,-0.570518,2017-10-19 22:07:39,52.45167983325126
-10.342952,-4.1276035,-3.1986535,0.17348573,-0.21868975,-0.16982053,0.0,-8.8050995,-3.4606,-2.5814,-1.227,-0.6132,-0.5255,0.429773,0.66761,-0.495808,2017-10-19 22:07:40,49.64686759255584
-8.130709,-3.4093432,-1.340753,0.09040806,-0.05864306,0.05009095,0.0,-9.1718,-2.7075,-2.1715999,1.3968999,-0.644,1.5045999,0.403339,0.669136,-0.459682,2017-10-19 22:07:41,55.31998960599118
-8.475474,-2.8634653,-1.5514427,-0.24190263,-0.34574974,-0.43860123,0.0,-9.0082,-3.3774,-1.9009999,0.5068,0.6565,0.75229996,0.336404,0.692745,-0.463106,2017-10-19 22:07:42,53.84836559479328
-9.260772,-3.7062242,-1.2545617,-0.2651155,-0.22357668,-0.7867944,0.0,-9.001599,-3.4289,-1.8391999,-0.1175,-0.36069998,0.5627,0.383958,0.668093,-0.493491,2017-10-19 22:07:43,60.43027002505501
-8.561666,-3.169923,-0.842759,-0.17715092,0.05742133,-0.23090705,0.0,-9.2287,-3.0681,-1.2599,0.3752,-0.32099998,0.4516,0.427009,0.617984,-0.527424,2017-10-19 22:07:44,55.906892551514716
-1.1300632,-0.59376204,7.680599,0.36774087,-0.17592919,-0.13805555,0.0,-0.0117999995,-0.5086,9.7934,-0.69409996,-0.1166,-2.7075999,-0.019892,0.016666,-0.62389,2017-10-19 22:07:45,54.97034606457472
0.11492168,1.6759412,9.797073,-0.02321288,0.32620203,0.047647487,0.0,0.248,1.7033,9.6544,-0.151,-0.2595,0.1778,0.066215,-0.056063,-0.554049,2017-10-19 22:07:46,54.39428060349175
-0.22026655,1.3599066,9.662998,-0.017104227,0.18570304,0.4459316,0.0,-1.1807,2.6992,9.3536,1.0977,-0.6028,-0.687,0.151075,-0.016578,-0.492538,2017-10-19 22:07:47,53.803342404663596
-1.7621324,2.6048915,9.385271,-0.30665433,-0.073303826,0.5852089,0.0,-1.3991,2.9601,9.243899,-0.2617,-0.198,0.0605,0.162732,0.037318,-0.214039,2017-10-19 22:07:48,56.15019564825464
-6.7133417,1.436521,8.255207,-0.516792,1.0299188,1.632232,0.0,-6.6373997,1.081,7.1376,-0.5506,0.0026,1.4995999,0.11236,0.35931098,-0.117055,2017-10-19 22:07:49,53.983405094646
-9.002198,-0.16280572,2.72939,-0.081855945,1.033584,-0.039095376,0.0,-9.2843,-1.7633,2.6195998,0.6566,0.8886,0.14389999,-0.22672,0.565586,0.15751,2017-10-19 22:07:50,55.97103637916064
-9.634268,-3.1794999,2.9496565,1.1753048,-0.25167647,1.2351695,0.0,-8.5847,-4.7132,0.5075,-0.40879998,1.8412,0.81409997,-0.586555,0.348977,0.384756,2017-10-19 22:07:51,56.84753619583729
-12.631808,-6.3589997,4.213795,0.23090705,-0.9431759,0.24556783,0.0,-8.4247,-4.6428,1.9072,-4.3353,-0.377,1.5754,-0.552307,0.290121,0.443758,2017-10-19 22:07:52,59.94065905194841
-8.647857,-5.602432,3.0550013,-2.1734586,0.14660765,-0.5180137,0.0,-9.1193,-3.6037,0.1454,0.5203,-1.9797,2.9036999,-0.628097,0.32479098,0.45591,2017-10-19 22:07:53,62.20062762320143
-8.552089,-4.146757,2.0590134,-0.91507614,-0.7269296,1.1911873,0.0,-9.6824,-1.507,-0.38599998,2.7237,-3.5070999,1.6136,-0.632076,0.346645,0.549179,2017-10-19 22:07:54,54.01832081481592
-10.342952,-3.4093432,2.767697,0.68783426,0.21991149,0.8698721,0.0,-9.3291,-3.01,-0.2787,-0.8968,-0.35,3.1631,-0.688691,0.158831,0.614789,2017-10-19 22:07:55,56.66164037581592
-9.605537,-1.685518,-0.9672575,-2.524095,-2.189341,-1.7666223,0.0,-8.8239,-3.151,-2.8945,-0.85499996,1.2528,2.2798,-0.628085,0.503081,0.311542,2017-10-19 22:07:56,53.71340937235699
-10.764331,0.17238252,-0.36391866,-1.2705997,-1.9767599,1.4294246,0.0,-9.6079,-1.9275999,0.37739998,-0.8129,1.7890999,-1.2813,-0.683421,-0.034685,0.725157,2017-10-19 22:07:57,51.17706299434801
-9.950302,-1.541866,5.5641246,-3.9559634,-1.3720033,0.6951646,0.0,-9.3863,0.83089995,2.7159998,1.8083999,-2.1193,3.5186,0.456146,0.372147,-0.584096,2017-10-19 22:07:58,56.511932340823805
-8.66701,0.35434186,4.6255975,-0.5448918,-0.05497787,-0.04642576,0.0,-9.0428,-0.2553,3.7858,0.5906,0.49179998,0.8358,0.395671,0.382733,-0.617229,2017-10-19 22:07:59,45.94599909631789
-8.408437,-0.7086837,4.280833,-0.19425514,-0.112399206,-0.312763,0.0,-8.9621,-1.4405,3.7115,0.6468,0.8487,0.7633,0.362132,0.419701,-0.637892,2017-10-19 22:08:00,49.75686738065397
-10.563218,-3.4572272,0.02873042,1.4697417,0.8014552,0.93218035,2.0,-9.3548,-2.9324,-0.2411,-1.3219999,-0.7319,0.3108,-0.705547,-0.120406,0.692029,2017-10-19 22:08:01,55.18699762528253
-9.414001,-3.122039,0.22026655,0.08307767,0.57910025,-0.119729586,2.0,-9.1098995,-3.6302998,-0.0121,-0.1265,0.64559996,0.070999995,-0.66871,-0.231179,0.705909,2017-10-19 22:08:02,48.48175968603928
-9.030929,-2.7868507,0.36391866,0.55588734,0.344528,0.06719518,2.0,-9.2141,-3.3218,0.48459998,0.2135,0.5123,-0.1239,0.625641,0.291731,-0.720376,2017-10-19 22:08:03,48.77968854546488
-9.069236,-3.1603463,-0.076614454,-0.06963864,0.087964594,0.032986723,2.0,-9.2778,-3.1548998,-0.3708,0.2481,0.0407,0.1959,-0.692021,-0.20003,0.692862,2017-10-19 22:08:04,53.70308355555851
-9.002198,-2.9496565,-0.19153613,-0.032986723,0.015882496,-0.020769417,2.0,-9.287,-3.1151,-0.4651,0.2965,0.18699999,0.2514,-0.697011,-0.193089,0.689599,2017-10-19 22:08:05,56.23372938471153
-9.078813,-2.930503,-0.5363012,0.06352998,0.08307767,0.02687807,2.0,-9.2923,-3.1009,-0.45549998,0.2724,0.1727,0.0064,-0.699894,-0.183855,0.688751,2017-10-19 22:08:06,50.270615500462476
-9.040505,-2.9113493,-0.7086837,-0.028099801,0.04520403,0.06841691,2.0,-9.2886,-3.0953,-0.5575,0.2785,0.13769999,-0.0578,-0.706437,-0.173664,0.683999,2017-10-19 22:08:07,42.657997385892365
-9.059659,-3.0071173,-0.45010993,0.02687807,0.043982297,0.021991149,2.0,-9.280399,-3.1292,-0.501,0.26049998,0.19139999,0.022699999,-0.703704,-0.174994,0.686335,2017-10-19 22:08:08,54.23345386646578
-9.059659,-3.0454245,-0.39264908,-0.035430185,0.004886922,0.008552114,2.0,-9.2921,-3.0909,-0.5212,0.29189998,0.0744,0.1214,-0.704311,-0.174146,0.686062,2017-10-19 22:08:09,51.25826033050791
-9.184157,-2.719813,-0.17238252,-0.09407324,0.07819075,-0.02565634,2.0,-9.306,-3.0184,-0.6756,0.16849999,0.3154,0.5119,-0.712626,-0.166007,0.679182,2017-10-19 22:08:10,51.99328834586132
-9.136273,-3.0358477,-0.19153613,-0.09285152,-0.0842994,0.02321288,1.0,-9.3269,-2.9515998,-0.682,0.37579998,0.111099996,0.1849,-0.723436,-0.097564,0.673237,2017-10-19 22:08:11,48.3094293202804
-9.078813,-2.8443117,-1.1779473,0.26633725,0.08307767,-0.1001819,1.0,-9.3427,-2.8938,-0.7132,0.30339998,0.092199996,-0.4701,-0.725671,-0.111206,0.671341,2017-10-19 22:08:12,52.750371556075415
-8.992621,-3.064578,-0.33518824,-0.17592919,0.047647487,0.1563815,1.0,-9.3209,-2.974,-0.6673,0.3011,-0.0037,0.2879,-0.712621,-0.161857,0.680127,2017-10-19 22:08:13,47.662216159806775
-9.088389,-2.9113493,-0.59376204,-0.0012217305,-0.013439035,-0.07696902,1.0,-9.3154,-3.0042,-0.6067,0.2563,0.12459999,0.021,-0.70861,-0.169523,0.682803,2017-10-19 22:08:14,44.89595471378048
-8.676587,-5.353435,0.41180268,-0.7049385,-0.784351,-0.8784242,2.0,-9.6566,-1.6951,0.21579999,1.8445,-3.0142999,1.4209,-0.695748,-0.023934,0.709278,2017-10-19 22:08:15,43.04623699880796
-8.255207,2.4612393,0.31603462,-2.2003367,-0.68661255,0.874759,2.0,-8.9601,3.9733,-0.31419998,1.0665,-1.5491999,0.95299995,0.7012,-0.015979,-0.656606,2017-10-19 22:08:16,52.44639585288522
-10.323798,1.5610195,0.30645782,5.8276544,1.9877555,1.5076154,13.0,-9.346399,2.444,-1.6854,0.5033,-2.7393,1.3005999,0.758063,0.205927,-0.542635,2017-10-19 22:08:17,54.42296590847064
-11.980585,0.12449849,1.1875241,1.9547688,1.4721853,-0.19914207,2.0,-9.5753,-2.1174998,0.006,-1.9046999,2.0289,1.7688999,-0.696674,-0.119738996,0.706528,2017-10-19 22:08:18,44.35429205842535
-8.00621,-2.825158,-0.60333884,0.52656585,-0.16371189,0.2724459,4.0,-9.6195,-1.8222,0.55939996,1.4935,-0.8075,-1.0031999,-0.686353,0.019863,0.71008,2017-10-19 22:08:19,51.21357175387442
-8.7053175,-4.223372,0.1436521,-0.4813618,0.25534168,0.893085,2.0,-9.4583,-2.5798,0.23439999,0.8706,-1.6547999,-0.117699996,-0.699781,0.05547,0.673978,2017-10-19 22:08:20,52.84168459947715
-8.619126,-3.9360676,0.37349546,-1.563815,-0.9932669,0.18203785,0.0,-8.7437,-4.3089,-1.0726,0.0155,0.28779998,1.5285,-0.744126,-0.031054,0.610358,2017-10-19 22:08:21,49.82939316116937
-8.801085,-3.1890767,-1.3215994,-0.4361578,-0.15027285,-0.10873401,1.0,-8.896,-3.8305998,-1.5351,0.109699994,0.6507,0.1788,-0.756922,-0.070426,0.618732,2017-10-19 22:08:22,45.07768236862043
-8.935161,-2.9592333,-1.6376339,0.119729586,0.087964594,0.037873644,1.0,-9.0792,-3.2615,-1.7605,0.19569999,0.3242,0.16,-0.761093,-0.102466,0.626287,2017-10-19 22:08:23,49.953007221427825
-8.695741,-3.41892,-1.7621324,0.05009095,0.07819075,0.004886922,1.0,-8.9556,-3.4587998,-2.0008,0.3265,0.041899998,0.2347,-0.771385,-0.085269,0.609535,2017-10-19 22:08:24,52.488736773905
-8.360553,-3.5051112,-1.9728222,0.017104227,-0.043982297,-0.018325957,1.0,-8.8796,-3.6199,-2.0535,0.19129999,0.2136,0.3662,-0.773845,-0.073805,0.602391,2017-10-19 22:08:25,49.31084774708498
-8.791509,-3.3423057,-1.733402,-0.15760323,-0.06963864,-0.013439035,1.0,-8.955999,-3.4808,-1.9604,0.2288,0.1915,0.17449999,-0.76966,-0.083869,0.61151,2017-10-19 22:08:26,44.46560975148181
-8.839393,-3.1411927,-1.8674773,0.19058995,0.204029,0.04642576,1.0,-9.0313,-3.2694,-1.9785999,0.2358,0.1458,0.124199994,-0.770631,-0.090617,0.614193,2017-10-19 22:08:27,38.32377067554875
-8.839393,-3.0550013,-1.9536686,0.002443461,0.02565634,-0.002443461,1.0,-9.0683,-3.1434,-2.0135999,0.2729,0.12709999,0.1201,-0.77135,-0.089282,0.615152,2017-10-19 22:08:28,39.00140789287284
-11.061212,-3.4572272,-1.5801731,0.3005457,1.0922271,0.042760566,1.0,-8.9003,-3.8476999,-1.4661,-2.1218,0.511,0.050699998,-0.759696,0.054852,0.57852,2017-10-19 22:08:29,46.21848777667034
-8.39886,-2.480393,-3.083732,0.8869763,-0.43004912,0.06352998,2.0,-9.269,-2.2036,-2.3234,0.857,-0.2577,-0.69629997,-0.785336,-0.041372,0.607618,2017-10-19 22:08:30,54.784968955888544
-8.494628,-3.9839516,0.12449849,-0.82344633,-0.13561209,-0.8820894,1.0,-8.5963,-4.5832,-1.1256,0.4657,0.5241,1.0227,-0.7268,-0.179236,0.63891,2017-10-19 22:08:31,71.32592482060956
-6.5601125,-7.0964136,-2.719813,-2.7403414,-1.205848,-0.49968776,1.0,-7.7998,-5.0044,-3.2075,1.2053,-1.7692,0.3681,0.663765,0.472183,-0.579386,2017-10-19 22:08:32,71.16212479666808
-8.159439,-5.0374002,-3.6487634,-1.7739526,-0.18448131,-0.7244862,2.0,-7.4940996,-5.0836,-3.7635999,-1.4749,0.1637,-0.1814,0.595383,0.587345,-0.538157,2017-10-19 22:08:33,55.36596410116921
-7.575254,-3.964798,-5.1810527,0.57665676,0.344528,-0.05375614,1.0,-7.5109997,-4.2585,-4.6496,0.0032,0.1979,-0.2917,0.664045,0.546583,-0.503004,2017-10-19 22:08:34,49.59999198513601
-7.0006456,-5.2289367,-4.855441,0.24312437,0.037873644,-0.05864306,1.0,-7.3690996,-5.0411997,-4.0559998,0.47849998,-0.16309999,-0.5643,0.664249,0.515339,-0.540508,2017-10-19 22:08:35,47.7174643131087
-6.981492,-5.305551,-3.2944214,0.29810223,-0.3005457,0.06963864,1.0,-7.1871,-5.6408,-3.5632,0.0211,0.41939998,0.8038,0.631401,0.531984,-0.563863,2017-10-19 22:08:36,49.31445220533766
-8.082825,-4.0797195,-3.2369606,0.20647246,-0.20158553,-0.5143485,1.0,-7.4535,-5.6653,-2.9187,-0.6135,1.6208,-0.3338,0.567399,0.569569,-0.589831,2017-10-19 22:08:37,51.55518946441934
-9.77792,-3.4763808,-1.1875241,0.3090978,0.14905111,0.9101892,1.0,-8.9890995,-3.8214,-0.87299997,-0.7381,0.5434,-0.339,0.636326,0.373632,-0.669293,2017-10-19 22:08:38,53.922151544095016
-8.082825,-2.2026656,-1.3694834,0.17715092,-0.2761111,0.21502456,2.0,-9.240399,-3.054,-1.2074,1.4461,0.5865,-0.48369998,0.620664,0.420852,-0.636056,2017-10-19 22:08:39,39.95517420119526
-8.322245,-3.5817258,-1.5035586,0.035430185,0.08307767,0.061086524,2.0,-8.875999,-3.7842,-1.7508999,0.42299998,0.153,0.2877,0.589439,0.491768,-0.613695,2017-10-19 22:08:40,37.80290077853251
-8.561666,-3.4476504,-2.1930888,1.632232,-0.020769417,-0.9407325,2.0,-8.2217,-5.2727,-0.87799996,-0.1752,2.1678998,-1.8246,0.563276,0.466345,-0.678307,2017-10-19 22:08:41,51.572455856832406
-8.303091,-4.6351743,-1.1013328,-0.17592919,0.09773844,-0.15027285,1.0,-8.0028,-5.5838,-0.9722,-0.4637,1.0388,0.21159999,0.592323,0.447895,-0.669328,2017-10-19 22:08:42,54.2123907013146
-7.2113357,-5.161899,-1.5514427,0.042760566,-0.002443461,-0.02932153,1.0,-8.0184,-5.5677,-0.93539995,0.709,0.346,-0.57049996,0.575125,0.469474,-0.668007,2017-10-19 22:08:43,51.030549009265805
-7.8625584,-5.363012,-0.30645782,-0.14172074,0.07574729,-0.14660765,1.0,-7.8153,-5.8476996,-0.94549996,-0.0637,0.3232,0.49859998,0.550363,0.495286,-0.669409,2017-10-19 22:08:44,55.83916412582998
-6.8282633,-5.4779334,-0.93852705,0.119729586,-0.09285152,-0.19792034,1.0,-7.6094,-6.1331,-0.807,1.1513,0.85499996,-0.1504,0.563429,0.472962,-0.677253,2017-10-19 22:08:45,49.89734931440321
-5.6215854,-6.531382,-0.81402856,-0.073303826,-0.21502456,-0.096516706,1.0,-6.6945996,-7.0431,-1.3211,0.9386,0.612,0.513,0.514541,0.54912,-0.65856,2017-10-19 22:08:46,51.89971084074752
-6.655881,-6.703765,-1.388637,-0.15149458,-0.6243043,0.2406809,1.0,-7.0783,-6.7685,-0.5036,0.41189998,0.091,-1.0435,0.430904,0.581118,-0.679974,2017-10-19 22:08:47,56.01025277938896
-8.916007,-4.3382936,-0.8619126,0.39950585,0.57910025,0.8344419,1.0,-8.7529,-3.3116999,-2.9306998,-0.0242,-0.8314,1.8748,0.661525,0.460228,-0.57424897,2017-10-19 22:08:48,49.6497106789313
-7.8146744,-4.146757,-0.8810662,-0.004886922,0.21868975,0.035430185,1.0,-8.9943,-3.485,-1.7681999,0.993,-0.56909996,1.119,0.692423,0.328868,-0.640831,2017-10-19 22:08:49,54.40037590903486
-8.121132,-4.003105,-0.45010993,-0.5131268,-0.009773844,0.5900958,1.0,-9.252299,-2.962,-1.3381,1.1245999,-0.8983,0.93219995,0.706713,0.256023,-0.659036,2017-10-19 22:08:50,50.910168372431016
-9.040505,-3.4476504,-0.46926352,0.042760566,0.02565634,-0.9602802,2.0,-9.0711,-3.6137998,-0.908,-0.2341,0.3545,0.4511,0.668275,0.314653,-0.67362,2017-10-19 22:08:51,55.798454934554215
-9.241618,-2.9592333,-0.9864111,0.17470746,-0.021991149,0.11484266,1.0,-9.0468,-3.6327,-1.0623,-0.0918,0.8344,0.2139,0.680935,0.300819,-0.667318,2017-10-19 22:08:52,49.29866281996753
-7.8146744,-2.1739352,-1.1875241,-0.22724187,-0.68661255,-1.1655309,1.0,-9.072,-3.6483,-0.74649996,0.93369997,2.2819,-1.1819999,-0.684442,-0.272519,0.676215,2017-10-19 22:08:53,49.31218901671082
-8.015787,-1.091756,-3.4476504,0.3090978,-0.37140608,-0.31031954,4.0,-9.0748,-3.3673,-1.5745,1.1817,2.284,-1.8801,0.611053,0.452812,-0.625037,2017-10-19 22:08:55,44.03387688871266
-8.714894,-1.2162545,-3.466804,0.6169739,0.18081611,0.06352998,5.0,-9.2593,-2.6739,-1.8125,1.1709,1.4304999,-1.8274,0.613333,0.463761,-0.597427,2017-10-19 22:08:56,49.86320142508401
-8.063671,-0.1340753,7.249643,0.6169739,-2.2198842,0.8307767,8.0,-6.8719997,-0.59929997,6.9702997,-1.4525,0.49409997,-0.13679999,0.2619,0.247459,-0.714468,2017-10-19 22:08:57,56.40251097957353
3.217807,0.9576807,9.308656,-0.50579643,-0.9541715,1.6713272,16.0,2.1592999,0.4603,9.5548,1.1358,0.1064,-0.20269999,-0.028376,-0.109686,-0.443929,2017-10-19 22:08:58,53.43172816114446
0.29688102,-0.12449849,10.180145,0.02321288,0.039095376,-0.018325957,6.0,0.2243,0.1987,9.802,0.1767,-0.2977,-0.3137,0.008032,-0.016248,-0.275436,2017-10-19 22:08:59,62.900343082610554
0.35434186,-0.17238252,9.835381,0.0,0.020769417,-0.002443461,9.0,0.3669,0.0448,9.7996,0.0039999997,-0.19209999,-0.0367,-0.004256,-0.018474,-0.355073,2017-10-19 22:09:00,64.53441100249455
0.38307226,-0.16280572,9.816227,0.0,-0.0036651914,0.0012217305,10.0,0.36069998,-0.083799995,9.7996,0.0094,-0.072399996,-0.0497,-0.011066,-0.01537,-0.372803,2017-10-19 22:09:01,57.29997410051956
0.36391866,-0.16280572,9.854534,-0.002443461,0.0036651914,0.0,10.0,0.36229998,-0.1433,9.7989,-8.0E-4,-0.022799999,-0.0201,-0.013672,-0.014419,-0.372811,2017-10-19 22:09:02,54.29123947772282
0.37349546,-0.17238252,9.835381,-0.002443461,0.004886922,0.0,12.0,0.36519998,-0.1558,9.7986,-0.0033999998,-4.9999997E-4,0.019199999,-0.014322,-0.01432,-0.372825,2017-10-19 22:09:03,50.36093031508874
0.37349546,-0.16280572,9.864111,-0.002443461,0.004886922,0.0,12.0,0.3728,-0.1564,9.7983,-0.0016,0.0099,-0.009699999,-0.014491,-0.014667,-0.372821,2017-10-19 22:09:04,39.882206472984194
0.38307226,-0.1436521,9.864111,-0.0012217305,0.0012217305,0.0012217305,12.0,0.36839998,-0.1531,9.7985,-0.0058,-0.0036,0.029199999,-0.014252,-0.01452,-0.372823,2017-10-19 22:09:05,52.79207515685127
0.36391866,-0.16280572,9.835381,-0.0012217305,-0.0012217305,0.0012217305,12.0,0.36859998,-0.152,9.7985,0.013499999,-0.0047,0.019299999,-0.014205,-0.0145499995,-0.372821,2017-10-19 22:09:06,54.19156375336078
0.36391866,-0.16280572,9.854534,-0.0012217305,-0.002443461,0.002443461,12.0,0.3707,-0.15789999,9.7983,0.0095,-0.0078,-0.019199999,-0.014496,-0.014599,-0.372815,2017-10-19 22:09:07,53.26896343312022
0.37349546,-0.16280572,9.854534,0.0,0.0,-0.0012217305,12.0,0.3739,-0.15429999,9.7983,0.0089,0.0069999998,0.038799997,-0.014413,-0.014759,-0.372816,2017-10-19 22:09:08,34.26573015844977
0.36391866,-0.16280572,9.835381,-0.0012217305,-0.002443461,0.002443461,12.0,0.37039998,-0.1585,9.7983,0.0011,0.0021,0.0103,-0.014548,-0.014513,-0.372812,2017-10-19 22:09:09,49.74842468738446
0.36391866,-0.16280572,9.825804,0.0,0.0,0.0036651914,12.0,0.3665,-0.1545,9.7985,0.0050999997,0.0078,-0.0095,-0.014281,-0.014404,-0.372816,2017-10-19 22:09:10,52.58590415176074
0.37349546,-0.1436521,9.854534,0.0,0.0036651914,0.0012217305,12.0,0.3655,-0.15869999,9.7985,0.0165,0.0117999995,0.038599998,-0.014448,-0.014266,-0.372809,2017-10-19 22:09:11,58.21732335914048
0.36391866,-0.15322891,9.844957,0.0012217305,-0.002443461,0.0,12.0,0.36749998,-0.1604,9.7984,-0.0064,0.0042999997,-0.0296,-0.014582,-0.014338,-0.372808,2017-10-19 22:09:12,52.92409446055465
0.35434186,-0.18195933,9.844957,-0.0012217305,0.0036651914,-0.002443461,12.0,0.3692,-0.1586,9.7984,-0.0074,-0.0174,0.0195,-0.014526,-0.014457,-0.372808,2017-10-19 22:09:13,48.71286394203638
0.36391866,-0.18195933,9.835381,-0.002443461,-0.0012217305,0.0,12.0,0.36769998,-0.15789999,9.7984,-0.0158,0.0014,0.019399999,-0.014505,-0.0143989995,-0.372808,2017-10-19 22:09:14,53.193357020915045
0.38307226,-0.17238252,9.816227,-0.0012217305,-0.0012217305,0.002443461,12.0,0.36749998,-0.1592,9.7984,-0.015899999,0.0029,-0.02,-0.0145229995,-0.014365,-0.372805,2017-10-19 22:09:15,45.702361183441326
0.36391866,-0.17238252,9.854534,0.0012217305,0.0,0.0,12.0,0.36859998,-0.15799999,9.7984,0.0029,-0.0081,0.0191,-0.01449,-0.014436,-0.372806,2017-10-19 22:09:16,50.58368601919363
0.36391866,-0.16280572,9.825804,0.0,-0.002443461,0.0012217305,12.0,0.36859998,-0.16049999,9.7984,0.0029,0.0041,0.0093,-0.014606,-0.014389,-0.372802,2017-10-19 22:09:17,53.04329838981513
0.35434186,-0.15322891,9.816227,0.0,0.0012217305,-0.0012217305,12.0,0.36749998,-0.1537,9.7985,0.0047999998,0.0166,0.0,-0.014305,-0.014422,-0.372809,2017-10-19 22:09:18,47.78761570571562
0.38307226,-0.15322891,9.825804,-0.002443461,-0.002443461,0.0012217305,12.0,0.36789998,-0.1575,9.7984,0.0044,-0.009,0.0392,-0.014452,-0.014413,-0.372806,2017-10-19 22:09:19,52.68034910634698
0.36391866,-0.15322891,9.835381,0.0,-0.0012217305,0.0,12.0,0.3682,-0.15799999,9.7984,-0.005,9.999999E-4,0.0488,-0.014483,-0.014419,-0.372804,2017-10-19 22:09:20,52.679167696614954
0.38307226,-0.17238252,9.844957,-0.002443461,0.0,0.0,7.0,0.36229998,-0.1568,9.7986,-0.0103,4.0E-4,0.019399999,-0.014313,-0.014164,-0.372803,2017-10-19 22:09:21,49.217993659977694
0.36391866,-0.18195933,9.835381,-0.002443461,0.002443461,0.0036651914,8.0,0.3705,-0.1572,9.7983,0.0184,0.0115,-0.0488,-0.014487,-0.014541,-0.372801,2017-10-19 22:09:22,53.652977024560315
0.37349546,-0.1436521,9.844957,0.0,0.0012217305,0.0036651914,9.0,0.3694,-0.15529999,9.7984,-0.016999999,-0.0011999999,0.0198,-0.014376,-0.014525,-0.3728,2017-10-19 22:09:23,52.6882909641523
0.37349546,-0.16280572,9.844957,0.002443461,0.0,0.0012217305,7.0,0.3637,-0.1576,9.7986,0.0082,0.010799999,0.0196,-0.014382,-0.014245,-0.372796,2017-10-19 22:09:24,53.48447887065652
0.35434186,-0.1436521,9.864111,0.0,0.0,0.002443461,7.0,0.3601,-0.1585,9.798699,-0.057499997,0.0022,0.029,-0.01435,-0.014026,-0.372791,2017-10-19 22:09:25,41.69402915149117
0.36391866,-0.16280572,9.835381,-0.002443461,0.0036651914,0.0,7.0,0.368,-0.1602,9.7984,0.0030999999,0.0039,-0.0098,-0.0145809995,-0.014369,-0.372789,2017-10-19 22:09:26,41.83095423408831
0.37349546,-0.15322891,9.816227,0.0012217305,0.0012217305,0.002443461,8.0,0.3592,-0.1576,9.798699,-0.0072,-0.0084999995,0.009699999,-0.014292,-0.014001,-0.372788,2017-10-19 22:09:27,52.925511832944984
0.38307226,-0.16280572,9.835381,-0.0012217305,0.002443461,0.0012217305,7.0,0.3649,-0.1577,9.7985,0.0039999997,-0.0074,-0.0695,-0.014407,-0.014298,-0.372784,2017-10-19 22:09:28,55.07447002450348
0.35434186,-0.17238252,9.835381,-0.0012217305,0.002443461,0.0012217305,9.0,0.3676,-0.153,9.7985,-0.015999999,0.0064999997,-0.029399998,-0.014207,-0.014378,-0.372786,2017-10-19 22:09:29,45.606698763033044
0.38307226,-0.22026655,9.940725,-0.009773844,0.0012217305,0.0,8.0,0.3655,-0.1786,9.7982,0.0056,0.042,-0.0872,-0.014809,-0.013937,-0.37276,2017-10-19 22:09:30,53.796494964022386
0.38307226,-0.18195933,9.80665,-0.0036651914,0.0061086523,0.0,43.0,0.3671,-0.1568,9.7985,0.0149,-0.0095999995,0.0103,-0.014405,-0.014391,-0.37274998,2017-10-19 22:09:31,48.23283561959602
0.38307226,-0.15322891,9.854534,-0.0012217305,0.0012217305,0.0,43.0,0.3674,-0.15519999,9.7985,0.0037,-9.999999E-4,0.009699999,-0.014331,-0.014437,-0.372751,2017-10-19 22:09:32,55.82616494392967
0.37349546,-0.17238252,9.835381,-0.002443461,0.0,0.002443461,43.0,0.3698,-0.1551,9.7984,-0.018099999,-0.0011,-0.029099999,-0.014374,-0.014549,-0.372748,2017-10-19 22:09:33,38.85339041748155
0.37349546,-0.16280572,9.835381,0.0,0.002443461,-0.0012217305,43.0,0.3685,-0.15439999,9.7985,0.0026999998,0.0079,0.0198,-0.01435,-0.014455,-0.372746,2017-10-19 22:09:34,45.377529230650644
0.36391866,-0.17238252,9.844957,-0.0012217305,0.0036651914,0.002443461,42.0,0.3672,-0.1546,9.7985,-0.0061,-0.0014,-0.0196,-0.0143,-0.014436,-0.372742,2017-10-19 22:09:35,44.41393975051235
0.38307226,-0.18195933,9.931149,-0.0073303827,0.0,-0.0036651914,9.0,0.3918,-0.1585,9.7975,-0.0309,0.031799998,-0.0382,-0.01512,-0.015284,-0.37859,2017-10-19 22:09:36,35.76649034441989
0.36391866,-0.20111294,9.624691,-0.009773844,0.002443461,0.0,9.0,0.3685,-0.15439999,9.7985,0.0317,-0.050699998,-0.048899997,-0.014215,-0.014522,-0.375935,2017-10-19 22:09:37,52.941308894564074
0.31603462,-0.1340753,9.931149,0.004886922,0.0012217305,0.002443461,10.0,0.3759,-0.1462,9.7983,-0.044299997,0.0782,-0.068399996,-0.014141,-0.015007,-0.378019,2017-10-19 22:09:38,57.224170475917006
0.35434186,-0.15322891,9.825804,0.0,-0.0036651914,0.0012217305,10.0,0.369,-0.1583,9.7984,-0.0064,0.0015,0.0016999999,-0.014593,-0.01437,-0.378067,2017-10-19 22:09:39,53.654026766073656
0.36391866,-0.15322891,9.844957,0.0,0.002443461,0.002443461,10.0,0.3665,-0.15709999,9.7985,-0.0149,8.0E-4,-1.0E-4,-0.014485,-0.0142749995,-0.378065,2017-10-19 22:09:40,56.614236776539414
0.37349546,-0.15322891,9.797073,0.0,0.0,0.002443461,10.0,0.3739,-0.1555,9.7982,0.0074,-9.0E-4,-0.0288,-0.014474,-0.014676,-0.378066,2017-10-19 22:09:41,45.10569597749485
0.37349546,-0.17238252,9.844957,0.0,0.0012217305,0.0012217305,10.0,0.3631,-0.15339999,9.798699,-9.999999E-4,0.0064999997,0.029,-0.014246,-0.014187,-0.378063,2017-10-19 22:09:42,57.961409683717385
0.34476504,-0.16280572,9.825804,-0.0036651914,0.0,0.0,9.0,0.36749998,-0.1591,9.7984,-0.024899999,0.0123,-0.0099,-0.014598,-0.014282,-0.378058,2017-10-19 22:09:43,58.09754416499777
0.35434186,-0.17238252,9.854534,0.0,-0.0012217305,0.0036651914,10.0,0.3696,-0.1627,9.7983,0.0023,0.015899999,0.0,-0.014809,-0.014313,-0.378052,2017-10-19 22:09:44,51.51625645074561
0.35434186,-0.17238252,9.835381,-0.0012217305,0.002443461,0.0,10.0,0.366,-0.16049999,9.7984,0.0055,-0.0056999996,0.0098,-0.01468,-0.014233,-0.378051,2017-10-19 22:09:45,56.590054412887916
0.34476504,-0.15322891,9.864111,-0.002443461,0.002443461,0.0012217305,10.0,0.36609998,-0.16059999,9.7984,-0.0246,0.0143,-0.0391,-0.014529,-0.014072,-0.378051,2017-10-19 22:09:46,55.99026909670269
0.37349546,-0.16280572,9.816227,0.0,-0.004886922,0.002443461,10.0,0.3694,-0.1618,9.7983,0.0104,-0.0037,-0.06,-0.014766,-0.01432,-0.378045,2017-10-19 22:09:47,56.47105103031346
0.36391866,-0.16280572,9.854534,-0.002443461,0.0012217305,0.0,10.0,0.36569998,-0.1607,9.7985,0.0047,-0.005,-0.0393,-0.01464,-0.014166,-0.378045,2017-10-19 22:09:48,54.74904500577874
0.35434186,-0.18195933,9.854534,-0.0012217305,0.002443461,-0.0012217305,10.0,0.3689,-0.1593,9.7984,0.0011,0.0034999999,0.0098,-0.014638,-0.014346,-0.378045,2017-10-19 22:09:49,58.364047846659744
1.0630256,-1.1109096,9.672575,0.33841935,-0.44715336,0.9419542,12.0,0.39299998,-0.4064,9.790299,0.732,-0.57129997,-0.2272,-0.025995,-0.012492,-0.315029,2017-10-19 22:09:50,59.42492816409861
6.2728086,1.7812861,9.643845,-0.07086037,-0.20158553,-0.30543262,5.0,3.8128,0.8278,8.997,1.486,1.5101999,-0.2228,0.116517,-0.175639,0.319713,2017-10-19 22:09:51,39.481175126535206
2.6048915,1.1875241,10.649409,-0.31398472,-0.11484266,-0.23212878,5.0,2.4873,1.2281,9.406099,0.1532,0.0481,1.0029,0.1123,-0.088369,0.426446,2017-10-19 22:09:52,50.22746519427761
0.9768343,0.81402856,10.247183,0.1001819,-0.1966986,-0.06352998,6.0,1.3878,1.2896999,9.621799,-0.6814,-0.5925,-0.695,0.098673,-0.02624,0.554767,2017-10-19 22:09:53,51.22365991206823
2.882619,0.0,9.174581,0.3726278,-0.13439035,-0.30665433,5.0,3.5505998,1.3758999,9.0371,-0.83879995,-1.5912,-0.6064,0.163271,-0.116493,0.521176,2017-10-19 22:09:54,57.6556465362529
6.215348,0.36391866,6.8569937,0.22724187,-0.25045475,0.16249016,4.0,5.6035,1.1027,7.9721,0.4676,-0.76699996,-1.0835,0.21827,-0.216798,0.54273,2017-10-19 22:09:55,53.67169587598192
4.6926355,2.0494366,7.8050976,-0.080634214,-0.2846632,0.16126843,5.0,4.6507998,1.7091999,8.4627,-0.2599,0.43649998,-0.842,0.208634,-0.159112,0.522903,2017-10-19 22:09:56,60.15488493269453
2.920926,-0.45968673,11.568783,0.5155703,0.30176744,-0.096516706,5.0,3.6604998,-0.003,9.097799,-0.65529996,-0.2812,1.9016999,0.114655,-0.147102,0.583891,2017-10-19 22:09:57,48.81384737023734
3.7924154,0.45968673,9.3182335,0.111177474,-0.10995574,0.07086037,5.0,3.8305,0.578,9.009,-0.051799998,-0.0524,-0.0387,0.143809,-0.143287,0.577134,2017-10-19 22:09:58,56.16716360403799
4.098873,0.21068975,9.423578,-0.06841691,-0.75991637,-0.32375857,5.0,4.4467,0.0578,8.7403,-0.3976,0.12799999,0.673,0.138996,-0.187207,0.569483,2017-10-19 22:09:59,59.11875077070616
5.1523223,1.1204864,8.772355,-0.034208454,0.037873644,-0.002443461,5.0,5.1552,1.1515,8.2624,-0.0126,-0.0513,0.47759998,0.20524,-0.191829,0.542182,2017-10-19 22:10:00,59.46173651010547
4.8267107,0.9959879,8.504205,-0.07086037,0.04520403,0.02687807,5.0,4.9761,1.0437,8.3856,-0.1265,-0.040799998,-0.0288,0.194956,-0.185593,0.546376,2017-10-19 22:10:01,58.553752594810135
4.807557,0.5267244,8.341399,0.02443461,0.013439035,0.03176499,5.0,4.7773,0.5527,8.5464,0.0442,-0.125,-0.2987,0.170292,-0.188378,0.565486,2017-10-19 22:10:02,58.90257427144286
4.548983,0.50757074,8.868123,-0.032986723,0.02565634,0.0073303827,5.0,4.6928997,0.41279998,8.6009,-0.2139,0.0942,0.0975,0.161707,-0.186829,0.567409,2017-10-19 22:10:03,53.82960191497649
4.721366,0.33518824,8.647857,-0.013439035,0.009773844,0.0073303827,5.0,4.6857,0.3392,8.608,0.038399998,-0.0277,0.0413,0.160394,-0.188105,0.573816,2017-10-19 22:10:04,52.75777438132256
4.5298295,0.2873042,8.762778,-0.015882496,0.06841691,-0.018325957,5.0,4.5358,0.2864,8.689799,-0.036199998,-0.0039999997,0.0079,0.153947,-0.181476,0.580038,2017-10-19 22:10:05,55.48296022492038
4.4723687,0.39264908,8.7532015,0.012217305,-0.021991149,-0.010995574,5.0,4.4983,0.3741,8.705999,-0.0376,0.0253,0.011299999,0.157263,-0.178312,0.580673,2017-10-19 22:10:06,55.96615130154974
4.6830587,0.25857377,8.7532015,-0.0061086523,0.020769417,0.004886922,5.0,4.6022997,0.23709999,8.6563,0.0537,0.0162,0.0515,0.153893,-0.186991,0.577182,2017-10-19 22:10:07,62.64895635738171
4.5202527,0.31603462,8.63828,-0.010995574,0.0012217305,0.0,5.0,4.5445,0.2838,8.6854,0.0433,0.018099999,-0.1444,0.154093,-0.183329,0.578434,2017-10-19 22:10:08,46.68975870305999
4.711789,0.45968673,8.465898,-0.04520403,-0.012217305,0.034208454,5.0,4.6692,0.39319998,8.614699,0.0058999998,0.0552,-0.2105,0.161027,-0.186654,0.569247,2017-10-19 22:10:09,57.49386435275913
4.8745947,0.34476504,8.197746,-0.02321288,0.037873644,0.012217305,5.0,4.7363,0.36069998,8.5794,0.124699995,-0.0493,-0.2927,0.160854,-0.190912,0.567309,2017-10-19 22:10:10,62.33161087146196
5.1235914,0.22984336,8.226477,0.12705997,-0.10262536,-0.05253441,5.0,4.9716,0.40219998,8.4433,0.1917,-0.2382,-0.391,0.165205,-0.206807,0.534792,2017-10-19 22:10:11,55.61156535695307
5.439626,1.3024458,8.082825,0.04642576,0.032986723,0.05742133,5.0,5.3578997,1.3044,8.1092,-9.999999E-4,-0.0189,-0.1037,0.212475,-0.204053,0.512336,2017-10-19 22:10:12,44.1077599479288
5.363012,1.3503298,8.034941,-0.0012217305,-0.0012217305,0.012217305,5.0,5.4058,1.2889999,8.0799,-0.059,0.025999999,-0.074099995,0.212988,-0.206537,0.513288,2017-10-19 22:10:13,37.290255054867
5.45878,1.0151415,8.207323,-0.015882496,0.009773844,-0.0073303827,5.0,5.3392,1.0548999,8.1578,-0.0115,-0.022599999,-0.015299999,0.202311,-0.207532,0.523196,2017-10-19 22:10:14,46.63807748928928
5.094861,0.90979666,8.389283,0.009773844,0.036651913,-0.009773844,5.0,5.0457,0.98209995,8.351399,-4.0E-4,-0.0866,-0.102299996,0.191515,-0.193286,0.53425,2017-10-19 22:10:15,40.34030351191699
5.133168,0.8523358,8.255207,0.019547688,-0.015882496,0.02932153,5.0,4.9961,0.9005,8.3903,0.0788,-0.0731,-0.2003,0.187044,-0.192943,0.537122,2017-10-19 22:10:16,39.16661833721205
5.0278234,0.90021986,8.494628,0.040317107,-0.012217305,0.0012217305,5.0,4.9733,0.8796,8.406,-0.1041,-0.1011,0.0289,0.185275,-0.192897,0.536033,2017-10-19 22:10:17,50.90318570129166
4.7884035,1.0342951,8.561666,-0.02443461,0.0073303827,-0.037873644,5.0,4.8094,0.9842,8.4894,-0.0567,0.0387,0.013599999,0.184126,-0.181471,0.536792,2017-10-19 22:10:18,51.916802886343746
4.912902,0.92895025,8.523358,0.0012217305,0.030543262,0.021991149,5.0,4.8441,0.9209,8.4768,-0.0131,0.014099999,-0.1109,0.182309,-0.185915,0.535347,2017-10-19 22:10:19,56.1719585910883
4.9416323,0.9959879,8.389283,0.008552114,-0.0012217305,-0.002443461,5.0,4.8591,0.9932,8.46,0.0501,-0.019299999,-0.1136,0.186183,-0.184371,0.535849,2017-10-19 22:10:20,57.349885602099455
4.912902,0.92895025,8.523358,0.020769417,-0.009773844,0.010995574,5.0,4.8889,0.9486,8.448,0.0299,-0.062699996,-0.12109999,0.185327,-0.186884,0.536394,2017-10-19 22:10:21,52.33881320756177
5.056554,0.79487497,8.532935,0.019547688,0.0,-0.0073303827,5.0,4.9344,0.87759995,8.4291,0.052699998,-0.069699995,0.0841,0.184366,-0.190601,0.537676,2017-10-19 22:10:22,49.44126940181101
5.046977,0.90021986,8.446744,0.010995574,0.0061086523,0.0,5.0,4.961,0.92569995,8.408299,-0.0132,0.0779,-0.21849999,0.187596,-0.189577,0.540844,2017-10-19 22:10:23,49.04831387886112
5.0278234,0.9864111,8.475474,0.0,-0.0012217305,-0.0073303827,5.0,5.0699,0.93289995,8.342299,-0.0738,0.021599999,0.053799998,0.192345,-0.194027,0.541418,2017-10-19 22:10:24,55.53678783261464
5.142745,0.90021986,8.42759,-0.02565634,0.020769417,-0.010995574,5.0,5.118,0.9206,8.3143,0.0052,-0.044299997,0.033,0.193456,-0.19662,0.54219,2017-10-19 22:10:25,55.34674872440669
5.104438,0.9672575,8.255207,0.0061086523,-0.008552114,-0.0012217305,5.0,5.1029997,0.9338,8.3221,-0.0188,0.011,-0.1708,0.193443,-0.196064,0.540675,2017-10-19 22:10:26,51.032178726624416
5.1906295,0.91937345,8.341399,-0.008552114,-0.017104227,0.017104227,5.0,5.1145,0.9395,8.3143,0.0381,-0.033999998,-0.0356,0.193786,-0.196298,0.540578,2017-10-19 22:10:27,60.092650817554556
5.085284,0.81402856,8.37013,0.0073303827,-0.008552114,-0.008552114,5.0,5.0699997,0.8574,8.3504,-0.0347,0.0094,-0.022799999,0.190369,-0.194955,0.547997,2017-10-19 22:10:28,59.15402237875202
5.0278234,0.9768343,8.418014,0.02932153,0.008552114,0.009773844,5.0,5.0663,0.90749997,8.3473,-0.070199996,0.076699995,-0.0492,0.193339,-0.192534,0.550945,2017-10-19 22:10:29,60.43056693619677
5.094861,0.7757214,8.580819,0.030543262,-0.013439035,0.009773844,5.0,5.0445,0.8578,8.3657,0.0301,-0.0792,0.04,0.192543,-0.191894,0.55701,2017-10-19 22:10:30,57.21093661902149
4.7788267,0.39264908,8.686164,0.004886922,-0.021991149,-0.05253441,5.0,4.8546,0.37,8.5126,-0.111999996,0.029399998,0.1275,0.164925,-0.197414,0.560492,2017-10-19 22:10:31,33.85874273904196
4.8937483,0.46926352,8.532935,0.018325957,0.002443461,0.03176499,5.0,4.8946,0.4386,8.4865,0.0046,0.038799997,-0.1697,0.169446,-0.196485,0.562354,2017-10-19 22:10:32,35.73667574813275
4.817134,0.2681506,8.676587,-0.037873644,0.06719518,-0.03176499,5.0,4.8472,0.2419,8.5215,-0.055499997,0.0015,0.079399996,0.160816,-0.198301,0.570913,2017-10-19 22:10:33,42.55927975834575
4.912902,0.2777274,8.418014,0.013439035,-0.0012217305,0.0012217305,5.0,4.7865,0.261,8.5550995,0.0839,0.0412,-0.1996,0.159899,-0.195549,0.57079,2017-10-19 22:10:34,60.02947327030487
4.8458643,0.17238252,8.580819,-0.0061086523,-0.015882496,-0.0036651914,5.0,4.7904997,0.1592,8.5554,0.0407,0.0063,-0.033099998,0.156189,-0.198493,0.572738,2017-10-19 22:10:35,53.45333675339694
4.6830587,0.1340753,8.762778,-0.032986723,0.0012217305,-0.02565634,5.0,4.7995,0.0804,8.551499,-0.1055,0.0268,0.0786,0.153034,-0.20143,0.572281,2017-10-19 22:10:36,61.494129637759414
4.9320555,0.5746084,8.350976,0.015882496,-0.012217305,-0.030543262,5.0,4.9484997,0.4191,8.4560995,-0.078999996,0.1566,-0.16849999,0.171516,-0.198576,0.565668,2017-10-19 22:10:37,54.962566122326784
4.9416323,0.31603462,8.532935,0.02687807,-0.015882496,-0.0073303827,5.0,4.9304,0.2722,8.4727,-0.0412,0.0299,0.0501,0.164656,-0.202236,0.56733,2017-10-19 22:10:38,46.05045169645357
4.903325,0.2681506,8.37013,0.05742133,-0.028099801,-0.02443461,5.0,4.9818,0.2913,8.4419,-0.1126,8.0E-4,-0.2032,0.16805,-0.203596,0.567697,2017-10-19 22:10:39,46.45343887229235
4.951209,0.47884035,8.418014,0.03176499,-0.032986723,0.02687807,5.0,4.9714,0.39999998,8.4436,-0.053099997,0.0777,-0.0578,0.172562,-0.199984,0.568331,2017-10-19 22:10:40,51.59489426242878
4.8267107,0.6703765,8.465898,0.061086524,-0.030543262,-0.008552114,4.0,5.0235,0.3698,8.4141,-0.1938,0.3337,-0.038,0.172266,-0.203284,0.567445,2017-10-19 22:10:42,48.82709930880911
5.0757074,0.35434186,8.418014,-0.002443461,-0.002443461,0.0061086523,4.0,5.0239997,0.3583,8.4143,0.0115,0.0019999999,-0.0774,0.172118,-0.203384,0.568717,2017-10-19 22:10:43,42.369432387260005
5.00867,0.4405331,8.446744,-0.0012217305,0.002443461,0.0061086523,4.0,5.0329,0.3992,8.4071,-0.046299998,0.0098,-0.0309,0.17466299,-0.20210999,0.570428,2017-10-19 22:10:44,56.40665892201444
5.0182467,0.37349546,8.456321,-0.010995574,0.004886922,-0.004886922,4.0,5.0348,0.35999998,8.4077,-0.0581,0.0101,-0.012,0.173166,-0.20331,0.570947,2017-10-19 22:10:45,58.206767499223986
5.046977,0.38307226,8.446744,-0.010995574,0.002443461,0.0061086523,2.0,5.0202,0.3718,8.415999,-0.053099997,0.007999999,-0.059499998,0.173141,-0.202296,0.570955,2017-10-19 22:10:46,54.4972257296746
4.6351743,0.8810662,8.169016,-0.31887165,-0.14660765,-0.018325957,1.0,5.253,0.50159997,8.2657995,-0.54249996,0.2696,-0.2613,0.196566,-0.200835,0.613418,2017-10-19 22:10:47,54.64400337162505
6.6175733,2.0494366,11.013328,-1.6126842,-1.3341297,-1.0848967,2.0,5.4955997,2.3079,7.7872,1.0273,0.12789999,2.6819,0.19446,-0.255232,0.237518,2017-10-19 22:10:48,52.095969773780496
6.4643445,5.8322754,5.5162406,-0.27488935,0.061086524,-0.041538835,2.0,5.9263,5.6018996,5.4466,1.2702999,0.0279,1.1257,0.321897,-0.346629,-0.007381,2017-10-19 22:10:49,59.036074890419556
6.4739213,8.781932,-1.982399,0.39095375,-0.61941737,0.3200934,1.0,5.6612997,7.463,-2.9022,0.9978,0.37039998,1.0293,0.535034,-0.605085,-0.113747,2017-10-19 22:10:50,60.81007339229406
5.6407394,6.3685765,-7.4124484,-0.49357912,-1.033584,-0.408058,1.0,3.8523998,7.1506996,-5.495,0.7107,-0.4429,-2.3126,0.666214,-0.581702,-0.118083,2017-10-19 22:10:51,60.37691545235728
2.566584,8.647857,-2.920926,0.43493605,0.22968532,-0.07086037,1.0,2.1044,9.149799,-2.8321,0.5387,-0.5532,0.056599997,0.574472,-0.560697,-0.310264,2017-10-19 22:10:52,62.54310273850179
2.6240451,8.916007,-4.3382936,0.11728612,-0.043982297,0.13561209,1.0,3.0579,8.4247,-3.9803,0.7653,0.69659996,-0.1308,0.589032,-0.596641,-0.233942,2017-10-19 22:10:53,69.11787295750143
2.566584,8.695741,-3.1124623,-0.19058995,0.07696902,-0.034208454,1.0,2.6272,8.6817,-3.7275,0.13,0.173,0.2717,0.604131,-0.570156,-0.248461,2017-10-19 22:10:54,60.91171534909911
3.0358477,8.6095495,-3.9743748,0.16371189,0.041538835,0.039095376,1.0,2.911,8.5199995,-3.8865,0.1287,0.0122,-0.0585,0.60788697,-0.574315,-0.22663599,2017-10-19 22:10:55,74.94841877518175
5.142745,9.165004,-3.1411927,0.065973446,0.02932153,0.49113566,1.0,3.2944999,8.4809,-3.6590998,0.831,0.6498,0.9971,0.597779,-0.57378,-0.215121,2017-10-19 22:10:56,55.924719717303084
1.6663644,10.141838,-1.934515,-0.31642818,0.13072516,-0.4166101,1.0,2.7733,9.0749,-2.4745998,-1.4290999,1.0324,0.7754,0.569449,-0.542479,-0.284597,2017-10-19 22:10:57,56.84731693575828
3.3901896,8.848969,-2.8921957,-0.073303826,-0.04642576,-0.07452556,1.0,3.2263,8.7654,-2.9878,0.21329999,0.039699998,0.1545,0.564451,-0.57675,-0.254013,2017-10-19 22:10:58,46.03066996869813
3.5817258,8.944737,-2.96881,0.047647487,-0.042760566,-0.017104227,1.0,2.9373999,8.8821,-2.941,0.5531,0.0596,-0.1475,0.566211,-0.574529,-0.27052,2017-10-19 22:10:59,54.01281497404889
1.9536686,9.002198,-3.0550013,-0.28099802,-0.10751228,0.06719518,2.0,2.3369,9.189899,-2.5005,-1.0094,0.8675,0.60539997,0.559022,-0.558831,-0.31311,2017-10-19 22:11:00,60.718070712416534
1.685518,9.337387,-3.0550013,0.35063663,0.028099801,0.18692476,2.0,1.7361,9.222,-2.8478,0.095599994,0.0409,-0.33929998,0.563896,-0.575459,-0.336581,2017-10-19 22:11:01,58.82704565823627
2.5187001,8.781932,-3.323152,0.07086037,-0.013439035,0.002443461,2.0,2.317,8.9783,-3.1922,0.1776,-0.2628,-0.100499995,0.56218,-0.588985,-0.306832,2017-10-19 22:11:02,56.10540291450009
4.999093,8.264784,-2.327164,0.18448131,0.7220427,0.5497787,2.0,4.2314,8.5517,-2.2656,1.1919999,-0.608,0.3002,0.518929,-0.588412,-0.234927,2017-10-19 22:11:03,41.79180969235095
5.6215854,6.933608,-5.142745,0.42149702,-0.24312437,0.36163223,2.0,5.1935,7.1366,-4.2739,0.5568,-0.18349999,-0.94329995,0.582211,-0.620641,-0.091265,2017-10-19 22:11:04,60.64534370135705
4.098873,7.97748,-4.6830587,-0.32498032,-0.18814649,-0.29077184,2.0,4.92,7.1937,-4.496,-0.5112,0.68079996,-0.3275,0.58954,-0.617798,-0.107932,2017-10-19 22:11:05,61.05499860573289
7.5082164,6.244078,-3.6774938,0.38240165,-0.30298916,-0.3298672,2.0,7.513,5.4423,-3.179,-0.2584,0.5907,-0.5355,0.526051,-0.623472,0.040726,2017-10-19 22:11:06,61.54786429752784
8.1881695,5.0278234,-2.815581,0.09285152,-0.042760566,0.04886922,2.0,7.9505,4.6046,-3.4287,-0.5617,-0.0074,0.4513,0.606269,-0.554916,0.171104,2017-10-19 22:11:07,51.01183654774197
7.297527,6.751649,-2.8443117,-0.028099801,0.0036651914,0.059864793,2.0,6.554,6.4702,-3.3690999,0.0892,-0.25779998,0.5972,0.620152,-0.537674,0.04289,2017-10-19 22:11:08,57.88518457289633
9.356541,1.0247183,-1.4556746,1.6872097,1.4355333,2.0842721,2.0,9.4221,1.7565,-2.0753999,-0.8175,-2.2489998,1.4914,0.532807,-0.558387,0.380518,2017-10-19 22:11:09,62.34843158104105
7.517793,-6.1387334,1.6376339,0.6976081,0.4691445,-0.5729916,2.0,7.1050997,-6.7205,0.72279996,0.45619997,0.5294,0.98829997,0.246352,-0.634393,0.662036,2017-10-19 22:11:10,51.69939162251935
8.226477,-5.410896,0.095768064,-0.11362094,0.03176499,-0.03176499,2.0,8.1557,-5.4368,-0.309,-0.0818,-0.037299998,0.34059998,0.418073,-0.583928,0.650908,2017-10-19 22:11:11,53.59025908105406
6.291962,-6.1004257,1.2545617,-0.06963864,-0.747699,-0.22479841,2.0,6.1327996,-7.5158997,1.4383999,0.1406,1.3892,-0.3401,0.316759,-0.576543,0.740721,2017-10-19 22:11:12,53.967006329224986
8.1881695,-6.1195793,1.3982137,-0.028099801,0.14416419,-0.0842994,2.0,7.7053,-6.0039,0.86609995,0.401,0.0629,0.4125,0.395067,-0.547502,0.708163,2017-10-19 22:11:13,52.3486069921606
-0.5554548,-5.5737014,2.9496565,2.9468138,-1.3939945,-1.0861183,2.0,3.8981998,-6.3304,6.3952,-4.5329,1.5783,-4.0264997,-0.344573,0.199507,-0.816403,2017-10-19 22:11:14,49.49063698130048
2.777274,-1.5514427,8.963891,0.09162979,0.12339478,0.6914995,4.0,2.1013,-2.0644999,9.3537,0.8066,0.6076,-0.1995,-0.126988,0.083561,-0.9697,2017-10-19 22:11:15,55.65249532696667
2.135628,-4.4244847,8.552089,-2.221106,0.593761,-0.4373795,2.0,1.9873999,-4.5248,8.4703,0.087699994,-0.0042,0.2584,-0.109931,0.255993,-0.96034,2017-10-19 22:11:16,59.573514487197734
11.118672,-3.6296098,0.9959879,-0.35063663,-0.6927212,-0.7293731,2.0,9.694699,-1.2358,-0.8091,-1.3370999,-1.6387999,2.3641,0.446032,-0.591605,0.46133,2017-10-19 22:11:17,48.09567584047315
9.835381,-1.4077905,-1.5035586,-0.3359759,-0.05375614,-0.21991149,2.0,9.6212,-1.5791,-1.0526,0.1391,0.0405,-0.43069997,0.444432,-0.598491,0.477674,2017-10-19 22:11:18,55.17949895711189
9.691729,-2.087744,-0.41180268,0.0073303827,-0.062308256,-0.061086524,2.0,9.6265,-1.8626,-0.1724,-0.0034999999,-0.20359999,-0.22839999,0.418575,-0.577518,0.510902,2017-10-19 22:11:19,58.828003516829824
9.586384,-2.2122424,-0.58418524,-0.028099801,-0.05131268,-0.017104227,2.0,9.5573,-2.1248,-0.5596,-0.061199997,-0.096499994,0.0044,0.434203,-0.583561,0.519084,2017-10-19 22:11:20,46.849353209376055
9.576807,-2.1547816,-0.79487497,0.0012217305,-0.0073303827,-0.004886922,2.0,9.5422,-2.1046999,-0.8287,-0.0067999996,-0.0285,0.020399999,0.445162,-0.586575,0.515434,2017-10-19 22:11:21,57.5323454880947
9.643845,-2.1068976,-0.79487497,-0.012217305,-0.012217305,-0.0012217305,2.0,9.5498,-2.0873,-0.78349996,0.038399998,0.0132,7.0E-4,0.444357,-0.58523,0.516057,2017-10-19 22:11:22,78.46740832326338
9.624691,-2.0494366,-0.842759,-0.0036651914,-0.02321288,0.002443461,2.0,9.5541,-2.0562,-0.8132,0.0884,0.0018,-0.0222,0.445778,-0.585446,0.514391,2017-10-19 22:11:23,75.8171136433799
9.624691,-1.9536686,-1.0151415,0.21624629,-0.07819075,0.09040806,2.0,9.5414,-2.0986,-0.8527,0.2303,-0.1721,-0.0044,0.44814,-0.585238,0.517258,2017-10-19 22:11:24,74.9692474103219
9.844957,-4.3957543,6.0716953,0.50457466,-0.064751714,-0.10995574,2.0,8.353499,-2.0084999,4.7279,1.7988,-3.3715,2.1146,0.349445,-0.364581,0.728371,2017-10-19 22:11:25,55.17804327423302
9.030929,4.0222588,4.405331,1.3414601,-0.42760566,1.137431,2.0,8.0418,2.2266998,5.1517,3.8876,0.7787,-2.7151,0.464879,-0.20039,0.677241,2017-10-19 22:11:26,57.480302321481716
2.8060043,1.8579005,10.94629,1.0458013,-3.644422,-0.7819075,4.0,3.3871,3.8012998,8.3813,-4.0277,-4.6801,1.9473,0.261952,0.063632,0.79224,2017-10-19 22:11:27,56.955614001885934
16.79772,1.1204864,0.31603462,0.6597344,-2.9382617,2.3127358,2.0,8.887899,3.4836998,2.2446,6.3111997,-2.3401,1.1823,0.618799,0.051413,0.750985,2017-10-19 22:11:28,54.9081769275153
9.576807,4.0318356,-2.7006595,0.2406809,0.21135937,-0.1282817,2.0,8.460899,3.8783998,-3.0886998,1.1022999,0.1848,0.47149998,0.802399,0.111041,0.561137,2017-10-19 22:11:29,43.16961292399433
8.418014,4.7979803,-2.9975405,0.13927728,-0.2565634,0.57787853,2.0,8.114699,4.7799997,-2.7336,-0.2848,0.37539998,0.123799995,0.799239,0.024375,0.526472,2017-10-19 22:11:30,55.700652890245436
7.642292,3.7062242,-4.146757,-1.9022343,1.1765264,-0.23823744,2.0,7.8750997,4.139,-4.1254997,-0.4359,-0.1461,0.9564,0.834132,0.030443,0.495402,2017-10-19 22:11:31,45.82540614901136
6.5122285,6.7229185,-3.763685,-0.3298672,0.14049901,0.16982053,2.0,6.3573,6.1842,-4.1844,0.1016,0.6583,0.1821,0.843683,0.039315,0.400734,2017-10-19 22:11:32,54.714171555356934
7.8625584,4.8458643,-2.0494366,-0.19547687,-0.2125811,-0.39828414,2.0,8.0961,4.4286,-3.3181,-0.5015,0.4055,1.2026,0.819332,-0.007534,0.497778,2017-10-19 22:11:33,52.90743307386494
7.8912888,4.2425256,-2.681506,-0.3921755,0.030543262,0.064751714,2.0,8.1216,4.6716,-2.8955998,-0.4389,0.111899994,0.8361,0.803439,-0.01597,0.509423,2017-10-19 22:11:34,64.12419062765402
4.6926355,8.1402855,-2.480393,-1.3219124,-0.73914695,-1.0311406,2.0,4.7674,7.7728,-3.609,-0.3375,0.5496,1.5640999,0.820742,0.036328,0.305065,2017-10-19 22:11:35,56.92293280157302
4.999093,7.8912888,-2.9400797,-0.13927728,0.05253441,0.32620203,2.0,3.4508998,8.6144,-3.1704998,1.5173999,-0.7879,0.2597,0.813072,0.009071,0.224444,2017-10-19 22:11:36,56.52013782486304
3.6774938,8.360553,-3.7732618,0.04886922,0.07819075,-0.07086037,2.0,3.3938,8.375899,-3.8072999,-0.0138,0.13859999,-0.0014,0.833072,-0.016305,0.197166,2017-10-19 22:11:37,55.673535967271604
3.466804,8.485051,-3.8402996,0.002443461,0.0012217305,0.02321288,2.0,3.3811,8.371699,-3.8277998,0.0381,0.0448,0.038799997,0.833492,-0.020643,0.19405,2017-10-19 22:11:38,57.22470489001311
3.5242648,8.389283,-3.9839516,-0.0012217305,0.004886922,0.008552114,2.0,3.3992999,8.2926,-3.9808,2.0E-4,0.0263,-0.0817,0.838142,-0.021967,0.193434,2017-10-19 22:11:39,45.89727739784004
3.371036,8.42759,-4.2425256,0.028099801,-0.021991149,-0.035430185,2.0,3.3406,8.257,-4.1025,-0.048499998,0.1209,-0.1258,0.842073,-0.018157,0.191164,2017-10-19 22:11:40,50.08266092931332
3.3423057,8.360553,-4.309563,-0.042760566,0.02932153,0.02565634,2.0,3.2398999,8.2464,-4.2033997,0.0528,0.072799996,-0.1419,0.844828,-0.024094,0.181192,2017-10-19 22:11:41,48.694329102928926
3.5913026,8.293514,-4.175488,-0.010995574,0.032986723,0.017104227,2.0,3.3681998,8.2395,-4.1151,0.21779999,0.0013,0.0534,0.841854,-0.026643,0.188681,2017-10-19 22:11:42,55.83162162492055
3.466804,8.379706,-4.31914,0.010995574,-0.02321288,0.0,2.0,3.3151999,8.2203,-4.1958,-0.0033,0.108899996,0.056199998,0.84479,-0.022997,0.186008,2017-10-19 22:11:43,46.153737100045014
3.3997664,8.322245,-4.3766007,-0.0061086523,-0.008552114,-0.0012217305,2.0,3.2796,8.1982,-4.2665,0.0030999999,0.111499995,-0.0098,0.84679097,-0.021839,0.184614,2017-10-19 22:11:44,37.376342441440784
3.3327289,8.350976,-4.261679,0.06841691,-0.0073303827,0.002443461,2.0,3.2380998,8.182899,-4.3271,-0.043399997,0.13669999,0.3355,0.848531,-0.024864,0.180008,2017-10-19 22:11:45,48.02162183605034
3.323152,8.312668,-4.2521024,-0.028099801,0.0036651914,0.0073303827,2.0,3.2196,8.1786995,-4.3487997,0.0537,0.0625,0.1024,0.849332,-0.02141,0.180614,2017-10-19 22:11:46,62.155844607991575
3.265691,8.293514,-4.3957543,-0.0036651914,0.0073303827,0.0012217305,2.0,3.2164998,8.1676,-4.3719997,0.0372,0.0639,-0.089899994,0.849959,-0.021908,0.180199,2017-10-19 22:11:47,62.745803080511145
3.3518825,8.24563,-4.453215,-0.009773844,0.002443461,0.0,2.0,3.2229,8.1486,-4.4024,0.0994,0.0437,0.0093,0.850456,-0.022226,0.180581,2017-10-19 22:11:48,38.70172557715495
3.2752678,8.274361,-4.3478703,-0.0036651914,0.028099801,-0.002443461,2.0,3.2328,8.1481,-4.3961997,0.0501,0.103199996,-0.0263,0.850672,-0.022456,0.180748,2017-10-19 22:11:49,37.339135159267904
3.4284968,8.2169,-4.501099,-0.0036651914,-0.0012217305,0.004886922,2.0,3.2828,8.1294,-4.3938,0.0341,-0.0415,0.066199996,0.850559,-0.023911,0.182943,2017-10-19 22:11:50,50.48567105214626
3.3518825,8.197746,-4.6351743,-0.02443461,-0.0073303827,-0.002443461,2.0,3.2898998,8.1004,-4.4418,0.0661,-0.119899996,-0.17909999,0.85198,-0.024411,0.18284,2017-10-19 22:11:51,53.03143681669879
3.3997664,8.255207,-4.357447,0.02932153,-0.012217305,-0.002443461,2.0,3.3874998,8.1396,-4.2943,-0.0429,-0.0127,-0.10349999,0.84783,-0.025426,0.188682,2017-10-19 22:11:52,45.434245794052586
3.4572272,8.274361,-4.271256,0.012217305,0.004886922,-0.013439035,2.0,3.4039,8.1484995,-4.2643,0.038399998,-0.0806,-0.0359,0.846851,-0.016294,0.195425,2017-10-19 22:11:53,42.36347381466285
3.4284968,8.274361,-4.405331,0.018325957,0.004886922,-0.0012217305,2.0,3.398,8.1529,-4.2605,-0.0046,-0.0655,0.009099999,0.846758,-0.015029,0.195834,2017-10-19 22:11:54,56.00970564000764
3.4572272,8.2169,-4.2904096,-0.0061086523,-0.014660765,0.002443461,2.0,3.3871,8.128099,-4.3163,0.0162,-0.079399996,0.085499994,0.848438,-0.015024,0.194836,2017-10-19 22:11:55,59.004633883051845
3.3901896,8.130709,-4.548983,0.014660765,-0.019547688,0.013439035,2.0,3.345,8.054299,-4.4842,-0.068399996,-0.0534,-0.0084,0.853589,-0.016669,0.190245,2017-10-19 22:11:56,41.68839817680328
3.4955344,8.034941,-4.8745947,0.02932153,-0.0061086523,-0.0036651914,2.0,3.4046998,7.9459996,-4.6301,0.0278,-0.051099997,-0.0659,0.857786,-0.016555,0.193185,2017-10-19 22:11:57,54.46839568513109
3.466804,8.121132,-4.510676,0.002443461,-0.014660765,-0.020769417,2.0,3.4368,7.9231,-4.6456,-0.1127,0.0603,0.2341,0.858456,-0.019122,0.193124,2017-10-19 22:11:58,59.868860608109514
3.4859576,8.025364,-4.7309427,0.0036651914,-0.0061086523,-0.0061086523,2.0,3.4053998,7.9117,-4.6879997,0.046699997,-0.0359,0.0026,0.859555,-0.016628,0.192938,2017-10-19 22:11:59,34.00802597437225
3.4955344,7.9966335,-4.7788267,0.0061086523,-0.012217305,0.0061086523,2.0,3.4082,7.8838,-4.7327,-0.0072,-0.0289,0.007999999,0.860823,-0.016993,0.192572,2017-10-19 22:12:00,35.041009345009584
3.5242648,7.9583263,-4.7405195,-0.021991149,-0.0012217305,0.0073303827,2.0,3.4227998,7.844,-4.788,-0.0025,-0.0276,0.0641,0.862442,-0.017785,0.192709,2017-10-19 22:12:01,52.684923103437725
3.3901896,8.054094,-4.6926355,-0.002443461,-0.012217305,-0.010995574,2.0,3.4218998,7.8515997,-4.7762,-0.1019,0.059899997,0.0123,0.86223,-0.017565,0.192484,2017-10-19 22:12:02,61.95318979880352
3.572149,7.8529816,-4.9895163,0.0012217305,-0.0073303827,0.0,2.0,3.4578998,7.8315997,-4.7830997,0.0447,-0.012399999,0.0101,0.862275,-0.018749,0.194306,2017-10-19 22:12:03,60.805329482050794
4.5777135,8.1881695,-3.4763808,0.05131268,-0.21868975,0.021991149,2.0,4.6077,7.8707,-3.6041,-0.4605,0.2716,0.0246,0.827306,-0.033956,0.263767,2017-10-19 22:12:04,62.18506700497052
6.579266,6.5984197,-3.2465374,-0.013439035,-0.019547688,0.020769417,1.0,6.6138,6.5488997,-3.0884,-0.0954,-0.0299,-0.104399994,0.806901,-0.070103,0.380053,2017-10-19 22:12:05,62.32480024015294
6.3111157,6.9527617,-3.4380736,-0.2602286,0.26633725,0.0061086523,1.0,6.1797,6.8241997,-3.378,-0.048899997,0.035,-0.1549,0.818795,-0.042473,0.361792,2017-10-19 22:12:06,52.488148850317245
6.2249246,6.9144545,-3.3901896,0.11606439,-0.02443461,-0.013439035,2.0,6.2806997,6.8188,-3.1976,-0.0726,0.0208,-0.1117,0.813534,-0.02997,0.377384,2017-10-19 22:12:07,49.03082463114164
6.3685765,6.8761473,-3.1028855,-0.02443461,-0.002443461,-0.0012217305,2.0,6.3389997,6.8451,-3.0217,0.0449,-0.0154,0.0634,0.808101,-0.031061,0.382632,2017-10-19 22:12:08,48.10753476439678
6.6367273,6.6846113,-3.5529952,0.26633725,-0.37140608,0.14416419,1.0,6.3718,6.5943,-3.4763,0.051,-0.0659,0.18949999,0.822294,-0.065649,0.359725,2017-10-19 22:12:09,40.90719091667581
5.755661,6.6654577,-4.175488,-0.21746802,-0.040317107,-0.16371189,2.0,5.9252996,6.6888,-4.0397,-0.19389999,-0.338,0.062699996,0.837641,-0.065759,0.326691,2017-10-19 22:12:10,47.5102383765672
4.9320555,7.1730285,-4.185065,-0.19792034,-0.15027285,-0.9969321,2.0,4.5948997,7.5853996,-4.1854,0.1604,-0.4892,-0.3881,0.844468,-0.016465,0.268394,2017-10-19 22:12:11,50.83065866253789
4.2521024,7.833828,-3.9552212,0.059864793,-0.043982297,0.0,2.0,4.1675997,7.9405,-3.9684,0.0334,-0.1715,0.29479998,0.83803,-0.026813,0.237995,2017-10-19 22:12:12,49.29844198285866
4.4244847,7.8912888,-4.2042184,0.0012217305,-0.008552114,-0.009773844,2.0,4.3512,7.7731,-4.1006,-0.0050999997,0.0761,-0.0422,0.841127,-0.039768,0.24087,2017-10-19 22:12:13,55.99730694458855
4.548983,7.8529816,-3.9456444,0.05375614,-0.009773844,0.0036651914,2.0,4.565,7.7682996,-3.8708,-0.113299996,0.0221,0.1372,0.834059,-0.041256,0.254947,2017-10-19 22:12:14,53.5426676082782
4.4915223,7.843405,-4.003105,-0.05009095,-0.030543262,-0.028099801,2.0,4.4849,7.7516,-3.9957998,-0.0323,0.068399996,0.0871,0.8381,-0.034421,0.253311,2017-10-19 22:12:15,50.116634995620785
4.548983,7.881712,-3.964798,-0.02932153,0.009773844,-0.020769417,2.0,4.4311,7.7626,-4.0344,0.100499995,0.0279,0.0967,0.839316,-0.035327,0.248886,2017-10-19 22:12:16,52.330427754937745
4.5298295,7.843405,-4.0318356,-0.010995574,0.02443461,-0.0073303827,2.0,4.3996997,7.7437,-4.1043997,0.0341,0.0567,0.0694,0.841625,-0.033511,0.247365,2017-10-19 22:12:17,48.08833474055842
4.510676,7.7572136,-4.2521024,0.056199603,-0.013439035,0.018325957,2.0,4.3992,7.7316,-4.1278,0.0444,-0.048499998,0.0244,0.842177,-0.034634,0.246665,2017-10-19 22:12:18,48.29047614353694
4.4340615,7.7667904,-4.0318356,-0.010995574,0.037873644,-0.0036651914,2.0,4.4115,7.6780996,-4.2135997,0.0712,0.0053999997,-0.085,0.844857,-0.033302,0.247815,2017-10-19 22:12:19,48.119488626014004
4.5298295,7.7572136,-4.4915223,0.072082095,-0.02321288,0.02565634,2.0,4.4045,7.6285996,-4.3097,0.0783,0.045599997,-0.1643,0.848147,-0.02957,0.248438,2017-10-19 22:12:20,44.98206491603697
4.5202527,7.747637,-4.3478703,0.012217305,-0.015882496,-0.0012217305,2.0,4.4098,7.6053,-4.3454,0.024,0.049599998,-0.04,0.849178,-0.027871,0.249251,2017-10-19 22:12:21,41.65085063656591
4.501099,7.6135616,-4.596867,0.040317107,-0.02321288,0.0036651914,2.0,4.4323997,7.5509996,-4.4165,-0.045399997,-0.1052,-0.0884,0.851331,-0.030143,0.24898,2017-10-19 22:12:22,46.57613444190339
4.548983,7.6231384,-4.5298295,0.0,0.0,0.0036651914,2.0,4.4326997,7.5123997,-4.4814,0.0326,-0.0659,0.0267,0.853061,-0.027844,0.250016,2017-10-19 22:12:23,34.256350795480444
4.501099,7.565677,-4.5202527,-0.008552114,-0.02443461,-0.004886922,2.0,4.4575,7.5137,-4.4546,-0.0416,-0.0378,0.0484,0.852198,-0.029696,0.250718,2017-10-19 22:12:24,40.982445560032374
4.4723687,7.603985,-4.596867,-0.0012217305,-0.002443461,0.0036651914,2.0,4.4091997,7.5134997,-4.5027,0.018099999,0.010799999,-0.051099997,0.853646,-0.02942,0.24759,2017-10-19 22:12:25,42.923007310405204
4.4819455,7.6231384,-4.5681367,-0.019547688,-0.012217305,0.012217305,1.0,4.3932,7.5162997,-4.5137997,0.055,-0.023599999,0.0673,0.853771,-0.028942,0.247103,2017-10-19 22:12:26,36.08758796088233
4.654328,7.632715,-4.2904096,0.009773844,-0.0012217305,-0.014660765,1.0,4.5197997,7.4697,-4.4658,0.13239999,0.0039,0.2147,0.85276,-0.022253,0.258409,2017-10-19 22:12:27,36.88218007286664
4.721366,7.383718,-4.6255975,0.02932153,0.020769417,-0.004886922,1.0,4.6547,7.3293996,-4.5587,0.0937,0.0972,0.034399997,0.855666,-0.016406,0.268888,2017-10-19 22:12:29,44.39341231581042
4.6351743,7.2687964,-4.817134,-0.15515977,-0.030543262,-0.047647487,1.0,4.7139997,7.0726,-4.8912997,-0.15269999,-0.0345,-0.0401,0.865025,-0.012108,0.271264,2017-10-19 22:12:30,45.03651667856768
4.606444,6.933608,-5.7843914,0.09040806,-0.034208454,-0.05131268,1.0,4.4593997,6.9213996,-5.3269997,0.026999999,-0.077199996,-0.3238,0.878238,-0.008616,0.254309,2017-10-19 22:12:31,37.36054958759751
4.357447,6.9719152,-5.5737014,0.04886922,-0.009773844,-0.019547688,1.0,4.2781997,6.9087996,-5.4894,0.0539,-0.0155,-0.0316,0.883102,-0.003843,0.245266,2017-10-19 22:12:32,42.133368047735054
4.3287168,6.9048777,-5.717354,0.0,-0.0036651914,-0.0036651914,1.0,4.2534,6.8076,-5.6333,-0.0287,0.0184,0.0554,0.88716197,-0.00424,0.242579,2017-10-19 22:12:33,47.17784651497712
4.213795,6.83784,-5.813122,0.021991149,-0.014660765,-0.008552114,1.0,4.211,6.7878,-5.6886997,-0.0858,-0.053,-0.0424,0.888843,-0.002237,0.24057,2017-10-19 22:12:34,44.824449036378965
4.175488,6.8665705,-5.841852,0.040317107,0.009773844,-0.02443461,1.0,4.1596,6.7648997,-5.7535,-0.0827,0.029,-0.064899996,0.890683,-7.37E-4,0.237804,2017-10-19 22:12:35,42.942237968373234
4.261679,6.7229185,-5.9567738,0.02321288,-0.012217305,0.018325957,1.0,4.1303,6.7123,-5.8357,-0.043199997,-0.044999998,0.0674,0.893049,9.6E-4,0.23622,2017-10-19 22:12:36,40.89685150028706
4.1659107,6.7133417,-5.995081,0.0,-0.013439035,0.004886922,1.0,4.1295,6.6555,-5.9009,0.0734,-0.0289,-0.061199997,0.894923,-0.001384,0.235164,2017-10-19 22:12:37,37.13501174568332
4.1946416,6.6271505,-6.1770406,0.021991149,-0.004886922,-0.0073303827,1.0,4.0908,6.5947,-5.9954,0.121999994,0.0123,-0.14289999,0.897781,7.98E-4,0.232586,2017-10-19 22:12:38,41.16713306137706
4.1180267,6.5601125,-6.196194,-0.013439035,-0.004886922,0.0,1.0,4.1019998,6.4681997,-6.1242,0.022499999,0.051,0.0156,0.901243,0.00281,0.2332,2017-10-19 22:12:39,33.09835690165098
4.156334,6.579266,-6.1004257,0.009773844,-0.009773844,0.008552114,1.0,4.081,6.5435996,-6.0576,0.073,0.0341,-0.0117999995,0.89947,-0.001396,0.230547,2017-10-19 22:12:40,39.606488231761624
4.146757,6.5505357,-6.1770406,0.019547688,0.0012217305,-0.004886922,1.0,4.0712,6.5018,-6.1091,0.0436,0.027099999,-0.0387,0.900817,0.00315,0.231807,2017-10-19 22:12:41,43.164680498562895
4.185065,6.588843,-6.1387334,-0.020769417,-0.013439035,0.004886922,1.0,4.0852,6.4979997,-6.1036997,0.048299998,-0.0072999997,0.0109,0.900669,6.74E-4,0.231538,2017-10-19 22:12:42,43.72650208748743
4.156334,6.540959,-6.167464,-0.0012217305,-0.0073303827,0.0012217305,1.0,4.0884,6.4946,-6.1053,0.044999998,-0.0137,-0.0169,0.90069,5.79E-4,0.231886,2017-10-19 22:12:43,48.01017226984328
4.098873,6.579266,-6.157887,0.0,-0.013439035,-0.0073303827,1.0,4.0934,6.4884996,-6.1082997,-0.0411,0.0033999998,0.0345,0.900799,4.83E-4,0.231888,2017-10-19 22:12:44,45.07148830342661
4.10845,6.531382,-6.167464,-0.014660765,-0.0061086523,0.0036651914,1.0,4.0784,6.4761996,-6.1313996,-0.0336,-0.0313,0.024999999,0.901451,6.08E-4,0.230924,2017-10-19 22:12:45,43.93908500544812
4.1371803,6.493075,-6.205771,-0.0073303827,-0.036651913,0.008552114,1.0,4.0639,6.4849,-6.1317997,0.0301,-0.0989,0.0058999998,0.901464,9.17E-4,0.230223,2017-10-19 22:12:46,43.31922017968872
4.0222588,6.655881,-6.167464,-0.02321288,-0.014660765,-0.002443461,1.0,4.0313,6.5042,-6.1328998,-0.0937,0.0286,0.0756,0.901554,0.001783,0.228587,2017-10-19 22:12:47,38.690047929402
4.003105,6.588843,-6.3302693,0.004886922,0.0,-0.0036651914,1.0,4.0267,6.5139,-6.1257,-0.088999994,-0.04,-0.1277,0.901288,0.001921,0.228577,2017-10-19 22:12:48,41.280046113575956
4.012682,6.579266,-6.14831,0.028099801,-0.010995574,0.002443461,1.0,3.9991999,6.4723997,-6.1872997,-0.0023,-0.0078,0.071899995,0.903143,5.78E-4,0.22605,2017-10-19 22:12:49,40.276426067176786
3.964798,6.531382,-6.3111157,0.0036651914,-0.010995574,-0.008552114,1.0,3.9789999,6.4336,-6.2405996,-0.08,0.011899999,-0.0015,0.904555,-0.001328,0.22375199,2017-10-19 22:12:50,35.25727514221292
4.0222588,6.5122285,-6.215348,0.019547688,-0.008552114,-0.002443461,1.0,3.9905999,6.4421,-6.2244997,0.0063,-0.0162,0.0115,0.904076,-0.002648,0.223987,2017-10-19 22:12:51,41.13777954839903
4.060566,6.5122285,-6.253655,0.02443461,-0.0036651914,0.0,1.0,3.9787998,6.4494,-6.2244,0.028099999,-0.023599999,0.0605,0.904225,-0.002951,0.223415,2017-10-19 22:12:52,45.666908610708354
4.060566,6.5218053,-6.3111157,0.0,0.0012217305,0.009773844,1.0,3.954,6.4577,-6.2316,-0.103599995,0.0561,0.17559999,0.904277,-0.002448,0.221952,2017-10-19 22:12:53,41.19738519920463
4.1276035,6.435614,-6.3685765,0.02932153,-0.002443461,0.0012217305,1.0,3.9661999,6.441,-6.2412,0.0993,-0.1138,-0.0396,0.904549,-0.0019489999,0.222776,2017-10-19 22:12:54,36.39586086673427
4.0797195,6.38773,-6.588843,0.035430185,-0.0036651914,0.0036651914,1.0,3.9664998,6.4221,-6.2604,-0.0578,-0.045599997,-0.1378,0.904816,-0.0044629998,0.222039,2017-10-19 22:12:55,36.78355032659111
3.9935284,6.531382,-6.301539,0.0012217305,-0.013439035,-0.002443461,1.0,3.9362,6.4361,-6.2651,0.0022,-0.010799999,0.043399997,0.905189,-0.0057779998,0.21932,2017-10-19 22:12:56,38.77744946937404
3.916914,6.5026517,-6.4643445,-0.028099801,-0.012217305,0.0036651914,1.0,3.9004,6.4214,-6.3025,0.0477,-0.0297,-0.090399995,0.906339,-0.00524,0.217406,2017-10-19 22:12:57,36.059099630055634
4.003105,6.5122285,-6.3206925,-0.017104227,-0.012217305,0.019547688,1.0,3.9192,6.4315,-6.2805,0.067999996,0.0188,0.053999998,0.905644,-0.005241,0.218541,2017-10-19 22:12:58,41.07395586625828
3.8977604,6.531382,-6.4068837,0.010995574,0.0,-0.015882496,1.0,3.893,6.4164,-6.3121,-0.0133,0.043899998,-0.0022,0.90654397,-0.002778,0.217844,2017-10-19 22:12:59,31.51935049728346
3.8594532,6.531382,-6.349423,-0.009773844,-0.012217305,-0.004886922,1.0,3.8657,6.4252996,-6.3198,-0.0150999995,0.0349,0.0349,0.906796,-0.004435,0.215828,2017-10-19 22:13:00,38.25368905926015
3.9456444,6.435614,-6.445191,0.004886922,-0.013439035,0.0036651914,1.0,3.8809,6.4084997,-6.3276,-0.0207,-0.046099998,-0.045399997,0.906967,-0.005585,0.215943,2017-10-19 22:13:01,45.981127262623254
3.9839516,6.435614,-6.4547677,0.0036651914,-0.008552114,0.0036651914,1.0,3.8841999,6.3936996,-6.3405,-0.0044,-0.050699998,0.046,0.907328,-0.00581,0.215959,2017-10-19 22:13:02,46.78957857004594
3.9073372,6.4643445,-6.339846,-0.013439035,0.0061086523,-0.002443461,1.0,3.8788998,6.3904,-6.3471,0.0695,0.0015,0.0036,0.907513,-0.005774,0.215632,2017-10-19 22:13:03,46.54958106918443
3.9552212,6.4260373,-6.5505357,-0.002443461,-0.0061086523,0.0036651914,1.0,3.8657,6.3799996,-6.3655996,-0.0642,0.0022,0.0223,0.907925,-0.005551,0.21471,2017-10-19 22:13:04,36.54178949268638
3.9935284,6.435614,-6.445191,-0.002443461,-0.0036651914,0.002443461,1.0,3.8630998,6.3750997,-6.3721,0.0659,0.016999999,-4.0E-4,0.908215,-0.005705,0.214613,2017-10-19 22:13:05,34.55541933414553
3.8594532,6.445191,-6.5505357,-0.002443461,-0.0073303827,0.010995574,1.0,3.8499,6.3655,-6.3896,-0.0699,-0.029099999,0.0042999997,0.908707,-0.00558,0.213813,2017-10-19 22:13:06,41.11511029492828
3.8498764,6.4643445,-6.4164605,0.020769417,0.004886922,0.012217305,1.0,3.8349998,6.3489,-6.4150996,0.0137,0.016999999,-0.0581,0.909626,-0.005619,0.212796,2017-10-19 22:13:07,41.500946150649895
3.916914,6.3302693,-6.4739213,0.0036651914,-0.010995574,0.0,1.0,3.8184,6.3202996,-6.4530997,0.0402,-0.061899997,0.039,0.910488,-0.00556,0.211658,2017-10-19 22:13:08,35.825402422665135
3.8977604,6.349423,-6.531382,0.0036651914,-0.004886922,-0.0061086523,1.0,3.8126,6.3199997,-6.4568,-0.061699998,0.0069,0.042799998,0.910592,-0.005465,0.211344,2017-10-19 22:13:09,41.76212392225761
3.763685,6.38773,-6.531382,-0.012217305,-0.004886922,-0.0036651914,1.0,3.8135,6.3192997,-6.457,-0.0332,0.0075999997,-0.0453,0.910596,-0.005505,0.21138,2017-10-19 22:13:10,44.40497359505852
3.8977604,6.349423,-6.5505357,0.0036651914,-0.0036651914,0.010995574,1.0,3.8091998,6.3209996,-6.4579,0.0495,-0.0528,-0.024699999,0.910624,-0.005428,0.211135,2017-10-19 22:13:11,34.5988277140836
3.916914,6.3589997,-6.4643445,0.02932153,-0.009773844,0.013439035,1.0,3.7972999,6.3329,-6.4532,0.012499999,-0.006,0.1175,0.910436,-0.005357,0.211145,2017-10-19 22:13:12,35.91564905777644
3.9073372,6.4068837,-6.7708025,-0.0036651914,0.05497787,0.036651913,1.0,3.7928998,6.3220997,-6.4663,0.016999999,0.0734,-0.2025,0.910838,-0.008174,0.209122,2017-10-19 22:13:13,40.610500896704124
4.414908,7.192182,-5.209783,-0.014660765,-0.019547688,0.034208454,1.0,4.2057,7.1428,-5.2404,0.1104,0.0201,0.0902,0.875929,-0.005909,0.241926,2017-10-19 22:13:14,42.02650227767642
4.453215,7.28795,-5.1140146,-0.05864306,-0.047647487,0.07086037,1.0,4.1597,7.2412996,-5.1408997,0.3234,-0.0792,0.1369,0.873191,-0.007211,0.239554,2017-10-19 22:13:15,37.13028281760354
4.175488,7.2687964,-4.8841715,-0.064751714,-0.17715092,-0.036651913,1.0,4.1056,7.2068,-5.2321,0.0642,0.0242,0.32709998,0.875598,-0.009768,0.23436,2017-10-19 22:13:16,38.34503954023557
3.9743748,7.144298,-5.7748146,0.04642576,0.009773844,-0.009773844,1.0,3.8909,7.0930996,-5.5422997,-0.1113,0.0212,-0.114999995,0.884587,-0.007386,0.220615,2017-10-19 22:13:17,43.79524366512679
3.916914,7.192182,-5.66947,0.040317107,-0.009773844,0.002443461,1.0,3.8783998,7.0769997,-5.5716,-5.9999997E-4,0.047199998,-0.0462,0.88544,-0.008442,0.219423,2017-10-19 22:13:18,38.119564377342435
3.9360676,7.1634517,-5.6215854,-0.008552114,0.0061086523,-0.017104227,1.0,3.8641,7.0681996,-5.5927,-0.044999998,0.1052,0.0339,0.886142,-0.006337,0.219087,2017-10-19 22:13:19,42.128670731820336
3.8019924,7.144298,-5.6790466,-0.019547688,-0.004886922,-0.015882496,1.0,3.8154,7.0371,-5.6647997,0.082499996,-7.0E-4,-0.0208,0.888048,-0.004778,0.216872,2017-10-19 22:13:20,42.97979346664657
3.8786068,6.981492,-5.813122,0.06841691,0.0061086523,-0.0036651914,1.0,3.7916,6.9897,-5.739,0.027999999,-0.0902,-0.0734,0.890707,-0.0086,0.213119,2017-10-19 22:13:21,42.717906189390256
3.8115692,7.029376,-5.851429,-0.010995574,0.0012217305,-0.0012217305,1.0,3.7454998,6.9582996,-5.8069997,0.0255,0.0101,0.0637,0.892173,-0.005468,0.211624,2017-10-19 22:13:22,39.35039088970007
3.8977604,6.9527617,-5.9663506,-0.008552114,-0.004886922,-0.018325957,1.0,3.7610998,6.8736997,-5.897,0.1863,-0.1692,-0.4141,0.894906,-0.00278,0.213,2017-10-19 22:13:23,38.27190299745796
3.964798,6.9144545,-5.66947,0.010995574,0.020769417,0.02932153,1.0,3.7356,6.9214997,-5.8571997,0.24149999,-0.139,0.1732,0.893939,-0.006459,0.211138,2017-10-19 22:13:24,37.15819695335003
3.821146,6.991069,-5.899313,0.0061086523,-0.004886922,0.0036651914,1.0,3.7396,6.9139,-5.8636,0.0315,0.0157,0.0326,0.89382297,-0.006564,0.21041,2017-10-19 22:13:25,38.294538398779885
3.7253778,7.0581064,-6.033388,0.008552114,-0.0036651914,-0.002443461,1.0,3.7563,6.9275,-5.8368998,-0.0637,0.070599996,-0.111999996,0.892873,-0.007489,0.211456,2017-10-19 22:13:26,44.45932208122229
3.9073372,7.374141,-5.2768207,0.039095376,-0.0842994,-0.012217305,1.0,3.9501,7.2595997,-5.2785997,-0.0828,0.039499998,0.0503,0.876942,-0.029694,0.214756,2017-10-19 22:13:27,39.21330865100015
4.060566,7.2687964,-5.2385135,-0.017104227,-0.02932153,-0.0012217305,1.0,3.9143,7.1977,-5.3887997,-0.1251,0.1804,-0.162,0.879852,-0.024834,0.214885,2017-10-19 22:13:28,41.795844625535175
3.4859576,6.8665705,-5.9759274,0.064751714,0.0012217305,-0.032986723,1.0,3.4178,6.7585998,-6.2296996,-0.0066,0.0449,0.2549,0.904714,0.008074,0.195788,2017-10-19 22:13:29,47.40049255156768
3.4859576,6.9623384,-6.1866174,-0.05131268,-0.004886922,0.0012217305,1.0,3.4232,6.8539996,-6.1215,-0.119899996,0.0663,0.086899996,0.901113,-0.003571,0.192177,2017-10-19 22:13:30,38.59100095870724
3.4476504,6.9240313,-6.205771,-0.0036651914,-0.02321288,0.0,1.0,3.3839998,6.8513,-6.1463,0.0078,0.0298,0.0139,0.901847,-0.005949,0.188778,2017-10-19 22:13:31,41.05562658849625
3.41892,6.9144545,-6.2632318,-0.02932153,0.0,-0.002443461,1.0,3.4232,6.8403997,-6.1366997,0.027199998,-0.0081,-0.0938,0.901482,-0.00361,0.192221,2017-10-19 22:13:32,44.90361885455593
3.4859576,6.895301,-6.339846,0.02443461,-0.013439035,0.004886922,1.0,3.4085999,6.8185,-6.1691,-0.0071,0.0335,-0.0905,0.902512,-0.003552,0.191046,2017-10-19 22:13:33,33.412820866811316
3.7445314,6.8569937,-5.2480903,-0.9663888,0.112399206,0.030543262,1.0,3.5242999,7.191,-5.6601996,0.1801,-0.40109998,0.2883,0.88783,-0.01873,0.193596,2017-10-19 22:13:34,38.93563861311008
4.223372,7.565677,-2.882619,0.02932153,0.062308256,-0.002443461,2.0,3.8546999,8.011,-4.1393,0.592,-0.51269996,1.7054,0.842994,0.043609,0.261346,2017-10-19 22:13:35,46.998412068189225
-11.310209,1.541866,-4.6830587,-0.6731735,-1.8692477,-1.8912388,1.0,-9.6017,1.4225,-1.3971,-1.6185,0.1041,-3.2679,0.73508,0.122988,-0.639335,2017-10-19 22:13:36,36.9595464988797
-1.3311762,1.5131354,9.136273,-0.05009095,-0.02443461,-0.0061086523,4.0,-1.4545,0.9773,9.6488,0.3006,0.092599995,0.1295,0.089646,-0.003302,-0.846578,2017-10-19 22:13:37,39.911535718214196
-0.94810385,0.8714894,10.036493,0.040317107,-0.047647487,-0.0061086523,4.0,-1.1106,0.87979996,9.7037,0.2184,0.0046,0.1034,0.071381,-0.00636,-0.838509,2017-10-19 22:13:38,51.021013773739945
-1.1204864,0.5554548,9.720459,-0.02932153,0.0,0.0036651914,4.0,-1.1725,0.76909995,9.7058,-0.0426,-0.0896,0.0523,0.071746,-3.1E-4,-0.837273,2017-10-19 22:13:39,37.84953891921793
-1.1492168,0.6991069,9.797073,0.009773844,-0.0061086523,0.0,4.0,-1.1803,0.7597,9.7056,0.0337,-0.011399999,0.0033999998,0.071911,2.0E-5,-0.83735,2017-10-19 22:13:40,39.080263548102174
-1.2066777,0.8331822,9.682152,0.002443461,-0.0073303827,-0.0012217305,4.0,-1.1973,0.78389996,9.7016,0.0412,0.0032,-0.0611,0.073166,-3.38E-4,-0.83691,2017-10-19 22:13:41,40.35754649510246
-1.1779473,0.7278373,9.787497,-0.0061086523,-0.0061086523,-0.002443461,4.0,-1.1879,0.777,9.7032995,0.0039,-0.053099997,0.0526,0.072442,-1.35E-4,-0.836964,2017-10-19 22:13:42,41.186382265528174
-1.0726024,0.80445176,9.768343,0.013439035,0.02687807,0.004886922,4.0,-1.1701,0.7599,9.7067995,0.15269999,0.0425,0.058799997,0.071319,-6.9E-5,-0.837035,2017-10-19 22:13:43,41.89539132238409
-1.2258313,0.58418524,9.77792,-0.0073303827,0.010995574,0.002443461,4.0,-1.1873,0.667,9.711599,-0.0358,-0.070199996,0.0835,0.069461,0.004515,-0.836216,2017-10-19 22:13:44,53.24572175593646
-0.9768343,1.2354081,9.77792,0.037873644,-0.0061086523,0.0012217305,4.0,-1.1847,0.659,9.7123995,0.18699999,0.3299,0.063,0.06913,0.004671,-0.837102,2017-10-19 22:13:45,37.56468033805802
-1.2737153,0.6703765,9.720459,-0.002443461,-0.0061086523,0.0012217305,4.0,-1.1917,0.6529,9.712,-0.051099997,-0.0071,-0.0149,0.069273,0.005125,-0.836739,2017-10-19 22:13:46,37.6729086613853
-1.2162545,0.6895301,9.739613,0.002443461,-0.0036651914,0.002443461,4.0,-1.2061,0.65209997,9.7102995,-0.0064,0.0127,-2.0E-4,0.069849,0.005696,-0.836005,2017-10-19 22:13:47,39.342205369646706
-1.2162545,0.6512229,9.749189,0.0,-0.0036651914,0.0012217305,4.0,-1.212,0.66139996,9.7088995,-0.0123,-0.015,-0.0018999999,0.070313,0.00562,-0.83596,2017-10-19 22:13:48,32.78515673845996
-1.2066777,0.6895301,9.701305,0.0012217305,-0.008552114,0.002443461,4.0,-1.2153,0.6529,9.7091,-0.0165,-0.0371,0.0186,0.070252,0.006059,-0.835976,2017-10-19 22:13:49,37.15982724597222
-1.2545617,0.6895301,9.749189,0.004886922,-0.008552114,0.0012217305,4.0,-1.2169,0.6565,9.7086,-0.0039,0.0468,-0.0396,0.070436,0.005814,-0.835952,2017-10-19 22:13:50,40.05134175810258
-1.1875241,0.6607997,9.739613,0.0012217305,-0.0061086523,0.0,4.0,-1.2224,0.6541,9.708099,0.028299998,0.0016,0.010799999,0.070606,0.006068,-0.835946,2017-10-19 22:13:51,42.56103729892893
-1.2354081,0.6703765,9.749189,0.0036651914,-0.002443461,0.0012217305,4.0,-1.2162,0.6523,9.709,-0.007999999,0.0137,-0.0128999995,0.070364,0.006062,-0.835958,2017-10-19 22:13:52,37.896106746299864
-1.2162545,0.6512229,9.768343,-0.002443461,-0.009773844,0.0012217305,4.0,-1.2183,0.6584,9.7083,0.0072,-0.0138,0.0202,0.070552,0.005773,-0.835935,2017-10-19 22:13:53,41.05103002538644
-1.2354081,0.6607997,9.749189,-0.009773844,-0.004886922,-0.0012217305,4.0,-1.2198,0.6601,9.708,-0.0111,-0.0252,-0.036199998,0.070666,0.005741,-0.835926,2017-10-19 22:13:54,37.24462760380003
-1.2162545,0.6512229,9.749189,0.0012217305,-0.008552114,0.002443461,4.0,-1.2188,0.65,9.708799,0.0099,-0.0064999997,-0.026999999,0.070393,0.006099,-0.835959,2017-10-19 22:13:55,35.80374634769312
-1.2449849,0.61291564,9.730036,-0.0036651914,-0.0061086523,0.004886922,4.0,-1.2198,0.6519,9.7086,-0.0368,-0.0287,-0.037,0.070436,0.006092,-0.835954,2017-10-19 22:13:56,40.53609996680748
-1.2258313,0.6512229,9.739613,-0.002443461,-0.0036651914,0.0012217305,4.0,-1.2178,0.654,9.7087,-0.0045,-0.008599999,-0.0079,0.070406,0.005948,-0.835949,2017-10-19 22:13:57,37.36435970480527
-1.2258313,0.6607997,9.749189,0.0,-0.008552114,0.0012217305,4.0,-1.2164999,0.654,9.708799,-0.0154,9.999999E-4,0.0201,0.070352,0.00591,-0.835947,2017-10-19 22:13:58,35.08508045789206
-1.2449849,0.6512229,9.739613,0.0012217305,-0.0073303827,0.0036651914,4.0,-1.2171999,0.6513,9.7088995,-0.0023999999,0.022,-0.019399999,0.070321,0.0061,-0.835953,2017-10-19 22:13:59,34.629767494058484
-1.2066777,0.6607997,9.730036,-0.0012217305,-0.0073303827,0.0012217305,4.0,-1.2193999,0.6541,9.7085,0.0095999995,-4.0E-4,-0.0104,0.070478,0.005985,-0.835936,2017-10-19 22:14:00,39.01726096896522
-1.2354081,0.6512229,9.749189,-0.0012217305,-0.0036651914,0.002443461,4.0,-1.2192999,0.6476,9.7088995,-0.0016,-0.0029,0.0103,0.070291,0.006261,-0.835954,2017-10-19 22:14:01,43.06504908941826
-1.2354081,0.6607997,9.739613,-0.0012217305,-0.0061086523,-0.0012217305,4.0,-1.2150999,0.6516,9.7092,0.011899999,0.0037,0.0243,0.070226,0.005974,-0.835946,2017-10-19 22:14:02,37.95517555959812
-1.1779473,0.7278373,9.710882,0.0,0.0012217305,-0.0012217305,4.0,-1.2149999,0.6544,9.709,0.0123,0.069299996,2.0E-4,0.070295,0.005854,-0.835936,2017-10-19 22:14:03,36.50614068601366
-1.2258313,0.6703765,9.758766,-0.0036651914,-0.0061086523,-0.0012217305,4.0,-1.2203,0.6508,9.7086,-0.0025,0.0045,0.0257,0.070425,0.006152,-0.835936,2017-10-19 22:14:04,43.94509247297444
-1.2354081,0.6607997,9.739613,-0.0012217305,-0.008552114,0.0012217305,4.0,-1.219,0.6472,9.709,-0.0117999995,0.016999999,0.0011,0.070238,0.006167,-0.835944,2017-10-19 22:14:05,41.58922434938668
-1.2354081,0.6703765,9.749189,-0.0036651914,-0.008552114,0.0,4.0,-1.2178999,0.6502,9.7088995,0.011399999,0.0115,-0.0764,0.070412,0.006001,-0.835926,2017-10-19 22:14:06,39.977712460246465
-1.2449849,0.6607997,9.749189,-0.0036651914,-0.0036651914,-0.0012217305,4.0,-1.2174,0.6451,9.7093,-0.0276,-0.0177,0.035499997,0.070142,0.006317,-0.835949,2017-10-19 22:14:07,36.45983811488198
-1.2162545,0.641646,9.749189,-0.002443461,-0.0073303827,0.0036651914,4.0,-1.2195,0.6484,9.708799,-0.0014,0.0158,-0.009699999,0.070321,0.006236,-0.83593297,2017-10-19 22:14:08,38.668819632756644
-1.2162545,0.6512229,9.691729,0.0012217305,-0.008552114,-0.0012217305,4.0,-1.2196,0.65459996,9.7084,0.008599999,-2.0E-4,-7.0E-4,0.070475,0.006015,-0.835914,2017-10-19 22:14:09,36.334563040014814
-1.2162545,0.6512229,9.768343,0.0,-0.0036651914,0.0012217305,4.0,-1.2150999,0.6505,9.7093,0.0039999997,-0.0058999998,0.0186,0.07019,0.006024,-0.835928,2017-10-19 22:14:10,38.82409883735297
-1.2258313,0.6607997,9.739613,-0.0061086523,-0.002443461,0.0,4.0,-1.2113,0.6513,9.7097,1.0E-4,0.0128,-0.0105,0.070052,0.005885,-0.835931,2017-10-19 22:14:11,37.655493495206606
-1.2354081,0.641646,9.758766,0.0012217305,-0.004886922,0.0012217305,4.0,-1.2192999,0.6509,9.7087,0.009099999,-0.0166,-0.0075,0.070379,0.006153,-0.83591497,2017-10-19 22:14:12,39.44057114223567
-1.292869,0.6799533,9.710882,0.013439035,-0.004886922,0.004886922,4.0,-1.2426,0.64419997,9.7062,-0.060599998,0.031799998,-0.0052,0.071199,0.007058,-0.835883,2017-10-19 22:14:14,39.28571624644648
