ACC_X,ACC_Y,ACC_Z,GYRO_X,GYRO_Y,GYRO_Z,LIGH_1,GRAV_X,GRAV_Y,GRAV_Z,LINACC_X,LINACC_Y,LINACC_Z,ROTVEC_X,ROTVEC_Y,ROTVEC_Z,TIME,VOICE
-0.22026655,0.08619126,9.825804,0.0,-0.0,-0.0,59.0,-0.22488716,0.06400532,9.803864,-0.0066587436,0.017716762,0.0027865847,0.009924296,0.006606699,-0.648884,2017-01-03 11:18:08,NaN
-0.22026655,0.08619126,9.80665,0.0076532066,-0.0063389447,-0.09262692,56.0,-0.2313603,0.063670434,9.803715,0.013434756,0.018051654,0.002935391,0.010359986,0.006509937,-0.6751397,2017-01-03 11:18:09,NaN
-0.23942018,0.05746084,9.825804,0.008022268,-0.0029787272,-0.28283045,59.0,-0.23525952,0.06732757,9.803597,0.0037136103,-0.012846175,0.016673787,0.0106087215,0.0065681506,-0.67253304,2017-01-03 11:18:10,NaN
-0.22984336,0.06703765,9.825804,0.0028191882,-7.6881057E-4,-0.037071425,56.0,-0.22786357,0.067979336,9.803767,-0.01730268,-0.013497949,0.030123712,0.010433826,0.006176034,-0.6789569,2017-01-03 11:18:11,NaN
-0.23942018,0.06703765,9.835381,-7.64948E-4,0.004812339,-0.01619749,56.0,-0.22993428,0.062102996,9.803759,-0.0016116437,-0.007621607,0.05737272,0.010105548,0.0067352275,-0.6586753,2017-01-03 11:18:12,NaN
-0.25857377,0.076614454,9.825804,0.0034266843,-0.0036565703,-0.011907157,56.0,-0.2318835,0.0630234,9.803705,0.013957942,0.0050783325,0.016564883,0.010399686,0.0064785983,-0.68033266,2017-01-03 11:18:13,NaN
-0.23942018,0.076614454,9.835381,-0.0017344003,0.0014287931,0.09000687,52.0,-0.22314368,0.07129571,9.803853,-0.008402229,-0.003193977,0.030038087,0.010457333,0.0057721776,-0.6868286,2017-01-03 11:18:14,NaN
-0.24899697,0.05746084,9.835381,-0.0,0.0,-0.0,52.0,-0.22359179,0.072419725,9.803834,0.0056662257,0.009302354,0.030057209,0.010513666,0.005751285,-0.6866994,2017-01-03 11:18:15,NaN
-0.22984336,0.076614454,9.835381,0.0020008634,-3.1432565E-4,-0.026667468,52.0,-0.22913903,0.06586887,9.803752,-0.0024068793,-0.01138748,0.016518328,0.010196657,0.006619475,-0.6556308,2017-01-03 11:18:16,NaN
-0.23942018,0.076614454,9.825804,0.0014442087,-0.001356407,0.05367445,59.0,-0.22701845,0.0677311,9.803789,-0.004527473,3.706453E-4,-0.010758944,0.010200337,0.006471007,-0.6559689,2017-01-03 11:18:17,NaN
-0.21068975,0.047884032,9.825804,0.007188148,0.003060148,-0.20081943,56.0,-0.23569815,0.06647927,9.803593,0.0041522356,0.0016224639,-0.010562752,0.010438682,0.0068528466,-0.6555393,2017-01-03 11:18:18,NaN
-0.21068975,0.06703765,9.883265,0.006078522,-0.002958863,-0.14689879,71.0,-0.24150637,0.060389724,9.803489,0.050821505,0.007712013,0.016781026,0.0105715515,0.007026265,-0.6736197,2017-01-03 11:18:19,NaN
-0.22984336,0.095768064,9.816227,-0.0023290196,0.0037533129,0.08202301,74.0,-0.23307791,0.066559725,9.803654,-0.012088328,0.0015420078,0.05747747,0.0103710815,0.0067232433,-0.6574336,2017-01-03 11:18:20,NaN
-0.24899697,0.05746084,9.80665,0.002625726,-0.0011559931,0.07367318,71.0,-0.2364615,0.068893515,9.803557,0.018535942,0.012828574,0.003093342,0.010553925,0.0068065687,-0.6551789,2017-01-03 11:18:21,NaN
-0.24899697,0.076614454,9.835381,-0.0,-0.0,0.0,71.0,-0.23895004,0.065043636,9.803524,-0.0062161954,0.0030581017,0.016746942,0.010543526,0.0069486927,-0.6610743,2017-01-03 11:18:22,NaN
-0.22984336,0.06703765,9.844957,-0.0042747655,-6.6024513E-4,0.032833166,74.0,-0.23345095,0.06520632,9.803654,0.015525395,0.03013611,0.04385712,0.0103119,0.0068128514,-0.6552482,2017-01-03 11:18:23,NaN
-0.23942018,0.047884032,9.825804,-0.0045242673,0.0036537668,0.2574375,74.0,-0.2277326,0.074184395,9.803726,0.023427378,0.021158038,-0.010695764,0.010576713,0.0061057266,-0.6685602,2017-01-03 11:18:24,NaN
-0.25857377,0.05746084,9.816227,-0.0032318907,0.0013452774,0.0034039642,71.0,-0.23007122,0.068667375,9.803711,0.012145664,0.013054713,0.016559895,0.010342165,0.006551417,-0.65638876,2017-01-03 11:18:25,NaN
-0.23942018,0.076614454,9.816227,-0.0011579631,-0.0025749751,0.023753598,52.0,-0.23008507,0.06483841,9.803737,-0.0014608372,0.003263327,0.016534124,0.010125902,0.006784895,-0.6485749,2017-01-03 11:18:26,NaN
-0.22984336,0.076614454,9.797073,0.0056183743,-0.0043187463,-0.0046160473,59.0,-0.22542237,0.06838317,9.80382,-0.0061235297,0.013338913,0.016450161,0.010200549,0.0063421368,-0.6593437,2017-01-03 11:18:27,NaN
-0.23942018,0.076614454,9.80665,-5.1243824E-4,-5.131442E-4,0.018255418,59.0,-0.22037339,0.07727294,9.80387,-0.011172525,-0.009171201,0.002779934,0.010305283,0.0059656743,-0.6508696,2017-01-03 11:18:28,NaN
-0.22984336,0.076614454,9.825804,-0.001249987,7.863603E-4,0.09885878,59.0,-0.22179909,0.07226017,9.803876,0.0038735357,0.0094619095,0.002774115,0.010158942,0.0061866096,-0.65091646,2017-01-03 11:18:29,NaN
-0.23942018,0.06703765,9.816227,-0.005878722,0.005160054,0.0774253,52.0,-0.22510815,0.06965787,9.80382,-0.0064377687,-0.015176475,0.016450992,0.010187145,0.0063706646,-0.65318066,2017-01-03 11:18:30,NaN
-0.24899697,0.076614454,9.816227,0.003366373,8.5202383E-4,-0.16279025,48.0,-0.2288433,0.07056642,9.803726,-0.016322942,-0.0024646884,0.0165441,0.01038913,0.0064163534,-0.6581501,2017-01-03 11:18:31,NaN
-0.25857377,0.08619126,9.797073,0.0,0.0,0.0,63.0,-0.23543578,0.07854257,9.80351,-0.009730471,-0.010440827,0.003140727,0.010849287,0.006515239,-0.65026206,2017-01-03 11:18:32,NaN
-0.24899697,0.076614454,9.797073,-0.002521533,7.13259E-4,0.1059375,63.0,-0.22978537,0.06876078,9.803717,-0.015380875,-6.590419E-4,-0.010686619,0.010330163,0.006546809,-0.65569395,2017-01-03 11:18:33,NaN
-0.24899697,0.076614454,9.80665,0.0021804934,-0.0024137443,-0.032956723,67.0,-0.22915515,0.06817987,9.803737,-0.0023907465,-7.8131096E-5,0.0029137768,0.0102629075,0.0065792636,-0.6529495,2017-01-03 11:18:34,NaN
-0.22984336,0.095768064,9.80665,0.004402812,-0.00791326,-0.02699295,67.0,-0.23212944,0.06752171,9.80367,0.014203882,5.8002106E-4,0.0029802823,0.010338927,0.006712375,-0.6532174,2017-01-03 11:18:35,NaN
-0.22984336,0.08619126,9.816227,-0.0061774775,0.0012891527,0.046918187,63.0,-0.21799634,0.079890154,9.803903,7.079209E-5,-0.011788418,-0.010872835,0.010486675,0.005493424,-0.6720055,2017-01-03 11:18:36,NaN
-0.22984336,0.076614454,9.80665,0.0025798953,0.0061872085,-0.20785993,59.0,-0.232509,0.06800841,9.8036585,0.014583431,9.3328665E-5,0.0029919208,0.010491538,0.0065197507,-0.6669742,2017-01-03 11:18:37,NaN
-0.22984336,0.08619126,9.797073,-2.862603E-4,0.0026282459,0.13271174,63.0,-0.23038186,0.073153615,9.803671,0.012456291,0.022188814,-0.010640897,0.010600971,0.006287065,-0.66534907,2017-01-03 11:18:38,NaN
-0.23942018,0.08619126,9.816227,4.4507277E-4,-1.7336661E-4,0.011950859,63.0,-0.22616296,0.07658494,9.803742,-0.005382953,0.0051371423,-0.010713221,0.010590517,0.0060063503,-0.66561097,2017-01-03 11:18:39,NaN
-0.23942018,0.08619126,9.80665,0.007390415,-0.00214503,-0.20277348,63.0,-0.22169079,0.08197448,9.803802,0.0037652303,0.013367957,0.0028481022,0.010676505,0.005591205,-0.6699433,2017-01-03 11:18:40,NaN
-0.23942018,0.076614454,9.816227,0.003221759,-0.0013910874,-0.00769485,63.0,-0.22584936,0.080613546,9.803717,-0.0056965426,-0.012511808,0.016553244,0.01089738,0.005546224,-0.6868195,2017-01-03 11:18:41,NaN
-0.23942018,0.08619126,9.816227,0.0033553354,-0.0040059993,-0.0812451,59.0,-0.22626747,0.076932654,9.803739,0.0083419075,0.0047894297,0.01653163,0.010609495,0.0059946356,-0.66588455,2017-01-03 11:18:42,NaN
-0.23942018,0.08619126,9.80665,-0.0041922694,-0.0020133646,0.07659855,59.0,-0.23955908,0.07054573,9.80347,0.008013172,-0.016064344,0.01680098,0.010789639,0.006762527,-0.66274124,2017-01-03 11:18:43,NaN
-0.24899697,0.076614454,9.816227,0.0,0.0,0.0,63.0,-0.23547424,0.069245115,9.803577,-0.0096919965,-0.0011433768,0.016692907,0.010628596,0.0066077495,-0.665753,2017-01-03 11:18:44,NaN
-0.25857377,0.08619126,9.80665,-0.0062366785,0.0020929952,0.12061559,63.0,-0.23481178,0.069196716,9.803595,-0.010354481,0.012525369,0.016675448,0.010635479,0.0065336367,-0.6692969,2017-01-03 11:18:45,NaN
-0.23942018,0.076614454,9.80665,0.0050221803,-0.0024734114,-0.18725625,63.0,-0.23028605,0.07548647,9.803656,-0.0012598655,-0.007384733,0.002994415,0.010755651,0.0060836393,-0.67370504,2017-01-03 11:18:46,NaN
-0.24899697,0.06703765,9.816227,-0.0032493572,6.489702E-4,0.056213845,56.0,-0.23916867,0.06359832,9.803527,-0.005997584,-0.009116931,0.016743617,0.010514536,0.006977332,-0.6631034,2017-01-03 11:18:47,NaN
-0.23942018,0.076614454,9.80665,-0.0,-0.0,-0.0,59.0,-0.2321135,0.069445275,9.803658,5.675837E-4,-0.0013435365,0.0029927522,0.010513527,0.0064869868,-0.6647674,2017-01-03 11:18:48,NaN
-0.24899697,0.076614454,9.797073,-0.0041984753,-0.002150998,0.08857546,56.0,-0.23643364,0.06837356,9.803562,0.018508093,-0.013892177,0.0030883541,0.010652094,0.006635341,-0.66844803,2017-01-03 11:18:49,NaN
-0.24899697,0.076614454,9.816227,0.0,0.0,0.0,59.0,-0.23164728,0.07183851,9.803651,-0.013518979,-0.003736777,-0.010620945,0.0105747795,0.006411419,-0.66311973,2017-01-03 11:18:50,NaN
-0.22984336,0.076614454,9.80665,0.004168329,-0.0016685359,0.04862131,56.0,-0.2265751,0.07689575,9.803731,0.008649548,0.01844668,0.0029187647,0.01069198,0.005875892,-0.6750533,2017-01-03 11:18:51,NaN
0.038307227,-0.45968673,9.701305,-0.13752526,-0.0706525,-0.061643384,52.0,-0.09253535,-0.07828491,9.8059025,0.078915,-0.34394586,0.19143306,4.1491044E-4,0.0061660483,-0.69565904,2017-01-03 11:18:52,NaN
-0.2777274,-0.31603462,9.825804,0.06920679,0.017753042,0.070063636,63.0,-0.37397498,0.018529823,9.7995,0.06070699,-0.22283503,0.020770531,0.014192816,0.012773247,-0.70915645,2017-01-03 11:18:53,NaN
0.90021986,-0.40222588,9.844957,-0.038625546,0.026429225,-0.11442198,63.0,-0.24206938,0.02333857,9.803635,-0.0030968748,-0.40470833,0.41162643,0.0097422255,0.0076717767,-0.7225904,2017-01-03 11:18:54,NaN
-0.41180268,-0.2681506,9.844957,0.018089408,0.059258133,-0.11930485,59.0,0.013615611,-0.5834154,9.789271,-0.3541243,0.2973881,0.099100836,-0.02040247,0.021675454,-0.7436292,2017-01-03 11:18:55,NaN
1.7429788,4.146757,4.7979803,1.5865941,-0.2712162,-0.64406407,59.0,2.5840552,-0.99031186,9.408098,-0.4729014,4.5452223,-4.4366717,-0.13934606,-0.030051973,-0.82879496,2017-01-03 11:18:56,NaN
-0.32561144,0.076614454,9.864111,0.36024877,0.17540897,0.20759708,67.0,0.49736947,-0.7419961,9.7658825,-0.9059798,0.78285706,0.1769714,-0.044080753,0.011639629,-0.74963003,2017-01-03 11:18:57,NaN
-0.24899697,0.06703765,9.816227,1.5655068E-4,0.0011732733,-0.006803135,56.0,-0.25819305,0.053896286,9.8031025,0.013026811,5.8510643E-4,0.017167589,0.01143473,0.0070800087,-0.7246443,2017-01-03 11:18:58,NaN
-0.23942018,0.076614454,9.816227,1.6984217E-4,6.022346E-4,-0.04931007,52.0,-0.24536273,0.058280144,9.803407,1.964773E-4,0.02344194,-0.010377368,0.011108926,0.0064768204,-0.724051,2017-01-03 11:18:59,NaN
-0.25857377,0.06703765,9.816227,0.0041855625,1.260109E-4,-0.015643712,63.0,-0.24616903,0.05787237,9.80339,0.0010027798,0.010229367,-0.01035991,0.011145058,0.0064847935,-0.7262421,2017-01-03 11:19:00,NaN
-0.2681506,0.06703765,9.835381,-9.096794E-4,-7.956808E-4,0.023385944,59.0,-0.2514004,0.05751787,9.803259,-0.0073862,-0.0030364809,0.017012132,0.011312293,0.0067051784,-0.72478825,2017-01-03 11:19:01,NaN
-0.2777274,0.06703765,9.835381,-0.0032192369,0.0031503,0.11689779,52.0,-0.2566935,0.055572134,9.803133,-0.002093082,0.012529603,0.017137663,0.011563506,0.0067553055,-0.73710865,2017-01-03 11:19:02,NaN
-0.2777274,0.047884032,9.835381,-6.164326E-4,8.4194524E-4,0.071421914,33.0,-0.25638604,0.05625425,9.803137,-0.0024005664,-0.0017728613,0.030753853,0.011544695,0.0067717773,-0.73402065,2017-01-03 11:19:03,NaN
-0.2777274,0.06703765,9.816227,0.0030120981,0.002379354,-0.053350687,52.0,-0.26979855,0.05265503,9.802796,0.011011951,0.0018263615,0.017474346,0.011840322,0.0075018317,-0.7264919,2017-01-03 11:19:04,NaN
-0.25857377,0.06703765,9.80665,0.0,0.0,0.0,56.0,-0.25821653,0.052914303,9.803108,-0.014190425,0.0015670869,0.017162602,0.011434735,0.0070629464,-0.72790533,2017-01-03 11:19:05,NaN
-0.2681506,0.05746084,9.816227,0.0013625558,-0.0013940675,-0.03582822,41.0,-0.25977966,0.055044234,9.803054,9.930637E-4,-5.6284264E-4,0.030836985,0.01161464,0.0069600367,-0.7325307,2017-01-03 11:19:06,NaN
-0.2681506,0.05746084,9.816227,-0.0024731604,0.0022553685,0.089574315,48.0,-0.26347423,0.055379614,9.802955,0.004687632,-8.982218E-4,0.030935913,0.01166667,0.0072356295,-0.72317326,2017-01-03 11:19:07,NaN
-0.2681506,0.06703765,9.816227,-0.0011021539,-0.004989059,0.030456027,44.0,-0.26172775,0.054667097,9.803005,0.0029411584,0.013434638,0.017265685,0.011603716,0.0071575264,-0.7257235,2017-01-03 11:19:08,NaN
-0.2777274,0.06703765,9.825804,0.004967638,-0.0024662553,-0.20419094,48.0,-0.2570205,0.05436447,9.80313,-0.0017660875,0.013737268,0.017140158,0.011503086,0.0068643573,-0.734028,2017-01-03 11:19:09,NaN
-0.2681506,0.047884032,9.844957,-3.6902842E-4,0.001306128,-0.04905293,59.0,-0.26607224,0.052794065,9.802898,-0.019955058,-0.01193302,0.044612788,0.011926788,0.00700484,-0.7471535,2017-01-03 11:19:10,NaN
-0.2681506,0.05746084,9.844957,-0.0057032183,-4.499649E-4,0.2164306,59.0,-0.26137456,0.05267304,9.803025,0.0025879513,0.0018083452,0.044485595,0.011649196,0.0070096687,-0.7380291,2017-01-03 11:19:11,NaN
-0.2777274,0.06703765,9.825804,-9.29752E-4,-5.996437E-5,0.020110788,44.0,-0.26819533,0.05563524,9.802824,0.009408751,-0.0147742005,0.03106726,0.011895672,0.0073184674,-0.7274612,2017-01-03 11:19:12,NaN
-0.25857377,0.06703765,9.816227,0.0021179914,-0.003201532,-0.022578428,63.0,-0.25117156,0.05787724,9.803263,0.0060052997,0.023844844,0.003387629,0.01132169,0.006674988,-0.72532785,2017-01-03 11:19:13,NaN
2.2984335,-0.17238252,10.228029,0.13538153,0.32912505,0.6281837,29.0,6.433886,1.1819612,7.3060565,-2.865355,-1.100239,1.8059555,-0.19606762,-0.2984163,-0.64552397,2017-01-03 11:19:14,NaN
-0.15322891,0.08619126,9.797073,0.0048645674,-0.0023555937,-0.31402656,63.0,-0.13900283,0.09352787,9.80522,0.0027993533,0.0154349115,0.028671397,0.008131448,0.002617698,-0.61867195,2017-01-03 11:19:15,NaN
-0.15322891,0.095768064,9.816227,-0.0023888312,0.001750203,0.02472082,67.0,-0.14397597,0.094428234,9.80514,0.007772505,9.1419875E-4,0.015131687,0.00830313,0.0028512634,-0.61272365,2017-01-03 11:19:16,NaN
-0.15322891,0.08619126,9.80665,0.0026552496,-0.0041859047,-0.12779345,67.0,-0.14153752,0.092362106,9.805193,-0.008286299,0.002980328,0.01507682,0.00813311,0.002847931,-0.6097707,2017-01-03 11:19:17,NaN
-0.1436521,0.095768064,9.816227,-0.0012739673,0.0021398517,0.09919964,63.0,-0.13245995,0.102011055,9.805225,0.009876822,-0.006668622,0.0014248824,0.008259583,0.002108787,-0.6166934,2017-01-03 11:19:18,NaN
-0.17238252,0.10534488,9.835381,-7.616419E-4,0.0013355269,0.0067320126,63.0,-0.14099574,0.09675079,9.805159,-0.02244842,-0.0014083536,0.0014913882,0.008301059,0.0026665444,-0.6119687,2017-01-03 11:19:19,NaN
-0.16280572,0.10534488,9.80665,-0.0012457554,-3.100982E-4,-0.06782219,63.0,-0.14381021,0.093227796,9.805153,0.007606734,-0.0115057165,0.015117555,0.008320312,0.002671022,-0.6326541,2017-01-03 11:19:20,NaN
-0.16280572,0.10534488,9.80665,-0.0019142146,9.25078E-4,0.03340731,59.0,-0.14419957,0.0912975,9.805165,0.007996091,-0.009575416,0.0014847376,0.008182298,0.0029626705,-0.6122809,2017-01-03 11:19:21,NaN
-0.15322891,0.076614454,9.816227,-3.9198433E-4,0.0010445515,-0.021254431,63.0,-0.14459501,0.09375665,9.805137,-0.018849155,-0.012034573,0.015134181,0.008310575,0.002853399,-0.61688286,2017-01-03 11:19:22,NaN
-0.1436521,0.11492168,9.816227,-0.0013342642,-1.2902463E-4,-0.03415341,59.0,-0.14814033,0.08868416,9.80513,-0.0016835011,0.006658276,0.015140001,0.008197031,0.003210683,-0.6115511,2017-01-03 11:19:23,NaN
-0.16280572,0.095768064,9.825804,5.504113E-4,-0.0023726334,0.01673828,59.0,-0.14933175,0.09096429,9.805092,-4.920765E-4,0.004378147,0.001558725,0.008335264,0.0031637996,-0.6138128,2017-01-03 11:19:24,NaN
-0.16280572,0.11492168,9.825804,-0.0038624108,0.0019576864,0.29302862,63.0,-0.1475411,0.092056304,9.805108,0.011337621,0.0032861303,0.0015420987,0.008391417,0.0028649399,-0.63184035,2017-01-03 11:19:25,NaN
-0.15322891,0.095768064,9.816227,-0.0032589892,0.0043646144,0.16412212,59.0,-0.14333834,0.09034845,9.805186,0.007134869,0.00499398,0.015084302,0.0081695495,0.0028096046,-0.62654525,2017-01-03 11:19:26,NaN
-0.15322891,0.095768064,9.825804,-0.0031937917,4.4185788E-4,0.11162002,67.0,-0.14636199,0.09174364,9.805129,-0.0034618245,0.003598791,0.0015213157,0.0082752975,0.0030154272,-0.6142369,2017-01-03 11:19:27,NaN
-0.17238252,0.11492168,9.797073,-0.0027591365,0.0040282626,0.1557166,59.0,-0.14936757,0.08872589,9.805111,-0.0140766,0.006616541,0.015159121,0.008260426,0.0031990127,-0.6172777,2017-01-03 11:19:28,NaN
-0.17238252,0.095768064,9.825804,-0.0050198897,9.6056814E-5,0.27156222,63.0,-0.1524684,0.08339003,9.805111,0.002644572,0.011952401,0.0015396047,0.0081201345,0.0035464652,-0.61193115,2017-01-03 11:19:29,NaN
-0.1436521,0.08619126,9.80665,9.330974E-4,-0.005968554,-0.0996468,52.0,-0.13302194,0.08796297,9.805354,-0.0031815397,0.007379459,0.0012960279,0.0076918676,0.0026366995,-0.6101724,2017-01-03 11:19:30,NaN
-0.59376204,0.63206923,9.816227,0.0034074273,2.3724795E-4,-0.11487763,56.0,-0.14942974,0.09087836,9.80509,-3.9408467E-4,0.0044640717,0.0015595563,0.008331233,0.0031799828,-0.61290765,2017-01-03 11:19:31,NaN
-0.16280572,0.095768064,9.80665,-1.8578801E-4,1.9294042E-4,-0.021834958,48.0,-0.16020918,0.09125823,9.804916,0.010385356,0.004084204,0.015353649,0.008295545,0.0044230814,-0.53384703,2017-01-03 11:19:32,NaN
-0.16280572,0.095768064,9.797073,0.0067588957,-0.005207971,-0.3524257,48.0,-0.15695648,0.0914588,9.804968,0.0071326606,0.003883635,-0.011937756,0.0082601495,0.0041907816,-0.5427063,2017-01-03 11:19:33,NaN
-0.15322891,0.08619126,9.816227,-0.0014426721,0.00370116,0.1444647,52.0,-0.15731308,0.09035808,9.804972,0.0074892454,-0.008635993,0.015298783,0.008191944,0.0042960267,-0.53660214,2017-01-03 11:19:34,NaN
-0.18195933,0.095768064,9.825804,-0.0016916436,0.0030121545,0.14356749,52.0,-0.15601815,0.0916806,9.804982,0.0061943345,0.0036618283,0.015288807,0.0081606675,0.0043056137,-0.5261016,2017-01-03 11:19:35,NaN
-0.16280572,0.10534488,9.80665,2.6215473E-4,0.0022058138,0.104245156,52.0,-0.15700462,0.09200521,9.804961,0.02080116,0.003337224,0.015308759,0.008259475,0.004227739,-0.5376184,2017-01-03 11:19:36,NaN
-0.15322891,0.10534488,9.816227,-0.0030782747,0.0025150236,0.16711523,56.0,-0.14858551,0.09548752,9.80506,-0.014858663,-1.4509133E-4,0.015209831,0.0081540495,0.003822624,-0.53220797,2017-01-03 11:19:37,NaN
-0.18195933,0.095768064,9.816227,6.2753693E-6,-0.0014020703,-0.11293166,63.0,-0.15560624,0.09339693,9.804971,0.0057824156,0.0019455032,0.0152996145,0.008220533,0.0042485027,-0.5253988,2017-01-03 11:19:38,NaN
-0.16280572,0.095768064,9.80665,0.0053983554,-0.0055228625,-0.30636707,67.0,-0.1578219,0.08955094,9.804972,0.007998078,0.005791495,0.0016784351,0.008210841,0.0042644106,-0.54436606,2017-01-03 11:19:39,NaN
-0.16280572,0.095768064,9.816227,0.0012567292,-3.941126E-4,-0.0067785713,63.0,-0.15969752,0.093987964,9.804899,0.009873692,0.0013544736,0.015371108,0.008387531,0.0043495065,-0.531549,2017-01-03 11:19:40,NaN
-0.16280572,0.10534488,9.816227,9.885366E-4,-8.7019266E-4,0.07274051,59.0,-0.1542136,0.09142946,9.805012,0.004389785,0.0039129714,0.015258879,0.008100676,0.004235415,-0.5259642,2017-01-03 11:19:41,NaN
-0.16280572,0.08619126,9.825804,-9.2543557E-4,-9.5387123E-4,-0.022336358,63.0,-0.15478414,0.093170986,9.804987,0.0049603176,-0.0114489,0.0016634715,0.008212186,0.0041729957,-0.53015244,2017-01-03 11:19:42,NaN
-0.18195933,0.095768064,9.825804,-1.5458347E-4,0.0021842879,-0.074979395,63.0,-0.15231794,0.092806794,9.805029,-0.0111262305,0.0025356365,0.015241422,0.008144423,0.004046846,-0.5332097,2017-01-03 11:19:43,NaN
-0.17238252,0.095768064,9.844957,-0.0025737206,0.0053689787,0.13884081,59.0,-0.1658459,0.08825827,9.804851,-0.011218611,-0.0065361825,0.029040504,0.00834726,0.0046990737,-0.5387779,2017-01-03 11:19:44,NaN
-0.18195933,0.095768064,9.816227,0.0015411287,2.5828707E-4,0.015361538,56.0,-0.15684237,0.09295641,9.8049555,0.0070185494,0.0023860314,0.01531541,0.00825077,0.0042828135,-0.5286072,2017-01-03 11:19:45,NaN
-0.16280572,0.095768064,9.80665,-6.510681E-4,0.0017068267,0.02923988,59.0,-0.15698057,0.09124083,9.804971,0.0071567427,0.0041016033,-0.01194025,0.008199119,0.004299218,-0.5323143,2017-01-03 11:19:46,NaN
-0.20111294,0.095768064,9.816227,2.6829838E-4,0.0020957615,-0.03157364,63.0,-0.1876168,0.07713647,9.804552,-0.0030680776,0.018205961,-0.011522096,0.008408139,0.0060238284,-0.53035975,2017-01-03 11:19:47,NaN
-0.21068975,0.076614454,9.835381,0.0031008883,4.0109918E-4,-0.064702444,63.0,-0.18242976,0.08595451,9.804576,-0.021875447,0.009387922,0.015694492,0.008632359,0.005586968,-0.5278234,2017-01-03 11:19:48,NaN
-0.18195933,0.076614454,9.816227,0.0074750073,-0.005574209,-0.5197594,74.0,-0.19245014,0.07896257,9.804444,-0.011855066,-0.010860832,0.01582667,0.008948887,0.0056937076,-0.57675827,2017-01-03 11:19:49,NaN
-0.20111294,0.076614454,9.80665,9.0717385E-4,-0.0020608234,0.011746541,71.0,-0.18664561,0.084638625,9.804508,-0.004039254,0.010703804,0.015761828,0.009179811,0.004992486,-0.60271895,2017-01-03 11:19:50,NaN
-0.18195933,0.095768064,9.80665,0.0036829885,-0.0015267835,-0.07098309,71.0,-0.18819594,0.08624302,9.804464,-0.016109254,-0.01814128,0.0021855405,0.009335034,0.0049269577,-0.60948986,2017-01-03 11:19:51,NaN
-0.20111294,0.076614454,9.797073,-0.0020150815,-1.6106167E-4,0.0066028205,71.0,-0.19160336,0.07989362,9.804453,9.185048E-4,0.001828469,0.015817525,0.009173794,0.0052802814,-0.60791194,2017-01-03 11:19:52,NaN
-0.18195933,0.095768064,9.816227,0.001967728,0.0011602943,0.07320673,71.0,-0.19283314,0.07588987,9.804461,0.029388968,0.019452557,0.015809212,0.009035517,0.0054778443,-0.60583174,2017-01-03 11:19:53,NaN
-0.19153613,0.076614454,9.816227,4.4710148E-4,7.445333E-4,0.009726931,74.0,-0.18851085,0.08328191,9.804485,-0.0021740189,-0.0015598292,0.015785106,0.008815728,0.0057187295,-0.5474364,2017-01-03 11:19:54,NaN
-0.19153613,0.08619126,9.816227,-3.2890265E-4,3.379052E-4,0.018263727,74.0,-0.18318152,0.08605564,9.804562,-0.0075033386,-0.0043335482,0.015708623,0.008699962,0.005549989,-0.53434616,2017-01-03 11:19:55,NaN
-0.19153613,0.095768064,9.80665,0.0019429772,0.001597224,-0.029994417,71.0,-0.18152633,0.08935215,9.8045635,-0.022778885,0.005990278,0.0020866133,0.008797414,0.0053880527,-0.53442127,2017-01-03 11:19:56,NaN
-0.18195933,0.10534488,9.80665,-0.002105689,0.0012443104,0.16884775,67.0,-0.18008226,0.08905384,9.804592,-0.010602617,0.0062885853,0.015677864,0.008716237,0.005381141,-0.529845,2017-01-03 11:19:57,NaN
-0.21068975,0.095768064,9.787497,-0.003640456,-6.552711E-4,0.047947705,71.0,-0.18657464,0.08552898,9.8045025,0.023130467,-0.017427241,0.01576848,0.008507216,0.0060947677,-0.49624664,2017-01-03 11:19:58,NaN
-0.18195933,0.095768064,9.80665,-0.0010259377,-8.862929E-4,0.029265502,71.0,-0.18992464,0.0823814,9.804465,-7.602162E-4,-6.593147E-4,0.015805056,0.008409759,0.0063796686,-0.49037063,2017-01-03 11:19:59,NaN
-0.17238252,0.12449849,9.892841,2.0954247E-4,0.0062329485,0.088076375,67.0,-0.18564555,0.0860717,9.804515,-0.059520695,0.009270731,0.20644003,0.008485434,0.0060711894,-0.49304718,2017-01-03 11:20:00,NaN
-0.18195933,0.076614454,9.825804,-3.2144002E-5,6.489344E-5,-0.13174641,74.0,-0.18500899,0.068659045,9.804666,0.007944458,-5.5730913E-4,0.01560554,0.007922953,0.0062024076,-0.52372503,2017-01-03 11:20:01,NaN
-0.18195933,0.076614454,9.835381,-5.6512945E-4,-0.0019130749,0.11046799,74.0,-0.18485294,0.06973908,9.804661,0.021408765,0.0119830035,0.0156096965,0.007970865,0.0061601037,-0.52443904,2017-01-03 11:20:02,NaN
-0.16280572,0.095768064,9.80665,-0.0024434263,0.0015802835,0.12349299,74.0,-0.18408976,0.07485527,9.804637,0.0070252516,-0.0067535336,0.0020134572,0.00825938,0.005869892,-0.5368449,2017-01-03 11:20:03,NaN
-0.16280572,0.08619126,9.816227,0.002224436,3.5357682E-4,-0.15631165,67.0,-0.17672503,0.075107045,9.80477,-0.013959838,-0.007005307,0.0018796145,0.008059506,0.0055593443,-0.53546786,2017-01-03 11:20:04,NaN
-0.18195933,0.08619126,9.835381,-0.0033182476,0.0023605244,-0.0026942554,71.0,-0.17968051,0.07874726,9.8046875,0.02985669,0.016595174,0.015583094,0.008219887,0.0057000373,-0.5238822,2017-01-03 11:20:05,NaN
-0.18195933,0.095768064,9.816227,0.0039842157,-0.0021349408,-0.047124382,67.0,-0.18260437,0.080426745,9.804621,0.0055398387,0.014915688,-0.011590264,0.008419222,0.0057116454,-0.53101736,2017-01-03 11:20:06,NaN
-0.20111294,0.05746084,9.816227,0.0026113037,-6.936944E-4,-0.037408173,67.0,-0.18644242,0.07623751,9.804582,-0.004242447,-0.008135771,0.015688673,0.008351449,0.005977951,-0.53233147,2017-01-03 11:20:07,NaN
-0.20111294,0.076614454,9.825804,-0.0060944515,0.0010922642,0.25858393,67.0,-0.19181512,0.069074586,9.80453,0.0011302575,0.012647495,0.015740214,0.0083337575,0.0062136007,-0.5517258,2017-01-03 11:20:08,NaN
-0.20111294,0.076614454,9.816227,0.0020241975,7.1289507E-4,0.034804173,67.0,-0.1936271,0.06383033,9.80453,-0.02429846,0.004271407,0.015740214,0.007952314,0.0066951294,-0.5248572,2017-01-03 11:20:09,NaN
-0.19153613,0.08619126,9.80665,0.0055622635,-0.0036891336,-0.27038258,74.0,-0.18993518,0.07397071,9.804532,0.012870653,0.021371718,-0.011502144,0.008378799,0.006149073,-0.53649133,2017-01-03 11:20:10,NaN
-0.19153613,0.08619126,9.816227,0.005358841,-1.9448664E-4,-0.07122797,71.0,-0.18755627,0.07839282,9.8045435,-0.003128608,0.0033292677,0.015726913,0.008445045,0.006009449,-0.52813,2017-01-03 11:20:11,NaN
-0.20111294,0.08619126,9.835381,-0.0017420441,-7.977277E-4,0.012775835,67.0,-0.18932277,0.07381094,9.804544,-0.0013620919,0.00791114,0.015726082,0.008272293,0.0062385304,-0.5251328,2017-01-03 11:20:12,NaN
-0.20111294,0.08619126,9.816227,-0.005223773,0.0036364268,0.048411567,71.0,-0.18441507,0.07691694,9.804615,-0.0062697893,0.00480514,0.015655419,0.008321006,0.005878699,-0.53165007,2017-01-03 11:20:13,NaN
-0.19153613,0.076614454,9.816227,0.00358537,-0.0030814698,-0.23022658,71.0,-0.18989617,0.0768702,9.804511,-7.8870193E-4,-0.008768465,0.015759334,0.008471202,0.0061116912,-0.5321475,2017-01-03 11:20:14,NaN
-0.20111294,0.076614454,9.80665,-0.0027659053,0.0013738641,0.042173505,71.0,-0.18917456,0.0728848,9.804555,-0.0015102876,-0.004783058,0.015715275,0.008287633,0.006177874,-0.5332519,2017-01-03 11:20:15,NaN
-0.20111294,0.076614454,9.825804,-0.004394949,0.0015317883,0.1623207,71.0,-0.19020504,0.07378722,9.804528,-4.7982752E-4,0.007934865,0.015742708,0.008381352,0.006161541,-0.5369107,2017-01-03 11:20:16,NaN
-0.20111294,0.076614454,9.835381,-0.0030482507,-2.775868E-4,0.05912187,71.0,-0.19051927,0.071894415,9.804536,-0.027406296,-0.003792677,0.029354742,0.00830777,0.006227893,-0.5368074,2017-01-03 11:20:17,NaN
-0.20111294,0.095768064,9.816227,0.0025528623,-0.0032467504,-0.20027512,74.0,-0.1808758,0.07934459,9.804662,-0.009809057,-0.011242856,0.015608864,0.008471346,0.0054460396,-0.5530491,2017-01-03 11:20:18,NaN
-0.20111294,0.08619126,9.835381,-0.0052927933,0.0017175532,0.1336065,71.0,-0.19438481,0.07110763,9.804466,0.0036999458,0.01061445,0.015804224,0.008372973,0.006424569,-0.535916,2017-01-03 11:20:19,NaN
-0.21068975,0.08619126,9.835381,0.0029158143,0.0011155102,0.021612285,67.0,-0.19547945,0.07072407,9.804446,0.0047945864,0.010998013,0.015824176,0.008357343,0.0065195714,-0.5321394,2017-01-03 11:20:20,NaN
-0.20111294,0.06703765,9.816227,0.0024652474,-7.664322E-4,-0.022756457,67.0,-0.19402508,0.070045516,9.8044815,0.0033402178,-0.0019437757,0.015789261,0.008298135,0.0064629433,-0.53339,2017-01-03 11:20:21,NaN
-0.19153613,0.08619126,9.80665,-0.002004586,-0.0012767247,0.05388009,67.0,-0.18695451,0.07572226,9.804576,-0.0037303409,0.005999819,0.015694492,0.008359383,0.0059914016,-0.53462404,2017-01-03 11:20:22,NaN
-0.19153613,0.095768064,9.816227,-0.0,0.0,-0.0,67.0,-0.18688188,0.07507857,9.804582,-0.0038029773,0.0066435137,0.015688673,0.008296697,0.00605128,-0.529995,2017-01-03 11:20:23,NaN
-0.19153613,0.08619126,9.825804,-0.001097979,-1.0415093E-4,0.013766571,67.0,-0.18502979,0.07824092,9.804592,-0.0056550805,-0.023759535,0.029298212,0.008438102,0.0058070063,-0.5379091,2017-01-03 11:20:24,NaN
-0.20111294,0.076614454,9.816227,1.895464E-4,-7.304255E-4,0.055237632,67.0,-0.18756294,0.07466303,9.804571,-0.0031219185,-0.0065612905,0.015698647,0.008278215,0.0061176503,-0.5273639,2017-01-03 11:20:25,NaN
-0.19153613,0.076614454,9.816227,0.0053151967,-0.0039760293,-0.25184587,67.0,-0.18360373,0.08075469,9.804599,-0.007081132,9.673967E-4,0.0020516978,0.008556067,0.005602585,-0.5452175,2017-01-03 11:20:26,NaN
-0.19153613,0.076614454,9.816227,4.076798E-4,-0.0019296816,-0.020621922,67.0,-0.1835681,0.079038985,9.804613,-0.007116762,-0.010937249,0.015657082,0.008384369,0.0057922998,-0.53087205,2017-01-03 11:20:27,NaN
-0.20111294,0.06703765,9.80665,0.0036866674,1.2459101E-4,-0.16409846,67.0,-0.1885486,0.07280929,9.804567,-0.0021362586,0.008912796,0.015702805,0.008205473,0.0062352065,-0.5247751,2017-01-03 11:20:28,NaN
-0.19153613,0.06703765,9.816227,0.0015644835,-0.0012672737,-0.008214133,67.0,-0.18179852,0.08117092,9.804629,-0.008886357,-0.02668953,0.015641287,0.008374771,0.0057374733,-0.52284557,2017-01-03 11:20:29,NaN
-0.19153613,0.076614454,9.816227,-0.0014825746,0.0041963668,0.21744953,67.0,-0.18464902,0.084530085,9.804547,-0.0060358513,-0.016428351,0.015723588,0.008693646,0.0056248624,-0.5372568,2017-01-03 11:20:30,NaN
-0.19153613,0.08619126,9.816227,-0.0033679958,0.0028810527,0.2237726,67.0,-0.18418056,0.0818352,9.804581,-0.006504313,-1.13117974E-4,0.015690334,0.008532554,0.0057270513,-0.53246284,2017-01-03 11:20:31,NaN
-0.18195933,0.08619126,9.816227,0.005061929,-0.004368145,-0.1210044,67.0,-0.17787209,0.08187915,9.804696,-0.012812772,-0.013777409,0.0019544333,0.008326448,0.0055094473,-0.52678597,2017-01-03 11:20:32,NaN
-0.18195933,0.08619126,9.80665,0.0018453794,-0.002395902,-0.016642012,67.0,-0.18171357,0.081004374,9.804632,0.0046490533,7.1771495E-4,0.0020184452,0.008397691,0.0056906627,-0.52767366,2017-01-03 11:20:33,NaN
-0.19153613,0.076614454,9.816227,0.0024884725,-0.0025610873,-0.08617397,67.0,-0.18535106,0.0705678,9.804644,-0.0053338143,-0.0024660588,0.015626322,0.008123831,0.0060221893,-0.53885204,2017-01-03 11:20:34,NaN
-0.19153613,0.095768064,9.816227,0.004813281,-0.003954393,-0.2019402,71.0,-0.18283929,0.08168588,9.8046055,-0.00784557,-0.01358414,0.015665395,0.008518768,0.005629454,-0.5368116,2017-01-03 11:20:35,NaN
-0.19153613,0.095768064,9.816227,-0.003226789,0.0011061066,0.1371996,67.0,-0.18794867,0.07612589,9.804554,-0.002736199,0.01921654,0.0020965892,0.008396462,0.006033578,-0.5335832,2017-01-03 11:20:36,NaN
-0.19153613,0.06703765,9.835381,-4.9498092E-5,8.331439E-4,0.03125413,67.0,-0.18922535,0.07362878,9.804548,-0.0014595252,0.008093297,0.015722755,0.008368158,0.00609576,-0.5397312,2017-01-03 11:20:37,NaN
-0.17238252,0.08619126,9.816227,0.0037548023,-6.9385103E-4,-0.09951739,67.0,-0.18145798,0.07782884,9.804663,-0.009226886,0.0038932469,0.015608034,0.008247958,0.005772632,-0.52689135,2017-01-03 11:20:38,NaN
-0.20111294,0.076614454,9.825804,-0.003695165,5.4148893E-4,0.01978293,67.0,-0.18397306,0.07887089,9.804607,-0.006711805,-0.010769153,0.015662901,0.008569431,0.0055435738,-0.55765635,2017-01-03 11:20:39,NaN
-0.19153613,0.095768064,9.80665,0.003732073,-0.004298136,-0.053184837,71.0,-0.18299559,0.0752815,9.804653,0.019551413,-0.007179767,0.0019968308,0.008211779,0.0058618844,-0.5316346,2017-01-03 11:20:40,NaN
-0.18195933,0.095768064,9.80665,0.001162479,0.0014232154,-0.19585556,71.0,-0.17629299,0.08385014,9.804708,-7.7153E-4,-0.015748397,0.0019427949,0.0083479695,0.005421284,-0.52340436,2017-01-03 11:20:41,NaN
-0.19153613,0.08619126,9.825804,-0.0027490652,7.934618E-4,0.080181964,71.0,-0.18956827,0.07097623,9.804562,-0.0011165927,-0.016494839,0.015709454,0.008197848,0.0062705707,-0.53079456,2017-01-03 11:20:42,NaN
-0.18195933,0.076614454,9.816227,0.0014121915,-0.0014397717,-0.20518805,67.0,-0.18863025,0.0768883,9.804534,-0.0020546205,-0.008786566,0.015736056,0.008420107,0.006080881,-0.5297016,2017-01-03 11:20:43,NaN
-0.18195933,0.08619126,9.835381,-0.0034536177,-3.4700215E-4,0.03183006,71.0,-0.19145659,0.07229779,9.804515,0.014392072,-0.017816404,0.029376356,0.0083142165,0.0063056853,-0.5318868,2017-01-03 11:20:44,NaN
-0.25857377,0.08619126,9.902418,-4.2570304E-4,0.020675141,-0.0756544,67.0,-0.20498244,0.07651645,9.80421,-0.040183816,-0.03565541,0.056922145,0.0088503845,0.0067921574,-0.5302726,2017-01-03 11:20:45,NaN
-0.17238252,0.08619126,9.825804,0.007886023,-0.0038497527,-0.32312095,71.0,-0.18452564,0.08012274,9.804587,0.007461123,-0.012020999,0.015683684,0.008561268,0.005649598,-0.5461926,2017-01-03 11:20:46,NaN
-0.16280572,0.08619126,9.816227,0.0020652842,0.0022810039,0.024706688,67.0,-0.16964059,0.08999857,9.80477,0.01981676,-0.035517182,0.0154999625,0.008421363,0.004995525,-0.5206368,2017-01-03 11:20:47,NaN
-0.10534488,0.095768064,9.80665,5.887991E-4,-0.0050637396,0.10640885,67.0,-0.104614854,0.091809176,9.805663,0.009272421,0.0035332593,0.014607956,0.006788933,0.002067497,-0.5268314,2017-01-03 11:20:48,NaN
-0.10534488,0.11492168,9.80665,7.028122E-4,0.0013305963,0.027580349,67.0,-0.09838826,0.088810526,9.805756,0.003045827,0.006531902,0.014514848,0.006488224,0.0018901951,-0.5252611,2017-01-03 11:20:49,NaN
-0.10534488,0.08619126,9.835381,0.0,-0.0,-0.0,71.0,-0.10080826,0.08510295,9.805763,0.0054658316,-0.0033808681,0.028127713,0.0063781985,0.0021366738,-0.51962775,2017-01-03 11:20:50,NaN
-0.10534488,0.095768064,9.816227,-0.0036951518,0.001915109,0.20399022,67.0,-0.10058805,0.08293095,9.805785,0.005245623,0.012411478,0.014485751,0.0063210744,0.0020558832,-0.53697866,2017-01-03 11:20:51,NaN
-0.095768064,0.095768064,9.80665,0.0010100359,-0.0018930777,-0.030023117,67.0,-0.095901445,0.090654306,9.805763,5.590173E-4,0.004688119,8.8701845E-4,0.0064948243,0.0017582042,-0.5219464,2017-01-03 11:20:52,NaN
-0.12449849,0.095768064,9.816227,-0.0021126831,0.00174102,0.0511382,63.0,-0.10211895,0.09324861,9.8056755,-0.020464176,0.002093816,0.028215002,0.006806682,0.001839652,-0.53692657,2017-01-03 11:20:53,NaN
-0.10534488,0.10534488,9.816227,-0.002547521,0.003109769,0.07426424,67.0,-0.11269692,0.08523512,9.805633,-0.009886201,-0.0035130351,0.014637884,0.0066926857,0.0026668953,-0.5176066,2017-01-03 11:20:54,NaN
-0.10534488,0.08619126,9.825804,3.7986215E-4,0.001239638,0.06402448,67.0,-0.10083793,0.094103806,9.805681,-0.008124854,0.0012386279,0.014589666,0.0067836856,0.0018540407,-0.5253447,2017-01-03 11:20:55,NaN
-0.11492168,0.095768064,9.816227,-0.001937894,0.0011576148,0.07561069,63.0,-0.10822831,0.09387719,9.805604,-7.3446473E-4,0.0014652471,0.014666148,0.0069995676,0.0020899882,-0.5363523,2017-01-03 11:20:56,NaN
-0.12449849,0.08619126,9.825804,0.0037132676,-0.0013950666,0.016442867,63.0,-0.11116731,0.091146216,9.805597,-0.011415817,0.0041962177,0.0010532824,0.006943945,0.002346563,-0.5296091,2017-01-03 11:20:57,NaN
-0.12449849,0.095768064,9.816227,0.002479044,-0.0024742666,-0.24924456,63.0,-0.113180384,0.091416836,9.805572,-0.009402749,0.003925597,0.014698569,0.007007545,0.002433444,-0.5287465,2017-01-03 11:20:58,NaN
-0.12449849,0.095768064,9.816227,0.0014300299,-0.0030189916,-0.121044464,71.0,-0.11009083,0.0929779,9.805593,-0.012492298,0.0023645405,0.014678617,0.0070119975,0.0021941266,-0.536425,2017-01-03 11:20:59,NaN
-0.1340753,0.095768064,9.825804,-8.9066954E-5,8.859284E-4,0.034515236,63.0,-0.11992332,0.08572299,9.805543,-0.0026597956,0.009619438,0.014727665,0.006932726,0.0029032521,-0.52574676,2017-01-03 11:21:00,NaN
-0.1340753,0.095768064,9.80665,0.001442147,-0.0017476897,0.019399373,63.0,-0.1181422,0.085868485,9.805563,-0.0044409246,0.009473944,0.028328061,0.006889143,0.0028273244,-0.52510196,2017-01-03 11:21:01,NaN
-0.11492168,0.08619126,9.816227,-0.0017244106,0.0010825268,0.05232279,71.0,-0.11663484,0.08748861,9.805567,0.0076720575,-0.005766516,0.0147043895,0.006876043,0.0028256339,-0.51182646,2017-01-03 11:21:02,NaN
-0.10534488,0.08619126,9.816227,0.0020756146,-0.0015403413,-0.021126162,71.0,-0.11218385,0.09289018,9.805569,-0.010399281,-0.011168089,0.014701063,0.007019633,0.0024236683,-0.51989836,2017-01-03 11:21:03,NaN
-0.12449849,0.095768064,9.816227,7.851735E-4,5.7757355E-4,-0.010874705,67.0,-0.1142017,0.08950451,9.805577,-0.008381421,-0.007782422,0.0010732342,0.006946381,0.0025454608,-0.5267588,2017-01-03 11:21:04,NaN
-0.12449849,0.076614454,9.816227,-0.0013139865,-7.699981E-4,0.0067353,67.0,-0.123250276,0.0852275,9.805506,0.014287494,-0.0035054167,0.0147650745,0.0069868937,0.0030916012,-0.5219988,2017-01-03 11:21:05,NaN
-0.1340753,0.095768064,9.825804,-0.0012925495,1.2237151E-4,0.09910218,67.0,-0.12104998,0.077809796,9.805594,-0.001533149,0.017532637,0.0010557764,0.0066374494,0.0031268678,-0.5305352,2017-01-03 11:21:06,NaN
-0.11492168,0.08619126,9.816227,0.0016153941,-0.0020391524,-0.032651443,67.0,-0.11910326,0.084788494,9.80556,-0.0034798668,0.010553933,0.0147102075,0.006877263,0.0028759246,-0.52782565,2017-01-03 11:21:07,NaN
-0.12449849,0.10534488,9.80665,0.002240729,-7.04688E-4,-0.11386216,67.0,-0.115667924,0.08741959,9.805579,-0.0069152056,-0.005697504,0.014691088,0.0068844366,0.0026932063,-0.52327526,2017-01-03 11:21:08,NaN
-0.12449849,0.076614454,9.816227,-7.349278E-4,-7.675263E-4,0.13478369,67.0,-0.11391837,0.087268956,9.8056,-0.008664758,-0.0055468725,0.014670304,0.006849182,0.002573877,-0.52915925,2017-01-03 11:21:09,NaN
-0.12449849,0.095768064,9.816227,2.5699195E-4,0.0010593699,-0.14737414,67.0,-0.11870983,0.085476436,9.805559,-0.003873302,0.0098659955,0.014711039,0.0069612935,0.0026775633,-0.5476337,2017-01-03 11:21:10,NaN
-0.1436521,0.08619126,9.825804,0.0010831894,8.863332E-4,-0.045522373,67.0,-0.112977386,0.08916478,9.8055935,0.004014613,-0.0074426914,0.014676955,0.006924544,0.0024292723,-0.5356153,2017-01-03 11:21:11,NaN
-0.1436521,0.076614454,9.825804,-0.0027697696,-0.0010407345,0.20943224,63.0,-0.13762106,0.08428219,9.805322,0.01503793,-0.0025601087,0.014948797,0.0073630386,0.0036729444,-0.5299624,2017-01-03 11:21:12,NaN
-0.12449849,0.08619126,9.816227,-5.201E-5,0.0022806872,0.044156887,63.0,-0.13223019,0.08600927,9.805383,-0.003973281,-0.004287189,0.014888111,0.0072661797,0.003448183,-0.5235404,2017-01-03 11:21:13,NaN
-0.1340753,0.095768064,9.816227,7.4681244E-4,7.564669E-4,-0.06346777,63.0,-0.11896789,0.09036309,9.805512,-0.003615229,0.0049793473,0.014757593,0.0070937946,0.002774969,-0.5212422,2017-01-03 11:21:14,NaN
-0.1436521,0.08619126,9.816227,0.003251559,0.0014492169,-0.04540454,67.0,-0.13771792,0.077173546,9.805379,0.0015144442,0.0045485417,0.014891436,0.006990217,0.00399087,-0.51519877,2017-01-03 11:21:15,NaN
-0.15322891,0.076614454,9.825804,-0.0042144656,0.0022134758,0.112840004,67.0,-0.13783637,0.08507876,9.805313,-0.011987453,0.010263672,0.0013367627,0.007348169,0.0037701712,-0.5173221,2017-01-03 11:21:16,NaN
-0.1340753,0.10534488,9.80665,-0.0017640751,0.0034752332,0.1660436,63.0,-0.14061567,0.0809889,9.805307,-0.009208156,0.014353532,0.014962928,0.0072845933,0.0039231023,-0.52627337,2017-01-03 11:21:17,NaN
-0.1340753,0.10534488,9.816227,-0.0025987078,-3.6278766E-4,0.14580959,67.0,-0.13684215,0.089013256,9.805291,0.014259022,-0.0072911764,0.014979556,0.00754038,0.003524673,-0.5284719,2017-01-03 11:21:18,NaN
-0.18195933,0.076614454,9.816227,-0.002764935,0.004577001,0.049986478,67.0,-0.1554479,0.08542896,9.805046,-0.007996272,-0.0037068755,0.0016036163,0.007816938,0.0045485916,-0.51522064,2017-01-03 11:21:19,NaN
-0.17238252,0.08619126,9.816227,-0.0011856896,0.0010646883,0.034489922,71.0,-0.15986949,0.087290876,9.804959,0.010045672,-0.01918914,0.0289316,0.008074034,0.0045896913,-0.526173,2017-01-03 11:21:20,NaN
-0.18195933,0.08619126,9.825804,-0.004429395,0.0037275653,0.2386446,71.0,-0.16698095,0.08393515,9.80487,-0.010083574,-0.0022130648,0.015401035,0.008107023,0.0050080842,-0.52407306,2017-01-03 11:21:21,NaN
-0.16280572,0.095768064,9.816227,0.0034059216,-0.0057252124,-0.02448167,71.0,-0.16454566,0.08492221,9.804902,0.014721833,0.01042022,0.015368614,0.00804549,0.0049405503,-0.51723576,2017-01-03 11:21:22,NaN
-0.17238252,0.08619126,9.80665,-0.0022643767,9.374673E-4,0.070038825,67.0,-0.16540162,0.077788286,9.804947,0.001957447,0.0039338,0.0017033748,0.0077748196,0.005138812,-0.5202342,2017-01-03 11:21:23,NaN
-0.15322891,0.095768064,9.816227,0.0039824494,-0.0024571468,-0.18407112,67.0,-0.15377767,0.086218126,9.805067,-0.009666499,0.009124309,-0.012036682,0.0078389365,0.0043993928,-0.5212853,2017-01-03 11:21:24,NaN
-0.18195933,0.095768064,9.825804,-0.003924339,0.0024154189,0.1716043,67.0,-0.15544967,0.084766895,9.805053,-0.02161484,0.01057554,0.015218144,0.007815965,0.0045181154,-0.52047765,2017-01-03 11:21:25,NaN
-0.16280572,0.076614454,9.816227,-0.004115772,0.0047435514,0.019741144,67.0,-0.16253866,0.08081472,9.804971,-0.014525849,9.073663E-4,0.028920794,0.0078258235,0.004941526,-0.51939845,2017-01-03 11:21:26,NaN
-0.17238252,0.076614454,9.825804,0.003374285,1.5550586E-4,-0.06319839,63.0,-0.17107527,0.073837526,9.804879,0.0076311026,0.007884557,0.01539106,0.0077490527,0.005496681,-0.5195721,2017-01-03 11:21:27,NaN
-0.15322891,0.095768064,9.825804,-0.004570118,0.0059208414,0.18430237,67.0,-0.16388464,0.0768325,9.804979,4.404697E-4,0.018509926,0.01529047,0.007853636,0.004846923,-0.5475509,2017-01-03 11:21:28,NaN
-0.18195933,0.076614454,9.825804,6.5898744E-4,-6.582067E-4,0.053480484,67.0,-0.17024079,0.07769807,9.804865,0.0067966254,0.017644366,0.0017848441,0.007878025,0.0053831683,-0.5168481,2017-01-03 11:21:29,NaN
-0.22026655,0.08619126,9.825804,-0.0024890406,0.007983226,0.008551254,67.0,-0.18425056,0.08666001,9.804537,-0.02005466,0.008682423,0.015733562,0.008609866,0.0058012647,-0.5125971,2017-01-03 11:21:30,NaN
-0.20111294,0.076614454,9.80665,0.0015684013,-5.9545337E-4,-0.10927981,74.0,-0.19997416,0.08158162,9.804272,0.0092893,-0.0134798875,0.015998755,0.008857755,0.0065430584,-0.52029085,2017-01-03 11:21:31,NaN
-0.22026655,0.08619126,9.816227,0.0012772734,-7.7747885E-4,0.14066568,71.0,-0.20694786,0.07486463,9.80418,-0.0109776985,0.0068574487,0.0160902,0.008679563,0.007112166,-0.5117166,2017-01-03 11:21:32,NaN
-0.20111294,0.08619126,9.825804,-0.0032219845,0.004445289,0.08523799,71.0,-0.20628266,0.073826656,9.804202,-0.011642911,0.00789543,0.016068585,0.008629725,0.007094329,-0.51328784,2017-01-03 11:21:33,NaN
-0.21068975,0.095768064,9.816227,0.003486997,5.789585E-4,-0.11508139,71.0,-0.19815451,0.07651725,9.804349,0.0074696443,-0.008415511,0.015921442,0.008563625,0.0066310004,-0.5170195,2017-01-03 11:21:34,NaN
-0.22984336,0.06703765,9.844957,-0.007643618,0.0022055286,0.3353461,71.0,-0.2090129,0.07317481,9.804151,-0.00891266,-0.0050730724,0.016120126,0.00882374,0.0070457323,-0.5313311,2017-01-03 11:21:35,NaN
-0.21068975,0.076614454,9.816227,0.0017603384,-1.5325907E-4,0.019451158,71.0,-0.21370807,0.06625868,9.804098,0.009402866,0.0018430626,0.029792847,0.008528276,0.0075777695,-0.5172727,2017-01-03 11:21:36,NaN
-0.22984336,0.08619126,9.816227,0.0026988278,3.491335E-4,0.042480335,71.0,-0.20885192,0.0720601,9.804162,-0.009073637,-0.01757871,0.016108487,0.008611676,0.0072625,-0.5123408,2017-01-03 11:21:37,NaN
-0.22026655,0.08619126,9.835381,-0.0020992735,0.001419812,0.15538938,71.0,-0.21610427,0.0645896,9.804056,0.011799054,0.017132487,0.016214065,0.008465843,0.0077841943,-0.5114328,2017-01-03 11:21:38,NaN
-0.22984336,0.06703765,9.835381,0.0026674177,0.0034510982,-0.11812055,71.0,-0.21026947,0.07583462,9.804103,-0.007656094,-0.02135322,0.016167512,0.008808468,0.007232712,-0.5116829,2017-01-03 11:21:39,NaN
-0.25857377,0.06703765,9.835381,-0.019508988,-0.001156532,0.24580047,71.0,-0.24298042,0.05815564,9.803467,-0.0021858262,-0.003674253,0.030423818,0.008807478,0.0092045,-0.50414234,2017-01-03 11:21:40,NaN
-0.25857377,0.06703765,9.825804,0.0019872983,-0.0029982142,-0.046950594,71.0,-0.25180182,0.06593295,9.803196,0.006635545,-0.011451564,0.017074483,0.0092579955,0.00951018,-0.49324563,2017-01-03 11:21:41,NaN
-0.25857377,0.076614454,9.835381,-0.009590782,0.0030808968,0.17440435,71.0,-0.24034253,0.06911583,9.803461,-0.0048237345,-0.0010140935,0.016809292,0.009164821,0.008866366,-0.49851567,2017-01-03 11:21:42,NaN
-0.22984336,0.076614454,9.816227,-2.015362E-5,0.0017819254,0.079466656,71.0,-0.23344885,0.07477546,9.803586,0.01552329,-0.00667372,0.016684594,0.009189662,0.0084723625,-0.49337184,2017-01-03 11:21:43,NaN
-0.25857377,0.06703765,9.825804,3.0346078E-4,-0.0018396275,0.059171673,71.0,-0.23899695,0.06895979,9.803495,0.0074510435,-0.0144784,0.016775208,0.009115383,0.008819466,-0.49769694,2017-01-03 11:21:44,NaN
-0.25857377,0.076614454,9.816227,6.133097E-4,-0.0026514677,0.013539884,71.0,-0.24028623,0.0701509,9.803455,0.022360664,-0.002049165,0.01681511,0.009153713,0.008894965,-0.49308679,2017-01-03 11:21:45,NaN
-0.24899697,0.076614454,9.825804,-0.0035010222,8.1209873E-4,0.06756284,71.0,-0.24382456,0.06832413,9.803381,-0.0013416986,-2.223911E-4,0.01688993,0.009311989,0.008943955,-0.507512,2017-01-03 11:21:46,NaN
-0.24899697,0.08619126,9.825804,-0.006743223,0.0046891146,0.32309884,67.0,-0.24265465,0.07058097,9.803392,0.011108748,0.011141118,0.01687746,0.009356046,0.0088604195,-0.50509375,2017-01-03 11:21:47,NaN
-0.22026655,0.076614454,9.835381,0.0028998798,-0.00938202,0.11492378,71.0,-0.20949395,0.07196501,9.804149,-0.008431612,-0.0038632741,0.029742138,0.008506564,0.0074300766,-0.49854383,2017-01-03 11:21:48,NaN
-0.19153613,0.076614454,9.816227,0.0018202972,-0.0016429005,-0.017433632,71.0,-0.19548018,0.07830249,9.804389,0.004795314,0.01703995,0.015881538,0.008390535,0.006699717,-0.49336475,2017-01-03 11:21:49,NaN
-0.20111294,0.08619126,9.835381,-0.00263422,0.0013094794,-0.06012753,71.0,-0.18890065,0.08005048,9.804503,0.0118361395,0.0016716027,0.029387165,0.008392481,0.006244788,-0.505728,2017-01-03 11:21:50,NaN
-0.19153613,0.08619126,9.80665,0.0059919516,-0.0035842895,-0.04283409,71.0,-0.18791318,0.08306697,9.804499,-0.0027716989,-0.0013448809,0.015771804,0.0083777085,0.0062894337,-0.48867625,2017-01-03 11:21:51,NaN
-0.20111294,0.095768064,9.80665,-0.0027132833,0.0023605567,0.050851095,71.0,-0.18835875,0.07649224,9.8045435,-0.0023261113,0.018850189,0.02934809,0.008126736,0.006434859,-0.4927819,2017-01-03 11:21:52,NaN
-0.22026655,0.08619126,9.825804,0.0010437081,-2.718197E-4,0.024874194,71.0,-0.18954577,0.08190131,9.804477,-0.0011391162,-1.792274E-4,0.01579425,0.008446202,0.0062854583,-0.49960127,2017-01-03 11:21:53,NaN
-0.21068975,0.08619126,9.835381,-3.4313666E-4,8.657355E-4,0.03717475,67.0,-0.19394507,0.073657244,9.804456,-0.010360157,0.021685185,0.015815033,0.008181535,0.006705217,-0.4979683,2017-01-03 11:21:54,NaN
-0.19153613,0.076614454,9.816227,0.0026209862,-0.0017250282,0.11331837,71.0,-0.18707184,0.08005644,9.804539,-0.0036130208,0.015285994,0.0157319,0.008257406,0.006281808,-0.4934561,2017-01-03 11:21:55,NaN
-0.20111294,0.076614454,9.816227,-0.0073141223,0.0032897945,0.23070458,67.0,-0.18444906,0.08527568,9.804544,-0.006235796,-0.017173942,0.015726082,0.008461641,0.005979674,-0.49905938,2017-01-03 11:21:56,NaN
-0.18195933,0.08619126,9.80665,7.476446E-4,-0.0012803231,0.11261352,71.0,-0.18601371,0.079601735,9.8045635,0.008949187,0.0021203468,0.01570696,0.008249588,0.006194745,-0.49889648,2017-01-03 11:21:57,NaN
-0.19153613,0.095768064,9.816227,-3.7940545E-4,0.0018887301,0.09223827,71.0,-0.19336376,0.07770913,9.804437,0.0026788898,-0.0096073905,0.015834153,0.00829697,0.0066383006,-0.4915283,2017-01-03 11:21:58,NaN
-0.20111294,0.076614454,9.816227,-0.0063566263,0.0054072365,0.16378212,71.0,-0.19964314,0.07990678,9.804293,0.008958265,-0.011805036,0.029598318,0.008674785,0.0067061367,-0.507209,2017-01-03 11:21:59,NaN
-0.22984336,0.08619126,9.825804,-0.0012145091,0.0018946191,0.006528332,67.0,-0.22131579,0.06729189,9.803922,0.003390227,-0.012810499,0.029969089,0.008581087,0.0080921855,-0.49644688,2017-01-03 11:22:00,NaN
-0.21068975,0.076614454,9.825804,-0.0027812272,0.0012455813,-0.012554135,71.0,-0.19781709,0.081765406,9.804314,-0.0064881276,-0.013663666,0.029576704,0.008597996,0.006722556,-0.49272612,2017-01-03 11:22:01,NaN
-0.17238252,0.10534488,9.797073,0.0060928045,-0.0010208639,-0.23853488,71.0,-0.17999232,0.08845786,9.8046,-0.010692555,0.0068845702,0.015671214,0.00857146,0.0055767647,-0.511704,2017-01-03 11:22:02,NaN
-0.19153613,0.095768064,9.816227,0.0031061708,-0.0036043585,-0.0910946,74.0,-0.16434935,0.09317659,9.804831,9.051777E-4,0.002165842,-0.011800588,0.008325629,0.004845338,-0.50376236,2017-01-03 11:22:03,NaN
-0.19153613,0.08619126,9.825804,0.0,-0.0,-0.0,74.0,-0.18450259,0.082682125,9.804566,-0.006182293,-9.6004474E-4,0.015704466,0.00828603,0.006133214,-0.49015966,2017-01-03 11:22:04,NaN
-0.18195933,0.095768064,9.825804,0.0014306363,-0.002649485,-0.007903107,71.0,-0.18474053,0.08587947,9.804534,-0.005944341,0.009462961,0.015736056,0.008428862,0.0060711335,-0.48940927,2017-01-03 11:22:05,NaN
-0.19153613,0.076614454,9.825804,-4.0622868E-4,-0.001162625,-0.019492386,71.0,-0.18575343,0.08339114,9.804537,-0.0049314164,-0.0016690503,0.015733562,0.008371193,0.006140688,-0.49332538,2017-01-03 11:22:06,NaN
-0.19153613,0.076614454,9.835381,-0.0035981848,0.0017729322,0.18134655,67.0,-0.18234666,0.08520571,9.804585,-0.008338192,0.01013672,0.029305695,0.008394164,0.005904048,-0.4974607,2017-01-03 11:22:07,NaN
-0.20111294,0.06703765,9.835381,6.9714617E-4,-0.0013674418,0.03872575,71.0,-0.18847921,0.07476957,9.804555,0.025035048,0.0069525116,0.029336452,0.0080857845,0.0064429706,-0.49714464,2017-01-03 11:22:08,NaN
-0.18195933,0.076614454,9.825804,0.0031721506,-0.001012046,-0.30958173,67.0,-0.18695259,0.07759703,9.804562,-0.0037322764,-0.009495292,0.029329803,0.008152026,0.006329784,-0.4943754,2017-01-03 11:22:09,NaN
-0.19153613,0.10534488,9.80665,0.0047549587,-0.0024763043,-0.14275935,71.0,-0.18064758,0.08187605,9.804645,-0.010037293,-1.5396308E-4,0.002005144,0.00819369,0.0059273215,-0.49598265,2017-01-03 11:22:10,NaN
-0.17238252,0.08619126,9.825804,0.00448493,-5.5945915E-4,-0.08654365,71.0,-0.17711219,0.08860085,9.804651,0.013668017,-0.006878771,0.015619673,0.008407435,0.0055925697,-0.49682418,2017-01-03 11:22:11,NaN
-0.15322891,0.095768064,9.825804,6.042977E-5,-0.0021162014,0.011771543,48.0,-0.16875264,0.088212825,9.804802,0.005308472,0.007129608,0.0018480244,0.008146194,0.0052825646,-0.49149126,2017-01-03 11:22:12,NaN
-0.17238252,0.10534488,9.835381,0.0014716677,-1.13090355E-4,-0.045257326,52.0,-0.17661431,0.08639524,9.80468,-0.014070546,-0.004673155,-0.011650119,0.008262305,0.0056775594,-0.49145427,2017-01-03 11:22:13,NaN
-0.17238252,0.08619126,9.816227,-0.0016392643,6.1714614E-4,0.20853312,48.0,-0.16771017,0.087241784,9.804828,0.0042660097,-0.005519699,0.0154426005,0.008090099,0.005240353,-0.4936721,2017-01-03 11:22:14,NaN
-0.18195933,0.08619126,9.797073,2.8171774E-4,5.059581E-4,-0.009748439,44.0,-0.17250879,0.084963955,9.804765,0.02268497,-0.0032418754,0.015505781,0.008098391,0.005527386,-0.4918558,2017-01-03 11:22:15,NaN
-0.17238252,0.095768064,9.80665,-6.004293E-4,0.0015644172,0.061547216,44.0,-0.16990092,0.092093274,9.804746,0.0064567584,0.0032491558,0.015524901,0.008344881,0.0052401535,-0.49108964,2017-01-03 11:22:16,NaN
-0.16280572,0.08619126,9.816227,-1.07286774E-4,0.0027979019,-0.07637698,48.0,-0.16512874,0.08481031,9.8048935,-0.02555613,0.010532124,0.015376926,0.007916999,0.0051875305,-0.49362406,2017-01-03 11:22:17,NaN
-0.17238252,0.10534488,9.80665,0.0047293473,-0.0032354721,-0.18655063,48.0,-0.1702865,0.08907422,9.804768,0.0068423357,0.006268211,0.0018829398,0.008270195,0.005255383,-0.49925455,2017-01-03 11:22:18,NaN
-0.17238252,0.095768064,9.816227,3.1225523E-4,0.0023172894,-0.016752165,44.0,-0.16366762,0.09301243,9.804844,-0.027017238,0.0023300082,0.015426805,0.00824826,0.0049090376,-0.49438903,2017-01-03 11:22:19,NaN
-0.16280572,0.095768064,9.825804,0.0011071048,-0.0018482079,-0.113970675,52.0,-0.16231629,0.09067939,9.804887,-0.014748228,0.0046630367,0.015383577,0.008155463,0.004833352,-0.50234157,2017-01-03 11:22:20,NaN
-0.17238252,0.08619126,9.816227,-8.93281E-6,6.719509E-4,-0.050267193,48.0,-0.16176453,0.09341667,9.804872,-0.0016796303,-0.011694588,0.015399372,0.00819346,0.004856478,-0.48993626,2017-01-03 11:22:21,NaN
-0.17238252,0.095768064,9.80665,-0.0011228125,0.0028453523,0.018662028,44.0,-0.15658279,0.095171906,9.804938,0.0067589693,1.7052452E-4,0.0017116879,0.008119506,0.004622062,-0.4856682,2017-01-03 11:22:22,NaN
-0.17238252,0.08619126,9.825804,-0.004129423,1.950627E-4,0.08247253,41.0,-0.15632084,0.09343185,9.804959,-0.0071233343,-0.0117097655,0.015311251,0.008094177,0.0045505767,-0.49678096,2017-01-03 11:22:23,NaN
-0.18195933,0.08619126,9.825804,0.0017142606,-0.0016458151,-0.23528215,44.0,-0.16305155,0.0905433,9.804876,-0.0140129775,-0.008821215,0.0017732056,0.008140365,0.004915808,-0.49739686,2017-01-03 11:22:24,NaN
-0.19153613,0.10534488,9.825804,0.001348094,6.7315815E-4,-0.13697286,56.0,-0.16785999,0.08723843,9.804825,-0.009204531,-0.0055163475,0.015445095,0.008089454,0.0052536633,-0.4929645,2017-01-03 11:22:25,NaN
-0.18195933,0.08619126,9.816227,2.474817E-4,0.00237994,-0.113861255,71.0,-0.17844798,0.08431339,9.804665,0.0013834594,-0.002591309,0.015606372,0.008166591,0.005880131,-0.48410386,2017-01-03 11:22:26,NaN
0.33518824,0.15322891,9.864111,-4.0569674E-4,-0.013035493,0.11397702,67.0,-0.17132409,0.088893816,9.80475,0.36200896,0.0064486144,0.042760607,0.008265128,0.00534237,-0.49542323,2017-01-03 11:22:27,NaN
-0.19153613,0.076614454,9.80665,0.0040785726,-1.2958625E-4,-0.15358143,29.0,-0.19640698,0.07239341,9.804417,0.0057221055,-0.0042916704,0.002233757,0.008264546,0.006753782,-0.50767493,2017-01-03 11:22:28,NaN
-0.18195933,0.076614454,9.816227,3.250521E-4,-9.683086E-4,0.06402946,52.0,-0.19166796,0.07773109,9.80447,0.014603436,-0.009629356,0.0158009,0.008573211,0.0061414954,-0.5344509,2017-01-03 11:22:29,NaN
-0.19153613,0.08619126,9.835381,-0.001570437,7.759617E-4,0.070059806,56.0,-0.18643163,0.08686083,9.804493,-0.017873576,-0.032379434,0.015777621,0.008637252,0.0059476946,-0.5070131,2017-01-03 11:22:30,NaN
-0.20111294,0.076614454,9.816227,0.0,-0.0,0.0,56.0,-0.1909038,0.071274646,9.804533,2.1892294E-4,-0.0031729082,0.01573772,0.008015761,0.0066108936,-0.50017,2017-01-03 11:22:32,NaN
-0.18195933,0.076614454,9.816227,0.0013893568,-0.0017415533,0.048038535,52.0,-0.18395309,0.08217013,9.804581,-0.00673177,-4.4804902E-4,0.015689503,0.008288788,0.006068337,-0.49576223,2017-01-03 11:22:33,NaN
-0.18195933,0.095768064,9.825804,4.8746876E-4,0.0023638906,-0.08662797,52.0,-0.18548615,0.08480651,9.804529,0.008421635,-0.016704772,0.015741045,0.008524777,0.0059560165,-0.5073404,2017-01-03 11:22:34,NaN
-0.20111294,0.05746084,9.825804,-0.0055250535,0.0020393326,0.009193704,52.0,-0.19378829,0.07137504,9.804475,0.0031034348,-0.0032733034,0.015795082,0.008155587,0.006660721,-0.5081383,2017-01-03 11:22:35,NaN
-0.21068975,0.08619126,9.816227,0.0019131013,2.1224556E-4,0.010747293,48.0,-0.19228552,0.083467335,9.804409,-0.012019706,-0.0017452525,0.015860755,0.008633917,0.0063003334,-0.506251,2017-01-03 11:22:36,NaN
-0.18195933,0.10534488,9.825804,0.0019095747,-0.0018450997,0.03835553,48.0,-0.18869531,0.08356449,9.804479,-0.0019895567,-0.0018424066,0.002171408,0.008544781,0.006140943,-0.5061515,2017-01-03 11:22:37,NaN
-0.18195933,0.095768064,9.80665,-0.0013522847,0.0030236174,0.009186755,48.0,-0.18627597,0.07752678,9.804574,0.009211455,0.01781565,0.002075806,0.008175969,0.00624422,-0.50047606,2017-01-03 11:22:38,NaN
-0.18195933,0.08619126,9.816227,0.00290002,-0.0025694012,-0.05575195,48.0,-0.18308368,0.08033827,9.804613,-0.0076011876,0.0013838166,0.015657913,0.008217479,0.0060330755,-0.50031567,2017-01-03 11:22:39,NaN
-0.18195933,0.08619126,9.80665,-7.8502315E-5,9.570838E-4,0.018244563,52.0,-0.18571392,0.07787017,9.804582,-0.004970956,0.017472262,0.015688673,0.008263122,0.0060952995,-0.51257396,2017-01-03 11:22:40,NaN
-0.18195933,0.095768064,9.816227,0.0047718277,-0.0039872923,-0.27679923,52.0,-0.18419455,0.078818075,9.804604,-0.00649031,-0.010716339,0.015667057,0.008269455,0.0059977337,-0.5132252,2017-01-03 11:22:41,NaN
-0.20111294,0.076614454,9.816227,0.0017269349,-0.001110806,-0.03305314,56.0,-0.1911316,0.079394504,9.804466,4.467436E-4,-0.011292769,0.015804224,0.008409086,0.006375808,-0.50409,2017-01-03 11:22:42,NaN
-0.18195933,0.076614454,9.825804,-6.432386E-4,-2.7339451E-4,0.02340672,52.0,-0.18675452,0.079607956,9.804548,0.009690009,-0.011506216,0.015721925,0.008317075,0.006162585,-0.50564635,2017-01-03 11:22:43,NaN
-0.21068975,0.08619126,9.80665,-4.0036804E-4,0.0011638072,-0.024383029,52.0,-0.1924935,0.079330824,9.80444,0.0018086276,-0.011229088,0.015830826,0.00845722,0.006416481,-0.5062282,2017-01-03 11:22:44,NaN
-0.20111294,0.095768064,9.80665,0.0034237457,-0.0015667814,-0.22148222,52.0,-0.18671635,0.08513574,9.804503,-0.017588861,-0.00341366,0.015767647,0.008626081,0.0059222197,-0.5152686,2017-01-03 11:22:45,NaN
-0.21068975,0.08619126,9.835381,-1.49523E-4,0.0011759436,0.05734789,56.0,-0.1956992,0.076323405,9.8044,-0.008606006,0.0053986767,0.015869899,0.00841168,0.006630082,-0.50674015,2017-01-03 11:22:46,NaN
-0.20111294,0.076614454,9.797073,0.0016735584,-0.0018020511,-0.061714347,56.0,-0.19785777,0.0795367,9.804332,0.007172915,-0.011434963,0.0023185515,0.008629457,0.006614979,-0.509434,2017-01-03 11:22:47,NaN
-0.21068975,0.076614454,9.825804,0.0030943274,0.0013691051,-0.023680277,59.0,-0.19326916,0.07857749,9.804431,-0.011036059,-0.010475749,0.0022187931,0.008521169,0.0063682212,-0.5165419,2017-01-03 11:22:48,NaN
-0.19153613,0.08619126,9.80665,0.0017195124,1.2921801E-4,-0.023353577,59.0,-0.19411789,0.07906205,9.804411,0.003433014,0.0026600293,0.002239576,0.008480055,0.0065043597,-0.5052611,2017-01-03 11:22:49,NaN
-0.20111294,0.08619126,9.80665,-0.0,-0.0,0.0,59.0,-0.19883056,0.07341401,9.80436,0.008145689,0.00830807,0.015910635,0.008374798,0.0068305656,-0.5080105,2017-01-03 11:22:50,NaN
-0.19153613,0.095768064,9.816227,-4.686113E-4,-0.0020472296,-0.13073044,59.0,-0.19432396,0.07872867,9.804409,0.0036390903,-0.010626933,0.015861588,0.008648859,0.0062838383,-0.5290714,2017-01-03 11:22:51,NaN
-0.20111294,0.08619126,9.80665,3.7144456E-4,-1.8372643E-4,0.020711876,59.0,-0.1943825,0.07715791,9.80442,0.0036976335,0.0045641805,0.0022296002,0.008368312,0.006609332,-0.50069875,2017-01-03 11:22:52,NaN
-0.19153613,0.08619126,9.80665,0.001286667,6.869287E-4,-0.041406386,59.0,-0.1934344,0.07468116,9.804459,0.002749526,0.020661265,0.015812539,0.008286006,0.006566592,-0.50740296,2017-01-03 11:22:53,NaN
-0.21068975,0.08619126,9.797073,0.003662723,-0.0011713805,0.025078734,59.0,-0.19264124,0.079324886,9.804438,0.0019563688,0.002397196,-0.011407374,0.008449466,0.006437999,-0.5047111,2017-01-03 11:22:54,NaN
-0.20111294,0.076614454,9.797073,0.002837299,-7.9779053E-4,0.01515691,59.0,-0.19046903,0.08022066,9.804472,0.027024848,0.01512177,0.015798407,0.008401406,0.006361245,-0.5004062,2017-01-03 11:22:55,NaN
-0.20111294,0.095768064,9.80665,-0.0019339634,9.936916E-4,0.012734419,71.0,-0.20295948,0.07955908,9.804227,-0.014966073,-0.011457344,0.0024232978,0.008779036,0.0068176445,-0.51145333,2017-01-03 11:22:56,NaN
-0.21068975,0.076614454,9.816227,-2.2445273E-4,0.002968358,-0.11725207,67.0,-0.20328216,0.0722304,9.804276,-0.0010230562,-0.00412866,0.015993766,0.008388704,0.0071154553,-0.5019872,2017-01-03 11:22:57,NaN
-0.21068975,0.076614454,9.825804,7.59271E-4,0.002556864,0.04726547,71.0,-0.21017545,0.06441271,9.804186,0.0058702496,0.01730937,0.0024640325,0.008272476,0.007563026,-0.5079036,2017-01-03 11:22:58,NaN
-0.21068975,0.076614454,9.816227,-0.0,0.0,0.0,63.0,-0.19534212,0.07352927,9.804429,-0.008963085,0.008192808,0.015841635,0.008267679,0.0067013493,-0.5052011,2017-01-03 11:22:59,NaN
-0.20111294,0.076614454,9.825804,-8.462328E-4,-2.6912888E-4,0.0048013865,67.0,-0.19939533,0.075962275,9.804328,-0.00490988,-0.02148088,0.015942223,0.008412275,0.0068994244,-0.49675852,2017-01-03 11:23:00,NaN
-0.19153613,0.08619126,9.825804,0.0021992016,0.0011357316,0.08453682,67.0,-0.19055584,0.077865556,9.804489,-1.2902346E-4,0.017476873,0.029401295,0.008391618,0.0063045886,-0.512862,2017-01-03 11:23:01,NaN
-0.21068975,0.08619126,9.825804,-0.008239026,0.0036297597,0.41462624,63.0,-0.19407994,0.0829851,9.8043785,-0.0102252755,-0.001263022,0.015891513,0.008765762,0.0062445262,-0.52074283,2017-01-03 11:23:02,NaN
-0.21068975,0.08619126,9.80665,-0.0018662477,-9.90992E-4,0.14466876,63.0,-0.19752534,0.07504361,9.804374,0.006840478,0.0066784746,0.029516848,0.008388281,0.006761251,-0.50490856,2017-01-03 11:23:03,NaN
-0.20111294,0.095768064,9.816227,5.02934E-4,-5.4458993E-5,-0.0348666,63.0,-0.18919808,0.08187273,9.804482,-0.0014868029,-0.013770992,0.0157876,0.008569963,0.0060865805,-0.518251,2017-01-03 11:23:04,NaN
-0.21068975,0.076614454,9.80665,0.0012766877,0.002325982,0.14984128,67.0,-0.19160175,0.080800846,9.804446,-0.012703466,-0.012699109,0.0022038294,0.008464552,0.0063850353,-0.5015736,2017-01-03 11:23:05,NaN
-0.19153613,0.08619126,9.816227,5.9280166E-4,-0.0026492777,0.0040585427,67.0,-0.19271496,0.08053681,9.804426,0.0020301095,0.0011852675,0.0022246125,0.008483135,0.006438586,-0.50180876,2017-01-03 11:23:06,NaN
-0.19153613,0.08619126,9.80665,-0.0010871358,2.732355E-4,-0.065863326,63.0,-0.19533242,0.080044605,9.8043785,0.0046475595,0.0016774805,0.0022719975,0.008524827,0.0065712826,-0.50133586,2017-01-03 11:23:07,NaN
-0.20111294,0.08619126,9.816227,0.003647819,-7.766536E-4,-0.11424348,63.0,-0.19542614,0.07756044,9.804397,0.004741278,0.0041616466,0.015874056,0.008434393,0.006617602,-0.5035235,2017-01-03 11:23:08,NaN
-0.19153613,0.08619126,9.816227,-0.002349706,5.210777E-5,0.26921758,63.0,-0.19835232,0.06892894,9.804402,0.0076674726,0.012793145,0.015868237,0.008237806,0.006839487,-0.51704043,2017-01-03 11:23:09,NaN
-0.20111294,0.076614454,9.797073,0.0024157574,9.166932E-4,-0.032285705,63.0,-0.1990262,0.07766836,9.804322,0.008341323,0.004053718,0.015948044,0.008547213,0.006753716,-0.5055159,2017-01-03 11:23:10,NaN
-0.20111294,0.076614454,9.816227,-0.006645661,1.07453016E-4,0.20671152,59.0,-0.19958375,0.07787969,9.80431,0.0088988785,-0.009777954,0.015960513,0.008637073,0.006688188,-0.51397544,2017-01-03 11:23:11,NaN
-0.22026655,0.08619126,9.816227,-5.81223E-4,7.471337E-5,0.027180038,59.0,-0.19882864,0.076685466,9.804335,-0.0054765674,0.018656965,0.015936404,0.008439009,0.0068448414,-0.4979092,2017-01-03 11:23:12,NaN
-0.20111294,0.076614454,9.825804,-9.4219536E-4,1.6445953E-4,0.07125605,56.0,-0.19430432,0.079447724,9.804403,0.0036194636,-0.011345985,0.002247058,0.008548241,0.0064414972,-0.5114356,2017-01-03 11:23:13,NaN
-0.20111294,0.076614454,9.816227,-3.6368903E-4,6.7741587E-4,0.067123294,59.0,-0.18992339,0.08230471,9.804465,-7.6147617E-4,-0.014202967,0.002184709,0.008516807,0.0062333057,-0.5055597,2017-01-03 11:23:14,NaN
-0.21068975,0.08619126,9.854534,-0.0,0.0,0.0,59.0,-0.19647193,0.07556181,9.804391,0.0057870788,0.006160283,0.029500222,0.008385775,0.006699279,-0.50514203,2017-01-03 11:23:15,NaN
-0.20111294,0.08619126,9.816227,0.0063829357,-0.0032271012,-0.43951166,56.0,-0.1901482,0.08775693,9.804415,-5.3666905E-4,-0.0060348446,0.015855767,0.008917525,0.005873746,-0.5277253,2017-01-03 11:23:16,NaN
-0.20111294,0.08619126,9.80665,0.0,-0.0,-0.0,56.0,-0.19183657,0.08464793,9.804409,0.014772051,-0.002925844,0.015861588,0.008709266,0.006201216,-0.5110944,2017-01-03 11:23:17,NaN
-0.17238252,0.08619126,9.816227,-0.0049847015,0.002880257,0.2538008,59.0,-0.16991408,0.096072316,9.804708,0.0064699175,-7.298795E-4,-0.011677553,0.008625357,0.004965659,-0.508809,2017-01-03 11:23:18,NaN
-0.17238252,0.095768064,9.80665,-0.0010714581,0.0016086249,0.05957106,63.0,-0.17600784,0.0940487,9.804619,0.012563662,0.0012937288,-0.011589433,0.008630619,0.00538957,-0.49844489,2017-01-03 11:23:19,NaN
-0.18195933,0.095768064,9.816227,8.4827706E-4,-0.0012549832,0.04499186,63.0,-0.17545396,0.09708063,9.8046,-0.015230901,-0.0017382057,-0.011569481,0.008763185,0.0052670958,-0.50051576,2017-01-03 11:23:20,NaN
-0.19153613,0.10534488,9.787497,-0.0032108568,-0.003733628,0.102769785,56.0,-0.16775936,0.09760146,9.804729,0.0043151877,-0.0022590277,-0.03894069,0.008783211,0.0045593847,-0.5354389,2017-01-03 11:23:21,NaN
-0.18195933,0.10534488,9.787497,9.4456525E-5,0.003745789,0.012363381,63.0,-0.16570993,0.09912262,9.8047495,-0.011354584,-0.0037801876,-0.011719118,0.008644529,0.0047123265,-0.5077788,2017-01-03 11:23:22,NaN
-0.19153613,0.095768064,9.844957,-0.0014587771,1.7746458E-4,0.065856464,59.0,-0.1790413,0.09109854,9.804592,-0.011643573,0.004243889,0.015677864,0.008549411,0.0056411745,-0.4941331,2017-01-03 11:23:23,NaN
-0.20111294,0.08619126,9.80665,-0.004486198,0.004925639,0.18401006,59.0,-0.18217844,0.094737835,9.804501,-0.00850643,6.0459046E-4,0.0021497938,0.008955805,0.0054234453,-0.51988,2017-01-03 11:23:24,NaN
-0.17238252,0.095768064,9.797073,-5.936782E-4,7.1526004E-4,0.009721285,59.0,-0.17251477,0.09759335,9.8046465,0.022690944,-0.0022509159,-0.011616866,0.00873616,0.005080895,-0.50481385,2017-01-03 11:23:25,NaN
-0.19153613,0.10534488,9.797073,-9.5624884E-4,2.0710124E-4,0.032374144,63.0,-0.17633528,0.09635697,9.804592,-7.292365E-4,-0.0010145417,-0.011561999,0.008817384,0.0052183815,-0.5109315,2017-01-03 11:23:26,NaN
-0.18195933,0.08619126,9.80665,-0.0011098598,0.0026435736,0.018043444,63.0,-0.17881608,0.093586035,9.804573,0.0017515653,0.0017564038,-0.011542879,0.008723538,0.005458944,-0.5050562,2017-01-03 11:23:27,NaN
-0.17238252,0.095768064,9.797073,-1.4656894E-4,-0.0051932256,0.046288468,59.0,-0.16566171,0.09878392,9.804754,0.0022175333,-0.003441483,-0.011724106,0.008618152,0.004737666,-0.50591063,2017-01-03 11:23:28,NaN
-0.17238252,0.095768064,9.80665,-9.6783764E-4,-0.0034383063,0.03434145,59.0,-0.17113061,0.09843448,9.804663,0.021306796,-0.0030920496,0.001986855,0.008722874,0.0050238846,-0.50228435,2017-01-03 11:23:29,NaN
-0.18195933,0.095768064,9.787497,0.0046319654,-0.0022974962,-0.3198613,63.0,-0.16282815,0.09767859,9.804812,-0.014236368,-0.0023361521,-0.011782299,0.008578218,0.0044885986,-0.52128196,2017-01-03 11:23:30,NaN
-0.19153613,0.10534488,9.797073,-0.0026225853,0.005271881,0.19208722,56.0,-0.16787526,0.09798667,9.804724,-0.022809604,-0.0026442343,-0.011693348,0.008645672,0.004845838,-0.50688326,2017-01-03 11:23:31,NaN
-0.18195933,0.095768064,9.787497,-0.0013948177,0.0012669035,0.12954287,59.0,-0.16488576,0.09800465,9.804773,-0.012178748,-0.0026622114,0.0018762893,0.00857835,0.004697274,-0.50856197,2017-01-03 11:23:32,NaN
-0.19153613,0.10534488,9.797073,-0.0019625544,0.00430898,-0.022407638,59.0,-0.16432168,0.09986706,9.804765,-0.026363185,-0.0045246216,-0.011734913,0.008576995,0.0047500446,-0.4959274,2017-01-03 11:23:33,NaN
-0.17238252,0.095768064,9.797073,-0.0011343312,0.0030640299,0.043276258,59.0,-0.16959901,0.097542934,9.804699,-0.021085847,-0.0022004978,-0.01166924,0.008598751,0.005057488,-0.49441135,2017-01-03 11:23:34,NaN
-0.17238252,0.11492168,9.787497,-0.0038000795,0.0011609872,0.21974932,56.0,-0.17208037,0.09800912,9.804651,0.008636194,0.010953655,-0.011621023,0.0087697515,0.0050049573,-0.50935245,2017-01-03 11:23:35,NaN
-0.16280572,0.095768064,9.797073,-0.0031341503,0.0065897875,0.14808561,56.0,-0.17455618,0.09637758,9.804623,-0.0025083392,-0.0010351557,0.0020267582,0.008735109,0.005202196,-0.5047984,2017-01-03 11:23:36,NaN
-0.18195933,0.10534488,9.787497,-0.0021938796,0.004467423,0.10136567,52.0,-0.16607414,0.10161957,9.804717,-0.010990376,-0.006277142,0.001932819,0.008676584,0.0048237173,-0.49188444,2017-01-03 11:23:37,NaN
-0.18195933,0.095768064,9.797073,-0.0052274396,-3.5307556E-4,0.27574065,52.0,-0.17504746,0.098483354,9.804593,-0.0020170552,-0.0031409154,-0.0115636615,0.008891213,0.005081812,-0.5133222,2017-01-03 11:23:38,NaN
-0.18195933,0.10534488,9.797073,-0.0024901596,0.005189276,0.09488414,56.0,-0.17425327,0.09590071,9.804633,-0.016431587,-5.5827684E-4,-0.011603565,0.008647866,0.00529776,-0.4951556,2017-01-03 11:23:39,NaN
-0.18195933,0.10534488,9.816227,1.2131978E-4,2.247349E-4,0.035546515,56.0,-0.17668246,0.097066626,9.804579,0.013238277,-0.0017241966,-0.011548698,0.008785284,0.0053359256,-0.49911186,2017-01-03 11:23:40,NaN
-0.17238252,0.10534488,9.77792,-0.0019796973,-5.779592E-4,0.13281183,52.0,-0.1661412,0.097508706,9.804757,0.002697023,-0.0021662707,-0.011727431,0.0086695785,0.0046172836,-0.52324903,2017-01-03 11:23:41,NaN
-0.16280572,0.10534488,9.797073,-0.0016273597,-0.0021561387,0.045200728,48.0,-0.16855663,0.09740882,9.804718,-0.008507885,-0.002066389,-0.01168836,0.008639479,0.00488791,-0.50716376,2017-01-03 11:23:42,NaN
-0.18195933,0.095768064,9.787497,-4.8507836E-6,0.0033793638,-0.07365152,52.0,-0.17275058,0.09493532,9.80467,-0.0043139406,4.071065E-4,-0.011640144,0.008579788,0.0052349116,-0.49724737,2017-01-03 11:23:43,NaN
-0.20111294,0.10534488,9.816227,-0.002760995,-0.002996011,0.30425072,56.0,-0.17525534,0.09696433,9.804605,-0.015429521,-0.0016218988,-0.011574469,0.0088508995,0.005094844,-0.5167952,2017-01-03 11:23:44,NaN
-0.18195933,0.08619126,9.816227,-0.0012297742,2.3280364E-4,0.011894732,63.0,-0.17411199,0.09397777,9.804655,0.010667823,-0.012255684,0.0156155145,0.008559821,0.005338913,-0.4952714,2017-01-03 11:23:45,NaN
-0.19153613,0.08619126,9.797073,0.0030834237,-7.662813E-4,-0.014299722,56.0,-0.1753228,0.09226307,9.804648,-0.015362067,0.0030793587,0.015622165,0.008496225,0.0054642945,-0.4923636,2017-01-03 11:23:46,NaN
-0.16280572,0.10534488,9.787497,-0.0014194616,0.0035057028,0.064667426,59.0,-0.16948433,0.09594137,9.804717,0.006040164,0.026641756,-0.011686698,0.008511157,0.005115671,-0.49207383,2017-01-03 11:23:47,NaN
-0.17238252,0.11492168,9.77792,0.0034067805,-0.0025065863,-0.27709496,52.0,-0.15891811,0.09800132,9.8048725,-0.004526057,0.010961461,-0.011842985,0.008387354,0.004503207,-0.50159717,2017-01-03 11:23:48,NaN
-0.17238252,0.11492168,9.797073,-0.0036566644,0.007190085,0.06277243,52.0,-0.16303742,0.10424584,9.804742,-0.027647445,-0.008903411,-0.025331985,0.008699312,0.004656234,-0.48856208,2017-01-03 11:23:49,NaN
-0.17238252,0.095768064,9.797073,2.7152547E-4,0.0023112078,-0.05813896,59.0,-0.16405754,0.10102462,9.804757,6.1337126E-4,0.007938158,-0.011727431,0.008575041,0.004793286,-0.48740005,2017-01-03 11:23:50,NaN
-0.16280572,0.047884032,9.797073,-0.001419707,0.0091910325,0.13187057,59.0,-0.17047167,0.098535314,9.804673,-0.020213196,-0.044053923,-0.011643468,0.008697886,0.0050140857,-0.50011355,2017-01-03 11:23:51,NaN
-0.16280572,0.095768064,9.80665,-0.0017249583,3.0208824E-4,0.08298957,52.0,-0.16885883,0.09451262,9.804742,0.019035008,8.298068E-4,-0.0117116375,0.008442157,0.005107068,-0.49379477,2017-01-03 11:23:52,NaN
-0.17238252,0.10534488,9.797073,0.0025508073,-0.0034242368,-0.032475416,56.0,-0.17754206,0.09274088,9.804605,0.014097889,0.0026015576,-0.011574469,0.008538825,0.005603456,-0.4869967,2017-01-03 11:23:53,NaN
-0.17238252,0.10534488,9.797073,-0.002040058,6.929396E-4,0.061338272,63.0,-0.17048822,0.096159704,9.804696,0.007044047,-8.1726554E-4,-0.011666746,0.008537108,0.00516954,-0.49056616,2017-01-03 11:23:54,NaN
-0.17238252,0.10534488,9.77792,8.7127363E-4,-0.0017549274,-0.015315997,56.0,-0.17883511,0.09324968,9.804576,0.015390929,0.0020927507,-0.011546204,0.008635365,0.0055843494,-0.4934771,2017-01-03 11:23:55,NaN
-0.19153613,0.10534488,9.797073,0.0035660504,-0.0014124117,-0.26328963,63.0,-0.17464606,0.094931304,9.804636,-0.0024184529,0.014031474,-0.011606059,0.008730287,0.005148715,-0.5141583,2017-01-03 11:23:56,NaN
-0.18195933,0.10534488,9.797073,0.0015721443,-1.3700806E-4,-0.049530055,63.0,-0.17280212,0.096846424,9.80465,-0.0042623985,-0.0015039878,-0.011620192,0.008623433,0.005258584,-0.4902213,2017-01-03 11:23:57,NaN
-0.17238252,0.095768064,9.787497,-0.0017563198,0.0034394655,0.042950593,63.0,-0.17445116,0.09426041,9.804645,0.0110069895,0.0010820279,0.002005144,0.008533232,0.005422566,-0.48756057,2017-01-03 11:23:58,NaN
-0.18195933,0.095768064,9.797073,0.0055367504,-0.0019418848,-0.2908782,63.0,-0.16624156,0.09738852,9.804758,-0.010822969,-0.0020460864,-0.0117282625,0.008594435,0.0047584046,-0.5100012,2017-01-03 11:23:59,NaN
-0.18195933,0.10534488,9.787497,-0.00115983,-0.0011625428,0.03160162,59.0,-0.17771849,0.09222739,9.804606,6.5397605E-4,0.0031150342,-0.011576132,0.008551981,0.005575834,-0.49192333,2017-01-03 11:24:00,NaN
-0.16280572,0.11492168,9.787497,-0.0028640581,0.0036835952,0.12583034,59.0,-0.17206721,0.09649611,9.804666,0.022243382,0.0124666635,-0.011635987,0.008705644,0.005039149,-0.5098001,2017-01-03 11:24:01,NaN
-0.18195933,0.10534488,9.797073,0.0063509946,-0.0015010819,-0.25954214,74.0,-0.17290291,0.100406446,9.804611,-0.004161601,-0.005064012,-0.011581951,0.008822074,0.005109187,-0.49663213,2017-01-03 11:24:02,NaN
-0.16280572,0.095768064,9.797073,-6.807424E-4,0.0047861617,6.863712E-4,56.0,-0.17153057,0.09902999,9.80465,-0.0055339416,-0.003687554,-0.011620192,0.008675476,0.005169734,-0.4879872,2017-01-03 11:24:03,NaN
-0.18195933,0.10534488,9.797073,0.0032592167,-0.0014357351,-0.11064427,48.0,-0.17813101,0.09880551,9.804534,0.0283072,-0.0034630778,-0.011504638,0.008832954,0.0054639084,-0.48849744,2017-01-03 11:24:04,NaN
-0.18195933,0.10534488,9.797073,0.0014135301,0.002605271,-0.11374305,44.0,-0.17177957,0.09784254,9.804658,0.0083353985,0.011120244,-0.011628505,0.0086750295,0.0051330584,-0.49576584,2017-01-03 11:24:05,NaN
-0.18195933,0.10534488,9.797073,0.0047084587,-4.4487635E-4,-0.31600553,44.0,-0.17016837,0.09919119,9.804672,0.0067241974,-0.003848752,-0.025262155,0.008668188,0.00507202,-0.49131805,2017-01-03 11:24:06,NaN
-0.18195933,0.095768064,9.787497,-0.0041579343,6.834316E-4,0.17748804,41.0,-0.17574514,0.09648854,9.804601,-0.0013193828,-0.0011461047,-0.011571144,0.008785782,0.005226238,-0.5072971,2017-01-03 11:24:07,NaN
-0.18195933,0.095768064,9.797073,-0.0018909575,0.0025954905,0.16634521,41.0,-0.17636195,0.09621284,9.804592,-7.025694E-4,-8.704116E-4,0.0020583484,0.008775044,0.0052847634,-0.504912,2017-01-03 11:24:08,NaN
-0.17238252,0.11492168,9.787497,0.00124839,-0.0035248632,-0.010257981,41.0,-0.17667629,0.09645454,9.804584,0.013232121,0.012508242,-0.011553686,0.008683376,0.0054716347,-0.4871022,2017-01-03 11:24:09,NaN
-0.18195933,0.10534488,9.797073,-0.003939775,-5.645641E-4,0.17099364,44.0,-0.17111272,0.09884533,9.804659,-0.0059517967,-0.0035028968,0.0019910114,0.008765332,0.004969072,-0.50657505,2017-01-03 11:24:10,NaN
-0.19153613,0.10534488,9.787497,0.0042822342,-0.0027317884,-0.1699154,41.0,-0.18500006,0.09096326,9.804484,0.007935547,0.0043791733,-0.0114539275,0.008759949,0.005809883,-0.5039472,2017-01-03 11:24:11,NaN
-0.17238252,0.11492168,9.787497,-6.0259603E-4,0.0034310694,0.08478295,41.0,-0.1820361,0.09408328,9.804508,-0.008648768,0.0012591576,0.0021414806,0.008720148,0.0057552597,-0.48849857,2017-01-03 11:24:12,NaN
-0.17238252,0.095768064,9.787497,8.9434313E-4,-0.005651292,-0.10525051,44.0,-0.1789142,0.095252246,9.804555,0.015470021,0.013710527,-0.0115254205,0.008716056,0.00555337,-0.49189028,2017-01-03 11:24:13,NaN
-0.16280572,0.10534488,9.77792,2.4751434E-4,-0.0030898862,-0.006170499,44.0,-0.17418666,0.09584074,9.804635,-0.002877848,-0.014118659,-0.011605228,0.008608515,0.0053530447,-0.4894326,2017-01-03 11:24:14,NaN
-0.18195933,0.095768064,9.797073,0.004646336,-0.0024595968,-0.26757726,41.0,-0.17812097,0.09178816,9.804604,0.0010564519,0.0035542762,-0.011573638,0.008529161,0.005625115,-0.4898418,2017-01-03 11:24:15,NaN
-0.17238252,0.095768064,9.787497,-0.004267553,0.001234265,0.13594791,41.0,-0.17717062,0.09130026,9.8046255,0.013726445,0.0040421765,-0.038835946,0.008525338,0.0055314507,-0.49634787,2017-01-03 11:24:16,NaN
-0.18195933,0.095768064,9.797073,-0.0058507696,0.0022470804,0.09294741,48.0,-0.17773567,0.08762999,9.804647,0.014291496,0.0077124415,0.00200265,0.008349444,0.0056902543,-0.4920966,2017-01-03 11:24:17,NaN
-0.17238252,0.095768064,9.80665,-0.0013512627,-1.1767565E-4,-0.02124043,44.0,-0.16993023,0.09857654,9.804683,0.020106409,-0.0032341012,0.0019677347,0.008595051,0.0051440587,-0.4845082,2017-01-03 11:24:18,NaN
-0.19153613,0.095768064,9.797073,-0.0038633298,3.2104162E-4,0.26215455,48.0,-0.17733848,0.0962228,9.804574,2.739719E-4,-8.803679E-4,-0.011544541,0.008817856,0.0052989237,-0.50770766,2017-01-03 11:24:19,NaN
-0.17238252,0.095768064,9.787497,0.005464441,-2.495043E-4,-0.22090767,48.0,-0.17287534,0.09560156,9.804661,0.009431182,-2.5913154E-4,-0.038871694,0.008627651,0.005198354,-0.49977994,2017-01-03 11:24:20,NaN
-0.20111294,0.076614454,9.80665,-0.0012004954,0.002450791,0.019339655,44.0,-0.19033991,0.08583317,9.804428,-3.4494587E-4,-0.017731434,0.015842466,0.00857406,0.006311099,-0.49044296,2017-01-03 11:24:21,NaN
-0.19153613,0.095768064,9.797073,-1.3097929E-4,-8.730468E-4,0.048575398,44.0,-0.19081774,0.08827357,9.804397,1.328943E-4,0.007068864,-0.011366639,0.008687171,0.0062813973,-0.4894306,2017-01-03 11:24:22,NaN
-0.19153613,0.08619126,9.816227,0.0014937897,0.0011438044,-0.15261196,44.0,-0.18553449,0.08963196,9.804485,-0.0051503656,0.005710474,-0.01145559,0.00865308,0.005958646,-0.49486798,2017-01-03 11:24:23,NaN
-0.17238252,0.08619126,9.816227,0.0030681405,-0.0020034064,-0.21297735,44.0,-0.18918905,0.089146934,9.8044195,-0.0014958174,-0.0074248505,0.01585078,0.008673832,0.0062033143,-0.48780906,2017-01-03 11:24:24,NaN
-0.18195933,0.095768064,9.797073,0.0040183337,-0.0011721223,-0.067528754,48.0,-0.1856273,0.088169165,9.804497,0.008562778,0.007173266,-0.011467229,0.0086512845,0.005911834,-0.50369483,2017-01-03 11:24:25,NaN
-0.21068975,0.095768064,9.816227,-0.0031746055,0.0011453716,0.06108841,48.0,-0.18790078,0.088752165,9.804448,-0.016404439,0.0065902704,0.015822513,0.00882309,0.0058671823,-0.51641244,2017-01-03 11:24:26,NaN
-0.18195933,0.095768064,9.80665,1.1010748E-4,-7.482802E-4,0.023404937,37.0,-0.1885669,0.09074404,9.804419,0.011502377,0.0045983945,0.0022320943,0.008721171,0.006147651,-0.48663256,2017-01-03 11:24:27,NaN
-0.18195933,0.095768064,9.816227,2.1991483E-4,-0.0017032805,-0.029246507,59.0,-0.19070259,0.08397443,9.804437,1.7730497E-5,0.01136801,0.0022138052,0.008517076,0.00635158,-0.49270663,2017-01-03 11:24:28,NaN
-0.20111294,0.095768064,9.797073,-0.0013466444,-5.9189217E-4,-0.039640896,59.0,-0.19649963,0.082795575,9.804332,0.005814772,-0.014693841,0.0023185515,0.008580692,0.006676834,-0.48881233,2017-01-03 11:24:29,NaN
-0.20111294,0.095768064,9.816227,2.970509E-4,0.0028972414,-0.003919134,41.0,-0.19724807,0.08457596,9.804301,0.0065632197,0.010766477,0.015968826,0.008784658,0.0065252827,-0.5027818,2017-01-03 11:24:30,NaN
-0.19153613,0.08619126,9.797073,-0.0015259989,0.0013875667,-0.035821892,59.0,-0.19224003,0.084095135,9.804405,0.001555166,0.011247292,0.002244564,0.008554147,0.0064259884,-0.4917684,2017-01-03 11:24:31,NaN
-0.20111294,0.08619126,9.825804,-0.0032560804,5.956372E-4,0.07267709,56.0,-0.19404322,0.07691129,9.804428,0.003358364,0.0048107905,0.015842466,0.008319523,0.00663747,-0.49687034,2017-01-03 11:24:32,NaN
-0.20111294,0.095768064,9.825804,0.0058895755,-0.0022533247,-0.33126754,59.0,-0.19254735,0.084407434,9.804397,0.0018624816,0.0109349955,0.015874056,0.008635514,0.0063512973,-0.4998916,2017-01-03 11:24:33,NaN
-0.21068975,0.076614454,9.80665,-0.0024445762,0.0014026392,0.1451504,52.0,-0.18886425,0.085313454,9.804461,-0.015440978,-0.017211715,0.015810044,0.008533998,0.0062312996,-0.49322364,2017-01-03 11:24:34,NaN
-0.18195933,0.095768064,9.797073,9.420648E-4,-3.382834E-4,0.031249246,63.0,-0.19198658,0.08595211,9.804394,0.0013017172,0.009390325,-0.011364145,0.008638779,0.00635658,-0.4929366,2017-01-03 11:24:35,NaN
-0.20111294,0.08619126,9.80665,1.1295593E-4,-0.0020834927,0.012749092,63.0,-0.19915748,0.08038525,9.804298,-0.018768076,0.014957175,0.015972152,0.008615411,0.006759787,-0.49847895,2017-01-03 11:24:36,NaN
-0.20111294,0.08619126,9.80665,-0.00142917,-0.0013290886,-0.013672085,63.0,-0.19592957,0.07966544,9.80437,0.005244707,0.0020566469,0.0022803107,0.008519635,0.00661213,-0.5008474,2017-01-03 11:24:37,NaN
-0.20111294,0.076614454,9.80665,-0.004103832,0.0022941837,0.21875614,63.0,-0.20004377,0.07580108,9.8043165,0.009358897,0.0059210057,0.015953863,0.008428974,0.0069231964,-0.49768573,2017-01-03 11:24:38,NaN
-0.20111294,0.095768064,9.816227,-0.0011449392,-0.0010791457,0.12428697,63.0,-0.19686426,0.07976159,9.804349,0.006179384,0.015580848,0.015921442,0.008460459,0.0067616273,-0.48953944,2017-01-03 11:24:39,NaN
-0.19153613,0.095768064,9.80665,-8.203994E-6,-0.002724875,0.0063449745,63.0,-0.19771796,0.07933487,9.804337,0.020653445,0.016007561,0.01593391,0.008487674,0.0067792083,-0.49272797,2017-01-03 11:24:40,NaN
-0.19153613,0.076614454,9.797073,8.1973034E-5,-0.0010733171,-0.060189825,63.0,-0.1902295,0.08835238,9.804407,-0.014075716,-0.006630297,0.015864082,0.008774714,0.006113974,-0.5032886,2017-01-03 11:24:41,NaN
-0.19153613,0.095768064,9.816227,-0.0062779626,0.0038401315,0.3258751,63.0,-0.18985286,0.08619949,9.804434,-0.014452355,0.009142936,0.015836647,0.008625119,0.006215647,-0.49697867,2017-01-03 11:24:42,NaN
-0.19153613,0.095768064,9.797073,-0.0017583093,6.400608E-4,0.17040126,63.0,-0.18915805,0.091342345,9.8044,-0.0015267972,0.004000091,-0.011370795,0.008836135,0.0060530165,-0.49713174,2017-01-03 11:24:43,NaN
-0.21068975,0.08619126,9.816227,0.0010192903,0.0014152345,0.023857137,67.0,-0.19212587,0.08396841,9.804409,0.0014410024,0.011374023,0.015861588,0.008577094,0.0063820654,-0.49603707,2017-01-03 11:24:44,NaN
-0.20111294,0.076614454,9.80665,0.0,0.0,0.0,67.0,-0.19014615,0.08433118,9.804444,0.013081639,0.011011256,0.0022063234,0.00851431,0.0063241455,-0.49207136,2017-01-03 11:24:45,NaN
-0.19153613,0.095768064,9.797073,-0.0045694388,0.002579397,0.17719157,67.0,-0.18527432,0.08210657,9.804557,-0.0054105422,0.013235861,0.015713612,0.008440353,0.0059607383,-0.5130409,2017-01-03 11:24:46,NaN
-0.18195933,0.08619126,9.787497,0.009182953,-0.0063568745,-0.3614062,67.0,-0.18474755,0.08541955,9.804538,0.007683021,-0.003697465,-0.011507963,0.008490997,0.005967346,-0.50129,2017-01-03 11:24:47,NaN
-0.20111294,0.10534488,9.80665,-7.3284004E-4,4.365963E-4,-0.023905586,67.0,-0.19039086,0.08519192,9.804433,-2.940015E-4,-0.003469839,0.002217962,0.008519624,0.00636599,-0.48670223,2017-01-03 11:24:48,NaN
-0.20111294,0.08619126,9.80665,-0.002115779,0.0019078173,-0.044660985,63.0,-0.1883646,0.0864807,9.80446,0.011300081,-0.0047586123,0.0021905282,0.0085671805,0.0061881333,-0.49237588,2017-01-03 11:24:49,NaN
-0.19153613,0.095768064,9.816227,0.0041816314,1.2336086E-4,-0.11073022,63.0,-0.19294377,0.08356963,9.804397,0.0022589045,0.011772803,0.015874056,0.0086645605,0.0063141016,-0.5074987,2017-01-03 11:24:50,NaN
-0.20111294,0.076614454,9.80665,-0.0029725935,9.6644E-5,0.07913024,67.0,-0.1896033,0.086201474,9.804438,-0.0010815734,-0.004479386,-0.011408204,0.008546814,0.006303453,-0.48694754,2017-01-03 11:24:51,NaN
-0.19153613,0.08619126,9.80665,-2.316654E-4,0.0023360222,-0.043610103,67.0,-0.18858764,0.087020874,9.804452,-0.015717573,0.008321559,0.0021988414,0.008550496,0.006248274,-0.4858856,2017-01-03 11:24:52,NaN
-0.18195933,0.095768064,9.797073,6.774599E-4,-4.192985E-4,-0.059796777,67.0,-0.19172384,0.08445623,9.804412,0.014659329,0.010886207,0.01585826,0.008669393,0.006241098,-0.50714725,2017-01-03 11:24:53,NaN
-0.20111294,0.10534488,9.797073,-7.9992256E-4,7.75207E-4,0.06365444,67.0,-0.18745872,0.08876613,9.804457,-0.0032261584,-0.007044041,-0.011427326,0.008650067,0.0060845776,-0.49297687,2017-01-03 11:24:54,NaN
-0.19153613,0.08619126,9.80665,-0.0024899638,0.003595065,0.062377505,67.0,-0.18589367,0.086846285,9.804503,-0.004791196,0.008496143,0.0021464685,0.0085236095,0.00606613,-0.4926992,2017-01-03 11:24:55,NaN
-0.21068975,0.08619126,9.816227,0.0017213946,0.0013042232,-0.15760411,67.0,-0.19710259,0.079531275,9.804348,0.0064177257,0.0021908141,0.015923103,0.008552071,0.006656558,-0.5019372,2017-01-03 11:24:56,NaN
-0.19153613,0.076614454,9.816227,2.2607135E-4,-0.001954158,0.11848691,63.0,-0.19113636,0.08714084,9.8044,0.0140718445,-0.0054187584,0.015869899,0.008771094,0.0061474023,-0.5069954,2017-01-03 11:24:57,NaN
-0.17238252,0.095768064,9.787497,-0.0022226977,-0.0058885324,0.08518239,63.0,-0.1851681,0.0891638,9.804497,0.021723924,0.00617863,-0.011467229,0.008600034,0.005987474,-0.49150947,2017-01-03 11:24:58,NaN
-0.20111294,0.08619126,9.80665,-6.2274106E-4,-3.1212685E-4,-0.016179472,63.0,-0.18550053,0.09077818,9.804475,-0.0051843324,0.004564252,-0.011445614,0.00864739,0.0060090586,-0.48674965,2017-01-03 11:24:59,NaN
-0.18195933,0.08619126,9.816227,0.0042942287,-0.0016237806,-0.093173295,67.0,-0.19274952,0.08419801,9.804395,0.0020646483,-0.0024759308,0.015875718,0.0085600205,0.006461255,-0.49021992,2017-01-03 11:25:00,NaN
-0.18195933,0.08619126,9.80665,-0.0011192329,0.0022694138,0.09750166,67.0,-0.18841313,0.08438568,9.804478,-0.015892072,-0.016283942,0.015793417,0.00861663,0.0060464926,-0.51224387,2017-01-03 11:25:01,NaN
-0.20111294,0.08619126,9.835381,-0.0043148426,0.0052963546,0.23136199,67.0,-0.18963055,0.0870076,9.80443,-0.0010543216,0.008334834,0.015839972,0.008765337,0.0060282946,-0.5125401,2017-01-03 11:25:02,NaN
-0.19153613,0.10534488,9.80665,-8.0916064E-4,-0.0015669183,0.021210507,67.0,-0.18878216,0.08878157,9.80443,-0.0019027097,-0.007059492,0.0022196246,0.008637232,0.006208527,-0.48637056,2017-01-03 11:25:03,NaN
-0.20111294,0.08619126,9.816227,-0.0014224743,6.218136E-5,0.025798162,67.0,-0.18659572,0.089774966,9.804463,-0.017709494,-0.008052886,0.0021863717,0.008624452,0.006090451,-0.48596838,2017-01-03 11:25:04,NaN
-0.21068975,0.08619126,9.80665,-0.0011896562,6.3662644E-4,-0.1777343,63.0,-0.19302352,0.08069514,9.804419,-0.011281701,0.0010269466,0.0022320943,0.008409877,0.006562679,-0.4900452,2017-01-03 11:25:05,NaN
-0.20111294,0.076614454,9.80665,0.0012543369,-9.698703E-4,-0.039636478,63.0,-0.19560242,0.07755659,9.804393,-0.00870279,0.017785845,0.015877383,0.0084951045,0.0065530487,-0.5108937,2017-01-03 11:25:06,NaN
-0.18195933,0.095768064,9.80665,0.0094018215,-0.0019220519,-0.30580774,63.0,-0.19190998,0.082279615,9.804426,0.0284658,0.013062818,0.002223781,0.008519778,0.006384753,-0.4991429,2017-01-03 11:25:07,NaN
-0.19153613,0.08619126,9.80665,-0.0,0.0,0.0,67.0,-0.19535209,0.0803317,9.804375,0.0046672253,0.01501073,0.0022753228,0.008651672,0.0064142593,-0.516413,2017-01-03 11:25:08,NaN
-0.22026655,0.095768064,9.80665,0.0,0.0,-0.0,67.0,-0.19018652,0.0814802,9.804468,0.013121997,2.4188815E-4,0.0021822152,0.008369834,0.0064222217,-0.48949805,2017-01-03 11:25:09,NaN
-0.20111294,0.08619126,9.80665,-0.0033305439,1.1875423E-5,0.20817053,63.0,-0.18853329,0.08550528,9.804464,-0.00215156,-0.0037831946,0.0021855405,0.008605904,0.006112053,-0.50331396,2017-01-03 11:25:10,NaN
-0.20111294,0.076614454,9.825804,0.0013334958,-1.252959E-4,0.008350549,63.0,-0.18884559,0.08354247,9.804475,-0.0018392826,0.011799958,0.0021747332,0.008405731,0.0063408297,-0.4864179,2017-01-03 11:25:11,NaN
-0.19153613,0.10534488,9.816227,0.0072149355,-0.0026792197,-0.29429945,63.0,-0.18755163,0.089474835,9.804448,-0.0031332453,-0.0077527477,0.015822513,0.008852478,0.0058222357,-0.5174447,2017-01-03 11:25:12,NaN
-0.20111294,0.095768064,9.797073,-0.0015623335,-0.0027542769,0.009237992,67.0,-0.19233252,0.08613523,9.804386,0.0016476633,0.0092072,-0.011355832,0.008615419,0.0064215898,-0.48746005,2017-01-03 11:25:13,NaN
-0.21068975,0.095768064,9.797073,-0.0034656024,0.0030909025,0.122178026,63.0,-0.1910304,0.0895503,9.804381,3.455304E-4,0.005792125,-0.011350844,0.008820501,0.0061581708,-0.49940506,2017-01-03 11:25:14,NaN
-0.20111294,0.08619126,9.80665,-0.0023049903,-0.0024055624,0.03471075,63.0,-0.18851104,0.08735814,9.804449,-0.002173824,0.00798429,0.002200504,0.00856715,0.0062316647,-0.48637936,2017-01-03 11:25:15,NaN
-0.20111294,0.095768064,9.80665,-0.0020900979,0.0012566659,0.087721266,63.0,-0.18616539,0.0844875,9.804519,-0.0045194845,-0.01638576,0.015751852,0.008386532,0.006190959,-0.4871502,2017-01-03 11:25:16,NaN
-0.20111294,0.095768064,9.816227,-0.0046774675,7.3110487E-4,0.16809136,63.0,-0.18960364,0.08510579,9.804448,-0.0010812356,0.010236635,-0.011418181,0.008619867,0.006163744,-0.5038872,2017-01-03 11:25:17,NaN
-0.19153613,0.095768064,9.80665,3.3674703E-4,-0.0023457445,0.094399706,63.0,-0.19339064,0.08526483,9.804374,0.029946472,0.023697946,-0.011343361,0.008616669,0.006472139,-0.48930386,2017-01-03 11:25:18,NaN
-0.20111294,0.076614454,9.816227,-0.002217609,0.0019194531,0.08784197,67.0,-0.19217,0.08545227,9.804395,0.0014851273,-0.017350532,0.015875718,0.008637164,0.006355665,-0.4951146,2017-01-03 11:25:19,NaN
-0.19153613,0.08619126,9.797073,0.004876392,-0.0014835215,-0.12694557,67.0,-0.19466966,0.07891987,9.8044,0.00398479,0.002802211,0.015869899,0.008372942,0.00667917,-0.490153,2017-01-03 11:25:20,NaN
-0.19153613,0.08619126,9.80665,0.0020810966,-7.081447E-4,-0.12234394,63.0,-0.18925169,0.086676635,9.804441,-0.015053517,-0.004954551,0.0022088173,0.008616834,0.006196692,-0.4949916,2017-01-03 11:25:21,NaN
-0.22026655,0.08619126,9.825804,-0.0032115632,5.8052386E-4,0.0847917,63.0,-0.199491,0.07590828,9.804327,0.008806134,-0.0078065437,0.015943056,0.008334156,0.0069991564,-0.48697165,2017-01-03 11:25:22,NaN
-0.22026655,0.076614454,9.835381,0.003136834,-0.0029782746,0.038514018,63.0,-0.20437224,0.07062244,9.804267,6.702518E-5,0.011099649,0.016003743,0.008231461,0.0073349373,-0.48833612,2017-01-03 11:25:23,NaN
-0.21068975,0.08619126,9.825804,0.003744677,-5.4520704E-5,-0.17465489,63.0,-0.19145313,0.08477537,9.804415,7.682696E-4,-0.016673636,0.015855767,0.008662062,0.006240926,-0.5051603,2017-01-03 11:25:24,NaN
-0.19153613,0.076614454,9.816227,1.9715632E-4,0.0013007098,-0.041411176,63.0,-0.19459057,0.078692354,9.804403,0.0039056973,-0.010590621,0.015867405,0.008406309,0.006624053,-0.4960971,2017-01-03 11:25:25,NaN
-0.19153613,0.08619126,9.816227,0.0021936134,-0.0029234928,-0.022608902,63.0,-0.18885125,0.08253045,9.804484,-0.0018336063,0.012811987,-0.011454758,0.008558054,0.006098414,-0.5138217,2017-01-03 11:25:26,NaN
-0.21068975,0.076614454,9.816227,-0.001830533,2.2086178E-4,0.008253846,63.0,-0.19801942,0.0747338,9.804367,-0.0062857927,-0.006632063,0.015903983,0.008249593,0.006957693,-0.48751038,2017-01-03 11:25:27,NaN
-0.19153613,0.095768064,9.80665,0.002066957,0.0020019356,0.041904893,63.0,-0.1922538,0.08301659,9.804414,0.0015689346,-0.014914849,0.015856598,0.008478105,0.00649104,-0.48792967,2017-01-03 11:25:28,NaN
-0.19153613,0.08619126,9.797073,0.0014751586,8.7446725E-4,-0.022838134,63.0,-0.18999869,0.087528095,9.804419,-6.861637E-4,-0.005806004,-0.011389085,0.008627151,0.0062724273,-0.4885366,2017-01-03 11:25:29,NaN
-0.19153613,0.095768064,9.80665,0.0013358169,8.713541E-4,-0.07451601,67.0,-0.192546,0.08391603,9.8044,0.0018611307,-0.015814293,0.002249552,0.008541082,0.0064610057,-0.4900418,2017-01-03 11:25:30,NaN
-0.19153613,0.095768064,9.80665,8.579767E-4,-0.0016586275,-0.099812284,67.0,-0.19232902,0.083173595,9.804412,-0.011976192,-0.015071859,0.0022387449,0.008527379,0.0064372914,-0.4933772,2017-01-03 11:25:31,NaN
-0.19153613,0.08619126,9.797073,-0.0013462584,-0.0021938088,0.009420309,67.0,-0.1889168,0.0819296,9.804489,0.011852286,-2.0751177E-4,-0.011458915,0.008349192,0.006366267,-0.48827425,2017-01-03 11:25:32,NaN
-0.20111294,0.08619126,9.816227,-0.0025721884,0.0013051069,-0.010530424,67.0,-0.19777103,0.076748654,9.804356,0.007086172,0.018593777,-0.011325904,0.008317666,0.006915178,-0.48555556,2017-01-03 11:25:33,NaN
-0.19153613,0.095768064,9.80665,-0.0,0.0,-0.0,67.0,-0.19458576,0.07941143,9.8043995,0.0039008912,0.015931001,0.0022512146,0.008355322,0.006709951,-0.48527476,2017-01-03 11:25:34,NaN
-0.19153613,0.076614454,9.80665,0.0010906495,-2.8043083E-5,-0.00970449,67.0,-0.19101925,0.08666499,9.804407,3.343855E-4,0.008677443,0.015864082,0.008578827,0.006387098,-0.48368156,2017-01-03 11:25:35,NaN
-0.19153613,0.08619126,9.816227,-0.004302753,5.4488174E-4,0.1959987,67.0,-0.18813872,0.08712304,9.804459,-0.0025461384,0.008219398,0.0021921908,0.008659632,0.006063763,-0.50225496,2017-01-03 11:25:36,NaN
-0.20111294,0.095768064,9.797073,-0.0019941903,-0.0014725077,0.108498126,67.0,-0.19243552,0.08575662,9.804387,0.0017506562,-0.017654886,0.0158832,0.008630758,0.0063957875,-0.49148768,2017-01-03 11:25:37,NaN
-0.18195933,0.095768064,9.80665,0.008034847,-0.0031879432,-0.31414393,59.0,-0.18296823,0.090125114,9.804529,0.00590371,0.005217319,-0.011498818,0.008594763,0.0058551566,-0.4925773,2017-01-03 11:25:38,NaN
-0.19153613,0.095768064,9.816227,-0.0015040993,-0.0010121474,-0.004533773,63.0,-0.18892638,0.09110988,9.804407,0.01186186,-0.023008145,0.01586325,0.008746613,0.006154272,-0.48666403,2017-01-03 11:25:39,NaN
-0.20111294,0.095768064,9.816227,-0.0033583804,3.9763516E-4,-0.0501578,59.0,-0.18416755,0.08850229,9.804522,-0.0065173157,-0.020400548,-0.011492168,0.0085356105,0.0059738844,-0.4900547,2017-01-03 11:25:40,NaN
-0.18195933,0.095768064,9.787497,-0.0,-0.0,0.0,59.0,-0.18527086,0.09170865,9.804471,0.00820635,0.003633778,-0.011441457,0.008711976,0.005933606,-0.49097472,2017-01-03 11:25:41,NaN
-0.21068975,0.095768064,9.787497,0.0044651395,2.111295E-4,-0.19330086,59.0,-0.18588036,0.08768429,9.804497,-0.00480451,-0.0059622014,-0.011467229,0.008539911,0.00607348,-0.4897457,2017-01-03 11:25:42,NaN
-0.19153613,0.08619126,9.797073,0.0,-0.0,0.0,67.0,-0.1906825,0.087597266,9.804405,-2.3640664E-6,-0.0058751786,-0.011375784,0.00861908,0.0063396273,-0.48464084,2017-01-03 11:25:43,NaN
-0.20111294,0.10534488,9.80665,-0.004173379,0.0036980705,0.19621055,63.0,-0.18747927,0.09094199,9.804437,-0.003205596,-0.009219904,0.015834153,0.008790195,0.0059678303,-0.49921122,2017-01-03 11:25:44,NaN
-0.18195933,0.08619126,9.787497,-0.0025918377,0.0033067914,-0.027299952,67.0,-0.192169,0.08839634,9.804369,0.015104474,0.0069460883,-0.011339204,0.008739489,0.0063203005,-0.49123824,2017-01-03 11:25:45,NaN
-0.19153613,0.095768064,9.80665,-0.0030998786,0.002223482,0.1722478,67.0,-0.19047023,0.08597744,9.804423,-2.1463646E-4,0.009364989,0.0022271064,0.008601763,0.006288697,-0.49293438,2017-01-03 11:25:46,NaN
-0.19153613,0.095768064,9.80665,0.002846742,-3.8470514E-4,-0.12767068,63.0,-0.18811537,0.09055109,9.804428,-0.0025694803,0.004791339,-0.01139823,0.008787493,0.0060082674,-0.49897638,2017-01-03 11:25:47,NaN
-0.17238252,0.10534488,9.80665,-9.863278E-4,0.0026567783,0.11877085,67.0,-0.18678012,0.09232285,9.804438,-0.0039047492,0.0030195883,0.002212974,0.008805449,0.0059434143,-0.49511653,2017-01-03 11:25:48,NaN
-0.19153613,0.08619126,9.80665,-9.3694736E-4,0.0039091334,-0.0027717622,63.0,-0.17875656,0.09047124,9.804605,-0.0119283,-0.008749156,0.0020458787,0.00846306,0.005721086,-0.4862553,2017-01-03 11:25:49,NaN
-0.19153613,0.076614454,9.797073,0.0012208861,-0.0010259388,-0.104485065,63.0,-0.19086666,0.08731891,9.804404,1.817993E-4,-0.019217176,0.015866574,0.008652991,0.006297723,-0.49040562,2017-01-03 11:25:50,NaN
-0.18195933,0.10534488,9.80665,-9.4849407E-4,-0.0014242643,-0.0634536,63.0,-0.18879573,0.08934415,9.804426,-0.0018891488,-0.0076220683,0.0022246125,0.0086559225,0.00620455,-0.48542467,2017-01-03 11:25:51,NaN
-0.19153613,0.10534488,9.787497,-0.002426622,0.0015367635,0.10214976,67.0,-0.188915,0.09054211,9.804412,-0.0017698674,0.0048003276,0.0022379134,0.008763271,0.0061076954,-0.49266332,2017-01-03 11:25:52,NaN
-0.19153613,0.08619126,9.797073,-0.0010841272,1.6975427E-8,-0.009705261,56.0,-0.19516222,0.08925776,9.804301,0.00447736,0.006084672,-0.011271869,0.008841106,0.0064476468,-0.48966336,2017-01-03 11:25:53,NaN
-0.21068975,0.08619126,9.816227,0.0038591716,-0.0032363643,-0.1717311,56.0,-0.17971256,0.0915964,9.804576,-0.010972295,0.0037460255,0.0020741434,0.008511122,0.0057739653,-0.48233655,2017-01-03 11:25:54,NaN
-0.18195933,0.095768064,9.816227,-0.0020952295,0.0020833423,0.10307685,63.0,-0.18787089,0.08923662,9.804444,0.010806381,0.006105812,-0.011414025,0.008719995,0.0060355184,-0.49851814,2017-01-03 11:25:55,NaN
-0.21068975,0.10534488,9.825804,-0.0016983355,0.002258471,-0.024736691,48.0,-0.18482317,0.09238353,9.804474,-0.0058617024,-0.010661446,0.056657787,0.008724027,0.005906758,-0.48998275,2017-01-03 11:25:56,NaN
-0.19153613,0.076614454,9.80665,-6.217444E-5,0.0012374315,-0.101714894,48.0,-0.19093323,0.08513642,9.804422,2.4836985E-4,0.010206012,0.0022279376,0.008518122,0.0064081657,-0.484996,2017-01-03 11:25:57,NaN
-0.18195933,0.08619126,9.80665,0.0,-0.0,0.0,48.0,-0.18433848,0.089623354,9.804508,0.0072739595,-0.007901268,0.0021414806,0.00857944,0.0059682652,-0.48855168,2017-01-03 11:25:58,NaN
-0.19153613,0.095768064,9.797073,-0.0,-0.0,0.0,44.0,-0.18747991,0.087894425,9.804464,-0.0032049597,0.00744801,0.0021855405,0.008600091,0.006124085,-0.4912924,2017-01-03 11:25:59,NaN
-0.18195933,0.095768064,9.80665,0.0017135226,3.6191117E-4,0.021211516,48.0,-0.18951942,0.08826606,9.804422,0.012454889,0.0070763715,0.0022279376,0.008617821,0.00627444,-0.48431465,2017-01-03 11:26:00,NaN
-0.18195933,0.095768064,9.80665,-0.0024850273,0.0021633988,0.069319695,48.0,-0.19189107,0.08817111,9.804378,0.0012062193,-0.020069372,0.015893176,0.008672983,0.006381479,-0.4844261,2017-01-03 11:26:01,NaN
-0.20111294,0.10534488,9.816227,0.0049593984,-0.0010477481,-0.15183434,48.0,-0.19055764,0.087658234,9.804407,-1.2720496E-4,-0.005936151,0.01586325,0.008809422,0.0060644494,-0.51131535,2017-01-03 11:26:02,NaN
-0.21068975,0.076614454,9.816227,-0.0015725082,0.0021044589,0.09577202,44.0,-0.19023041,0.08583896,9.80443,-4.544463E-4,-0.01773722,0.015839972,0.008583469,0.0062899007,-0.49208704,2017-01-03 11:26:03,NaN
-0.17238252,0.08619126,9.787497,8.676697E-4,0.0014282246,-0.06798931,44.0,-0.18760283,0.0893809,9.804449,-0.0030820281,-0.0076588155,-0.011419011,0.008649042,0.00612088,-0.4884159,2017-01-03 11:26:04,NaN
-0.21068975,0.08619126,9.816227,-1.8259573E-4,-0.003177419,-0.026101436,48.0,-0.19243121,0.08297187,9.804412,0.0017463566,-0.014870133,0.0022387449,0.008467512,0.0065170024,-0.48618272,2017-01-03 11:26:05,NaN
-0.20111294,0.076614454,9.816227,-4.1228257E-5,0.0014316534,0.02926186,44.0,-0.1922284,0.079292305,9.804445,0.0015435404,-0.011190568,0.015825007,0.008354026,0.006528785,-0.4935533,2017-01-03 11:26:06,NaN
-0.18195933,0.08619126,9.80665,0.0,-0.0,-0.0,44.0,-0.18630926,0.0869977,9.804494,0.0092447465,0.008344726,-0.02508508,0.008503258,0.0061331145,-0.48734486,2017-01-03 11:26:07,NaN
-0.20111294,0.095768064,9.797073,4.6672154E-5,-7.4522017E-4,-0.04605835,44.0,-0.19012608,0.08769234,9.804415,-5.5877696E-4,0.0076500927,0.0022354196,0.008656279,0.0062482497,-0.4911329,2017-01-03 11:26:08,NaN
-0.19153613,0.095768064,9.787497,4.7694726E-4,-3.4161782E-4,-0.039663844,44.0,-0.18865958,0.0867675,9.804452,-0.015645638,0.008574929,0.0021980102,0.008583883,0.006198784,-0.49189347,2017-01-03 11:26:09,NaN
-0.19153613,0.095768064,9.797073,3.619848E-4,-0.0013535249,0.0452597,44.0,-0.1886531,0.08561407,9.804462,-0.0020317722,0.0097283665,-0.011432312,0.008524944,0.0062377835,-0.4908357,2017-01-03 11:26:10,NaN
-0.20111294,0.095768064,9.797073,-7.4556534E-4,-0.0011086543,-0.04782299,41.0,-0.18948038,0.08749308,9.804429,-0.0012044788,0.021469697,-0.01139906,0.008696385,0.006133243,-0.5002862,2017-01-03 11:26:11,NaN
-0.21068975,0.076614454,9.816227,-0.0049082,0.0016456692,0.11788559,44.0,-0.1907079,0.08417015,9.804435,2.3043152E-5,-0.01606841,0.015835814,0.008552143,0.0063114837,-0.49631104,2017-01-03 11:26:12,NaN
-0.18195933,0.08619126,9.80665,-4.3188332E-4,0.001297921,0.05857786,48.0,-0.19140132,0.0859852,9.804405,7.16442E-4,0.009357234,-0.011375784,0.00864694,0.006300511,-0.49588284,2017-01-03 11:26:13,NaN
-0.21068975,0.08619126,9.80665,1.988465E-4,0.0015929282,0.04111201,44.0,-0.19167246,0.083383,9.804423,-0.012632753,-0.0016609124,0.0022271064,0.0084847845,0.0064496915,-0.48858392,2017-01-03 11:26:14,NaN
-0.17238252,0.095768064,9.797073,7.6626864E-4,0.001066049,-0.02759015,44.0,-0.18570131,0.08958631,9.804482,0.008636792,-0.007864222,0.0021672514,0.008617249,0.0060219597,-0.48934746,2017-01-03 11:26:15,NaN
-0.20111294,0.095768064,9.797073,-0.002457064,0.0011188675,0.014397492,48.0,-0.18914525,0.08679091,9.804442,-0.015159952,-0.0050688246,0.002207986,0.00853951,0.0062986086,-0.48386133,2017-01-03 11:26:16,NaN
-0.19153613,0.095768064,9.80665,2.3226718E-4,7.7574176E-4,0.06477288,44.0,-0.1860686,0.08922707,9.804479,-0.004616268,0.0061153593,0.002171408,0.008602473,0.006058583,-0.48819917,2017-01-03 11:26:17,NaN
-0.20111294,0.095768064,9.816227,-7.7288615E-4,7.7103765E-4,0.15033735,48.0,-0.19047992,0.0863706,9.80442,-2.0495936E-4,0.008971833,-0.011390747,0.008686624,0.0061859833,-0.50228226,2017-01-03 11:26:18,NaN
-0.20111294,0.095768064,9.80665,-0.0,0.0,-0.0,41.0,-0.19054025,0.08630385,9.8044195,-1.446237E-4,0.009038579,0.0022304317,0.008592605,0.006318285,-0.4894235,2017-01-03 11:26:19,NaN
-0.20111294,0.08619126,9.80665,-0.0012532306,8.146647E-4,-0.042541154,37.0,-0.18678014,0.08728948,9.804482,-0.0039047103,0.008052952,-0.011453096,0.008525373,0.00615041,-0.48697835,2017-01-03 11:26:20,NaN
-0.20111294,0.08619126,9.816227,-0.004064476,-1.9053664E-4,-0.07013365,41.0,-0.19021682,0.08337703,9.804452,-4.6804617E-4,-0.0016549503,0.01581919,0.008463187,0.0063652648,-0.49062732,2017-01-03 11:26:21,NaN
-0.17238252,0.095768064,9.80665,0.0025407164,-0.0037137263,0.02811364,41.0,-0.18685673,0.08659811,9.804488,-0.0038281248,0.008744318,0.0021622635,0.008484774,0.0061870776,-0.48532245,2017-01-03 11:26:22,NaN
-0.19153613,0.08619126,9.80665,0.0019198835,-4.4481523E-4,-0.01943157,44.0,-0.18638352,0.090032384,9.804465,-0.004301341,0.00531005,-0.011435638,0.00861436,0.0060977135,-0.4836257,2017-01-03 11:26:23,NaN
-0.19153613,0.08619126,9.797073,-0.0013833388,0.002442107,0.04750898,41.0,-0.1874603,0.08894521,9.804455,-0.0032245605,0.006397222,0.0021955161,0.008621063,0.006132481,-0.48769802,2017-01-03 11:26:24,NaN
-0.19153613,0.095768064,9.797073,-1.0337428E-4,-4.2400375E-4,0.016188577,41.0,-0.1829445,0.09087681,9.8045225,-0.007740356,0.004465624,0.015747696,0.00862149,0.0058441414,-0.4916775,2017-01-03 11:26:25,NaN
-0.19153613,0.08619126,9.816227,-1.8065769E-4,0.0010616983,0.018238047,44.0,-0.18781246,0.0866719,9.804468,-0.0028724053,-0.0049498156,0.0021822152,0.008553726,0.0061700437,-0.4912351,2017-01-03 11:26:26,NaN
-0.19153613,0.095768064,9.80665,0.0025537908,-0.0012811742,-0.19608667,44.0,-0.19264099,0.08172254,9.804417,0.001956122,-0.013620802,0.0022329255,0.008487071,0.0064664306,-0.4955509,2017-01-03 11:26:27,NaN
-0.20111294,0.08619126,9.816227,0.0033085744,-0.0010732627,-0.060098886,48.0,-0.18764618,0.07968307,9.804531,-0.0030386697,0.015659355,0.015739383,0.008311233,0.006242898,-0.5011824,2017-01-03 11:26:28,NaN
-0.22026655,0.076614454,9.80665,-6.109041E-5,0.0010027429,-0.09391775,48.0,-0.19096655,0.07643121,9.804493,2.816876E-4,-0.008329476,0.015777621,0.008204226,0.006533734,-0.4947295,2017-01-03 11:26:29,NaN
-0.19153613,0.095768064,9.80665,-1.6477046E-4,0.001807683,0.13245592,44.0,-0.18632692,0.08581133,9.804505,-0.0043579484,0.009531104,0.0021448059,0.008497046,0.0060995724,-0.4939062,2017-01-03 11:26:30,NaN
-0.20111294,0.076614454,9.80665,-0.0036518166,0.0051740524,0.005605265,48.0,-0.18129751,0.08894967,9.80457,-0.009387357,-0.007227587,-0.011540385,0.008362376,0.006007812,-0.47208557,2017-01-03 11:26:31,NaN
-0.19153613,0.095768064,9.797073,-4.64784E-5,-0.0013150276,-0.03842481,48.0,-0.18662336,0.08749886,9.804484,-0.0040615047,0.007843575,-0.011454758,0.008571493,0.006081278,-0.49278384,2017-01-03 11:26:32,NaN
-0.19153613,0.08619126,9.80665,-4.709659E-4,-4.3249363E-4,0.054805767,48.0,-0.18914174,0.08699959,9.8044405,-0.0015431249,-0.005277505,0.0022096487,0.008568449,0.006266429,-0.4866062,2017-01-03 11:26:33,NaN
-0.20111294,0.076614454,9.835381,0.001154554,0.002838406,-0.060909376,48.0,-0.19386885,0.08166393,9.804394,0.0031839947,-0.013562194,0.01587655,0.00850389,0.006537432,-0.49400476,2017-01-03 11:26:34,NaN
-0.19153613,0.076614454,9.80665,0.0027889013,-0.0010680415,-0.21538137,41.0,-0.195195,0.078170255,9.804396,0.004510145,0.017172175,0.0022545399,0.008443529,0.006606862,-0.50197875,2017-01-03 11:26:35,NaN
-0.20111294,0.076614454,9.80665,5.240213E-4,-6.363339E-4,0.04227839,44.0,-0.19980109,0.07500645,9.804327,0.009116217,-0.0069047105,0.015943056,0.008360965,0.0069648144,-0.49434882,2017-01-03 11:26:36,NaN
-0.19153613,0.076614454,9.797073,-0.001227134,0.0020956802,0.0987193,41.0,-0.19328889,0.083296396,9.804391,0.0026040322,-0.0015743123,-0.01136165,0.008563319,0.0064683924,-0.4942287,2017-01-03 11:26:37,NaN
-0.21068975,0.08619126,9.797073,0.0053585772,-0.0033610025,-0.017139882,41.0,-0.19162795,0.082500614,9.804431,9.4309356E-4,0.0128418235,-0.011401554,0.008453148,0.0064582825,-0.489762,2017-01-03 11:26:38,NaN
-0.20111294,0.08619126,9.825804,-0.006339147,0.0055796094,0.2738821,44.0,-0.19091716,0.08305822,9.8044405,2.3230199E-4,-0.0013361326,0.0022096487,0.008633715,0.0061771465,-0.513604,2017-01-03 11:26:39,NaN
-0.18195933,0.08619126,9.797073,-8.338597E-4,-0.0027092113,0.03189303,41.0,-0.19821489,0.07482271,9.804361,0.0075300317,0.020519719,0.002288624,0.008334365,0.0068731084,-0.497065,2017-01-03 11:26:40,NaN
-0.17238252,0.08619126,9.80665,6.905694E-4,1.57837E-4,0.05939784,41.0,-0.1852448,0.0891614,9.804496,-0.005440067,-0.0074393274,0.0021547815,0.008634744,0.005943432,-0.49630234,2017-01-03 11:26:41,NaN
-0.19153613,0.08619126,9.77792,0.0025813056,0.00102734,-0.12888089,41.0,-0.18027869,0.09267511,9.804555,-0.010406178,0.0026673162,-0.0115254205,0.008710781,0.0055629965,-0.50344837,2017-01-03 11:26:42,NaN
-0.19153613,0.095768064,9.787497,-0.001542266,0.0049532354,0.05412471,41.0,-0.18289575,0.08910501,9.804541,-0.0077891177,-0.021003274,-0.011510457,0.008540892,0.0058874195,-0.49157327,2017-01-03 11:26:43,NaN
-0.19153613,0.095768064,9.797073,0.0022773435,0.0012612022,-0.06209362,41.0,-0.1879701,0.085001014,9.804481,-0.0027147667,0.01034142,-0.011450602,0.008480262,0.006223259,-0.49078703,2017-01-03 11:26:44,NaN
-0.18195933,0.08619126,9.787497,0.0014237433,0.001980694,0.029195163,37.0,-0.18335469,0.08631968,9.804556,0.0062901704,-0.0045975894,0.002094095,0.008439424,0.0059624836,-0.4931345,2017-01-03 11:26:45,NaN
-0.20111294,0.08619126,9.816227,0.0036851915,-0.0022650736,-0.05008524,37.0,-0.18989035,0.082302645,9.804466,-7.9450815E-4,-5.805601E-4,-0.011436471,0.008431919,0.006345025,-0.49399844,2017-01-03 11:26:46,NaN
-0.21068975,0.095768064,9.797073,-0.0024143618,0.003110971,0.08419863,37.0,-0.19389397,0.0826404,9.804385,0.0032090903,-0.014538664,-0.011355,0.008546908,0.0065151355,-0.4938838,2017-01-03 11:26:47,NaN
-0.20111294,0.08619126,9.80665,-0.004426243,0.0023675975,0.2035028,37.0,-0.19717784,0.07840841,9.804354,0.006492973,0.0033136676,0.002296106,0.00849964,0.00669476,-0.5013119,2017-01-03 11:26:48,NaN
-0.19153613,0.076614454,9.797073,-0.0011777857,-5.6820584E-4,0.038734086,37.0,-0.1914831,0.08777507,9.804388,7.982231E-4,-0.006052984,0.0022620219,0.008745224,0.006235154,-0.49823865,2017-01-03 11:26:49,NaN
-0.20111294,0.08619126,9.816227,0.0025906968,-0.0010658894,-0.11572133,41.0,-0.18913159,0.08839401,9.804428,-0.0015532825,-0.0066719214,0.015842466,0.0089269355,0.005798466,-0.5290676,2017-01-03 11:26:50,NaN
-0.20111294,0.076614454,9.816227,-0.0012308524,6.2486436E-4,0.084843256,41.0,-0.18818268,0.085217446,9.804474,0.011118165,-0.01711571,0.015796743,0.008557313,0.0061416524,-0.49951217,2017-01-03 11:26:51,NaN
-0.20111294,0.095768064,9.80665,-0.0015370658,-0.002066439,0.057302296,48.0,-0.19005239,0.08470433,9.804442,-6.324787E-4,0.010638097,0.0022071546,0.008523137,0.00631789,-0.49132895,2017-01-03 11:26:52,NaN
-0.20111294,0.076614454,9.797073,9.088265E-4,-4.3268132E-4,-0.02581781,48.0,-0.19193922,0.08142469,9.804434,0.001254371,2.9739176E-4,0.015836647,0.008423163,0.006485938,-0.49111333,2017-01-03 11:26:53,NaN
-0.20111294,0.08619126,9.80665,0.005762739,-0.0027459397,-0.27554354,48.0,-0.1980514,0.07435991,9.804369,0.007366535,0.007362177,0.01590149,0.008313606,0.0068729315,-0.49755266,2017-01-03 11:26:54,NaN
-0.21068975,0.076614454,9.816227,0.0035339242,-0.0011996803,-0.21140298,44.0,-0.19514874,0.08353762,9.804353,-0.009156471,-0.0018155379,0.015917284,0.008658199,0.006495323,-0.49919394,2017-01-03 11:26:55,NaN
-0.20111294,0.095768064,9.797073,0.0013184483,-0.0032470315,-0.11309701,44.0,-0.18902422,0.084897324,9.804461,0.011959707,0.010445108,-0.01143065,0.008514371,0.0062559373,-0.49250084,2017-01-03 11:26:56,NaN
-0.20111294,0.08619126,9.797073,-3.505462E-4,-7.619642E-4,0.03381873,44.0,-0.192418,0.07631855,9.804465,0.0017331333,0.005403541,0.002184709,0.008345572,0.006461625,-0.5092561,2017-01-03 11:26:57,NaN
-0.21068975,0.08619126,9.825804,-0.005343476,0.0027443576,0.23491314,44.0,-0.19570939,0.074553244,9.804414,-0.00859581,0.007168836,0.015856598,0.008314126,0.0067011635,-0.5041599,2017-01-03 11:26:58,NaN
-0.20111294,0.08619126,9.816227,0.0014262627,-0.0023616343,0.043586,44.0,-0.19083612,0.084484465,9.80443,0.013771596,0.010857969,-0.011399891,0.0085279895,0.0063649337,-0.4906414,2017-01-03 11:26:59,NaN
-0.21068975,0.08619126,9.80665,0.0016169737,0.005899867,0.052232545,48.0,-0.19353564,0.075625114,9.804449,-0.010769569,0.006096972,0.0022013355,0.008173392,0.006741249,-0.48694128,2017-01-03 11:27:00,NaN
-0.20111294,0.10534488,9.80665,0.0026671882,-0.0011133391,-0.07776573,44.0,-0.19230878,0.085844345,9.804389,0.015244267,0.009498085,0.0022611904,0.008608748,0.006418555,-0.48839378,2017-01-03 11:27:01,NaN
-0.18195933,0.095768064,9.80665,-0.0053588194,-0.0012345517,0.20709088,41.0,-0.18421063,0.08719255,9.804533,0.0071461047,-0.019090816,0.01573772,0.008487189,0.0059962096,-0.49131975,2017-01-03 11:27:02,NaN
-0.19153613,0.08619126,9.797073,0.0018512673,-8.939432E-4,0.042797193,41.0,-0.19114001,0.083574444,9.804431,4.5514773E-4,-0.0018523564,-0.011401554,0.008506151,0.0063865967,-0.4921381,2017-01-03 11:27:03,NaN
-0.20111294,0.095768064,9.797073,4.2325977E-4,-0.0014625255,0.016845899,41.0,-0.19047698,0.088631816,9.8044,-2.0786899E-4,0.006710617,-0.011370795,0.008729296,0.006208801,-0.49427772,2017-01-03 11:27:04,NaN
-0.19153613,0.095768064,9.816227,-0.004651214,2.6530528E-4,0.07325695,44.0,-0.18913494,0.0868084,9.804442,-0.015170279,-0.005086315,0.015828334,0.008539928,0.0062978584,-0.4838465,2017-01-03 11:27:05,NaN
-0.21068975,0.076614454,9.80665,-0.0033593478,0.0010393683,0.13169947,41.0,-0.19207719,0.0829699,9.804419,0.0013923182,-0.014868159,0.0022320943,0.0084900325,0.0064602327,-0.49040896,2017-01-03 11:27:06,NaN
-0.19153613,0.08619126,9.816227,0.006288458,-0.002316522,-0.22280839,41.0,-0.18851471,0.086239874,9.80446,-0.0021701609,-0.0045177895,0.015810875,0.008619652,0.0061180177,-0.5007444,2017-01-03 11:27:07,NaN
-0.20111294,0.08619126,9.816227,0.0026064636,-0.0027031796,-0.09410171,41.0,-0.19394438,0.08300555,9.804381,0.0032595147,-0.0012834673,0.015889851,0.00858163,0.006485398,-0.4961921,2017-01-03 11:27:08,NaN
-0.21068975,0.06703765,9.835381,-0.0047635487,0.0036002365,0.32370093,41.0,-0.19083174,0.08235781,9.804448,1.4687088E-4,-6.35726E-4,0.0022021667,0.0085557625,0.0062538837,-0.5073765,2017-01-03 11:27:09,NaN
-0.20111294,0.076614454,9.80665,-0.0034451226,0.003577754,0.23514035,44.0,-0.18974243,0.083893895,9.804456,-9.4244414E-4,-0.0021718107,0.002194685,0.008573626,0.006196063,-0.50438404,2017-01-03 11:27:10,NaN
-0.21068975,0.076614454,9.816227,7.749372E-4,8.084034E-4,0.04365888,44.0,-0.19286272,0.08222018,9.804409,0.0021778636,-0.014118445,0.015861588,0.008498586,0.006484867,-0.49338558,2017-01-03 11:27:11,NaN
-0.19153613,0.095768064,9.80665,0.0030805625,-0.0010351009,-0.05405548,44.0,-0.1829464,0.08580833,9.804569,0.005881888,0.009534104,-0.011538722,0.008544554,0.005757426,-0.5135018,2017-01-03 11:27:12,NaN
-0.19153613,0.095768064,9.816227,0.0032394896,3.9338693E-4,-0.062062424,41.0,-0.18739781,0.08822102,9.804462,0.010333282,0.007121412,0.015808383,0.00866092,0.006043511,-0.49820912,2017-01-03 11:27:13,NaN
-0.19153613,0.095768064,9.825804,-0.0032145563,7.701585E-4,0.013409265,41.0,-0.19322209,0.07448541,9.804463,-0.01108312,-0.0063836672,0.0021863717,0.008168037,0.006691177,-0.49383524,2017-01-03 11:27:14,NaN
-0.18195933,0.076614454,9.816227,4.6882374E-4,2.1634123E-4,0.019524423,37.0,-0.1933136,0.08367836,9.804388,0.002628725,-0.0019562715,0.01588237,0.0085660955,0.006479445,-0.49224192,2017-01-03 11:27:15,NaN
-0.20111294,0.095768064,9.816227,-7.247488E-4,-0.0012285965,-0.050958153,41.0,-0.19112903,0.08203694,9.804444,4.441717E-4,0.013305485,0.01582667,0.0084581375,0.006397669,-0.49492,2017-01-03 11:27:16,NaN
-0.20111294,0.08619126,9.80665,-2.2212503E-4,0.0018901007,0.020628422,52.0,-0.1920002,0.08203872,9.804428,0.0013153302,-3.1664202E-4,0.0022221184,0.008463352,0.006458368,-0.49264693,2017-01-03 11:27:17,NaN
-0.18195933,0.10534488,9.797073,0.0016910221,-0.0027427694,-0.060901232,44.0,-0.19242021,0.080569334,9.804431,0.0153557025,0.014773096,-0.011401554,0.008434366,0.0064806556,-0.4960799,2017-01-03 11:27:18,NaN
-0.18195933,0.076614454,9.816227,0.0020882066,-0.0013976184,0.102624945,48.0,-0.1910057,0.08384724,9.804433,0.013941198,-0.0021251529,0.015838308,0.008564392,0.006307118,-0.49891886,2017-01-03 11:27:19,NaN
-0.18195933,0.10534488,9.80665,0.0016322987,1.4657986E-5,-0.019462919,52.0,-0.18472843,0.08805826,9.804515,0.0076639135,0.007284169,-0.011485517,0.008558978,0.0059684203,-0.49428138,2017-01-03 11:27:20,NaN
-0.18195933,0.095768064,9.797073,0.003619394,-0.0034413266,-0.04227341,52.0,-0.19051567,0.085658036,9.804425,-1.691996E-4,0.009684398,-0.011394903,0.008567197,0.006328006,-0.4899635,2017-01-03 11:27:21,NaN
-0.20111294,0.095768064,9.797073,0.0014460662,-0.0017577696,-0.1545472,37.0,-0.19131145,0.087359294,9.804395,6.265815E-4,0.00798314,0.0022553713,0.008689963,0.0062833433,-0.49372914,2017-01-03 11:27:22,NaN
-0.21068975,0.10534488,9.787497,-7.848539E-5,-0.0018224216,0.049037796,37.0,-0.1859386,0.08862831,9.804487,-0.031986948,-0.020526571,0.015783442,0.008600015,0.0060287733,-0.49215093,2017-01-03 11:27:23,NaN
-0.18195933,0.095768064,9.787497,0.0047800913,-0.0040155174,-0.28715768,67.0,-0.18679276,0.09145996,9.804444,0.009728237,0.0038824657,-0.011414025,0.008827747,0.005876307,-0.50392413,2017-01-03 11:27:24,NaN
-0.19153613,0.095768064,9.797073,0.002807451,-0.0032932984,-0.12593713,63.0,-0.18614624,0.09142692,9.804457,-0.004538618,0.0039155236,0.0021930223,0.008817441,0.0058369674,-0.50507176,2017-01-03 11:27:25,NaN
-0.20111294,0.095768064,9.816227,-0.005483738,0.005979457,0.25528228,63.0,-0.18883626,0.08818814,9.804437,-0.001848596,0.0071542887,0.015834153,0.008727202,0.006063298,-0.50264543,2017-01-03 11:27:26,NaN
-0.19153613,0.076614454,9.797073,0.0036832753,-0.0011018539,-0.17148408,71.0,-0.19189362,0.086386144,9.804393,0.0012087653,0.008956284,0.015877383,0.0086427,0.00635925,-0.491155,2017-01-03 11:27:27,NaN
-0.20111294,0.08619126,9.80665,0.005708068,-0.0019473335,-0.11404063,71.0,-0.18942696,0.087164484,9.804434,-0.0012579041,0.008177949,0.0022162993,0.008670971,0.0061527295,-0.4989419,2017-01-03 11:27:28,NaN
-0.20111294,0.08619126,9.80665,-0.002722252,-3.039245E-4,0.2040727,74.0,-0.19010118,0.08558689,9.804434,-5.8367755E-4,-0.0038648003,0.0022162993,0.008774397,0.006000717,-0.520892,2017-01-03 11:27:29,NaN
-0.18195933,0.095768064,9.80665,-0.0020984276,0.0013380516,0.17046331,59.0,-0.18832633,0.08941646,9.804434,-0.002358533,0.005925974,0.0022162993,0.008799099,0.005964114,-0.5070893,2017-01-03 11:27:30,NaN
-0.19153613,0.08619126,9.80665,-0.002430566,0.0016463945,0.11846686,63.0,-0.18900023,0.08827227,9.804431,-0.015304966,-0.0065501914,0.0022187931,0.008621722,0.0062284227,-0.4866189,2017-01-03 11:27:31,NaN
-0.19153613,0.095768064,9.797073,0.002893303,-0.0012172891,-0.014308173,48.0,-0.18819712,0.09091139,9.804422,0.011132597,0.0044310396,-0.011392409,0.008907162,0.0058507877,-0.51376665,2017-01-03 11:27:32,NaN
-0.18195933,0.11492168,9.797073,1.479372E-4,3.3588352E-4,0.056521527,56.0,-0.18795535,0.08515668,9.804479,-0.0027295223,0.010185755,-0.011448939,0.008478405,0.006230163,-0.48961025,2017-01-03 11:27:33,NaN
-0.19153613,0.08619126,9.816227,-0.004528591,0.0036050247,0.021055471,56.0,-0.18410872,0.08944632,9.804515,-0.006576144,0.0058961115,0.0021356612,0.008579658,0.00594255,-0.49057588,2017-01-03 11:27:34,NaN
-0.18195933,0.076614454,9.797073,7.616785E-5,-4.536287E-4,0.027182462,56.0,-0.18902111,0.08654941,9.804446,0.011956589,0.008793022,0.0022038294,0.00856524,0.0062451074,-0.48937276,2017-01-03 11:27:35,NaN
-0.21068975,0.08619126,9.835381,0.0034003598,-9.7156124E-4,-0.25171906,56.0,-0.19132121,0.07762905,9.804478,6.363365E-4,0.00409303,0.015793417,0.008292247,0.0064861453,-0.4981987,2017-01-03 11:27:36,NaN
-0.20111294,0.076614454,9.816227,-0.0,-0.0,-0.0,52.0,-0.20170237,0.07567756,9.804284,0.011017498,-0.0075758193,0.015986284,0.008454524,0.0070130765,-0.49631226,2017-01-03 11:27:37,NaN
-0.19153613,0.06703765,9.80665,-0.0036520604,0.0032774059,0.10506495,56.0,-0.19636396,0.07903375,9.804367,-0.00794125,-0.024552356,0.002283636,0.008398572,0.006778706,-0.48734364,2017-01-03 11:27:38,NaN
-0.19153613,0.095768064,9.80665,-0.0036109004,-3.589472E-4,0.18958226,52.0,-0.19409123,0.084008925,9.80437,0.0034063598,-0.0022868444,0.015900658,0.0087060435,0.006363448,-0.50647926,2017-01-03 11:27:39,NaN
-0.21068975,0.08619126,9.816227,4.6987E-5,-3.6656272E-4,0.06623278,52.0,-0.19604973,0.08170831,9.804351,0.005364872,-0.0136065725,0.015919778,0.008562464,0.006630862,-0.49422175,2017-01-03 11:27:40,NaN
-0.20111294,0.076614454,9.816227,5.880424E-4,4.7591144E-5,-0.039362106,52.0,-0.19494438,0.07798168,9.804402,0.004259515,-0.00987994,0.015868237,0.008302906,0.0067583094,-0.48559168,2017-01-03 11:27:41,NaN
-0.20111294,0.08619126,9.80665,0.0036752266,-6.0015905E-4,-0.2177919,48.0,-0.20172419,0.08034485,9.804247,0.011039306,0.014997586,0.016023694,0.008624508,0.0069423625,-0.491641,2017-01-03 11:27:42,NaN
-0.19153613,0.08619126,9.825804,-3.862764E-4,0.0028705087,0.04384979,52.0,-0.1928435,0.082185715,9.804409,0.0021586264,-4.6362975E-4,-0.011379108,0.008580944,0.0063728234,-0.50475675,2017-01-03 11:27:43,NaN
-0.22026655,0.095768064,9.816227,0.0026162802,-0.0029096596,0.05743446,56.0,-0.19152139,0.084513836,9.804416,8.365288E-4,-0.016412102,-0.011385758,0.0086113885,0.0063069216,-0.49952528,2017-01-03 11:27:44,NaN
-0.19153613,0.076614454,9.816227,-4.7437393E-4,-0.0014755529,0.05795954,52.0,-0.20212118,0.08518016,9.804198,0.011436327,-0.017078431,0.016072743,0.008872728,0.0068081776,-0.4946446,2017-01-03 11:27:45,NaN
-0.22026655,0.095768064,9.816227,-0.0029779365,-0.0020297135,0.14603376,52.0,-0.20273967,0.08163793,9.8042145,-0.0015655445,-0.01353619,-0.024804926,0.008713809,0.006946992,-0.49244487,2017-01-03 11:27:46,NaN
-0.21068975,0.08619126,9.797073,0.003929523,-8.383307E-4,0.058046617,56.0,-0.19374864,0.08169859,9.804396,0.0030637782,-0.0135968495,0.0022545399,0.00846381,0.006581158,-0.48887923,2017-01-03 11:27:47,NaN
-0.19153613,0.095768064,9.80665,-6.168083E-4,0.0014497347,0.030841412,59.0,-0.18679434,0.08289768,9.804522,0.009729834,-0.014795944,0.0021290106,0.008355248,0.0062265373,-0.49048755,2017-01-03 11:27:48,NaN
-0.20111294,0.06703765,9.825804,-0.0016953326,0.0015893131,-0.041939244,59.0,-0.20206666,0.06966694,9.80432,0.011381797,0.0120551465,0.015949706,0.0081271855,0.007260993,-0.4878152,2017-01-03 11:27:49,NaN
-0.20111294,0.076614454,9.825804,-9.582768E-4,-0.0020728048,-0.0065168175,56.0,-0.19694087,0.07310872,9.8044,0.006255995,-0.0050069755,0.002249552,0.0081577115,0.006941515,-0.48842618,2017-01-03 11:27:50,NaN
-0.21068975,0.08619126,9.816227,0.004850231,-0.0030528298,-0.26262036,59.0,-0.19197646,0.078684226,9.804456,0.0012915985,0.0030378576,0.015815033,0.008350233,0.0064951438,-0.49748898,2017-01-03 11:27:51,NaN
-0.19153613,0.08619126,9.816227,0.0030032364,-0.0028553228,-0.07877554,59.0,-0.19056715,0.08143444,9.804461,-1.1772271E-4,-0.026953058,0.015810044,0.0084526,0.0063411416,-0.499737,2017-01-03 11:27:52,NaN
-0.22026655,0.08619126,9.816227,-2.522868E-4,-0.0014341208,0.103570335,59.0,-0.19311349,0.07955627,9.804426,-0.011191711,-0.025074879,-0.0113965655,0.008376216,0.0065764445,-0.49199077,2017-01-03 11:27:53,NaN
-0.21068975,0.076614454,9.816227,0.002319748,-0.0016208048,-0.05560073,59.0,-0.19530553,0.07775648,9.804397,0.018241018,0.017585952,0.015874056,0.008329852,0.006745507,-0.48921156,2017-01-03 11:27:54,NaN
-0.20111294,0.095768064,9.80665,0.0024497914,-0.0011816471,-0.11406313,59.0,-0.18957458,0.07938797,9.804496,-0.0011102929,-0.011286228,0.015774298,0.008347357,0.0063357144,-0.5011625,2017-01-03 11:27:55,NaN
