ACC_X,ACC_Y,ACC_Z,GYRO_X,GYRO_Y,GYRO_Z,LIGH_1,GRAV_X,GRAV_Y,GRAV_Z,LINACC_X,LINACC_Y,LINACC_Z,ROTVEC_X,ROTVEC_Y,ROTVEC_Z,TIME,VOICE
-0.3327179,4.660858,8.663849,-0.13215637,0.71936035,-0.024902344,169.0,0.53435427,4.9600577,8.442907,-0.94112116,-0.25334215,0.53393364,0.053633183,-0.25817633,-0.91799587,2017-07-18 11:01:31,-Infinity
-0.018463135,4.6891785,8.165512,-0.2679901,-0.34303284,-0.49606323,241.0,0.11019431,4.61112,8.654237,-0.15401177,0.1253972,-0.46692848,0.08992108,-0.23041248,-0.89780384,2017-07-18 11:01:32,-Infinity
-0.32115173,3.907837,9.099457,-0.0071258545,-0.07777405,-0.21154785,187.0,-0.1011173,3.986118,8.95941,1.4401563,0.10415435,-0.5090265,0.057650957,-0.20023035,-0.9363163,2017-07-18 11:01:33,-Infinity
1.1169586,4.536484,9.0360565,0.21928406,0.24182129,0.6223297,156.0,0.99171335,4.37589,8.720004,0.4267453,0.14953995,-0.48569584,-0.01958617,-0.23456319,-0.96245414,2017-07-18 11:01:34,-Infinity
2.5360107,3.6952972,8.753143,-0.023040771,0.06643677,-0.07194519,147.0,2.6026459,3.6541529,8.720309,-0.3691864,-0.08180785,0.2913332,-0.07161324,-0.22418636,-0.9256716,2017-07-18 11:01:35,-Infinity
2.6515045,3.8047638,8.833252,-0.0073394775,0.030075073,-0.015853882,148.0,2.6137562,3.6828055,8.704919,-0.10468817,0.07073283,0.14921284,-0.06940526,-0.2266177,-0.9221824,2017-07-18 11:01:36,-Infinity
2.6847992,3.7716522,8.565506,0.005493164,-0.018157959,-0.0184021,152.0,2.661037,3.7479312,8.662695,0.027879953,0.014258623,-0.09805679,-0.06937282,-0.23016225,-0.9199194,2017-07-18 11:01:37,-Infinity
2.7023315,3.669693,8.598358,0.0029296875,-0.027374268,0.036514282,157.0,2.5748775,3.7613525,8.682893,0.1680634,-0.011401176,-0.06743145,-0.065779194,-0.23014951,-0.92105865,2017-07-18 11:01:39,-Infinity
2.667694,3.6016693,8.586731,0.07623291,0.0082092285,0.05215454,162.0,2.6701987,3.757863,8.65557,-0.008313179,-0.18330026,-0.059536934,-0.06926876,-0.23214348,-0.9185501,2017-07-18 11:01:40,-Infinity
2.4717712,3.6891785,8.810303,-0.016860962,0.006439209,-0.021774292,164.0,2.640347,3.6763415,8.699625,-0.04938698,1.449585E-4,0.07318401,-0.069824435,-0.227084,-0.9206644,2017-07-18 11:01:41,-Infinity
2.7857513,3.5945587,8.694305,-0.00630188,-0.02911377,0.027954102,163.0,2.7004728,3.6121407,8.708058,0.07867098,-0.0053453445,-0.17117405,-0.073897146,-0.22483732,-0.9209071,2017-07-18 11:01:42,-Infinity
2.9693604,3.451706,8.686813,0.027175903,-0.00932312,0.036499023,163.0,2.7429342,3.5677352,8.713092,0.21163821,0.077501774,-0.05031109,-0.075594895,-0.2236993,-0.9194311,2017-07-18 11:01:43,-Infinity
3.9081116,1.9984894,8.830688,-0.591156,-0.6304474,0.2063446,160.0,3.8810654,2.5908132,8.6252775,-0.051060677,-0.529547,0.21526814,-0.1700793,-0.18797515,-0.90801674,2017-07-18 11:01:44,-Infinity
4.4168854,1.6242218,8.8789215,-0.08847046,-0.0063323975,0.017501831,162.0,4.3810105,1.6280024,8.621296,0.032548428,-0.0374763,0.14454651,-0.18514186,-0.16339095,-0.90726775,2017-07-18 11:01:45,-Infinity
4.579193,1.572464,8.7135315,-0.005569458,-0.021942139,0.040390015,161.0,4.2447615,1.5080615,8.710806,0.32072735,-0.008460283,-0.013830185,-0.18049496,-0.15262397,-0.9091843,2017-07-18 11:01:46,-Infinity
4.4182434,1.7323608,8.65094,3.9672852E-4,-0.019256592,0.060653687,157.0,4.1664057,1.6038105,8.731508,0.30868816,-0.006893754,-0.19203949,-0.17623875,-0.15413265,-0.91288596,2017-07-18 11:01:47,-Infinity
4.164917,1.5174866,8.920898,-0.012237549,-0.012359619,-0.0033569336,158.0,4.2118244,1.610494,8.708458,0.14188147,0.044088125,-0.027711868,-0.1792285,-0.15449719,-0.9139524,2017-07-18 11:01:48,-Infinity
4.214752,1.5330658,8.945328,-0.025177002,0.004760742,0.0131073,158.0,4.2376294,1.5905993,8.699591,-0.061879635,-0.06804812,0.17329407,-0.17976512,-0.15385523,-0.9123971,2017-07-18 11:01:49,-Infinity
4.0999603,1.8573456,8.568619,0.07260132,-0.073791504,0.018875122,158.0,4.191811,1.7380953,8.693568,-0.12897062,0.12085283,-0.20568275,-0.17686874,-0.15635706,-0.9172988,2017-07-18 11:01:50,-Infinity
4.2126617,1.743103,8.722794,-0.0028686523,0.018554688,0.013198853,159.0,4.2743936,1.6549367,8.669552,-0.057308674,-0.039391637,-0.020811081,-0.18204945,-0.15758766,-0.9136841,2017-07-18 11:01:51,-Infinity
4.3107452,1.8349915,8.803497,-0.0032043457,-0.010238647,-0.022628784,157.0,4.2609453,1.6996485,8.667521,-0.0048179626,0.012565613,0.091023445,-0.18153474,-0.15850723,-0.91553843,2017-07-18 11:01:52,-Infinity
4.3935394,1.9660034,8.479935,0.072128296,-0.04647827,-0.006668091,158.0,4.2270036,1.6679254,8.690273,0.3303876,0.10557878,-0.24873352,-0.18039773,-0.15612824,-0.9163145,2017-07-18 11:01:53,-Infinity
4.0244293,1.9562988,8.806732,-0.0033569336,-0.008682251,0.012939453,162.0,3.9921029,1.9109502,8.7511015,-0.03190708,-0.035872817,0.045986176,-0.16684471,-0.16118579,-0.9228177,2017-07-18 11:01:54,-Infinity
3.6278687,1.765274,9.229965,-0.086883545,-0.014343262,-0.023452759,162.0,3.7853978,1.9841634,8.826338,-0.16537833,-0.16703355,0.3240881,-0.15609519,-0.15561709,-0.92753124,2017-07-18 11:01:55,-Infinity
3.5905151,1.8828888,9.08551,-0.008148193,0.10122681,-0.0039978027,164.0,3.569236,1.9981182,8.912826,0.43841887,0.044410706,-0.08022499,-0.15048066,-0.153849,-0.9355077,2017-07-18 11:01:56,-Infinity
3.0005035,2.5097961,9.046677,0.25949097,-0.117874146,-0.105407715,165.0,3.248071,2.2245824,8.98174,-0.26757264,0.3005829,-0.003235817,-0.1341139,-0.1469263,-0.94688654,2017-07-18 11:01:57,-Infinity
3.9693909,2.3333282,8.510742,0.0723114,0.0048675537,-0.17353821,158.0,4.186434,2.0258343,8.633664,-0.20223427,0.20495605,-0.12105656,-0.17560443,-0.17020202,-0.9206907,2017-07-18 11:01:58,-Infinity
4.0558777,1.4437256,9.192993,3.6621094E-4,0.11730957,0.13076782,161.0,3.9253383,2.2830737,8.691932,-0.18512654,-0.8252175,-0.21059799,-0.15590566,-0.18035586,-0.9183919,2017-07-18 11:01:59,-Infinity
4.110077,2.1988678,8.697998,0.0028381348,2.89917E-4,-0.02456665,156.0,3.9805963,2.0730698,8.719382,0.09208202,0.10309887,-0.059625626,-0.16397828,-0.16975826,-0.9217265,2017-07-18 11:02:00,-Infinity
3.7022095,2.2236176,9.0078125,-0.016647339,0.041519165,-0.035720825,156.0,3.9597013,2.147467,8.710886,-0.26442838,0.063227415,0.26122475,-0.16545573,-0.17104374,-0.92621225,2017-07-18 11:02:01,-Infinity
4.616577,2.0362396,8.564362,0.12930298,0.03881836,0.2350769,156.0,3.9857886,2.1919117,8.687888,0.6316149,-0.18123794,-0.16707706,-0.162153,-0.17794336,-0.9188939,2017-07-18 11:02:02,-Infinity
4.068451,2.928543,8.428116,0.1802826,-0.1473999,-0.33190918,184.0,4.1626935,2.3780494,8.554955,-0.10207224,0.49081564,-0.49083138,0.22801693,0.10875195,0.96491694,2017-07-18 11:02:03,-Infinity
1.3513794,0.71362305,9.898651,-0.63272095,-0.41775513,-0.46568298,195.0,1.5346688,0.88733655,9.645093,-0.9856497,0.84973943,3.1173258,0.079412766,0.043940313,0.99569607,2017-07-18 11:02:04,-Infinity
-0.911499,1.2003174,8.38205,0.22009277,0.6703186,0.8278351,209.0,-0.9487178,1.0415391,9.704923,-0.7182542,-1.0311642,-0.07421684,0.0638095,-0.042781487,-0.9837448,2017-07-18 11:02:05,-Infinity
-0.388443,4.709503,8.2790985,0.027755737,0.11430359,0.17921448,321.0,-0.9412983,4.5773673,8.621604,0.47210783,-0.15344954,-0.29447842,0.11800387,-0.21562846,-0.92661995,2017-07-18 11:02:06,-Infinity
1.1875763,3.6666565,8.920334,-0.2216034,-0.42930603,0.050994873,235.0,-0.27256382,3.716315,9.071114,0.43141007,-0.23472428,-0.45666027,0.06299742,-0.18312089,-0.9485668,2017-07-18 11:02:07,-Infinity
-0.86886597,1.7810669,9.407654,-0.098098755,0.13320923,0.06304932,193.0,-0.9911986,1.6715122,9.612178,-0.04153967,-0.07258999,0.17842197,0.061921146,-0.077981465,-0.98586243,2017-07-18 11:02:08,-Infinity
-0.76950073,2.0164185,9.504105,0.024734497,-0.0048675537,-0.0017089844,209.0,-0.83720905,1.9518347,9.573913,0.055137157,-0.01637292,-0.0047912598,0.0555481,-0.09370541,-0.9856733,2017-07-18 11:02:09,-Infinity
-0.7426758,2.0156708,9.631027,-0.008224487,0.0017242432,0.02708435,201.0,-0.8945072,1.990039,9.560857,0.1496402,3.7789345E-4,0.094968796,0.05866724,-0.095342085,-0.98543364,2017-07-18 11:02:10,-Infinity
-0.8344116,1.9908447,9.477417,1.373291E-4,-0.0012817383,0.010360718,211.0,-0.9219007,1.9600251,9.564454,0.07515246,0.025300264,-0.036806107,0.05966925,-0.093745016,-0.9857799,2017-07-18 11:02:11,-Infinity
-0.91038513,1.8802948,9.519409,-0.035339355,0.021530151,-0.009750366,191.0,-0.8681388,1.8977244,9.582033,0.062848926,0.0010592937,0.09347534,0.0568309,-0.09067809,-0.98576415,2017-07-18 11:02:12,-Infinity
-0.5939026,1.9975433,9.471024,-0.0030517578,-0.019348145,0.015487671,198.0,-0.74595606,1.972952,9.577128,0.17663729,0.038083553,-0.06238556,0.053172767,-0.0947699,-0.9836057,2017-07-18 11:02:13,-Infinity
-0.7576294,2.006012,9.454117,0.0011291504,-0.008346558,0.017333984,218.0,-0.69864696,2.0196714,9.570956,0.04569322,0.016141415,0.023093224,0.051121566,-0.09703868,-0.9830654,2017-07-18 11:02:14,-Infinity
-0.68788147,2.0032043,9.529114,-9.3078613E-4,0.0038146973,-0.0060577393,219.0,-0.69918656,2.0143251,9.572043,0.01201725,-0.0027079582,-0.0021915436,0.050819706,-0.096969076,-0.9827979,2017-07-18 11:02:15,-Infinity
-0.7186432,1.9785767,9.524658,-2.89917E-4,0.0010681152,0.0027313232,199.0,-0.73335534,1.9740263,9.577881,0.0058470964,0.008412242,0.0065784454,0.052266084,-0.094510615,-0.9830682,2017-07-18 11:02:16,-Infinity
-0.72506714,1.9785614,9.525482,2.89917E-4,0.0028839111,0.001449585,200.0,-0.72902906,1.9741101,9.578194,-5.9187412E-5,0.0054290295,0.014644623,0.051723707,-0.094724335,-0.98357594,2017-07-18 11:02:18,-Infinity
-0.6950531,1.9836273,9.5499115,-1.0681152E-4,-0.0017547607,0.0020446777,201.0,-0.7218929,1.9733883,9.578883,0.025768936,0.018006802,0.004778862,0.051724464,-0.094503194,-0.9833238,2017-07-18 11:02:19,-Infinity
-0.6491394,1.973114,9.577209,-0.0048980713,-0.012329102,0.017181396,197.0,-0.7488305,1.9501642,9.581571,0.034570217,0.006225109,0.004559517,0.05308353,-0.09304832,-0.9828094,2017-07-18 11:02:20,-Infinity
-0.7769623,1.9221344,9.546982,-0.004928589,0.0060424805,-0.011993408,189.0,-0.7520715,1.937278,9.583931,-0.026286125,-0.0076152086,-0.00434494,0.053014096,-0.092439346,-0.9830807,2017-07-18 11:02:21,-Infinity
-0.70796204,1.9332886,9.547363,-7.6293945E-5,8.087158E-4,0.0016479492,191.0,-0.76829,1.9204354,9.586034,0.061274588,0.021206379,-0.0044822693,0.053425353,-0.09161895,-0.9835831,2017-07-18 11:02:22,-Infinity
-0.7632599,1.9305115,9.5577545,-0.0012817383,0.004211426,-0.006225586,204.0,-0.7656594,1.9168438,9.586964,-0.012803316,0.005481243,0.0029592514,0.05327639,-0.09144694,-0.9835862,2017-07-18 11:02:23,-Infinity
-1.0487518,1.5543823,10.660889,-6.4086914E-4,0.08319092,-0.015609741,201.0,-0.7770091,1.92131,9.5851555,-0.21418118,0.0011667013,-0.10718918,0.0542257,-0.09139279,-0.9829946,2017-07-18 11:02:24,-Infinity
-1.0267181,2.075882,9.24263,-0.023162842,0.049102783,0.0063323975,202.0,-0.77474374,1.9279426,9.584007,0.083565414,0.11062622,-0.26348877,0.054209657,-0.09172207,-0.9828903,2017-07-18 11:02:25,-Infinity
-1.0244904,2.4255219,7.610779,-0.036102295,0.0045776367,0.029510498,204.0,-0.7579155,1.906085,9.589724,-0.0103645325,0.010139108,0.014156342,0.053342756,-0.0915532,-0.9829819,2017-07-18 11:02:26,-Infinity
-0.69944763,1.9310913,9.595215,-0.008026123,3.9672852E-4,0.008224487,203.0,-0.75609463,1.923529,9.586383,0.033111453,0.020636559,0.017845154,0.053370778,-0.09155352,-0.9827133,2017-07-18 11:02:27,-Infinity
-0.7501831,1.9020844,9.594482,-0.0061950684,0.005203247,-2.2888184E-4,202.0,-0.7575543,1.9137157,9.588232,0.08019048,0.023694873,0.014257431,0.052881483,-0.0913224,-0.983552,2017-07-18 11:02:28,-Infinity
-0.84820557,1.8881073,9.561325,-0.0014953613,0.0036468506,-0.014694214,209.0,-0.7730401,1.912296,9.587279,-0.024865746,-0.004067898,-0.016098022,0.053726256,-0.09109501,-0.98341674,2017-07-18 11:02:29,-Infinity
-0.77619934,1.9264374,9.582291,-0.0012664795,-9.1552734E-5,0.0060424805,211.0,-0.7791868,1.9258991,9.584058,0.003947377,0.008355141,0.019479752,0.05455379,-0.09153266,-0.98287684,2017-07-18 11:02:30,-Infinity
-0.76171875,1.9496002,9.555481,-9.613037E-4,0.0018005371,-0.0035095215,207.0,-0.7722356,1.9518492,9.57937,0.0026837587,0.0021463633,-0.008957863,0.05401927,-0.09311282,-0.9831808,2017-07-18 11:02:31,-Infinity
-0.720047,1.9424286,9.551422,-0.0028533936,6.713867E-4,0.014373779,207.0,-0.7804242,1.937044,9.581711,-0.006109953,-8.8620186E-4,0.012031555,0.05432694,-0.09228916,-0.9832269,2017-07-18 11:02:32,-Infinity
-0.77053833,1.9284668,9.562134,-9.1552734E-4,-5.950928E-4,0.0026855469,204.0,-0.7697969,1.9345497,9.583075,-0.0026236176,-1.1587143E-4,0.008306503,0.05374019,-0.09229897,-0.98334765,2017-07-18 11:02:33,-Infinity
-0.79190063,1.9116974,9.539383,-0.001159668,5.0354004E-4,-0.00440979,207.0,-0.7822327,1.9170942,9.585575,-0.014582813,-0.00392282,0.00646019,0.054251853,-0.09133467,-0.98326355,2017-07-18 11:02:34,-Infinity
-0.7689209,1.9263,9.55954,0.0019989014,-1.0681152E-4,0.0028076172,210.0,-0.75554144,1.9301602,9.5850935,-0.012727022,4.6861172E-4,-0.0029745102,0.05308413,-0.09207768,-0.98319036,2017-07-18 11:02:35,-Infinity
-0.7607422,1.8883362,9.583191,-4.8828125E-4,-0.002029419,0.010772705,207.0,-0.7655789,1.8927209,9.591762,0.016810238,0.0049477816,-0.0034017563,0.053689573,-0.08985385,-0.9827025,2017-07-18 11:02:36,-Infinity
-0.78419495,1.8676758,9.571671,-4.4250488E-4,-7.324219E-4,-0.002243042,208.0,-0.78012806,1.8894196,9.59124,-0.0042620897,-0.0020428896,0.009139061,0.054945603,-0.08924041,-0.98174113,2017-07-18 11:02:37,-Infinity
-0.7718506,1.9291992,9.550095,0.0011444092,0.023803711,0.0052490234,205.0,-0.77819437,1.9082439,9.587669,0.006872177,0.026100755,-0.010231018,0.05480939,-0.09033736,-0.98199564,2017-07-18 11:02:38,-Infinity
-0.7583771,1.9023743,9.564926,-0.004714966,0.0017700195,-0.004196167,210.0,-0.7657381,1.9059017,9.589138,-6.130338E-4,-0.0052654743,0.03218651,0.054322015,-0.09031493,-0.9817881,2017-07-18 11:02:39,-Infinity
-0.7835083,1.9039307,9.563904,3.0517578E-4,-0.0029296875,0.009140015,209.0,-0.77547026,1.892171,9.591075,0.009185374,0.017182708,0.0062360764,0.05448851,-0.089567125,-0.98216635,2017-07-18 11:02:40,-Infinity
-0.74620056,1.891098,9.575745,-0.0016784668,-1.373291E-4,-0.0020751953,206.0,-0.76501286,1.8938545,9.591582,-0.0010722876,0.011886597,-0.009685516,0.05427445,-0.08955264,-0.9816468,2017-07-18 11:02:41,-Infinity
-0.7629242,1.8933868,9.566086,-0.0010375977,0.0016021729,-3.0517578E-4,205.0,-0.76876163,1.8907914,9.591887,0.0035520792,-0.009838581,-0.0016040802,0.054233283,-0.089490846,-0.98201776,2017-07-18 11:02:42,-Infinity
-0.80999756,1.88974,9.69223,0.009475708,-0.020904541,0.0027923584,206.0,-0.78639454,1.864289,9.595645,-8.742213E-4,0.020445585,0.09183502,0.056676213,-0.087616585,-0.9814646,2017-07-18 11:02:43,-Infinity
-0.7904968,1.8963013,9.562119,-0.0019226074,-2.4414063E-4,-0.001083374,213.0,-0.807631,1.8914135,9.58857,0.018163025,0.007665515,-0.014705658,0.05583731,-0.08944937,-0.98258215,2017-07-18 11:02:44,-Infinity
-0.83569336,1.8665924,9.633148,0.014541626,-0.007843018,0.0095825195,205.0,-0.7918521,1.8789718,9.592332,-0.045654833,-0.011519909,0.055200577,0.05515289,-0.08879961,-0.9822983,2017-07-18 11:02:45,-Infinity
-0.70236206,1.986206,9.58223,0.021194458,-0.009963989,-0.03640747,207.0,-0.69385624,2.0022078,9.574973,-0.12416291,0.014800191,-0.07391834,0.050955657,-0.095998704,-0.9822531,2017-07-18 11:02:46,-Infinity
-0.6636505,1.9970703,9.400665,0.03855896,-0.023406982,-0.055999756,191.0,-0.7202907,1.9378537,9.586255,-0.18046421,0.15656531,0.014309883,0.05195735,-0.09239828,-0.98223156,2017-07-18 11:02:47,-Infinity
-0.68052673,1.9906006,9.579376,-0.0036315918,0.0032043457,-0.0059814453,194.0,-0.6963175,1.9876047,9.577837,-0.02755946,2.593994E-4,-0.018418312,0.050803203,-0.09531669,-0.98257816,2017-07-18 11:02:48,-Infinity
-0.7128906,1.9764557,9.549957,-7.7819824E-4,1.0681152E-4,-0.002380371,207.0,-0.7145478,1.9770871,9.5786705,0.009894729,0.007956028,0.003783226,0.051890012,-0.0945047,-0.9822027,2017-07-18 11:02:49,-Infinity
-0.7064667,1.9669342,9.580139,-6.866455E-4,3.5095215E-4,0.0037078857,206.0,-0.71896666,1.9748446,9.578803,0.009989798,-0.005026698,0.012708664,0.052006807,-0.09440484,-0.9823509,2017-07-18 11:02:50,-Infinity
-0.62864685,1.9281158,9.181046,-0.12347412,0.11979675,0.031723022,200.0,-0.7097907,1.989769,9.576398,0.09790957,-0.22745776,0.9214182,0.051630236,-0.095257014,-0.982342,2017-07-18 11:02:52,-Infinity
0.8473358,1.8030243,10.182343,-0.33250427,-1.2514954,-0.1574707,201.0,-0.042657297,1.9098452,9.618787,0.6148829,0.044692755,0.41754532,0.016272832,-0.0965068,-0.98479646,2017-07-18 11:02:53,-Infinity
0.6356659,4.030197,7.7187805,0.7848053,0.6136017,-0.11553955,198.0,0.8304068,3.838881,8.985756,-0.17011893,0.22487974,-1.2665281,-0.024869794,-0.17929354,-0.9785172,2017-07-18 11:02:54,-Infinity
0.2730255,2.8094788,9.16861,0.032440186,0.07446289,0.09861755,192.0,0.14116772,2.6690578,9.43539,0.18378782,0.09021568,-0.24016476,0.0064340374,-0.13534702,-0.9859662,2017-07-18 11:02:55,-Infinity
-0.25543213,2.485672,8.663712,-0.014785767,-0.089767456,-0.011047363,194.0,-0.13281022,2.5515332,9.467968,-0.07922588,-0.18451977,-0.104475975,0.020229658,-0.12984115,-0.9861197,2017-07-18 11:02:56,-Infinity
-0.33293152,2.4156342,9.217834,0.03944397,0.027328491,-0.0152282715,197.0,-0.2960039,2.4179585,9.499276,-0.05297789,-0.0014128685,-0.24901867,0.025824875,-0.122013785,-0.98759353,2017-07-18 11:02:57,-Infinity
-0.25689697,2.2976532,9.511185,-0.012664795,-0.016204834,-0.011505127,196.0,-0.3480067,2.2792387,9.5317545,-0.04656142,-0.005899191,-0.031666756,0.028956717,-0.114792295,-0.9884349,2017-07-18 11:02:58,-Infinity
-0.89990234,1.0774994,9.335602,0.14733887,0.1663971,0.051986694,203.0,-0.55292964,1.0120316,9.738606,-0.19857013,-0.12052393,-0.027026176,0.032382466,-0.049200185,-0.9949046,2017-07-18 11:02:59,-Infinity
-0.79803467,1.6856995,9.646484,-0.061691284,0.0065307617,0.0035858154,201.0,-0.8303432,1.7049471,9.621542,0.04254049,0.017160773,0.058208466,0.049847912,-0.083385065,-0.9916263,2017-07-18 11:03:00,-Infinity
-0.3351593,2.075714,10.005661,-0.51342773,0.46923828,0.115982056,190.0,-0.1477822,2.0624278,9.5861845,-0.28209513,-0.0834384,0.46138763,0.015947457,-0.10481547,-0.9912265,2017-07-18 11:03:01,-Infinity
-0.65242004,2.931305,9.696152,-0.357193,0.14682007,0.012130737,193.0,-0.37105107,3.0705502,9.30615,-0.23968482,-0.021754265,0.3796301,0.031238953,-0.15666054,-0.9842663,2017-07-18 11:03:02,-Infinity
-1.8157349,0.9759369,10.666519,-0.7157135,-0.1506195,-0.41053772,197.0,-0.46687374,2.129684,9.561216,-1.4294639,-0.92182803,1.0615711,0.033525996,-0.10672225,-0.9898281,2017-07-18 11:03:03,-Infinity
-1.420227,2.151245,9.511261,-0.052978516,0.056762695,-0.10493469,223.0,-1.1208756,2.2024734,9.49016,-0.2967384,0.02850604,0.02957344,0.0753149,-0.10229454,-0.9786074,2017-07-18 11:03:04,-Infinity
-0.3271942,2.4978943,9.033615,0.93556213,-1.4028931,-0.19104004,227.0,-0.52258986,2.3556004,9.505179,0.38057512,0.091704845,0.71442795,0.04274772,-0.11637597,-0.9834278,2017-07-18 11:03:05,-Infinity
0.46316528,2.0092468,10.940506,-0.7914429,-0.96162415,-0.47872925,204.0,-0.6789826,3.3608217,9.187722,0.6453854,-0.5501442,-1.1423826,0.05855801,-0.1677125,-0.97493106,2017-07-18 11:03:06,-Infinity
-1.0150146,2.2485657,9.810638,0.12683105,0.28684998,0.030319214,200.0,-1.3130074,2.499268,9.391489,0.0698024,-0.18521118,0.40188885,0.06746442,-0.11703739,-0.98708344,2017-07-18 11:03:07,-Infinity
-1.5896149,2.401413,9.468704,-0.09388733,0.02470398,0.07106018,200.0,-1.5203984,2.4637551,9.369562,-0.104178905,-0.10364199,0.15670681,0.08688434,-0.12587589,-0.98657054,2017-07-18 11:03:08,-Infinity
-1.9797363,2.47583,9.230148,-0.034851074,-0.06871033,-0.021011353,218.0,-1.9397371,2.4729598,9.289364,-0.065145016,0.042738438,-0.029114723,0.109322175,-0.12009551,-0.984073,2017-07-18 11:03:09,-Infinity
-0.9481354,2.5448456,9.046921,0.10961914,-0.08267212,0.0750885,208.0,-1.2006078,2.5488307,9.393209,0.23941171,-0.032963514,-0.30297852,0.07218578,-0.12597145,-0.9862286,2017-07-18 11:03:10,-Infinity
-0.874527,2.5570679,9.322052,-0.02470398,-0.021362305,0.033554077,196.0,-0.9873961,2.5704322,9.412137,0.1052503,-0.012554884,-0.03054142,0.061043322,-0.12801681,-0.98686713,2017-07-18 11:03:11,-Infinity
-0.53408813,2.2709198,9.425674,0.015289307,-0.027359009,0.008071899,190.0,-0.74116063,2.2148085,9.524479,0.18597162,0.07877636,-0.08242035,0.047049284,-0.110331826,-0.9895927,2017-07-18 11:03:12,-Infinity
-3.064804,3.376587,8.6091,-0.010818481,-0.012863159,-0.043807983,266.0,-2.7230816,3.3830419,8.792624,-0.38255715,0.059312344,-0.18615341,0.14535382,-0.17485192,-0.9736849,2017-07-18 11:03:13,-Infinity
-1.1303558,2.642868,9.659912,6.5612793E-4,-0.029251099,0.04623413,206.0,-1.7199464,2.8379729,9.228113,0.5079286,-0.13333654,0.44493294,0.09392112,-0.14379144,-0.98458,2017-07-18 11:03:14,-Infinity
-2.3498535,2.6940613,9.287888,-0.107299805,0.10925293,0.050109863,225.0,-2.0396407,2.8701682,9.152725,-0.34476447,-0.13386941,0.19085884,0.11149055,-0.14460543,-0.9824415,2017-07-18 11:03:15,-Infinity
-2.2035675,2.8581238,9.0260315,0.009628296,-0.0051879883,-0.05632019,229.0,-2.0963116,2.8332548,9.1514225,-0.14645553,0.035277367,0.03997898,0.115106955,-0.14197783,-0.982192,2017-07-18 11:03:16,-Infinity
-2.1621857,2.8698425,9.086868,0.011306763,0.0037384033,0.005142212,236.0,-2.233942,2.9093907,9.094797,0.027107716,0.005828142,-0.056848526,0.120813556,-0.14730406,-0.9811795,2017-07-18 11:03:17,-Infinity
-1.6932526,2.5838776,9.272018,-0.0036315918,-0.027954102,0.013748169,221.0,-1.7792634,2.6065068,9.284973,0.15092206,-0.13357091,0.35791397,0.102819026,-0.1299309,-0.98401296,2017-07-18 11:03:18,-Infinity
-1.673172,2.1489258,9.748978,0.1416626,-0.40699768,-0.27656555,214.0,-1.5742877,1.9666717,9.477564,-0.26215553,0.3505695,-0.5212078,0.09063558,-0.09254158,-0.98662555,2017-07-18 11:03:19,-Infinity
-1.5563354,1.6940002,9.593811,0.10116577,0.1902008,-0.010025024,213.0,-1.1486442,1.7646091,9.577951,0.10359585,-0.088231206,0.09039593,0.06573866,-0.08566683,-0.9911688,2017-07-18 11:03:20,-Infinity
-1.1806335,1.9200592,8.970505,0.10536194,0.21618652,-0.033355713,196.0,-0.59058833,2.1906416,9.540581,-0.5181482,-0.3408916,-0.4931059,0.038876638,-0.10979239,-0.99025255,2017-07-18 11:03:21,-Infinity
-2.59198,3.3355865,8.573456,0.33363342,0.6311493,0.009124756,213.0,-2.0860503,3.1312282,9.056169,-0.55758834,0.029852867,-0.36671925,0.12406635,-0.15123309,-0.97584546,2017-07-18 11:03:22,-Infinity
-0.77211,2.8340454,8.434738,0.1869049,0.30862427,0.12898254,219.0,-1.0626209,2.8650122,9.3184185,0.2055844,-0.1904881,-0.76160526,0.07844639,-0.13689059,-0.97403,2017-07-18 11:03:23,-Infinity
-1.4343567,2.5219574,8.259033,0.29943848,0.29193115,0.124816895,242.0,-1.3637697,2.712823,9.324758,-0.08080542,-0.33268166,-0.9365082,0.09220409,-0.1267599,-0.9745381,2017-07-18 11:03:24,-Infinity
-1.7640839,3.4580688,8.941895,0.05281067,-0.0152282715,-0.11483765,243.0,-1.6191956,3.31283,9.08701,-0.13670397,0.04837346,-0.027152061,0.10459632,-0.16047132,-0.97406477,2017-07-18 11:03:25,-Infinity
-0.1804657,2.9631653,9.510498,0.0037231445,-0.588501,0.15534973,191.0,-0.5691817,3.0538898,9.301622,0.15397346,-0.12616324,0.2960329,0.046852347,-0.1534735,-0.98085403,2017-07-18 11:03:26,-Infinity
-0.9997101,4.8247223,9.182785,0.35394287,0.58735657,0.11251831,164.0,-1.0579306,4.3855886,8.707341,-0.21233934,0.5560875,0.45282936,0.06259887,-0.21397622,-0.9695033,2017-07-18 11:03:27,-Infinity
-1.1552277,2.8835602,9.449173,-0.02885437,0.19664001,0.068237305,211.0,-1.1314219,2.8246553,9.3226385,-0.17890382,0.061765432,0.16988373,0.07347318,-0.1359572,-0.97834694,2017-07-18 11:03:28,-Infinity
-2.4054718,5.066437,7.871643,-0.14978027,-0.06123352,-0.0059661865,346.0,-2.5629814,5.2405157,7.8827987,-0.057010412,-0.002281189,-0.31013346,0.1645467,-0.26648363,-0.9451049,2017-07-18 11:03:29,-Infinity
-1.3381348,3.5006714,9.285461,-0.110305786,0.1951294,0.08677673,193.0,-0.3336002,3.7490819,9.055577,0.039270967,0.042932272,-0.16081047,0.04546221,-0.19033454,-0.97027355,2017-07-18 11:03:30,-Infinity
0.44863892,3.6623688,8.38504,0.20436096,-0.0015563965,0.024368286,176.0,0.358086,3.6080956,9.11174,-0.5424852,0.083413124,0.93785286,0.0032995585,-0.18705574,-0.9744004,2017-07-18 11:03:31,-Infinity
-0.089035034,3.5912018,8.805679,-0.05278015,-0.041046143,-0.048538208,184.0,-0.06709752,3.6242366,9.1121235,-0.093270816,-0.011565447,0.28450298,0.028612342,-0.18599015,-0.97331345,2017-07-18 11:03:32,-Infinity
0.17753601,3.4469604,9.052383,0.13162231,0.038345337,-0.002090454,192.0,-0.10645309,3.6097896,9.117482,-0.2816854,0.3172114,-0.010484695,0.03245877,-0.18461916,-0.97202903,2017-07-18 11:03:33,-Infinity
-0.14001465,3.8476715,9.070374,-0.1559906,0.5817108,-0.35272217,173.0,0.3855377,3.8094816,9.028267,-0.03091544,-0.08509493,0.50495243,-3.9331624E-4,-0.19921435,-0.97516847,2017-07-18 11:03:34,-Infinity
-1.2118225,4.362976,9.186996,-0.3334961,-0.50979614,-0.030654907,219.0,-1.0941437,4.3822722,8.704535,-0.004608512,-0.032929897,0.5824661,0.0875241,-0.23377387,-0.96561205,2017-07-18 11:03:35,-Infinity
-0.59602356,2.782135,9.5381775,-0.017852783,0.105895996,0.048187256,195.0,-0.60155886,2.931043,9.339031,0.074881256,-0.12795901,0.046099663,0.044409823,-0.14788409,-0.98406965,2017-07-18 11:03:36,-Infinity
-1.2307281,1.6687775,10.026855,-0.56921387,-0.1782074,-0.03327942,222.0,-1.3509167,2.0398934,9.496539,-0.068528414,-0.26539624,-0.26215935,0.07828323,-0.09840234,-0.98830396,2017-07-18 11:03:38,-Infinity
-1.1441498,0.30699158,9.828079,0.0016326904,0.05055237,-0.009384155,193.0,-1.0285022,0.36396924,9.745773,-0.024888515,-0.03952703,-0.053639412,0.05521814,-0.0139810415,-0.9953849,2017-07-18 11:03:39,-Infinity
-1.6819,0.59942627,9.61969,0.040863037,0.062408447,-0.0036315918,193.0,-1.6492696,0.5657491,9.6504,-0.0037813187,0.007945716,-0.03812027,0.08648437,-0.022067651,-0.9927737,2017-07-18 11:03:40,-Infinity
-1.5911255,0.43971252,9.844955,-0.02381897,-0.015701294,-0.0051879883,194.0,-1.4905244,0.5397028,9.677678,-0.029721618,-0.18338156,0.19217396,0.07809986,-0.021821499,-0.99390876,2017-07-18 11:03:41,-Infinity
-1.7181549,0.52215576,9.664413,-0.003967285,0.004760742,-6.1035156E-4,202.0,-1.7266687,0.5243719,9.639193,0.028611302,-0.025206566,0.034510612,0.09018328,-0.020122845,-0.99290013,2017-07-18 11:03:42,-Infinity
-1.6854401,0.55007935,9.705063,-0.0045776367,-0.01473999,0.003982544,203.0,-1.7406813,0.5244732,9.636666,0.05622804,0.013633072,0.06902981,0.09099733,-0.01965283,-0.99247694,2017-07-18 11:03:43,-Infinity
-1.5956421,0.48937988,9.599533,-0.003250122,0.0030822754,0.0033111572,200.0,-1.6022644,0.4811539,9.6629,-0.049606442,0.025436133,-0.07361603,0.08363572,-0.018284129,-0.9934148,2017-07-18 11:03:44,-Infinity
-1.5368958,0.4393463,9.663391,0.007003784,-0.007827759,0.0045318604,193.0,-1.5095253,0.4493446,9.67935,-0.038497925,-0.0074288547,-0.020523071,0.078808956,-0.016723229,-0.9935438,2017-07-18 11:03:45,-Infinity
-1.3219757,0.49516296,9.708359,0.021820068,-0.0071105957,0.016113281,179.0,-1.3359413,0.4906283,9.702831,-0.0014724731,0.008850694,-0.0037202835,0.07016469,-0.01924093,-0.9938068,2017-07-18 11:03:46,-Infinity
-1.3034058,0.5383911,9.698349,0.010192871,0.0041656494,0.008056641,185.0,-1.3038937,0.5362844,9.704775,5.67317E-4,0.028115988,-0.022276878,0.06863659,-0.021982556,-0.9941893,2017-07-18 11:03:47,-Infinity
-1.2501831,0.48114014,9.783249,-0.0040130615,-0.013259888,2.593994E-4,184.0,-1.2452136,0.51569766,9.713593,0.0014503002,-0.032663226,0.060489655,0.065588914,-0.021040345,-0.9942548,2017-07-18 11:03:48,-Infinity
-1.145935,0.42823792,9.795853,0.012817383,0.023010254,-0.0063171387,193.0,-1.0697323,0.4149928,9.739294,-0.0741483,0.016731024,0.030936241,0.05617475,-0.01669199,-0.9949895,2017-07-18 11:03:49,-Infinity
-1.0873718,0.45072937,9.727585,0.015274048,0.017211914,0.0034942627,203.0,-1.0791229,0.4369009,9.737299,0.0041177273,0.03134796,-0.030294418,0.05713411,-0.017617881,-0.99464476,2017-07-18 11:03:50,-Infinity
-1.0104523,0.41007996,9.73848,-0.0038452148,-0.020904541,0.024459839,200.0,-0.99454075,0.41745445,9.747154,0.008275151,0.020646602,-0.04671955,0.05245153,-0.016801946,-0.99467033,2017-07-18 11:03:51,-Infinity
-0.8919678,0.38650513,9.775238,0.004135132,0.0045928955,0.0032958984,200.0,-0.87462085,0.38308692,9.760055,0.011594772,0.008090675,-0.0060539246,0.046198465,-0.015537153,-0.9949111,2017-07-18 11:03:52,-Infinity
-0.9460907,0.42034912,9.788803,0.00592041,0.00970459,-0.007904053,206.0,-0.91576403,0.42705563,9.754455,-0.022705257,-0.008536428,0.011014938,0.049020912,-0.017579457,-0.9945214,2017-07-18 11:03:53,-Infinity
-0.7493439,0.5105591,9.755341,0.03955078,0.034973145,0.04449463,210.0,-0.801244,0.5110358,9.760493,0.046904385,0.0057852864,-0.03271389,0.0422159,-0.020761095,-0.99378484,2017-07-18 11:03:54,-Infinity
-0.6816101,0.62835693,9.854324,-0.017303467,-0.015899658,0.013427734,209.0,-0.7058354,0.67249715,9.75807,0.0010645986,-0.018758237,0.017845154,0.039352067,-0.030468188,-0.99353135,2017-07-18 11:03:55,-Infinity
-0.75387573,0.73124695,9.804977,-0.008163452,6.4086914E-4,-4.272461E-4,191.0,-0.75825834,0.7393919,9.749294,-0.014792919,0.008039415,-0.051968575,0.04234869,-0.033629518,-0.99338114,2017-07-18 11:03:56,-Infinity
-0.62809753,0.583786,9.819916,-0.014389038,-0.006011963,-0.0038757324,196.0,-0.63855785,0.5900708,9.768032,0.008493364,-0.0024605393,0.022052765,0.035393767,-0.026202463,-0.9936955,2017-07-18 11:03:57,-Infinity
-0.40229797,0.79422,10.045731,-0.07493591,-0.039611816,0.01713562,190.0,-0.46990916,0.8323852,9.759954,0.06046626,-0.008875072,0.23939705,0.0278283,-0.040080078,-0.9944955,2017-07-18 11:03:58,-Infinity
-0.6938782,1.2381287,9.780685,0.08041382,0.078125,-0.013305664,185.0,-0.70948887,1.2098745,9.705834,0.050400853,0.018807769,0.02553463,0.041529436,-0.058442205,-0.9936161,2017-07-18 11:03:59,-Infinity
-0.51345825,1.1155243,9.375412,0.114212036,0.12528992,0.044448853,182.0,-0.71649104,1.0457704,9.724371,0.21454555,0.06491351,-0.36012363,0.04128326,-0.049907513,-0.9938231,2017-07-18 11:04:00,-Infinity
-0.7678528,1.1644897,9.255264,0.048309326,-0.043563843,-0.0521698,178.0,-0.65634036,1.0615708,9.726905,-0.12672889,0.13969243,-0.485672,0.038255103,-0.051014125,-0.9939542,2017-07-18 11:04:01,-Infinity
-0.6111908,1.0066681,9.7569275,-0.012054443,-0.0077209473,-5.493164E-4,183.0,-0.6301922,1.0250987,9.732544,0.019756973,-0.011976361,0.0053625107,0.036756776,-0.049267523,-0.99408966,2017-07-18 11:04:02,-Infinity
-0.3595581,0.78622437,9.844284,-0.0385437,-0.013214111,0.03363037,177.0,-0.401811,0.805911,9.765216,0.13990292,-0.049464524,0.044436455,0.02416496,-0.039097454,-0.99480176,2017-07-18 11:04:03,-Infinity
-0.76538086,1.0631561,9.3461,0.12120056,0.056732178,-0.04156494,171.0,-0.51418924,0.84474933,9.756659,-0.22205561,0.17238718,-0.41951466,0.03178463,-0.043127935,-0.9945637,2017-07-18 11:04:04,-Infinity
-0.51142883,1.5979309,9.685287,-0.09223938,-0.008270264,0.014694214,163.0,-0.5300952,1.624136,9.656685,0.04777533,-0.09376669,0.36001492,0.03366055,-0.08070349,-0.9930101,2017-07-18 11:04:05,-Infinity
0.20332336,1.1712799,10.826202,-0.15167236,-0.3966217,0.22380066,167.0,-0.40306893,1.3563819,9.704027,-0.3903559,0.09600973,1.5855484,0.026929768,-0.06713482,-0.99310493,2017-07-18 11:04:06,-Infinity
-0.24751282,0.5781555,9.405716,0.10824585,-0.107559204,0.016983032,200.0,-0.42163068,0.47002524,9.786302,0.08125353,0.070806265,-0.40514088,0.029789675,-0.020204583,-0.99062157,2017-07-18 11:04:07,-Infinity
-0.69062805,-0.49783325,9.907333,0.0793457,-0.051986694,-0.013656616,202.0,-0.5524909,-0.61465514,9.771763,-0.19011521,0.063733995,0.10821438,0.024140356,0.034583583,-0.99158835,2017-07-18 11:04:08,-Infinity
-0.005569458,-0.5722046,9.855804,-0.00881958,-0.012069702,-0.008590698,199.0,0.039843455,-0.5081055,9.793397,-0.13857989,-0.18163109,0.037425995,-0.0053731543,0.025433095,-0.9912334,2017-07-18 11:04:09,-Infinity
0.12055969,-0.45547485,9.848175,0.0034332275,0.0019989014,-0.0021820068,193.0,0.07678766,-0.55413413,9.790681,-0.05683247,-0.02506435,0.013365746,-0.0076900665,0.0274788,-0.9904738,2017-07-18 11:04:10,-Infinity
0.13946533,-0.45654297,9.859909,0.0032043457,-0.0032348633,-0.004196167,195.0,0.06845544,-0.5649381,9.790125,0.052823365,0.00439626,0.0059728622,-0.0074951164,0.028042387,-0.9897166,2017-07-18 11:04:11,-Infinity
0.111587524,-0.6032562,9.790298,-4.4250488E-4,-0.0028839111,0.0016021729,196.0,0.08937326,-0.5645808,9.789977,0.021533027,-0.028636456,-0.07463169,-0.008633735,0.027847948,-0.9900064,2017-07-18 11:04:12,-Infinity
0.07720947,-0.59121704,9.886276,0.0010528564,0.001663208,-0.0038604736,195.0,0.0909065,-0.56796724,9.789767,0.0028398782,0.008300781,0.0015363693,-0.008534879,0.02807064,-0.99027747,2017-07-18 11:04:13,-Infinity
0.09416199,-0.585083,9.854599,0.0010070801,-0.0043640137,7.4768066E-4,195.0,0.09396057,-0.5736657,9.789406,0.02127289,0.017632902,-0.007555008,-0.008758171,0.02832862,-0.990127,2017-07-18 11:04:14,-Infinity
0.09326172,-0.55119324,9.915146,9.765625E-4,-0.0014190674,-0.010177612,194.0,0.095680095,-0.57204825,9.789484,-0.005545035,0.021053553,0.04329014,-0.008954223,0.028196836,-0.9895349,2017-07-18 11:04:15,-Infinity
0.075668335,-0.58961487,9.888077,0.00289917,-4.5776367E-5,-0.011520386,205.0,0.103363656,-0.5752219,9.78922,-0.029875435,-0.012810528,0.016536713,-0.0093774,0.028297853,-0.989467,2017-07-18 11:04:16,-Infinity
0.13941956,-0.5243988,9.86203,0.0026855469,-0.0012359619,-0.004119873,205.0,0.12259394,-0.57396287,9.789072,-0.027807243,-0.074104846,-0.06820774,-0.010395272,0.028074728,-0.98917925,2017-07-18 11:04:17,-Infinity
-0.060897827,-0.6430969,9.880005,-5.0354004E-4,0.009216309,0.0032806396,207.0,0.109144524,-0.5771607,9.789042,0.030535378,0.043245256,-0.05708027,-0.010121773,0.028158925,-0.9894315,2017-07-18 11:04:18,-Infinity
-1.3681335,0.5212555,9.318146,0.85839844,0.3769226,-0.16107178,214.0,-0.47793388,-0.36781546,9.788089,-0.039871812,-0.33042568,1.4718552,0.021423606,0.02207726,-0.9891098,2017-07-18 11:04:19,-Infinity
0.4513092,-0.38275146,7.845978,0.61221313,-0.7234955,0.4364624,215.0,1.0413024,-0.7483311,9.722452,-0.44665277,0.08285761,-1.3834867,-0.06022245,0.025810016,-0.9741832,2017-07-18 11:04:20,-Infinity
-1.5009918,-0.14250183,9.723709,-0.018371582,0.008804321,0.0029754639,242.0,-1.4878411,-0.17872067,9.69148,-0.018228054,0.024842188,-0.04606533,0.07138182,0.027869416,-0.96539915,2017-07-18 11:04:21,-Infinity
-1.3747253,-0.19515991,9.711304,0.001449585,0.0042419434,0.016525269,235.0,-1.3750433,-0.19456394,9.707821,0.013932347,0.045834586,-0.057872772,0.06565624,0.026984148,-0.9666205,2017-07-18 11:04:22,-Infinity
-1.6716156,-0.78100586,10.0282135,-0.023834229,0.03904724,-0.12231445,237.0,-1.359755,-0.18933895,9.710077,-0.56287193,-0.6647288,-0.018508911,0.06490608,0.02666529,-0.9661649,2017-07-18 11:04:24,-Infinity
-1.1374664,2.7484741,8.612183,0.41186523,0.5632477,0.09359741,189.0,-0.13217887,2.1834338,9.559578,-0.5886883,0.31516337,-0.966485,0.017529087,-0.110859826,-0.98907197,2017-07-18 11:04:25,-Infinity
-0.9716034,1.7812958,9.524857,-0.030593872,0.06561279,0.033447266,191.0,-0.9599221,1.8929645,9.574217,0.08501154,-0.15446293,0.17124653,0.057811007,-0.09224263,-0.9899863,2017-07-18 11:04:26,-Infinity
-0.8439789,1.6829529,9.701981,0.014877319,0.02796936,0.03277588,196.0,-0.8207787,1.6720836,9.628128,-0.03885287,-0.0084095,0.065608025,0.04890531,-0.081916876,-0.99210185,2017-07-18 11:04:27,-Infinity
0.61187744,3.6905518,8.833405,0.7680969,0.014083862,0.06259155,185.0,1.0506638,2.7206073,9.362947,-1.1441839,-0.01060915,0.2830944,-0.03691298,-0.14580797,-0.9814444,2017-07-18 11:04:28,-Infinity
-0.110824585,2.827301,12.505951,-0.5183563,-0.7489319,-0.07342529,191.0,-0.5098717,2.7503583,9.399253,0.39619154,0.06374502,3.10281,0.04413654,-0.13719863,-0.98147196,2017-07-18 11:04:29,-Infinity
-1.1494904,2.1766205,9.547012,0.012756348,-0.0048675537,-0.12339783,204.0,-1.0260712,2.2721057,9.484467,-0.13014328,-0.08984637,0.18523407,0.062196948,-0.11206402,-0.9883791,2017-07-18 11:04:30,-Infinity
-1.7346954,3.2243042,9.063507,0.19017029,0.15997314,-0.020111084,208.0,-1.620273,3.2357843,9.114538,0.0031741858,0.02271676,-0.26274586,0.09472219,-0.16222085,-0.9801699,2017-07-18 11:04:31,-Infinity
-1.4801178,3.545807,8.810333,0.010147095,0.021957397,-0.025665283,214.0,-1.6041335,3.5671077,8.992935,-0.081406474,-0.041685343,-0.07912254,0.093093514,-0.1809479,-0.9777669,2017-07-18 11:04:32,-Infinity
-1.93396,3.5896149,8.827438,0.13331604,0.33410645,0.06375122,207.0,-1.6105125,3.3867104,9.061282,-0.36333847,-0.050432682,0.16414928,0.09202023,-0.17185889,-0.97969836,2017-07-18 11:04:33,-Infinity
-1.8038025,3.2910461,9.070038,-0.076171875,-0.03440857,-0.010635376,218.0,-1.8326703,3.3479438,9.033437,-0.0020194054,-0.022626162,0.09144688,0.1045525,-0.16879481,-0.9786765,2017-07-18 11:04:34,-Infinity
-1.7453461,2.8521729,9.261734,0.011016846,0.012252808,0.00541687,215.0,-1.6905496,2.8572547,9.227596,-0.033658504,0.0056672096,0.09400654,0.0950791,-0.14312063,-0.98379034,2017-07-18 11:04:35,-Infinity
-1.4692383,2.8007965,9.139526,-0.0018615723,-0.008132935,0.0050964355,209.0,-1.4606687,2.812554,9.28043,-0.02090466,0.010104179,-0.0820303,0.08273418,-0.14221232,-0.98535776,2017-07-18 11:04:36,-Infinity
-1.7138367,2.6757813,9.167801,-0.009567261,0.015487671,-0.0019378662,214.0,-1.7309294,2.798566,9.23809,-0.094103456,-0.0895555,-0.06405926,0.096689984,-0.14014125,-0.98416615,2017-07-18 11:04:37,-Infinity
-1.575592,2.5031586,9.8497925,-0.0496521,-0.01210022,-0.042541504,213.0,-1.5007219,2.4468954,9.377149,-0.11525476,0.12627196,-0.47710133,0.08339339,-0.122245684,-0.9878267,2017-07-18 11:04:38,-Infinity
-2.488083,3.1290894,8.917923,-0.05621338,-0.22563171,-0.21307373,218.0,-2.5190885,3.140916,8.941993,0.042942762,-0.012373686,0.02930832,0.13983966,-0.15664989,-0.9763052,2017-07-18 11:04:39,-Infinity
-1.8006744,2.601532,9.18013,0.021331787,-0.0014190674,0.0021362305,217.0,-1.8297428,2.5699687,9.285348,0.056691766,0.03304267,-0.08820629,0.09913577,-0.12942606,-0.9860193,2017-07-18 11:04:40,-Infinity
-1.2537537,2.4204865,9.248764,-0.0105896,-0.005874634,0.09700012,211.0,-1.4878762,2.479826,9.370543,0.22132635,-0.04559183,-0.06897354,0.082397826,-0.12428145,-0.987817,2017-07-18 11:04:41,-Infinity
-1.6489258,2.4448242,9.29718,0.021835327,0.009750366,0.0037384033,217.0,-1.6573768,2.4851825,9.34063,0.0070459843,-0.03151822,0.018269539,0.09180919,-0.123820506,-0.9868208,2017-07-18 11:04:42,-Infinity
-1.5082397,2.3910217,9.386322,-0.0013427734,0.037612915,0.0030670166,206.0,-1.4483804,2.424375,9.391218,-0.04592502,-0.019497156,-0.20220757,0.08056008,-0.12120721,-0.9882094,2017-07-18 11:04:43,-Infinity
-2.1252747,2.4997253,8.990707,0.0027160645,0.027282715,0.049682617,187.0,-2.342049,2.529968,9.180656,0.1579969,-0.031477213,-0.03385353,0.12499883,-0.12764044,-0.98352385,2017-07-18 11:04:44,-Infinity
-1.9789581,2.5037537,9.161163,-0.08639526,-0.29193115,-0.014816284,207.0,-1.8208843,2.4059305,9.330931,1.553012,0.19892597,0.36236954,0.09583595,-0.12276163,-0.98768723,2017-07-18 11:04:45,-Infinity
-1.5758972,2.3237305,9.391602,-0.009811401,0.0061798096,-0.0068206787,209.0,-1.5752884,2.3332195,9.393878,-0.00713253,0.009977102,-0.01627636,0.081968635,-0.119694084,-0.9893997,2017-07-18 11:04:46,-Infinity
-1.5482941,2.1534271,9.439499,-0.046798706,-0.003112793,0.0012359619,204.0,-1.6490096,2.181927,9.417556,-0.027804017,0.023253202,-0.043049812,0.086849876,-0.11096963,-0.9900145,2017-07-18 11:04:47,-Infinity
-2.8884125,3.3056488,8.360367,0.56614685,0.64875793,0.0909729,213.0,-2.5042417,2.9552145,9.009211,-0.20173812,0.15407944,-0.4782486,-0.12800384,0.15579839,0.97934675,2017-07-18 11:04:48,-Infinity
-2.0907135,2.4044647,9.586884,-0.44555664,-0.18795776,0.2815857,240.0,-2.0453358,2.5131083,9.2558775,-0.2046653,0.06509066,0.33131886,-0.10494442,0.13064547,0.985839,2017-07-18 11:04:49,-Infinity
-1.3743896,1.724411,9.604584,0.056732178,0.063446045,-0.1822815,209.0,-1.6615571,1.882483,9.479761,0.30878794,-0.15635562,0.18583393,0.08926866,-0.09326201,-0.9908232,2017-07-18 11:04:50,-Infinity
-1.831543,1.9365845,9.174362,0.024749756,-0.09744263,0.08560181,227.0,-1.9575146,1.9645401,9.406333,0.25945127,0.21627855,-0.035321236,0.10233286,-0.09969186,-0.98963284,2017-07-18 11:04:51,-Infinity
-1.8088989,2.2130432,9.432556,-0.02796936,-0.10241699,-0.022644043,222.0,-1.8869499,2.1746743,9.374465,0.07805526,-0.051857233,-0.052726746,0.0997415,-0.10994057,-0.98867905,2017-07-18 11:04:52,-Infinity
-1.4531555,2.061386,9.384964,-0.051742554,0.018096924,0.049194336,182.0,-1.8207353,1.8794353,9.451086,0.3808099,0.15710258,-0.018218994,0.096378006,-0.09727886,-0.99038506,2017-07-18 11:04:53,-Infinity
-1.7803497,1.7914581,9.667679,0.05531311,0.004547119,0.05342102,216.0,-2.025172,1.7869253,9.427405,0.3117466,0.119698286,-0.15135098,0.10591235,-0.09010382,-0.9901233,2017-07-18 11:04:54,-Infinity
-1.5623779,1.5766144,9.482803,0.007736206,-0.010498047,-0.006134033,211.0,-1.6023221,1.5756958,9.545687,0.041622162,-0.006946683,-0.026765823,0.08289069,-0.079914294,-0.99327147,2017-07-18 11:04:56,-Infinity
-2.3561096,1.9487,9.427063,0.2771454,0.31204224,-0.01838684,214.0,-2.2452888,1.9712802,9.340403,-0.15500236,0.03763485,0.091900826,-0.106294505,0.094886,0.98976,2017-07-18 11:04:56,-Infinity
1.591629,1.3569794,10.878723,-0.07333374,-0.17835999,1.1949615,220.0,-1.3518318,2.2161276,9.456835,2.8455002,-0.9797063,1.4597654,0.075398214,-0.11023043,-0.9896936,2017-07-18 11:04:58,-Infinity
-1.02771,3.9348297,7.684677,0.49736023,0.48249817,0.7071686,248.0,-1.4844824,3.5360925,9.025672,0.51953566,0.2109983,-1.1977797,0.13556331,-0.14642885,-0.9206749,2017-07-18 11:04:59,-Infinity
-0.64985657,3.150528,9.543808,-0.36439514,-0.4479065,-0.2414856,351.0,-1.1934807,3.394751,9.12259,0.30808806,-0.14242578,0.40994358,0.118832156,-0.14407033,-0.9222978,2017-07-18 11:05:00,-Infinity
-0.62815857,2.132843,11.440872,-0.3193512,-0.46328735,-0.04345703,240.0,-0.5900148,2.0438876,9.573129,0.3102104,-0.8091669,0.022445679,0.063270144,-0.08889977,-0.9379501,2017-07-18 11:05:01,-Infinity
-0.86154175,1.9498444,9.515747,0.3930664,0.24075317,0.0,245.0,-0.72693026,1.8333246,9.606294,-0.13159406,0.13338876,-1.1265831,0.06661365,-0.07601284,-0.93722856,2017-07-18 11:05:02,-Infinity
-0.8422699,1.9107819,9.474121,0.046661377,0.22442627,0.23802185,250.0,-1.3045018,2.2257385,9.461224,0.20926917,-0.036031485,-0.24839973,0.09734023,-0.09020386,-0.9488287,2017-07-18 11:05:03,-Infinity
-1.0945435,2.3250275,9.309952,-0.04827881,0.019744873,0.052841187,285.0,-1.11393,2.3295703,9.460584,-0.09709585,0.02435255,-0.14756584,0.09389786,-0.09498464,-0.9360683,2017-07-18 11:05:04,-Infinity
-0.42529297,2.7733002,9.253265,-0.28103638,0.5179901,0.078186035,243.0,0.13012509,2.9297872,9.357874,-0.18862009,0.117613554,0.53351116,0.03807758,-0.14639442,-0.944679,2017-07-18 11:05:05,-Infinity
-1.7588806,3.3475037,9.053253,-0.006958008,-0.011138916,-0.039138794,366.0,-1.7106926,3.284142,9.080657,-0.07482672,0.08811164,0.021484375,0.13539368,-0.13668908,-0.93736863,2017-07-18 11:05:06,-Infinity
-1.4034271,3.126175,9.122833,0.0,-0.016647339,-0.043823242,312.0,-1.423472,3.1671906,9.171315,0.009791851,-0.023908377,0.03328991,0.11786398,-0.13601896,-0.942139,2017-07-18 11:05:07,-Infinity
-1.219635,2.9133148,9.331177,0.18029785,0.0320282,-0.07165527,345.0,-1.5726349,3.0419567,9.189325,0.30787516,-0.11110973,0.183177,0.12623888,-0.12465366,-0.9358428,2017-07-18 11:05:08,-Infinity
-1.1067657,3.341858,9.007614,-0.009597778,0.0234375,0.0385437,293.0,-1.2709726,3.3788137,9.118039,0.14125586,-0.0046174526,-0.028593063,0.11245384,-0.1498784,-0.9429659,2017-07-18 11:05:09,-Infinity
-2.404129,4.10083,7.6239014,0.08482361,0.06663513,-0.08972168,392.0,-2.009008,3.7527027,8.834676,-0.41145456,0.41853762,-1.1441774,0.15544555,-0.15935363,-0.93654543,2017-07-18 11:05:10,-Infinity
4.23909,3.3612366,7.8861694,0.45851135,-2.2910156,0.39605713,423.0,2.1429224,3.1777897,9.026623,1.1243834,0.1426897,0.4007082,-0.05430322,-0.19188923,-0.9309307,2017-07-18 11:05:11,-Infinity
4.157501,4.852539,7.9203796,0.46865845,0.12205505,0.26913452,150.0,3.421192,4.697101,7.899562,0.8806851,0.29670238,-0.037308693,-0.08048332,-0.29274386,-0.88504535,2017-07-18 11:05:12,-Infinity
5.755493,3.4980927,5.771576,0.10836792,0.17279053,0.83743286,140.0,5.361654,4.988539,6.5220804,0.15739202,-1.2597013,-0.6742511,-0.151307,-0.3802271,-0.8244713,2017-07-18 11:05:13,-Infinity
3.708374,3.2873993,8.113693,-0.33055115,1.7310486,0.69825745,169.0,2.7557838,3.5206394,8.728181,1.1908984,0.20958352,-1.5589962,0.032773126,-0.23219077,-0.6742374,2017-07-18 11:05:14,-Infinity
-1.5828094,6.987442,7.5431824,-0.70695496,-1.5388184,1.6435089,1191.0,-6.055192,4.0550804,6.5621157,-0.17978573,2.2681866,-1.1754718,0.40181777,-0.06298962,-0.8286279,2017-07-18 11:05:15,-Infinity
-2.6560822,2.867218,8.126465,0.21559143,-0.046310425,0.7054901,165.0,-1.143211,3.0913522,9.236178,-1.4912326,-0.22735476,-1.0277243,0.1431689,-0.0926748,-0.7891064,2017-07-18 11:05:16,-Infinity
-0.10307312,2.943344,8.894455,0.43307495,0.7804413,0.4343567,108.0,1.1827134,3.8466868,8.94285,-0.42847586,-0.5796242,0.7334795,0.14230976,-0.15423831,-0.4920063,2017-07-18 11:05:17,-Infinity
-0.5354309,2.771347,7.3033752,0.65023804,-0.12364197,0.100112915,106.0,-0.07437917,3.2380517,9.256343,-0.25934932,-0.59184694,-1.8824015,0.15255395,-0.109470166,-0.5689042,2017-07-18 11:05:18,-Infinity
3.54776,3.2103882,9.15361,0.7542877,-0.9475708,-0.485672,95.0,1.6809212,2.264599,9.392363,1.3273579,0.34445953,0.40903473,0.03975093,-0.13979496,-0.6028701,2017-07-18 11:05:19,-Infinity
8.16304,5.513153,9.0881195,0.16186523,-1.739563,-0.5733185,103.0,3.8534915,4.428023,7.8558006,4.553199,1.4382982,0.96431255,-0.028362019,-0.28887862,-0.7975734,2017-07-18 11:05:20,-Infinity
3.100235,2.8851318,6.263962,0.3349762,-0.95677185,-0.1565094,184.0,2.9384007,4.4670153,8.220825,1.1688621,-1.0496702,-2.0481224,-0.11256719,-0.26111916,-0.9441083,2017-07-18 11:05:21,-Infinity
1.533081,3.8612366,5.999527,0.103652954,-0.31004333,-0.47253418,208.0,2.7279027,4.705252,8.160241,-1.1647651,-0.803463,-2.1041107,-0.10603536,-0.26962936,-0.9462584,2017-07-18 11:05:22,-Infinity
2.909607,5.137863,9.286835,-0.1111145,0.094818115,-0.081588745,202.0,2.0529196,3.7647436,8.819446,0.822361,1.2727551,0.5651598,-0.06203144,-0.21560505,-0.9512142,2017-07-18 11:05:23,-Infinity
-0.7749481,4.9775085,7.93338,-0.060028076,0.4413452,-0.3480835,162.0,0.7289136,4.171414,8.845246,-1.4165167,0.8388643,-0.85091496,-0.0012787285,-0.22139631,-0.9615809,2017-07-18 11:05:24,-Infinity
-0.5059509,4.4501343,11.7569275,-0.42893982,-0.38885498,-0.040405273,145.0,0.34972697,3.5155687,9.148161,-0.8997406,0.95116615,2.6142664,0.01588537,-0.18254109,-0.9661213,2017-07-18 11:05:25,-Infinity
1.5969238,4.1262817,9.988083,0.0050201416,-2.5137787,-0.4703064,160.0,1.5446973,3.522822,9.020755,-0.79634285,0.6028774,1.2249651,-0.055369176,-0.19236359,-0.97111094,2017-07-18 11:05:26,-Infinity
0.32440186,3.006775,9.628891,0.9043579,0.83291626,0.24342346,188.0,2.2622406,2.7705426,9.131087,1.0716174,1.7540815,1.6704292,-0.08614889,-0.16438524,-0.96264243,2017-07-18 11:05:27,-Infinity
0.6769562,2.1610413,10.072815,0.24464417,0.23757935,-0.068618774,199.0,1.8453739,3.1905794,9.087639,-0.97398865,0.30326056,1.2270746,-0.061798733,-0.18121886,-0.96275985,2017-07-18 11:05:28,-Infinity
-0.43003845,2.2207794,9.00975,-0.2932129,0.32450867,0.212677,189.0,2.0185997,3.566802,8.909184,-2.2954943,-0.98056006,1.6192818,-0.08632421,-0.19571957,-0.9720114,2017-07-18 11:05:29,-Infinity
-0.06201172,-1.3869019,11.160507,-1.8890228,0.2132721,0.63835144,176.0,2.4039152,1.2957852,9.418733,-2.3911133,-1.8176265,1.6060743,-0.11675227,-0.047637057,-0.9807427,2017-07-18 11:05:30,-Infinity
-0.5436249,1.4265594,6.4666443,1.0858307,0.46757507,0.7107239,172.0,1.1021968,2.6559334,9.375584,-1.4165647,-1.4545639,-2.8705006,0.004184967,-0.16434485,-0.94970065,2017-07-18 11:05:31,-Infinity
-0.41325378,2.2219543,8.475861,-0.32054138,0.30767822,0.92355347,150.0,0.95010513,3.4073806,9.146444,-1.8543785,-1.3066092,0.8666611,0.05592613,-0.17473808,-0.82135516,2017-07-18 11:05:32,-Infinity
1.924408,4.057907,8.225327,0.28912354,0.82418823,0.45454407,83.0,0.9947626,2.979621,9.289925,0.9034201,1.0844502,-1.0664568,0.08613257,-0.13757494,-0.62748885,2017-07-18 11:05:33,-Infinity
-1.1316376,1.6732635,5.458893,-0.083602905,-0.58914185,0.53318787,87.0,1.1246686,1.179951,9.670223,0.24472487,-0.23805934,0.9528637,0.021097725,-0.08068895,-0.5239525,2017-07-18 11:05:34,-Infinity
0.48078918,3.5528412,10.943939,0.41088867,-0.31848145,-0.14680481,83.0,1.0491241,3.3744593,9.147828,-0.40633202,0.093975544,1.7782335,0.10915866,-0.14722426,-0.5802493,2017-07-18 11:05:35,-Infinity
2.4773254,0.8005371,10.583633,0.6148987,0.64305115,0.3142395,100.0,3.6882803,1.914227,8.88272,-0.7195766,-1.3659923,1.4884739,-0.029001314,-0.21509594,-0.561414,2017-07-18 11:05:36,-Infinity
2.416916,1.2516327,8.682449,0.60194397,0.27981567,0.32496643,48.0,3.0335846,2.3964148,9.012488,-0.50623775,-1.1428704,-0.43926716,0.036066525,-0.19796512,-0.45959866,2017-07-18 11:05:37,-Infinity
-2.1184845,2.954071,9.68811,-0.0030212402,0.520874,0.12413025,22.0,0.9104606,3.871922,8.963798,-2.7465127,-0.97836256,0.6869831,0.15512882,-0.13750842,-0.4641182,2017-07-18 11:05:38,-Infinity
-0.83192444,2.408081,7.8075714,0.56134033,-0.17190552,0.051208496,14.0,0.80965775,3.9795177,8.92627,-1.6677291,-1.8367324,-1.0156622,0.17303805,-0.122248806,-0.3934543,2017-07-18 11:05:39,-Infinity
-1.3150787,1.6063843,8.556763,0.115753174,0.55462646,0.26435852,13.0,0.9735541,3.4007566,9.146444,-2.217104,-1.8542073,-0.5732622,0.12869002,-0.13076708,-0.48381895,2017-07-18 11:05:40,-Infinity
2.3745422,2.7867432,7.114273,0.3751068,-0.735199,0.29737854,15.0,1.4912509,1.9665807,9.491002,0.31591654,0.7070899,-2.2146816,0.047420572,-0.11766422,-0.5090484,2017-07-18 11:05:41,-Infinity
4.117798,2.5044403,7.2087555,0.5089874,-0.49020386,0.53274536,22.0,1.945146,2.173353,9.36287,1.9264016,0.52948296,-2.11911,0.030530013,-0.14729024,-0.5875167,2017-07-18 11:05:42,-Infinity
5.2156525,4.0007477,9.268066,0.20700073,0.21948242,0.89793396,34.0,2.0009668,3.3900502,8.981875,3.041975,0.7593546,0.3384695,0.06513125,-0.19444728,-0.64121795,2017-07-18 11:05:43,-Infinity
1.5989075,0.75891113,10.532394,0.17861938,-0.44752502,-1.7055664,35.0,0.99848986,3.0687022,9.260479,0.7557161,-2.2439454,0.84557724,0.054744113,-0.15763901,-0.7856251,2017-07-18 11:05:44,-Infinity
-1.8080292,0.679245,10.445023,-0.20799255,-0.0027008057,-0.31349182,7.0,-0.37192082,1.4334369,9.69419,-1.4352548,-0.7393377,0.7614126,-0.015864996,0.070203446,0.9945539,2017-07-18 11:05:46,-Infinity
-0.3095703,1.52594,9.310135,0.1374054,-0.05822754,0.1560669,5.0,-0.5021568,1.7806828,9.630545,0.24888158,-0.22856796,-0.30596638,-0.018073099,0.0901325,0.989171,2017-07-18 11:05:47,-Infinity
-0.02029419,2.9272308,9.130096,0.082351685,-0.024353027,0.12428284,8.0,0.17401834,2.9645584,9.346203,-0.09658837,-0.13017249,-0.16939545,0.022593286,0.15154485,0.98424894,2017-07-18 11:05:48,-Infinity
-0.7754364,2.8071136,9.560577,-0.16882324,-0.10656738,0.009979248,8.0,0.8203162,3.0574439,9.281675,-1.5108941,-0.23309517,0.3210945,0.06360303,0.14750372,0.97737914,2017-07-18 11:05:49,-Infinity
2.6952057,2.7125397,7.73555,0.56147766,-0.7397461,-0.3923645,7.0,1.3870755,4.540091,8.581024,1.4651017,-1.7176828,-0.90092945,0.0818079,0.21589708,0.96743804,2017-07-18 11:05:50,-Infinity
0.5866852,0.107803345,10.358032,-0.1580658,0.83418274,1.5315704,15.0,1.304774,3.1135414,9.20727,-1.6256927,-1.3276029,1.293663,0.093874454,-0.14747031,-0.56169647,2017-07-18 11:05:51,-Infinity
2.4110107,4.532837,9.815277,-0.20614624,0.6381073,0.070251465,23.0,1.4657484,4.40562,8.637852,0.9021119,0.25762272,1.1576672,0.24270594,-0.051001057,0.1582482,2017-07-18 11:05:52,-Infinity
0.15916443,2.5213623,9.994858,-0.0929718,0.025512695,0.33607483,30.0,0.8749028,2.549752,9.428876,-0.63924336,0.064138174,0.5651903,0.13020669,0.047601532,0.63470906,2017-07-18 11:05:53,-Infinity
-0.89567566,1.5077667,9.762466,0.23266602,0.15989685,0.93618774,25.0,0.55508244,2.048535,9.574224,-1.3432164,-0.5799935,0.20413017,0.0822518,0.07822035,0.84439456,2017-07-18 11:05:54,-Infinity
0.41281128,4.7693634,10.533722,-0.0771637,0.44366455,0.39746094,41.0,-0.24425483,3.359839,9.209897,0.8273994,1.3859885,1.3299713,0.028758276,-0.17204328,-0.9804093,2017-07-18 11:05:55,-Infinity
-0.99057007,6.5511017,8.263626,0.844162,0.31510925,-0.34371948,79.0,0.2294982,4.6500344,8.6310425,-1.08514,1.6171355,-0.18653297,0.025315069,0.24351273,0.9681397,2017-07-18 11:05:56,-Infinity
0.75297546,4.791794,9.810272,0.22653198,-1.6996155,-0.55648804,211.0,0.82085663,4.589969,8.627211,-0.16595507,0.19037008,1.2663012,0.12186669,0.21279846,0.91295356,2017-07-18 11:05:57,-Infinity
-0.0050354004,4.7273254,11.414001,-0.7843628,-0.4032135,0.042648315,184.0,0.14702974,4.2659044,8.828977,-0.082755215,0.6570163,2.524497,0.10715838,0.19586872,0.8707536,2017-07-18 11:05:58,-Infinity
-0.95643616,5.2100983,8.209076,-0.12983704,0.06713867,0.36972046,165.0,-0.6305353,4.802179,8.527126,0.49826932,0.8114481,0.66327286,0.07978902,0.242634,0.87131035,2017-07-18 11:05:59,-Infinity
-1.6614227,4.248474,8.193161,-0.33744812,0.6214905,0.21827698,98.0,-0.32275757,4.4098577,8.753249,-0.58989936,-0.15704536,-0.6181803,0.016944714,0.23113066,0.96239156,2017-07-18 11:06:00,-Infinity
-1.3404541,1.4173889,10.575165,-0.7075043,-0.15010071,0.8384094,141.0,-1.8821977,1.6168038,9.487554,2.1355555,-0.68383884,0.9052019,0.12113824,-0.039936762,-0.91688746,2017-07-18 11:06:01,-Infinity
-2.4515991,1.2976227,8.851837,0.49171448,-0.092437744,0.13749695,199.0,-2.0701818,0.9964995,9.533715,-0.28645396,0.03805077,-0.62810326,0.121908076,-0.0020292657,-0.84377015,2017-07-18 11:06:02,-Infinity
-0.54678345,1.8013916,9.7859955,-0.10961914,0.15141296,0.13331604,141.0,-1.3152024,1.5660573,9.5910425,0.8336127,0.01715517,0.29593658,0.09675894,-0.038905993,-0.8550439,2017-07-18 11:06:03,-Infinity
2.3640747,2.0340881,9.918716,0.21356201,-0.61735535,0.40473938,156.0,-0.85064584,2.4273274,9.463344,0.957183,-0.16934872,0.041535378,0.11353926,-0.06791614,-0.7615245,2017-07-18 11:06:04,-Infinity
-0.68637085,1.4959564,10.1419525,0.1638794,-0.15950012,0.018676758,235.0,-1.3016756,1.2603468,9.637819,0.6063801,-0.15111864,0.6731539,0.09256295,0.006332118,-0.66638315,2017-07-18 11:06:05,-Infinity
-0.17633057,3.0468597,10.030563,0.13479614,-0.2244873,0.03012085,169.0,-0.64452183,3.1206448,9.274511,1.087829,0.21478415,-0.45701885,0.14359538,-0.080696404,-0.64715254,2017-07-18 11:06:06,-Infinity
-1.32341,4.6282806,8.162949,0.38128662,-0.043319702,-0.31941223,230.0,-1.2386429,4.280853,8.735585,0.11144042,0.21674967,-0.4499836,0.20563565,-0.11100942,-0.6814939,2017-07-18 11:06:07,-Infinity
-1.4721832,4.6344604,8.327362,0.040390015,0.019607544,-0.023788452,287.0,-1.5805025,4.7247105,8.446864,-0.028697252,0.017688274,-0.14745331,0.23119405,-0.12601236,-0.706563,2017-07-18 11:06:08,-Infinity
-1.529541,4.298279,8.011505,-0.22497559,-0.20126343,-0.0024261475,309.0,-1.7099965,4.715327,8.426862,0.536453,-0.066511154,0.19738197,0.23435552,-0.124206014,-0.71490586,2017-07-18 11:06:09,-Infinity
-0.73599243,3.0602722,8.385239,0.012893677,-0.10890198,-0.71676636,199.0,-1.5204347,3.0273817,9.202914,0.79597104,0.038937807,-0.7698946,0.15674435,-0.07882376,-0.789996,2017-07-18 11:06:10,-Infinity
4.970642,-1.201889,8.463272,-0.8654785,4.4541473,-0.19166565,105.0,-1.4950756,0.45558307,9.6813,5.305468,-2.1325703,-1.0301437,0.019453028,-0.066495605,-0.5291816,2017-07-18 11:06:11,-Infinity
-1.3891754,-0.31781006,12.038864,-0.8141937,-1.0354309,0.39239502,415.0,-2.9160292,0.34252858,9.356807,-1.8198609,-0.32159945,0.24479389,0.11586962,0.09751849,-0.6768498,2017-07-18 11:06:12,-Infinity
4.516556,-2.3194275,8.687027,-0.70181274,-2.435852,1.9558411,252.0,-0.0023412923,-1.9174626,9.617366,2.838719,-0.6760173,-0.4271431,-0.09053189,0.038141944,-0.3852599,2017-07-18 11:06:13,-Infinity
0.10520935,-0.44003296,10.68631,0.07286072,0.44847107,-0.04019165,323.0,0.19213639,0.3415534,9.798817,0.19121392,-0.2376616,0.44771194,0.00940838,-0.017631464,-0.53801143,2017-07-18 11:06:14,-Infinity
-0.07766724,-0.3814392,9.84761,-2.4414063E-4,-1.9836426E-4,-0.0018463135,200.0,0.01764248,-0.14401707,9.805576,0.06689611,-0.15533319,-0.015053749,-0.0065884,0.0033648515,-0.5597355,2017-07-18 11:06:15,-Infinity
-0.065582275,-0.36965942,9.828384,-4.4250488E-4,-1.9836426E-4,-8.544922E-4,202.0,-0.05445972,-0.34027869,9.800593,0.013702825,-0.017496467,-0.0064668655,-0.012696564,0.01184186,-0.55904347,2017-07-18 11:06:16,-Infinity
-0.08564758,-0.34802246,9.751175,7.6293945E-4,3.9672852E-4,-8.544922E-4,214.0,-0.0627871,-0.3693634,9.799491,-0.022740714,0.027801037,-0.07563686,-0.013846453,0.013164809,-0.55774575,2017-07-18 11:06:17,-Infinity
-0.051757813,-0.3710785,9.820572,-4.4250488E-4,-1.9836426E-4,-8.544922E-4,194.0,-0.05879794,-0.37549618,9.799282,0.005462609,0.0059168637,-9.822845E-4,-0.014215198,0.013175226,-0.5580181,2017-07-18 11:06:18,-Infinity
-2.8707275,0.66845703,9.530731,0.8048248,0.009628296,1.4414215,433.0,-2.9814193,1.3121929,9.249847,0.2559924,-0.26254398,0.22958565,0.14522055,0.08544025,-0.57623494,2017-07-18 11:06:19,-Infinity
4.161438,0.8575897,9.518707,-0.72488403,0.18589783,1.034378,75.0,3.4687133,1.5685953,9.037584,2.133482,0.8769307,5.348999,-0.06556947,-0.1868478,-0.6768342,2017-07-18 11:06:20,-Infinity
0.8113556,2.6962433,8.329926,-0.12298584,-0.14450073,0.45433044,220.0,-0.0742631,2.6194372,9.450048,0.79498804,0.15052867,-1.1301394,0.1070703,-0.08196075,-0.62434524,2017-07-18 11:06:21,-Infinity
-1.1941681,3.156311,9.068192,-0.009094238,0.017562866,0.013092041,329.0,-1.2182211,3.0592663,9.237273,-1.5437603E-4,0.13434243,-0.15275097,0.16227038,-0.051946826,-0.62629914,2017-07-18 11:06:22,-Infinity
-1.2535095,2.9294739,9.875671,-0.032562256,-0.056106567,0.08692932,293.0,-1.2627605,2.776941,9.320108,0.014429092,0.19416428,0.5849991,0.15189193,-0.041660108,-0.6319927,2017-07-18 11:06:23,-Infinity
-1.5951233,3.4460297,8.548416,0.22087097,-0.07501221,0.09259033,350.0,-1.1213204,3.734064,8.998322,0.32539284,0.1542697,0.27588272,0.18296778,-0.06848995,-0.6205548,2017-07-18 11:06:24,-Infinity
-0.5038147,3.960968,7.881027,0.07270813,-0.01184082,-0.04425049,404.0,-0.06593533,4.975467,8.450489,-0.56505054,-1.0809517,-0.41965103,0.22033733,-0.14351457,-0.5372371,2017-07-18 11:06:25,-Infinity
0.6710205,4.883026,8.361755,-0.0041503906,-0.017730713,0.013809204,348.0,0.5591381,4.8515635,8.504122,0.003546238,-0.0071997643,-0.009674072,0.19827108,-0.16461788,-0.52804464,2017-07-18 11:06:26,-Infinity
0.66407776,4.8154755,8.440842,-0.01512146,0.026428223,-0.008651733,336.0,0.639471,4.853152,8.497552,-0.080111444,-0.008140564,0.03282833,0.1959378,-0.16838595,-0.5285362,2017-07-18 11:06:27,-Infinity
0.5360718,4.717331,8.505325,-0.0060577393,0.008590698,0.00340271,343.0,0.55171233,4.7634325,8.55428,0.024550796,0.013065338,-0.0314579,0.19358407,-0.16241398,-0.53246677,2017-07-18 11:06:28,-Infinity
0.4957428,4.680374,8.55397,-0.0016784668,-0.0022125244,0.0048217773,344.0,0.52781105,4.7231216,8.578108,0.05315417,0.01995182,3.3283234E-4,0.19240937,-0.16005275,-0.5326577,2017-07-18 11:06:29,-Infinity
0.503479,4.6770325,8.549896,-0.005859375,0.0012512207,-8.544922E-4,341.0,0.52602524,4.7061234,8.587554,0.012131333,0.0100541115,-0.022512436,0.19172496,-0.15936793,-0.5324872,2017-07-18 11:06:31,-Infinity
-2.080124,3.2475586,9.682877,0.26930237,-0.19119263,0.02130127,375.0,-1.5713323,3.6177528,8.978483,0.25871527,0.20316124,-1.4970751,0.202237,-0.036399845,-0.5427255,2017-07-18 11:06:32,-Infinity
-0.6129761,3.784958,8.9348755,0.07896423,-0.123916626,0.066986084,460.0,-0.6242071,3.8232522,9.009078,0.118285894,0.10503149,-0.036999702,0.18279131,-0.08806532,-0.54537034,2017-07-18 11:06:33,-Infinity
-0.050247192,3.4210815,9.075302,-0.06828308,0.056915283,-0.015151978,315.0,0.028546385,3.49229,9.163705,0.08627221,0.002904892,0.1943903,0.14976504,-0.10174247,-0.5459855,2017-07-18 11:06:34,-Infinity
-0.30197144,3.2966766,9.260254,0.0056762695,-0.017959595,0.0018157959,327.0,-0.12040441,3.3890219,9.2016535,0.19427864,0.057656527,-0.022385597,0.15025255,-0.090941906,-0.5393335,2017-07-18 11:06:35,-Infinity
0.010772705,3.3976746,9.206863,-3.8146973E-4,0.012268066,0.045837402,332.0,-0.09177625,3.387695,9.202472,-0.10941944,-0.022533655,-0.06504059,0.14931783,-0.091296256,-0.54106396,2017-07-18 11:06:36,-Infinity
-0.19000244,3.3524475,9.199127,-0.035369873,0.039215088,-0.022369385,311.0,-0.032879293,3.4113042,9.194145,-0.16388683,-0.044188023,0.05653286,0.14924291,-0.096345454,-0.5343582,2017-07-18 11:06:37,-Infinity
-0.09718323,3.3475494,9.222534,-0.005783081,-0.007080078,-0.021194458,310.0,-0.025506722,3.4080787,9.195365,-0.039354704,-0.020183802,-0.013645172,0.14867695,-0.09519474,-0.5369399,2017-07-18 11:06:38,-Infinity
-0.04449463,3.3819427,9.155701,8.087158E-4,0.0021972656,0.0045166016,303.0,-0.036155373,3.392839,9.200963,-0.00827549,0.0063824654,0.0034637451,0.14808749,-0.09461256,-0.5388251,2017-07-18 11:06:39,-Infinity
-0.041915894,3.380371,9.136627,7.6293945E-4,0.0014190674,-8.392334E-4,306.0,-0.031586375,3.4011989,9.197893,-0.009104982,-8.530617E-4,-0.010169983,0.14843749,-0.09489093,-0.53786886,2017-07-18 11:06:40,-Infinity
0.063308716,3.4404755,9.123169,0.01449585,-0.023330688,0.012573242,313.0,0.024546297,3.4465003,9.181036,0.0426203,0.01781106,-0.010305405,0.14878795,-0.09879067,-0.5383987,2017-07-18 11:06:41,-Infinity
-0.13908386,3.3431244,9.161835,-0.01953125,0.026428223,-0.027511597,314.0,-0.008324147,3.4087713,9.19514,-0.12846908,-0.044537306,0.01932621,0.14800213,-0.09630015,-0.5388252,2017-07-18 11:06:42,-Infinity
-0.071899414,3.3817291,9.109695,-0.014724731,0.0149383545,-0.03303528,319.0,0.0023041938,3.4140484,9.193185,-0.05972302,-0.012200117,0.036862373,0.14829814,-0.09636217,-0.5357167,2017-07-18 11:06:43,-Infinity
0.07157898,3.399475,9.072968,-3.6621094E-4,0.0050201416,4.272461E-4,322.0,-0.05946232,3.3615623,9.212316,-0.07965925,-0.01650381,0.04603958,0.14747865,-0.09248079,-0.53782696,2017-07-18 11:06:44,-Infinity
0.034469604,3.3943634,9.0933075,0.008163452,-0.018203735,0.0037231445,328.0,-0.04208453,3.3825762,9.204716,-0.10448031,-0.03399992,0.042126656,0.1483041,-0.09299762,-0.53502315,2017-07-18 11:06:45,-Infinity
0.13601685,3.4322205,9.082962,0.025665283,-0.018188477,0.029327393,331.0,-0.05277033,3.3689594,9.209654,0.028078284,0.01684618,-0.011007309,0.14740436,-0.09332909,-0.53970224,2017-07-18 11:06:46,-Infinity
0.03201294,3.3876495,9.118408,0.0041503906,-0.010726929,0.009460449,330.0,-0.04594835,3.3734987,9.208028,0.07676092,0.02961111,-0.048438072,0.1473811,-0.09380853,-0.5399649,2017-07-18 11:06:47,-Infinity
-0.04043579,3.3639526,9.173874,0.0019836426,-0.0038146973,0.0040130615,329.0,-0.05892282,3.3680446,9.20995,0.01583853,0.009838104,0.0038394928,0.14776133,-0.09268116,-0.5377259,2017-07-18 11:06:48,-Infinity
-0.055892944,3.3337402,9.16658,-0.002319336,-1.9836426E-4,-1.373291E-4,333.0,-0.06972434,3.348596,9.216965,0.012693226,0.0017883778,-0.008814812,0.14676383,-0.09233628,-0.54169506,2017-07-18 11:06:49,-Infinity
-0.029678345,3.3712158,9.134796,0.0051727295,0.0030670166,0.021118164,332.0,-0.08308188,3.3534508,9.215088,0.04591646,0.025643587,-0.037675858,0.14736369,-0.09189779,-0.5416475,2017-07-18 11:06:50,-Infinity
-0.091049194,3.3069305,9.252487,-0.008575439,0.00592041,-0.0020751953,338.0,-0.07780799,3.3422093,9.219217,0.013057247,-0.0043911934,0.013237953,0.14666325,-0.091872886,-0.54213864,2017-07-18 11:06:51,-Infinity
-0.079055786,3.322403,9.162384,-0.0012969971,-0.0021362305,3.6621094E-4,339.0,-0.10463331,3.3186827,9.2274475,-0.016056933,9.756088E-4,-0.0016393661,0.14606607,-0.09053081,-0.54510516,2017-07-18 11:06:52,-Infinity
-0.113357544,3.3030853,9.190384,-4.4250488E-4,5.493164E-4,-3.8146973E-4,337.0,-0.09905459,3.3150823,9.228803,-0.015208222,0.0018694401,0.0010280609,0.1456922,-0.090667196,-0.54542273,2017-07-18 11:06:53,-Infinity
-0.15647888,3.2870178,9.181137,-0.013931274,0.012664795,-0.013412476,337.0,-0.11521135,3.2950785,9.235777,-0.048798457,4.3153763E-5,-0.012366295,0.14548483,-0.089894764,-0.54439676,2017-07-18 11:06:54,-Infinity
-0.13191223,3.2543335,9.205246,0.007095337,-0.010299683,0.0063171387,340.0,-0.16869502,3.2503989,9.250775,0.03849046,0.019883633,-0.0077905655,0.14525393,-0.08574934,-0.5406527,2017-07-18 11:06:55,-Infinity
-0.16732788,3.2421265,9.217941,-0.010116577,0.017501831,-0.005432129,331.0,-0.16987829,3.2495372,9.251056,-0.07140075,-0.003098011,0.021997452,0.14525609,-0.08501818,-0.5416644,2017-07-18 11:06:56,-Infinity
-0.20553589,3.205185,9.239777,-0.00819397,0.0071258545,-0.0015258789,327.0,-0.17127252,3.2438347,9.253032,0.003964618,5.5360794E-4,0.009469986,0.14501949,-0.084829524,-0.5419086,2017-07-18 11:06:57,-Infinity
-0.15934753,3.2243347,9.2109375,-0.002670288,-0.0016479492,-0.0031738281,319.0,-0.17054823,3.2351584,9.256082,-0.012222886,-0.0067784786,-0.009400368,0.144835,-0.08422934,-0.5407469,2017-07-18 11:06:58,-Infinity
-0.16104126,3.2312775,9.214905,-0.0032653809,0.00340271,-2.746582E-4,299.0,-0.15798686,3.2454362,9.252707,-0.0034304112,-0.0018656254,-0.004839897,0.14517596,-0.084659435,-0.5374058,2017-07-18 11:06:59,-Infinity
-0.11642456,3.2503815,9.194351,3.0517578E-4,5.340576E-4,0.004760742,288.0,-0.16309234,3.23555,9.25608,0.047737643,0.025779247,-0.03061676,0.14473923,-0.08439108,-0.53881794,2017-07-18 11:07:00,-Infinity
-0.09132385,3.2712402,9.193192,0.0040740967,-0.006942749,0.0037384033,281.0,-0.14765619,3.2494595,9.251465,0.05367881,0.031258583,-0.026936531,0.14530899,-0.08480496,-0.53500324,2017-07-18 11:07:01,-Infinity
-0.09477234,3.2593536,9.1861725,0.0054473877,-0.011199951,0.0052490234,276.0,-0.15416941,3.2494621,9.251357,0.063346714,0.02487278,-0.031159401,0.14561827,-0.084305204,-0.53376615,2017-07-18 11:07:02,-Infinity
-0.20663452,3.1963959,9.277176,-0.010467529,0.010574341,-0.007171631,267.0,-0.17135184,3.2368085,9.25549,-0.032937422,-0.026438951,0.055296898,0.14514312,-0.08387382,-0.5376914,2017-07-18 11:07:03,-Infinity
-0.19212341,3.214981,9.226944,-0.0048217773,0.0058288574,-0.0031433105,267.0,-0.18154208,3.2221215,9.260419,-0.016864866,-5.879402E-4,0.013085365,0.1444958,-0.08349248,-0.54053134,2017-07-18 11:07:04,-Infinity
-0.09184265,3.2467194,9.18277,0.0029144287,-0.002822876,0.0039367676,271.0,-0.1962714,3.2115564,9.263788,-0.04835148,-0.01538825,0.020238876,0.144223,-0.08293361,-0.54277664,2017-07-18 11:07:05,-Infinity
-0.16920471,3.2192688,9.254272,7.6293945E-4,-0.0014190674,6.5612793E-4,268.0,-0.18508115,3.2168887,9.262168,-0.023170784,0.0044112206,-0.010466576,0.14431372,-0.083273076,-0.5410463,2017-07-18 11:07:06,-Infinity
-0.1872406,3.2077637,9.267288,-0.0026550293,0.0054626465,4.8828125E-4,266.0,-0.1672432,3.2240398,9.260021,-0.01508294,-0.0043418407,0.036208153,0.14412203,-0.0840851,-0.5420066,2017-07-18 11:07:07,-Infinity
-0.18907166,3.2235718,9.224182,-0.0011444092,0.0010223389,0.0026855469,269.0,-0.17794226,3.221093,9.260847,-0.00959371,0.013216734,-0.011210442,0.14442183,-0.083522186,-0.5391238,2017-07-18 11:07:08,-Infinity
-0.1578064,3.2113953,9.200623,-0.0021820068,0.0050201416,2.1362305E-4,278.0,-0.19224946,3.218169,9.261578,0.034356773,0.0038142204,-0.032666206,0.14478496,-0.08240417,-0.53906715,2017-07-18 11:07:09,-Infinity
-0.21665955,3.1984558,9.229599,0.0012512207,-0.0027618408,0.0022583008,283.0,-0.21099554,3.2001355,9.267416,-0.005878225,0.008700371,-0.0072345734,0.14441428,-0.08149076,-0.53981525,2017-07-18 11:07:10,-Infinity
-0.174057,3.2814026,9.224609,0.037734985,-0.058776855,0.018966675,282.0,-0.10259153,3.2806447,9.241062,0.19216996,0.059401274,0.14480305,0.14478657,-0.08873446,-0.54095954,2017-07-18 11:07:11,-Infinity
0.35923767,3.635788,9.165131,-0.10925293,0.057525635,-0.11778259,255.0,0.38239345,3.6676424,9.086945,-0.015286237,-0.015255928,0.09738445,0.14942415,-0.11986323,-0.5314349,2017-07-18 11:07:12,-Infinity
0.21038818,3.4707947,9.150421,-0.0013427734,-7.4768066E-4,-8.544922E-4,248.0,0.2746582,3.489676,9.160628,0.036393672,0.008379221,0.0056114197,0.14329132,-0.111380175,-0.5407319,2017-07-18 11:07:13,-Infinity
0.21484375,3.5048218,9.13121,0.0066375732,-0.0024108887,-0.0050354004,268.0,0.22868599,3.510946,9.153761,-0.012559205,0.0033848286,-0.0018434525,0.14547816,-0.109829746,-0.5404866,2017-07-18 11:07:14,-Infinity
0.15872192,3.442627,9.1571045,-0.007736206,0.0019378662,0.015945435,197.0,0.15435016,3.4359534,9.183724,-0.050343856,-0.004796028,-0.009863853,0.14402708,-0.10495993,-0.5432536,2017-07-18 11:07:15,-Infinity
1.6588135,2.023285,7.663727,1.1907349,1.1126709,0.870697,153.0,2.5778887,1.2211018,9.382632,1.1589563,0.41240382,-0.95829105,-0.016749501,-0.14607653,-0.5225077,2017-07-18 11:07:17,-Infinity
-0.02557373,2.5311584,9.514404,0.17323303,-0.110305786,0.025253296,232.0,-0.028056936,2.3094213,9.530802,-0.25878915,-0.072058916,-0.4020939,0.09796208,-0.066841654,-0.5695658,2017-07-18 11:07:18,-Infinity
-0.7306671,2.2262115,9.585449,-0.11431885,0.095962524,0.017929077,254.0,-0.4568484,2.2251368,9.539939,-0.33105084,-0.13708925,0.08972931,0.107216485,-0.04585948,-0.56625116,2017-07-18 11:07:19,-Infinity
-1.0117188,2.0812073,9.4151,-0.011795044,0.082717896,0.0014038086,278.0,-0.833945,1.9312651,9.578368,-0.18374044,0.086800575,-0.13896275,0.10547462,-0.022676928,-0.57716,2017-07-18 11:07:20,-Infinity
-1.0057983,2.2068634,9.55983,-0.012619019,0.03437805,-0.060455322,299.0,-1.0532511,2.1264434,9.515214,0.036282897,0.06379199,0.03633976,0.12062333,-0.017582554,-0.564222,2017-07-18 11:07:21,-Infinity
-0.6265259,2.0919342,9.293457,-0.0121154785,-0.059448242,0.03930664,326.0,-1.1617374,2.0989456,9.50869,0.5958754,-0.035261154,-0.20679665,0.12264215,-0.012274124,-0.5646411,2017-07-18 11:07:22,-Infinity
-1.2071991,1.913147,9.474777,-0.021987915,0.058624268,-0.08653259,343.0,-1.2547576,1.9825717,9.521837,-0.1793716,-0.14845133,0.113565445,0.120398074,-0.0050726263,-0.5657297,2017-07-18 11:07:23,-Infinity
-1.2939148,1.7498169,9.830994,-0.07501221,0.014846802,-0.08799744,331.0,-1.2203157,1.8906972,9.544971,0.023990631,0.09742665,0.15452003,0.115455575,-0.0034509315,-0.5633509,2017-07-18 11:07:24,-Infinity
-1.2176208,1.7454834,9.658371,-0.08139038,-0.026275635,0.04333496,314.0,-1.3055949,1.875545,9.536674,0.09521508,-0.19813693,0.15149403,0.11914408,-0.0011527016,-0.5732972,2017-07-18 11:07:25,-Infinity
-0.36997986,2.0392914,6.386368,1.2138672,-0.6290436,-0.329422,243.0,0.036641993,2.4056256,9.506946,-0.90925956,-1.5479445,-2.0496492,0.0981192,-0.07518852,-0.5915159,2017-07-18 11:07:26,-Infinity
0.65548706,4.242447,8.796494,0.037246704,-0.030792236,0.015777588,211.0,0.59866506,4.169005,8.85615,-0.08984226,-0.030378342,0.0637722,0.14973584,-0.16137293,-0.61349034,2017-07-18 11:07:27,-Infinity
-0.92829895,4.28302,7.9107056,0.49942017,0.094070435,0.07859802,246.0,-0.38659066,4.553062,8.677013,-0.5343974,-0.11119938,-0.8075676,0.194951,-0.11855847,-0.57434505,2017-07-18 11:07:28,-Infinity
0.3795929,3.53154,8.177155,-0.018478394,-0.28149414,0.6039429,344.0,-0.19909543,4.2348986,8.842872,0.009981036,-0.106824875,-0.25186825,0.1907828,-0.1128758,-0.53539443,2017-07-18 11:07:29,-Infinity
2.1321106,2.9789886,8.775269,0.059280396,0.2970276,-0.04864502,186.0,1.9648868,3.1159947,9.088465,-0.2467196,0.011956215,0.004049301,0.08840311,-0.16971202,-0.49446768,2017-07-18 11:07:30,-Infinity
0.8948364,3.1074982,9.263596,0.002380371,0.033065796,-0.009094238,262.0,0.9104416,3.0946045,9.260935,-0.24063098,0.014956951,0.022208214,0.11344584,-0.122285716,-0.50418216,2017-07-18 11:07:31,-Infinity
0.7555237,3.1288757,9.283951,-0.0016784668,0.009017944,-0.0025177002,276.0,0.7986734,3.1235662,9.261525,-0.07192904,0.0035173893,0.03302002,0.117326535,-0.11856493,-0.5064754,2017-07-18 11:07:32,-Infinity
1.1249695,3.1175842,9.237732,0.005645752,-0.0062561035,0.0027770996,235.0,1.1277542,3.115602,9.229929,-0.009177923,1.2397766E-4,0.010953903,0.10863115,-0.13267964,-0.5043469,2017-07-18 11:07:33,-Infinity
1.0238037,3.1615906,9.221237,0.0010070801,0.0019989014,0.0016021729,237.0,1.0366517,3.153894,9.227605,3.7109852E-4,-0.01461792,0.009148598,0.11301061,-0.12957886,-0.503117,2017-07-18 11:07:34,-Infinity
1.6643066,3.1405182,9.13765,0.018066406,-0.08836365,0.056793213,208.0,1.4376681,3.135162,9.180101,0.21980739,-0.0034048557,-0.052677155,0.10276747,-0.14623255,-0.49591845,2017-07-18 11:07:35,-Infinity
1.1543427,3.111435,9.302002,-0.0010070801,0.04473877,-0.01109314,232.0,1.1381844,3.1112623,9.230112,-0.08029461,0.004211664,-0.017251015,0.108977,-0.13236038,-0.49913785,2017-07-18 11:07:36,-Infinity
1.1827698,3.1466827,9.241837,-0.0037078857,-0.0043029785,-0.0020751953,226.0,1.1744194,3.1377895,9.216583,0.009290576,0.0033771992,0.013446808,0.10982696,-0.1342186,-0.4961649,2017-07-18 11:07:37,-Infinity
0.9936371,3.1517792,9.224091,-0.009384155,-0.055740356,0.014190674,261.0,1.0070479,3.152766,9.231268,0.10733616,-0.009990215,0.02191639,0.114523016,-0.12736093,-0.49742424,2017-07-18 11:07:38,-Infinity
0.9459839,3.1258545,9.267166,-0.004119873,0.0045776367,-0.004470825,245.0,0.98834795,3.1156309,9.245886,-0.030184627,0.010186911,0.018126488,0.11338267,-0.12550366,-0.49896723,2017-07-18 11:07:39,-Infinity
0.9812622,3.1180267,9.24707,-0.0010986328,-0.0012817383,-0.0014953613,245.0,0.99271935,3.1055257,9.2488165,0.019162238,0.0017743111,-0.0040102005,0.11231738,-0.12580305,-0.50048065,2017-07-18 11:07:40,-Infinity
0.9875488,3.1226654,9.239822,0.0045166016,-0.0018920898,0.0017852783,239.0,0.90830046,3.111911,9.255343,0.0013601184,0.014196157,0.0172081,0.11440818,-0.12255438,-0.5032796,2017-07-18 11:07:41,-Infinity
0.87620544,3.1211395,9.255173,-0.0016784668,2.89917E-4,0.0016021729,246.0,0.86671376,3.1028562,9.262369,0.01344353,0.010378361,-4.1007996E-5,0.115467355,-0.12007459,-0.5006549,2017-07-18 11:07:42,-Infinity
0.848114,3.0936432,9.2603,-0.0016784668,-0.0015869141,-8.544922E-4,250.0,0.83607006,3.0962145,9.267406,0.014374077,-0.0054724216,-0.015078545,0.1155315,-0.118960276,-0.5047752,2017-07-18 11:07:43,-Infinity
0.84251404,3.1174774,9.269684,-0.0016021729,-0.0023956299,0.0025634766,246.0,0.8304364,3.1036556,9.265424,-0.010930538,0.008272171,-0.008431435,0.116264544,-0.11864823,-0.5019953,2017-07-18 11:07:44,-Infinity
0.83335876,3.1120148,9.268341,-0.0011138916,0.0033721924,-1.9836426E-4,245.0,0.8393103,3.1063163,9.263733,-0.0039950013,-0.0026335716,-0.009707451,0.11605843,-0.11921209,-0.50265735,2017-07-18 11:07:45,-Infinity
0.8276062,3.1283722,9.255859,-0.0022583008,-0.0029144287,-0.0017547607,257.0,0.828599,3.1159027,9.261477,-0.0047664642,0.0159657,-0.0056123734,0.11666662,-0.119100705,-0.5033933,2017-07-18 11:07:46,-Infinity
0.39994812,3.2276,9.260117,0.013839722,0.21517944,0.04008484,193.0,0.7180633,3.1880476,9.246141,0.02448076,0.034009695,-0.020017624,0.11770185,-0.1201702,-0.56062764,2017-07-18 11:07:48,-Infinity
0.48912048,3.2116394,9.251251,3.5095215E-4,-0.0022735596,0.009780884,209.0,0.5125793,3.200125,9.255639,-0.010552704,-0.0014221668,-0.025460243,0.12146572,-0.115498215,-0.5577887,2017-07-18 11:07:49,-Infinity
0.46466064,3.2295837,9.230392,4.272461E-4,0.0076141357,-0.0010070801,221.0,0.49034253,3.2194955,9.250124,0.012185007,0.0059273243,-0.00445652,0.12303569,-0.115052775,-0.557175,2017-07-18 11:07:50,-Infinity
0.43922424,3.2455902,9.197968,-0.002166748,0.008102417,-0.0025482178,233.0,0.4168,3.2500653,9.243037,-0.0039506853,0.0023961067,-0.002316475,0.12643401,-0.112918966,-0.55764586,2017-07-18 11:07:51,-Infinity
0.39671326,3.2370148,9.231354,-0.0016784668,0.0010986328,-8.544922E-4,241.0,0.3760015,3.2391746,9.248609,0.005246252,0.016942024,-0.01382637,0.12668598,-0.11136818,-0.56108147,2017-07-18 11:07:52,-Infinity
0.38615417,3.2368774,9.2291565,0.014266968,0.0070648193,0.001953125,239.0,0.37471083,3.237503,9.249246,0.052467257,0.004965782,-0.12794209,0.12663135,-0.11128432,-0.5612323,2017-07-18 11:07:53,-Infinity
0.3639679,3.2706451,9.237488,7.6293945E-5,-0.0010223389,-9.765625E-4,247.0,0.3646015,3.2524457,9.244407,0.0013568401,0.021287918,0.0016126633,0.12822314,-0.11052503,-0.5564853,2017-07-18 11:07:54,-Infinity
0.34059143,3.250824,9.230072,-0.001876831,-3.0517578E-4,-0.0031585693,253.0,0.36106408,3.2512364,9.24497,-0.013366848,-0.0063574314,0.0068674088,0.12864825,-0.10994234,-0.5536934,2017-07-18 11:07:55,-Infinity
0.30822754,3.2479858,9.227966,-3.3569336E-4,-0.003479004,2.593994E-4,258.0,0.3302476,3.250959,9.246221,-0.0072214305,0.0040786266,-0.0051984787,0.12898731,-0.10925311,-0.5577498,2017-07-18 11:07:56,-Infinity
0.19917297,3.2177124,9.216766,0.0016021729,-1.373291E-4,-0.0035552979,251.0,0.26971158,3.217707,9.259806,-0.037822634,0.00865531,0.009614944,0.12959157,-0.10533731,-0.55864424,2017-07-18 11:07:57,-Infinity
0.11766052,3.1750183,9.312073,-0.0027923584,0.041366577,-0.0054473877,262.0,0.28168663,3.212687,9.261192,-0.053025216,-0.005155802,-0.0102882385,0.1285139,-0.10627694,-0.559592,2017-07-18 11:07:58,-Infinity
0.26478577,3.2099152,9.260269,-0.0030975342,0.008728027,-2.1362305E-4,265.0,0.26460257,3.2146606,9.261011,-0.009570658,0.017645597,0.0031805038,0.12933901,-0.10556876,-0.55751884,2017-07-18 11:07:59,-Infinity
0.22987366,3.1988678,9.25061,0.0012817383,-0.009552002,0.00390625,268.0,0.22767353,3.199392,9.267278,0.0037562996,0.014294863,-0.0038938522,0.1293235,-0.10347068,-0.5607278,2017-07-18 11:08:00,-Infinity
0.17160034,3.173462,9.256592,6.5612793E-4,1.0681152E-4,-0.002243042,276.0,0.23344895,3.185635,9.2718725,-0.04347174,-0.012938976,0.03357315,0.12874879,-0.10339161,-0.5596936,2017-07-18 11:08:01,-Infinity
0.21438599,3.1740875,9.247177,0.0,-0.0017852783,-0.0010375977,275.0,0.2207967,3.1960964,9.268581,-0.011784449,0.008411646,-0.006709099,0.12991805,-0.10273832,-0.5569477,2017-07-18 11:08:02,-Infinity
0.1846466,3.1907806,9.261932,-0.0035858154,9.1552734E-4,-0.0048675537,270.0,0.20850639,3.1871693,9.271939,-0.04837653,0.0042676926,0.018291473,0.12992671,-0.10189063,-0.5566603,2017-07-18 11:08:03,-Infinity
0.20916748,3.1838074,9.249741,0.001449585,-0.00730896,0.006210327,270.0,0.19236217,3.178175,9.275375,0.012193248,0.009560823,-0.008176804,0.12985843,-0.10127318,-0.55753314,2017-07-18 11:08:04,-Infinity
0.15266418,3.1795807,9.248596,0.001373291,-0.0061035156,0.0014801025,267.0,0.19266824,3.1808572,9.274449,-0.015563384,0.014919996,-0.0010442734,0.13000295,-0.10116282,-0.5575661,2017-07-18 11:08:05,-Infinity
0.04914856,3.161255,9.276794,0.0013885498,0.011779785,0.014678955,269.0,0.167626,3.1759965,9.276602,0.07023628,0.008965254,-0.01959896,0.13043289,-0.10006109,-0.55830675,2017-07-18 11:08:06,-Infinity
-0.047531128,3.1235352,9.253098,-0.0030212402,-0.011016846,-0.04624939,250.0,0.1294118,3.1541746,9.284656,-0.17372486,-0.024739027,-0.015415192,0.13069016,-0.09802256,-0.55734235,2017-07-18 11:08:07,-Infinity
0.15211487,3.1421356,9.262924,-3.2043457E-4,-0.003692627,0.0070648193,268.0,0.119401045,3.1498284,9.286264,0.010145158,-0.013890505,0.0061302185,0.13072546,-0.09717578,-0.5581983,2017-07-18 11:08:08,-Infinity
0.105545044,3.1366577,9.285538,-0.0054779053,0.0077056885,-0.01776123,276.0,0.1288408,3.148108,9.286722,-0.06399759,-0.0058755875,-0.017149925,0.1301775,-0.097789474,-0.5598458,2017-07-18 11:08:09,-Infinity
0.14273071,3.1473236,9.276855,6.713867E-4,-0.0039978027,0.011962891,284.0,0.12276169,3.1460626,9.2874975,0.01981783,0.0047667027,2.8419495E-4,0.13015404,-0.09761839,-0.5607899,2017-07-18 11:08:10,-Infinity
0.17527771,3.152771,9.26857,0.0014953613,-0.004486084,0.014419556,283.0,0.124661945,3.1353083,9.291108,0.05237802,0.023502827,-0.009058952,0.12982482,-0.09711256,-0.55920476,2017-07-18 11:08:11,-Infinity
0.16474915,3.1148224,9.275345,0.001876831,-0.006591797,0.003112793,285.0,0.1125458,3.1231842,9.295345,-0.018827654,-0.014500618,0.011963844,0.12956743,-0.09634096,-0.559956,2017-07-18 11:08:12,-Infinity
0.12471008,3.1268768,9.293625,-5.79834E-4,-0.0012512207,-0.0034332275,287.0,0.11585124,3.1200771,9.296348,-0.026187941,-0.0117414,-4.8065186E-4,0.1289355,-0.09692168,-0.5633246,2017-07-18 11:08:13,-Infinity
0.08117676,3.1064758,9.2782135,0.0012359619,-0.004272461,6.5612793E-4,288.0,0.10380178,3.112964,9.298875,0.005161166,0.0019464493,-0.0037145615,0.129222,-0.095869824,-0.56132245,2017-07-18 11:08:14,-Infinity
0.2893982,3.1311646,9.291779,8.087158E-4,-7.324219E-4,-0.0027770996,285.0,0.20191297,3.1372077,9.289109,0.08417112,-0.0010840893,0.017947197,0.1276903,-0.10039873,-0.56004214,2017-07-18 11:08:15,-Infinity
0.19683838,3.1206665,9.293793,0.0027618408,0.0050201416,-0.0017089844,259.0,0.19893484,3.1320915,9.290899,-0.026956037,-0.004724264,-0.012757301,0.12713224,-0.10066458,-0.56228656,2017-07-18 11:08:17,-Infinity
0.15341187,3.1197968,9.2799225,1.8310547E-4,0.0033721924,-0.0010223389,257.0,0.17555596,3.1223717,9.2946415,0.016692951,0.0031626225,0.0076436996,0.12719166,-0.0996366,-0.5640008,2017-07-18 11:08:18,-Infinity
0.16897583,3.10997,9.281021,7.4768066E-4,-1.2207031E-4,0.0013427734,258.0,0.16050754,3.1191545,9.295994,-0.011463419,-0.011562586,0.011631966,0.12773551,-0.09855068,-0.5620123,2017-07-18 11:08:19,-Infinity
0.08395386,3.095108,9.28067,1.0681152E-4,0.0022735596,7.4768066E-4,259.0,0.100217864,3.1134846,9.298739,-0.0025429577,0.0028278828,-0.021707535,0.1290529,-0.09613315,-0.56383085,2017-07-18 11:08:20,-Infinity
0.15013123,3.1115112,9.288055,0.001876831,-0.0024414063,7.9345703E-4,258.0,0.14315838,3.120208,9.295923,0.015606254,5.366802E-4,0.0056171417,0.12820558,-0.09780088,-0.56232756,2017-07-18 11:08:21,-Infinity
0.13162231,3.087738,9.298355,-5.645752E-4,0.0022735596,-9.460449E-4,270.0,0.14610632,3.1255662,9.294078,-6.4852834E-4,-0.0059404373,0.017360687,0.12871788,-0.09780408,-0.5596994,2017-07-18 11:08:22,-Infinity
0.13778687,3.1050415,9.294418,-6.1035156E-5,-5.340576E-4,1.9836426E-4,268.0,0.13913827,3.1132739,9.298309,4.6770275E-4,-0.0030059814,0.008826256,0.12849602,-0.09706547,-0.5593778,2017-07-18 11:08:23,-Infinity
0.1352539,3.0945282,9.291519,1.8310547E-4,-0.0015411377,1.9836426E-4,273.0,0.14274855,3.1101615,9.299296,-0.0051451027,-0.009899855,0.00187397,0.12797385,-0.09741948,-0.5611903,2017-07-18 11:08:24,-Infinity
0.14187622,3.1094208,9.28212,0.001663208,6.1035156E-5,1.9836426E-4,267.0,0.14038439,3.1103942,9.299254,8.751601E-4,0.002942562,-0.004808426,0.12804669,-0.09733469,-0.561245,2017-07-18 11:08:25,-Infinity
0.13352966,3.1047363,9.288315,-5.645752E-4,8.392334E-4,1.9836426E-4,261.0,0.13890426,3.1089995,9.299743,-0.004286602,-3.5619736E-4,-0.0011167526,0.12801345,-0.0972504,-0.56138426,2017-07-18 11:08:26,-Infinity
0.12713623,3.1045074,9.345703,0.0015106201,0.003829956,-9.3078613E-4,265.0,0.12015434,3.1022573,9.302255,0.0012878478,-1.180172E-4,0.021076202,0.12815335,-0.0964039,-0.56239945,2017-07-18 11:08:27,-Infinity
0.09144592,3.0802155,9.2938385,-6.713867E-4,-0.0082092285,-7.019043E-4,265.0,0.118577026,3.1035516,9.301844,-0.025451243,-0.018460512,0.010177612,0.12874024,-0.095890485,-0.55953676,2017-07-18 11:08:28,-Infinity
0.102890015,3.0982819,9.277725,3.0517578E-4,0.007583618,-0.0031585693,265.0,0.10859659,3.0947897,9.304884,1.0738522E-4,0.01593709,-0.021155357,0.12825961,-0.095563665,-0.5616581,2017-07-18 11:08:29,-Infinity
0.03451538,3.0863342,9.32637,-0.001876831,-0.021255493,-0.0010223389,267.0,0.09215574,3.118451,9.297158,0.088549666,-0.015188932,-0.033245087,0.13006401,-0.09518506,-0.5590746,2017-07-18 11:08:30,-Infinity
0.117492676,3.1032104,9.274353,3.0517578E-4,-0.001739502,0.0016479492,264.0,0.112920254,3.1027193,9.302192,0.0035866052,0.009077072,3.30925E-4,0.12861559,-0.09580321,-0.5604567,2017-07-18 11:08:31,-Infinity
0.10247803,3.1027222,9.267654,0.0022888184,-0.0036621094,0.0029754639,268.0,0.102012925,3.0973165,9.304118,-1.5658885E-4,0.010893822,-0.01696682,0.1284852,-0.095464975,-0.56230843,2017-07-18 11:08:32,-Infinity
0.09565735,3.1027527,9.377426,3.0517578E-4,0.0050811768,-0.0018615723,273.0,0.09893962,3.0930789,9.305561,-0.0030523762,0.014042616,0.09245777,0.12845567,-0.09511881,-0.5617773,2017-07-18 11:08:33,-Infinity
0.10668945,3.0882874,9.295227,-0.0012054443,-0.0023498535,-0.0014953613,278.0,0.10077774,3.100822,9.302964,0.0019359216,1.1539459E-4,-0.0058927536,0.12880298,-0.09534489,-0.56119657,2017-07-18 11:08:34,-Infinity
0.1068573,3.1126099,9.267288,3.0517578E-4,0.0044403076,0.0019226074,248.0,0.108053416,3.1046598,9.301602,-4.0623546E-4,0.014641523,-0.01597786,0.1288109,-0.095697656,-0.56071925,2017-07-18 11:08:35,-Infinity
0.0773468,3.0829163,9.295532,0.002746582,-0.0025634766,4.4250488E-4,284.0,0.081522085,3.09018,9.306693,0.004726574,-0.015496492,0.009268761,0.12872629,-0.09450096,-0.56350994,2017-07-18 11:08:36,-Infinity
0.1418457,3.0774384,9.266937,-0.03074646,0.11790466,-0.0040283203,295.0,0.057677373,3.0858293,9.308314,-0.24752009,-0.044614792,0.46464157,0.12899844,-0.09363467,-0.5648809,2017-07-18 11:08:37,-Infinity
0.07936096,3.083725,9.330536,-0.0016174316,-0.004333496,0.001373291,253.0,0.05339052,3.0932746,9.305868,0.03572335,0.018247843,0.044734,0.12939979,-0.093746744,-0.56526774,2017-07-18 11:08:38,-Infinity
0.061172485,3.0664825,9.099365,2.593994E-4,-4.119873E-4,0.0011749268,289.0,0.06631744,3.085831,9.308256,0.011275098,-2.5987625E-4,-0.060210228,0.12893198,-0.09406437,-0.56512874,2017-07-18 11:08:39,-Infinity
0.087524414,3.1039124,9.27269,-0.004119873,-0.0012969971,8.392334E-4,324.0,0.05911407,3.0872986,9.307818,0.0196857,0.008932352,-0.0067682266,0.1289946,-0.09377496,-0.5650919,2017-07-18 11:08:40,-Infinity
0.08140564,3.0728912,9.289825,-7.6293945E-5,6.5612793E-4,4.7302246E-4,308.0,0.07100536,3.0802007,9.310086,0.00864087,-0.0030162334,-0.0034828186,0.12812147,-0.094353564,-0.56695765,2017-07-18 11:08:41,-Infinity
0.05229187,3.0661316,9.269196,-7.019043E-4,0.012649536,-0.013702393,302.0,0.086858995,3.0838814,9.308733,-0.032463454,-0.008797884,-0.012049675,0.12827621,-0.094508745,-0.56296927,2017-07-18 11:08:42,-Infinity
0.13197327,3.0799103,9.292404,0.0012359619,-0.010665894,0.002319336,309.0,0.105453,3.081947,9.309182,0.024303421,0.0044345856,0.0038166046,0.12727909,-0.095728,-0.5660798,2017-07-18 11:08:43,-Infinity
0.1650238,3.092682,9.269623,4.5776367E-4,0.012466431,-0.0012359619,302.0,0.11639524,3.0886486,9.30683,0.007862709,0.017273426,-0.009054184,0.12757108,-0.0959653,-0.5633118,2017-07-18 11:08:44,-Infinity
0.065078735,3.0704193,9.262482,3.3569336E-4,0.002029419,0.0012969971,331.0,0.05167085,3.0686045,9.314042,-0.021442786,0.0029289722,-0.018336296,0.12843604,-0.09284499,-0.56488776,2017-07-18 11:08:45,-Infinity
0.0650177,3.055954,9.305695,-0.0033721924,-0.0028839111,0.0036468506,327.0,0.066310935,3.0831835,9.309134,-0.01749418,-0.005629301,-0.0019350052,0.12862822,-0.09392051,-0.5648953,2017-07-18 11:08:46,-Infinity
-0.06820679,3.0543213,9.181335,8.239746E-4,0.01991272,7.9345703E-4,320.0,-0.02891125,3.0727644,9.312769,-0.03724129,-0.0044033527,-0.10430527,0.12971532,-0.09163682,-0.56881005,2017-07-18 11:08:47,-Infinity
0.030166626,3.0787354,9.299622,-7.324219E-4,-0.0057525635,0.0016326904,319.0,0.030328318,3.0602806,9.3168745,-0.008733984,0.014309406,0.0037117004,0.1283169,-0.09223007,-0.5683383,2017-07-18 11:08:48,-Infinity
0.05342102,3.0850525,9.255203,-9.3078613E-4,0.001876831,0.001663208,284.0,0.051026084,3.0792027,9.310548,0.0015880354,0.01639533,-0.019321442,0.1286918,-0.093448445,-0.566778,2017-07-18 11:08:49,-Infinity
0.052734375,3.0766907,9.281311,3.0517578E-4,-2.593994E-4,0.0012054443,295.0,0.044510536,3.0816686,9.309765,0.007519327,0.0077359676,0.010766983,0.12927487,-0.09285526,-0.56430554,2017-07-18 11:08:50,-Infinity
0.043792725,3.0717468,9.261139,-0.002090454,7.171631E-4,0.0012054443,295.0,0.036689438,3.0784273,9.310871,-7.506907E-4,0.018844843,-0.018442154,0.12968513,-0.091975264,-0.56150264,2017-07-18 11:08:51,-Infinity
0.09562683,3.035675,9.27095,-0.0021362305,0.0032196045,-6.4086914E-4,229.0,0.021138327,3.0793533,9.310614,0.055522412,-0.079036474,0.2277174,0.1301372,-0.09140645,-0.56189775,2017-07-18 11:08:53,-Infinity
0.030212402,3.062622,9.267258,-6.713867E-4,0.0016326904,-9.1552734E-5,239.0,0.03230227,3.0695863,9.313807,-0.006908674,0.003345251,-0.014831543,0.12935053,-0.091632366,-0.56223696,2017-07-18 11:08:54,-Infinity
-0.015167236,3.0815277,9.443665,-0.005874634,0.01171875,-0.004333496,261.0,0.023077803,3.073918,9.312405,-0.034818016,0.020262718,0.15681839,0.12966633,-0.09123833,-0.56250757,2017-07-18 11:08:55,-Infinity
0.028015137,3.0597992,9.309067,-6.713867E-4,-3.5095215E-4,7.9345703E-4,296.0,0.016201494,3.0699103,9.313741,0.00810284,0.012358427,0.015007973,0.12978742,-0.09103072,-0.5626868,2017-07-18 11:08:56,-Infinity
0.028167725,3.047348,9.305481,0.0018920898,-0.0017852783,0.0011444092,287.0,-1.8666986E-4,3.046736,9.321362,0.010220753,-0.0051431656,0.018802643,0.12920052,-0.09126017,-0.56538224,2017-07-18 11:08:57,-Infinity
0.011795044,3.0588531,9.270233,-6.713867E-4,-6.866455E-4,-9.1552734E-5,274.0,0.010435613,3.0544362,9.318835,-0.0029910598,0.010290384,-0.016039848,0.12870364,-0.091142714,-0.5679341,2017-07-18 11:08:58,-Infinity
0.015380859,3.049469,9.295319,-0.0012664795,-1.2207031E-4,-4.5776367E-5,277.0,0.013425077,3.0602543,9.316923,-0.0023042196,-0.0022292137,0.009281158,0.12909767,-0.091120444,-0.565863,2017-07-18 11:08:59,-Infinity
0.010604858,3.0434418,9.322617,-7.171631E-4,-0.0018463135,0.001083374,270.0,0.01711846,3.0618935,9.316379,-0.0061969534,-0.0071082115,0.03346634,0.12898137,-0.09120525,-0.5658384,2017-07-18 11:09:00,-Infinity
0.061264038,3.0654602,9.27092,0.00390625,-0.022415161,0.0043029785,263.0,0.02368639,3.0604687,9.316832,-0.00939282,-0.007194996,0.007273674,0.1286506,-0.09179071,-0.56533253,2017-07-18 11:09:01,-Infinity
0.028396606,3.0653076,9.280289,9.1552734E-5,-0.001449585,6.866455E-4,261.0,0.025501618,3.0631275,9.315953,-0.007383259,0.008162022,-0.008775711,0.12892541,-0.09163413,-0.5653169,2017-07-18 11:09:02,-Infinity
0.08605957,3.067505,9.116013,-0.0047302246,0.0055999756,8.239746E-4,259.0,0.02454237,3.070051,9.313677,0.081521586,0.07166839,-0.08863449,0.12930089,-0.0917384,-0.5648746,2017-07-18 11:09:03,-Infinity
-0.0039367676,3.0684357,9.279037,-2.1362305E-4,2.593994E-4,-2.2888184E-4,262.0,0.0041472455,3.0596647,9.317125,-0.0063306834,0.017504692,-0.0062589645,0.1294521,-0.09075294,-0.56605357,2017-07-18 11:09:04,-Infinity
-0.0033569336,3.041504,9.287857,-2.1362305E-4,2.593994E-4,4.119873E-4,261.0,-0.006648455,3.055957,9.31834,-0.0021022847,-0.00939846,0.01925373,0.1294122,-0.09027373,-0.56671625,2017-07-18 11:09:05,-Infinity
-0.029510498,3.033081,9.350204,0.0033721924,-0.0032958984,9.613037E-4,265.0,-0.015950125,3.055334,9.318534,0.007530126,0.0023522377,0.014339447,0.12962738,-0.08990975,-0.56702,2017-07-18 11:09:06,-Infinity
-0.011962891,3.0596313,9.239685,-0.0027770996,0.0034942627,0.0026245117,254.0,0.008410993,3.075445,9.311925,-0.017019732,0.017952919,-0.24603844,0.12999806,-0.09123842,-0.5649713,2017-07-18 11:09:07,-Infinity
0.007003784,3.0653076,9.283554,-0.0014190674,0.0028076172,-0.001449585,259.0,0.0067788237,3.059596,9.317146,4.3214764E-5,0.010150671,-0.0055332184,0.12915629,-0.090901054,-0.5660979,2017-07-18 11:09:08,-Infinity
0.017822266,3.0583649,9.287384,-9.1552734E-5,-1.5258789E-5,-0.0011749268,260.0,0.009072625,3.0617282,9.316443,-0.00768809,-0.0072915554,0.023139954,0.12928766,-0.09098501,-0.56588084,2017-07-18 11:09:09,-Infinity
-0.02255249,3.0302277,9.311111,-0.0037078857,0.0061950684,-9.1552734E-4,260.0,-0.013548165,3.0574856,9.317832,-0.0021944847,-0.006006956,0.029846191,0.12967202,-0.0900443,-0.5668074,2017-07-18 11:09:10,-Infinity
-0.023803711,3.0464478,9.27623,7.324219E-4,-0.0021820068,-2.2888184E-4,264.0,-0.015741996,3.0509822,9.31996,-0.005592771,0.0047154427,-0.018164635,0.12945029,-0.08970512,-0.5674314,2017-07-18 11:09:11,-Infinity
-0.011459351,3.0458984,9.280701,-8.087158E-4,0.0032806396,-5.187988E-4,256.0,-0.004974697,3.0522058,9.319571,0.0025933022,4.4870377E-4,0.0017824173,0.12903689,-0.09046331,-0.56819206,2017-07-18 11:09:12,-Infinity
-0.014541626,3.039093,9.278244,0.0055389404,-0.007293701,0.0029449463,261.0,-0.0067284647,3.0561543,9.318275,-0.009898389,-0.009376764,-0.012758255,0.12900697,-0.09087006,-0.570425,2017-07-18 11:09:13,-Infinity
-0.040908813,3.0322876,9.322403,0.0063476563,-0.0028533936,1.0681152E-4,261.0,-0.0036206003,3.0566425,9.318117,0.02241833,-0.005562544,-0.087062836,0.12886605,-0.09111412,-0.5710361,2017-07-18 11:09:14,-Infinity
0.019821167,3.0622864,9.273514,8.69751E-4,-0.0031433105,-2.2888184E-4,256.0,0.0049537392,3.0661492,9.314993,0.014481605,0.0060651302,-0.017163277,0.12914257,-0.091672756,-0.569818,2017-07-18 11:09:15,-Infinity
-0.008621216,3.0551758,9.270981,-9.1552734E-4,9.613037E-4,-7.324219E-4,251.0,0.00202017,3.0578542,9.31772,0.0016824909,0.0021409988,-0.0026254654,0.12880278,-0.09131445,-0.57056457,2017-07-18 11:09:16,-Infinity
-0.002960205,3.0460205,9.297836,-2.1362305E-4,2.593994E-4,-0.0013885498,255.0,0.002348017,3.060084,9.316988,-0.0067861327,-0.0092628,0.013554573,0.12890641,-0.09137261,-0.570404,2017-07-18 11:09:17,-Infinity
0.050979614,3.031784,9.281036,0.0016174316,-0.0021820068,0.0016021729,193.0,0.02383693,3.064017,9.315665,-0.011069467,-0.01275754,0.0025606155,0.12853262,-0.09226393,-0.5695377,2017-07-18 11:09:18,-Infinity
0.07537842,3.057663,9.283432,0.004623413,-0.003326416,0.004547119,181.0,0.03582044,3.0570476,9.317916,0.035633154,0.0075318813,-0.0070858,0.12786202,-0.092573196,-0.5696773,2017-07-18 11:09:19,-Infinity
0.025360107,3.0504303,9.273239,-0.0021514893,-1.5258789E-4,-0.002319336,182.0,0.03640664,3.0533583,9.319123,0.02436778,0.007366419,-0.012349129,0.12772796,-0.092436455,-0.569967,2017-07-18 11:09:20,-Infinity
0.015182495,3.0224915,9.2933655,-8.087158E-4,0.007827759,-0.0027618408,182.0,0.027546057,3.0556126,9.318415,0.009858888,0.0044550896,0.009268761,0.12800945,-0.09223146,-0.5700071,2017-07-18 11:09:21,-Infinity
0.021728516,3.0454712,9.293991,0.0021362305,-0.0072631836,0.0048217773,177.0,0.03206192,3.0533698,9.319136,-0.0045491494,0.004023552,0.00906086,0.12794815,-0.092098735,-0.57023174,2017-07-18 11:09:22,-Infinity
0.028274536,3.0568542,9.268356,0.003768921,-0.0045776367,0.0056152344,180.0,0.025717923,3.051027,9.319922,0.027520359,0.021149158,-0.004921913,0.12782659,-0.092068225,-0.57037103,2017-07-18 11:09:23,-Infinity
0.013198853,3.0384064,9.2994995,0.0013275146,0.0058898926,7.019043E-4,179.0,0.029244464,3.057972,9.317636,-0.01356359,-0.008869886,0.014920235,0.12812434,-0.092401706,-0.5696892,2017-07-18 11:09:24,-Infinity
0.030929565,3.0291138,9.316696,-0.0034942627,0.009338379,-0.0033416748,188.0,0.04604079,3.0564106,9.318081,-0.018587716,0.0168581,-0.048384666,0.12755854,-0.092945896,-0.5694334,2017-07-18 11:09:25,-Infinity
0.040908813,3.0568237,9.279648,-0.0012969971,0.0021209717,6.713867E-4,234.0,0.03895233,3.0529952,9.319232,-0.0012390353,0.005675316,-0.003209114,0.12748271,-0.09259212,-0.5699621,2017-07-18 11:09:26,-Infinity
0.037384033,3.0348969,9.29953,-3.5095215E-4,8.239746E-4,0.0013580322,232.0,0.027169723,3.0512846,9.319835,0.010355236,-0.0042696,0.012154579,0.12780091,-0.09212831,-0.570313,2017-07-18 11:09:27,-Infinity
0.029953003,3.0445557,9.276825,-0.0031738281,0.004547119,-0.0019226074,249.0,0.026210781,3.0451508,9.321843,0.0016405154,0.0027554035,-0.0031776428,0.1275169,-0.091965884,-0.5707582,2017-07-18 11:09:29,-Infinity
0.19221497,-0.049331665,9.906891,-0.0023498535,0.0025024414,1.2207031E-4,180.0,0.26889223,0.018988699,9.802944,-0.13521263,-0.15682033,0.29520893,-0.007879357,-0.011262518,-0.6294833,2017-07-18 11:09:29,-Infinity
0.18225098,-0.057128906,9.874619,-8.239746E-4,0.0012817383,1.2207031E-4,172.0,0.18779263,-0.041961454,9.804762,-0.016195565,-0.030457202,0.055521965,-0.007600534,-0.006204383,-0.6180953,2017-07-18 11:09:30,-Infinity
0.1793518,-0.049179077,9.852631,-0.0011138916,9.1552734E-4,1.2207031E-4,170.0,0.17275132,-0.05222092,9.80499,0.0037396401,-0.006556228,0.009896278,-0.0075187506,-0.005305007,-0.6152891,2017-07-18 11:09:32,-Infinity
0.17932129,-0.053131104,9.85405,9.1552734E-5,0.0011749268,1.2207031E-4,171.0,0.17257477,-0.0542417,9.804981,0.0066970885,0.008158427,-0.0063762665,-0.007569034,-0.0052162292,-0.6152347,2017-07-18 11:09:33,-Infinity
0.17181396,-0.06303406,9.892059,9.1552734E-5,5.187988E-4,9.0026855E-4,173.0,0.1696623,-0.057699364,9.805013,-1.30862E-4,-0.007635489,0.026335716,-0.007643249,-0.0050071036,-0.6154818,2017-07-18 11:09:34,-Infinity
0.17578125,-0.06416321,9.895081,9.1552734E-5,6.1035156E-5,1.2207031E-4,174.0,0.17001995,-0.05693196,9.805011,0.002835989,-0.00371157,0.007858276,-0.007623313,-0.0050460473,-0.6154314,2017-07-18 11:09:35,-Infinity
0.17658997,-0.053024292,9.85994,-1.5258789E-5,-4.272461E-4,-7.6293945E-5,167.0,0.17819244,-0.057148565,9.804865,0.019103378,0.0022719055,-0.0071134567,-0.007867848,-0.0053863353,-0.61529124,2017-07-18 11:09:36,-Infinity
0.15939331,-0.059448242,9.886398,-1.5258789E-5,0.0010375977,-7.6293945E-5,173.0,0.15930352,-0.059032556,9.805179,-0.0013674945,2.0395964E-5,0.0011224747,-0.007406833,-0.0045917914,-0.6156968,2017-07-18 11:09:37,-Infinity
0.16070557,-0.067092896,9.885117,8.544922E-4,4.272461E-4,-7.6293945E-5,170.0,0.15766653,-0.057714872,9.805213,0.0018152297,-0.009457979,0.003575325,-0.0072394945,-0.004550117,-0.61561537,2017-07-18 11:09:38,-Infinity
0.14305115,-0.07524109,9.904419,-0.0014343262,0.0031738281,-7.6293945E-5,158.0,0.15001412,-0.06230619,9.805305,-0.0074308217,-0.011772364,0.0073461533,-0.007226612,-0.004195,-0.6159343,2017-07-18 11:09:39,-Infinity
0.16651917,-0.058898926,9.877548,-1.5258789E-5,4.272461E-4,-7.6293945E-5,167.0,0.15836236,-0.053384386,9.805226,-1.6228855E-4,-0.009260111,-0.0172081,-0.007114657,-0.004689201,-0.6153972,2017-07-18 11:09:40,-Infinity
0.16259766,-0.053222656,9.879013,-1.5258789E-5,4.272461E-4,-7.6293945E-5,170.0,0.1601525,-0.058917843,9.805165,0.007196501,0.0074727163,0.0029830933,-0.0073949597,-0.0045847166,-0.6156948,2017-07-18 11:09:41,-Infinity
0.1737976,-0.051132202,9.83197,-9.765625E-4,4.272461E-4,-7.6293945E-5,170.0,0.15892412,-0.06047765,9.805176,0.012799874,0.0095579885,-0.038204193,-0.006926741,-0.0035876732,-0.6159081,2017-07-18 11:09:42,-Infinity
0.12055969,-0.05595398,9.773209,-0.0158844,-0.08631897,-0.0012969971,175.0,0.10457806,-0.046459354,9.805983,0.0327352,-0.01141382,-0.0115327835,-0.005140038,-0.002760873,-0.61296487,2017-07-18 11:09:43,-Infinity
0.15481567,-0.04585266,9.855225,-1.5258789E-5,4.272461E-4,-7.6293945E-5,170.0,0.15336236,-0.05684484,9.805286,0.0062558204,0.007146515,-0.011805534,-0.00706409,-0.004432269,-0.6095258,2017-07-18 11:09:44,-Infinity
0.14874268,-0.053085327,9.876007,-1.5258789E-5,-7.9345703E-4,1.5258789E-4,175.0,0.15256967,-0.058129694,9.805291,0.006377399,-0.006680649,0.01717186,-0.007082377,-0.0043545677,-0.6093891,2017-07-18 11:09:45,-Infinity
0.15463257,-0.059921265,9.873398,7.4768066E-4,-4.5776367E-5,-8.239746E-4,170.0,0.15398492,-0.05885848,9.805264,-0.0030327588,0.0045660064,-0.008443832,-0.007167521,-0.0043904716,-0.61001,2017-07-18 11:09:46,-Infinity
0.16445923,-0.0642395,9.858383,-1.5258789E-5,-0.0020141602,-7.6293945E-5,171.0,0.15502152,-0.057438686,9.805257,-0.012668684,-0.0048484094,-0.047042847,-0.0071451366,-0.004472149,-0.6104939,2017-07-18 11:09:47,-Infinity
0.1530304,-0.057037354,9.856262,-1.5258789E-5,4.272461E-4,-0.0012969971,172.0,0.15052551,-0.057683874,9.8053255,0.0012531728,0.0101280175,0.0037879944,-0.007028722,-0.004260509,-0.6130228,2017-07-18 11:09:48,-Infinity
0.16096497,-0.06793213,9.891968,-2.89917E-4,-7.9345703E-4,-7.6293945E-5,173.0,0.15330726,-0.05978767,9.805269,0.0065582395,-0.0076948516,0.022577286,-0.0071442486,-0.0043074316,-0.611397,2017-07-18 11:09:49,-Infinity
0.15483093,-0.065093994,9.872955,-1.5258789E-5,-7.7819824E-4,-0.0012664795,178.0,0.15735522,-0.06268274,9.805187,-0.0031338036,-0.0023204163,0.0034885406,-0.007421462,-0.004369161,-0.61299866,2017-07-18 11:09:50,-Infinity
-0.6796875,-0.23782349,10.117447,0.007461548,0.023483276,-6.2561035E-4,190.0,0.12894957,-0.05413563,9.805653,-0.06207647,-0.008617163,0.09075928,-0.006212786,-0.0034996634,-0.61335725,2017-07-18 11:09:51,-Infinity
-0.18547058,2.4034271,9.443314,0.01979065,0.004699707,0.020965576,279.0,-0.21343608,2.436062,9.496864,0.11644526,0.01846385,-0.18597126,0.11108005,-0.05878689,-0.53881437,2017-07-18 11:09:52,-Infinity
-0.1525116,2.4367828,9.586441,-0.0042266846,0.001083374,-0.0014801025,274.0,-0.14377487,2.424245,9.501198,-0.0033712536,0.015575409,0.06728077,0.10826948,-0.062127758,-0.5406842,2017-07-18 11:09:53,-Infinity
-0.088760376,2.4660645,9.571152,5.645752E-4,0.0023956299,-0.0017547607,274.0,-0.10454473,2.4663317,9.490872,0.015666515,-8.983612E-4,0.070171356,0.10891927,-0.06500392,-0.5429956,2017-07-18 11:09:54,-Infinity
-0.17407227,2.7631683,9.567444,-0.064086914,-0.06564331,-0.04034424,308.0,-0.12756377,2.836004,9.386756,-0.014957026,-0.042975903,0.21548271,0.12608422,-0.07423875,-0.53972024,2017-07-18 11:09:55,-Infinity
-0.14421082,2.5809326,9.644562,-0.029708862,0.0077667236,0.0048675537,298.0,-0.109454215,2.6774247,9.433441,0.030798808,-0.07921958,0.19499588,0.1187737,-0.0701512,-0.5381023,2017-07-18 11:09:56,-Infinity
-0.09614563,2.6401978,9.452942,-0.009887695,0.0046691895,-0.0016784668,288.0,-0.117971145,2.627623,9.447331,0.018981025,0.01201582,0.012732506,0.11650937,-0.06888928,-0.5420249,2017-07-18 11:09:57,-Infinity
-0.09442139,2.6816711,9.403595,0.09036255,-0.21751404,-0.010116577,322.0,-0.16521145,2.6452763,9.441695,0.17014603,0.06152773,-0.0958395,0.1181922,-0.06810384,-0.5471363,2017-07-18 11:09:58,-Infinity
-0.15759277,2.6615448,9.390839,0.0027160645,7.9345703E-4,-0.004760742,296.0,-0.13403931,2.6730905,9.434353,-0.021876812,-0.0071942806,-0.021512032,0.118470676,-0.07025748,-0.54712677,2017-07-18 11:09:59,-Infinity
-0.077819824,2.6765137,9.436127,-0.00592041,4.272461E-4,-0.001159668,286.0,-0.10483172,2.6884797,9.430348,-0.0046484694,0.0013391972,0.016804695,0.11864325,-0.07148301,-0.5437612,2017-07-18 11:10:00,-Infinity
-0.10342407,2.646515,9.40712,-0.0055999756,-0.0026550293,-7.6293945E-5,293.0,-0.12131768,2.6488087,9.441371,-0.0038565248,-0.017016172,-0.05691147,0.11727408,-0.0697915,-0.54503965,2017-07-18 11:10:01,-Infinity
0.0046691895,2.6302338,9.524551,0.008407593,-0.018676758,0.0011138916,294.0,-0.10103926,2.6144695,9.451176,0.10555569,0.01908946,0.07657337,0.11552733,-0.068814404,-0.54306287,2017-07-18 11:10:02,-Infinity
-0.12600708,2.5922241,9.462662,0.0041046143,-0.007904053,0.003479004,291.0,-0.108254984,2.6142519,9.451157,0.039680205,0.008702278,-0.008461952,0.11559907,-0.06900721,-0.5426716,2017-07-18 11:10:03,-Infinity
-0.095947266,2.5835571,9.408051,-0.0016021729,-0.0028839111,0.0023651123,286.0,-0.11340109,2.596474,9.455996,0.007854402,-0.0040295124,0.025391579,0.11525677,-0.06778118,-0.53916955,2017-07-18 11:10:04,-Infinity
-1.0660553,4.280258,9.662018,-0.21534729,-0.31748962,-0.22167969,285.0,-0.24599123,2.6168733,9.447849,-0.8251413,1.6676667,0.2231226,0.120729715,-0.07242763,-0.56671864,2017-07-18 11:10:05,-Infinity
-0.18521118,2.2093353,9.481033,-0.013824463,0.0016479492,-0.010223389,215.0,-0.19259232,2.2012088,9.554474,0.06410247,0.021316767,0.299098,0.098423645,-0.057564367,-0.57935154,2017-07-18 11:10:06,-Infinity
-0.15420532,2.1264038,9.567474,0.011566162,-0.015579224,0.0043029785,178.0,-0.17379028,2.1211867,9.572918,0.035513684,0.025637388,0.0070762634,0.09353482,-0.056001496,-0.5803159,2017-07-18 11:10:07,-Infinity
-0.24969482,2.0733643,9.514587,0.007583618,0.014312744,-0.018081665,181.0,-0.1975704,2.0877616,9.579802,-0.12375769,-0.050001383,-0.068510056,0.092976294,-0.054888688,-0.57877266,2017-07-18 11:10:08,-Infinity
-0.14112854,2.0929718,9.5746,3.5095215E-4,-0.0060577393,0.0019989014,226.0,-0.16735102,2.085628,9.580842,0.004222721,-0.0024178028,-0.007408142,0.09195687,-0.055083,-0.5764933,2017-07-18 11:10:09,-Infinity
-0.1352539,2.0865326,9.548035,0.011291504,-0.010116577,-6.713867E-4,236.0,-0.20170803,2.0534456,9.58713,0.009414941,0.007438183,-0.003824234,0.0920054,-0.052224685,-0.5730626,2017-07-18 11:10:10,-Infinity
-0.2020874,2.0643158,9.5872345,0.0024261475,-3.0517578E-4,-0.0017852783,233.0,-0.19243932,2.067333,9.584335,0.00849691,0.007443428,-0.00792408,0.09237105,-0.05293844,-0.57223964,2017-07-18 11:10:11,-Infinity
-0.20243835,2.0597382,9.574738,-0.0029754639,0.0034179688,-0.0032653809,235.0,-0.19656318,2.0647838,9.584802,-0.0100649,-0.009079456,-0.021544456,0.09241452,-0.05287455,-0.5722841,2017-07-18 11:10:13,-Infinity
-0.1690216,2.0700836,9.5321045,0.00642395,-0.0078125,0.001159668,238.0,-0.2119216,2.0522928,9.587156,0.015368059,0.0090994835,0.010584831,0.09217477,-0.05191216,-0.57438016,2017-07-18 11:10:14,-Infinity
0.1675415,2.177765,8.710495,-0.1000824,0.14849854,-0.018814087,221.0,-0.24305041,2.0270598,9.591785,-0.3854177,-0.13774967,0.5306511,0.0920043,-0.049902644,-0.57486016,2017-07-18 11:10:15,-Infinity
-0.1917572,2.0509186,9.591309,0.0049591064,-0.0049438477,2.1362305E-4,233.0,-0.2085318,2.0399718,9.58986,0.0034718513,7.956028E-4,0.0018291473,0.091458544,-0.05185124,-0.57588935,2017-07-18 11:10:16,-Infinity
-0.20167542,2.039734,9.630234,-0.001083374,2.746582E-4,3.9672852E-4,238.0,-0.21710594,2.0404115,9.589577,0.02658394,0.012720823,0.043589592,0.09180696,-0.051372834,-0.57470554,2017-07-18 11:10:17,-Infinity
-0.21522522,2.0472565,9.49823,0.019165039,-0.037857056,-0.009094238,243.0,-0.21144262,2.0329611,9.591285,-9.7215176E-5,0.016950607,-0.10575199,0.09124923,-0.0515184,-0.57590044,2017-07-18 11:10:18,-Infinity
-0.5121002,1.943161,9.837555,-0.036895752,0.07411194,0.0027770996,249.0,-0.21267736,2.0344288,9.590946,-0.27664092,-0.08440828,0.22904778,0.09152679,-0.051192496,-0.5730694,2017-07-18 11:10:19,-Infinity
-0.66778564,1.8939362,10.27446,-0.094833374,0.16941833,0.016967773,238.0,-0.2677921,2.0031428,9.59615,-0.39756626,-0.11024594,0.684886,0.091775775,-0.04765729,-0.5729873,2017-07-18 11:10:20,-Infinity
-0.22409058,2.017807,9.616196,-9.918213E-4,6.5612793E-4,-0.0015258789,234.0,-0.2216165,2.0274343,9.592225,0.0013762116,-0.009040594,0.027580261,0.09141923,-0.050796162,-0.5748704,2017-07-18 11:10:21,-Infinity
-0.2137146,2.0332794,9.58876,0.005844116,-0.0064086914,0.001159668,235.0,-0.21879981,2.037403,9.590178,-0.0035746247,0.004112482,-0.020350456,0.09199449,-0.05073513,-0.57049346,2017-07-18 11:10:22,-Infinity
-0.20880127,2.0409393,9.5673065,-0.0011749268,0.0022277832,-0.0017852783,225.0,-0.21621409,2.0308897,9.591618,0.009429842,0.011443377,-0.021436691,0.09184152,-0.050042048,-0.5693339,2017-07-18 11:10:23,-Infinity
-0.47932434,2.0035706,9.088257,0.13539124,-0.2658081,-0.01461792,226.0,-0.2481722,2.0058317,9.596116,-0.27582294,-0.026353836,-0.49662495,0.09222023,-0.04628876,-0.5688747,2017-07-18 11:10:24,-Infinity
-0.20626831,2.0105743,9.59967,0.0015411377,-0.002456665,-9.613037E-4,237.0,-0.21827552,2.0142887,9.595071,0.0016278177,-0.0058054924,-0.028331757,0.09086932,-0.050302185,-0.57263476,2017-07-18 11:10:25,-Infinity
-0.27438354,1.9715271,9.647156,0.0067596436,-0.008377075,0.0020599365,248.0,-0.24475496,1.9799731,9.601572,0.051014602,0.01937902,-0.0319252,0.09021899,-0.048131064,-0.57236654,2017-07-18 11:10:26,-Infinity
-0.21878052,2.0171204,9.543503,0.0056152344,-0.0025177002,-3.0517578E-4,254.0,-0.23008445,2.003962,9.596957,-0.0056491494,4.2378902E-4,0.036792755,0.090612024,-0.049311243,-0.5725237,2017-07-18 11:10:27,-Infinity
-0.11091614,2.019989,9.601852,-0.0066223145,0.0026397705,-0.0015411377,202.0,-0.12897444,2.0250561,9.59442,0.0037137717,-0.0010502338,-0.0048179626,0.088846475,-0.0541019,-0.5702228,2017-07-18 11:10:28,-Infinity
-0.19726563,1.9592438,9.706879,0.0023345947,0.00440979,-0.0038909912,223.0,-0.15581776,1.9929239,9.600748,-0.04622963,-0.023557186,0.1069603,0.088053025,-0.052390378,-0.57372046,2017-07-18 11:10:29,-Infinity
-0.23190308,1.9688263,9.832138,-0.03616333,-0.0059661865,-5.340576E-4,222.0,-0.17679478,1.9817116,9.602705,-0.06942856,-0.013370872,0.22975254,0.088191964,-0.051190525,-0.5738647,2017-07-18 11:10:30,-Infinity
-0.47268677,1.8658295,9.60379,-0.007385254,-0.0037841797,-0.0028381348,267.0,-0.47469917,1.868302,9.615326,0.0037224889,0.0024877787,-0.0054502487,0.09252354,-0.035002995,-0.57180905,2017-07-18 11:10:31,-Infinity
-0.41957092,1.8773499,9.601898,0.007965088,-0.0079956055,0.001083374,264.0,-0.4286698,1.8735214,9.616472,0.004878491,-0.008853674,-0.02145958,0.0911446,-0.03726949,-0.5726026,2017-07-18 11:10:32,-Infinity
-0.39749146,1.8634338,9.62175,-0.002380371,0.0013275146,-0.0023498535,260.0,-0.38768706,1.8812555,9.616702,-0.006967485,-0.01556766,0.0010681152,0.09009158,-0.039232843,-0.5737902,2017-07-18 11:10:33,-Infinity
-0.39378357,1.8662567,9.594864,-0.0022888184,0.0016479492,-0.0035552979,261.0,-0.39168862,1.8788937,9.617002,-0.0010044873,-0.011035681,-0.019126892,0.09008177,-0.039213978,-0.5755595,2017-07-18 11:10:34,-Infinity
-0.39675903,1.875824,9.619766,0.0027770996,-0.0015258789,-9.0026855E-4,261.0,-0.4014725,1.8741311,9.617528,0.0053876042,0.0045040846,0.0074911118,0.09010344,-0.038829286,-0.57654434,2017-07-18 11:10:35,-Infinity
-0.20837402,1.9393005,9.598282,1.9836426E-4,0.0014343262,-0.0015106201,247.0,-0.22262396,1.9363985,9.610993,-0.007846609,0.004113078,0.008298874,0.08758949,-0.047998108,-0.57469404,2017-07-18 11:10:36,-Infinity
-0.18611145,1.9360657,9.632538,0.006072998,-8.392334E-4,-0.0012512207,245.0,-0.20287769,1.925068,9.613706,5.298853E-5,-0.0020219088,0.012337685,0.08668398,-0.0482007,-0.57206094,2017-07-18 11:10:37,-Infinity
-0.18954468,1.9693909,9.513092,-0.033187866,0.059448242,-0.0069122314,242.0,-0.25765002,1.9138687,9.61463,-0.17958917,-0.04597509,0.6380367,0.08773765,-0.045742843,-0.57364506,2017-07-18 11:10:38,-Infinity
-0.43746948,1.8481598,10.224533,-0.040405273,0.13031006,-0.005264282,245.0,-0.25423974,1.9164355,9.614209,-0.28661343,-0.08865249,0.6290922,0.08781819,-0.04582258,-0.5723473,2017-07-18 11:10:39,-Infinity
-0.9889679,1.652298,10.439484,-0.18560791,0.5001373,1.6784668E-4,263.0,-0.32937437,1.8715005,9.620779,-0.56868255,-0.18419802,0.8075218,0.08803562,-0.041551515,-0.57437783,2017-07-18 11:10:40,-Infinity
-0.17356873,1.8985443,9.602097,-0.0011138916,-6.1035156E-5,-0.0012512207,240.0,-0.1790349,1.9052527,9.618126,0.089012265,0.023087978,-0.025190353,0.084899135,-0.049032632,-0.57615644,2017-07-18 11:10:41,-Infinity
-0.17147827,1.91539,9.631256,-0.0037078857,0.025924683,0.0025939941,244.0,-0.1445275,1.9184552,9.616082,0.0145049095,-0.001364708,-0.005706787,0.08444116,-0.050852455,-0.575973,2017-07-18 11:10:42,-Infinity
-0.17224121,1.904129,9.618088,-1.5258789E-5,7.4768066E-4,-0.0016021729,220.0,-0.17724968,1.9096019,9.617296,0.011353776,-0.007211566,-0.011330605,0.08496415,-0.04935025,-0.5772223,2017-07-18 11:10:43,-Infinity
-0.1293335,1.8772278,9.703125,0.006210327,-0.0072021484,0.0036621094,228.0,-0.21869616,1.8769456,9.62287,0.04038158,-0.01891303,0.07130146,0.0848661,-0.04656077,-0.57651573,2017-07-18 11:10:44,-Infinity
-0.67019653,1.6933899,9.652969,-0.0066223145,0.010986328,-0.0056610107,304.0,-0.664355,1.6945328,9.636264,0.004539788,0.0056453943,-0.031627655,0.09052113,-0.022208465,-0.57381994,2017-07-18 11:10:45,-Infinity
-0.67282104,1.6969757,9.601517,-0.002456665,0.0048675537,-0.0038757324,304.0,-0.6872043,1.6853551,9.6362705,8.459091E-4,-0.004401207,0.002986908,0.09089675,-0.020608455,-0.5704754,2017-07-18 11:10:46,-Infinity
-0.20922852,1.8443451,9.531128,-0.014038086,-0.011657715,-0.0020599365,229.0,-0.19110107,1.8639753,9.625978,-1.3245642E-4,-0.01377058,0.19078636,0.083729334,-0.046915725,-0.5725888,2017-07-18 11:10:47,-Infinity
-0.24006653,1.8527527,9.646332,-0.0054779053,0.008087158,-0.0056915283,240.0,-0.22484823,1.8553934,9.626907,0.010602459,0.0051910877,0.07984352,0.084304385,-0.045355283,-0.5736397,2017-07-18 11:10:48,-Infinity
-0.938797,1.8131561,4.5481567,0.012329102,-0.058441162,-0.0025634766,240.0,-0.22223808,1.8630794,9.6254835,-0.72344345,-0.039544582,-5.037998,0.0845101,-0.045770854,-0.57436675,2017-07-18 11:10:49,-Infinity
-0.21305847,1.8551941,10.352051,0.017181396,-0.21777344,-0.004180908,237.0,-0.2136375,1.8353821,9.630998,-0.05037421,-0.0047385693,0.7522297,0.08308879,-0.045299333,-0.57438725,2017-07-18 11:10:50,-Infinity
-0.22157288,1.8502655,9.612122,-0.0028533936,0.0037078857,-0.0029296875,249.0,-0.24761085,1.8509207,9.62721,-0.024441019,-0.0047426224,-2.6988983E-4,0.08452428,-0.04477228,-0.57846004,2017-07-18 11:10:51,-Infinity
-0.21151733,1.8414612,9.7017975,0.0036315918,-0.018051147,0.0028381348,234.0,-0.2293204,1.8506798,9.627709,0.016073659,-0.010700583,0.09559536,0.08412048,-0.045245945,-0.5757558,2017-07-18 11:10:52,-Infinity
-0.17648315,1.8560028,9.6306305,0.0024261475,-0.0032348633,0.001159668,224.0,-0.19984297,1.8539325,9.62774,0.06274456,0.013568401,0.013568878,0.08328599,-0.046747264,-0.57744396,2017-07-18 11:10:53,-Infinity
-0.25863647,1.8045502,9.70517,-7.171631E-4,-0.013381958,0.0024719238,249.0,-0.27230516,1.7975186,9.636658,-0.011472002,-0.013575435,0.026179314,0.08320228,-0.041768447,-0.5749417,2017-07-18 11:10:54,-Infinity
-0.1449585,1.8082733,10.234146,0.0033416748,-0.04473877,-0.009170532,252.0,-0.20556076,1.8210573,9.633892,0.05578287,-0.021322846,0.57875824,0.082452774,-0.044830084,-0.5706672,2017-07-18 11:10:55,-Infinity
-0.22981262,1.831665,9.644089,-0.0070343018,0.008743286,-0.004638672,229.0,-0.197448,1.8338461,9.631636,-0.025500938,-0.0074728727,-0.009159088,0.08268682,-0.045674216,-0.5718724,2017-07-18 11:10:56,-Infinity
-0.18412781,1.826767,9.653229,-0.009521484,0.0059814453,-0.0036010742,225.0,-0.20901302,1.8398585,9.630245,0.030816525,-0.007503271,0.008489609,0.083215825,-0.04548933,-0.57303995,2017-07-18 11:10:57,-Infinity
-0.14447021,1.8790436,9.611603,0.010986328,-0.013000488,0.013366699,208.0,-0.1896723,1.8516483,9.628386,0.0330344,0.021745086,-0.022305489,0.08305824,-0.046800528,-0.5744944,2017-07-18 11:10:58,-Infinity
-0.14837646,1.8624268,9.44603,0.017486572,-0.0657959,-0.013671875,243.0,-0.2527147,1.8293414,9.631201,0.09965582,0.031930327,-0.19090366,0.0840375,-0.043394897,-0.57350856,2017-07-18 11:10:59,-Infinity
-0.16365051,1.8583221,9.56665,0.007293701,-0.0471344,0.008483887,248.0,-0.22538091,1.8511515,9.627711,0.06785251,0.016994357,-0.068286896,0.08416081,-0.045169562,-0.5732912,2017-07-18 11:11:00,-Infinity
-0.23326111,1.8070831,9.78186,-0.027389526,0.03050232,-0.012161255,238.0,-0.18541548,1.846289,9.629498,-0.028638199,-0.029503822,0.116194725,0.082840085,-0.046580944,-0.5721721,2017-07-18 11:11:01,-Infinity
-0.24771118,1.8386078,9.651154,0.0010986328,0.0033721924,-0.0023956299,243.0,-0.22889557,1.8295027,9.631766,-0.009868473,0.009038806,0.014451027,0.08319041,-0.044676293,-0.57625145,2017-07-18 11:11:02,-Infinity
-0.17304993,1.8356476,9.690414,-0.009140015,0.015350342,-0.005645752,253.0,-0.2114442,1.824603,9.633094,0.012025565,0.0071148872,-0.05821991,0.082220234,-0.045702595,-0.580643,2017-07-18 11:11:03,-Infinity
-0.29122925,1.8187103,9.665482,0.01625061,-0.05381775,0.008834839,257.0,-0.19678602,1.8288212,9.632605,0.14094834,0.053173065,0.087638855,0.08210351,-0.04618285,-0.57810795,2017-07-18 11:11:04,-Infinity
-0.21160889,1.8250122,9.619843,-0.0061035156,0.014724731,-0.0036468506,257.0,-0.23573716,1.8208444,9.633242,0.032934055,0.009653211,-0.023069382,0.082955636,-0.043822307,-0.57836896,2017-07-18 11:11:05,-Infinity
-0.21432495,1.8165588,9.629852,0.0011291504,-0.0055389404,0.001083374,253.0,-0.25494593,1.8108,9.634645,0.0065719485,-0.0015076399,0.008078575,0.08304756,-0.043277025,-0.57869744,2017-07-18 11:11:06,-Infinity
-0.18136597,1.8215027,9.621933,-0.0016021729,-0.0028686523,-0.0012969971,245.0,-0.22856459,1.8212391,9.63334,-3.4928322E-4,-0.0031920671,0.038873672,0.082828745,-0.044449672,-0.5763368,2017-07-18 11:11:07,-Infinity
-0.09379578,1.9388885,9.483749,0.015853882,-0.064575195,-8.087158E-4,247.0,-0.19669189,1.9171075,9.615425,-0.014497131,-0.010751367,0.06019783,0.08644439,-0.047425997,-0.5758785,2017-07-18 11:11:08,-Infinity
-0.22758484,1.8867493,9.558975,0.0035247803,0.0010986328,-0.008728027,239.0,-0.2063941,1.8725679,9.623995,-0.0066437125,0.011505485,-0.077895164,0.084318966,-0.046937596,-0.57647824,2017-07-18 11:11:09,-Infinity
-0.14974976,1.8892822,9.667465,-0.009338379,0.0073394775,-0.0039367676,242.0,-0.17931122,1.8707982,9.624882,-0.017703727,0.016108751,0.018270493,0.08345147,-0.047994383,-0.5762915,2017-07-18 11:11:11,-Infinity
-0.37451172,1.8240814,10.210068,-0.0046844482,1.5258789E-5,0.005126953,250.0,-0.17016543,1.8748976,9.62425,0.20334996,0.055467486,0.28861237,0.0832663,-0.048647065,-0.5777263,2017-07-18 11:11:12,-Infinity
-0.18341064,1.8823395,9.637344,0.008544922,-0.004486084,8.69751E-4,247.0,-0.19874863,1.8821836,9.62228,0.041608498,-5.4240227E-4,-3.0136108E-4,0.084275514,-0.047777135,-0.57915336,2017-07-18 11:11:13,-Infinity
-0.20715332,1.922821,9.564087,-0.024734497,0.016235352,-0.0061798096,262.0,-0.29219106,1.8904624,9.618273,0.011343896,-0.005569577,0.030755043,0.087509505,-0.04412118,-0.57851267,2017-07-18 11:11:14,-Infinity
-0.31652832,1.8690491,9.540375,-0.005340576,0.012908936,-0.0064086914,209.0,-0.25320747,1.8928709,9.618904,0.052326232,0.01430583,0.034851074,0.086564794,-0.045595277,-0.5764421,2017-07-18 11:11:15,-Infinity
-0.27027893,1.8747101,9.605759,6.4086914E-4,0.0033569336,5.0354004E-4,259.0,-0.2599462,1.861565,9.624832,-0.01394999,0.011036396,-0.023605347,0.08545028,-0.044366606,-0.57642096,2017-07-18 11:11:16,-Infinity
-0.2922058,1.8517303,9.624741,-0.0012207031,0.010925293,-0.0043029785,253.0,-0.2852272,1.8494145,9.626458,-0.004947096,0.0024647713,-0.003923416,0.08571045,-0.042906273,-0.5760439,2017-07-18 11:11:17,-Infinity
0.7602539,0.78144836,9.892838,-0.08502197,-0.040924072,0.33018494,279.0,-0.32877392,0.42511734,9.791914,1.0510683,0.30660996,0.11182308,0.027405372,5.5250403E-4,-0.5954743,2017-07-18 11:11:18,-Infinity
0.06349182,-0.08938599,9.8703,-6.4086914E-4,0.0028686523,-6.713867E-4,375.0,0.06836937,-0.09017001,9.805997,-0.02969104,-0.046132807,0.13924217,-0.005769609,5.699902E-7,-0.6042562,2017-07-18 11:11:19,-Infinity
-4.1817474,0.38645935,11.9275055,0.926239,1.3461914,0.63142395,343.0,-1.6056106,0.5844651,9.656646,8.23867,2.4494545,-7.6359253,0.0734806,0.047420565,-0.6017518,2017-07-18 11:11:20,-Infinity
7.309311,-0.20953369,-0.7373657,-0.028793335,-0.90016174,-0.107559204,50.0,9.735431,0.2740714,-1.147456,0.823082,-0.3010558,0.020373762,-0.18504831,-0.72405875,-0.18257709,2017-07-18 11:11:21,-Infinity
8.375259,1.1981049,5.7820587,0.10775757,0.7825165,0.62086487,65.0,8.1792965,1.2451156,5.2649,0.5456433,-0.36040246,-0.24848986,-0.2208953,-0.42751613,-0.5150163,2017-07-18 11:11:22,-Infinity
8.083267,-0.7032776,4.3266144,-0.53115845,-0.22073364,-1.3176727,89.0,7.3765125,-0.507779,6.4420195,2.1157908,-0.97939426,-1.2586517,-0.10771228,-0.3999331,-0.17578848,2017-07-18 11:11:23,-Infinity
4.411026,6.3091736,7.184189,0.9590912,0.27252197,-2.0567474,103.0,3.477694,4.9826283,7.697366,1.9418879,0.15272713,-0.34986353,0.20943582,-0.25234935,-0.2508004,2017-07-18 11:11:24,-Infinity
2.0864868,2.3026733,12.949219,-1.4088593,-0.37374878,-0.1618042,107.0,-0.6757293,1.8026352,9.615835,5.2546,0.9911423,1.6346455,0.09782208,-0.012637421,-0.46580115,2017-07-18 11:11:25,-Infinity
0.053222656,3.2494354,13.916733,-0.40844727,0.5136719,-0.3669281,117.0,-0.21472098,1.964685,9.605431,1.2852371,2.1434264,3.6802673,0.094917916,-0.03535444,-0.44648325,2017-07-18 11:11:26,-Infinity
3.8392487,8.033234,5.431198,0.16404724,-0.16734314,0.6465149,1019.0,4.6376677,7.7996707,3.7185433,1.2769961,2.375156,0.1349523,0.5404794,-0.135237,0.23845835,2017-07-18 11:11:27,-Infinity
1.8725128,1.7422943,10.582382,1.2961731,0.8641205,-0.24623108,213.0,3.4964428,2.483365,8.819194,-1.9476566,-0.4573512,1.7585726,0.17900504,-0.11953363,0.5292879,2017-07-18 11:11:28,-Infinity
0.4228363,1.9988251,9.903885,0.09371948,0.21607971,0.17414856,36.0,0.4039048,1.9834123,9.595485,-0.34188658,0.39719474,-0.0030269623,0.08288438,0.062422972,0.7448557,2017-07-18 11:11:29,-Infinity
0.36218262,1.3432922,8.867615,-0.13928223,-0.48483276,-0.45845032,29.0,0.59147227,0.52513665,9.774701,-0.43862826,0.9124476,-0.9331713,0.0378666,-0.013966924,0.471452,2017-07-18 11:11:30,-Infinity
3.4054108,2.002945,8.716782,-0.36479187,-0.7277374,-0.80659485,18.0,2.149988,1.7480149,9.407039,0.93663764,0.2115804,-0.6367159,0.10922495,-0.091893464,0.18568347,2017-07-18 11:11:31,-Infinity
