ACC_X,ACC_Y,ACC_Z,GYRO_X,GYRO_Y,GYRO_Z,LIGH_1,GRAV_X,GRAV_Y,GRAV_Z,LINACC_X,LINACC_Y,LINACC_Z,ROTVEC_X,ROTVEC_Y,ROTVEC_Z,TIME,VOICE
-2.6623523,5.535394,7.5561004,0.267559,-0.10629055,0.2565634,47.0,-3.4011,5.5044,7.3690996,0.4493,-0.15969999,0.1525,0.256305,-0.242045,-0.904219,2017-08-22 21:22:57,63.75686478677736
-3.620033,7.5465236,4.912902,0.10995574,0.03176499,0.087964594,25.0,-3.6171,7.811,4.6983,0.3515,-0.34809998,0.0971,0.296956,-0.415053,-0.84492,2017-08-22 21:22:58,29.43765710690799
-2.767697,8.082825,4.606444,0.09285152,0.07819075,-0.017104227,20.0,-2.9384,8.1831,4.5355,-0.0231,-0.0436,-0.0047999998,0.247252,-0.455649,-0.845216,2017-08-22 21:22:59,30.162927894887556
0.32561144,5.9280434,6.339846,0.010995574,0.042760566,1.9327776,37.0,-1.0083,6.778,7.015,-1.2177,-0.8842,0.2418,0.143261,-0.349008,-0.899158,2017-08-22 21:23:00,29.452484892946114
4.453215,1.6950948,8.0924015,-0.52412236,-0.20280726,-0.26633725,47.0,4.7929997,0.88989997,8.5091,0.022,0.4437,-0.49699998,-0.153841,-0.206127,-0.709666,2017-08-22 21:23:01,26.06406559372182
6.215348,-0.92895025,8.00621,-0.012217305,0.19547687,0.061086524,20.0,6.2436,-1.0302,7.4916997,-0.14389999,-0.0289,1.0792,-0.282512,-0.195486,-0.674975,2017-08-22 21:23:02,25.729024458837362
5.765238,-0.7565677,7.690176,-0.013439035,-0.0036651916,-0.0036651916,22.0,5.8718,-0.82739997,7.8106,-0.1153,-0.0747,-0.0928,-0.2616,-0.18257,-0.6939,2017-08-22 21:23:03,26.590823886526934
1.2066777,2.72939,10.352529,-0.6939429,0.44104472,-1.0812315,52.0,1.474,0.2136,9.6928,-0.7974,-0.292,-0.092099994,-0.060578,-0.046166,-0.871534,2017-08-22 21:23:04,28.50847180051754
-0.06703765,0.02873042,9.720459,0.004886922,0.002443461,0.009773844,125.0,-0.1706,-0.2078,9.802899,0.1117,0.22739999,-0.0845,0.005445,0.012582,-0.96124,2017-08-22 21:23:05,27.11568670507367
-0.076614454,0.038307227,9.730036,0.004886922,0.002443461,0.009773844,125.0,-0.14479999,0.0296,9.8055,0.0749,0.0,0.0104,0.007524,4.92E-4,-0.964422,2017-08-22 21:23:06,33.14183668307821
-0.06703765,0.019153614,9.710882,0.004886922,0.002443461,0.010995574,125.0,-0.085499994,0.023699999,9.8062,0.025899999,-0.0137,-0.0195,0.004524,-5.3E-5,-0.96655,2017-08-22 21:23:07,29.24792768270447
-0.08619126,0.02873042,9.749189,0.0061086523,0.0036651916,0.012217305,125.0,-0.0648,0.0202,9.806399,0.0053,-4.0E-4,0.009699999,0.003458,-1.52E-4,-0.96661097,2017-08-22 21:23:08,30.852961540786424
-0.076614454,0.02873042,9.749189,0.0061086523,0.002443461,0.010995574,125.0,-0.0681,0.0208,9.8063,-8.0E-4,-0.0011,0.0098,0.003633,-1.38E-4,-0.966604,2017-08-22 21:23:09,28.91651556485113
-0.08619126,0.02873042,9.730036,0.0061086523,0.002443461,0.010995574,125.0,-0.0678,0.021699999,9.8063,0.018299999,-0.0019999999,0.0,0.003626,-1.87E-4,-0.966604,2017-08-22 21:23:10,27.642964156770475
-0.06703765,0.02873042,9.720459,0.0061086523,0.002443461,0.012217305,125.0,-0.067,0.0222,9.8063,-0.011899999,0.0072999997,0.0196,0.003593,-2.21E-4,-0.966604,2017-08-22 21:23:11,31.834157705879193
-0.076614454,0.02873042,9.749189,0.0061086523,0.0036651916,0.010995574,125.0,-0.0637,0.0251,9.806399,-0.0053999997,-0.0053,0.0196,0.003469,-4.0699998E-4,-0.966605,2017-08-22 21:23:12,30.550436886842917
-0.076614454,0.038307227,9.749189,0.004886922,0.0012217305,0.012217305,125.0,-0.065799996,0.0207,9.806399,-0.0032,-9.999999E-4,-0.0197,0.003515,-1.63E-4,-0.966604,2017-08-22 21:23:13,27.276708550739173
-0.076614454,0.02873042,9.730036,0.004886922,0.0012217305,0.010995574,125.0,-0.0665,0.0218,9.806399,0.017099999,0.0077,0.0195,0.003564,-2.06E-4,-0.966604,2017-08-22 21:23:14,28.171778764650483
-0.076614454,0.019153614,9.749189,0.004886922,0.0036651916,0.010995574,125.0,-0.0681,0.020499999,9.8063,-9.0E-4,0.0089,0.0098,0.003625,-1.23E-4,-0.966604,2017-08-22 21:23:16,29.90033453509174
-0.076614454,0.019153614,9.730036,0.0061086523,0.002443461,0.010995574,125.0,-0.0669,0.018199999,9.806399,0.0075,0.0014,-0.0099,0.003538,-2.5E-5,-0.966604,2017-08-22 21:23:17,27.640686667170304
-0.076614454,0.038307227,9.758766,0.0061086523,0.002443461,0.010995574,125.0,-0.0682,0.0198,9.8063,-9.0E-4,-1.0E-4,0.0,0.003621,-8.8E-5,-0.966603,2017-08-22 21:23:18,27.453188183805793
-0.05746084,0.038307227,9.758766,0.004886922,0.0036651916,0.010995574,125.0,-0.0611,0.021399999,9.806399,0.0117,0.007999999,0.009699999,0.003293,-2.59E-4,-0.966604,2017-08-22 21:23:19,26.100126963426614
-0.076614454,0.02873042,9.758766,0.004886922,0.002443461,0.010995574,125.0,-0.0657,0.0219,9.806399,-0.0033,-0.0021,0.0098,0.003524,-2.21E-4,-0.966603,2017-08-22 21:23:20,24.98513005013959
-0.076614454,0.02873042,9.730036,0.0061086523,0.0012217305,0.010995574,125.0,-0.0642,0.0234,9.806399,-0.0145,-0.0037,-0.0098,0.003471,-3.18E-4,-0.966603,2017-08-22 21:23:21,23.115088392697835
-0.06703765,0.02873042,9.749189,0.007330383,0.0036651916,0.010995574,125.0,-0.0639,0.0209,9.806399,0.0047,-0.0011,-0.0392,0.003424,-1.95E-4,-0.966603,2017-08-22 21:23:22,23.02543991382506
-0.076614454,0.019153614,9.730036,0.0061086523,0.0036651916,0.012217305,125.0,-0.0622,0.021399999,9.806399,-0.0066,0.007999999,-0.009699999,0.0033479999,-2.43E-4,-0.966603,2017-08-22 21:23:23,23.868416064107155
-0.06703765,0.02873042,9.758766,0.0061086523,0.002443461,0.010995574,125.0,-0.065299995,0.0191,9.806399,-0.0037,5.9999997E-4,0.0195,0.003472,-8.7E-5,-0.96660197,2017-08-22 21:23:24,24.97573178592921
-0.06703765,0.019153614,9.730036,0.004886922,0.002443461,0.010995574,125.0,-0.0628,0.0211,9.806399,-0.016099999,-0.0112,0.0,0.003374,-2.23E-4,-0.96660197,2017-08-22 21:23:25,24.038253555884033
-0.08619126,0.038307227,9.730036,0.0061086523,0.0012217305,0.010995574,125.0,-0.0633,0.019399999,9.806399,0.0139,2.0E-4,-0.0099,0.003374,-1.29E-4,-0.96660197,2017-08-22 21:23:26,23.234615889891195
-0.076614454,0.02873042,9.749189,0.004886922,0.002443461,0.012217305,125.0,-0.0657,0.019199999,9.806399,0.0066,4.0E-4,-0.009699999,0.003489,-8.8E-5,-0.966601,2017-08-22 21:23:27,23.47808573419107
-0.06703765,0.019153614,9.730036,0.0061086523,0.002443461,0.012217305,125.0,-0.0709,0.021399999,9.8063,-0.0079,-0.0016,-0.0195,0.003777,-1.27E-4,-0.9666,2017-08-22 21:23:28,24.2017500771759
-0.076614454,0.019153614,9.749189,0.004886922,0.0036651916,0.010995574,125.0,-0.066199996,0.0189,9.806399,-0.0029,-0.0089,0.029299999,0.003515,-6.7E-5,-0.966601,2017-08-22 21:23:29,25.338236738467103
-0.076614454,0.02873042,9.749189,0.0061086523,0.0036651916,0.010995574,125.0,-0.0683,0.0199,9.8063,-8.0E-4,-1.0E-4,0.0197,0.003628,-8.9E-5,-0.966601,2017-08-22 21:23:30,24.295176128333615
-0.076614454,0.02873042,9.730036,0.004886922,0.002443461,0.010995574,125.0,-0.063,0.020299999,9.806399,-0.0058,-5.9999997E-4,-0.029299999,0.003371,-1.77E-4,-0.966601,2017-08-22 21:23:31,23.373999785438528
-0.08619126,0.019153614,9.749189,0.004886922,0.0012217305,0.010995574,125.0,-0.066599995,0.020299999,9.806399,-0.0023,-5.9999997E-4,0.0,0.00355,-1.31E-4,-0.966601,2017-08-22 21:23:32,23.753406302286628
-0.076614454,0.02873042,9.749189,0.0061086523,0.002443461,0.010995574,125.0,-0.0643,0.0202,9.806399,-0.0046,-4.9999997E-4,-0.0098,0.003434,-1.6E-4,-0.966601,2017-08-22 21:23:33,28.171509974563236
-0.076614454,0.02873042,9.749189,0.004886922,0.0012217305,0.010995574,125.0,-0.0659,0.0213,9.806399,-0.0029,-0.0015,-0.009699999,0.00353,-1.88E-4,-0.966601,2017-08-22 21:23:34,26.056803789027775
-0.06703765,0.02873042,9.749189,0.004886922,0.002443461,0.010995574,125.0,-0.065799996,0.021,9.806399,-0.0128999995,-0.0013,-0.029299999,0.003518,-1.78E-4,-0.966601,2017-08-22 21:23:35,25.269064141274086
-0.076614454,0.02873042,9.730036,0.0061086523,0.0012217305,0.010995574,125.0,-0.065799996,0.0224,9.806399,-0.0030999999,-0.0026999998,-0.0197,0.003538,-2.48E-4,-0.966601,2017-08-22 21:23:36,23.782218306263097
-0.076614454,0.02873042,9.720459,0.0061086523,0.0012217305,0.010995574,125.0,-0.062699996,0.0208,9.806399,0.0033999998,-0.0011,-0.0196,0.003363,-2.09E-4,-0.966601,2017-08-22 21:23:37,27.289862445952878
-0.076614454,0.02873042,9.749189,0.0061086523,0.0012217305,0.009773844,125.0,-0.0691,0.0211,9.8063,-0.0098,-0.0111,0.0,0.0036839999,-1.37E-4,-0.9666,2017-08-22 21:23:38,30.84355611903488
-0.076614454,0.019153614,9.730036,0.004886922,0.0012217305,0.010995574,125.0,-0.0691,0.0212,9.8063,-1.0E-4,-0.0014,0.029399998,0.003683,-1.43E-4,-0.966599,2017-08-22 21:23:39,29.791932883037425
-0.08619126,0.02873042,9.730036,0.0061086523,0.0012217305,0.012217305,125.0,-0.0613,0.0222,9.806399,-0.0075999997,0.0072,-0.009699999,0.003314,-2.94E-4,-0.966601,2017-08-22 21:23:40,26.846420189165773
-0.06703765,0.038307227,9.749189,0.004886922,0.002443461,0.010995574,125.0,-0.0659,0.0209,9.806399,0.0064999997,0.008599999,0.0195,0.003521,-1.7E-4,-0.9666,2017-08-22 21:23:41,28.476439818356347
-0.08619126,0.019153614,9.730036,0.0061086523,0.0012217305,0.009773844,125.0,-0.0648,0.0223,9.806399,-0.0139,-0.012399999,-0.029199999,0.003488,-2.54E-4,-0.9666,2017-08-22 21:23:42,26.92278077008602
-0.076614454,0.02873042,9.730036,0.004886922,0.0012217305,0.010995574,125.0,-0.0679,0.021399999,9.8063,-0.010799999,-0.0016,-0.009699999,0.003627,-1.67E-4,-0.9666,2017-08-22 21:23:43,29.51199350853986
-0.076614454,0.02873042,9.730036,0.0036651916,0.0012217305,0.010995574,125.0,-0.065799996,0.0223,9.806399,0.0164,-0.0026,0.0,0.003537,-2.43E-4,-0.9666,2017-08-22 21:23:44,27.685109201671466
-0.06703765,0.019153614,9.749189,0.004886922,0.0012217305,0.012217305,125.0,-0.0682,0.0207,9.8063,-0.010799999,-0.0106999995,0.0,0.003633,-1.33E-4,-0.9666,2017-08-22 21:23:45,24.51268195743378
-0.08619126,0.038307227,9.768343,0.004886922,0.0,0.010995574,125.0,-0.0679,0.0235,9.8063,-0.011,-0.0037,0.0195,0.003659,-2.73E-4,-0.9666,2017-08-22 21:23:46,26.433030535391907
-0.05746084,0.02873042,9.749189,0.0036651916,0.0012217305,0.010995574,125.0,-0.0659,0.0222,9.806399,0.0064,-0.0023,0.029399998,0.003538,-2.33E-4,-0.966601,2017-08-22 21:23:47,24.92175233532493
-0.05746084,0.038307227,9.749189,0.004886922,0.002443461,0.010995574,125.0,-0.060799997,0.019399999,9.806399,0.011399999,-0.0095,0.009699999,0.003255,-1.63E-4,-0.96660197,2017-08-22 21:23:48,26.413191547519638
-0.05746084,0.02873042,9.758766,0.0061086523,0.002443461,0.010995574,125.0,-0.0647,0.019199999,9.806399,0.0055,4.0E-4,-0.0196,0.003443,-1.01E-4,-0.96660197,2017-08-22 21:23:49,24.068248267737104
-0.06703765,0.02873042,9.710882,0.004886922,0.0012217305,0.010995574,125.0,-0.060799997,0.0243,9.806399,-0.0082,-0.0045,0.0,0.003319,-4.04E-4,-0.966601,2017-08-22 21:23:50,26.359766978010732
-0.076614454,0.02873042,9.730036,0.0036651916,0.0012217305,0.009773844,125.0,-0.0624,0.022799999,9.806399,-0.0066,-0.003,-0.0196,0.003373,-3.08E-4,-0.966601,2017-08-22 21:23:51,29.394857120585375
-0.06703765,0.02873042,9.749189,0.004886922,0.0012217305,0.010995574,125.0,-0.0654,0.0246,9.806399,0.0061,-0.0047999998,0.0196,0.003548,-3.59E-4,-0.9666,2017-08-22 21:23:52,31.891541809337383
-0.076614454,0.038307227,9.749189,0.004886922,0.0012217305,0.010995574,125.0,-0.069,0.0218,9.8063,-0.0099,-0.0019999999,0.0098,0.00369,-1.73E-4,-0.966599,2017-08-22 21:23:53,26.580740307675356
-0.08619126,0.02873042,9.730036,0.004886922,0.0012217305,0.010995574,125.0,-0.0613,0.0235,9.806399,0.0019999999,0.0061,0.0196,0.00333,-3.56E-4,-0.966601,2017-08-22 21:23:54,27.336698851012752
-0.05746084,0.038307227,9.749189,0.0036651916,0.0012217305,0.009773844,125.0,-0.0652,0.022699999,9.806399,-0.0037,-0.003,0.0,0.003515,-2.68E-4,-0.966601,2017-08-22 21:23:55,27.826103349555503
-0.08619126,0.02873042,9.758766,0.004886922,0.0012217305,0.010995574,125.0,-0.0657,0.024899999,9.8063,-0.0033,0.0046,0.0,0.003565,-3.71E-4,-0.966601,2017-08-22 21:23:56,26.445555181013987
-0.076614454,0.038307227,9.758766,0.004886922,0.002443461,0.010995574,125.0,-0.065299995,0.0223,9.806399,0.0061,-0.0025,0.0098,0.003512,-2.45E-4,-0.966601,2017-08-22 21:23:57,26.20817360024074
-0.06703765,0.02873042,9.749189,0.0036651916,0.0012217305,0.010995574,125.0,-0.0633,0.024,9.806399,-0.0056,0.0053999997,-1.0E-4,0.0034389999,-3.59E-4,-0.96660197,2017-08-22 21:23:59,25.538792356489598
-0.076614454,0.02873042,9.730036,0.004886922,0.0012217305,0.009773844,125.0,-0.067,0.0246,9.8063,-0.0018999999,-0.0049,-0.029299999,0.003625,-3.39E-4,-0.966601,2017-08-22 21:24:00,27.283702706926334
-0.076614454,0.02873042,9.758766,0.004886922,0.0012217305,0.010995574,125.0,-0.0629,0.024,9.806399,0.0037999998,0.0053999997,-0.009699999,0.003417,-3.64E-4,-0.966601,2017-08-22 21:24:01,31.005046257646516
-0.06703765,0.02873042,9.720459,0.004886922,0.0012217305,0.009773844,125.0,-0.0648,0.026099999,9.806399,0.0055,0.0033999998,0.0195,0.00354,-4.42E-4,-0.966601,2017-08-22 21:24:02,25.74544879037844
-0.06703765,0.038307227,9.749189,0.0061086523,0.0,0.010995574,125.0,-0.063999996,0.0253,9.806399,0.0144,0.0042,0.0196,0.003487,-4.13E-4,-0.96660197,2017-08-22 21:24:03,24.295857550751347
-0.05746084,0.02873042,9.768343,0.004886922,0.0012217305,0.010995574,125.0,-0.063999996,0.024899999,9.806399,0.0145,-0.0050999997,0.0391,0.003483,-3.91E-4,-0.96660197,2017-08-22 21:24:04,23.93890391049346
-0.076614454,0.02873042,9.730036,0.004886922,0.0012217305,0.012217305,125.0,-0.0681,0.024999999,9.8063,-8.0E-4,-0.0052,-0.029299999,0.0036839999,-3.4199998E-4,-0.966603,2017-08-22 21:24:05,25.82294233647062
-0.076614454,0.02873042,9.749189,0.004886922,0.0012217305,0.009773844,125.0,-0.067099996,0.024799999,9.8063,0.0079,-0.0050999997,-0.0095999995,0.003633,-3.48E-4,-0.966603,2017-08-22 21:24:06,24.56249756476298
-0.076614454,0.02873042,9.730036,0.0061086523,0.0012217305,0.010995574,125.0,-0.0659,0.0257,9.8063,-0.0030999999,-0.0058999998,0.0,0.003585,-4.05E-4,-0.966606,2017-08-22 21:24:07,22.994528178019777
-0.06703765,0.038307227,9.768343,0.004886922,0.0012217305,0.010995574,125.0,-0.0654,0.023799999,9.806399,0.015999999,0.0056,-1.0E-4,0.003537,-3.22E-4,-0.966606,2017-08-22 21:24:08,24.711610179085476
-0.06703765,0.038307227,9.758766,0.004886922,0.0012217305,0.010995574,125.0,-0.067499995,0.0255,9.8063,0.0279,-0.0056999996,0.0098,0.003662,-3.75E-4,-0.966607,2017-08-22 21:24:09,24.34049675732617
-0.08619126,0.02873042,9.730036,0.004886922,0.0012217305,0.010995574,125.0,-0.0667,0.0268,9.8063,-0.0023,-0.0069999998,0.0196,0.003642,-4.5E-4,-0.966607,2017-08-22 21:24:10,24.948782499040103
-0.06703765,0.019153614,9.749189,0.004886922,0.0012217305,0.010995574,125.0,-0.0663,0.025899999,9.8063,-0.0026,0.0036,-0.0196,0.003608,-4.11E-4,-0.966609,2017-08-22 21:24:11,23.716305788339334
-0.076614454,0.038307227,9.758766,0.004886922,0.0012217305,0.010995574,125.0,-0.062299997,0.026099999,9.806399,-0.0164,0.0033999998,-0.029399998,0.003414,-4.71E-4,-0.966609,2017-08-22 21:24:12,21.911102782595574
-0.06703765,0.02873042,9.730036,0.004886922,0.0012217305,0.010995574,125.0,-0.066199996,0.026099999,9.8063,0.0167,0.0033999998,-0.0196,0.003605,-4.23E-4,-0.966609,2017-08-22 21:24:13,25.015940945331998
-0.076614454,0.038307227,9.749189,0.0036651916,0.0012217305,0.010995574,125.0,-0.065299995,0.0231,9.806399,-0.0037999998,0.0064,0.019399999,0.003522,-2.87E-4,-0.966609,2017-08-22 21:24:14,25.748231327998976
-0.05746084,0.038307227,9.749189,0.0036651916,0.0012217305,0.010995574,125.0,-0.0651,0.0244,9.806399,0.0157,0.005,0.0,0.00353,-3.55E-4,-0.966609,2017-08-22 21:24:15,23.908633808013143
-0.06703765,0.038307227,9.749189,0.004886922,0.0012217305,0.010995574,125.0,-0.0605,0.026899999,9.806399,-0.0084,0.0025,0.0,0.003338,-5.38E-4,-0.96661,2017-08-22 21:24:16,22.9590025193194
-0.076614454,0.02873042,9.758766,0.004886922,0.0,0.010995574,125.0,-0.0641,0.0241,9.806399,-0.0148,0.0053999997,0.0,0.003475,-3.52E-4,-0.96661097,2017-08-22 21:24:17,24.317481255965937
-0.076614454,0.02873042,9.730036,0.004886922,0.0012217305,0.010995574,125.0,-0.0646,0.026099999,9.806399,-0.014099999,0.0033,-0.0098,0.003528,-4.44E-4,-0.96661097,2017-08-22 21:24:18,23.292357514841754
-0.08619126,0.038307227,9.749189,0.004886922,0.0012217305,0.010995574,125.0,-0.0628,0.024899999,9.806399,0.0033999998,0.0046,0.039,0.003421,-4.1E-4,-0.966613,2017-08-22 21:24:19,24.826123390635196
-0.076614454,0.038307227,9.749189,0.004886922,0.002443461,0.010995574,125.0,-0.064399995,0.0234,9.806399,0.0052,-0.0037,-0.029399998,0.003485,-3.14E-4,-0.966614,2017-08-22 21:24:20,26.559079168196963
-0.08619126,0.038307227,9.749189,0.0061086523,0.0012217305,0.010995574,125.0,-0.0643,0.023699999,9.806399,-0.0047,0.0058,0.019399999,0.003483,-3.3E-4,-0.966615,2017-08-22 21:24:21,28.58147917556419
-0.06703765,0.038307227,9.730036,0.004886922,0.0012217305,0.010995574,125.0,-0.0664,0.022699999,9.8063,-0.012399999,-0.0029,-0.0196,0.003569,-2.53E-4,-0.966615,2017-08-22 21:24:22,34.19220551699188
-0.05746084,0.02873042,9.730036,0.004886922,0.0012217305,0.010995574,125.0,-0.0641,0.021499999,9.806399,-0.0047999998,-0.0018,-0.0391,0.003442,-2.22E-4,-0.966614,2017-08-22 21:24:23,32.728470701502026
-0.076614454,0.038307227,9.720459,0.0036651916,0.0,0.010995574,125.0,-0.0622,0.0243,9.806399,-0.0067,0.0052,-0.0196,0.003387,-3.83E-4,-0.966614,2017-08-22 21:24:24,30.83307734836162
-0.06703765,0.02873042,9.758766,0.0036651916,0.0012217305,0.009773844,125.0,-0.0672,0.0224,9.8063,0.007999999,-0.0026999998,-0.0196,0.003609,-2.28E-4,-0.966616,2017-08-22 21:24:25,27.663326644132354
-0.06703765,0.038307227,9.749189,0.002443461,0.0,0.009773844,125.0,-0.0632,0.025899999,9.806399,0.0037999998,0.0036,0.029299999,0.003459,-4.53E-4,-0.966616,2017-08-22 21:24:26,41.06246530241013
-0.06703765,0.038307227,9.749189,0.004886922,0.0,0.009773844,125.0,-0.0656,0.0244,9.806399,0.0061999997,0.0050999997,0.019299999,0.003553,-3.48E-4,-0.966617,2017-08-22 21:24:27,39.90243231755465
-0.06703765,0.02873042,9.758766,0.004886922,0.0012217305,0.009773844,125.0,-0.062099997,0.0266,9.806399,0.0029,0.0029,-0.0196,0.003411,-5.01E-4,-0.966618,2017-08-22 21:24:28,31.354447380882497
-0.05746084,0.02873042,9.749189,0.004886922,0.0012217305,0.009773844,125.0,-0.0641,0.0252,9.806399,-0.0047999998,-0.0055,-0.0197,0.003493,-4.0699998E-4,-0.966619,2017-08-22 21:24:29,30.287160950245337
-0.095768064,0.038307227,9.749189,0.004886922,0.0012217305,0.009773844,122.0,-0.067,0.024899999,9.8063,0.0075999997,-0.0050999997,0.0,0.003629,-3.53E-4,-0.96661997,2017-08-22 21:24:30,26.03928859424489
-0.06703765,0.038307227,9.749189,0.0036651916,0.002443461,0.010995574,125.0,-0.0602,0.0244,9.806399,-0.0087,-0.0046,-0.0196,0.0032869999,-4.17E-4,-0.966623,2017-08-22 21:24:31,27.402615068346808
-0.06703765,0.038307227,9.710882,0.004886922,0.0,0.010995574,125.0,-0.065,0.023699999,9.806399,-0.0037999998,0.0058,-0.029299999,0.003518,-3.18E-4,-0.966622,2017-08-22 21:24:32,30.850195056698638
-0.08619126,0.02873042,9.730036,0.004886922,0.0012217305,0.009773844,125.0,-0.063099995,0.0254,9.806399,0.0039,-0.0056,-0.0196,0.003446,-4.27E-4,-0.966622,2017-08-22 21:24:33,28.46133102023785
-0.076614454,0.02873042,9.730036,0.004886922,0.0,0.009773844,125.0,-0.0646,0.0253,9.806399,0.0052,0.0042,0.0195,0.003515,-4.06E-4,-0.966622,2017-08-22 21:24:34,30.97753895365543
-0.06703765,0.038307227,9.749189,0.0036651916,0.0,0.010995574,125.0,-0.064399995,0.0253,9.806399,0.0052,0.0042,-0.0195,0.003507,-4.06E-4,-0.966622,2017-08-22 21:24:35,26.78993271153669
-0.06703765,0.038307227,9.749189,0.004886922,0.0012217305,0.009773844,125.0,-0.065799996,0.0266,9.8063,0.0066,0.0029,0.0,0.003596,-4.53E-4,-0.966623,2017-08-22 21:24:37,25.146680966498497
-0.08619126,0.02873042,9.730036,0.0036651916,0.0012217305,0.010995574,125.0,-0.0656,0.0244,9.806399,-0.0133,-0.0046,-1.0E-4,0.003554,-3.48E-4,-0.966623,2017-08-22 21:24:38,31.236985496728963
-0.08619126,0.02873042,9.730036,0.004886922,0.0,0.009773844,125.0,-0.0668,0.026099999,9.8063,-0.0121,0.0132,0.0,0.003637,-4.15E-4,-0.966625,2017-08-22 21:24:39,27.73840134425042
-0.06703765,0.038307227,9.749189,0.004886922,0.0012217305,0.010995574,125.0,-0.0648,0.0268,9.8063,0.0154,0.0026999998,-0.0196,0.003546,-4.75E-4,-0.966624,2017-08-22 21:24:40,27.547817925706074
-0.05746084,0.038307227,9.730036,0.0036651916,0.0,0.009773844,125.0,-0.0681,0.0253,9.8063,-9.0E-4,0.0042,0.0,0.003687,-3.57E-4,-0.966624,2017-08-22 21:24:41,27.464115951624507
-0.06703765,0.038307227,9.730036,0.004886922,0.0,0.009773844,122.0,-0.0648,0.0266,9.806399,-0.0042999997,0.0029,-1.0E-4,0.003542,-4.66E-4,-0.966625,2017-08-22 21:24:42,32.3213174129662
-0.06703765,0.038307227,9.720459,0.0036651916,0.0012217305,0.010995574,125.0,-0.0683,0.026099999,9.8063,0.0188,0.0033999998,-0.009699999,0.003712,-3.98E-4,-0.966626,2017-08-22 21:24:43,31.703474470804167
-0.05746084,0.038307227,9.749189,0.004886922,0.0,0.009773844,125.0,-0.0661,0.0266,9.8063,-0.0126,-0.0067999996,-0.0195,0.003609,-4.4899998E-4,-0.966626,2017-08-22 21:24:44,31.62238526090954
-0.076614454,0.02873042,9.730036,0.0036651916,0.0,0.010995574,125.0,-0.0646,0.0274,9.8063,0.0052,0.0021,0.0196,0.003542,-5.1E-4,-0.966627,2017-08-22 21:24:45,31.6004344538578
-0.05746084,0.038307227,9.730036,0.0036651916,0.0,0.010995574,125.0,-0.0637,0.0268,9.806399,-0.0052,-0.0069999998,-0.0195,0.003491,-4.88E-4,-0.966627,2017-08-22 21:24:46,31.440943117859497
-0.076614454,0.02873042,9.730036,0.004886922,0.0012217305,0.010995574,125.0,-0.0673,0.027199998,9.8063,-0.0115,0.0023,0.0,0.003673,-4.64E-4,-0.966627,2017-08-22 21:24:47,29.0828391006195
-0.076614454,0.02873042,9.730036,0.0036651916,0.0,0.009773844,125.0,-0.0663,0.026099999,9.8063,0.0069999998,0.0033999998,0.0196,0.003612,-4.21E-4,-0.96662897,2017-08-22 21:24:48,30.005926788053984
-0.076614454,0.02873042,9.749189,0.004886922,0.0,0.010995574,125.0,-0.0651,0.0244,9.806399,-0.0037,-0.0047,-0.009699999,0.003532,-3.55E-4,-0.96663,2017-08-22 21:24:49,29.547006896176484
-0.076614454,0.038307227,9.749189,0.004886922,0.0,0.009773844,125.0,-0.065299995,0.027199998,9.8063,-0.0036,0.0023,0.0,0.003578,-4.88E-4,-0.96663,2017-08-22 21:24:50,29.05618822072869
-0.076614454,0.019153614,9.730036,0.004886922,0.0012217305,0.010995574,125.0,-0.0628,0.0278,9.806399,0.0231,0.0018,0.0,0.003462,-5.49E-4,-0.96662897,2017-08-22 21:24:51,30.89588322869803
-0.06703765,0.047884032,9.749189,0.004886922,0.0,0.010995574,125.0,-0.0629,0.0276,9.806399,0.0036,-0.0078,0.0,0.003465,-5.4E-4,-0.96662897,2017-08-22 21:24:52,26.55509096339462
-0.05746084,0.038307227,9.720459,0.004886922,0.0012217305,0.009773844,125.0,-0.063099995,0.0273,9.806399,0.0037,-0.0074,0.029199999,0.003469,-5.22E-4,-0.96662897,2017-08-22 21:24:53,28.916968393069933
-0.076614454,0.02873042,9.720459,0.0036651916,0.0,0.009773844,125.0,-0.0677,0.025799999,9.8063,-0.0016,0.0037,0.0196,0.003674,-3.91E-4,-0.966631,2017-08-22 21:24:54,32.29734622396673
-0.08619126,0.038307227,9.730036,0.004886922,0.0012217305,0.010995574,125.0,-0.062699996,0.028199999,9.806399,0.0033999998,0.0014,0.0196,0.003463,-5.7E-4,-0.966632,2017-08-22 21:24:55,31.04576193147594
-0.076614454,0.02873042,9.730036,0.0036651916,0.0,0.009773844,125.0,-0.0642,0.0264,9.806399,0.0049,-0.0066,0.019399999,0.003513,-4.65E-4,-0.966633,2017-08-22 21:24:56,28.790537460150944
-0.05746084,0.02873042,9.749189,0.004886922,0.0,0.009773844,125.0,-0.0625,0.0242,9.806399,0.0032,-0.0045,-0.0196,0.003397,-3.79E-4,-0.966634,2017-08-22 21:24:57,29.492352006519912
-0.076614454,0.038307227,9.730036,0.0036651916,0.0,0.009773844,125.0,-0.0667,0.0267,9.8063,-0.0025,0.0029,0.009699999,0.003638,-4.44E-4,-0.966632,2017-08-22 21:24:58,28.90265536463936
-0.06703765,0.02873042,9.720459,0.004886922,0.0,0.009773844,125.0,-0.0626,0.0277,9.806399,0.0032,-0.0078,0.0,0.003451,-5.47E-4,-0.966633,2017-08-22 21:24:59,29.592575909020663
-0.076614454,0.038307227,9.749189,0.004886922,0.0012217305,0.009773844,125.0,-0.065299995,0.027999999,9.8063,-0.0037999998,0.0015,0.029399998,0.00359,-5.3E-4,-0.966632,2017-08-22 21:25:00,29.47198527700555
-0.06703765,0.02873042,9.720459,0.0036651916,0.0,0.009773844,122.0,-0.065,0.0284,9.8063,-0.0039999997,-0.008599999,0.0,0.003578,-5.53E-4,-0.966633,2017-08-22 21:25:01,30.275171509353072
0.02873042,0.1436521,9.80665,-0.0012217305,0.004886922,0.2919936,125.0,-0.1184,-0.087,9.8055,0.99009997,-1.5023999,-0.0972,0.00421,0.0062,-0.942521,2017-08-22 21:25:02,32.6524615297656
6.129156,3.6296098,2.882619,-0.2968805,-2.6548204,-0.34574974,35.0,6.2321,1.4216,7.437,-0.83159995,-2.4973,-1.5254999,-0.264949,-0.224984,-0.831803,2017-08-22 21:25:03,37.23085820390364
5.717354,0.39264908,6.493075,0.013439035,-0.1001819,0.0,20.0,6.4063,0.2775,7.4196,-0.6806,-0.61829996,-0.3707,-0.283866,-0.202782,-0.78545,2017-08-22 21:25:04,37.223933951871786
0.82360536,3.3614593,12.823344,1.6029104,-0.13805555,-2.5094345,47.0,-0.0253,3.7247999,9.0716,0.7606,-0.4944,2.9345,0.004067,0.193537,0.980704,2017-08-22 21:25:05,38.16384038411315
-2.5953147,5.353435,6.090849,-0.19425514,0.48747048,0.04520403,15.0,-3.0723999,5.6006,7.4406,0.8089,0.1963,-1.1466,-0.036958,0.345349,0.865481,2017-08-22 21:25:06,36.251381064269275
-0.31603462,5.7843914,8.456321,1.2803736,-0.009773844,1.4172074,17.0,-1.9487,5.7216997,7.7222996,1.6173999,0.10569999,0.8002,0.0334,0.324274,0.858952,2017-08-22 21:25:07,30.33809372450202
-0.93852705,6.579266,6.9527617,0.46914452,0.4373795,-0.040317107,15.0,-1.3686999,6.7978997,6.9343,0.7582,-0.137,0.6005,0.02186,0.38206,0.893805,2017-08-22 21:25:08,29.54779014152453
-3.1986535,7.6710224,4.5202527,0.52778757,0.3359759,-0.30298916,15.0,-2.5558,7.46,5.8297,0.22829999,-0.038,0.6556,-0.029968,0.449294,0.862068,2017-08-22 21:25:09,31.686397145074082
-3.6487634,7.52737,4.855441,0.21868975,0.058643065,-0.13439035,15.0,-3.5586,7.7183,4.8921,-0.052699998,-0.088199995,-0.30769998,-0.067939,0.499982,0.825177,2017-08-22 21:25:10,30.819292855230444
-1.532289,5.2768207,7.422025,-0.095294975,-0.080634214,-0.15393804,17.0,-2.3732998,6.0035,7.382,-0.90809995,0.5025,-0.71639997,-0.028425,0.354135,0.898072,2017-08-22 21:25:11,32.91698997448573
-2.6144683,6.8761473,6.0525417,-0.04886922,-0.15149458,-0.015882496,15.0,-2.3155,7.0698,6.3894,-0.5196,-0.1515,-0.6737,-0.037194,0.417425,0.883031,2017-08-22 21:25:12,52.00695720628373
-3.6870706,6.5984197,6.3685765,0.04520403,-0.1441642,-0.028099801,15.0,-3.5616999,6.2994,6.6180997,-0.2439,0.36879998,-0.118,-0.0996,0.390165,0.878587,2017-08-22 21:25:13,36.74280296795224
-3.572149,5.631162,7.0581064,-0.039095376,0.032986723,-0.0842994,17.0,-3.5319998,5.7275,7.1337,0.035499997,-0.066,-0.14739999,-0.083678,0.36010098,0.882613,2017-08-22 21:25:14,31.10197637312112
-3.5817258,5.410896,7.0006456,-0.030543262,-0.030543262,-0.010995574,17.0,-3.7775,5.4954,7.1903,0.14459999,-0.0033999998,-0.045399997,-0.099566,0.351142,0.882124,2017-08-22 21:25:15,33.57978893275092
-3.2273839,6.215348,7.029376,0.2773328,-1.2327261,0.04520403,17.0,-2.4787,5.9756,7.37,0.20449999,0.66539997,0.3618,-0.044702,0.356058,0.875965,2017-08-22 21:25:16,33.71891201312808
-2.4420857,5.209783,6.799533,0.48624873,0.35185838,0.3323107,15.0,-2.5044,5.8451,7.4653997,-0.4502,-0.51669997,0.3978,0.016194,0.350243,0.845464,2017-08-22 21:25:17,32.25541069779582
-3.763685,8.552089,-0.22026655,0.23701571,0.36285394,-0.24801129,15.0,-3.3715,7.9725,4.6088,0.35999998,-0.1733,-0.49769998,0.003085,0.533837,0.776322,2017-08-22 21:25:18,32.546371865476
-0.40222588,5.4300494,5.9184666,0.9737192,-0.2125811,-1.3988814,17.0,-1.2372,6.3192997,7.3961997,2.639,-0.069,-0.2983,0.127824,0.321836,0.814725,2017-08-22 21:25:19,32.501206354872025
1.0821792,6.588843,7.2304893,-0.25900686,-0.09040806,-0.10995574,17.0,0.68039995,7.0302997,6.803,0.3901,-0.3233,0.1286,0.308307,0.23531,0.630031,2017-08-22 21:25:20,34.36551478684998
1.0055647,5.363012,8.169016,-0.16371189,-0.13683382,0.15760323,22.0,1.2852,5.521,8.0023,-0.17539999,-0.2445,0.1011,0.267442,0.154179,0.638831,2017-08-22 21:25:21,32.63143954335116
1.4939818,5.1906295,8.303091,0.017104227,0.061086524,0.04886922,25.0,1.5524,5.1591,8.194099,0.2968,0.0392,-0.118999995,0.255881,0.129248,0.661189,2017-08-22 21:25:22,31.978260993761587
0.9959879,3.3901896,8.791509,-0.07696902,-0.065973446,-0.09285152,35.0,1.4262999,3.4215,9.0789995,-0.55469996,-0.107499994,-0.3308,0.18317,0.058555,0.636882,2017-08-22 21:25:23,31.92248514485996
1.1971009,3.122039,9.011775,-0.030543262,-0.013439035,-0.029321533,35.0,1.2032,3.0937,9.2277,-0.2333,-0.0371,0.0368,0.162333,0.055246,0.634568,2017-08-22 21:25:24,31.44244762162
0.94810385,3.3518825,9.107543,-0.010995574,0.09407325,-0.012217305,32.0,1.0816,3.4199,9.1271,-0.012999999,-0.027199998,-0.044299997,0.17105299,0.072815,0.63555497,2017-08-22 21:25:25,30.665635107772886
1.091756,3.371036,9.069236,-0.014660766,0.007330383,0.02687807,32.0,1.0919,3.3072,9.1673,0.0023,0.10569999,-0.030299999,0.167702,0.064293,0.624596,2017-08-22 21:25:26,30.436888586274907
1.0534488,3.1603463,9.212888,0.012217305,-0.002443461,0.04153884,35.0,1.166,3.118,9.224299,0.031,0.0676,-0.27629998,0.164921,0.050926,0.600818,2017-08-22 21:25:27,31.851825728157266
-1.13964,4.2521024,7.1730285,-0.2443461,1.5454891,1.1911873,22.0,-2.5973,5.2457,7.868,1.7502999,-0.6386,0.1459,0.026949,0.31757,0.802453,2017-08-22 21:25:28,32.37579865015091
-1.2449849,5.8801594,7.699753,0.047647487,-0.09162979,-0.06352998,20.0,-0.6836,5.6398997,7.9933,-0.477,0.3843,-0.2857,0.057338,0.297456,0.910557,2017-08-22 21:25:29,33.22928967020967
-1.2258313,6.129156,7.4028716,-0.12583824,0.018325957,0.11484267,15.0,-1.4197999,6.5889997,7.1229997,-0.7111,-0.4008,0.33499998,0.037028998,0.368037,0.884071,2017-08-22 21:25:31,29.75808636716769
-1.340753,6.1100025,7.422025,0.007330383,-0.028099801,-0.028099801,17.0,-1.3289,6.2237,7.4610996,-0.0591,-0.046,-0.0401,0.033495,0.344186,0.894324,2017-08-22 21:25:32,29.079460052200822
-1.4652514,6.033388,7.2687964,0.021991149,0.012217305,0.014660766,17.0,-1.5303999,6.1705,7.4666996,-0.0845,-0.049399998,0.0818,0.029561,0.344458,0.88751197,2017-08-22 21:25:33,31.465805131066208
-1.4748282,6.042965,7.536947,-0.081855945,0.07086037,-0.09896017,17.0,-1.4051,6.0775,7.5669,-0.049799997,0.0308,0.0273,0.031402,0.335247,0.890435,2017-08-22 21:25:34,28.84273061442368
-1.3120226,6.1195793,7.2783732,0.43004912,0.073303826,-0.13927728,17.0,-1.4707999,6.1243,7.5165997,0.0695,-0.0568,0.22309999,0.027697,0.340574,0.893027,2017-08-22 21:25:35,32.35949202517395
-1.8674773,5.7748146,7.632715,-0.012217305,0.015882496,0.004886922,20.0,-1.6394999,5.7492,7.7735,0.1313,0.042,0.1041,0.024858,0.320998,0.887688,2017-08-22 21:25:36,33.18552423736142
-1.6567876,5.535394,7.4986396,-0.07696902,0.057421334,-0.03176499,20.0,-1.6389999,5.508,7.9463997,-0.0289,0.1639,-0.0011,0.027101,0.307296,0.884969,2017-08-22 21:25:37,31.64890742811131
-2.2505496,5.1810527,8.082825,0.004886922,-0.007330383,-0.010995574,25.0,-2.1071,5.2542,8.0077,-0.0491,-0.0925,0.1713,-0.006284,0.303556,0.891738,2017-08-22 21:25:38,31.936319357809737
0.641646,5.1906295,7.8625584,-0.35063666,-0.10629055,-0.46303585,27.0,1.6883999,5.3217998,8.061999,-0.5651,-0.119399995,-0.4617,0.270465,0.1105,0.606282,2017-08-22 21:25:39,32.40873210320109
0.8331822,4.271256,9.050082,0.028099801,-0.09407325,0.008552114,30.0,0.704,3.9954,8.9281,0.1554,0.4632,0.2721,0.183247,0.105514,0.619935,2017-08-22 21:25:40,33.03709587801283
1.0342951,4.185065,8.944737,-0.081855945,-0.017104227,-0.007330383,30.0,1.0958999,4.3447,8.723,-0.069699995,-0.0993,0.2862,0.212671,0.100083,0.616406,2017-08-22 21:25:41,31.07107639679317
1.1300632,4.1371803,9.289502,0.05009095,0.004886922,0.02565634,32.0,1.1129,4.1622,8.8094,0.054199997,-0.0257,0.49749997,0.205308,0.093217,0.618253,2017-08-22 21:25:42,29.65552247602558
0.8619126,4.185065,8.676587,0.007330383,0.12950343,0.03176499,32.0,0.9794,4.2099,8.8026,-0.115499996,-0.0817,-0.0941,0.202642,0.100614,0.619619,2017-08-22 21:25:43,29.569671349199737
1.1204864,4.213795,8.552089,-0.09285152,-0.015882496,0.039095376,30.0,0.9887,4.1157,8.8461,0.091,0.0777,-0.1889,0.199655,0.095455,0.614529,2017-08-22 21:25:44,30.642748496307483
-1.7142484,5.00867,8.734048,0.5216789,0.593761,0.2846632,30.0,-0.8261,4.512,8.6676,-0.6785,0.3759,0.6103,0.151026,0.189074,0.637167,2017-08-22 21:25:45,31.417456043303766
-0.92895025,5.0757074,8.331821,-0.07696902,-0.24923302,-0.1001819,15.0,-0.85179996,5.2924,8.2118,-0.1301,-0.063099995,0.13859999,0.178713,0.220916,0.646619,2017-08-22 21:25:46,32.44316171523567
0.095768064,4.9799395,7.920019,0.06352998,-0.7134906,-0.09040806,15.0,-0.053299997,5.1335998,8.3554,0.0725,-0.145,-0.26839998,0.204133,0.179782,0.628463,2017-08-22 21:25:47,31.296486113201528
1.1300632,4.3766007,8.532935,-0.02321288,0.007330383,0.002443461,30.0,1.2861999,4.2671,8.7353,-0.0959,0.16759999,-0.014099999,0.217907,0.082437,0.592297,2017-08-22 21:25:48,31.803423051211894
1.5897499,4.9224787,8.178593,0.40683624,0.31887165,0.31520647,30.0,0.9867,4.6458,8.5796995,0.578,0.2166,-0.2794,0.226927,0.11472,0.607608,2017-08-22 21:25:49,32.24410438680907
1.1587936,3.6870706,8.925584,0.052534413,-0.002443461,-0.013439035,27.0,1.2693,3.8455,8.931399,-0.14,-0.0845,0.0138,0.197226,0.075659,0.618495,2017-08-22 21:25:50,31.59971148804592
1.2162545,3.8786068,8.916007,-0.07941248,-0.05497787,-0.040317107,35.0,1.2863,3.8681998,8.9191,0.012399999,0.031999998,-0.4206,0.200316,0.071559,0.602272,2017-08-22 21:25:51,33.0233938554533
1.2449849,4.223372,8.7053175,0.22235495,0.02076942,-0.012217305,35.0,1.2458999,4.2229,8.7627,0.1917,-0.0363,0.1255,0.215644,0.088894,0.606748,2017-08-22 21:25:52,31.390989967726988
1.2545617,4.510676,8.456321,0.004886922,0.010995574,-0.0012217305,30.0,1.2199,4.644,8.5507,0.0561,-0.0423,0.0185,0.229204,0.10733,0.617301,2017-08-22 21:25:53,30.91426776455745
1.1013328,4.5298295,8.475474,-0.13072516,-0.02321288,0.002443461,30.0,1.1093,4.5225997,8.6304,-0.2461,-0.0069,-0.0694,0.219569,0.108427,0.624028,2017-08-22 21:25:54,29.76569908137499
1.0247183,4.721366,8.542512,0.05009095,-0.0012217305,0.013439035,27.0,1.1421,4.5025,8.6367,-0.0872,0.25079998,-0.104499996,0.225232,0.09656,0.58925,2017-08-22 21:25:55,27.618714816738745
-1.9728222,3.8307228,9.911995,-0.32742378,1.486846,1.3023647,30.0,-2.6011,4.1761,8.4831,1.0914,-0.70699996,1.2085999,0.074437,0.24684,0.682473,2017-08-22 21:25:56,26.62269270725364
-0.5363012,5.889736,7.441179,-0.05131268,-0.10995574,0.1966986,15.0,-0.8452,5.8823,7.8009,0.0139999995,-0.0177,0.0502,0.086383,0.307897,0.866589,2017-08-22 21:25:57,31.145661598599034
-1.283292,5.8801594,7.4603324,-0.0061086523,0.047647487,-0.013439035,17.0,-1.2206,5.9648,7.6877,-0.0689,0.0014,-0.1265,0.065229,0.322146,0.869285,2017-08-22 21:25:58,31.087768977714255
-1.0630256,5.841852,7.5561004,0.02565634,-0.02076942,-0.02076942,17.0,-1.0091,5.9665,7.717,-0.0605,-0.097799994,-0.17289999,0.084058,0.31499,0.860162,2017-08-22 21:25:59,28.257830143775713
-1.0151415,6.0621185,7.4507556,-0.0061086523,0.0,0.02076942,17.0,-1.0167999,6.1396,7.579,-0.022,-0.073,-0.116799995,0.092005,0.324466,0.851735,2017-08-22 21:26:00,27.715404022039912
-0.93852705,5.995081,7.651869,-0.010995574,-0.002443461,-0.009773844,17.0,-0.96529996,6.1282997,7.5948,0.0053999997,-0.061899997,-0.0736,0.095878,0.321902,0.849961,2017-08-22 21:26:01,29.85159729981252
-0.90979666,6.042965,7.575254,-0.013439035,0.015882496,0.010995574,15.0,-0.89989996,6.1545997,7.5815997,-0.108799994,-0.1269,0.0058999998,0.105398,0.320518,0.842423,2017-08-22 21:26:02,29.970455927959954
-0.9864111,5.353435,8.149862,-0.29932398,0.06352998,-0.017104227,17.0,-0.8275,5.6804,7.9509997,0.0356,-0.3436,0.505,0.089616,0.294245,0.860763,2017-08-22 21:26:03,31.657370990821697
-0.8619126,5.1906295,7.680599,0.06719518,0.119729586,0.05131268,22.0,-0.99329996,5.4716,8.0774,0.1312,-0.2348,-0.3263,0.068377,0.287721,0.871289,2017-08-22 21:26:04,32.05020294690118
-0.15322891,0.41180268,8.848969,0.0061086523,-1.219287,-1.1643091,50.0,0.4428,1.6265999,9.6606,0.061199997,-0.71959996,-0.061499998,0.062644,0.059324,0.850995,2017-08-22 21:26:05,36.574289144005576
0.23942018,2.1260512,9.864111,-0.059864793,0.13927728,-0.05009095,37.0,0.8734,1.9677999,9.5674,-0.63019997,0.168,0.3741,0.109612,0.013535,0.511486,2017-08-22 21:26:06,36.93449519567082
1.9919758,3.9456444,8.801085,-0.39706242,0.059864793,0.10140363,40.0,1.956,3.5212998,8.9411,0.110999994,0.6784,-0.111999996,0.208355,0.026767,0.579792,2017-08-22 21:26:07,35.70357201335931
2.336741,2.930503,9.088389,-0.19058995,0.22357668,0.065973446,45.0,2.349,3.0117,9.0322,0.1237,-0.032899998,-0.1644,0.19862,-0.005651,0.580521,2017-08-22 21:26:08,38.78663682782147
2.0685902,2.8921957,9.088389,0.014660766,0.018325957,0.037873644,45.0,2.1272,2.9081,9.1207,-0.0067,-0.0019999999,0.022699999,0.187005,-0.001225,0.574763,2017-08-22 21:26:09,35.91914616009865
2.1452048,2.8538885,9.212888,-0.06841691,0.039095376,-0.02565634,47.0,2.2142,2.9043999,9.1011,-0.1227,0.0323,0.1637,0.189607,-0.004108,0.578228,2017-08-22 21:26:10,35.32808702204831
2.0207062,2.7868507,8.887277,0.03176499,-0.013439035,0.06963864,45.0,2.0232,2.8693,9.1566,0.015,-0.0585,-0.18959999,0.182023,0.00316,0.580509,2017-08-22 21:26:11,35.902199045807116
2.4133554,1.2354081,9.088389,0.9896017,0.6731735,2.5411994,50.0,-2.2970998,2.1652,9.284599,3.3237,-1.8765999,-0.59349996,-0.040967,0.157908,0.835319,2017-08-22 21:26:12,34.72343847269577
-1.6280571,6.540959,14.18325,-0.66828656,0.48502702,0.0061086523,20.0,-1.0401,5.4648,8.076099,0.4619,1.4182999,4.4674,-0.009485,0.279107,0.949188,2017-08-22 21:26:13,39.94829330126249
-1.2449849,6.7803793,7.393295,-0.12217305,0.07819075,0.18448131,17.0,-1.3009,6.7611,6.9831,0.064399995,-0.0889,0.2127,-0.038588,0.377449,0.921628,2017-08-22 21:26:14,43.23821609157832
-1.5801731,6.588843,7.067683,-0.04520403,0.056199603,-0.1160644,15.0,-1.1688,6.6926,7.0719,-0.31329998,-0.0629,-0.051099997,-0.029829,0.372208,0.923666,2017-08-22 21:26:15,38.95316514962454
-1.2066777,6.4547677,7.3071036,-0.028099801,-0.021991149,-0.002443461,15.0,-1.2229999,6.4972,7.2429,-0.0229,-0.0391,-0.0341,-0.030247,0.360273,0.927482,2017-08-22 21:26:16,36.130140181378756
-0.91937345,6.38773,7.0964136,0.07086037,-0.036651913,0.119729586,17.0,-1.1115999,6.4758997,7.2798,0.114199996,0.085099995,-0.0229,-0.028169,0.355938,0.929278,2017-08-22 21:26:17,35.70710182558334
0.038307227,5.707777,9.32781,0.18936823,-0.27977628,-0.1600467,22.0,-1.8212,5.6837997,7.7812,1.6911999,0.1943,1.4968,-0.041188,0.309047,0.937977,2017-08-22 21:26:18,40.19828707210317
-1.043872,4.261679,6.751649,0.88331115,0.27977628,-1.2131784,45.0,1.9815999,3.8313,8.807,-2.4029,-0.078499995,-1.4211999,0.234771,0.056353,0.632057,2017-08-22 21:26:19,39.569702069080314
2.0398598,3.9935284,8.925584,-0.28099802,-0.09896017,0.28955013,35.0,1.7967999,4.0956,8.7273,0.2786,-0.1558,0.1866,0.22871,0.073093,0.618082,2017-08-22 21:26:20,35.58659829639809
1.8100165,3.715801,8.791509,-0.13683382,0.22479841,0.09285152,37.0,1.9512,3.7043,8.8679,-0.113,0.0682,-0.092099994,0.213043,0.043289,0.613317,2017-08-22 21:26:21,35.91917568151342
1.8674773,3.4859576,9.040505,-0.019547688,0.03176499,0.04520403,37.0,1.7716,3.4134998,9.021,0.0199,0.1721,0.30539998,0.197042,0.036531,0.603019,2017-08-22 21:26:22,37.697566141282486
1.5227122,3.3997664,9.165004,-0.06841691,0.007330383,0.009773844,37.0,1.5847,3.4401999,9.0456,0.14549999,-0.1437,0.41059998,0.194403,0.046977,0.59967,2017-08-22 21:26:23,36.44518135132952
1.532289,3.4476504,8.8777,0.03176499,0.002443461,0.018325957,37.0,1.6189,3.3302,9.0806,-0.074599996,0.11229999,-0.0064999997,0.188331,0.034226,0.584676,2017-08-22 21:26:24,36.00551934940823
0.24899697,4.3766007,9.864111,0.013439035,0.10995574,0.13194689,37.0,1.6159999,3.4836,9.023399,-0.42389998,0.037499998,-0.2748,0.19666299,0.039495,0.56039,2017-08-22 21:26:25,35.110233167875286
0.11492168,3.821146,9.911995,0.12583824,0.9602802,1.4391985,42.0,-1.3105999,4.1224,8.801,0.8772,-0.90809995,1.114,0.021776,0.224004,0.897169,2017-08-22 21:26:26,36.84846343068075
-1.3120226,6.9240313,9.998186,-0.48258355,0.11362094,-0.07819075,15.0,-0.9047,6.0948,7.6291,-0.6386,1.5469999,4.5487,0.013962,0.35099,0.92393,2017-08-22 21:26:27,37.32926373746804
-0.1436521,6.4068837,6.933608,0.1563815,0.008552114,-0.08552113,15.0,0.0273,6.6317997,7.2240996,-0.2333,-0.4235,-0.1891,0.047281,0.359772,0.924389,2017-08-22 21:26:28,37.20803545826309
-0.51714754,6.4739213,7.0485296,0.04886922,0.029321533,0.032986723,15.0,-0.0026999998,6.8033,7.0628996,-0.31669998,-0.20529999,0.2224,0.050369,0.370612,0.918922,2017-08-22 21:26:29,37.62224999283804
-0.80445176,6.5505357,7.28795,-0.021991149,0.06841691,-0.06719518,15.0,-0.502,6.6966996,7.1464,-0.29979998,-0.0041,0.1174,0.020406,0.368081,0.921875,2017-08-22 21:26:30,37.78928665104144
-0.15322891,6.493075,6.885724,-0.018325957,-0.08307768,0.02443461,15.0,-0.3742,6.646,7.2014,0.0111,-0.0307,-0.1468,0.025289,0.361907,0.924141,2017-08-22 21:26:31,38.031284750440996
0.047884032,6.6367273,6.943185,0.002443461,0.036651913,-0.008552114,15.0,0.069699995,6.7879,7.0772996,0.046299998,-0.053799998,-0.12459999,0.047483,0.370002,0.921435,2017-08-22 21:26:32,36.60312479239176
-0.16280572,6.588843,7.153875,-0.018325957,0.013439035,-0.0036651916,15.0,-0.1481,6.6784997,7.1794996,-0.0924,-0.0669,-0.0648,0.034347,0.362929,0.924549,2017-08-22 21:26:33,35.64389549875865
-0.22026655,6.5984197,7.144298,-0.02565634,0.039095376,-0.004886922,15.0,-0.16219999,6.6478996,7.2075,0.0312,-0.049399998,-0.1981,0.037795,0.362174,0.924067,2017-08-22 21:26:34,36.6800189493921
-0.12449849,6.4260373,7.2209125,-0.009773844,0.081855945,-0.08552113,15.0,-0.15339999,6.6077,7.2446,0.0713,-0.1557,-0.048,0.03773,0.358899,0.924846,2017-08-22 21:26:35,37.604753768552975
-0.51714754,6.493075,7.192182,0.0061086523,0.007330383,-0.0036651916,15.0,-0.5006,6.612,7.2249,0.0252,-0.0137,-0.038599998,0.020945,0.362334,0.923551,2017-08-22 21:26:36,37.04924031525037
0.076614454,6.0621185,7.019799,0.05497787,0.019547688,0.004886922,15.0,-0.021,6.2672,7.5425997,9.0E-4,0.049399998,-0.2366,0.047708,0.331175,0.932496,2017-08-22 21:26:37,36.37477220850752
-0.51714754,5.841852,7.5561004,-0.0720821,0.13439035,-0.012217305,17.0,-0.4093,6.0625,7.6973,-0.0414,-0.1726,-0.0937,0.020833,0.326434,0.935898,2017-08-22 21:26:38,37.244383155418305
-0.10534488,5.813122,7.690176,0.2443461,-0.16615535,-0.021991149,20.0,-1.0174,5.8901,7.7743998,-1.0683,0.19929999,-0.83769995,-0.011417,0.323051,0.938141,2017-08-22 21:26:39,37.78301870160446
-0.39264908,5.9567738,7.374141,-0.09773844,0.02443461,0.02076942,17.0,-0.4858,6.1626,7.6129,0.085499994,-0.0506,-0.22399999,0.028374,0.333593,0.930114,2017-08-22 21:26:40,37.56025784871911
1.1683705,5.707777,7.795521,0.014660766,0.41538838,-0.38973203,17.0,0.3135,5.6699,7.9951997,0.83949995,0.0309,-0.177,0.077186,0.294494,0.939159,2017-08-22 21:26:41,36.762482294845796
-1.1013328,7.297527,6.540959,0.52656585,0.43249258,0.039095376,17.0,-1.0371,7.0980997,6.6865997,-0.1248,0.40469998,-0.0982,0.001874,0.392243,0.909761,2017-08-22 21:26:42,36.87351824130199
-1.5993267,6.9719152,6.5984197,-0.27855456,-0.112399206,-0.12095132,15.0,-1.4863,7.0908,6.6091,-0.1227,-0.021699999,-0.0047999998,-0.00976,0.399049,0.901295,2017-08-22 21:26:43,35.76607482812628
-1.5131354,6.5505357,7.1730285,0.1160644,-0.035430185,-0.032986723,17.0,-1.3549,6.4747,7.2395997,-0.2574,-0.2207,0.0447,0.003491,0.360524,0.91071,2017-08-22 21:26:44,36.35171674055066
-1.2258313,6.3302693,7.249643,-0.004886922,0.028099801,0.02076942,17.0,-1.2565,6.3686,7.3506,-0.0359,-0.055099998,-0.008599999,0.007198,0.354184,0.913703,2017-08-22 21:26:45,36.670892833442366
-0.8619126,6.253655,7.374141,-0.07574729,-0.06963864,0.04520403,17.0,-0.93759996,6.2957,7.4602,0.0323,-0.082499996,-0.2118,0.015953,0.345941,0.918857,2017-08-22 21:26:46,37.34686217329675
-0.6895301,6.1195793,7.4124484,-0.04642576,0.015882496,-0.014660766,17.0,-0.8171,6.2871,7.4814997,0.0963,-0.0933,0.0013,0.027882,0.342189,0.918607,2017-08-22 21:26:47,37.54131325411476
-0.6895301,6.301539,7.565677,0.06352998,-0.004886922,0.014660766,17.0,-0.8792,6.0776997,7.6457,0.22,0.2491,-0.074499995,0.024957,0.332903,0.92103,2017-08-22 21:26:48,36.33626237409443
-1.1013328,7.489063,6.8761473,-0.32253686,-0.41416663,-0.23579398,17.0,-1.5996,6.7839,6.8985,-0.0681,0.65239996,-1.1769,-0.005749,0.385754,0.900864,2017-08-22 21:26:49,36.87112135060992
-2.7581203,6.5601125,6.6079965,-0.047647487,-0.018325957,0.09896017,15.0,-2.8590999,6.6903,6.5752997,-0.029,-0.0393,-0.0488,-0.055467,0.401149,0.882194,2017-08-22 21:26:50,38.77114955820907
-1.3694834,5.8705826,7.1634517,-0.22968534,-0.32253686,-0.12461651,17.0,-1.3009,6.1934,7.4912996,-0.0936,-0.37129998,-0.19739999,0.020894,0.333531,0.909545,2017-08-22 21:26:51,37.537764185874934
-1.9728222,6.244078,7.795521,-0.5021312,-0.10262536,0.010995574,17.0,-2.0109,6.6809998,6.8911996,-0.3701,-0.21079999,-0.5129,-0.022983,0.392495,0.894949,2017-08-22 21:26:52,36.762309253401945
-1.4460979,6.215348,7.565677,-0.3567453,-0.18448131,0.105068825,17.0,-1.2602,6.1464996,7.5367,0.0449,-0.0075999997,0.3812,0.0133299995,0.336594,0.915846,2017-08-22 21:26:53,36.606117493719516
-1.0247183,5.6790466,7.6614456,0.008552114,0.0,-0.035430185,20.0,-0.97889996,5.8129997,7.8371,-0.0332,-0.0473,-0.0722,0.025031,0.315203,0.91957897,2017-08-22 21:26:54,36.819214101756465
-0.7374141,5.497087,7.8912888,-0.029321533,-0.017104227,-0.019547688,20.0,-0.7729,5.585,8.0237,0.0169,0.030199999,0.081,0.032551,0.300088,0.924802,2017-08-22 21:26:55,37.02866012778761
-0.6895301,5.2768207,8.063671,-0.012217305,-0.014660766,0.0036651916,22.0,-0.5247,5.3403,8.2081995,-0.0358,-0.0021,-0.0174,0.043889,0.28183,0.928205,2017-08-22 21:26:56,37.595813312212954
-0.6512229,5.2385135,8.149862,-0.012217305,-0.009773844,-0.014660766,22.0,-0.5985,5.3828998,8.1753,0.0218,-0.0647,-0.0435,0.040199,0.285082,0.927328,2017-08-22 21:26:57,36.871538356836844
-0.05746084,5.1140146,8.724471,-0.16249016,-0.1160644,-0.05497787,22.0,-7.0E-4,5.2525,8.2813,-0.16659999,0.29459998,0.3339,0.063475996,0.265825,0.937003,2017-08-22 21:26:58,36.60859255126235
-0.019153614,4.912902,8.42759,-0.008552114,-0.021991149,0.02076942,22.0,0.0634,4.9337997,8.4748,-0.07,0.0374,0.051999997,0.059716,0.253767,0.94229,2017-08-22 21:26:59,38.20271160291811
-0.19153613,4.7788267,8.552089,-0.002443461,0.04153884,0.02565634,25.0,-0.2464,4.7901998,8.5535,-0.1434,0.053099997,0.326,0.045861,0.247192,0.940564,2017-08-22 21:27:00,37.862966873562144
-0.842759,4.510676,8.858546,-0.11484267,0.019547688,-0.089186326,27.0,-0.5139,4.6663,8.6098995,-0.0861,-0.2828,-0.7891,0.041586,0.253778,0.936373,2017-08-22 21:27:01,36.81944981696935
-0.9959879,5.602432,7.5848308,0.23579398,0.35430184,0.095294975,22.0,-0.98359996,5.5656,8.0141,0.1718,-0.0822,-0.268,0.00929,0.297975,0.934774,2017-08-22 21:27:02,37.18124475693728
-1.2066777,5.707777,7.699753,0.019547688,0.02443461,0.028099801,20.0,-1.3300999,5.7921,7.8006997,-9.0E-4,-0.023799999,-0.0187,-0.004921,0.318981,0.92674,2017-08-22 21:27:03,37.53956180224933
-1.5035586,5.650316,7.833828,0.014660766,0.0,0.04153884,20.0,-1.4078,5.7988997,7.7819996,-0.0982,-0.1109,-0.13,-0.010732,0.321465,0.927569,2017-08-22 21:27:04,37.31764104384836
-2.4612393,7.393295,5.7269306,-0.07574729,0.11728613,-0.10629055,15.0,-2.5258,7.6014,5.6575,0.0923,-0.0475,0.23629999,-0.050942,0.45711,0.868475,2017-08-22 21:27:05,37.523573643924145
-3.2465374,6.742072,6.5122285,-0.50579643,-0.07452556,0.13927728,15.0,-3.4002,7.0085998,5.9571,-0.1166,-0.0049,0.1987,-0.096215,0.432448,0.87233,2017-08-22 21:27:06,38.62195784197064
-1.9153614,5.7843914,7.785944,-0.010995574,0.081855945,0.015882496,20.0,-1.7989,5.8715,7.6457996,-0.1471,-0.0189,0.177,-0.026256,0.329365,0.922675,2017-08-22 21:27:07,37.9493613907287
-3.6487634,6.9144545,5.851429,-0.7635816,-0.6230826,-0.15882497,17.0,-3.4994,7.1597,5.7151,-0.091,-0.3606,0.5168,-0.12293,0.459465,0.863646,2017-08-22 21:27:08,37.99600057644346
-1.0151415,6.196194,7.345411,0.19547687,-0.25045475,0.19914207,17.0,-0.90749997,6.4912996,7.2943997,0.3116,-0.0437,-0.32209998,0.022392,0.357189,0.914867,2017-08-22 21:27:09,36.909312376137194
-0.59376204,6.6846113,6.847417,-0.0012217305,0.02687807,0.015882496,15.0,-0.78999996,6.7358,7.0834,0.1902,-0.0037999998,-0.1688,0.031188,0.37128899,0.909379,2017-08-22 21:27:11,35.83079340739329
-0.842759,6.646304,6.5696893,0.118507855,0.04642576,0.057421334,15.0,-0.8987,6.7124,7.0926,0.053799998,-0.0163,-0.4657,0.017656,0.369639,0.913756,2017-08-22 21:27:12,37.13082938290559
-1.2737153,6.196194,7.565677,-0.07819075,-0.05497787,-0.08674286,17.0,-1.1103,6.6168,7.1521997,-0.1328,-0.262,-0.113299996,0.003816,0.364318,0.91583,2017-08-22 21:27:13,37.95572645252425
-0.8714894,6.4547677,7.479486,-0.08307768,0.3848451,0.014660766,15.0,-1.1291,6.6071,7.1582,-0.4723,0.078,-0.55329996,0.001572,0.36728,0.915686,2017-08-22 21:27:14,36.44214490855497
-1.2354081,6.4739213,7.1155677,0.0,0.0,-0.03176499,15.0,-1.2102,6.5850997,7.1653,-0.093899995,-0.0774,0.0447,1.75E-4,0.367041,0.914876,2017-08-22 21:27:15,37.105847155929645
-1.3982137,6.531382,7.0964136,0.047647487,0.010995574,0.09407325,15.0,-1.3513,6.6198997,7.1077,-0.138,-0.0493,-0.015999999,-0.001501,0.371276,0.910711,2017-08-22 21:27:16,37.91999465351741
-1.0151415,6.5026517,7.192182,-0.034208454,-0.10629055,0.010995574,17.0,-1.0121,6.6152997,7.1681,-0.0818,-0.0394,0.118,0.016031,0.365864,0.913252,2017-08-22 21:27:17,36.43396843848271
-3.0358477,7.776367,4.6926355,0.0036651916,0.073303826,-0.07452556,15.0,-3.0830998,8.0097,4.7443,-0.2689,-0.0729,0.074,-0.079169,0.501771,0.843189,2017-08-22 21:27:18,38.27313730540906
-3.2273839,8.025364,5.4300494,0.25167647,0.02321288,-0.057421334,15.0,-3.0205998,7.8859997,4.9856,-0.0072999997,-0.058199998,0.24679999,-0.078082,0.491213,0.848792,2017-08-22 21:27:19,35.70994365608108
-2.2026656,5.9567738,6.205771,0.23945917,-0.38362336,0.029321533,17.0,-1.9121,6.349,7.2251,-1.1101,0.75189996,-0.9148,-0.046197,0.359887,0.917265,2017-08-22 21:27:20,37.74441231306138
-2.1068976,6.4164605,6.703765,-0.04520403,-0.017104227,-0.02321288,17.0,-2.0902998,6.5228996,7.0179,-9.0E-4,0.0045,-0.32639998,-0.049399998,0.375366,0.91083,2017-08-22 21:27:21,38.503041280254244
-2.0207062,5.21936,7.575254,-0.058643065,-0.3042109,0.030543262,20.0,-2.1315,5.6355,7.7373996,-0.0032,-0.264,0.020299999,-0.041699998,0.318137,0.925359,2017-08-22 21:27:22,36.74311899985041
-2.0015526,5.8322754,7.575254,0.013439035,0.19547687,0.05497787,20.0,-1.9774,5.9447,7.5445,0.0179,-0.0466,-0.0532,-0.033031,0.336524,0.918378,2017-08-22 21:27:23,38.50437441112807
-1.1971009,5.995081,6.8282633,0.18692477,0.67073005,-0.3494149,20.0,-2.2761,6.1024,7.3313,0.3924,-0.046,-0.86179996,-0.0491,0.341893,0.919739,2017-08-22 21:27:24,38.257943653657165
-1.2354081,5.439626,8.1881695,0.06719518,0.05009095,0.059864793,20.0,-1.2849,5.5859,7.9571,-0.1705,-0.0178,-0.5511,-0.006973,0.303498,0.933877,2017-08-22 21:27:25,37.28955466640652
-1.6376339,5.659893,8.073248,-0.042760566,0.081855945,-0.08307768,22.0,-1.2781,5.5622997,7.9747,2.0E-4,-0.0729,0.3532,-0.008972,0.304792,0.932805,2017-08-22 21:27:26,38.157737052262505
0.8619126,5.161899,7.776367,0.5852089,0.1160644,-0.18203785,15.0,1.9009,6.1115,7.43,0.79319996,1.9356999,1.2664,0.223092,0.273516,0.870164,2017-08-22 21:27:27,38.007201920320945
-5.171476,3.6966474,5.5162406,0.105068825,2.9443705,0.34330627,20.0,-3.3223999,3.8414998,8.3889,-1.2576,-0.011899999,-0.017199999,-0.061232,0.24089,0.90086,2017-08-22 21:27:28,36.59416105346438
-6.6367273,5.305551,5.353435,1.4453071,-1.0629056,-0.25045475,27.0,-5.1766996,6.7025,4.9444,-1.4738,-1.2872,-0.2766,-0.213671,0.437469,0.852012,2017-08-22 21:27:29,36.72368485750326
0.076614454,4.8267107,3.4763808,0.18448131,-0.25900686,-0.45448375,20.0,-2.6022,5.8515997,7.4266996,2.9319,1.5654999,0.46559998,-0.079316,0.339193,0.920721,2017-08-22 21:27:30,37.060685752937815
0.08619126,-0.12449849,4.9799395,0.15271631,0.089186326,0.05009095,107.0,0.077599995,-0.3838,9.7987995,0.2228,0.0018999999,2.8211,-0.004798,-0.020935,0.941535,2017-08-22 21:27:31,39.927281338298435
-0.047884032,0.019153614,9.720459,0.004886922,0.002443461,0.010995574,117.0,-0.0937,-0.1235,9.8054,0.0576,0.1227,-0.0286,-0.005739,-0.004496,0.96849,2017-08-22 21:27:32,43.25594706847298
-0.047884032,0.019153614,9.720459,0.0061086523,0.0012217305,0.010995574,117.0,-0.014699999,0.0039999997,9.8066,-0.0246,0.0056999996,0.009699999,-8.1E-4,4.14E-4,0.968831,2017-08-22 21:27:33,37.62721573815583
-0.05746084,0.038307227,9.749189,0.004886922,0.0012217305,0.010995574,117.0,-0.0365,0.0089,9.8064995,0.0064,8.0E-4,-0.009699999,-0.0017349999,8.71E-4,0.969223,2017-08-22 21:27:34,36.08657218029545
-0.047884032,0.02873042,9.720459,0.0061086523,0.0012217305,0.010995574,117.0,-0.0298,0.0134,9.8064995,-0.008599999,0.005,0.0098,-0.001341,0.001112,0.969818,2017-08-22 21:27:35,38.072930165138914
-0.038307227,0.019153614,9.720459,0.004886922,0.0012217305,0.010995574,120.0,-0.0023,0.011299999,9.8066,-0.0343,-0.0033999998,0.0,6.97E-4,5.67E-4,0.967895,2017-08-22 21:27:36,37.733802464026795
-0.05746084,0.019153614,9.720459,0.004886922,0.0012217305,0.009773844,117.0,-0.1555,0.0279,9.8053,0.104499996,-0.009099999,-0.0087,-0.007361,0.003279,0.97095,2017-08-22 21:27:37,37.566551224741694
-0.047884032,0.019153614,9.710882,0.004886922,0.002443461,0.010995574,117.0,-0.060799997,0.0109,9.806399,0.0289,-4.9999997E-4,-0.0095999995,-0.002814,0.001278,0.970371,2017-08-22 21:27:38,38.082520238012606
-0.047884032,0.019153614,9.730036,0.004886922,0.0012217305,0.010995574,117.0,-0.044099998,0.0094,9.8064995,0.0044,4.0E-4,0.0196,-0.002087,0.001019,0.969882,2017-08-22 21:27:39,37.802448336510686
-0.038307227,0.019153614,9.710882,0.0061086523,0.002443461,0.010995574,117.0,0.0936,-0.24329999,9.8031,-0.132,0.2509,-0.0163,0.001797,-0.014074,0.969368,2017-08-22 21:27:40,38.3159005517856
-0.05746084,0.009576807,9.710882,0.004886922,0.0012217305,0.010995574,117.0,-0.0173,-0.049599998,9.8064995,-0.0219,0.059,-0.009699999,-0.001467,-0.002015,0.96777,2017-08-22 21:27:41,38.048765148169544
-0.5746084,1.1013328,9.548077,-0.32742378,-0.002443461,0.15515977,120.0,0.0357,-0.9551,9.7599,-0.26119998,2.103,0.0064,-0.010987,-0.04767,0.966384,2017-08-22 21:27:42,37.321417305637134
-2.7581203,5.851429,6.5601125,0.32498032,0.3200934,-0.16737708,47.0,-1.1922,5.4807997,8.0442,-0.2461,-1.0224999,-0.2631,-0.022975,0.297107,0.94955,2017-08-22 21:27:43,40.19029591731963
-1.8195933,5.707777,7.690176,0.312763,0.19303341,-0.017104227,25.0,-1.9303999,5.8064,7.6635,0.17819999,-0.097399995,0.5566,-0.064241,0.324979,0.936257,2017-08-22 21:27:44,38.75907583906574
-2.2505496,5.9567738,7.393295,-0.21502456,-0.37140608,0.08307768,22.0,-2.2236,6.0978,7.3511996,-0.22479999,-0.1162,-0.042999998,-0.080905996,0.342358,0.930084,2017-08-22 21:27:45,37.09512964292039
-1.7142484,5.8705826,7.642292,0.013439035,-0.02321288,-0.0012217305,22.0,-1.8792,5.9135,7.594,-0.047399998,0.018,-0.099999994,-0.065058,0.329024,0.936343,2017-08-22 21:27:46,37.716763423292214
-1.7812861,5.995081,7.517793,0.0036651916,0.04520403,0.035430185,22.0,-2.3831,5.8441997,7.5056996,0.0673,-0.1583,-0.14829999,-0.100811,0.326561,0.935201,2017-08-22 21:27:47,42.62061785659671
-1.7525556,5.707777,7.776367,0.02321288,0.014660766,-0.009773844,25.0,-1.8706,5.7714,7.7046,0.0219,0.0213,0.064899996,-0.070219,0.318519,0.941126,2017-08-22 21:27:48,41.26224226975755
-1.7812861,5.6120086,7.7093296,-0.007330383,-0.015882496,0.013439035,25.0,-1.786,5.6675,7.8012,0.0508,-0.0046,-0.0187,-0.065655,0.312847,0.94294,2017-08-22 21:27:49,38.448201189677235
-1.5993267,5.4683566,7.7189064,-0.073303826,-0.065973446,0.015882496,25.0,-1.6823,5.5903,7.8795996,0.015999999,-0.0778,-0.1346,-0.05897,0.30749,0.944873,2017-08-22 21:27:50,38.32016359905144
-1.4173675,5.3438582,7.642292,0.0,-0.043982297,0.1441642,25.0,-1.5812,5.5776997,7.9093,0.426,-0.7775,-0.0806,-0.053168,0.305998,0.945833,2017-08-22 21:27:51,42.19997006618945
-2.0590134,5.4204726,7.52737,0.21868975,0.49480084,-0.095294975,27.0,-2.3404,5.7783,7.5698,0.0348,-0.050699998,-0.3277,-0.100135,0.323486,0.936654,2017-08-22 21:27:52,38.523986892411244
-1.934515,5.2289367,7.8529816,0.002443461,0.018325957,0.030543262,27.0,-1.9679999,5.3368,7.9884,0.049599998,-0.0572,-0.1775,-0.075803,0.294527,0.947857,2017-08-22 21:27:53,49.007506116977495
-2.6623523,5.7365074,7.3166804,-0.07696902,-0.03176499,0.02565634,30.0,-1.9453,5.4131,7.9424996,-0.0923,0.22559999,-0.044499997,-0.081945,0.303308,0.944942,2017-08-22 21:27:54,38.07770777687773
-2.4420857,5.544971,7.7093296,-0.12095132,-0.09896017,0.061086524,27.0,-2.511,5.6259,7.6296997,0.0503,-0.0069999998,0.1034,-0.104056,0.314189,0.939274,2017-08-22 21:27:55,37.84701634022607
-3.3039982,6.1387334,6.751649,-0.037873644,-0.032986723,0.007330383,27.0,-3.3156,6.2211,6.8171,0.0137,-0.0717,0.062699996,-0.148541,0.361582,0.915835,2017-08-22 21:27:56,37.25762624135801
-3.323152,6.1387334,6.9048777,0.03176499,0.019547688,0.010995574,25.0,-3.241,6.1226,6.9410996,-0.0938,0.0581,0.0184,-0.145723,0.353481,0.919622,2017-08-22 21:27:57,38.022778079548104
-3.8594532,6.646304,5.8801594,0.018325957,0.021991149,-0.0061086523,20.0,-3.8367,6.6861997,6.0615997,-0.0704,0.0101,-0.1317,-0.176483,0.399743,0.894504,2017-08-22 21:27:58,37.79609566787705
-3.3135753,6.215348,6.751649,-0.66706485,-0.6084218,0.17837265,20.0,-3.3534,6.1937,6.8236,-0.3371,0.21959999,0.3787,-0.152402,0.367617,0.911932,2017-08-22 21:27:59,37.62023158603468
-1.6567876,5.363012,7.9487495,0.012217305,0.028099801,0.0036651916,27.0,-1.7076,5.4059,8.0018,0.062699996,0.0030999999,-0.0335,-0.059239,0.297627,0.946945,2017-08-22 21:28:00,36.3733240686459
-1.8387469,5.363012,7.690176,0.032986723,0.04153884,0.0,27.0,-1.8189,5.4543,7.9441996,-0.0174,0.0117999995,0.0188,-0.067167,0.300736,0.94638,2017-08-22 21:28:01,37.17825821820633
-1.7908629,5.449203,7.833828,0.010995574,-0.009773844,0.012217305,27.0,-1.8008,5.512,7.9084997,-0.036,-0.046699997,-0.047399998,-0.068467,0.30346,0.946197,2017-08-22 21:28:02,36.84208089842046
-3.7924154,6.5984197,6.4260373,-0.20158553,-0.26389378,-0.043982297,20.0,-3.9155998,6.5792,6.1278996,0.0039,-0.0332,0.017099999,-0.186112,0.385972,0.900283,2017-08-22 21:28:03,37.20071789421217
0.31603462,6.129156,7.2209125,0.28710666,-0.5717699,0.8381071,25.0,-2.7454,6.3615,6.9399,1.9024999,-0.6688,-1.4381,-0.114199,0.364852,0.919034,2017-08-22 21:28:04,38.06627397556546
1.3503298,6.339846,6.751649,0.12583824,-0.33108896,0.26389378,22.0,0.6382,6.3556,7.441,0.2501,-0.19469999,-1.1248,0.052702,0.343273,0.936475,2017-08-22 21:28:05,39.568713679076396
-3.0550013,7.2687964,4.865018,0.8038987,0.20891592,-0.3811799,17.0,-2.9803,7.3282,5.7952,0.6958,-0.084,0.2556,-0.091607,0.44315898,0.879761,2017-08-22 21:28:06,36.81513010489554
-1.4173675,5.2480903,7.967903,0.02565634,-0.014660766,0.02076942,27.0,-1.3455,5.4231997,8.059,-0.0579,-0.0609,-0.014599999,-0.025426,0.296996,0.943023,2017-08-22 21:28:07,37.65395987634409
-1.4460979,5.6790466,7.9104424,0.14660765,-0.23457226,0.042760566,22.0,-1.4469999,5.5502,7.9543,0.3162,-0.0106999995,-0.1462,-0.030232,0.307516,0.941176,2017-08-22 21:28:08,38.72696072685882
-0.5267244,6.3781533,7.0485296,0.22357668,-0.82344633,-0.18692477,25.0,-1.0086,6.3417,7.4118,0.6083,0.1126,0.2278,0.027889,0.35141098,0.915901,2017-08-22 21:28:09,36.840682195379244
0.45010993,6.244078,7.07726,0.18325958,-0.23579398,0.73914695,17.0,-0.3575,6.1077,7.664,0.3238,-0.0412,-0.36699998,0.015635,0.325249,0.93174,2017-08-22 21:28:10,37.97577393238085
-0.37349546,6.0716953,7.28795,-0.08674286,-0.17715092,-0.0720821,17.0,0.0033,6.3004,7.5148997,-0.2025,0.1013,0.0547,0.030292999,0.33968,0.936716,2017-08-22 21:28:11,36.56425237771058
-0.047884032,6.205771,7.5944076,-0.17104226,0.12339478,-0.07696902,17.0,0.2534,6.4075,7.4193997,-0.3038,-0.0764,0.21429999,0.031261,0.345344,0.936411,2017-08-22 21:28:12,38.192275585358914
-0.5554548,6.0238113,7.603985,0.008552114,0.019547688,-0.009773844,22.0,-0.7281,5.953,7.7588997,-0.1612,0.2067,0.063599996,-0.011227,0.323203,0.942973,2017-08-22 21:28:13,37.619820748830826
-0.93852705,5.3821654,8.130709,-0.10995574,-0.030543262,-0.013439035,30.0,-0.96379995,5.4349,8.1057,0.119899996,0.0252,0.1033,-0.028467,0.291684,0.953275,2017-08-22 21:28:14,37.45205851018373
-0.2873042,5.707777,7.881712,-0.17837265,0.1600467,-0.23701571,17.0,-0.0508,5.864,7.8599997,-0.271,-0.13,0.0778,0.016908,0.313076,0.947291,2017-08-22 21:28:15,37.40499248701604
-1.5897499,5.094861,7.967903,-0.112399206,-0.12705997,0.018325957,25.0,-1.0406,5.5308,8.031,-0.4387,-0.3283,-0.2392,-0.027391,0.300137,0.949698,2017-08-22 21:28:16,38.055212470920864
-0.9576807,5.602432,8.0924015,-0.018325957,-0.09162979,0.05131268,25.0,-1.1103,5.5505,8.007999,0.1073,0.053,0.0150999995,-0.042978,0.301585,0.950689,2017-08-22 21:28:17,38.206894380125654
-0.48841715,6.0142345,9.500193,-1.1239921,-0.10873401,-0.5925393,25.0,0.2942,4.4241,8.747,-0.40609998,1.6000999,0.4226,-0.007722,-0.222127,-0.974986,2017-08-22 21:28:18,36.56653447856297
-0.7661445,5.3725886,8.532935,0.15271631,-0.16615535,-0.089186326,32.0,-0.82449996,4.8538,8.4811,-0.0198,0.42319998,0.0099,-0.021819,0.260819,0.962188,2017-08-22 21:28:19,37.80545697817784
-0.92895025,5.8705826,7.4028716,-0.008552114,-0.029321533,0.0036651916,17.0,-0.97679996,6.1154,7.6036997,-0.0231,0.052199997,-8.0E-4,-0.012677,0.335884,0.934997,2017-08-22 21:28:20,38.26429952466388
-0.7469909,6.129156,6.703765,0.37384954,-0.6084218,0.03176499,20.0,-1.2250999,6.0232997,7.6411996,-0.4632,-0.0464,-0.07,-0.026425,0.33354,0.937195,2017-08-22 21:28:21,37.82731327663982
-0.2873042,6.1866174,7.52737,-0.008552114,0.07819075,-0.009773844,17.0,-0.1777,6.2539,7.5516,0.038,-0.078,-0.1721,0.021391,0.338275,0.93654597,2017-08-22 21:28:22,37.70570710281898
-0.7661445,6.2632318,7.4507556,0.028099801,0.15271631,-0.02076942,17.0,-0.5568,6.2724,7.5176997,0.052199997,0.0525,-0.3093,-0.002088,0.342123,0.935893,2017-08-22 21:28:23,38.35265380910769
-0.641646,6.0716953,7.326257,0.035430185,-0.06963864,-0.05375614,17.0,-0.6221,6.2978997,7.4912,0.0744,-0.2058,-0.2653,-0.005008,0.343357,0.93549,2017-08-22 21:28:24,37.946773121461746
-0.62249243,6.0621185,7.5082164,-0.021991149,-0.013439035,0.030543262,17.0,-0.686,6.218,7.5522,0.077599995,-0.0579,-0.0506,-0.00847,0.338646,0.937449,2017-08-22 21:28:26,37.32045656977724
-0.21068975,6.435614,7.297527,-0.09285152,0.0842994,-0.07696902,15.0,-0.0817,6.5539,7.2943997,-0.0495,-0.043899998,0.031,0.021335,0.355512,0.931748,2017-08-22 21:28:26,37.320750849151366
-0.05746084,6.4164605,7.4124484,-0.058643065,-0.095294975,0.02687807,15.0,-0.081999995,6.6029,7.2500997,-0.0081,-0.037699997,0.0042999997,0.024248,0.35956,0.929263,2017-08-22 21:28:28,37.29221503552455
-0.40222588,6.0046577,7.4124484,0.02443461,-0.02076942,0.009773844,17.0,-0.52279997,6.1552,7.6162996,-0.0682,0.0766,0.0176,0.003708,0.333316,0.938295,2017-08-22 21:28:29,38.219837798789804
-0.5267244,6.042965,8.054094,0.014660766,-0.02565634,0.032986723,17.0,-0.5089,6.0716,7.6840997,0.3628,-0.0703,-0.4983,0.007769,0.328297,0.939398,2017-08-22 21:28:30,38.613575880402415
-0.45968673,6.0238113,7.52737,0.0012217305,0.010995574,0.007330383,17.0,-0.51309997,6.1384997,7.6305,0.049799997,-0.0583,-0.028199999,0.006023,0.332982,0.93804,2017-08-22 21:28:31,36.68971638521222
-0.5267244,6.0046577,7.8625584,-0.029321533,0.028099801,0.03176499,20.0,-0.6017,6.0859,7.6661,0.0061,-0.1495,-0.1052,-0.001031,0.331217,0.939059,2017-08-22 21:28:32,37.764697452286455
-0.7469909,5.9759274,7.651869,-0.008552114,0.040317107,-0.009773844,20.0,-0.5941,6.0337,7.7078,-0.0872,0.025899999,-0.0167,4.6E-4,0.328984,0.939588,2017-08-22 21:28:33,37.59926927906253
-0.5650316,5.9663506,7.642292,-0.02443461,0.0036651916,-0.0036651916,20.0,-0.5714,6.0241,7.7170997,-0.1099,0.15269999,0.039,7.54E-4,0.32568,0.940773,2017-08-22 21:28:34,38.693955579613196
-0.12449849,6.0238113,7.3549876,0.02321288,0.14049901,-0.004886922,17.0,-0.2298,6.2251997,7.5737996,0.1255,-0.1413,-0.1417,0.020134,0.336621,0.93717897,2017-08-22 21:28:35,37.13781567770726
-0.9959879,6.3302693,7.699753,0.062308256,-0.15515977,0.05131268,20.0,-0.95129997,6.2962,7.4579997,-0.0158,0.031999998,-0.2149,-0.018517,0.345866,0.934153,2017-08-22 21:28:36,38.11549348730572
-0.6512229,5.6790466,7.5465236,0.018325957,-0.06841691,0.008552114,17.0,-0.65709996,5.8504996,7.8427,-0.0016,-0.084,-0.0826,-0.004683,0.317285,0.943961,2017-08-22 21:28:37,36.78761150755999
-0.81402856,5.9567738,7.728483,-0.27855456,-0.073303826,-0.1441642,17.0,-0.65419996,5.7830997,7.8928,0.0704,-0.23539999,0.093899995,-0.001087,0.315319,0.943759,2017-08-22 21:28:38,38.12206949515736
-0.82360536,5.315128,7.728483,-0.0036651916,0.02565634,0.013439035,22.0,-0.9557,5.4979,8.0641,0.1761,-0.1968,-0.116399996,-0.014099,0.298812,0.947555,2017-08-22 21:28:39,37.66753516576485
-0.9768343,5.305551,7.8625584,0.039095376,0.004886922,0.034208454,25.0,-1.0389,5.508,8.0469,0.0705,-0.126,-0.100099996,-0.022159,0.299045,0.948059,2017-08-22 21:28:40,38.22576979623483
-0.8714894,5.5641246,7.9008656,0.02076942,0.0012217305,0.007330383,22.0,-0.8915,5.6085,7.9948997,0.0039999997,-0.0547,-0.1046,-0.016364,0.303711,0.947459,2017-08-22 21:28:41,37.68000896899173
-0.90021986,5.544971,7.747637,0.018325957,0.010995574,0.013439035,22.0,-0.921,5.6749,7.9445,0.0707,-0.0061,-0.019199999,-0.012679,0.308039,0.94466,2017-08-22 21:28:42,36.949713434270464
-0.89064306,5.5162406,7.872135,0.004886922,0.012217305,0.0036651916,22.0,-0.7927,5.3076997,8.2079,-0.0848,0.2696,-0.20729999,-0.011707,0.285175,0.95283,2017-08-22 21:28:43,37.29556571796449
-0.90021986,5.602432,7.785944,0.018325957,0.0036651916,-0.010995574,22.0,-0.9519,5.6036997,7.9914,0.024699999,-0.0081,-0.1576,-0.013791,0.303993,0.945349,2017-08-22 21:28:44,36.7123809194816
0.2681506,6.1004257,7.0485296,-0.081855945,0.036651913,-0.004886922,22.0,0.1042,5.8487997,7.8708,0.4511,0.11669999,-1.8672999,0.035013,0.31287,0.945151,2017-08-22 21:28:45,37.647128289309336
-0.45010993,5.7269306,7.9583263,-0.12950343,0.15393804,-0.07452556,20.0,-0.3362,5.7917,7.9063997,-0.0796,-0.0947,0.0591,0.016291,0.313689,0.945033,2017-08-22 21:28:46,38.575306546230976
-0.46926352,5.6407394,7.7667904,0.056199603,-0.02565634,0.0061086523,22.0,-0.4971,5.7167,7.9525,0.094799995,-0.0045,-0.068799995,9.74E-4,0.308017,0.947625,2017-08-22 21:28:47,37.47485851114123
-0.545878,5.6215854,7.881712,0.08552113,0.10873401,0.0036651916,22.0,-0.6286,5.8073997,7.8771,0.046,-0.0416,0.063599996,-0.008441,0.314528,0.945968,2017-08-22 21:28:48,37.552002708038785
-0.7661445,5.707777,7.7189064,-0.05131268,-0.039095376,0.065973446,22.0,-0.8637,5.8595,7.816,0.0095999995,-0.047599997,-0.0583,-0.020842,0.319103,0.944162,2017-08-22 21:28:49,37.73444275901545
-0.94810385,5.544971,7.8529816,0.0012217305,0.014660766,0.002443461,25.0,-0.9514,5.6158,7.9828997,0.0186,-0.039899997,-0.0547,-0.022901,0.304067,0.948193,2017-08-22 21:28:50,38.034990450638006
-0.2681506,5.765238,7.8050976,-0.042760566,-0.04520403,0.0012217305,20.0,-0.37919998,5.8922997,7.8297997,0.0030999999,-0.0379,-0.0072,0.00685,0.316616,0.945074,2017-08-22 21:28:51,36.32672361481176
-0.7661445,5.3247046,7.8050976,-0.010995574,-0.017104227,0.017104227,25.0,-0.79969996,5.3873997,8.1551,0.0625,-0.0826,-0.12019999,-0.016,0.284038,0.954605,2017-08-22 21:28:52,37.75603736047948
-0.79487497,5.085284,8.293514,0.0,0.0036651916,0.007330383,30.0,-0.85999995,5.1068,8.3277,0.0707,-0.0605,-0.11009999,-0.011133,0.274152,0.954206,2017-08-22 21:28:53,37.16593702752726
-1.1300632,4.903325,9.270349,-0.38606682,0.5375614,0.05375614,27.0,-0.8463,5.1015997,8.3323,0.095199995,0.1051,-0.1555,-0.021671,0.270901,0.955238,2017-08-22 21:28:54,38.50953164934612
-0.8523358,4.817134,8.42759,-0.030543262,-0.23090707,0.02565634,27.0,-1.0516,4.8873,8.4367,0.2649,-0.1064,-0.0546,-0.024125,0.263261,0.959145,2017-08-22 21:28:55,37.38960074012132
1.8674773,1.5131354,7.6710224,-0.38362336,0.85154617,1.613906,37.0,2.383,1.8779,9.325399,-0.6296,-1.2239,1.5106,-0.095292,-0.144409,-0.941993,2017-08-22 21:28:56,37.018657588852335
5.00867,0.45968673,8.063671,0.25411993,-0.25534168,-0.20158553,27.0,4.5381,-0.1643,8.6918,0.4021,1.4941,-1.1255,-0.190179,-0.152873,-0.743744,2017-08-22 21:28:57,38.90255489342192
5.391742,0.21068975,7.603985,-0.030543262,0.019547688,0.14172074,27.0,5.2655997,0.4202,8.2623,0.1951,-0.0765,-0.8481,-0.188968,-0.203165,-0.706885,2017-08-22 21:28:58,42.57996755949779
-1.7717092,0.92895025,10.409989,-0.44959682,0.77824235,-2.334727,47.0,1.4696,0.119899996,9.6951,-3.0751998,0.45459998,1.2241,-0.039521,-0.018024,-0.979461,2017-08-22 21:28:59,39.534285760201804
-0.45968673,-0.1340753,8.858546,-0.19181168,-0.009773844,0.14294247,125.0,-0.23079999,-0.0865,9.8035,-0.1961,0.6597,-0.0064999997,0.012185,0.003277,-0.998238,2017-08-22 21:29:00,39.39481967835296
-0.06703765,0.019153614,9.720459,0.004886922,0.0036651916,0.010995574,120.0,-0.15429999,-0.029299999,9.8053,0.0775,0.0435,-0.0089,0.00721,0.001864,-0.99775,2017-08-22 21:29:01,44.23228844957289
-0.05746084,0.009576807,9.730036,0.0061086523,0.002443461,0.010995574,120.0,-0.0705,0.0064999997,9.8063,0.0126,0.003,0.0,0.003743,-1.41E-4,-0.997828,2017-08-22 21:29:02,36.13456954715447
-0.06703765,0.019153614,9.691729,0.0061086523,0.002443461,0.010995574,122.0,-0.0782,0.013499999,9.8063,0.006,-0.013499999,0.0393,0.004167,-4.82E-4,-0.998338,2017-08-22 21:29:03,37.23160534761236
-0.05746084,0.019153614,9.730036,0.0061086523,0.002443461,0.010995574,120.0,-0.0565,0.0105,9.806399,0.0077,-0.0105,-0.009699999,0.002909,-3.71E-4,-0.998358,2017-08-22 21:29:04,37.45809628898685
-0.05746084,0.019153614,9.720459,0.0061086523,0.002443461,0.010995574,120.0,-0.0535,0.011,9.806399,-0.0144,0.0072,-0.0195,0.002745,-4.43E-4,-0.998359,2017-08-22 21:29:05,38.56871945408267
-0.06703765,0.02873042,9.710882,0.0061086523,0.002443461,0.012217305,120.0,-0.055,0.0109,9.806399,0.005,-1.0E-4,0.0195,0.002937,-3.85E-4,-0.998358,2017-08-22 21:29:06,36.20565450478688
-0.06703765,0.019153614,9.720459,0.0061086523,0.002443461,0.010995574,120.0,-0.0548,0.0093,9.806399,0.0039999997,-0.0084,0.0,0.002843,-2.64E-4,-0.998358,2017-08-22 21:29:07,38.44034073475789
-0.05746084,0.009576807,9.730036,0.0061086523,0.0036651916,0.012217305,120.0,-0.0532,0.0071,9.8064995,0.0041,-0.0077,-0.0196,0.002732,-2.08E-4,-0.998358,2017-08-22 21:29:08,37.42553794647378
-0.06703765,0.009576807,9.710882,0.004886922,0.002443461,0.010995574,120.0,-0.0558,0.007999999,9.806399,0.0061999997,0.0022,-0.029299999,0.00288,-2.09E-4,-0.998358,2017-08-22 21:29:09,37.78879778709255
-0.047884032,0.009576807,9.730036,0.0061086523,0.002443461,0.010995574,120.0,-0.0504,0.006,9.8064995,-0.007999999,0.0034999999,0.0,0.002639,-1.83E-4,-0.998358,2017-08-22 21:29:10,38.025665738521056
-0.047884032,0.009576807,9.710882,0.004886922,0.002443461,0.010995574,120.0,-0.050899997,0.0101,9.8064995,0.0015,-2.0E-4,0.0,0.002703,-3.62E-4,-0.998358,2017-08-22 21:29:11,38.5795672291457
-0.06703765,0.019153614,9.720459,0.004886922,0.002443461,0.009773844,120.0,-0.050899997,0.0084,9.8064995,0.0111,0.0103,0.0392,0.002613,-3.29E-4,-0.998358,2017-08-22 21:29:12,37.54661829220115
-0.05746084,0.019153614,9.758766,0.0061086523,0.002443461,0.010995574,120.0,-0.050499998,0.011299999,9.8064995,-0.0087,0.0083,0.0098,0.002602,-4.23E-4,-0.998358,2017-08-22 21:29:13,36.62852380751215
-0.06703765,0.009576807,9.730036,0.0061086523,0.0012217305,0.010995574,120.0,-0.0557,0.0063,9.806399,0.0145,0.0030999999,0.0196,0.002839,-1.93E-4,-0.998357,2017-08-22 21:29:14,38.61100254133663
-0.06703765,0.019153614,9.701305,0.0061086523,0.002443461,0.010995574,120.0,-0.055099998,0.0094,9.806399,-0.0042,4.0E-4,0.029299999,0.002854,-3.63E-4,-0.998357,2017-08-22 21:29:15,36.77265672819601
-0.05746084,0.019153614,9.749189,0.0061086523,0.0012217305,0.010995574,120.0,-0.0532,0.009699999,9.8064995,0.0042,1.0E-4,0.0,0.002764,-3.39E-4,-0.998357,2017-08-22 21:29:16,38.81316971323986
-0.06703765,0.019153614,9.730036,0.004886922,0.002443461,0.010995574,120.0,-0.0567,0.008599999,9.806399,-0.0022,0.0011,-0.0195,0.002925,-2.78E-4,-0.998356,2017-08-22 21:29:17,37.22702675243612
-0.05746084,0.019153614,9.730036,0.004886922,0.0012217305,0.010995574,120.0,-0.0547,0.007999999,9.806399,-0.0041,0.0019999999,0.0392,0.002809,-2.48E-4,-0.998356,2017-08-22 21:29:18,37.38991265005654
-0.047884032,0.02873042,9.749189,0.0061086523,0.002443461,0.010995574,120.0,-0.0535,0.0117999995,9.806399,-0.0128999995,-0.0016,0.0,0.00283,-4.35E-4,-0.998356,2017-08-22 21:29:19,36.02296413881167
-0.047884032,0.009576807,9.720459,0.004886922,0.002443461,0.012217305,120.0,-0.0528,0.0089,9.8064995,-0.005,-0.0095999995,-0.0195,0.002617,-3.09E-4,-0.998357,2017-08-22 21:29:20,37.9409923836038
-0.05746084,0.019153614,9.730036,0.004886922,0.0012217305,0.010995574,120.0,-0.0537,0.0106,9.806399,-0.005,1.0E-4,-0.009699999,0.002789,-3.87E-4,-0.998356,2017-08-22 21:29:21,36.74300982779469
-0.06703765,0.009576807,9.730036,0.004886922,0.0012217305,0.010995574,120.0,-0.0524,0.0115,9.8064995,-0.0074,0.0071,0.0,0.002703,-4.33E-4,-0.998356,2017-08-22 21:29:22,38.205271813629
-0.05746084,0.019153614,9.730036,0.004886922,0.002443461,0.010995574,120.0,-0.0497,0.0095999995,9.8064995,0.0099,2.0E-4,-0.0098,0.0026,-3.44E-4,-0.998356,2017-08-22 21:29:23,38.71965862836364
-0.05746084,0.02873042,9.730036,0.004886922,0.0012217305,0.010995574,120.0,-0.0539,0.0121,9.806399,-0.0047,-0.0019999999,0.0,0.002804,-4.48E-4,-0.998355,2017-08-22 21:29:24,36.25499905822299
-0.05746084,0.019153614,9.720459,0.0061086523,0.002443461,0.012217305,120.0,-0.0536,0.011299999,9.806399,0.014099999,-0.0014,-0.0391,0.00283,-3.66E-4,-0.998355,2017-08-22 21:29:25,37.630472340409845
-0.047884032,0.019153614,9.701305,0.0061086523,0.002443461,0.010995574,120.0,-0.0548,0.0106999995,9.806399,-0.0041,-7.0E-4,0.029399998,0.002841,-3.83E-4,-0.998355,2017-08-22 21:29:26,38.145978832824255
-0.06703765,0.019153614,9.710882,0.0061086523,0.0012217305,0.010995574,120.0,-0.053999998,0.0116,9.806399,0.0046,0.007999999,0.029299999,0.002722,-4.29E-4,-0.998355,2017-08-22 21:29:27,37.86380148389922
-0.05746084,0.02873042,9.749189,0.0061086523,0.0012217305,0.012217305,120.0,-0.0539,0.0089,9.806399,0.0039999997,8.0E-4,0.0,0.002789,-2.44E-4,-0.998355,2017-08-22 21:29:28,37.172103293708304
-0.06703765,0.019153614,9.710882,0.004886922,0.002443461,0.012217305,120.0,-0.053799998,0.0095,9.806399,0.0042,2.9999999E-4,0.0195,0.002704,-3.33E-4,-0.998355,2017-08-22 21:29:29,38.912674205525995
-0.06703765,0.02873042,9.749189,0.004886922,0.0012217305,0.010995574,120.0,-0.055299997,0.0104,9.806399,-0.0042,0.0092,-0.029399998,0.002823,-3.67E-4,-0.998355,2017-08-22 21:29:30,37.52876492608985
-0.06703765,0.009576807,9.730036,0.004886922,0.0012217305,0.010995574,120.0,-0.053099997,0.0122,9.806399,0.0025,-0.0128,0.0,0.002686,-5.05E-4,-0.998355,2017-08-22 21:29:31,41.1609055973893
-0.06703765,0.02873042,9.720459,0.004886922,0.0012217305,0.009773844,120.0,-0.0513,0.0122,9.8064995,0.0011,-0.0016,-0.009699999,0.002649,-4.73E-4,-0.998355,2017-08-22 21:29:32,37.71163359084657
-0.06703765,0.02873042,9.730036,0.004886922,0.0012217305,0.012217305,120.0,-0.052199997,0.0117,9.8064995,0.011899999,-0.0112,0.0392,0.002727,-4.79E-4,-0.998355,2017-08-22 21:29:33,39.04080608497938
-0.06703765,0.02873042,9.749189,0.004886922,0.002443461,0.010995574,120.0,-0.0546,0.0128999995,9.806399,0.0046,0.0072999997,0.0098,0.002839,-4.86E-4,-0.998354,2017-08-22 21:29:34,37.479595503163154
-0.05746084,0.009576807,9.720459,0.004886922,0.0012217305,0.010995574,120.0,-0.0537,0.0111,9.806399,-0.0055,-0.011,0.0,0.002742,-4.64E-4,-0.998355,2017-08-22 21:29:35,36.72123123668298
-0.06703765,0.019153614,9.710882,0.004886922,0.0012217305,0.010995574,120.0,-0.0517,0.0105,9.8064995,0.0029,0.0092,0.0,0.002698,-3.79E-4,-0.998355,2017-08-22 21:29:36,37.22254494579396
-0.05746084,0.02873042,9.749189,0.004886922,0.002443461,0.010995574,120.0,-0.0536,0.0127,9.806399,0.0041,0.0069,0.0098,0.00275,-4.79E-4,-0.998354,2017-08-22 21:29:37,38.33169730828022
-0.047884032,0.009576807,9.710882,0.004886922,0.002443461,0.010995574,120.0,-0.0508,0.0095,9.8064995,0.0014,2.0E-4,-0.029399998,0.002674,-3.8E-4,-0.998354,2017-08-22 21:29:38,37.077965782292864
-0.05746084,0.02873042,9.720459,0.0061086523,0.002443461,0.010995574,120.0,-0.053999998,0.0098,9.806399,0.0045,0.0,0.0098,0.002802,-3.43E-4,-0.998354,2017-08-22 21:29:39,39.01845121417223
-0.05746084,0.02873042,9.749189,0.004886922,0.0012217305,0.012217305,120.0,-0.0525,0.0117,9.8064995,-0.0069999998,-0.0016,0.0098,0.002693,-4.35E-4,-0.998354,2017-08-22 21:29:40,37.60730447142614
-0.05746084,0.019153614,9.710882,0.004886922,0.0012217305,0.010995574,120.0,-0.0513,0.0123,9.8064995,0.0018,-0.0122,0.009699999,0.002638,-4.24E-4,-0.998354,2017-08-22 21:29:41,36.48085592919841
-0.06703765,0.019153614,9.720459,0.004886922,0.0012217305,0.010995574,120.0,-0.053799998,0.010199999,9.806399,-0.0138,-2.9999999E-4,-0.0196,0.002745,-3.67E-4,-0.998354,2017-08-22 21:29:42,38.44797322714176
-0.05746084,0.019153614,9.720459,0.004886922,0.0012217305,0.012217305,120.0,-0.055999998,0.0088,9.806399,-0.0033,-0.0087,-0.0098,0.002848,-2.92E-4,-0.998353,2017-08-22 21:29:43,37.217039857125954
-0.047884032,0.019153614,9.720459,0.004886922,0.0012217305,0.010995574,120.0,-0.053299997,0.011399999,9.806399,-0.0063,-0.0022,0.009699999,0.002734,-4.62E-4,-0.998353,2017-08-22 21:29:45,38.837525245449875
-0.05746084,0.02873042,9.749189,0.004886922,0.002443461,0.010995574,120.0,-0.053299997,0.0139,9.806399,0.014099999,0.0061,0.009699999,0.002822,-5.24E-4,-0.998353,2017-08-22 21:29:46,37.89573661872103
-0.05746084,0.009576807,9.720459,0.004886922,0.0012217305,0.012217305,120.0,-0.053099997,0.010799999,9.8064995,0.0138,-0.0018999999,-0.0196,0.002737,-3.94E-4,-0.998353,2017-08-22 21:29:47,37.37920703268551
-0.076614454,0.019153614,9.730036,0.004886922,0.002443461,0.012217305,120.0,-0.0508,0.011399999,9.8064995,0.0026999998,-0.0013,-0.0196,0.002699,-4.25E-4,-0.998353,2017-08-22 21:29:48,36.6900566613872
-0.06703765,0.019153614,9.730036,0.0061086523,0.0012217305,0.009773844,120.0,-0.0506,0.0122,9.8064995,4.0E-4,-0.0025,0.0,0.002607,-4.21E-4,-0.998354,2017-08-22 21:29:49,37.873318231781596
-0.05746084,0.02873042,9.749189,0.004886922,0.0012217305,0.010995574,120.0,-0.0559,0.0099,9.806399,-0.003,0.009699999,-0.009699999,0.002859,-3.43E-4,-0.998353,2017-08-22 21:29:50,37.56610913110977
-0.047884032,0.019153614,9.749189,0.004886922,0.0012217305,0.010995574,120.0,-0.0532,0.0126,9.806399,-0.0045,-0.003,-0.0391,0.002749,-4.87E-4,-0.998353,2017-08-22 21:29:51,37.675227270459644
-0.06703765,0.019153614,9.749189,0.004886922,0.0012217305,0.010995574,120.0,-0.0514,0.011399999,9.8064995,-0.0058,-0.0019999999,0.009699999,0.002731,-4.64E-4,-0.998353,2017-08-22 21:29:52,38.34059502514638
-0.06703765,0.019153614,9.749189,0.004886922,0.0,0.010995574,120.0,-0.0547,0.0127,9.806399,0.0139,0.0063,-0.048899997,0.002761,-5.23E-4,-0.998353,2017-08-22 21:29:53,37.56551128239307
-0.076614454,0.02873042,9.730036,0.004886922,0.0012217305,0.010995574,120.0,-0.0547,0.0128999995,9.806399,0.0052,0.0067999996,0.0,0.0028,-4.85E-4,-0.998353,2017-08-22 21:29:54,34.88372441158943
-0.06703765,0.009576807,9.749189,0.004886922,0.0012217305,0.012217305,120.0,-0.051799998,0.0123,9.8064995,4.0E-4,0.0084,0.029399998,0.002573,-4.26E-4,-0.998354,2017-08-22 21:29:55,34.582758648190215
-0.06703765,0.019153614,9.720459,0.004886922,0.0012217305,0.010995574,120.0,-0.0497,0.011,9.8064995,2.0E-4,-0.0011,0.009699999,0.002564,-4.12E-4,-0.998353,2017-08-22 21:29:56,37.108762408480985
-0.047884032,0.019153614,9.720459,0.004886922,0.0012217305,0.010995574,120.0,-0.051599998,0.012,9.8064995,0.0109,-0.0018999999,0.0,0.002723,-4.69E-4,-0.998353,2017-08-22 21:29:57,37.42186346685445
-0.047884032,0.019153614,9.749189,0.004886922,0.0012217305,0.010995574,120.0,-0.0506,0.014599999,9.8064995,0.011,-0.0047,-0.009699999,0.002574,-6.2299997E-4,-0.998353,2017-08-22 21:29:58,37.062750766084896
-0.047884032,0.02873042,9.749189,0.004886922,0.0012217305,0.010995574,120.0,-0.0501,0.0133,9.8064995,-0.018,-0.0138,-0.0196,0.002632,-5.6E-4,-0.998352,2017-08-22 21:29:59,36.37509273575278
-0.06703765,0.019153614,9.720459,0.004886922,0.0,0.010995574,120.0,-0.0537,0.013499999,9.806399,-0.0039999997,0.0064,-0.0195,0.002842,-5.1E-4,-0.998352,2017-08-22 21:30:00,36.221801733675306
-0.076614454,0.06703765,9.80665,0.0061086523,0.0012217305,0.010995574,120.0,-0.0501,0.014099999,9.8064995,-0.0106999995,0.0195,-0.058799997,0.002673,-5.81E-4,-0.99884397,2017-08-22 21:30:01,35.793735734212426
-0.095768064,-0.009576807,9.701305,0.0061086523,0.0036651916,0.010995574,120.0,-0.055299997,0.0145,9.806399,0.0046,0.0026,-0.029299999,0.003304,-6.68E-4,-0.998452,2017-08-22 21:30:02,35.75117093055716
-0.05746084,0.02873042,9.730036,0.004886922,0.002443461,0.009773844,120.0,-0.0501,0.0145,9.8064995,-0.0095,-0.0034999999,0.0098,0.002591,-6.24E-4,-0.998609,2017-08-22 21:30:03,36.631504958975015
-0.06703765,0.019153614,9.730036,0.0036651916,0.002443461,0.010995574,120.0,-0.0568,0.012,9.806399,0.0058999998,0.0069999998,0.0,0.002915,-4.7E-4,-0.998641,2017-08-22 21:30:04,36.0671700064774
-0.05746084,0.02873042,9.730036,0.004886922,0.0012217305,0.010995574,120.0,-0.0532,0.0144,9.806399,-0.0056,-0.0138,0.0,0.002748,-5.93E-4,-0.99864197,2017-08-22 21:30:05,37.23308641751228
-0.05746084,0.019153614,9.730036,0.0036651916,0.0012217305,0.010995574,120.0,-0.055099998,0.014699999,9.806399,-0.0026,-0.0032,-0.0195,0.002903,-5.36E-4,-0.998641,2017-08-22 21:30:06,35.68812937385409
-0.05746084,0.02873042,9.749189,0.004886922,0.0012217305,0.009773844,120.0,-0.0558,0.0165,9.806399,0.0058,0.0028,-0.0196,0.002858,-7.12E-4,-0.998641,2017-08-22 21:30:07,35.10370511756141
-0.06703765,0.019153614,9.730036,0.004886922,0.002443461,0.010995574,120.0,-0.051599998,0.0121,9.8064995,0.0022,-0.0022,0.0196,0.002609,-4.76E-4,-0.99864197,2017-08-22 21:30:08,35.156033598762264
-0.076614454,0.019153614,9.730036,0.004886922,0.0012217305,0.010995574,120.0,-0.0528,0.0139999995,9.806399,-0.0066,0.0058999998,0.0196,0.002709,-5.59E-4,-0.99864197,2017-08-22 21:30:09,35.17012084178039
-0.05746084,0.019153614,9.730036,0.004886922,0.0012217305,0.010995574,120.0,-0.0521,0.011899999,9.8064995,0.0026,-0.0019999999,0.0,0.002674,-4.6E-4,-0.99864197,2017-08-22 21:30:10,35.72319674421025
-0.06703765,0.02873042,9.730036,0.004886922,0.0012217305,0.010995574,120.0,-0.0525,0.0106,9.8064995,0.0025,0.0196,0.0098,0.002667,-3.63E-4,-0.99864197,2017-08-22 21:30:11,34.13850928358946
-0.06703765,0.02873042,9.787497,0.0036651916,0.002443461,0.009773844,120.0,-0.055299997,0.0132,9.806399,-0.0098,-0.0037999998,-0.0195,0.003003,-5.59E-4,-0.998822,2017-08-22 21:30:12,34.626695810109844
-0.05746084,0.02873042,9.720459,0.0061086523,0.0,0.010995574,120.0,-0.0296,0.012399999,9.8064995,-0.021,-0.0018,-0.0197,0.001787,-5.46E-4,-0.998533,2017-08-22 21:30:13,35.432582224344124
-0.06703765,0.0,9.758766,0.0036651916,0.0,0.010995574,120.0,-0.0515,0.0187,9.806399,0.0137,-0.009,0.049,0.002776,-8.94E-4,-0.99864,2017-08-22 21:30:14,37.85897695209198
-0.06703765,0.02873042,9.749189,0.004886922,0.0012217305,0.010995574,120.0,-0.0462,0.0157,9.8064995,0.0056999996,-0.0055,-0.0295,0.002719,-6.93E-4,-0.9988,2017-08-22 21:30:15,35.381047935990814
-0.05746084,0.02873042,9.749189,0.0036651916,0.002443461,0.010995574,122.0,-0.040999997,0.0128999995,9.8064995,0.0013,-0.0028,-0.0098,0.002108,-5.64E-4,-0.998699,2017-08-22 21:30:16,35.62509585786899
-0.06703765,0.009576807,9.730036,0.004886922,0.0012217305,0.010995574,192.0,-0.0466,0.0123,9.8064995,-0.0137,0.0061999997,0.029399998,0.00251,-5.27E-4,-0.998573,2017-08-22 21:30:17,36.160836121604206
-0.06703765,0.019153614,9.720459,0.004886922,0.0012217305,0.010995574,122.0,-0.0517,0.0138,9.8064995,-0.0075,0.0053,-0.0196,0.002687,-5.81E-4,-0.998572,2017-08-22 21:30:18,36.166489410413845
-0.05746084,0.0,9.77792,0.004886922,0.0012217305,0.010995574,120.0,-0.044999998,0.0155,9.8064995,-0.0045,-0.0067999996,-0.098,0.002524,-6.68E-4,-0.998446,2017-08-22 21:30:19,44.20419596159349
-0.05746084,0.02873042,9.730036,0.004886922,0.002443461,0.010995574,120.0,-0.0426,0.0081,9.8064995,0.0063,0.0101,-0.0392,0.002376,-3.24E-4,-0.99847597,2017-08-22 21:30:20,42.17341335672789
-0.05746084,0.02873042,9.730036,0.004886922,0.0012217305,0.010995574,120.0,-0.065299995,0.0131,9.806399,0.0191,-0.0028,1.0E-4,0.003214,-4.7E-4,-0.998532,2017-08-22 21:30:21,41.98797505603919
-0.06703765,0.019153614,9.749189,0.004886922,0.002443461,0.010995574,120.0,-0.0609,0.0122,9.806399,-0.013499999,0.0078,0.0,0.003143,-5.14E-4,-0.99863,2017-08-22 21:30:22,44.201564394618025
-0.05746084,0.02873042,9.720459,0.004886922,0.0012217305,0.010995574,120.0,-0.0521,0.012999999,9.8064995,0.0032,0.0061,0.0099,0.00272,-5.53E-4,-0.99864,2017-08-22 21:30:23,34.42341825344613
-0.06703765,0.019153614,9.710882,0.0061086523,0.0012217305,0.010995574,120.0,-0.0554,0.0154,9.806399,0.0058999998,0.0042,1.0E-4,0.00275,-6.22E-4,-0.998639,2017-08-22 21:30:24,36.85674294596238
-0.06703765,0.019153614,9.749189,0.0036651916,0.0012217305,0.009773844,120.0,-0.0536,0.0133,9.806399,-0.005,0.0056999996,-0.029399998,0.002742,-5.56E-4,-0.998639,2017-08-22 21:30:25,36.346749752506
-0.06703765,0.009576807,9.720459,0.004886922,0.0012217305,0.009773844,120.0,-0.053,0.0145,9.806399,0.0034999999,0.0050999997,0.0095999995,0.002723,-6.24E-4,-0.998639,2017-08-22 21:30:26,35.92297358721755
-0.05746084,0.019153614,9.749189,0.004886922,0.0012217305,0.010995574,120.0,-0.0526,0.0138,9.806399,-0.0067999996,-0.0036,0.0,0.002703,-5.49E-4,-0.99864,2017-08-22 21:30:27,35.60997346325707
-0.06703765,0.019153614,9.720459,0.004886922,0.0012217305,0.010995574,120.0,-0.0525,0.0156,9.806399,0.0029,0.0045,-0.009699999,0.002777,-6.34E-4,-0.998639,2017-08-22 21:30:28,34.91624292541398
-0.047884032,0.02873042,9.730036,0.004886922,0.0012217305,0.010995574,120.0,-0.051799998,0.0168,9.806399,0.0034999999,-0.0066,0.029299999,0.002684,-7.19E-4,-0.99864,2017-08-22 21:30:29,35.52204934540417
-0.06703765,0.019153614,9.749189,0.004886922,0.002443461,0.010995574,120.0,-0.049399998,0.014599999,9.8064995,-0.007999999,-0.0047,-0.0196,0.0026,-6.36E-4,-0.99864,2017-08-22 21:30:30,35.987216172173746
-0.05746084,0.019153614,9.749189,0.004886922,0.0012217305,0.010995574,120.0,-0.055099998,0.0150999995,9.806399,-0.0034999999,0.0039999997,0.009699999,0.002821,-6.47E-4,-0.998639,2017-08-22 21:30:31,37.582752820359985
-0.05746084,0.02873042,9.749189,0.004886922,0.0012217305,0.010995574,120.0,-0.0519,0.013599999,9.8064995,0.0015,-0.0139999995,-0.0098,0.0027359999,-5.23E-4,-0.99864,2017-08-22 21:30:32,36.83603909266833
-0.05746084,0.02873042,9.730036,0.0036651916,0.0012217305,0.009773844,120.0,-0.0497,0.0163,9.8064995,-0.0094,-0.0158,0.0196,0.002578,-6.98E-4,-0.99864,2017-08-22 21:30:33,35.397081349168225
-0.05746084,0.019153614,9.720459,0.004886922,0.0012217305,0.010995574,120.0,-0.056399997,0.0134,9.806399,0.0056999996,-0.0036,0.009699999,0.00288,-5.61E-4,-0.998639,2017-08-22 21:30:34,35.97986742554801
-0.047884032,0.02873042,9.730036,0.0061086523,0.0012217305,0.010995574,120.0,-0.0486,0.013599999,9.8064995,-0.0095,-0.0033999998,-0.0195,0.002558,-5.49E-4,-0.99864,2017-08-22 21:30:35,36.12173694733117
-0.05746084,0.009576807,9.701305,0.004886922,0.002443461,0.012217305,120.0,-0.0521,0.015199999,9.806399,-0.0072,-0.0052,0.0195,0.002725,-6.12E-4,-0.99864,2017-08-22 21:30:36,35.93602048074442
-0.06703765,0.009576807,9.749189,0.004886922,0.0012217305,0.010995574,120.0,-0.0508,0.0145,9.8064995,0.022599999,-0.0058999998,-0.0196,0.002709,-6.68E-4,-0.99864,2017-08-22 21:30:37,36.0392987293025
-0.076614454,0.02873042,9.730036,0.004886922,0.0,0.010995574,120.0,-0.0557,0.0155,9.806399,0.0061999997,-0.0056,-0.0098,0.002893,-6.17E-4,-0.998639,2017-08-22 21:30:38,36.15413753426071
-0.06703765,0.019153614,9.710882,0.004886922,0.0012217305,0.009773844,120.0,-0.0526,0.0112,9.8064995,0.0029,0.0077,-0.0195,0.002681,-4.41E-4,-0.99864,2017-08-22 21:30:39,35.46917458547166
-0.08619126,0.02873042,9.730036,0.004886922,0.0012217305,0.012217305,120.0,-0.052699998,0.0148,9.806399,-0.0064999997,0.0047999998,0.0,0.002711,-6.39E-4,-0.99864,2017-08-22 21:30:40,35.22604374521347
-0.05746084,0.019153614,9.710882,0.004886922,0.002443461,0.010995574,120.0,-0.051,0.0127,9.8064995,-0.0075,0.007999999,-0.009699999,0.002665,-4.55E-4,-0.99864,2017-08-22 21:30:41,35.423719576505434
-0.047884032,0.019153614,9.749189,0.0036651916,0.0012217305,0.009773844,120.0,-0.0504,0.0148,9.8064995,8.0E-4,0.0044,0.0196,0.002606,-6.44E-4,-0.99864,2017-08-22 21:30:42,36.251578925838544
-0.076614454,0.019153614,9.720459,0.0061086523,0.002443461,0.010995574,120.0,-0.053299997,0.0139,9.806399,-0.0074,-0.014099999,-0.0099,0.002754,-5.68E-4,-0.99864,2017-08-22 21:30:43,36.35242562224335
-0.047884032,0.02873042,9.730036,0.0036651916,0.0,0.009773844,120.0,-0.0517,0.0137,9.8064995,-0.0063,0.005,0.009699999,0.002705,-5.86E-4,-0.99864,2017-08-22 21:30:44,36.00499328710188
-0.06703765,0.019153614,9.720459,0.004886922,0.0,0.010995574,120.0,-0.0547,0.0134,9.806399,0.0047999998,-0.0037999998,-0.0196,0.002841,-5.23E-4,-0.998639,2017-08-22 21:30:45,35.03149915530342
-0.05746084,0.02873042,9.730036,0.0036651916,0.0012217305,0.010995574,120.0,-0.0523,0.014699999,9.806399,0.0029,0.005,-1.0E-4,0.002718,-5.85E-4,-0.99864,2017-08-22 21:30:46,35.81469995136463
-0.06703765,0.02873042,9.720459,0.0061086523,0.002443461,0.010995574,120.0,-0.050699998,0.0144,9.8064995,-0.0094,-0.0049,0.0,0.002575,-6.25E-4,-0.99864,2017-08-22 21:30:47,36.993201487913595
-0.05746084,0.02873042,9.720459,0.0036651916,0.0,0.010995574,120.0,-0.050499998,0.0169,9.8064995,0.010799999,0.0026999998,0.0195,0.002612,-7.42E-4,-0.99864,2017-08-22 21:30:48,36.2139003218232
-0.05746084,0.019153614,9.710882,0.0036651916,0.0,0.012217305,120.0,-0.0547,0.0139,9.806399,0.0046,0.0143,0.0392,0.002849,-5.81E-4,-0.99864,2017-08-22 21:30:49,36.151246142714264
-0.06703765,0.019153614,9.730036,0.0036651916,0.0,0.012217305,120.0,-0.0525,0.016099999,9.806399,-0.0066,0.0036,0.0,0.002749,-6.95E-4,-0.99864,2017-08-22 21:30:50,35.8872730187585
-0.05746084,0.019153614,9.720459,0.0036651916,0.0012217305,0.010995574,120.0,-0.0495,0.0148,9.8064995,-8.0E-4,0.0044,0.029399998,0.002518,-6.47E-4,-0.99864,2017-08-22 21:30:51,35.726844973917
-0.05746084,0.02873042,9.749189,0.0036651916,0.0012217305,0.010995574,120.0,-0.0506,0.0139999995,9.8064995,-0.018299999,-0.0041,-0.049,0.002649,-5.19E-4,-0.99864,2017-08-22 21:30:52,36.05360777472597
-0.05746084,0.02873042,9.730036,0.004886922,-0.0012217305,0.010995574,120.0,-0.053,0.016099999,9.806399,0.0032,-0.0056,-0.0098,0.002762,-6.64E-4,-0.99864,2017-08-22 21:30:53,35.02336419105199
-0.06703765,0.02873042,9.730036,0.004886922,0.0012217305,0.010995574,120.0,-0.0525,0.0134,9.806399,-0.0066,0.0061999997,0.0,0.002784,-5.26E-4,-0.99864,2017-08-22 21:30:54,35.12707529184965
-0.05746084,0.038307227,9.749189,0.0036651916,0.0,0.010995574,120.0,-0.056599997,0.013499999,9.806399,-0.0041,0.0056,0.0098,0.002847,-5.68E-4,-0.99864,2017-08-22 21:30:55,36.823720115570204
-0.076614454,0.019153614,9.730036,0.004886922,0.0012217305,0.010995574,120.0,-0.053999998,0.0128999995,9.806399,0.0041,-0.0026999998,0.029399998,0.002763,-5.31E-4,-0.99864,2017-08-22 21:30:56,35.77409571950531
-0.06703765,0.02873042,9.710882,0.004886922,0.0012217305,0.010995574,120.0,-0.0534,0.0158,9.806399,0.0131,0.0042,0.009699999,0.002762,-6.66E-4,-0.99864,2017-08-22 21:30:57,33.835991182945136
-0.05746084,0.019153614,9.730036,0.004886922,0.0,0.010995574,120.0,-0.049999997,0.017099999,9.8064995,-0.01,0.0029,0.029399998,0.002504,-7.11E-4,-0.99864,2017-08-22 21:30:58,35.42804816148174
-0.05746084,0.02873042,9.768343,0.004886922,0.0,0.010995574,120.0,-0.049599998,0.0155,9.8064995,0.01,0.0045,0.0,0.002524,-6.8E-4,-0.99864,2017-08-22 21:30:59,34.48016078041874
-0.05746084,0.019153614,9.730036,0.004886922,0.0,0.009773844,120.0,-0.0501,0.0139,9.8064995,-0.019,0.0053,0.0,0.002545,-5.96E-4,-0.998641,2017-08-22 21:31:00,35.522521220969864
-0.047884032,0.019153614,9.720459,0.004886922,0.0,0.010995574,120.0,-0.0484,0.0134,9.8064995,0.0095,0.0058999998,0.0,0.002501,-5.54E-4,-0.998641,2017-08-22 21:31:01,35.46630176719407
-0.05746084,0.019153614,9.710882,0.004886922,0.0,0.009773844,120.0,-0.0514,0.014699999,9.8064995,0.0106,0.0049,0.0,0.002647,-5.95E-4,-0.99864,2017-08-22 21:31:02,34.8000671826003
-0.05746084,0.019153614,9.730036,0.004886922,0.0012217305,0.010995574,120.0,-0.0501,0.0131,9.8064995,0.009699999,0.0058999998,-0.0196,0.002544,-5.67E-4,-0.998641,2017-08-22 21:31:03,34.527394845227434
-0.076614454,0.02873042,9.730036,0.0036651916,0.0,0.010995574,120.0,-0.0501,0.015,9.8064995,5.9999997E-4,0.0046,0.0098,0.002589,-6.11E-4,-0.998641,2017-08-22 21:31:05,34.34663197171493
-0.05746084,0.019153614,9.720459,0.0036651916,0.0,0.010995574,120.0,-0.0513,0.0148,9.8064995,-0.017099999,0.0053,0.0392,0.002689,-5.96E-4,-0.99864,2017-08-22 21:31:06,34.598206335098595
-0.05746084,0.009576807,9.710882,0.004886922,0.0,0.009773844,120.0,-0.053799998,0.0164,9.806399,-0.0052,0.0032,0.0,0.002811,-7.06E-4,-0.99864,2017-08-22 21:31:07,34.571712839262496
-0.05746084,0.02873042,9.749189,0.004886922,0.0,0.012217305,120.0,-0.0528,0.0157,9.806399,-0.0058999998,-0.0052,0.0098,0.002749,-6.39E-4,-0.99864,2017-08-22 21:31:08,34.63374996698772
-0.06703765,0.02873042,9.720459,0.0036651916,0.0012217305,0.010995574,120.0,-0.0524,0.015899999,9.806399,0.0029,-0.0058999998,0.0,0.002699,-6.88E-4,-0.99864,2017-08-22 21:31:09,35.34108837941142
-0.076614454,0.019153614,9.710882,0.004886922,0.0,0.010995574,120.0,-0.0523,0.0133,9.8064995,-0.0061,0.0066,-0.0196,0.002733,-5.24E-4,-0.99864,2017-08-22 21:31:10,34.67409686826392
-0.047884032,0.02873042,9.730036,0.0036651916,0.0,0.009773844,120.0,-0.053299997,0.012999999,9.806399,-0.0069,-0.0029,-0.0391,0.002691,-5.13E-4,-0.99864,2017-08-22 21:31:11,34.739249212821576
-0.047884032,0.02873042,9.710882,0.004886922,0.0,0.009773844,120.0,-0.0548,0.015199999,9.806399,0.0066,0.0049,0.009699999,0.002831,-6.31E-4,-0.998639,2017-08-22 21:31:12,35.123752131689955
-0.06703765,0.02873042,9.730036,0.0036651916,0.0,0.010995574,120.0,-0.052899998,0.0148,9.806399,-0.0058999998,0.0138,0.0,0.002719,-5.94E-4,-0.99864,2017-08-22 21:31:13,35.00409732544267
-0.047884032,0.019153614,9.720459,0.004886922,0.0012217305,0.010995574,120.0,-0.0512,0.013499999,9.8064995,0.0224,0.0056999996,-0.0098,0.002683,-5.81E-4,-0.99864,2017-08-22 21:31:14,36.40656250033019
-0.05746084,0.02873042,9.730036,0.0036651916,0.0,0.010995574,120.0,-0.0521,0.0122,9.8064995,0.0023999999,-0.0029,-0.0098,0.002653,-4.4899998E-4,-0.99864,2017-08-22 21:31:15,34.15856437156813
-0.076614454,0.019153614,9.720459,0.0036651916,-0.0012217305,0.009773844,120.0,-0.053,0.0165,9.806399,-0.0077,-0.0072,0.0,0.002745,-7.03E-4,-0.99864,2017-08-22 21:31:16,34.53778530491272
-0.047884032,0.02873042,9.720459,0.0036651916,0.0,0.010995574,120.0,-0.050899997,0.0173,9.8064995,-0.0075999997,-0.0069999998,-0.0196,0.002633,-7.6E-4,-0.99864,2017-08-22 21:31:17,37.09809975017648
-0.06703765,0.02873042,9.749189,0.004886922,0.0012217305,0.010995574,120.0,-0.0503,0.016999999,9.8064995,7.0E-4,-0.0064999997,0.0098,0.002604,-7.05E-4,-0.99864,2017-08-22 21:31:18,35.20700052835174
-0.06703765,0.02873042,9.710882,0.0036651916,0.0,0.010995574,120.0,-0.049799997,0.015299999,9.8064995,0.0101,0.0042999997,0.0196,0.002577,-6.27E-4,-0.99864,2017-08-22 21:31:19,36.11719160156679
-0.05746084,0.02873042,9.720459,0.0036651916,0.0012217305,0.009773844,120.0,-0.050499998,0.015999999,9.8064995,0.0019999999,0.0033,-0.0196,0.002657,-6.97E-4,-0.99864,2017-08-22 21:31:20,35.00642492381546
-0.038307227,0.019153614,9.710882,0.0036651916,0.0,0.010995574,120.0,-0.0517,0.0167,9.806399,-0.0173,0.003,0.0196,0.002667,-6.85E-4,-0.99864,2017-08-22 21:31:21,35.074831221802484
-0.06703765,0.02873042,9.720459,0.0036651916,0.0,0.009773844,120.0,-0.0543,0.015199999,9.806399,0.0143,0.0047999998,-0.0196,0.002783,-6.11E-4,-0.99864,2017-08-22 21:31:22,35.51197933394276
-0.06703765,0.02873042,9.720459,0.0036651916,0.0,0.010995574,120.0,-0.050499998,0.0165,9.8064995,0.0015,0.0026999998,0.009699999,0.002656,-7.2E-4,-0.99864,2017-08-22 21:31:23,36.024337308733564
-0.06703765,0.02873042,9.720459,0.0036651916,0.0,0.010995574,120.0,-0.055099998,0.0168,9.806399,0.0052,-0.0066,0.0,0.00283,-7.67E-4,-0.99864,2017-08-22 21:31:24,36.340696129282236
-0.05746084,0.019153614,9.730036,0.004886922,0.0012217305,0.009773844,120.0,-0.049399998,0.0164,9.8064995,-0.0099,0.003,0.009699999,0.002511,-6.95E-4,-0.998641,2017-08-22 21:31:25,35.161679355931284
-0.05746084,0.02873042,9.720459,0.004886922,0.0,0.010995574,120.0,-0.0486,0.0163,9.8064995,-0.0106,-0.006,0.009699999,0.002521,-7.03E-4,-0.998641,2017-08-22 21:31:26,35.154443435545666
-0.047884032,0.02873042,9.730036,0.0036651916,0.0,0.010995574,120.0,-0.0477,0.016999999,9.8064995,0.0083,0.0022,0.0,0.002527,-7.49E-4,-0.99864,2017-08-22 21:31:27,34.5167324332576
-0.047884032,0.02873042,9.720459,0.0036651916,0.0,0.009773844,120.0,-0.0471,0.0184,9.8064995,-0.0015,0.0013,0.0196,0.002459,-8.21E-4,-0.998641,2017-08-22 21:31:28,35.03600893024669
-0.047884032,0.038307227,9.730036,0.004886922,0.0,0.010995574,120.0,-0.052699998,0.018299999,9.806399,0.0128,0.0011999999,0.0,0.00275,-7.89E-4,-0.99864,2017-08-22 21:31:29,36.651815707079656
-0.06703765,0.02873042,9.720459,0.004886922,0.0,0.010995574,120.0,-0.0558,0.0176,9.806399,0.006,0.0022,-0.0197,0.002892,-7.51E-4,-0.99864,2017-08-22 21:31:30,36.614887954163684
-0.06703765,0.019153614,9.730036,0.0036651916,0.0,0.010995574,120.0,-0.0523,0.0169,9.806399,0.020299999,0.0023,0.0196,0.002698,-7.38E-4,-0.998641,2017-08-22 21:31:31,36.308011747425816
-0.05746084,0.02873042,9.730036,0.004886922,0.0,0.010995574,120.0,-0.048899997,0.015299999,9.8064995,0.0084,0.0039,-0.0099,0.002527,-6.32E-4,-0.998641,2017-08-22 21:31:32,36.1120202773269
-0.06703765,0.038307227,9.720459,0.004886922,0.0012217305,0.009773844,120.0,-0.0504,0.0162,9.8064995,-0.0186,-0.0063,0.0,0.002566,-7.55E-4,-0.998641,2017-08-22 21:31:33,40.901426064545035
-0.047884032,0.02873042,9.730036,0.0036651916,0.0,0.010995574,120.0,-0.051999997,0.0158,9.806399,0.0121,0.0034999999,0.0,0.002681,-6.87E-4,-0.998641,2017-08-22 21:31:34,35.71735392237419
-0.047884032,0.02873042,9.710882,0.0036651916,0.0,0.009773844,120.0,-0.047799997,0.0157,9.8064995,0.018,0.0039,0.0,0.002485,-6.93E-4,-0.998641,2017-08-22 21:31:35,35.7077053460078
-0.05746084,0.02873042,9.749189,0.0036651916,0.0012217305,0.010995574,120.0,-0.050499998,0.0164,9.8064995,9.0E-4,0.003,0.029299999,0.002619,-6.87E-4,-0.998641,2017-08-22 21:31:36,34.84614099646378
-0.06703765,0.02873042,9.720459,0.0036651916,0.0,0.009773844,120.0,-0.051799998,0.0176,9.806399,0.0023,0.0021,0.009699999,0.002678,-7.69E-4,-0.998641,2017-08-22 21:31:37,35.83186725814899
-0.05746084,0.02873042,9.730036,0.0036651916,-0.0012217305,0.010995574,120.0,-0.047599997,0.018199999,9.8064995,-0.011399999,-0.018099999,-0.0098,0.002481,-8.08E-4,-0.998641,2017-08-22 21:31:38,36.02256397304351
-0.06703765,0.009576807,9.720459,0.0036651916,-0.0012217305,0.009773844,120.0,-0.049599998,0.0174,9.8064995,0.010799999,0.0011999999,-0.009699999,0.002616,-8.09E-4,-0.998641,2017-08-22 21:31:39,34.660154267963605
-0.06703765,0.02873042,9.730036,0.0036651916,-0.0012217305,0.009773844,120.0,-0.0526,0.0150999995,9.806399,0.0025,-0.0047,0.0098,0.002722,-6.31E-4,-0.998641,2017-08-22 21:31:40,36.12264842861889
-0.05746084,0.019153614,9.749189,0.0036651916,0.0,0.010995574,120.0,-0.0512,0.0158,9.8064995,5.9999997E-4,-0.0056,0.049,0.002603,-6.89E-4,-0.998641,2017-08-22 21:31:41,34.85899019802008
-0.05746084,0.019153614,9.710882,0.0036651916,0.0,0.009773844,120.0,-0.0506,0.0195,9.806399,0.0013,-0.0105,-0.029299999,0.002622,-8.19E-4,-0.998641,2017-08-22 21:31:42,35.74756837854718
-0.05746084,0.02873042,9.720459,0.004886922,0.0,0.009773844,120.0,-0.053,0.0169,9.806399,0.0032,0.0033999998,-0.009699999,0.002808,-7.03E-4,-0.998641,2017-08-22 21:31:43,36.65581137580591
-0.05746084,0.02873042,9.720459,0.002443461,0.0012217305,0.010995574,120.0,-0.0477,0.0166,9.8064995,-0.0018,0.0033999998,0.0,0.002474,-7.19E-4,-0.998641,2017-08-22 21:31:44,37.38171138098534
-0.038307227,-0.02873042,9.605537,0.0036651916,0.0,0.009773844,120.0,-0.0466,0.0264,9.8064995,7.0E-4,0.0188,0.1275,0.002146,-0.001377,-0.998387,2017-08-22 21:31:45,40.02004994526426
-0.047884032,0.038307227,9.672575,0.0036651916,0.0,0.009773844,120.0,-0.0422,0.0047,9.8064995,0.0083,0.0044,-0.0784,0.002451,-1.4E-4,-0.998524,2017-08-22 21:31:46,46.036395250763384
-0.05746084,0.02873042,9.749189,0.0036651916,0.0,0.010995574,120.0,-0.017099999,0.007999999,9.8066,-0.026099999,9.0E-4,-1.0E-4,0.001026,-3.8E-4,-0.998412,2017-08-22 21:31:47,45.74822590920387
-0.06703765,0.009576807,9.710882,0.0036651916,-0.0012217305,0.010995574,120.0,-0.054899998,0.0111,9.806399,-0.0117,-0.0022,0.0,0.00286,-4.68E-4,-0.998571,2017-08-22 21:31:48,48.8080295800734
-0.06703765,0.02873042,9.701305,0.0036651916,0.0,0.010995574,120.0,-0.0541,0.015,9.806399,-0.005,0.0046,0.0,0.00269,-6.05E-4,-0.998645,2017-08-22 21:31:49,40.36724186200972
-0.06703765,0.02873042,9.730036,0.0036651916,0.0012217305,0.009773844,120.0,-0.051999997,0.015899999,9.806399,0.0023999999,0.0033999998,-0.029399998,0.002656,-6.56E-4,-0.998645,2017-08-22 21:31:50,43.38855741426439
-0.05746084,0.019153614,9.720459,0.0036651916,0.0,0.009773844,120.0,-0.048499998,0.0174,9.8064995,0.0088,-0.0074,-0.009699999,0.00252,-7.67E-4,-0.998645,2017-08-22 21:31:51,38.5796858093599
-0.05746084,0.009576807,9.701305,0.004886922,0.0012217305,0.009773844,120.0,-0.0519,0.0184,9.806399,-0.0064,0.0011,-0.0195,0.002727,-8.04E-4,-0.998645,2017-08-22 21:31:52,39.946648313120136
-0.05746084,0.02873042,9.720459,0.0036651916,0.0,0.010995574,120.0,-0.0545,0.0176,9.806399,0.0046,9.999999E-4,0.0,0.002802,-7.46E-4,-0.998645,2017-08-22 21:31:53,39.54174193163511
-0.076614454,0.02873042,9.720459,0.004886922,0.0012217305,0.009773844,120.0,-0.0512,0.018099999,9.806399,1.0E-4,0.0016,-0.0195,0.002655,-7.89E-4,-0.998645,2017-08-22 21:31:54,36.952070089362905
-0.076614454,0.019153614,9.720459,0.0036651916,0.0,0.009773844,120.0,-0.0464,0.0149,9.8064995,0.0071,0.0047,0.029399998,0.002458,-6.12E-4,-0.998646,2017-08-22 21:31:55,35.629458600693575
-0.05746084,0.02873042,9.720459,0.004886922,0.0,0.009773844,120.0,-0.0506,0.0157,9.8064995,0.011,0.0044,0.0,0.002656,-6.81E-4,-0.998646,2017-08-22 21:31:56,26.22772403396906
-0.05746084,0.019153614,9.720459,0.004886922,0.0,0.009773844,120.0,-0.049799997,0.0154,9.8064995,-0.0094,0.0042999997,0.0098,0.002535,-6.34E-4,-0.998646,2017-08-22 21:31:57,28.513156901554947
-0.05746084,0.02873042,9.749189,0.0036651916,0.0,0.009773844,120.0,-0.0473,0.0167,9.8064995,-0.0018999999,0.0026999998,0.0392,0.002463,-7.41E-4,-0.998646,2017-08-22 21:31:58,27.024884277466366
-0.06703765,0.02873042,9.710882,0.0036651916,0.0,0.010995574,120.0,-0.052199997,0.015199999,9.806399,-0.0071,-0.0052,0.0,0.002644,-6.59E-4,-0.998646,2017-08-22 21:31:59,29.242380842961847
-0.06703765,0.019153614,9.730036,0.004886922,0.0012217305,0.009773844,120.0,-0.052199997,0.0174,9.806399,0.020399999,0.0111,0.0196,0.002677,-7.88E-4,-0.998646,2017-08-22 21:32:00,25.836945844070982
-0.06703765,0.019153614,9.730036,0.0036651916,0.0,0.009773844,120.0,-0.050899997,0.0164,9.8064995,0.0013,0.0033,0.0195,0.002631,-7.17E-4,-0.998646,2017-08-22 21:32:01,26.196915740251733
-0.05746084,0.02873042,9.720459,0.0036651916,0.0,0.009773844,120.0,-0.0475,0.0167,9.8064995,-0.0123,-0.0071,-0.0098,0.002432,-7.43E-4,-0.998647,2017-08-22 21:32:02,27.068870623300683
-0.05746084,0.019153614,9.730036,0.0036651916,0.0,0.009773844,120.0,-0.0484,0.0186,9.8064995,-9.999999E-4,0.0109,0.0196,0.002648,-8.2E-4,-0.998646,2017-08-22 21:32:03,27.341645193766464
-0.05746084,0.02873042,9.758766,0.0036651916,0.0,0.009773844,120.0,-0.048899997,0.0189,9.8064995,-4.9999997E-4,8.0E-4,0.0098,0.002542,-8.29E-4,-0.998647,2017-08-22 21:32:04,30.424438358915307
-0.05746084,0.02873042,9.710882,0.0036651916,0.0,0.009773844,120.0,-0.0524,0.018,9.806399,0.0028,0.0016999999,0.0195,0.002703,-7.46E-4,-0.998646,2017-08-22 21:32:05,30.540465992941776
-0.05746084,0.02873042,9.720459,0.004886922,0.0,0.010995574,120.0,-0.0497,0.0189,9.8064995,0.01,0.0,-0.0098,0.002582,-8.81E-4,-0.998647,2017-08-22 21:32:06,31.05065550506653
-0.05746084,0.02873042,9.720459,0.0036651916,0.0,0.010995574,120.0,-0.0536,0.0191,9.806399,-0.0061,-0.009099999,0.0098,0.0027059999,-8.32E-4,-0.998647,2017-08-22 21:32:07,30.226751178899164
-0.06703765,0.038307227,9.720459,0.0036651916,0.0,0.010995574,120.0,-0.0503,0.0177,9.8064995,0.0,0.0030999999,0.0,0.002612,-7.72E-4,-0.998647,2017-08-22 21:32:08,24.794493364302607
-0.06703765,0.019153614,9.730036,0.0036651916,0.0,0.009773844,120.0,-0.0512,0.016099999,9.8064995,0.0021,0.0037999998,0.0196,0.002686,-6.55E-4,-0.998647,2017-08-22 21:32:09,26.75106395062383
-0.05746084,0.02873042,9.720459,0.004886922,0.0,0.009773844,120.0,-0.0523,0.0189,9.806399,0.022599999,8.0E-4,0.0,0.002701,-8.32E-4,-0.998647,2017-08-22 21:32:10,25.692586628883262
-0.047884032,0.02873042,9.730036,0.0036651916,0.0012217305,0.009773844,120.0,-0.0513,0.0191,9.806399,0.0016,5.9999997E-4,0.0098,0.002625,-7.89E-4,-0.998647,2017-08-22 21:32:11,26.621038325217423
-0.05746084,0.019153614,9.720459,0.004886922,0.0,0.009773844,120.0,-0.0526,0.0175,9.806399,0.0033999998,0.0015,0.009699999,0.002728,-7.54E-4,-0.998647,2017-08-22 21:32:12,23.701573155761444
-0.05746084,0.019153614,9.730036,0.004886922,0.0,0.009773844,120.0,-0.050499998,0.018299999,9.8064995,-5.9999997E-4,-0.0084999995,0.0,0.002531,-8.54E-4,-0.998648,2017-08-22 21:32:13,25.18415225368563
-0.06703765,0.02873042,9.710882,0.004886922,0.0,0.010995574,120.0,-0.0512,0.0185,9.806399,0.0106,9.999999E-4,0.0,0.00261,-8.18E-4,-0.998647,2017-08-22 21:32:14,27.864142163029868
-0.05746084,0.019153614,9.720459,0.0036651916,-0.0012217305,0.010995574,120.0,-0.049999997,0.0177,9.8064995,4.9999997E-4,0.0019999999,0.0,0.002634,-7.77E-4,-0.998648,2017-08-22 21:32:15,29.41781540410828
-0.05746084,0.02873042,9.720459,0.0036651916,0.0,0.010995574,120.0,-0.0475,0.0169,9.8064995,-0.0034999999,0.0025,0.029399998,0.002388,-7.54E-4,-0.998648,2017-08-22 21:32:16,30.56077260904095
-0.05746084,0.02873042,9.720459,0.0036651916,0.0012217305,0.010995574,120.0,-0.0495,0.0188,9.8064995,-0.0095,8.0E-4,-0.029299999,0.002615,-8.3E-4,-0.998648,2017-08-22 21:32:17,27.55046668854203
-0.05746084,0.02873042,9.730036,0.0036651916,0.0,0.009773844,120.0,-0.0497,0.018099999,9.8064995,2.0E-4,0.0015,-0.0098,0.002584,-7.82E-4,-0.998648,2017-08-22 21:32:18,32.40138393003455
-0.05746084,0.02873042,9.720459,0.004886922,0.0,0.009773844,120.0,-0.055,0.016099999,9.806399,-0.0139,0.0034999999,-0.0295,0.002907,-6.9E-4,-0.998647,2017-08-22 21:32:19,29.435957508621414
-0.047884032,0.019153614,9.710882,0.004886922,0.0,0.010995574,120.0,-0.0503,0.0163,9.8064995,0.0,0.003,0.0098,0.002559,-7.18E-4,-0.998648,2017-08-22 21:32:20,29.62323452899661
-0.05746084,0.038307227,9.749189,0.0036651916,-0.0012217305,0.009773844,120.0,-0.047,0.0163,9.8064995,-0.011899999,-0.0067,-0.0196,0.002452,-7.23E-4,-0.998649,2017-08-22 21:32:21,26.527327153474197
-0.06703765,0.019153614,9.701305,0.0036651916,0.0,0.010995574,120.0,-0.049399998,0.0165,9.8064995,-8.0E-4,0.0025,-0.0391,0.002561,-7.09E-4,-0.998649,2017-08-22 21:32:22,28.953396575036273
-0.05746084,0.02873042,9.730036,0.0036651916,0.0012217305,0.009773844,120.0,-0.051099997,0.018299999,9.806399,-0.0067999996,0.0011999999,0.0,0.002689,-8.03E-4,-0.998648,2017-08-22 21:32:24,23.978884331399538
-0.06703765,0.02873042,9.730036,0.0036651916,0.0,0.009773844,120.0,-0.0488,0.018099999,9.8064995,-0.011299999,0.0016999999,-0.0098,0.002539,-8.03E-4,-0.998649,2017-08-22 21:32:25,26.475342499069676
-0.047884032,0.02873042,9.720459,0.0036651916,0.0012217305,0.009773844,120.0,-0.0471,0.019,9.8064995,-0.0011999999,0.0015,-0.009699999,0.002394,-8.44E-4,-0.998649,2017-08-22 21:32:26,27.275806487606967
-0.05746084,0.02873042,9.720459,0.0036651916,0.0,0.010995574,120.0,-0.048,0.0185,9.8064995,-0.0015,0.0013,0.009699999,0.002496,-8.1399997E-4,-0.998649,2017-08-22 21:32:27,25.921646086430925
-0.076614454,0.02873042,9.720459,0.0036651916,0.0012217305,0.010995574,120.0,-0.049999997,0.018,9.8064995,0.0011999999,0.0112,0.0196,0.002633,-7.46E-4,-0.998649,2017-08-22 21:32:28,30.709880007321445
-0.06703765,0.02873042,9.710882,0.0036651916,-0.0012217305,0.009773844,120.0,-0.0502,0.015999999,9.8064995,4.9999997E-4,-0.0055,0.0098,0.002594,-6.56E-4,-0.998649,2017-08-22 21:32:29,33.681967850256896
-0.06703765,0.019153614,9.720459,0.0036651916,0.0,0.009773844,120.0,-0.0514,0.0175,9.806399,0.0018999999,0.0022,-0.0295,0.0027,-7.64E-4,-0.998649,2017-08-22 21:32:30,29.75698851965406
-0.047884032,0.02873042,9.710882,0.004886922,-0.0012217305,0.009773844,120.0,-0.0521,0.015999999,9.806399,-0.0082,-0.0064,0.0,0.002643,-6.99E-4,-0.998649,2017-08-22 21:32:31,27.9479727551043
-0.05746084,0.02873042,9.730036,0.004886922,0.0,0.010995574,120.0,-0.0502,0.0191,9.8064995,9.0E-4,0.0103,-0.029399998,0.00265,-8.41E-4,-0.998649,2017-08-22 21:32:32,31.951638234751684
-0.05746084,0.02873042,9.720459,0.004886922,0.0,0.009773844,120.0,-0.051099997,0.0162,9.8064995,0.0116,0.0037,0.0,0.002653,-6.77E-4,-0.99865,2017-08-22 21:32:33,29.15708922552245
-0.06703765,0.02873042,9.720459,0.004886922,0.0012217305,0.010995574,120.0,-0.049799997,0.0169,9.8064995,0.0101,0.0023,0.0,0.002627,-7.41E-4,-0.99865,2017-08-22 21:32:34,26.79947172147849
-0.076614454,0.02873042,9.720459,0.0036651916,0.0,0.010995574,120.0,-0.0503,0.019,9.8064995,-0.0106999995,7.0E-4,0.0196,0.002648,-7.96E-4,-0.99865,2017-08-22 21:32:35,27.94039055300068
-0.05746084,0.02873042,9.720459,0.004886922,0.0,0.010995574,120.0,-0.0497,0.015,9.8064995,0.0198,0.0042,0.0098,0.002525,-6.16E-4,-0.99865,2017-08-22 21:32:36,29.96829642502906
-0.05746084,0.02873042,9.720459,0.0036651916,0.0,0.009773844,120.0,-0.0488,0.019299999,9.8064995,-7.0E-4,4.9999997E-4,0.029399998,0.002537,-8.55E-4,-0.99865,2017-08-22 21:32:37,29.276494076813368
-0.05746084,0.009576807,9.730036,0.002443461,0.0,0.010995574,120.0,-0.0479,0.016999999,9.8064995,-0.0087,0.003,0.0098,0.002575,-7.06E-4,-0.99865097,2017-08-22 21:32:38,28.25959326596893
-0.06703765,0.02873042,9.710882,0.0036651916,0.0,0.010995574,120.0,-0.0473,0.019399999,9.8064995,-0.0030999999,2.9999999E-4,-0.0196,0.002472,-8.66E-4,-0.99865097,2017-08-22 21:32:39,25.111164049562223
-0.06703765,0.02873042,9.730036,0.0036651916,0.0012217305,0.009773844,120.0,-0.049799997,0.0189,9.8064995,-4.9999997E-4,0.009699999,0.0098,0.002639,-8.27E-4,-0.99865,2017-08-22 21:32:40,29.819360523226575
-0.05746084,0.02873042,9.730036,0.0036651916,0.0,0.009773844,120.0,-0.0495,0.0198,9.8064995,0.0,-1.0E-4,-0.029299999,0.002573,-8.8E-4,-0.99865097,2017-08-22 21:32:41,33.157483553344036
-0.038307227,0.02873042,9.710882,0.0036651916,0.0,0.010995574,120.0,-0.046699997,0.0167,9.8064995,0.0067,0.0025,-0.0098,0.002439,-7.4E-4,-0.99865097,2017-08-22 21:32:42,32.31747466549322
-0.047884032,0.02873042,9.730036,0.0036651916,0.0,0.009773844,120.0,-0.048299998,0.018,9.8064995,-9.999999E-4,0.0015,-0.0098,0.002549,-7.8E-4,-0.99865097,2017-08-22 21:32:43,29.26941824896593
-0.06703765,0.02873042,9.710882,0.0036651916,0.0,0.009773844,120.0,-0.052699998,0.0186,9.806399,-0.0064999997,9.999999E-4,-0.0098,0.002761,-8.15E-4,-0.99865097,2017-08-22 21:32:44,30.115975332979005
-0.038307227,0.038307227,9.749189,0.0036651916,0.0012217305,0.009773844,120.0,-0.0464,0.0177,9.8064995,0.0061,9.999999E-4,-0.0098,0.002383,-8.32E-4,-0.998652,2017-08-22 21:32:45,28.468056823218554
-0.047884032,0.02873042,9.701305,0.0036651916,0.0012217305,0.009773844,120.0,-0.048899997,0.0191,9.8064995,-0.010199999,5.9999997E-4,0.0,0.002547,-8.47E-4,-0.998652,2017-08-22 21:32:46,29.756966990457812
-0.06703765,0.02873042,9.730036,0.0036651916,0.0,0.010995574,120.0,-0.0534,0.020299999,9.806399,-0.0053,-4.9999997E-4,0.009699999,0.002749,-9.01E-4,-0.99865097,2017-08-22 21:32:47,30.097701516606186
-0.05746084,0.02873042,9.730036,0.0036651916,-0.0012217305,0.009773844,120.0,-0.0515,0.0206,9.806399,-0.0075999997,-0.0106,-0.029399998,0.002627,-9.11E-4,-0.998652,2017-08-22 21:32:48,28.552701751221004
-0.05746084,0.02873042,9.710882,0.004886922,0.0,0.010995574,120.0,-0.0532,0.0174,9.806399,0.0123,0.0021,0.0,0.002697,-7.59E-4,-0.998652,2017-08-22 21:32:49,29.351552350769747
-0.06703765,0.019153614,9.730036,0.0036651916,0.0,0.009773844,120.0,-0.0514,0.018099999,9.806399,-0.0072,0.0015,0.0,0.002701,-7.92E-4,-0.998652,2017-08-22 21:32:50,27.59741007705631
-0.076614454,0.02873042,9.758766,0.0036651916,0.0,0.010995574,120.0,-0.053299997,0.018099999,9.806399,-0.0074,-0.007999999,-0.0196,0.002762,-7.83E-4,-0.998652,2017-08-22 21:32:51,25.01470072100412
-0.06703765,0.02873042,9.720459,0.0036651916,0.0,0.009773844,120.0,-0.0503,0.0174,9.8064995,0.0,0.0018,-0.029399998,0.002561,-7.68E-4,-0.998652,2017-08-22 21:32:52,36.805261554030714
-0.05746084,0.02873042,9.720459,0.0036651916,0.0,0.009773844,120.0,-0.050899997,0.0212,9.806399,0.0016,-0.0016,0.0,0.002641,-9.43E-4,-0.998652,2017-08-22 21:32:53,33.05747254235869
-0.047884032,0.038307227,9.720459,0.002443461,0.0,0.009773844,120.0,-0.0513,0.0179,9.806399,0.0212,-0.0072,-0.009699999,0.002624,-7.7E-4,-0.998652,2017-08-22 21:32:54,29.649671104241094
-0.05746084,0.02873042,9.730036,0.0036651916,0.0,0.010995574,120.0,-0.0543,0.0187,9.806399,0.0052,-0.008599999,0.0098,0.002816,-8.12E-4,-0.998652,2017-08-22 21:32:55,25.39393701680105
-0.047884032,0.019153614,9.710882,0.004886922,0.0,0.010995574,120.0,-0.0482,0.0163,9.8064995,4.9999997E-4,0.0028,0.0196,0.002592,-7.15E-4,-0.998653,2017-08-22 21:32:56,25.342681069977733
-0.06703765,0.02873042,9.720459,0.0036651916,-0.0012217305,0.009773844,120.0,-0.0524,0.0158,9.806399,0.0206,-0.0053999997,0.0,0.002611,-6.48E-4,-0.998653,2017-08-22 21:32:57,24.92694925720812
-0.05746084,0.038307227,9.730036,0.0036651916,-0.0012217305,0.009773844,120.0,-0.051099997,0.0189,9.806399,0.0016,8.0E-4,0.0391,0.002647,-8.32E-4,-0.998653,2017-08-22 21:32:58,24.789698522042677
-0.047884032,0.02873042,9.710882,0.004886922,0.0,0.009773844,120.0,-0.0503,0.0157,9.8064995,0.0,-0.0061,-0.009699999,0.002558,-6.91E-4,-0.998654,2017-08-22 21:32:59,24.10294708805837
-0.047884032,0.02873042,9.720459,0.004886922,0.0012217305,0.009773844,120.0,-0.048,0.0164,9.8064995,0.0084,-0.0064999997,0.0,0.0025829999,-6.79E-4,-0.998654,2017-08-22 21:33:00,22.496759715181057
-0.05746084,0.02873042,9.730036,0.002443461,0.0,0.010995574,120.0,-0.051799998,0.0154,9.8064995,0.0021,0.0037999998,-1.0E-4,0.002689,-6.31E-4,-0.998654,2017-08-22 21:33:01,24.573424768272353
-0.05746084,0.019153614,9.720459,0.0036651916,0.0012217305,0.010995574,120.0,-0.0481,0.0177,9.8064995,0.0084,0.0019999999,0.0098,0.002549,-7.84E-4,-0.998654,2017-08-22 21:33:02,25.376282625515362
-0.05746084,0.019153614,9.720459,0.004886922,-0.0012217305,0.009773844,120.0,-0.0488,0.0196,9.8064995,-0.0022,1.0E-4,0.039,0.002457,-8.78E-4,-0.998655,2017-08-22 21:33:03,27.724065215814854
-0.05746084,0.02873042,9.710882,0.0036651916,0.0,0.009773844,120.0,-0.048,0.0189,9.8064995,-0.0011999999,7.0E-4,0.009699999,0.002537,-8.31E-4,-0.998655,2017-08-22 21:33:04,28.875285126361657
-0.05746084,0.02873042,9.720459,0.004886922,0.0,0.010995574,120.0,-0.0506,0.020299999,9.806399,0.0111,-4.9999997E-4,0.0,0.002634,-9.01E-4,-0.998655,2017-08-22 21:33:05,31.266036730187924
-0.06703765,0.02873042,9.730036,0.0036651916,-0.0012217305,0.009773844,120.0,-0.0512,0.018099999,9.806399,0.012,0.0095,0.0,0.002739,-8.35E-4,-0.998654,2017-08-22 21:33:06,24.955356654454505
-0.05746084,0.038307227,9.749189,0.004886922,0.0,0.009773844,120.0,-0.049399998,0.02,9.8064995,-0.0195,5.9999997E-4,-0.009699999,0.002613,-8.85E-4,-0.998655,2017-08-22 21:33:07,26.271993792803386
-0.05746084,0.038307227,9.720459,0.0036651916,0.0,0.009773844,120.0,-0.047799997,0.019399999,9.8064995,-0.0016,2.9999999E-4,0.0392,0.002479,-8.62E-4,-0.998655,2017-08-22 21:33:08,31.180553633889318
-0.06703765,0.02873042,9.749189,0.0036651916,0.0,0.010995574,120.0,-0.0459,0.0202,9.8064995,-0.0015,-0.0199,-0.009699999,0.0024919999,-9.02E-4,-0.998655,2017-08-22 21:33:09,33.232743430100776
-0.05746084,0.02873042,9.720459,0.004886922,0.0,0.010995574,120.0,-0.050699998,0.0184,9.8064995,0.0011,0.0013,-0.0099,0.002582,-8.12E-4,-0.998655,2017-08-22 21:33:10,37.66152954922228
-0.05746084,0.02873042,9.720459,0.0036651916,0.0012217305,0.009773844,120.0,-0.050699998,0.0187,9.8064995,-0.0168,9.0E-4,0.0098,0.002637,-8.16E-4,-0.998655,2017-08-22 21:33:11,37.2117934287412
-0.06703765,0.02873042,9.720459,0.0036651916,0.0,0.009773844,120.0,-0.0543,0.0188,9.806399,-0.0049,9.0E-4,-0.0196,0.002839,-8.19E-4,-0.998655,2017-08-22 21:33:12,23.3100950477914
-0.047884032,0.02873042,9.730036,0.0036651916,0.0012217305,0.009773844,120.0,-0.0492,0.0179,9.8064995,-0.0296,0.0025,0.029399998,0.0025529999,-7.48E-4,-0.998656,2017-08-22 21:33:13,23.589960708130597
-0.05746084,0.02873042,9.720459,0.0036651916,0.0,0.010995574,120.0,-0.0482,0.018,9.8064995,0.018199999,0.0115,0.0196,0.002507,-7.55E-4,-0.998657,2017-08-22 21:33:14,22.271955238796004
-0.05746084,0.019153614,9.720459,0.0036651916,-0.0012217305,0.008552114,120.0,-0.051799998,0.015999999,9.806399,0.011,0.0033,0.0195,0.002694,-7.11E-4,-0.998656,2017-08-22 21:33:15,22.684902149401196
-0.06703765,0.019153614,9.720459,0.0036651916,-0.0012217305,0.010995574,120.0,-0.0466,0.0185,9.8064995,0.0069,0.0011999999,0.0098,0.002438,-8.26E-4,-0.998657,2017-08-22 21:33:16,24.932314337638537
-0.05746084,0.038307227,9.730036,0.0036651916,0.0,0.009773844,120.0,-0.050699998,0.0191,9.806399,9.999999E-4,5.9999997E-4,0.0196,0.002631,-8.44E-4,-0.998657,2017-08-22 21:33:17,25.59551297417791
-0.047884032,0.038307227,9.720459,0.004886922,0.0,0.009773844,120.0,-0.0473,0.0191,9.8064995,0.0078,5.9999997E-4,0.009699999,0.002496,-7.95E-4,-0.998657,2017-08-22 21:33:18,28.29000062647882
-0.05746084,0.019153614,9.720459,0.0036651916,0.0012217305,0.009773844,120.0,-0.0497,0.0174,9.8064995,0.0101,0.0016,0.0,0.002581,-7.56E-4,-0.998657,2017-08-22 21:33:19,24.019549032324818
-0.05746084,0.02873042,9.710882,0.004886922,0.0012217305,0.010995574,120.0,-0.047,0.0178,9.8064995,-0.0289,8.0E-4,0.0,0.002456,-8.35E-4,-0.998657,2017-08-22 21:33:20,23.855224895753064
-0.05746084,0.019153614,9.710882,0.004886922,0.0,0.010995574,120.0,-0.0468,0.0195,9.8064995,0.0069,-5.9999997E-4,0.0,0.002446,-8.69E-4,-0.998657,2017-08-22 21:33:21,26.06720525207423
-0.047884032,0.02873042,9.720459,0.004886922,-0.0012217305,0.009773844,120.0,-0.048699997,0.019199999,9.8064995,-0.0014,-2.9999999E-4,-0.029299999,0.002481,-8.05E-4,-0.998658,2017-08-22 21:33:22,25.258118420102598
-0.038307227,0.02873042,9.730036,0.0036651916,0.0,0.009773844,120.0,-0.0481,0.0186,9.8064995,4.0E-4,0.0011999999,0.0,0.002498,-8.2E-4,-0.998658,2017-08-22 21:33:23,22.807383845484
-0.05746084,0.02873042,9.730036,0.0036651916,0.0,0.010995574,120.0,-0.0506,0.019299999,9.8064995,9.0E-4,2.9999999E-4,0.0,0.002624,-8.53E-4,-0.998658,2017-08-22 21:33:24,22.775375899150603
-0.06703765,0.02873042,9.720459,0.0036651916,0.0,0.009773844,120.0,-0.048699997,0.0175,9.8064995,-4.9999997E-4,0.0019999999,-0.0098,0.002533,-7.74E-4,-0.998658,2017-08-22 21:33:25,21.770176699456126
-0.047884032,0.02873042,9.720459,0.0036651916,-0.0012217305,0.010995574,120.0,-0.045599997,0.019199999,9.8064995,0.0058999998,4.9999997E-4,0.0098,0.00235,-9.05E-4,-0.998658,2017-08-22 21:33:26,26.871177139716185
-0.05746084,0.02873042,9.720459,0.0036651916,0.0,0.010995574,120.0,-0.0493,0.0187,9.8064995,-0.0117,9.0E-4,0.0098,0.002474,-8.34E-4,-0.998658,2017-08-22 21:33:27,27.3519580276608
-0.05746084,0.019153614,9.730036,0.0036651916,0.0,0.009773844,120.0,-0.049799997,0.019399999,9.8064995,0.0101,2.9999999E-4,0.0,0.00263,-8.57E-4,-0.998657,2017-08-22 21:33:28,27.095813093162494
-0.05746084,0.009576807,9.701305,0.0036651916,0.0,0.010995574,120.0,-0.0382,0.0069999998,9.8064995,-0.0016,0.0121,-0.0197,0.001993,-2.9E-4,-0.998334,2017-08-22 21:33:29,25.81464302844509
-0.047884032,0.02873042,9.720459,0.0036651916,-0.0012217305,0.009773844,120.0,-0.0574,0.0132,9.806399,-0.003,-0.0032,0.0,0.002912,-5.26E-4,-0.99849397,2017-08-22 21:33:30,25.11097579745147
-0.047884032,0.02873042,9.710882,0.0036651916,0.0,0.009773844,120.0,-0.0479,0.0131,9.8064995,-0.0029,-0.0030999999,0.009699999,0.002416,-5.46E-4,-0.998497,2017-08-22 21:33:31,24.22035539224987
-0.05746084,0.02873042,9.730036,0.004886922,0.0,0.010995574,120.0,-0.048,0.0168,9.8064995,-0.0019999999,0.012399999,-0.009699999,0.002458,-7.39E-4,-0.998501,2017-08-22 21:33:32,26.114677264367266
-0.05746084,0.02873042,9.720459,0.0036651916,0.0012217305,0.009773844,120.0,-0.0502,0.0168,9.8064995,8.0E-4,0.0030999999,0.009699999,0.002604,-7.18E-4,-0.998501,2017-08-22 21:33:33,23.43854599826915
-0.05746084,0.019153614,9.730036,0.0036651916,0.0,0.009773844,120.0,-0.0517,0.0188,9.806399,9.999999E-4,0.0,0.009699999,0.002634,-8.64E-4,-0.998501,2017-08-22 21:33:34,23.61051675169342
