ACC_X,ACC_Y,ACC_Z,LIGH_1,GRAV_X,GRAV_Y,GRAV_Z,LINACC_X,LINACC_Y,LINACC_Z,TIME,VOICE
8.916007,-4.0222588,2.0494366,0.0,9.479762,1.879608,-1.607201,-0.6946377,-5.529861,4.3448906,2017-06-04 22:44:12,42.91714215612258
4.9895163,-7.422025,-4.280833,0.0,9.275456,-3.13268,0.46309182,-3.1599207,-3.2552629,-3.9362803,2017-06-04 22:44:13,47.18903580763371
4.865018,-7.2113357,-4.855441,0.0,6.4560447,-6.701211,-3.050958,-1.7706451,-0.43585113,-2.2064962,2017-06-04 22:44:14,69.03309946646233
4.6351743,-7.326257,-4.7022123,0.0,4.7535014,-7.191543,-4.6445384,-0.10896278,-0.14982383,-0.08172209,2017-06-04 22:44:15,75.74521663208012
4.4436383,-7.383718,-4.76925,0.0,4.5491962,-7.3958488,-4.535576,-0.095342435,0.0,-0.24516624,2017-06-04 22:44:16,71.95580855386551
4.606444,-7.345411,-4.596867,0.0,4.4947147,-7.3277473,-4.69902,0.13620347,0.0,0.13620347,2017-06-04 22:44:17,76.05064927657597
4.5298295,-7.431602,-4.6830587,0.0,4.535576,-7.3413677,-4.630918,0.040861044,-0.027240695,-0.040861044,2017-06-04 22:44:18,75.67697805918718
4.462792,-7.422025,-4.6160207,0.0,4.5219555,-7.354988,-4.6172976,-0.08172209,-0.10896278,-0.068101734,2017-06-04 22:44:19,56.34965009096088
4.5298295,-7.393295,-4.673482,0.0,4.4810944,-7.3822284,-4.630918,-0.013620348,-0.05448139,0.027240695,2017-06-04 22:44:20,66.34430759712846
4.4340615,-7.469909,-4.6160207,0.0,4.440233,-7.409469,-4.6172976,0.013620348,-0.027240695,0.027240695,2017-06-04 22:44:21,68.94100392180104
4.3861775,-7.4986396,-4.654328,0.0,4.4129925,-7.4230895,-4.6036773,-0.027240695,-0.068101734,-0.040861044,2017-06-04 22:44:22,69.75167191442867
4.280833,-7.5848308,-4.6351743,0.0,4.372132,-7.4503303,-4.6036773,-0.013620348,-0.05448139,0.040861044,2017-06-04 22:44:23,73.13034511591916
4.3766007,-7.489063,-4.5872903,0.0,4.3448906,-7.477571,-4.590057,0.013620348,-0.027240695,-0.05448139,2017-06-04 22:44:24,76.97710183355125
4.2904096,-7.536947,-4.606444,0.0,4.33127,-7.477571,-4.6036773,-0.040861044,-0.027240695,-0.013620348,2017-06-04 22:44:25,71.52501158604957
4.280833,-7.5561004,-4.5777135,0.0,4.2904096,-7.504812,-4.6036773,-0.16344418,-0.12258312,0.013620348,2017-06-04 22:44:26,74.10941141705241
4.213795,-7.5561004,-4.6160207,0.0,4.235928,-7.5456724,-4.590057,-0.040861044,-0.05448139,-0.013620348,2017-06-04 22:44:27,75.74005651306548
4.146757,-7.603985,-4.6255975,0.0,4.1814466,-7.572913,-4.590057,-0.068101734,-0.05448139,-0.027240695,2017-06-04 22:44:28,74.35342963802032
4.1946416,-7.5944076,-4.6351743,0.0,4.113345,-7.600154,-4.590057,0.040861044,0.013620348,0.013620348,2017-06-04 22:44:29,74.00980102706419
4.1371803,-7.603985,-4.663905,0.0,4.113345,-7.600154,-4.6036773,-0.08172209,-0.12258312,0.08172209,2017-06-04 22:44:30,71.63678179009248
4.185065,-7.5848308,-4.6160207,0.0,4.140586,-7.600154,-4.590057,0.05448139,0.040861044,0.013620348,2017-06-04 22:44:32,76.70608392210497
4.1371803,-7.6231384,-4.596867,0.0,4.099725,-7.6137743,-4.6036773,-0.027240695,-0.027240695,-0.027240695,2017-06-04 22:44:33,72.57953943287352
4.0797195,-7.6710224,-4.5681367,0.0,4.099725,-7.6137743,-4.590057,0.0,-0.027240695,0.05448139,2017-06-04 22:44:34,78.01072772134204
4.223372,-7.5561004,-4.6255975,0.0,4.0861044,-7.6273947,-4.5764365,-0.040861044,-0.068101734,0.013620348,2017-06-04 22:44:35,77.07813932495917
4.012682,-7.7189064,-4.6160207,0.0,4.072484,-7.641015,-4.5764365,-0.068101734,-0.05448139,-0.05448139,2017-06-04 22:44:36,75.82161780248067
3.7732618,-7.9104424,-4.596867,0.0,4.0180025,-7.681876,-4.562816,-0.23154591,-0.2043052,0.027240695,2017-06-04 22:44:37,70.91692179350508
3.8881836,-7.795521,-4.510676,0.0,3.9226599,-7.736357,-4.562816,-0.05448139,-0.068101734,0.040861044,2017-06-04 22:44:38,72.03433860589557
3.916914,-7.776367,-4.5298295,0.0,3.8273177,-7.804459,-4.5219555,0.013620348,-0.040861044,-0.027240695,2017-06-04 22:44:39,71.60033095084421
3.9360676,-7.7667904,-4.501099,0.0,3.8545582,-7.7908387,-4.5219555,0.10896278,0.040861044,-0.027240695,2017-06-04 22:44:40,68.80715021427122
3.8115692,-7.8625584,-4.5394063,0.0,3.8954194,-7.763598,-4.5219555,-0.068101734,-0.095342435,-0.027240695,2017-06-04 22:44:41,69.61350881157925
4.0222588,-7.680599,-4.5394063,0.0,3.8954194,-7.7772183,-4.508335,0.095342435,0.05448139,-0.013620348,2017-06-04 22:44:42,76.6362825004
3.9264908,-7.7667904,-4.5202527,0.0,3.881799,-7.7772183,-4.508335,0.0,-0.013620348,-0.040861044,2017-06-04 22:44:43,74.51584514814722
3.916914,-7.833828,-4.596867,0.0,3.8545582,-7.7772183,-4.535576,0.068101734,-0.040861044,-0.10896278,2017-06-04 22:44:44,72.19310599721835
3.9360676,-7.795521,-4.6160207,0.0,3.8545582,-7.7772183,-4.535576,0.14982383,0.14982383,-0.08172209,2017-06-04 22:44:45,76.42799684288337
3.7253778,-7.9104424,-4.644751,0.0,3.8545582,-7.763598,-4.562816,-0.17706451,-0.17706451,0.17706451,2017-06-04 22:44:46,70.82964062329077
3.5913026,-8.169016,-4.596867,0.0,3.7319753,-7.8317,-4.535576,0.17706451,0.2043052,-0.013620348,2017-06-04 22:44:47,70.43304816298458
3.7445314,-7.8050976,-4.6830587,0.0,3.7864566,-7.7908387,-4.562816,-0.10896278,-0.14982383,0.027240695,2017-06-04 22:44:48,60.563091935180765
3.9935284,-7.6231384,-4.9416323,0.0,3.800077,-7.7772183,-4.590057,-0.027240695,-0.10896278,0.2043052,2017-06-04 22:44:49,71.55442141455188
3.7349546,-7.8625584,-4.7309427,0.0,3.8273177,-7.7499776,-4.6036773,-0.14982383,-0.16344418,0.12258312,2017-06-04 22:44:50,66.83218667915553
3.8307228,-7.795521,-4.6255975,0.0,3.840938,-7.736357,-4.6172976,0.05448139,0.040861044,-0.068101734,2017-06-04 22:44:51,69.85907471213741
3.7253778,-7.833828,-4.644751,0.0,3.8681786,-7.7091165,-4.6445384,-0.16344418,-0.16344418,-0.013620348,2017-06-04 22:44:52,75.33041808295647
3.7732618,-7.824251,-4.606444,0.0,3.800077,-7.7499776,-4.630918,0.040861044,-0.040861044,-0.013620348,2017-06-04 22:44:53,70.33499766705374
3.8307228,-7.7572136,-4.644751,0.0,3.759216,-7.7908387,-4.6036773,0.013620348,0.027240695,0.013620348,2017-06-04 22:44:54,75.77631964681716
3.7541082,-7.8146744,-4.606444,0.0,3.759216,-7.7908387,-4.590057,0.05448139,0.040861044,-0.027240695,2017-06-04 22:44:55,67.91172473333754
3.7732618,-7.747637,-4.7405195,0.0,3.7455957,-7.7908387,-4.6036773,-0.068101734,-0.05448139,-0.23154591,2017-06-04 22:44:56,69.74371746082141
3.8115692,-7.642292,-4.7884035,0.0,3.7319753,-7.763598,-4.671779,-0.040861044,0.013620348,-0.13620347,2017-06-04 22:44:57,75.46273301440648
3.763685,-7.6614456,-4.807557,0.0,3.718355,-7.722737,-4.739881,-0.013620348,0.0,-0.013620348,2017-06-04 22:44:58,73.63480708853918
3.7445314,-7.690176,-4.7500963,0.0,3.7047346,-7.7091165,-4.767122,-0.095342435,-0.08172209,-0.12258312,2017-06-04 22:44:59,71.0380215668084
3.7349546,-7.642292,-4.7884035,0.0,3.6911142,-7.7091165,-4.780742,-0.08172209,-0.040861044,-0.068101734,2017-06-04 22:45:00,68.296289958029
3.7541082,-7.73806,-4.817134,0.0,3.677494,-7.7091165,-4.807983,0.13620347,0.05448139,0.027240695,2017-06-04 22:45:01,58.4286888069039
3.7445314,-7.6710224,-4.855441,0.0,3.7319753,-7.695496,-4.780742,-0.027240695,-0.05448139,0.0,2017-06-04 22:45:02,72.82719178853806
3.7828386,-7.6231384,-4.817134,0.0,3.718355,-7.695496,-4.780742,-0.013620348,0.0,-0.040861044,2017-06-04 22:45:03,58.386495880996264
3.7541082,-7.6710224,-4.817134,0.0,3.7047346,-7.695496,-4.7943625,0.095342435,0.068101734,-0.05448139,2017-06-04 22:45:04,76.55056345967208
3.86903,-7.575254,-4.865018,0.0,3.7319753,-7.668256,-4.821603,0.05448139,0.027240695,-0.08172209,2017-06-04 22:45:05,72.42895742397407
3.7732618,-7.642292,-4.865018,0.0,3.7455957,-7.6546354,-4.835223,0.0,0.0,0.013620348,2017-06-04 22:45:06,65.92645194049679
3.620033,-7.776367,-4.9799395,0.0,3.7319753,-7.641015,-4.8488436,-0.027240695,-0.068101734,0.08172209,2017-06-04 22:45:07,47.00750377504121
3.7732618,-7.6231384,-4.903325,0.0,3.7319753,-7.641015,-4.8488436,0.10896278,0.040861044,-0.14982383,2017-06-04 22:45:08,53.41099269994578
3.763685,-7.728483,-4.8458643,0.0,3.7455957,-7.641015,-4.862464,0.040861044,0.027240695,0.0,2017-06-04 22:45:09,77.88817404841186
3.7349546,-7.699753,-4.817134,0.0,3.7455957,-7.641015,-4.862464,0.027240695,0.0,0.0,2017-06-04 22:45:10,77.21113927768803
3.8019924,-7.6135616,-4.8937483,0.0,3.759216,-7.6273947,-4.862464,0.05448139,0.013620348,-0.027240695,2017-06-04 22:45:11,78.16124273616816
3.7732618,-7.6614456,-4.8841715,0.0,3.759216,-7.6273947,-4.862464,0.027240695,0.0,0.05448139,2017-06-04 22:45:12,73.7978840050533
3.8115692,-7.603985,-4.855441,0.0,3.759216,-7.6273947,-4.862464,-0.10896278,-0.095342435,0.0,2017-06-04 22:45:13,76.85749515607898
3.7253778,-7.6710224,-4.8745947,0.0,3.759216,-7.641015,-4.862464,-0.013620348,-0.013620348,-0.013620348,2017-06-04 22:45:14,78.18301969285916
3.7924154,-7.632715,-4.865018,0.0,3.7319753,-7.641015,-4.8488436,0.08172209,0.027240695,-0.040861044,2017-06-04 22:45:15,79.23847261698427
3.8786068,-7.5561004,-4.807557,0.0,3.7319753,-7.641015,-4.8488436,0.13620347,0.095342435,0.0,2017-06-04 22:45:17,71.1442622510105
3.5913026,-7.824251,-4.8458643,0.0,3.7319753,-7.641015,-4.8488436,0.027240695,0.040861044,-0.068101734,2017-06-04 22:45:18,75.90765366703705
3.667917,-7.8050976,-4.6160207,0.0,3.7319753,-7.641015,-4.8488436,0.040861044,-0.05448139,0.013620348,2017-06-04 22:45:19,65.19692485223521
3.7732618,-7.6614456,-4.76925,0.0,3.7319753,-7.6546354,-4.8488436,0.040861044,-0.027240695,-0.08172209,2017-06-04 22:45:20,66.06931600384148
3.4859576,-7.9104424,-4.76925,0.0,3.718355,-7.6546354,-4.8488436,-0.17706451,-0.19068487,0.08172209,2017-06-04 22:45:21,72.88214995508648
3.7062242,-7.7093296,-4.7884035,0.0,3.7047346,-7.681876,-4.807983,0.013620348,0.013620348,0.0,2017-06-04 22:45:22,74.72593292772135
3.5817258,-7.7572136,-4.8362875,0.0,3.677494,-7.695496,-4.807983,-0.068101734,-0.05448139,-0.040861044,2017-06-04 22:45:23,57.625895767479264
2.5953147,-8.303091,-4.6830587,0.0,3.6230123,-7.736357,-4.7943625,-0.667397,-0.4086104,0.027240695,2017-06-04 22:45:24,73.97214712858221
0.94810385,-8.90643,-4.596867,0.0,2.4925234,-8.281172,-4.6036773,-1.484618,-0.50395286,0.16344418,2017-06-04 22:45:25,77.84586871231265
1.043872,-8.983045,-3.7541082,0.0,1.0215261,-8.866846,-4.0452433,0.32688835,-0.040861044,-0.99428535,2017-06-04 22:45:26,67.35812536469616
0.9768343,-9.069236,-3.763685,0.0,1.0760074,-8.975809,-3.7728362,-0.05448139,-0.040861044,-0.027240695,2017-06-04 22:45:27,71.29023796663719
0.8810662,-9.174581,-3.0933087,0.0,1.0487667,-8.975809,-3.7864566,0.013620348,0.013620348,0.040861044,2017-06-04 22:45:28,67.71195016525895
0.94810385,-9.155427,-3.4284968,0.0,0.96704465,-9.071152,-3.5821512,-0.068101734,-0.12258312,0.17706451,2017-06-04 22:45:29,69.17130279550665
0.8714894,-9.11712,-3.7062242,0.0,0.939804,-9.112013,-3.4595683,0.08172209,0.10896278,-0.13620347,2017-06-04 22:45:30,71.56019383312571
-0.095768064,-9.519346,-2.3463178,0.0,0.91256326,-9.057531,-3.609392,-1.0487667,-0.57205456,1.2530719,2017-06-04 22:45:31,54.52133353655618
0.92895025,-9.203311,-3.3327289,0.0,0.57205456,-9.289077,-3.0645783,0.38136974,0.08172209,-0.27240694,2017-06-04 22:45:32,72.98623663602253
1.0534488,-9.069236,-3.5242648,0.0,0.7627395,-9.261836,-3.1190596,0.24516624,0.14982383,-0.36774936,2017-06-04 22:45:33,71.47615003249763
0.78529817,-9.11712,-3.6296098,0.0,0.939804,-9.112013,-3.4595683,-0.2043052,-0.027240695,-0.068101734,2017-06-04 22:45:34,72.49666589013857
0.7182605,-9.088389,-3.667917,0.0,0.8036005,-9.0983925,-3.5549107,-0.027240695,0.013620348,-0.13620347,2017-06-04 22:45:35,71.67537530523308
0.7182605,-9.011775,-3.763685,0.0,0.7627395,-9.071152,-3.6230123,-0.08172209,0.040861044,-0.13620347,2017-06-04 22:45:36,76.6222060976485
0.61291564,-9.050082,-3.763685,0.0,0.6537767,-9.030291,-3.7319753,-0.05448139,0.0,-0.027240695,2017-06-04 22:45:37,71.74059671644369
0.641646,-9.002198,-3.8498764,0.0,0.6401563,-9.030291,-3.7455957,-0.027240695,-0.013620348,-0.08172209,2017-06-04 22:45:38,61.34281504965756
0.6991069,-8.916007,-3.9360676,0.0,0.6537767,-9.01667,-3.759216,0.013620348,0.08172209,-0.17706451,2017-06-04 22:45:39,56.703031462390996
0.6512229,-8.916007,-4.0318356,0.0,0.62653595,-8.975809,-3.8681786,-0.027240695,0.027240695,-0.13620347,2017-06-04 22:45:40,73.5450963718189
0.6512229,-8.896853,-4.098873,0.0,0.62653595,-8.934948,-3.963521,0.040861044,0.08172209,-0.14982383,2017-06-04 22:45:41,79.24632009508758
0.6895301,-8.820239,-4.2042184,0.0,0.6401563,-8.894087,-4.0588636,0.027240695,0.040861044,-0.027240695,2017-06-04 22:45:42,75.14526690734868
0.62249243,-8.858546,-4.146757,0.0,0.6401563,-8.880466,-4.099725,-0.013620348,0.0,-0.013620348,2017-06-04 22:45:43,74.78151981061109
0.62249243,-8.839393,-4.2521024,0.0,0.62653595,-8.853226,-4.154206,-0.013620348,0.05448139,-0.10896278,2017-06-04 22:45:44,55.66206907245643
0.7086837,-8.734048,-4.405331,0.0,0.62653595,-8.825985,-4.2086873,0.08172209,0.10896278,-0.21792556,2017-06-04 22:45:45,73.2071513813693
0.6895301,-8.734048,-4.4819455,0.0,0.6537767,-8.744264,-4.358511,0.13620347,0.068101734,-0.10896278,2017-06-04 22:45:46,78.82451642830061
0.7661445,-8.695741,-4.501099,0.0,0.6946377,-8.717022,-4.4129925,0.0,-0.068101734,0.0,2017-06-04 22:45:47,76.59919326969954
0.92895025,-8.628703,-4.5298295,0.0,0.7354987,-8.703402,-4.440233,0.05448139,-0.040861044,-0.095342435,2017-06-04 22:45:48,77.41287899030954
0.9576807,-8.647857,-4.55856,0.0,0.8036005,-8.66254,-4.4947147,0.12258312,0.0,-0.040861044,2017-06-04 22:45:49,76.46636439960966
0.9576807,-8.599973,-4.673482,0.0,0.87170225,-8.6353,-4.5491962,0.040861044,0.027240695,-0.12258312,2017-06-04 22:45:50,65.36850444508961
0.93852705,-8.63828,-4.6255975,0.0,0.91256326,-8.594439,-4.6036773,0.068101734,0.0,-0.040861044,2017-06-04 22:45:51,73.78182603227641
1.0247183,-8.590396,-4.654328,0.0,0.939804,-8.594439,-4.6036773,0.05448139,0.0,-0.027240695,2017-06-04 22:45:52,75.09382714339237
0.90979666,-8.6095495,-4.7022123,0.0,0.939804,-8.580819,-4.630918,0.027240695,-0.013620348,-0.05448139,2017-06-04 22:45:53,65.76495042698508
0.8523358,-8.647857,-4.6160207,0.0,0.92618364,-8.580819,-4.630918,-0.08172209,-0.05448139,0.0,2017-06-04 22:45:54,74.46211342124687
0.842759,-8.628703,-4.6926355,0.0,0.8989429,-8.580819,-4.6445384,0.095342435,0.040861044,-0.068101734,2017-06-04 22:45:55,68.49447453334544
0.8523358,-8.599973,-4.711789,0.0,0.8989429,-8.580819,-4.6445384,-0.040861044,0.0,-0.05448139,2017-06-04 22:45:56,65.67706368706139
1.1971009,-8.42759,-4.6926355,0.0,0.87170225,-8.580819,-4.6445384,0.095342435,0.013620348,0.013620348,2017-06-04 22:45:57,65.64985529256765
0.79487497,-8.6574335,-4.644751,0.0,0.8853226,-8.580819,-4.6445384,0.040861044,0.040861044,-0.068101734,2017-06-04 22:45:58,66.69169350866025
0.79487497,-8.781932,-3.9839516,0.0,0.83084124,-8.594439,-4.6172976,-0.35412902,-0.3949901,0.6537767,2017-06-04 22:45:59,70.07604574197912
0.6991069,-8.791509,-4.280833,0.0,0.74911916,-8.730643,-4.385752,-0.040861044,-0.040861044,0.095342435,2017-06-04 22:46:00,68.06138601540835
0.6703765,-8.791509,-4.223372,0.0,0.6810174,-8.798745,-4.263169,-0.013620348,0.040861044,0.0,2017-06-04 22:46:02,78.57283855835728
0.545878,-8.848969,-4.1946416,0.0,0.6401563,-8.798745,-4.2495484,-0.08172209,-0.05448139,-0.013620348,2017-06-04 22:46:03,69.6904039170617
0.61291564,-8.810662,-4.414908,0.0,0.61291564,-8.812365,-4.2495484,-0.068101734,-0.013620348,0.05448139,2017-06-04 22:46:04,60.84668771245138
0.7182605,-8.762778,-4.3478703,0.0,0.61291564,-8.798745,-4.2495484,0.0,0.027240695,-0.12258312,2017-06-04 22:46:05,74.94337998683264
0.6799533,-8.772355,-4.3287168,0.0,0.62653595,-8.785125,-4.2904096,0.08172209,0.027240695,-0.08172209,2017-06-04 22:46:06,74.52107409147665
0.842759,-8.695741,-4.4436383,0.0,0.6946377,-8.757884,-4.3448906,0.05448139,-0.013620348,-0.13620347,2017-06-04 22:46:07,78.88776022523845
0.7278373,-8.762778,-4.4340615,0.0,0.7354987,-8.717022,-4.3993726,-0.027240695,-0.027240695,0.013620348,2017-06-04 22:46:08,79.04813001739156
0.6895301,-8.791509,-4.3861775,0.0,0.74911916,-8.717022,-4.4129925,0.05448139,-0.013620348,-0.013620348,2017-06-04 22:46:09,76.29091780035532
0.7469909,-8.772355,-4.357447,0.0,0.7899802,-8.717022,-4.3993726,-0.17706451,-0.14982383,0.013620348,2017-06-04 22:46:10,45.5410288563849
0.6703765,-8.734048,-4.3287168,0.0,0.6810174,-8.757884,-4.33127,-0.095342435,-0.040861044,0.05448139,2017-06-04 22:46:11,67.03062460327381
0.40222588,-8.963891,-4.2042184,0.0,0.61291564,-8.785125,-4.3040295,-0.068101734,-0.05448139,0.027240695,2017-06-04 22:46:12,78.55573085612137
0.8619126,-8.724471,-4.3766007,0.0,0.62653595,-8.785125,-4.2904096,0.23154591,0.040861044,-0.13620347,2017-06-04 22:46:13,78.46340995156345
0.79487497,-8.724471,-4.223372,0.0,0.6810174,-8.771504,-4.31765,0.08172209,0.040861044,0.095342435,2017-06-04 22:46:14,71.40648506690032
0.63206923,-8.820239,-4.2425256,0.0,0.6946377,-8.785125,-4.276789,-0.040861044,-0.040861044,-0.013620348,2017-06-04 22:46:15,63.28601704576066
0.80445176,-8.7532015,-4.3766007,0.0,0.6946377,-8.785125,-4.263169,0.095342435,0.027240695,-0.068101734,2017-06-04 22:46:16,72.64971563737325
0.90021986,-8.7053175,-4.280833,0.0,0.70825803,-8.785125,-4.276789,0.040861044,0.027240695,-0.068101734,2017-06-04 22:46:17,77.44302939466309
0.6991069,-8.839393,-4.232949,0.0,0.7218784,-8.785125,-4.2904096,0.027240695,-0.027240695,-0.095342435,2017-06-04 22:46:18,72.14018086000684
0.8523358,-8.762778,-4.4244847,0.0,0.7899802,-8.757884,-4.33127,0.013620348,-0.068101734,0.040861044,2017-06-04 22:46:19,77.39197086422008
0.8523358,-8.7532015,-4.405331,0.0,0.7899802,-8.757884,-4.33127,0.040861044,0.027240695,-0.027240695,2017-06-04 22:46:20,72.67813308628152
0.8714894,-8.743625,-4.405331,0.0,0.8036005,-8.744264,-4.358511,0.08172209,0.0,-0.027240695,2017-06-04 22:46:21,76.17605272544662
0.89064306,-8.734048,-4.3766007,0.0,0.83084124,-8.730643,-4.372132,-0.040861044,-0.095342435,0.040861044,2017-06-04 22:46:22,77.86097247130184
0.8619126,-8.743625,-4.3861775,0.0,0.84446156,-8.730643,-4.372132,-0.13620347,-0.095342435,0.08172209,2017-06-04 22:46:23,44.98848392479604
0.8619126,-8.7532015,-4.453215,0.0,0.83084124,-8.730643,-4.358511,0.040861044,-0.013620348,0.027240695,2017-06-04 22:46:24,76.07270838109129
0.8810662,-8.781932,-4.357447,0.0,0.84446156,-8.730643,-4.358511,0.027240695,-0.027240695,-0.027240695,2017-06-04 22:46:25,77.77292420498134
0.81402856,-8.791509,-4.309563,0.0,0.83084124,-8.744264,-4.3448906,-0.068101734,-0.05448139,0.0,2017-06-04 22:46:26,77.5721739711573
0.92895025,-8.762778,-4.2999864,0.0,0.8172208,-8.744264,-4.3448906,0.14982383,0.08172209,-0.095342435,2017-06-04 22:46:27,75.49095261868123
0.9959879,-8.676587,-4.1276035,0.0,0.84446156,-8.730643,-4.3448906,0.095342435,0.013620348,-0.29964766,2017-06-04 22:46:28,75.49531045682991
0.7278373,-8.868123,-4.175488,0.0,0.84446156,-8.730643,-4.372132,-0.2043052,-0.08172209,-0.24516624,2017-06-04 22:46:29,71.09772165026746
0.8810662,-8.781932,-4.2521024,0.0,0.8172208,-8.730643,-4.358511,0.027240695,-0.095342435,0.027240695,2017-06-04 22:46:30,73.37291567568818
0.8714894,-8.820239,-4.223372,0.0,0.8172208,-8.771504,-4.276789,0.095342435,0.08172209,-0.12258312,2017-06-04 22:46:31,78.73031450288808
0.45010993,-8.992621,-3.8977604,0.0,0.8172208,-8.785125,-4.263169,-0.23154591,-0.095342435,0.42223078,2017-06-04 22:46:32,76.98315600427613
0.89064306,-8.734048,-4.2042184,0.0,0.8036005,-8.785125,-4.263169,0.13620347,0.040861044,-0.13620347,2017-06-04 22:46:33,72.38645295840234
0.81402856,-8.829816,-4.309563,0.0,0.8036005,-8.785125,-4.263169,0.14982383,0.027240695,0.32688835,2017-06-04 22:46:34,78.98487382251808
0.6991069,-8.858546,-4.280833,0.0,0.84446156,-8.771504,-4.2904096,0.05448139,0.05448139,0.013620348,2017-06-04 22:46:35,78.04472899188397
0.9576807,-8.762778,-4.3382936,0.0,0.84446156,-8.771504,-4.2904096,0.08172209,0.013620348,-0.10896278,2017-06-04 22:46:36,78.02194817549494
0.7565677,-8.801085,-4.213795,0.0,0.84446156,-8.757884,-4.3040295,-0.12258312,-0.08172209,0.095342435,2017-06-04 22:46:37,72.7078392225785
0.7086837,-8.781932,-4.1946416,0.0,0.7627395,-8.785125,-4.263169,-0.095342435,-0.040861044,-0.05448139,2017-06-04 22:46:38,78.23497719481152
0.6991069,-8.868123,-4.280833,0.0,0.70825803,-8.812365,-4.2223077,0.040861044,-0.040861044,0.068101734,2017-06-04 22:46:39,66.4537336732179
0.51714754,-8.954314,-4.098873,0.0,0.6946377,-8.825985,-4.195067,-0.068101734,-0.05448139,0.13620347,2017-06-04 22:46:40,70.21788154731836
0.78529817,-8.801085,-4.156334,0.0,0.70825803,-8.825985,-4.2086873,0.0,0.068101734,-0.12258312,2017-06-04 22:46:41,77.51982970828811
0.7278373,-8.801085,-4.3287168,0.0,0.6946377,-8.812365,-4.2223077,-0.08172209,-0.040861044,-0.040861044,2017-06-04 22:46:42,53.74510827815217
0.7469909,-8.772355,-4.309563,0.0,0.6946377,-8.812365,-4.235928,0.040861044,0.027240695,-0.068101734,2017-06-04 22:46:43,56.96433584925355
0.7086837,-8.801085,-4.2999864,0.0,0.6946377,-8.812365,-4.235928,0.0,0.0,-0.08172209,2017-06-04 22:46:44,54.1458656496036
0.7086837,-8.810662,-4.261679,0.0,0.667397,-8.798745,-4.2495484,0.068101734,-0.013620348,-0.068101734,2017-06-04 22:46:45,67.29807755901332
0.6799533,-8.820239,-4.280833,0.0,0.70825803,-8.798745,-4.2495484,0.0,-0.013620348,-0.068101734,2017-06-04 22:46:47,77.32127658620912
0.6512229,-8.848969,-4.280833,0.0,0.70825803,-8.798745,-4.263169,0.12258312,0.05448139,-0.08172209,2017-06-04 22:46:48,69.1745519746934
0.78529817,-8.781932,-4.357447,0.0,0.7218784,-8.771504,-4.3040295,0.040861044,-0.013620348,-0.040861044,2017-06-04 22:46:49,68.52500176786606
0.6895301,-8.810662,-4.309563,0.0,0.7218784,-8.771504,-4.3040295,-0.14982383,-0.12258312,0.040861044,2017-06-04 22:46:50,68.894781270817
0.81402856,-8.781932,-4.367024,0.0,0.7354987,-8.771504,-4.31765,0.05448139,-0.013620348,-0.05448139,2017-06-04 22:46:51,71.66991089536107
0.78529817,-8.791509,-4.367024,0.0,0.7354987,-8.771504,-4.31765,0.040861044,0.0,-0.040861044,2017-06-04 22:46:52,74.44758535940966
0.641646,-8.848969,-4.261679,0.0,0.7218784,-8.771504,-4.3040295,0.013620348,-0.027240695,-0.027240695,2017-06-04 22:46:53,78.58755868043393
0.7374141,-8.801085,-4.367024,0.0,0.7218784,-8.771504,-4.31765,-0.013620348,-0.013620348,0.027240695,2017-06-04 22:46:54,76.15989817536747
0.62249243,-8.848969,-4.357447,0.0,0.70825803,-8.771504,-4.31765,-0.013620348,-0.040861044,0.12258312,2017-06-04 22:46:55,63.536794257734414
0.78529817,-8.791509,-4.3478703,0.0,0.7354987,-8.757884,-4.31765,0.05448139,0.0,-0.040861044,2017-06-04 22:46:56,78.48416219566369
0.7469909,-8.7532015,-4.2904096,0.0,0.7354987,-8.757884,-4.33127,0.0,-0.027240695,0.040861044,2017-06-04 22:46:57,77.3882110653544
0.7278373,-8.772355,-4.3287168,0.0,0.70825803,-8.771504,-4.31765,0.05448139,0.0,-0.040861044,2017-06-04 22:46:58,74.5220944934498
0.78529817,-8.791509,-4.3382936,0.0,0.70825803,-8.771504,-4.31765,0.05448139,-0.027240695,-0.027240695,2017-06-04 22:46:59,44.917617652813476
0.7182605,-8.791509,-4.213795,0.0,0.7354987,-8.757884,-4.31765,-0.068101734,-0.05448139,0.0,2017-06-04 22:47:00,47.63984439430614
0.8523358,-8.772355,-4.453215,0.0,0.7218784,-8.771504,-4.31765,0.10896278,0.040861044,0.14982383,2017-06-04 22:47:01,66.75124653798439
0.8714894,-8.66701,-4.3766007,0.0,0.74911916,-8.771504,-4.31765,-0.05448139,-0.14982383,-0.013620348,2017-06-04 22:47:02,45.98581428294441
0.6703765,-8.791509,-4.3957543,0.0,0.8036005,-8.757884,-4.31765,-0.17706451,-0.068101734,-0.027240695,2017-06-04 22:47:03,73.23532851451444
0.78529817,-8.791509,-4.2999864,0.0,0.7627395,-8.757884,-4.33127,-0.05448139,-0.068101734,-0.095342435,2017-06-04 22:47:04,79.03589714679273
0.6607997,-8.858546,-4.2904096,0.0,0.6946377,-8.757884,-4.33127,-0.068101734,-0.095342435,0.027240695,2017-06-04 22:47:05,76.56195006401434
0.7661445,-8.801085,-4.3957543,0.0,0.7354987,-8.757884,-4.3448906,0.12258312,0.027240695,-0.068101734,2017-06-04 22:47:06,73.21591830017954
0.6799533,-8.801085,-4.261679,0.0,0.74911916,-8.757884,-4.33127,-0.013620348,-0.027240695,0.068101734,2017-06-04 22:47:07,71.1452104284553
0.59376204,-8.868123,-4.232949,0.0,0.6810174,-8.771504,-4.3040295,-0.10896278,-0.10896278,0.040861044,2017-06-04 22:47:08,71.80885804026799
0.7374141,-8.762778,-4.3382936,0.0,0.667397,-8.785125,-4.276789,0.040861044,0.013620348,-0.08172209,2017-06-04 22:47:09,78.80900031414374
0.6991069,-8.781932,-4.2904096,0.0,0.667397,-8.785125,-4.276789,0.027240695,-0.013620348,-0.013620348,2017-06-04 22:47:10,76.68951645427241
0.62249243,-8.848969,-4.271256,0.0,0.6537767,-8.785125,-4.276789,0.027240695,-0.013620348,-0.027240695,2017-06-04 22:47:11,50.31263014370741
0.6991069,-8.801085,-4.2999864,0.0,0.667397,-8.785125,-4.276789,0.040861044,-0.013620348,-0.05448139,2017-06-04 22:47:12,73.01971586044326
0.7469909,-8.7532015,-4.4436383,0.0,0.6810174,-8.785125,-4.276789,0.0,0.0,-0.08172209,2017-06-04 22:47:13,67.84380461138622
0.60333884,-8.868123,-4.213795,0.0,0.6537767,-8.798745,-4.276789,0.095342435,0.040861044,-0.040861044,2017-06-04 22:47:14,72.33642940936747
0.6607997,-8.848969,-4.232949,0.0,0.6537767,-8.798745,-4.2495484,0.040861044,-0.027240695,0.0,2017-06-04 22:47:15,76.20790708113107
0.62249243,-8.916007,-4.1276035,0.0,0.667397,-8.812365,-4.2223077,-0.013620348,-0.05448139,0.08172209,2017-06-04 22:47:16,58.22058221550879
1.0055647,-8.781932,-4.1276035,0.0,0.6810174,-8.839605,-4.1814466,0.19068487,-0.027240695,0.05448139,2017-06-04 22:47:17,73.32060081482238
1.532289,-8.6574335,-4.405331,0.0,0.91256326,-8.825985,-4.140586,0.58567494,0.10896278,-0.24516624,2017-06-04 22:47:18,78.97806448947725
1.3311762,-8.724471,-4.3478703,0.0,1.334794,-8.717022,-4.276789,0.0,-0.027240695,-0.10896278,2017-06-04 22:47:19,68.84304877181958
1.484405,-8.66701,-4.4244847,0.0,1.4165161,-8.676161,-4.33127,-0.013620348,-0.040861044,-0.027240695,2017-06-04 22:47:20,73.39586496354764
1.4939818,-8.66701,-4.4244847,0.0,1.3892754,-8.676161,-4.33127,0.08172209,0.027240695,0.0,2017-06-04 22:47:21,43.721251093925844
1.3982137,-8.714894,-4.367024,0.0,1.4028958,-8.66254,-4.3448906,0.040861044,-0.027240695,-0.095342435,2017-06-04 22:47:22,45.7775055449426
1.4939818,-8.66701,-4.414908,0.0,1.4028958,-8.66254,-4.358511,0.08172209,-0.013620348,-0.027240695,2017-06-04 22:47:23,73.15271075132637
3.5434184,-8.437167,-2.087744,0.0,1.525479,-8.608059,-4.426613,1.6889231,0.24516624,1.293933,2017-06-04 22:47:24,75.35164134862532
4.7788267,-7.872135,-3.3423057,0.0,2.8466525,-8.730643,-3.405087,1.6208212,0.62653595,0.31326798,2017-06-04 22:47:25,45.19253830701324
4.8362875,-7.776367,-3.3423057,0.0,4.358511,-8.267551,-2.9283745,0.42223078,0.42223078,-0.35412902,2017-06-04 22:47:26,72.59167489625774
4.7405195,-7.824251,-3.4859576,0.0,4.7943625,-7.85894,-3.3506055,-0.095342435,-0.040861044,-0.14982383,2017-06-04 22:47:27,75.41030464011574
4.721366,-7.881712,-3.4859576,0.0,4.7943625,-7.8317,-3.3914666,-0.05448139,-0.027240695,-0.068101734,2017-06-04 22:47:28,50.66747765425297
4.7788267,-7.785944,-3.4859576,0.0,4.7535014,-7.8180795,-3.486809,0.027240695,0.040861044,-0.013620348,2017-06-04 22:47:30,77.50806897843141
4.7979803,-7.747637,-3.4859576,0.0,4.780742,-7.804459,-3.486809,-0.027240695,-0.040861044,0.068101734,2017-06-04 22:47:31,78.47802448954077
4.855441,-7.690176,-3.4955344,0.0,4.7943625,-7.804459,-3.4731886,0.05448139,0.10896278,-0.027240695,2017-06-04 22:47:32,60.78854784437467
4.807557,-7.747637,-3.6966474,0.0,4.807983,-7.763598,-3.5549107,0.068101734,0.2043052,-0.13620347,2017-06-04 22:47:33,68.25860101515565
4.8362875,-7.52737,-3.8019924,0.0,4.835223,-7.7091165,-3.6366327,0.095342435,0.16344418,-0.12258312,2017-06-04 22:47:34,50.33404716986897
4.76925,-7.575254,-3.9935284,0.0,4.862464,-7.6273947,-3.7455957,-0.040861044,0.095342435,-0.25878662,2017-06-04 22:47:35,54.74726299194016
4.807557,-7.4028716,-4.4819455,0.0,4.821603,-7.532052,-3.9907618,-0.10896278,0.2043052,-0.46309182,2017-06-04 22:47:36,70.48850982566483
4.912902,-7.1059904,-4.510676,0.0,4.7943625,-7.3277473,-4.372132,-0.027240695,-0.027240695,-0.14982383,2017-06-04 22:47:37,73.44071199216876
4.865018,-7.2304893,-4.5777135,0.0,4.835223,-7.2460246,-4.4810944,0.14982383,0.21792556,-0.16344418,2017-06-04 22:47:38,73.73300295227219
4.8841715,-7.153875,-4.663905,0.0,4.8760843,-7.1779227,-4.5491962,-0.013620348,0.013620348,-0.068101734,2017-06-04 22:47:39,75.44485988151555
4.855441,-7.067683,-4.721366,0.0,4.8897047,-7.1234417,-4.630918,-0.027240695,-0.013620348,-0.10896278,2017-06-04 22:47:40,73.50586808951172
4.8267107,-7.0102224,-4.9416323,0.0,4.8897047,-7.0417194,-4.7262607,0.013620348,0.23154591,-0.21792556,2017-06-04 22:47:41,76.88800099766594
4.8458643,-6.8282633,-5.094861,0.0,4.903325,-6.864655,-4.971427,-0.08172209,0.013620348,-0.05448139,2017-06-04 22:47:42,43.95255306483705
4.912902,-6.703765,-5.1140146,0.0,4.8897047,-6.782933,-5.09401,-0.013620348,0.10896278,-0.13620347,2017-06-04 22:47:43,72.90834718442915
4.807557,-6.8282633,-5.161899,0.0,4.8897047,-6.742072,-5.1484914,-0.095342435,-0.095342435,0.027240695,2017-06-04 22:47:44,77.34525832249864
4.817134,-6.7708025,-5.2002063,0.0,4.8488436,-6.769313,-5.1621118,-0.013620348,0.0,-0.027240695,2017-06-04 22:47:45,77.60498230161387
4.7405195,-6.799533,-5.3247046,0.0,4.807983,-6.782933,-5.175732,-0.013620348,0.027240695,-0.14982383,2017-06-04 22:47:46,76.60511727839214
4.759673,-6.7133417,-5.363012,0.0,4.767122,-6.742072,-5.257454,0.013620348,0.05448139,-0.08172209,2017-06-04 22:47:47,72.4573507785568
4.711789,-6.8186865,-5.305551,0.0,4.7535014,-6.7284517,-5.298315,-0.027240695,-0.027240695,0.068101734,2017-06-04 22:47:48,79.03945316210323
4.6830587,-6.8282633,-5.305551,0.0,4.6853995,-6.769313,-5.298315,-0.068101734,-0.12258312,0.0,2017-06-04 22:47:49,74.66448704975531
4.711789,-6.7803793,-5.1235914,0.0,4.590057,-6.851035,-5.2846947,0.13620347,0.08172209,-0.027240695,2017-06-04 22:47:50,70.66599127486134
4.6160207,-6.9623384,-5.2959743,0.0,4.6445384,-6.8237944,-5.2846947,-0.027240695,-0.095342435,0.12258312,2017-06-04 22:47:51,73.09121163461167
4.5681367,-7.0006456,-5.2480903,0.0,4.671779,-6.810174,-5.2710743,-0.10896278,-0.24516624,0.027240695,2017-06-04 22:47:52,77.01392940048991
4.5202527,-7.0006456,-5.353435,0.0,4.6445384,-6.8237944,-5.2710743,0.013620348,-0.040861044,-0.05448139,2017-06-04 22:47:53,59.77056964742833
4.6351743,-6.8282633,-5.439626,0.0,4.6172976,-6.8237944,-5.3119354,0.0,-0.040861044,-0.040861044,2017-06-04 22:47:54,72.98926515991789
4.5298295,-6.895301,-5.401319,0.0,4.6036773,-6.7556925,-5.3800373,0.013620348,0.08172209,-0.08172209,2017-06-04 22:47:55,77.53861104809718
4.5394063,-6.981492,-5.2959743,0.0,4.5491962,-6.782933,-5.407278,-0.027240695,-0.16344418,0.17706451,2017-06-04 22:47:56,71.57002892260911
4.55856,-6.8665705,-5.4779334,0.0,4.508335,-6.8782754,-5.3119354,-0.05448139,-0.095342435,-0.095342435,2017-06-04 22:47:57,70.97144870290589
4.654328,-7.3549876,-4.5777135,0.0,4.4810944,-7.0825806,-5.0667696,0.17706451,-0.24516624,0.46309182,2017-06-04 22:47:58,73.24673023026199
4.912902,-7.642292,-4.5777135,0.0,4.630918,-7.232404,-4.7126403,0.27240694,-0.013620348,-0.36774936,2017-06-04 22:47:59,77.39698140621533
7.4603324,-5.7269306,-2.566584,0.0,4.9578066,-7.0825806,-4.6172976,2.6559677,1.375655,1.607201,2017-06-04 22:48:00,43.983768520040094
4.807557,-7.1730285,-5.0661306,0.0,5.6660643,-7.06896,-3.7047346,-0.98066497,-0.42223078,-0.32688835,2017-06-04 22:48:01,45.76201146649464
4.951209,-7.0964136,-4.76925,0.0,4.985047,-7.218784,-4.358511,-0.10896278,0.013620348,-0.23154591,2017-06-04 22:48:02,71.4615263572815
4.807557,-6.7229185,-5.315128,0.0,4.835223,-7.028099,-4.821603,0.013620348,0.29964766,-0.4086104,2017-06-04 22:48:03,76.8702720163451
4.7788267,-6.6750345,-5.257667,0.0,4.8488436,-6.7556925,-5.175732,-0.05448139,0.05448139,-0.095342435,2017-06-04 22:48:04,78.52265319084829
4.4819455,-6.7229185,-5.659893,0.0,4.69902,-6.6331096,-5.4617596,-0.42223078,-0.14982383,-0.38136974,2017-06-04 22:48:05,76.45970073065995
4.223372,-7.029376,-5.6886234,0.0,4.4947147,-6.687591,-5.570722,-0.21792556,-0.31326798,0.0,2017-06-04 22:48:06,71.37646173815165
4.4244847,-6.742072,-5.8322754,0.0,4.4538536,-6.701211,-5.5843425,-0.068101734,-0.05448139,-0.095342435,2017-06-04 22:48:07,74.92456844555451
4.3766007,-6.6367273,-5.889736,0.0,4.4538536,-6.6331096,-5.6796846,-0.095342435,-0.027240695,-0.2043052,2017-06-04 22:48:08,74.27436461517868
4.462792,-6.4547677,-6.0046577,0.0,4.372132,-6.551387,-5.815888,0.013620348,-0.013620348,-0.12258312,2017-06-04 22:48:09,74.31010252719817
4.146757,-6.742072,-5.985504,0.0,4.33127,-6.524146,-5.88399,0.027240695,0.05448139,-0.14982383,2017-06-04 22:48:10,80.07536318364953
4.4244847,-6.4068837,-6.033388,0.0,4.235928,-6.524146,-5.952092,0.0,0.0,-0.17706451,2017-06-04 22:48:11,78.34711701245422
4.309563,-6.4260373,-6.14831,0.0,4.276789,-6.4560447,-6.0065737,0.0,-0.05448139,0.027240695,2017-06-04 22:48:12,67.46829119384677
4.2904096,-6.4260373,-6.205771,0.0,4.2495484,-6.4424243,-6.033814,0.013620348,-0.05448139,-0.068101734,2017-06-04 22:48:13,66.8885173142375
4.1276035,-6.445191,-6.588843,0.0,4.2904096,-6.360702,-6.0882955,-0.17706451,-0.12258312,-0.32688835,2017-06-04 22:48:15,72.48622092343676
4.2521024,-6.339846,-6.196194,0.0,4.3040295,-6.3334613,-6.101916,0.027240695,-0.040861044,-0.36774936,2017-06-04 22:48:16,56.80442154352725
4.5202527,-6.0525417,-6.1100025,0.0,4.195067,-6.428804,-6.0882955,0.24516624,0.25878662,-0.027240695,2017-06-04 22:48:17,71.92684456704876
4.6351743,-5.813122,-6.3685765,0.0,4.113345,-6.428804,-6.142777,0.13620347,0.23154591,-0.4086104,2017-06-04 22:48:18,77.09597253576997
4.711789,-5.6407394,-6.397307,0.0,4.2086873,-6.238119,-6.26536,0.62653595,0.53119355,0.23154591,2017-06-04 22:48:19,74.01079434129105
4.462792,-5.9663506,-6.4739213,0.0,4.426613,-6.0065737,-6.3470817,0.095342435,0.10896278,-0.2043052,2017-06-04 22:48:20,78.09737406699098
4.4244847,-5.889736,-6.3781533,0.0,4.372132,-5.979333,-6.401563,-0.040861044,-0.040861044,0.013620348,2017-06-04 22:48:21,78.46687427881527
4.2425256,-6.253655,-6.2728086,0.0,4.263169,-6.0474343,-6.4151835,0.19068487,-0.040861044,0.14982383,2017-06-04 22:48:22,77.33781378434375
3.9360676,-6.531382,-6.3302693,0.0,4.0861044,-6.3198414,-6.26536,-0.16344418,-0.21792556,-0.08172209,2017-06-04 22:48:23,70.24866715948556
4.3766007,-6.3206925,-6.5122285,0.0,3.9226599,-6.4969053,-6.197258,0.21792556,0.0,-0.13620347,2017-06-04 22:48:24,69.15975731282157
5.046977,-7.201759,-4.6926355,0.0,4.3448906,-6.551387,-5.8295083,0.6537767,-0.29964766,1.1168685,2017-06-04 22:48:25,74.16720444017146
4.8937483,-6.9240313,-4.8841715,0.0,4.930566,-7.0417194,-4.6853995,-0.08172209,-0.068101734,-0.040861044,2017-06-04 22:48:26,78.94357357499162
4.960786,-6.9527617,-4.7500963,0.0,4.930566,-7.05534,-4.671779,0.013620348,0.10896278,-0.08172209,2017-06-04 22:48:27,71.2371756889464
5.2385135,-6.943185,-4.548983,0.0,4.985047,-7.000859,-4.69902,0.23154591,-0.040861044,0.31326798,2017-06-04 22:48:28,66.54482932771802
5.104438,-6.895301,-4.76925,0.0,5.0531487,-6.9599977,-4.6853995,0.027240695,-0.013620348,0.040861044,2017-06-04 22:48:29,74.4032002242743
5.2480903,-6.847417,-4.6830587,0.0,5.09401,-6.9191365,-4.69902,0.14982383,0.2043052,-0.16344418,2017-06-04 22:48:30,77.09798392320643
5.046977,-6.703765,-5.0182467,0.0,5.202973,-6.810174,-4.7535014,-0.095342435,0.095342435,-0.2043052,2017-06-04 22:48:31,76.23336747013695
5.046977,-6.703765,-5.046977,0.0,5.175732,-6.782933,-4.807983,-0.17706451,0.08172209,-0.23154591,2017-06-04 22:48:32,76.57086473917958
5.161899,-6.6271505,-5.0278234,0.0,5.08039,-6.769313,-4.930566,0.068101734,0.095342435,-0.068101734,2017-06-04 22:48:33,75.15119150419562
4.5298295,-7.2209125,-5.0374002,0.0,5.0667696,-6.7556925,-4.944186,-0.3949901,-0.24516624,-0.14982383,2017-06-04 22:48:34,48.14170196826027
4.855441,-6.6654577,-5.209783,0.0,4.767122,-6.8782754,-5.08039,0.027240695,0.12258312,-0.12258312,2017-06-04 22:48:35,70.00310287606091
4.8362875,-6.655881,-5.2863975,0.0,4.7535014,-6.864655,-5.1212506,0.12258312,0.3405087,-0.25878662,2017-06-04 22:48:36,75.48843627973672
4.759673,-6.8569937,-5.2002063,0.0,4.821603,-6.7556925,-5.1893525,-0.068101734,-0.095342435,0.05448139,2017-06-04 22:48:37,77.08089618748775
4.9416323,-6.6175733,-5.2385135,0.0,4.739881,-6.8237944,-5.1893525,0.17706451,0.10896278,0.12258312,2017-06-04 22:48:38,57.162817626719445
4.9320555,-6.5026517,-5.2863975,0.0,4.9169455,-6.687591,-5.202973,0.027240695,0.16344418,-0.095342435,2017-06-04 22:48:39,61.73453643359295
4.7979803,-6.7133417,-5.3247046,0.0,4.8897047,-6.687591,-5.2302136,-0.05448139,0.068101734,-0.13620347,2017-06-04 22:48:40,73.8847117433568
4.999093,-6.435614,-5.391742,0.0,4.821603,-6.7148314,-5.2438335,0.13620347,0.19068487,-0.040861044,2017-06-04 22:48:41,77.19359043582529
4.817134,-6.9719152,-4.8745947,0.0,4.862464,-6.6603503,-5.2846947,0.068101734,-0.027240695,0.14982383,2017-06-04 22:48:42,77.9676173741933
5.171476,-6.5984197,-5.0374002,0.0,4.903325,-6.6603503,-5.2438335,0.19068487,-0.040861044,0.3405087,2017-06-04 22:48:43,77.33505753744593
4.9224787,-6.83784,-4.951209,0.0,4.9578066,-6.769313,-5.0531487,0.027240695,-0.027240695,0.027240695,2017-06-04 22:48:44,53.482751412197345
5.00867,-6.8091097,-4.8745947,0.0,5.025908,-6.8237944,-4.903325,-0.040861044,0.013620348,0.0,2017-06-04 22:48:45,52.78008833411938
5.2002063,-6.540959,-5.0757074,0.0,4.985047,-6.851035,-4.9169455,0.068101734,0.068101734,0.013620348,2017-06-04 22:48:46,67.25796054124899
5.104438,-6.7133417,-5.085284,0.0,5.0122876,-6.8374147,-4.9169455,0.17706451,0.17706451,0.040861044,2017-06-04 22:48:47,74.28991010092491
5.2385135,-6.6654577,-4.912902,0.0,5.0395284,-6.7965536,-4.930566,0.21792556,0.24516624,-0.068101734,2017-06-04 22:48:48,73.14058755028742
4.903325,-6.847417,-5.046977,0.0,5.09401,-6.7284517,-4.9578066,-0.16344418,-0.068101734,-0.095342435,2017-06-04 22:48:49,77.28944463777901
5.142745,-6.694188,-4.951209,0.0,5.1076303,-6.7148314,-4.971427,0.0,-0.08172209,0.17706451,2017-06-04 22:48:50,69.69194848642454
5.0757074,-6.6654577,-5.0661306,0.0,5.1076303,-6.7148314,-4.971427,0.013620348,0.013620348,0.08172209,2017-06-04 22:48:51,66.82966787711074
4.865018,-6.7612257,-5.1235914,0.0,5.1076303,-6.7148314,-4.971427,-0.32688835,-0.068101734,-0.23154591,2017-06-04 22:48:52,74.7245232783396
5.056554,-6.6846113,-4.999093,0.0,4.862464,-6.864655,-5.0122876,0.17706451,0.095342435,0.13620347,2017-06-04 22:48:53,78.10119874685813
4.606444,-7.345411,-4.711789,0.0,4.985047,-6.769313,-5.0395284,-0.24516624,-0.35412902,0.068101734,2017-06-04 22:48:54,79.38273893391222
4.8841715,-6.7229185,-5.046977,0.0,4.807983,-6.905516,-5.0122876,0.095342435,0.2043052,-0.040861044,2017-06-04 22:48:55,77.42621041850236
4.673482,-7.1251445,-4.903325,0.0,4.7535014,-6.9599977,-4.9986672,0.027240695,0.17706451,-0.2043052,2017-06-04 22:48:56,71.9555072449085
4.501099,-7.2592196,-5.0278234,0.0,4.739881,-6.973618,-4.985047,-0.2043052,-0.23154591,-0.13620347,2017-06-04 22:48:57,66.29144226620117
4.951209,-6.751649,-5.0374002,0.0,4.69902,-7.0144787,-4.971427,0.29964766,0.16344418,0.14982383,2017-06-04 22:48:58,77.7518485256493
4.8267107,-6.8761473,-4.9799395,0.0,4.8488436,-6.905516,-4.971427,-0.068101734,-0.013620348,-0.068101734,2017-06-04 22:49:00,67.93598029764367
4.865018,-7.0006456,-4.7788267,0.0,4.8760843,-6.905516,-4.944186,0.05448139,0.21792556,-0.19068487,2017-06-04 22:49:01,74.38683122963498
4.8362875,-6.7324953,-5.2002063,0.0,4.8488436,-6.932757,-4.944186,-0.040861044,0.12258312,-0.10896278,2017-06-04 22:49:02,77.3984352896595
5.0182467,-6.7708025,-4.865018,0.0,4.821603,-6.891896,-5.0122876,0.28602728,0.36774936,-0.05448139,2017-06-04 22:49:03,59.78256030974224
4.6926355,-7.0485296,-5.0374002,0.0,4.903325,-6.810174,-5.0531487,-0.19068487,-0.14982383,-0.013620348,2017-06-04 22:49:04,76.07445765556089
4.673482,-6.8091097,-5.45878,0.0,4.807983,-6.864655,-5.0667696,-0.21792556,-0.25878662,-0.12258312,2017-06-04 22:49:05,74.89324166680858
4.5777135,-6.943185,-5.3821654,0.0,4.7262607,-6.891896,-5.1212506,-0.095342435,0.0,-0.25878662,2017-06-04 22:49:06,72.0439695468759
4.6926355,-6.655881,-5.48751,0.0,4.6853995,-6.8237944,-5.2438335,0.0,0.10896278,-0.05448139,2017-06-04 22:49:07,78.6586469530169
4.7309427,-6.540959,-5.583278,0.0,4.5764365,-6.8374147,-5.3119354,0.13620347,0.28602728,-0.38136974,2017-06-04 22:49:08,77.34178086705958
4.405331,-6.9719152,-5.48751,0.0,4.630918,-6.687591,-5.448139,-0.17706451,-0.28602728,0.08172209,2017-06-04 22:49:09,59.311710435820345
4.6351743,-6.5122285,-5.650316,0.0,4.4947147,-6.7284517,-5.529861,0.095342435,0.17706451,-0.2043052,2017-06-04 22:49:10,70.84598758961528
4.309563,-7.1155677,-5.315128,0.0,4.4947147,-6.6194887,-5.652444,0.0,-0.16344418,0.095342435,2017-06-04 22:49:11,74.98342029627955
4.4819455,-6.646304,-5.6886234,0.0,4.3993726,-6.701211,-5.6252036,0.05448139,0.027240695,-0.095342435,2017-06-04 22:49:12,73.29712830331658
4.156334,-6.9240313,-6.0046577,0.0,4.440233,-6.6194887,-5.693305,0.0,-0.013620348,-0.16344418,2017-06-04 22:49:13,69.10487558060996
4.711789,-6.215348,-6.0238113,0.0,4.4947147,-6.4969053,-5.7886477,0.19068487,0.3405087,-0.36774936,2017-06-04 22:49:14,69.90003565191026
4.7309427,-6.301539,-5.8801594,0.0,4.5764365,-6.360702,-5.88399,0.13620347,0.28602728,-0.24516624,2017-06-04 22:49:15,44.16961091957049
3.7828386,-7.240066,-5.7269306,0.0,4.5764365,-6.306221,-5.924851,-0.61291564,-0.62653595,-0.3949901,2017-06-04 22:49:16,43.924212833003466
4.510676,-7.4028716,-4.548983,0.0,4.167826,-6.7556925,-5.734166,0.28602728,-0.44947144,0.8036005,2017-06-04 22:49:17,72.31243388618165
4.7309427,-7.881712,-3.1028855,0.0,4.276789,-7.5456724,-4.562816,0.4086104,-0.23154591,1.3211737,2017-06-04 22:49:18,77.17819694967292
4.7022123,-7.97748,-3.1028855,0.0,4.562816,-8.049625,-3.214402,0.095342435,-0.05448139,0.28602728,2017-06-04 22:49:19,55.43168952622817
4.510676,-8.236053,-3.122039,0.0,4.5764365,-8.063246,-3.1871612,-0.027240695,-0.12258312,0.0,2017-06-04 22:49:20,73.8062861619618
4.3766007,-8.494628,-2.4899697,0.0,4.562816,-8.144968,-2.969236,-0.10896278,-0.16344418,0.27240694,2017-06-04 22:49:21,77.03813849569423
4.309563,-8.580819,-2.2505496,0.0,4.440233,-8.335652,-2.587866,-0.095342435,-0.19068487,0.24516624,2017-06-04 22:49:22,74.51575349006761
4.1659107,-8.63828,-2.3175871,0.0,4.31765,-8.471856,-2.3290794,-0.05448139,-0.05448139,-0.068101734,2017-06-04 22:49:23,72.31365503747719
4.271256,-8.599973,-2.1260512,0.0,4.2495484,-8.512717,-2.3290794,-0.08172209,-0.14982383,0.24516624,2017-06-04 22:49:24,65.07778356026512
4.185065,-8.590396,-2.327164,0.0,4.235928,-8.526338,-2.2882183,0.040861044,-0.027240695,0.027240695,2017-06-04 22:49:25,74.06941395290238
4.1659107,-8.599973,-2.432509,0.0,4.235928,-8.539958,-2.2745981,-0.040861044,-0.040861044,-0.13620347,2017-06-04 22:49:26,72.71171438917656
4.1946416,-8.552089,-2.4708161,0.0,4.195067,-8.512717,-2.4244218,0.013620348,0.05448139,-0.12258312,2017-06-04 22:49:27,44.09428617897386
4.10845,-8.6095495,-2.5378537,0.0,4.1814466,-8.499097,-2.4789033,-0.013620348,-0.05448139,-0.027240695,2017-06-04 22:49:28,73.02205097831538
4.2904096,-8.379706,-2.6623523,0.0,4.167826,-8.499097,-2.5333848,0.095342435,0.068101734,-0.095342435,2017-06-04 22:49:29,71.31599811552054
4.2042184,-8.494628,-2.5953147,0.0,4.2086873,-8.458236,-2.5606253,-0.013620348,-0.013620348,-0.040861044,2017-06-04 22:49:30,59.162171622625976
4.1180267,-8.475474,-2.767697,0.0,4.195067,-8.458236,-2.6151068,-0.068101734,-0.027240695,-0.10896278,2017-06-04 22:49:31,71.49844943710914
4.213795,-8.437167,-2.7485435,0.0,4.1269655,-8.458236,-2.6968286,0.10896278,0.013620348,0.013620348,2017-06-04 22:49:32,73.82003491018436
4.098873,-8.456321,-2.8921957,0.0,4.167826,-8.430995,-2.75131,-0.13620347,-0.13620347,0.0,2017-06-04 22:49:33,77.7382494568066
4.175488,-8.389283,-2.9496565,0.0,4.099725,-8.430995,-2.860273,0.095342435,0.05448139,-0.095342435,2017-06-04 22:49:34,55.12600773807893
4.0318356,-8.446744,-2.9113493,0.0,4.113345,-8.3765135,-2.9828563,-0.095342435,-0.08172209,-0.095342435,2017-06-04 22:49:35,78.73542433240783
4.0797195,-8.446744,-2.9783869,0.0,4.072484,-8.390134,-2.9828563,0.013620348,-0.040861044,0.05448139,2017-06-04 22:49:36,74.01564441341196
4.003105,-8.475474,-3.0933087,0.0,4.0452433,-8.403754,-2.9828563,-0.013620348,-0.013620348,-0.12258312,2017-06-04 22:49:37,56.327478951107125
3.9743748,-8.465898,-3.1507695,0.0,4.0452433,-8.403754,-3.010097,-0.068101734,-0.12258312,-0.027240695,2017-06-04 22:49:38,72.0420615687699
4.098873,-8.389283,-3.0550013,0.0,3.9907618,-8.403754,-3.0781987,0.10896278,0.05448139,-0.027240695,2017-06-04 22:49:39,71.01789139838449
3.9743748,-8.437167,-3.122039,0.0,4.0180025,-8.362893,-3.1463003,-0.013620348,0.027240695,-0.10896278,2017-06-04 22:49:40,77.98356791762447
4.012682,-8.418014,-3.1794999,0.0,3.9771414,-8.390134,-3.1054392,0.05448139,-0.08172209,0.08172209,2017-06-04 22:49:41,77.36514150660382
3.9935284,-8.274361,-3.2944214,0.0,4.004382,-8.362893,-3.1463003,-0.095342435,0.08172209,-0.3405087,2017-06-04 22:49:42,63.33345162669477
3.9743748,-8.485051,-3.1316159,0.0,3.9499006,-8.403754,-3.1190596,0.12258312,0.068101734,0.027240695,2017-06-04 22:49:43,64.06902257400836
3.9073372,-8.542512,-3.0550013,0.0,3.9771414,-8.390134,-3.1190596,-0.08172209,-0.17706451,0.08172209,2017-06-04 22:49:45,73.46774523687915
3.9839516,-8.437167,-3.169923,0.0,3.9090397,-8.417375,-3.13268,0.08172209,-0.013620348,0.040861044,2017-06-04 22:49:46,77.90599359962428
3.9264908,-8.446744,-3.1794999,0.0,3.9499006,-8.403754,-3.13268,0.0,-0.013620348,-0.027240695,2017-06-04 22:49:47,65.26800439646172
3.916914,-8.39886,-3.3327289,0.0,3.9499006,-8.390134,-3.1599207,-0.027240695,-0.040861044,-0.068101734,2017-06-04 22:49:48,71.57344756969579
4.012682,-8.360553,-3.2465374,0.0,3.9226599,-8.390134,-3.2007816,0.10896278,0.08172209,-0.08172209,2017-06-04 22:49:49,77.86898469520193
3.8498764,-8.465898,-3.2465374,0.0,3.9499006,-8.362893,-3.2416425,-0.13620347,-0.35412902,0.3405087,2017-06-04 22:49:50,76.12445928252662
3.9360676,-8.42759,-3.2561142,0.0,3.881799,-8.403754,-3.2280223,0.068101734,0.0,-0.027240695,2017-06-04 22:49:51,71.00738490833203
3.9743748,-8.379706,-3.3039982,0.0,3.8954194,-8.3765135,-3.2552629,0.040861044,-0.05448139,0.0,2017-06-04 22:49:52,75.86769052226549
3.8498764,-8.437167,-3.2752678,0.0,3.9090397,-8.362893,-3.2688832,-0.040861044,-0.040861044,-0.05448139,2017-06-04 22:49:53,78.38011709502811
3.9073372,-8.465898,-3.1794999,0.0,3.8273177,-8.403754,-3.2552629,0.08172209,0.0,-0.05448139,2017-06-04 22:49:54,77.78856168821241
3.7732618,-8.446744,-3.3039982,0.0,3.8545582,-8.403754,-3.2552629,-0.040861044,-0.05448139,-0.095342435,2017-06-04 22:49:55,74.04411548642781
3.763685,-8.571242,-3.1507695,0.0,3.8136973,-8.417375,-3.2552629,-0.040861044,-0.08172209,0.027240695,2017-06-04 22:49:56,77.53539016389223
3.821146,-8.39886,-3.3327289,0.0,3.7728362,-8.444615,-3.2280223,0.068101734,0.10896278,-0.19068487,2017-06-04 22:49:57,75.16729992992302
3.8498764,-8.255207,-3.3997664,0.0,3.7319753,-8.471856,-3.214402,0.0,0.068101734,-0.27240694,2017-06-04 22:49:58,74.75997041028701
3.7732618,-8.475474,-3.2944214,0.0,3.7319753,-8.458236,-3.2416425,0.08172209,0.0,-0.013620348,2017-06-04 22:49:59,65.46231706985827
3.8402996,-8.446744,-3.2273839,0.0,3.7864566,-8.444615,-3.2280223,-0.027240695,-0.12258312,0.027240695,2017-06-04 22:50:00,73.94424136866496
3.8402996,-8.437167,-3.2944214,0.0,3.7864566,-8.444615,-3.214402,0.027240695,-0.05448139,-0.013620348,2017-06-04 22:50:01,78.20435250461153
3.8786068,-8.494628,-3.2082303,0.0,3.800077,-8.444615,-3.2007816,0.040861044,-0.027240695,0.0,2017-06-04 22:50:02,78.94928101199517
4.003105,-8.494628,-2.9400797,0.0,3.8136973,-8.444615,-3.1735408,0.14982383,0.05448139,0.040861044,2017-06-04 22:50:03,74.62159320079449
3.8881836,-8.437167,-3.2082303,0.0,3.881799,-8.403754,-3.2007816,0.040861044,0.10896278,-0.29964766,2017-06-04 22:50:04,78.92815460798006
3.620033,-8.63828,-3.2465374,0.0,3.8545582,-8.417375,-3.2007816,-0.14982383,-0.040861044,-0.24516624,2017-06-04 22:50:05,64.00400003157361
3.8881836,-8.312668,-3.5051112,0.0,3.7319753,-8.458236,-3.214402,0.068101734,-0.068101734,-0.08172209,2017-06-04 22:50:06,76.52302302670827
3.7924154,-8.552089,-3.1603463,0.0,3.8273177,-8.403754,-3.2688832,-0.05448139,-0.13620347,0.040861044,2017-06-04 22:50:07,76.26154108921925
3.763685,-8.465898,-3.4093432,0.0,3.8136973,-8.403754,-3.2825036,-0.040861044,-0.095342435,-0.013620348,2017-06-04 22:50:08,76.93458421219229
3.9073372,-8.236053,-3.6008794,0.0,3.7728362,-8.417375,-3.296124,0.12258312,0.23154591,-0.3405087,2017-06-04 22:50:09,73.00376339045538
3.7445314,-8.39886,-3.4859576,0.0,3.7864566,-8.349273,-3.4323275,-0.040861044,-0.040861044,-0.08172209,2017-06-04 22:50:10,76.45083918379774
3.7541082,-8.37013,-3.5817258,0.0,3.7455957,-8.362893,-3.486809,0.013620348,-0.027240695,-0.10896278,2017-06-04 22:50:11,77.62916256076844
3.7062242,-8.379706,-3.5625722,0.0,3.718355,-8.349273,-3.52767,0.040861044,0.027240695,-0.095342435,2017-06-04 22:50:12,73.47155873397308
3.3614593,-8.734048,-3.083732,0.0,3.6366327,-8.403754,-3.5004294,-0.25878662,-0.31326798,0.38136974,2017-06-04 22:50:13,74.55840649120873
3.4380736,-8.676587,-3.2944214,0.0,3.5004294,-8.553578,-3.2416425,0.013620348,-0.13620347,0.16344418,2017-06-04 22:50:14,72.99690082368112
3.5051112,-8.6095495,-3.2465374,0.0,3.4731886,-8.580819,-3.1871612,0.040861044,-0.040861044,-0.027240695,2017-06-04 22:50:15,78.3866375065225
3.514688,-8.599973,-3.265691,0.0,3.4731886,-8.553578,-3.2552629,0.0,-0.08172209,-0.05448139,2017-06-04 22:50:16,69.8194378872064
3.514688,-8.6095495,-3.265691,0.0,3.4731886,-8.567199,-3.2416425,0.05448139,-0.027240695,0.027240695,2017-06-04 22:50:17,77.68644700085264
3.5242648,-8.619126,-3.2273839,0.0,3.4595683,-8.567199,-3.2416425,0.027240695,-0.027240695,-0.05448139,2017-06-04 22:50:18,74.40395227276301
3.4859576,-8.619126,-3.2752678,0.0,3.486809,-8.567199,-3.2280223,0.0,-0.040861044,-0.027240695,2017-06-04 22:50:19,77.98554637402533
3.4955344,-8.6095495,-3.2561142,0.0,3.486809,-8.567199,-3.214402,0.013620348,-0.05448139,0.013620348,2017-06-04 22:50:20,64.46975547884739
3.5338416,-8.6095495,-3.1890767,0.0,3.486809,-8.580819,-3.214402,0.013620348,-0.040861044,0.0,2017-06-04 22:50:21,77.76230940437885
3.4859576,-8.6095495,-3.2752678,0.0,3.486809,-8.567199,-3.214402,-0.027240695,-0.068101734,-0.068101734,2017-06-04 22:50:22,46.150103207857455
3.5051112,-8.580819,-3.323152,0.0,3.4595683,-8.553578,-3.2688832,0.013620348,-0.068101734,-0.013620348,2017-06-04 22:50:23,44.36148751980141
3.466804,-8.619126,-3.323152,0.0,3.445948,-8.539958,-3.3369853,0.013620348,-0.027240695,-0.068101734,2017-06-04 22:50:24,73.1638733603048
3.5434184,-8.494628,-3.4476504,0.0,3.445948,-8.553578,-3.3097444,0.08172209,0.040861044,-0.14982383,2017-06-04 22:50:25,77.15176151568943
3.41892,-8.647857,-3.323152,0.0,3.4731886,-8.539958,-3.323365,-0.040861044,-0.12258312,0.10896278,2017-06-04 22:50:26,76.90220975980074
3.4093432,-8.676587,-3.2465374,0.0,3.4595683,-8.567199,-3.2688832,-0.040861044,-0.05448139,-0.095342435,2017-06-04 22:50:28,73.09458888773393
3.3997664,-8.628703,-3.3518825,0.0,3.4187074,-8.580819,-3.2688832,0.0,-0.08172209,0.0,2017-06-04 22:50:29,64.2037905484348
3.4572272,-8.647857,-3.265691,0.0,3.405087,-8.580819,-3.2688832,0.040861044,-0.05448139,-0.027240695,2017-06-04 22:50:30,63.408848373070974
3.466804,-8.628703,-3.3135753,0.0,3.4323275,-8.567199,-3.2688832,0.068101734,-0.013620348,-0.013620348,2017-06-04 22:50:31,73.97546034890644
3.3901896,-8.580819,-3.4380736,0.0,3.4323275,-8.567199,-3.2825036,-0.05448139,-0.040861044,-0.14982383,2017-06-04 22:50:32,77.32458877373332
3.4955344,-8.580819,-3.3327289,0.0,3.3914666,-8.580819,-3.2825036,0.13620347,0.040861044,-0.040861044,2017-06-04 22:50:33,73.92440754486087
3.4476504,-8.63828,-3.265691,0.0,3.4323275,-8.567199,-3.2825036,0.05448139,0.013620348,-0.068101734,2017-06-04 22:50:34,72.3858409664181
3.4572272,-8.63828,-3.2752678,0.0,3.4323275,-8.567199,-3.2825036,0.027240695,-0.027240695,-0.040861044,2017-06-04 22:50:35,73.96719787329782
3.4476504,-8.6095495,-3.3327289,0.0,3.4323275,-8.567199,-3.2688832,0.0,-0.05448139,-0.040861044,2017-06-04 22:50:36,77.1582149291943
3.4284968,-8.63828,-3.2944214,0.0,3.4323275,-8.567199,-3.2688832,0.013620348,-0.040861044,0.013620348,2017-06-04 22:50:37,50.82115095429888
3.4476504,-8.628703,-3.3135753,0.0,3.4187074,-8.580819,-3.2825036,0.027240695,-0.027240695,-0.05448139,2017-06-04 22:50:38,47.83229135995764
3.4476504,-8.619126,-3.3423057,0.0,3.4323275,-8.567199,-3.2688832,0.027240695,-0.068101734,-0.027240695,2017-06-04 22:50:39,58.33363174069379
3.4284968,-8.628703,-3.2848446,0.0,3.4323275,-8.567199,-3.2688832,0.0,-0.05448139,-0.027240695,2017-06-04 22:50:40,69.42605603050649
3.4284968,-8.619126,-3.3039982,0.0,3.405087,-8.580819,-3.2825036,0.013620348,-0.068101734,-0.013620348,2017-06-04 22:50:41,76.27866492873346
3.4572272,-8.619126,-3.2848446,0.0,3.405087,-8.580819,-3.2825036,0.040861044,-0.040861044,0.013620348,2017-06-04 22:50:42,62.1286418600452
3.4093432,-8.647857,-3.323152,0.0,3.405087,-8.580819,-3.2688832,0.013620348,-0.05448139,-0.05448139,2017-06-04 22:50:43,76.32873144101538
3.3997664,-8.628703,-3.3327289,0.0,3.405087,-8.580819,-3.2825036,-0.013620348,-0.05448139,-0.027240695,2017-06-04 22:50:44,63.73855274775866
3.4093432,-8.647857,-3.2944214,0.0,3.3778462,-8.580819,-3.2825036,0.040861044,-0.027240695,-0.095342435,2017-06-04 22:50:45,76.10287399251474
3.41892,-8.628703,-3.3423057,0.0,3.3778462,-8.580819,-3.296124,0.027240695,-0.05448139,-0.027240695,2017-06-04 22:50:46,45.86355293171173
3.371036,-8.647857,-3.3423057,0.0,3.3506055,-8.594439,-3.296124,0.040861044,-0.027240695,0.0,2017-06-04 22:50:47,73.76272577950301
3.3614593,-8.63828,-3.3423057,0.0,3.3642259,-8.594439,-3.296124,-0.013620348,-0.027240695,-0.05448139,2017-06-04 22:50:48,78.5217347490661
3.3901896,-8.628703,-3.3327289,0.0,3.3506055,-8.594439,-3.3097444,0.040861044,-0.05448139,0.013620348,2017-06-04 22:50:49,75.24872024282524
3.371036,-8.6574335,-3.3039982,0.0,3.3506055,-8.594439,-3.296124,0.0,-0.05448139,0.027240695,2017-06-04 22:50:50,69.86892672986107
3.3806129,-8.647857,-3.3039982,0.0,3.3506055,-8.594439,-3.2825036,0.0,-0.040861044,-0.068101734,2017-06-04 22:50:51,76.24368575381708
3.3423057,-8.695741,-3.323152,0.0,3.3369853,-8.594439,-3.296124,0.040861044,-0.08172209,0.0,2017-06-04 22:50:52,63.88318265681214
3.3614593,-8.647857,-3.371036,0.0,3.3369853,-8.594439,-3.296124,-0.027240695,-0.12258312,0.027240695,2017-06-04 22:50:53,76.78218428986271
3.4093432,-8.63828,-3.3806129,0.0,3.3369853,-8.608059,-3.2825036,0.0,-0.14982383,0.013620348,2017-06-04 22:50:54,71.775877018631
3.6104562,-8.561666,-3.2273839,0.0,3.4323275,-8.580819,-3.2416425,0.14982383,0.013620348,-0.05448139,2017-06-04 22:50:55,78.05017580223164
3.4763808,-8.628703,-3.2848446,0.0,3.52767,-8.539958,-3.2416425,-0.095342435,-0.12258312,0.0,2017-06-04 22:50:56,61.455414852011366
3.6774938,-8.264784,-3.620033,0.0,3.4595683,-8.580819,-3.2280223,0.0,-0.13620347,0.040861044,2017-06-04 22:50:57,77.1542843455873
3.5817258,-8.552089,-3.4380736,0.0,3.5412903,-8.539958,-3.2416425,0.013620348,0.027240695,-0.24516624,2017-06-04 22:50:58,78.08842160095098
3.5625722,-8.628703,-3.217807,0.0,3.6230123,-8.4854765,-3.2825036,-0.068101734,-0.08172209,-0.068101734,2017-06-04 22:50:59,78.01487505148648
3.5817258,-8.619126,-3.1890767,0.0,3.568531,-8.512717,-3.2825036,0.040861044,-0.08172209,0.08172209,2017-06-04 22:51:00,70.07972286110612
3.5242648,-8.552089,-3.3327289,0.0,3.5549107,-8.526338,-3.2825036,-0.068101734,-0.05448139,-0.08172209,2017-06-04 22:51:01,50.69712480122308
3.5625722,-8.532935,-3.3997664,0.0,3.4731886,-8.553578,-3.2825036,0.16344418,0.068101734,-0.013620348,2017-06-04 22:51:02,71.53479129641079
3.7732618,-8.42759,-3.3039982,0.0,3.5549107,-8.526338,-3.2825036,0.21792556,0.10896278,-0.040861044,2017-06-04 22:51:03,78.7337342862571
3.6296098,-8.360553,-3.4763808,0.0,3.5821512,-8.526338,-3.2280223,-0.013620348,0.21792556,-0.44947144,2017-06-04 22:51:04,77.41786178975379
3.6583402,-8.523358,-3.169923,0.0,3.5549107,-8.539958,-3.2280223,0.2043052,0.068101734,-0.013620348,2017-06-04 22:51:05,79.14986027278324
3.466804,-8.6095495,-3.371036,0.0,3.5957716,-8.499097,-3.2688832,-0.040861044,-0.08172209,0.0,2017-06-04 22:51:06,78.69241594545385
3.4859576,-8.7053175,-3.064578,0.0,3.4731886,-8.567199,-3.2552629,-0.068101734,-0.13620347,0.013620348,2017-06-04 22:51:07,76.89555499827976
3.3135753,-8.676587,-3.3806129,0.0,3.4323275,-8.580819,-3.2416425,-0.08172209,-0.08172209,-0.14982383,2017-06-04 22:51:08,75.62735769999642
3.3423057,-8.7053175,-3.2082303,0.0,3.3506055,-8.608059,-3.2416425,0.0,-0.040861044,-0.013620348,2017-06-04 22:51:09,75.5497253181492
3.3901896,-8.599973,-3.3614593,0.0,3.323365,-8.621679,-3.2416425,0.08172209,0.013620348,-0.12258312,2017-06-04 22:51:10,78.13076105520864
3.3135753,-8.791509,-3.1794999,0.0,3.3778462,-8.608059,-3.2416425,0.05448139,0.013620348,-0.027240695,2017-06-04 22:51:11,73.99837504179979
3.6391866,-8.494628,-3.3518825,0.0,3.4323275,-8.580819,-3.2416425,0.2043052,0.068101734,-0.040861044,2017-06-04 22:51:13,68.18636936163477
3.4763808,-8.6095495,-3.2465374,0.0,3.5140495,-8.526338,-3.296124,-0.095342435,-0.08172209,-0.095342435,2017-06-04 22:51:14,78.05188586118769
3.4859576,-8.628703,-3.2944214,0.0,3.4323275,-8.567199,-3.2688832,0.08172209,-0.027240695,0.027240695,2017-06-04 22:51:15,64.26660657823396
3.3806129,-8.66701,-3.2369606,0.0,3.4731886,-8.553578,-3.2688832,-0.08172209,-0.10896278,0.0,2017-06-04 22:51:16,74.69173291201683
3.4476504,-8.647857,-3.2465374,0.0,3.405087,-8.580819,-3.2688832,0.027240695,-0.05448139,-0.013620348,2017-06-04 22:51:17,78.73560880739285
3.4955344,-8.599973,-3.2561142,0.0,3.4187074,-8.580819,-3.2552629,0.08172209,0.040861044,-0.12258312,2017-06-04 22:51:18,74.80157313586324
3.323152,-8.686164,-3.3135753,0.0,3.4323275,-8.580819,-3.2688832,-0.08172209,-0.10896278,0.013620348,2017-06-04 22:51:19,47.17272555454172
3.4284968,-8.6574335,-3.265691,0.0,3.3506055,-8.608059,-3.2552629,0.068101734,-0.05448139,0.0,2017-06-04 22:51:20,43.4063862999545
3.371036,-8.686164,-3.265691,0.0,3.3914666,-8.580819,-3.2825036,-0.040861044,-0.10896278,0.040861044,2017-06-04 22:51:21,71.85511865617971
3.4284968,-8.66701,-3.2273839,0.0,3.3642259,-8.594439,-3.2688832,0.05448139,-0.040861044,-0.027240695,2017-06-04 22:51:22,77.90032193880589
3.5434184,-8.63828,-3.122039,0.0,3.4731886,-8.580819,-3.2007816,0.05448139,-0.10896278,0.16344418,2017-06-04 22:51:23,78.27945520418375
3.4284968,-8.6574335,-3.2369606,0.0,3.52767,-8.580819,-3.1190596,-0.068101734,-0.068101734,-0.068101734,2017-06-04 22:51:24,78.3047362938196
3.4955344,-8.619126,-3.169923,0.0,3.4731886,-8.608059,-3.1190596,0.027240695,-0.013620348,0.0,2017-06-04 22:51:25,68.48174760106613
3.572149,-8.599973,-3.1890767,0.0,3.4595683,-8.608059,-3.1463003,0.095342435,0.0,-0.013620348,2017-06-04 22:51:26,73.04830643335411
3.4955344,-8.628703,-3.217807,0.0,3.52767,-8.580819,-3.1463003,0.013620348,-0.040861044,0.040861044,2017-06-04 22:51:27,78.12442508629087
3.5338416,-8.619126,-3.1028855,0.0,3.5140495,-8.580819,-3.1463003,-0.068101734,-0.08172209,-0.05448139,2017-06-04 22:51:28,69.85167968648483
3.5625722,-8.571242,-3.2752678,0.0,3.4595683,-8.608059,-3.1463003,0.095342435,0.013620348,-0.05448139,2017-06-04 22:51:29,74.85022994456723
3.6391866,-8.590396,-3.0262709,0.0,3.52767,-8.580819,-3.1599207,0.040861044,0.027240695,-0.12258312,2017-06-04 22:51:30,43.787934012405046
3.5529952,-8.571242,-3.2752678,0.0,3.568531,-8.567199,-3.1599207,-0.027240695,-0.05448139,-0.040861044,2017-06-04 22:51:31,73.0116224160792
3.514688,-8.63828,-3.2273839,0.0,3.5412903,-8.567199,-3.1463003,0.040861044,0.0,-0.027240695,2017-06-04 22:51:32,79.35270125948273
3.5625722,-8.532935,-3.2082303,0.0,3.5140495,-8.580819,-3.1871612,-0.08172209,-0.05448139,-0.16344418,2017-06-04 22:51:33,77.98844024478215
3.572149,-8.590396,-3.2465374,0.0,3.4595683,-8.580819,-3.2007816,0.12258312,0.013620348,-0.027240695,2017-06-04 22:51:34,71.70938997038294
3.5434184,-8.532935,-3.3614593,0.0,3.5140495,-8.567199,-3.2007816,0.0,0.0,-0.19068487,2017-06-04 22:51:35,70.01810611526506
3.4476504,-8.6095495,-3.3614593,0.0,3.4595683,-8.580819,-3.2416425,0.013620348,0.013620348,-0.095342435,2017-06-04 22:51:36,73.46463620563281
3.5817258,-8.619126,-3.1028855,0.0,3.405087,-8.594439,-3.2280223,0.24516624,0.068101734,0.10896278,2017-06-04 22:51:37,76.52566620425968
3.5529952,-8.6095495,-3.1986535,0.0,3.486809,-8.553578,-3.2552629,-0.027240695,0.013620348,-0.25878662,2017-06-04 22:51:38,72.77629655063082
3.6104562,-8.571242,-3.217807,0.0,3.486809,-8.539958,-3.296124,0.14982383,0.12258312,-0.12258312,2017-06-04 22:51:39,79.20540762246677
3.4093432,-8.580819,-3.5817258,0.0,3.5549107,-8.512717,-3.3097444,0.013620348,-0.068101734,0.095342435,2017-06-04 22:51:40,76.20723398143176
3.6008794,-8.542512,-3.323152,0.0,3.52767,-8.526338,-3.2825036,0.068101734,-0.013620348,-0.05448139,2017-06-04 22:51:41,72.24599767823335
3.4859576,-8.628703,-3.323152,0.0,3.5140495,-8.526338,-3.296124,-0.08172209,-0.17706451,0.068101734,2017-06-04 22:51:42,79.00073604370128
3.5913026,-8.542512,-3.2848446,0.0,3.486809,-8.539958,-3.296124,0.16344418,0.095342435,-0.027240695,2017-06-04 22:51:43,72.9769922161511
3.4380736,-8.580819,-3.371036,0.0,3.5004294,-8.539958,-3.2825036,-0.08172209,-0.12258312,0.013620348,2017-06-04 22:51:44,45.097568434840795
3.5913026,-8.513782,-3.3039982,0.0,3.445948,-8.553578,-3.2825036,0.17706451,0.068101734,0.013620348,2017-06-04 22:51:45,50.726274313094194
3.4284968,-8.561666,-3.4284968,0.0,3.4731886,-8.539958,-3.3097444,-0.12258312,-0.16344418,-0.040861044,2017-06-04 22:51:46,77.10113849352007
3.5242648,-8.494628,-3.466804,0.0,3.445948,-8.539958,-3.3369853,0.08172209,0.040861044,-0.13620347,2017-06-04 22:51:47,72.56877346059083
3.4476504,-8.599973,-3.3039982,0.0,3.4323275,-8.539958,-3.3642259,-0.027240695,-0.013620348,-0.095342435,2017-06-04 22:51:48,70.35021250096543
3.4380736,-8.599973,-3.3901896,0.0,3.3778462,-8.553578,-3.3642259,0.068101734,-0.027240695,-0.05448139,2017-06-04 22:51:49,75.79666074791503
3.217807,-8.7532015,-3.2369606,0.0,3.3778462,-8.567199,-3.323365,-0.14982383,-0.13620347,0.08172209,2017-06-04 22:51:50,72.9237211063197
3.3997664,-8.590396,-3.3518825,0.0,3.2552629,-8.621679,-3.296124,0.08172209,0.013620348,-0.095342435,2017-06-04 22:51:51,78.41844082908838
3.1986535,-8.714894,-3.265691,0.0,3.2825036,-8.621679,-3.3097444,-0.08172209,-0.10896278,0.08172209,2017-06-04 22:51:52,76.80621357390065
3.2561142,-8.781932,-3.0550013,0.0,3.2280223,-8.64892,-3.2825036,0.013620348,-0.12258312,0.2043052,2017-06-04 22:51:53,78.07059156106723
3.2273839,-8.714894,-3.2082303,0.0,3.214402,-8.689781,-3.2007816,0.027240695,0.040861044,-0.12258312,2017-06-04 22:51:54,78.01669374334313
3.1794999,-8.734048,-3.1794999,0.0,3.214402,-8.689781,-3.1599207,-0.05448139,0.013620348,-0.16344418,2017-06-04 22:51:55,72.06801943782399
3.2752678,-8.7053175,-3.1603463,0.0,3.1735408,-8.717022,-3.1599207,0.040861044,-0.013620348,-0.068101734,2017-06-04 22:51:56,72.67966008931502
3.1507695,-8.762778,-3.1124623,0.0,3.2007816,-8.703402,-3.1599207,-0.040861044,-0.16344418,0.21792556,2017-06-04 22:51:58,78.46294193675766
3.169923,-8.7053175,-3.2752678,0.0,3.1463003,-8.703402,-3.2007816,0.013620348,0.013620348,-0.10896278,2017-06-04 22:51:59,78.20907456421278
3.1794999,-8.724471,-3.2561142,0.0,3.1463003,-8.703402,-3.2280223,0.040861044,0.0,-0.027240695,2017-06-04 22:52:00,78.24687117879006
3.5913026,-8.283937,-3.3997664,0.0,3.1463003,-8.689781,-3.2552629,0.5448139,0.3405087,0.16344418,2017-06-04 22:52:01,77.29604724883347
3.3614593,-8.619126,-3.3806129,0.0,3.214402,-8.6353,-3.323365,0.10896278,0.08172209,-0.14982383,2017-06-04 22:52:02,75.82006796830552
3.3806129,-8.599973,-3.4380736,0.0,3.2825036,-8.567199,-3.4323275,-0.027240695,-0.12258312,0.013620348,2017-06-04 22:52:03,74.64759738631858
3.1890767,-8.580819,-3.6008794,0.0,3.2688832,-8.553578,-3.4731886,-0.040861044,-0.05448139,-0.040861044,2017-06-04 22:52:04,67.58979252352916
3.1316159,-8.6574335,-3.4955344,0.0,3.2007816,-8.580819,-3.486809,-0.068101734,-0.08172209,0.05448139,2017-06-04 22:52:05,71.02080804201701
3.2848446,-8.552089,-3.5338416,0.0,3.1463003,-8.594439,-3.486809,0.095342435,0.027240695,-0.10896278,2017-06-04 22:52:06,74.8822149260945
3.1603463,-8.628703,-3.4763808,0.0,3.2007816,-8.594439,-3.445948,-0.027240695,-0.027240695,-0.013620348,2017-06-04 22:52:07,72.08718639278825
3.1890767,-8.66701,-3.4284968,0.0,3.1599207,-8.608059,-3.445948,0.05448139,-0.040861044,0.013620348,2017-06-04 22:52:08,72.31110558900465
3.0933087,-8.743625,-3.3518825,0.0,3.1599207,-8.621679,-3.4323275,-0.027240695,-0.027240695,-0.027240695,2017-06-04 22:52:09,76.45490354993755
3.2465374,-8.599973,-3.5434184,0.0,3.13268,-8.621679,-3.4323275,0.12258312,-0.040861044,0.05448139,2017-06-04 22:52:10,75.1276006151654
3.122039,-8.647857,-3.4093432,0.0,3.2007816,-8.594439,-3.4595683,-0.19068487,-0.35412902,-0.013620348,2017-06-04 22:52:11,78.38327864727316
3.2752678,-8.628703,-3.4763808,0.0,3.214402,-8.580819,-3.4595683,0.068101734,-0.05448139,0.0,2017-06-04 22:52:12,79.56028057268554
3.1890767,-8.619126,-3.6008794,0.0,3.2416425,-8.553578,-3.5140495,-0.013620348,-0.040861044,-0.040861044,2017-06-04 22:52:13,78.05697587850689
3.217807,-8.6574335,-3.466804,0.0,3.1871612,-8.567199,-3.5140495,0.0,-0.08172209,0.0,2017-06-04 22:52:14,74.3317970499925
3.1890767,-8.6095495,-3.6296098,0.0,3.2007816,-8.567199,-3.5140495,0.027240695,-0.027240695,-0.068101734,2017-06-04 22:52:15,77.15609131152331
3.2465374,-8.63828,-3.4859576,0.0,3.2007816,-8.553578,-3.52767,0.027240695,-0.040861044,-0.068101734,2017-06-04 22:52:16,73.18556638069981
3.3327289,-8.571242,-3.5625722,0.0,3.2416425,-8.553578,-3.52767,0.068101734,-0.040861044,-0.05448139,2017-06-04 22:52:17,73.85138596969554
3.2752678,-8.580819,-3.6104562,0.0,3.2688832,-8.526338,-3.5412903,-0.013620348,-0.013620348,-0.095342435,2017-06-04 22:52:18,78.32772013994108
3.2848446,-8.6574335,-3.4380736,0.0,3.2280223,-8.539958,-3.5412903,0.08172209,-0.08172209,-0.013620348,2017-06-04 22:52:19,79.79980820463352
3.3518825,-8.42759,-3.7924154,0.0,3.2825036,-8.526338,-3.5412903,0.08172209,0.013620348,-0.068101734,2017-06-04 22:52:20,79.57321223538148
3.2273839,-8.6095495,-3.5434184,0.0,3.2552629,-8.526338,-3.5549107,-0.05448139,-0.068101734,-0.08172209,2017-06-04 22:52:21,79.39726444848202
3.3039982,-8.580819,-3.6296098,0.0,3.2007816,-8.553578,-3.5412903,0.10896278,-0.068101734,-0.013620348,2017-06-04 22:52:22,79.03529041866348
3.1794999,-8.6095495,-3.6296098,0.0,3.2825036,-8.526338,-3.5412903,-0.013620348,-0.040861044,-0.05448139,2017-06-04 22:52:23,76.26276066866825
3.265691,-8.599973,-3.5625722,0.0,3.2280223,-8.539958,-3.5549107,0.040861044,-0.05448139,-0.027240695,2017-06-04 22:52:24,45.93263596962234
3.2944214,-8.6095495,-3.5817258,0.0,3.2416425,-8.539958,-3.5549107,0.10896278,-0.013620348,-0.013620348,2017-06-04 22:52:25,47.40142414260721
3.2465374,-8.619126,-3.5625722,0.0,3.2688832,-8.512717,-3.568531,-0.013620348,-0.08172209,0.027240695,2017-06-04 22:52:26,58.483697659399986
3.122039,-8.580819,-3.7349546,0.0,3.2280223,-8.512717,-3.6230123,-0.013620348,-0.05448139,-0.027240695,2017-06-04 22:52:27,76.32001433361282
3.265691,-8.465898,-3.821146,0.0,3.1871612,-8.4854765,-3.718355,0.068101734,-0.027240695,0.0,2017-06-04 22:52:28,77.25583763657329
3.083732,-8.695741,-3.6104562,0.0,3.1871612,-8.499097,-3.677494,-0.013620348,0.013620348,-0.13620347,2017-06-04 22:52:29,72.52434002704766
3.2848446,-8.504205,-3.715801,0.0,3.1871612,-8.499097,-3.677494,0.068101734,-0.027240695,0.013620348,2017-06-04 22:52:30,76.26222492260322
3.2273839,-8.523358,-3.6966474,0.0,3.1871612,-8.499097,-3.6911142,0.013620348,-0.040861044,-0.08172209,2017-06-04 22:52:31,73.46548781433538
3.1890767,-8.504205,-3.715801,0.0,3.2007816,-8.499097,-3.6911142,-0.040861044,-0.14982383,-0.068101734,2017-06-04 22:52:32,77.71374232370187
3.1028855,-8.628703,-3.620033,0.0,3.1871612,-8.499097,-3.677494,-0.068101734,-0.08172209,-0.027240695,2017-06-04 22:52:33,62.314840232664395
3.1986535,-8.504205,-3.7924154,0.0,3.1463003,-8.512717,-3.6911142,0.05448139,-0.013620348,-0.040861044,2017-06-04 22:52:34,73.17935600260238
3.0071173,-9.11712,-3.3135753,0.0,3.13268,-8.512717,-3.7047346,-0.10896278,-0.10896278,-0.05448139,2017-06-04 22:52:35,77.98497225389778
4.673482,-6.742072,-5.401319,0.0,3.1871612,-8.4854765,-3.7047346,1.3075534,1.4982383,-1.484618,2017-06-04 22:52:36,48.491352461100405
5.142745,-6.5218053,-5.2863975,0.0,4.33127,-7.218784,-4.9986672,0.91256326,0.98066497,-0.58567494,2017-06-04 22:52:37,71.65040999014816
5.3821654,-6.4164605,-5.085284,0.0,5.2165933,-6.3334613,-5.3527966,0.14982383,-0.08172209,0.23154591,2017-06-04 22:52:38,77.48692228180647
5.0757074,-6.3781533,-5.171476,0.0,5.3800373,-6.306221,-5.2302136,-0.17706451,-0.19068487,0.10896278,2017-06-04 22:52:39,79.17460872144412
4.865018,-6.339846,-5.6120086,0.0,5.175732,-6.387943,-5.3119354,-0.32688835,-0.013620348,-0.2043052,2017-06-04 22:52:40,79.16523667303997
4.673482,-6.6175733,-5.5641246,0.0,4.862464,-6.469665,-5.5162406,-0.10896278,0.040861044,-0.13620347,2017-06-04 22:52:42,75.38966662251593
4.4723687,-6.7803793,-5.554548,0.0,4.6445384,-6.592248,-5.570722,-0.16344418,-0.16344418,-0.05448139,2017-06-04 22:52:43,78.51782018780101
4.2042184,-6.943185,-5.6215854,0.0,4.440233,-6.742072,-5.5434813,-0.17706451,-0.16344418,-0.027240695,2017-06-04 22:52:44,74.64997140729812
4.156334,-6.9719152,-5.535394,0.0,4.2223077,-6.864655,-5.5571017,-0.08172209,-0.10896278,0.040861044,2017-06-04 22:52:45,51.295071693867285
3.8402996,-7.2687964,-5.5641246,0.0,4.0588636,-6.9599977,-5.570722,-0.10896278,-0.14982383,0.013620348,2017-06-04 22:52:46,75.7540152883449
3.8019924,-7.1826053,-5.592855,0.0,3.881799,-7.06896,-5.5571017,-0.05448139,-0.13620347,0.013620348,2017-06-04 22:52:47,58.08315353788912
3.6774938,-7.3166804,-5.602432,0.0,3.759216,-7.1234417,-5.570722,-0.027240695,-0.10896278,-0.068101734,2017-06-04 22:52:48,53.81004721129153
3.7349546,-7.1634517,-5.755661,0.0,3.718355,-7.137062,-5.570722,0.013620348,-0.040861044,-0.17706451,2017-06-04 22:52:49,72.90690064998384
3.6870706,-7.2209125,-5.6790466,0.0,3.7047346,-7.1098213,-5.611583,-0.027240695,-0.13620347,-0.013620348,2017-06-04 22:52:50,78.58499719124524
3.7062242,-7.2209125,-5.6120086,0.0,3.677494,-7.137062,-5.611583,0.027240695,-0.095342435,-0.013620348,2017-06-04 22:52:51,79.02940426561082
3.620033,-7.28795,-5.6407394,0.0,3.650253,-7.1779227,-5.5843425,0.0,-0.040861044,-0.13620347,2017-06-04 22:52:52,79.33647438897303
3.6104562,-7.2783732,-5.6790466,0.0,3.6230123,-7.1779227,-5.597963,-0.027240695,-0.12258312,-0.027240695,2017-06-04 22:52:53,78.6323150230107
3.667917,-7.201759,-5.6886234,0.0,3.5957716,-7.191543,-5.5843425,0.027240695,-0.10896278,-0.05448139,2017-06-04 22:52:54,72.34971471023353
3.6487634,-7.1826053,-5.717354,0.0,3.5821512,-7.2051635,-5.5843425,0.05448139,0.0,-0.08172209,2017-06-04 22:52:55,78.36139646435245
3.5817258,-7.2783732,-5.66947,0.0,3.568531,-7.2051635,-5.5843425,0.027240695,-0.027240695,-0.095342435,2017-06-04 22:52:56,76.6914515596563
3.6104562,-7.3071036,-5.592855,0.0,3.5412903,-7.218784,-5.597963,0.05448139,-0.05448139,-0.040861044,2017-06-04 22:52:57,44.81502151791716
3.4859576,-7.3166804,-5.6982,0.0,3.5140495,-7.232404,-5.597963,-0.027240695,-0.16344418,0.040861044,2017-06-04 22:52:58,72.3094958310397
3.4284968,-7.345411,-5.535394,0.0,3.4731886,-7.2460246,-5.597963,-0.08172209,-0.28602728,0.27240694,2017-06-04 22:52:59,78.4090935853599
3.4955344,-7.489063,-5.3247046,0.0,3.3914666,-7.43671,-5.407278,0.17706451,-0.05448139,0.24516624,2017-06-04 22:53:00,76.58101833838494
3.5338416,-7.536947,-5.2289367,0.0,3.5412903,-7.4911914,-5.2302136,-0.040861044,-0.12258312,0.16344418,2017-06-04 22:53:01,75.64307766417963
3.3806129,-7.9008656,-4.9703627,0.0,3.4323275,-7.6273947,-5.1076303,-0.040861044,0.013620348,-0.08172209,2017-06-04 22:53:02,74.48264605088863
3.2752678,-7.9487495,-4.9224787,0.0,3.4595683,-7.6546354,-5.0395284,-0.17706451,-0.2043052,0.0,2017-06-04 22:53:03,63.39290891623356
3.6583402,-7.6710224,-4.8267107,0.0,3.4595683,-7.7908387,-4.821603,0.10896278,-0.05448139,0.068101734,2017-06-04 22:53:04,76.87789456935121
3.7541082,-7.651869,-4.9416323,0.0,3.5957716,-7.7772183,-4.7535014,0.12258312,-0.05448139,0.068101734,2017-06-04 22:53:05,74.88871583818434
3.9360676,-7.795521,-4.453215,0.0,3.759216,-7.695496,-4.7535014,0.05448139,-0.05448139,0.08172209,2017-06-04 22:53:06,77.75445312587252
4.261679,-8.149862,-3.6296098,0.0,3.881799,-7.763598,-4.535576,0.17706451,-0.57205456,0.8036005,2017-06-04 22:53:07,77.36461367443792
4.6830587,-7.642292,-3.964798,0.0,4.33127,-7.804459,-4.031623,0.31326798,0.21792556,-0.068101734,2017-06-04 22:53:08,77.22079799900693
4.548983,-7.603985,-4.309563,0.0,4.6172976,-7.6546354,-4.004382,-0.05448139,0.040861044,-0.23154591,2017-06-04 22:53:09,77.4420787051221
4.213795,-8.025364,-4.1659107,0.0,4.6036773,-7.6137743,-4.099725,-0.25878662,-0.19068487,-0.05448139,2017-06-04 22:53:10,67.82687078910234
4.5777135,-7.7093296,-4.0222588,0.0,4.5491962,-7.6273947,-4.140586,0.095342435,-0.013620348,0.14982383,2017-06-04 22:53:11,69.90229935155858
4.5777135,-7.776367,-3.964798,0.0,4.535576,-7.668256,-4.072484,0.10896278,0.13620347,-0.19068487,2017-06-04 22:53:12,77.11451503840158
4.6255975,-7.632715,-4.1276035,0.0,4.562816,-7.641015,-4.0861044,0.05448139,-0.027240695,0.013620348,2017-06-04 22:53:13,77.45493180151638
4.7309427,-7.52737,-4.098873,0.0,4.590057,-7.6137743,-4.099725,0.10896278,0.13620347,-0.16344418,2017-06-04 22:53:14,79.22960233556594
4.76925,-7.489063,-4.1371803,0.0,4.6445384,-7.5865335,-4.113345,0.10896278,0.13620347,-0.095342435,2017-06-04 22:53:15,78.4669159136248
4.663905,-7.517793,-4.271256,0.0,4.658159,-7.559293,-4.1269655,0.0,0.068101734,-0.13620347,2017-06-04 22:53:16,76.30144800126155
4.7022123,-7.489063,-4.261679,0.0,4.658159,-7.532052,-4.195067,0.027240695,0.0,-0.013620348,2017-06-04 22:53:17,75.5879144461933
4.644751,-7.4986396,-4.3766007,0.0,4.658159,-7.532052,-4.195067,-0.027240695,0.0,-0.14982383,2017-06-04 22:53:18,77.49784465541953
4.606444,-7.5082164,-4.453215,0.0,4.6445384,-7.504812,-4.2495484,-0.05448139,-0.08172209,-0.013620348,2017-06-04 22:53:19,69.30157597306862
4.644751,-7.489063,-4.3861775,0.0,4.6172976,-7.477571,-4.31765,0.0,0.013620348,-0.13620347,2017-06-04 22:53:20,72.94255474902846
4.548983,-7.489063,-4.4244847,0.0,4.6036773,-7.4503303,-4.372132,-0.05448139,-0.027240695,-0.040861044,2017-06-04 22:53:21,75.27134086037285
4.510676,-7.469909,-4.596867,0.0,4.5764365,-7.4639506,-4.3993726,-0.027240695,0.05448139,-0.2043052,2017-06-04 22:53:22,75.93528212518265
4.501099,-7.489063,-4.5681367,0.0,4.535576,-7.43671,-4.4810944,-0.013620348,0.0,-0.13620347,2017-06-04 22:53:23,69.0263520753333
4.4915223,-7.431602,-4.654328,0.0,4.508335,-7.409469,-4.5491962,-0.027240695,-0.095342435,0.013620348,2017-06-04 22:53:24,72.56416554391333
4.4723687,-7.4603324,-4.5777135,0.0,4.4810944,-7.4230895,-4.562816,0.013620348,0.0,-0.05448139,2017-06-04 22:53:26,77.54003665764247
4.453215,-7.4507556,-4.6255975,0.0,4.4538536,-7.409469,-4.6036773,0.027240695,-0.013620348,0.013620348,2017-06-04 22:53:27,75.03294905767382
4.3478703,-7.469909,-4.7022123,0.0,4.440233,-7.3958488,-4.630918,-0.068101734,-0.08172209,0.0,2017-06-04 22:53:28,61.917012158405825
4.357447,-7.4124484,-4.76925,0.0,4.385752,-7.409469,-4.671779,-0.05448139,-0.10896278,0.040861044,2017-06-04 22:53:29,78.4767930030409
4.3478703,-7.422025,-4.7500963,0.0,4.3448906,-7.4230895,-4.6853995,0.013620348,-0.013620348,0.013620348,2017-06-04 22:53:30,75.59226728065138
4.280833,-7.469909,-4.711789,0.0,4.3040295,-7.43671,-4.69902,-0.13620347,-0.16344418,0.068101734,2017-06-04 22:53:31,76.14800282671891
4.271256,-7.479486,-4.7500963,0.0,4.2495484,-7.4639506,-4.69902,0.013620348,-0.040861044,-0.013620348,2017-06-04 22:53:32,78.36893215226394
4.1946416,-7.536947,-4.721366,0.0,4.235928,-7.4639506,-4.7126403,0.027240695,0.0,-0.027240695,2017-06-04 22:53:33,73.28644644928625
4.1371803,-7.4986396,-4.8267107,0.0,4.2223077,-7.4639506,-4.7262607,-0.068101734,0.0,-0.068101734,2017-06-04 22:53:34,77.82500505024088
4.098873,-7.469909,-4.8937483,0.0,4.140586,-7.4639506,-4.807983,-0.027240695,0.013620348,-0.08172209,2017-06-04 22:53:35,73.2740312010116
4.0892963,-7.4603324,-4.912902,0.0,4.072484,-7.4503303,-4.8760843,0.0,-0.040861044,-0.027240695,2017-06-04 22:53:36,72.48257595897817
4.1180267,-7.441179,-4.912902,0.0,4.0861044,-7.4503303,-4.8760843,0.013620348,-0.013620348,-0.068101734,2017-06-04 22:53:37,79.05795468883768
4.050989,-7.479486,-4.912902,0.0,4.0588636,-7.4503303,-4.903325,0.013620348,0.013620348,-0.040861044,2017-06-04 22:53:38,72.76887235057163
4.0414124,-7.469909,-4.9320555,0.0,4.0180025,-7.4639506,-4.903325,0.013620348,-0.027240695,-0.068101734,2017-06-04 22:53:39,74.74890129385179
4.0701427,-7.441179,-4.9320555,0.0,4.031623,-7.4503303,-4.9169455,0.013620348,-0.013620348,-0.05448139,2017-06-04 22:53:40,78.84747472158098
3.9839516,-7.469909,-4.999093,0.0,4.031623,-7.4503303,-4.9169455,-0.027240695,-0.040861044,0.013620348,2017-06-04 22:53:41,43.54327662887251
3.9935284,-7.469909,-4.9895163,0.0,4.0180025,-7.4503303,-4.930566,-0.040861044,-0.040861044,-0.068101734,2017-06-04 22:53:42,70.54342408598669
3.9935284,-7.345411,-5.171476,0.0,3.963521,-7.43671,-4.985047,-0.027240695,-0.013620348,-0.13620347,2017-06-04 22:53:43,76.40332225037022
4.1180267,-7.192182,-5.2959743,0.0,3.9499006,-7.3686085,-5.09401,0.095342435,0.040861044,-0.095342435,2017-06-04 22:53:44,69.4054334471139
3.9839516,-7.3166804,-5.45878,0.0,4.031623,-7.300506,-5.134871,0.12258312,0.095342435,-0.068101734,2017-06-04 22:53:45,63.59103251666988
4.1371803,-7.1347213,-5.257667,0.0,4.004382,-7.191543,-5.3119354,0.27240694,0.027240695,0.17706451,2017-06-04 22:53:46,57.74765072244324
4.232949,-6.9048777,-5.4683566,0.0,4.0452433,-7.028099,-5.47538,0.095342435,0.08172209,-0.12258312,2017-06-04 22:53:47,77.56411217864442
4.098873,-6.943185,-5.650316,0.0,4.099725,-6.973618,-5.529861,-0.027240695,-0.040861044,-0.095342435,2017-06-04 22:53:48,68.77565170062948
4.0797195,-6.8091097,-5.7748146,0.0,4.0452433,-6.9191365,-5.6252036,-0.12258312,-0.2043052,-0.068101734,2017-06-04 22:53:49,73.90093460181292
4.003105,-6.885724,-5.8322754,0.0,3.9771414,-6.905516,-5.7069254,0.013620348,-0.040861044,-0.05448139,2017-06-04 22:53:50,78.27266674092068
3.9264908,-6.9048777,-5.899313,0.0,3.9499006,-6.864655,-5.761407,0.013620348,0.05448139,-0.16344418,2017-06-04 22:53:51,67.54892324085228
3.8786068,-6.885724,-5.9567738,0.0,3.9362803,-6.8237944,-5.8295083,-0.013620348,-0.068101734,-0.08172209,2017-06-04 22:53:52,62.809773100115144
3.8498764,-6.9048777,-5.93762,0.0,3.8681786,-6.8237944,-5.856749,-0.027240695,-0.027240695,-0.14982383,2017-06-04 22:53:53,70.0384862016083
4.0414124,-6.7229185,-6.2823853,0.0,3.8136973,-6.810174,-5.924851,-0.095342435,-0.28602728,-0.29964766,2017-06-04 22:53:54,67.27152213392448
6.397307,-7.3166804,-1.5897499,0.0,4.7943625,-6.973618,-4.944186,1.607201,-0.44947144,3.8136973,2017-06-04 22:53:55,54.553301224131644
6.540959,-7.1251445,-1.9440918,0.0,6.3470817,-7.1506824,-2.1111538,0.13620347,0.027240695,0.095342435,2017-06-04 22:53:56,72.48649242995499
6.5984197,-6.933608,-2.1547816,0.0,6.4560447,-7.1506824,-1.8115062,0.05448139,0.040861044,-0.21792556,2017-06-04 22:53:57,76.14205885656169
6.5122285,-7.1251445,-2.0590134,0.0,6.483285,-7.096201,-1.920469,0.013620348,-0.027240695,-0.14982383,2017-06-04 22:53:58,72.07389429225304
6.4643445,-7.153875,-2.1164744,0.0,6.469665,-7.0825806,-2.002191,-0.027240695,-0.10896278,-0.095342435,2017-06-04 22:53:59,77.64795222885016
6.445191,-7.1826053,-2.1164744,0.0,6.401563,-7.1234417,-2.0566726,0.08172209,-0.013620348,-0.027240695,2017-06-04 22:54:00,52.352608007034306
6.445191,-7.1826053,-2.1164744,0.0,6.401563,-7.1234417,-2.083913,0.027240695,-0.040861044,-0.068101734,2017-06-04 22:54:01,75.29294176938711
6.5696893,-6.933608,-2.3175871,0.0,6.401563,-7.1234417,-2.070293,0.25878662,0.29964766,-0.14982383,2017-06-04 22:54:02,43.68947037119604
6.5696893,-7.019799,-2.2409728,0.0,6.4424243,-7.05534,-2.1520147,0.17706451,0.19068487,-0.25878662,2017-06-04 22:54:03,66.22441973566292
6.5026517,-6.9623384,-2.4899697,0.0,6.524146,-6.932757,-2.3290794,0.068101734,0.068101734,-0.12258312,2017-06-04 22:54:04,76.02178583637973
6.4164605,-7.1059904,-2.4229321,0.0,6.4969053,-6.9191365,-2.4108014,-0.13620347,-0.14982383,-0.12258312,2017-06-04 22:54:05,66.20115418823656
6.3685765,-7.1059904,-2.5187001,0.0,6.428804,-6.973618,-2.4516625,-0.068101734,-0.095342435,-0.068101734,2017-06-04 22:54:06,74.26096526139295
6.339846,-7.1155677,-2.5474305,0.0,6.360702,-7.0144787,-2.5061438,0.013620348,-0.027240695,-0.05448139,2017-06-04 22:54:07,75.30491326255725
6.3111157,-7.0102224,-2.8060043,0.0,6.3334613,-7.028099,-2.5333848,-0.068101734,-0.08172209,-0.2043052,2017-06-04 22:54:08,71.15025645067038
6.301539,-6.9623384,-2.9017725,0.0,6.2926006,-7.028099,-2.6423473,0.013620348,0.040861044,-0.17706451,2017-06-04 22:54:09,78.2360014206127
6.3589997,-6.8761473,-2.9017725,0.0,6.2926006,-6.9599977,-2.819412,0.05448139,0.040861044,-0.05448139,2017-06-04 22:54:11,68.22849883016391
6.2728086,-6.9527617,-2.9592333,0.0,6.2926006,-6.9191365,-2.9147542,-0.068101734,-0.095342435,-0.14982383,2017-06-04 22:54:12,58.94163926510042
6.2345014,-7.029376,-2.9496565,0.0,6.2926006,-6.9191365,-2.9147542,-0.027240695,-0.027240695,-0.13620347,2017-06-04 22:54:13,70.4848020983109
6.291962,-6.8569937,-3.1316159,0.0,6.238119,-6.9463773,-2.9828563,-0.027240695,-0.12258312,0.027240695,2017-06-04 22:54:14,78.30074648639484
6.1770406,-7.038953,-3.016694,0.0,6.2244987,-6.9463773,-2.9828563,-0.013620348,-0.068101734,-0.013620348,2017-06-04 22:54:15,71.95787501045656
6.3781533,-6.6079965,-3.2082303,0.0,6.2108784,-6.9599977,-2.9828563,0.05448139,0.05448139,-0.08172209,2017-06-04 22:54:16,68.15828168445648
6.167464,-6.9048777,-3.323152,0.0,6.1836376,-6.9599977,-3.0373375,0.027240695,0.14982383,-0.31326798,2017-06-04 22:54:17,65.66864330631931
5.851429,-7.1634517,-3.572149,0.0,6.142777,-6.905516,-3.2280223,-0.13620347,0.027240695,-0.35412902,2017-06-04 22:54:18,77.4009737457605
6.033388,-6.981492,-3.4093432,0.0,6.033814,-6.932757,-3.3914666,-0.08172209,-0.2043052,0.013620348,2017-06-04 22:54:19,76.43934781021022
5.9280434,-6.991069,-3.5338416,0.0,5.9657125,-6.9463773,-3.486809,0.05448139,0.05448139,-0.013620348,2017-06-04 22:54:20,76.0608112593905
5.985504,-7.0006456,-3.4859576,0.0,5.9657125,-6.9463773,-3.486809,0.040861044,-0.068101734,0.08172209,2017-06-04 22:54:21,76.37697174656341
5.90889,-6.9719152,-3.6296098,0.0,5.9657125,-6.9463773,-3.4731886,-0.027240695,0.027240695,-0.10896278,2017-06-04 22:54:22,75.95020173288927
5.5737014,-7.3071036,-3.4763808,0.0,5.924851,-6.973618,-3.486809,-0.29964766,-0.24516624,-0.027240695,2017-06-04 22:54:23,71.95634752321352
5.3821654,-7.431602,-3.6774938,0.0,5.6660643,-7.1643023,-3.52767,-0.14982383,-0.095342435,-0.12258312,2017-06-04 22:54:24,46.921178678891245
5.3725886,-7.2113357,-3.9360676,0.0,5.4890003,-7.232404,-3.677494,-0.13620347,-0.095342435,-0.23154591,2017-06-04 22:54:25,75.49739139468299
5.2863975,-7.192182,-4.1371803,0.0,5.407278,-7.232404,-3.800077,-0.027240695,0.08172209,-0.17706451,2017-06-04 22:54:26,72.39979880888727
5.0374002,-7.335834,-4.1180267,0.0,5.257454,-7.232404,-3.9907618,-0.19068487,-0.08172209,-0.068101734,2017-06-04 22:54:27,78.97882452736194
4.8937483,-7.2209125,-4.453215,0.0,5.09401,-7.2732654,-4.1269655,-0.14982383,0.14982383,-0.32688835,2017-06-04 22:54:28,75.4938647393285
4.7022123,-7.393295,-4.596867,0.0,4.9169455,-7.2460246,-4.3993726,-0.2043052,-0.19068487,-0.17706451,2017-06-04 22:54:29,45.792002646948404
4.865018,-7.1634517,-4.5777135,0.0,4.7535014,-7.2868857,-4.4947147,0.12258312,0.14982383,-0.08172209,2017-06-04 22:54:30,63.31978569766463
4.9224787,-7.1730285,-4.55856,0.0,4.821603,-7.259645,-4.467474,0.10896278,0.10896278,0.0,2017-06-04 22:54:31,71.43642059632211
4.9320555,-7.1730285,-4.4436383,0.0,4.8488436,-7.259645,-4.440233,0.05448139,-0.013620348,0.05448139,2017-06-04 22:54:32,71.61612089447988
4.807557,-7.345411,-4.453215,0.0,4.862464,-7.2460246,-4.440233,-0.05448139,-0.08172209,0.05448139,2017-06-04 22:54:33,78.60515336968274
4.817134,-7.3166804,-4.453215,0.0,4.8760843,-7.2460246,-4.426613,-0.068101734,-0.068101734,0.027240695,2017-06-04 22:54:34,71.47295190133823
4.807557,-7.335834,-4.453215,0.0,4.7943625,-7.300506,-4.440233,-0.013620348,-0.040861044,-0.027240695,2017-06-04 22:54:35,70.46127919609181
4.8267107,-7.3166804,-4.501099,0.0,4.7943625,-7.300506,-4.426613,-0.013620348,-0.027240695,0.068101734,2017-06-04 22:54:36,77.77237477948756
4.7500963,-7.383718,-4.4819455,0.0,4.7943625,-7.300506,-4.426613,-0.08172209,-0.12258312,-0.040861044,2017-06-04 22:54:37,65.0377053882239
4.76925,-7.3645644,-4.4723687,0.0,4.7943625,-7.300506,-4.426613,-0.027240695,0.027240695,-0.16344418,2017-06-04 22:54:38,54.24890310188947
4.8458643,-7.1251445,-4.6255975,0.0,4.7262607,-7.314126,-4.4810944,0.095342435,0.10896278,-0.05448139,2017-06-04 22:54:39,72.95301708219475
4.903325,-7.1634517,-4.5202527,0.0,4.807983,-7.2460246,-4.508335,0.05448139,0.13620347,-0.14982383,2017-06-04 22:54:40,75.56917069631676
4.9703627,-7.1155677,-4.453215,0.0,4.835223,-7.232404,-4.508335,0.12258312,0.068101734,0.08172209,2017-06-04 22:54:41,72.99665599793636
4.8745947,-7.3166804,-4.3287168,0.0,4.9169455,-7.232404,-4.426613,-0.013620348,0.12258312,-0.14982383,2017-06-04 22:54:42,71.394134808757
4.9320555,-7.029376,-4.596867,0.0,4.9169455,-7.232404,-4.4129925,0.0,0.16344418,-0.13620347,2017-06-04 22:54:43,63.205740333828416
4.903325,-7.1826053,-4.5394063,0.0,4.8897047,-7.232404,-4.4538536,-0.013620348,0.0,-0.068101734,2017-06-04 22:54:44,70.80941887397698
6.215348,-7.479486,-1.3694834,0.0,4.9169455,-7.191543,-4.4947147,1.2258313,-0.24516624,2.8330321,2017-06-04 22:54:45,74.28265692918451
6.0238113,-7.469909,-2.1068976,0.0,5.720546,-7.409469,-2.8738933,0.35412902,-0.027240695,0.84446156,2017-06-04 22:54:46,73.66668197312079
6.0046577,-7.489063,-2.0494366,0.0,6.020194,-7.4503303,-2.0566726,0.027240695,0.0,0.0,2017-06-04 22:54:47,65.46902626278612
5.995081,-7.489063,-2.087744,0.0,6.0065737,-7.4639506,-2.0430522,-0.027240695,-0.013620348,-0.040861044,2017-06-04 22:54:48,69.06431004776545
6.0046577,-7.4603324,-2.087744,0.0,6.0065737,-7.4639506,-2.0566726,-0.027240695,-0.027240695,-0.068101734,2017-06-04 22:54:49,77.01775890084272
5.995081,-7.469909,-2.2122424,0.0,6.0065737,-7.4639506,-2.0566726,-0.013620348,0.0,-0.14982383,2017-06-04 22:54:50,78.06121690531653
6.0046577,-7.4507556,-2.2697031,0.0,5.9929533,-7.4503303,-2.1111538,0.013620348,-0.013620348,-0.14982383,2017-06-04 22:54:51,76.43666452468248
5.985504,-7.469909,-2.2409728,0.0,5.979333,-7.43671,-2.2201166,-0.040861044,-0.027240695,-0.05448139,2017-06-04 22:54:52,74.0075470044274
5.9567738,-7.4603324,-2.2697031,0.0,5.979333,-7.43671,-2.2201166,-0.040861044,-0.027240695,-0.068101734,2017-06-04 22:54:53,77.02818223641573
5.9567738,-7.479486,-2.2505496,0.0,5.979333,-7.43671,-2.2201166,0.013620348,-0.013620348,0.027240695,2017-06-04 22:54:54,76.38152521965088
5.93762,-7.575254,-2.030283,0.0,5.9657125,-7.4503303,-2.2201166,-0.040861044,-0.10896278,0.14982383,2017-06-04 22:54:56,69.87164795443485
5.9280434,-7.536947,-2.1739352,0.0,5.938472,-7.4639506,-2.233737,-0.027240695,0.0,-0.10896278,2017-06-04 22:54:57,68.34841561967372
5.8705826,-7.4986396,-2.384625,0.0,5.938472,-7.4639506,-2.233737,-0.08172209,-0.040861044,-0.08172209,2017-06-04 22:54:58,68.6742055374951
5.8801594,-7.469909,-2.3463178,0.0,5.938472,-7.4639506,-2.233737,-0.040861044,0.0,-0.095342435,2017-06-04 22:54:59,74.56021550964283
5.851429,-7.536947,-2.384625,0.0,5.938472,-7.4639506,-2.233737,-0.095342435,-0.08172209,-0.10896278,2017-06-04 22:55:00,74.5885164891821
5.8322754,-7.4986396,-2.4037786,0.0,5.856749,-7.504812,-2.2882183,-0.12258312,0.0,-0.31326798,2017-06-04 22:55:01,72.47288009209595
5.803545,-7.5944076,-2.2218192,0.0,5.815888,-7.532052,-2.3426998,0.0,-0.14982383,0.28602728,2017-06-04 22:55:02,78.18264597611505
5.793968,-7.565677,-2.2697031,0.0,5.802268,-7.5456724,-2.3426998,0.0,-0.05448139,0.095342435,2017-06-04 22:55:03,73.18027688303955
5.6886234,-7.6614456,-2.3654714,0.0,5.7750273,-7.559293,-2.3426998,-0.095342435,-0.068101734,-0.08172209,2017-06-04 22:55:04,67.88856367222208
5.659893,-7.680599,-2.2505496,0.0,5.7750273,-7.559293,-2.3426998,-0.14982383,-0.05448139,-0.10896278,2017-06-04 22:55:05,73.32862949379253
5.535394,-7.8625584,-2.1452048,0.0,5.7750273,-7.559293,-2.3426998,-0.21792556,-0.23154591,0.0,2017-06-04 22:55:06,79.59936793181134
5.5641246,-7.680599,-2.384625,0.0,5.734166,-7.5865335,-2.3426998,-0.21792556,-0.16344418,-0.040861044,2017-06-04 22:55:07,76.13475129273417
5.544971,-7.7093296,-2.3463178,0.0,5.693305,-7.6137743,-2.3563201,-0.13620347,-0.040861044,-0.027240695,2017-06-04 22:55:08,72.91836379838936
5.4683566,-7.7189064,-2.4229321,0.0,5.570722,-7.695496,-2.3699405,-0.10896278,-0.027240695,-0.027240695,2017-06-04 22:55:09,72.84589361810757
5.353435,-7.8625584,-2.4612393,0.0,5.529861,-7.736357,-2.3699405,-0.13620347,-0.13620347,0.027240695,2017-06-04 22:55:10,76.78790906255234
5.3725886,-7.795521,-2.480393,0.0,5.434519,-7.7908387,-2.383561,-0.068101734,-0.10896278,0.027240695,2017-06-04 22:55:11,76.7726797516818
5.3247046,-7.833828,-2.4995465,0.0,5.434519,-7.7908387,-2.383561,-0.10896278,-0.08172209,-0.027240695,2017-06-04 22:55:12,76.00827707792884
5.267244,-8.00621,-2.3175871,0.0,5.434519,-7.804459,-2.383561,-0.13620347,-0.040861044,-0.08172209,2017-06-04 22:55:13,68.54726712533758
5.257667,-7.8912888,-2.4420857,0.0,5.393657,-7.8180795,-2.383561,-0.095342435,-0.068101734,0.027240695,2017-06-04 22:55:14,73.3854799975949
5.21936,-7.785944,-2.5953147,0.0,5.325556,-7.85894,-2.3971813,-0.095342435,-0.14982383,0.13620347,2017-06-04 22:55:15,71.30606829132668
5.133168,-7.9870567,-2.432509,0.0,5.2438335,-7.9134216,-2.4108014,-0.040861044,-0.040861044,0.013620348,2017-06-04 22:55:16,70.92884527148149
5.142745,-7.97748,-2.432509,0.0,5.2165933,-7.927042,-2.4244218,-0.068101734,0.040861044,-0.12258312,2017-06-04 22:55:17,73.60451224517978
5.1523223,-7.881712,-2.5570073,0.0,5.202973,-7.927042,-2.4380422,-0.040861044,0.040861044,-0.095342435,2017-06-04 22:55:18,75.40505504711014
5.104438,-7.9870567,-2.4612393,0.0,5.202973,-7.927042,-2.4380422,-0.040861044,0.040861044,-0.05448139,2017-06-04 22:55:19,70.2982767748559
5.1235914,-7.9104424,-2.528277,0.0,5.1893525,-7.9406624,-2.4380422,-0.095342435,0.0,-0.08172209,2017-06-04 22:55:20,62.69982818096799
5.133168,-8.025364,-2.4229321,0.0,5.1621118,-7.9542828,-2.465283,-0.05448139,-0.05448139,0.013620348,2017-06-04 22:55:21,76.02350929533156
5.085284,-7.9487495,-2.6048915,0.0,5.1621118,-7.9542828,-2.465283,-0.05448139,0.013620348,-0.08172209,2017-06-04 22:55:22,67.50377387191735
4.8745947,-7.374141,-4.175488,0.0,5.1484914,-7.927042,-2.5742457,-0.14982383,0.53119355,-1.293933,2017-06-04 22:55:23,74.77997566927228
4.7788267,-7.4986396,-4.1276035,0.0,4.971427,-7.681876,-3.5004294,-0.13620347,0.25878662,-0.5992953,2017-06-04 22:55:24,77.18574011936263
4.7788267,-7.517793,-4.0701427,0.0,4.767122,-7.532052,-4.0452433,0.013620348,-0.040861044,0.12258312,2017-06-04 22:55:25,65.80605117687911
4.548983,-7.345411,-4.7500963,0.0,4.767122,-7.572913,-3.9771414,0.068101734,0.3405087,-0.29964766,2017-06-04 22:55:26,73.96054082749271
4.7309427,-7.1730285,-4.5202527,0.0,4.7126403,-7.3958488,-4.385752,0.19068487,0.61291564,-1.2258313,2017-06-04 22:55:27,76.13129152513038
4.7884035,-7.374141,-4.453215,0.0,4.671779,-7.2460246,-4.6445384,0.040861044,-0.17706451,0.16344418,2017-06-04 22:55:28,74.2461907026737
4.654328,-7.393295,-4.596867,0.0,4.7262607,-7.409469,-4.3448906,-0.08172209,0.027240695,-0.16344418,2017-06-04 22:55:29,76.94564188082806
4.6160207,-7.422025,-4.548983,0.0,4.6853995,-7.3413677,-4.4947147,-0.095342435,-0.095342435,-0.027240695,2017-06-04 22:55:30,76.22892043557674
4.501099,-7.441179,-4.510676,0.0,4.6036773,-7.3822284,-4.508335,-0.14982383,-0.10896278,-0.040861044,2017-06-04 22:55:31,77.78890198758211
4.5298295,-7.4507556,-4.5681367,0.0,4.4947147,-7.43671,-4.5219555,0.040861044,0.013620348,-0.013620348,2017-06-04 22:55:32,66.0723405839864
4.462792,-7.489063,-4.548983,0.0,4.4538536,-7.4503303,-4.535576,0.095342435,0.027240695,-0.05448139,2017-06-04 22:55:33,69.29782978824682
4.510676,-7.441179,-4.596867,0.0,4.4810944,-7.43671,-4.5219555,0.013620348,-0.013620348,-0.068101734,2017-06-04 22:55:34,78.12695569947161
4.453215,-7.479486,-4.644751,0.0,4.4947147,-7.409469,-4.562816,-0.05448139,-0.05448139,-0.08172209,2017-06-04 22:55:35,76.18785607461318
4.453215,-7.431602,-4.644751,0.0,4.467474,-7.409469,-4.590057,-0.027240695,0.0,0.0,2017-06-04 22:55:36,78.42899319528084
4.414908,-7.431602,-4.644751,0.0,4.426613,-7.409469,-4.630918,0.0,-0.027240695,-0.05448139,2017-06-04 22:55:37,75.94008202145035
4.4340615,-7.422025,-4.673482,0.0,4.3993726,-7.4230895,-4.6445384,0.027240695,0.0,-0.040861044,2017-06-04 22:55:38,76.8244182368395
4.31914,-7.4603324,-4.7022123,0.0,4.3993726,-7.409469,-4.658159,-0.068101734,-0.05448139,-0.05448139,2017-06-04 22:55:40,66.55077148094895
4.367024,-7.422025,-4.673482,0.0,4.3448906,-7.4230895,-4.671779,0.013620348,-0.013620348,-0.05448139,2017-06-04 22:55:41,67.22819797854797
4.3766007,-7.431602,-4.7405195,0.0,4.33127,-7.4230895,-4.6853995,0.05448139,0.013620348,-0.013620348,2017-06-04 22:55:42,74.78817719650866
4.3861775,-7.393295,-4.7309427,0.0,4.358511,-7.409469,-4.69902,0.013620348,-0.013620348,-0.027240695,2017-06-04 22:55:43,75.80721213189535
4.3861775,-7.4028716,-4.759673,0.0,4.358511,-7.3958488,-4.7262607,0.0,-0.027240695,-0.027240695,2017-06-04 22:55:44,77.95670601407507
4.3861775,-7.4124484,-4.759673,0.0,4.3448906,-7.3958488,-4.7262607,0.027240695,-0.027240695,-0.040861044,2017-06-04 22:55:45,73.23300927316556
4.3861775,-7.4028716,-4.7979803,0.0,4.372132,-7.3822284,-4.739881,-0.013620348,-0.013620348,0.027240695,2017-06-04 22:55:46,77.21620383668989
4.3766007,-7.4028716,-4.817134,0.0,4.358511,-7.3822284,-4.7535014,-0.027240695,-0.027240695,0.013620348,2017-06-04 22:55:47,62.58069318432001
4.3766007,-7.393295,-4.7884035,0.0,4.33127,-7.3958488,-4.7535014,0.0,-0.027240695,-0.040861044,2017-06-04 22:55:48,68.42539434890693
4.5872903,-7.4507556,-4.4244847,0.0,4.3448906,-7.3686085,-4.767122,0.08172209,-0.21792556,0.17706451,2017-06-04 22:55:49,74.7078800252471
4.5681367,-7.383718,-4.7405195,0.0,4.4538536,-7.409469,-4.6036773,0.16344418,0.08172209,-0.10896278,2017-06-04 22:55:50,43.24004596774279
4.5298295,-7.393295,-4.7022123,0.0,4.630918,-7.314126,-4.5764365,-0.08172209,-0.08172209,-0.16344418,2017-06-04 22:55:51,56.035753141333295
4.9320555,-7.019799,-4.510676,0.0,4.6036773,-7.314126,-4.6036773,0.12258312,-0.08172209,-0.08172209,2017-06-04 22:55:52,77.28464626614681
4.7788267,-7.2113357,-4.3287168,0.0,4.7535014,-7.2460246,-4.562816,0.2043052,0.2043052,0.013620348,2017-06-04 22:55:53,67.94740193410449
4.5681367,-7.4507556,-4.55856,0.0,4.7262607,-7.259645,-4.562816,0.013620348,0.027240695,-0.040861044,2017-06-04 22:55:54,63.60674267709391
4.596867,-7.431602,-4.548983,0.0,4.658159,-7.300506,-4.5764365,0.0,-0.040861044,0.027240695,2017-06-04 22:55:55,71.65000974614816
4.7309427,-7.240066,-4.6160207,0.0,4.562816,-7.354988,-4.5764365,0.0,-0.040861044,-0.040861044,2017-06-04 22:55:56,44.21431907462437
4.3478703,-7.5561004,-4.76925,0.0,4.5764365,-7.354988,-4.5764365,-0.08172209,-0.095342435,0.0,2017-06-04 22:55:57,45.08515389541956
4.5681367,-7.374141,-4.6830587,0.0,4.535576,-7.354988,-4.6172976,0.013620348,-0.040861044,-0.05448139,2017-06-04 22:55:58,63.69032571175336
4.510676,-7.4124484,-4.6351743,0.0,4.4947147,-7.354988,-4.6445384,0.027240695,-0.027240695,-0.040861044,2017-06-04 22:55:59,72.03702063720411
4.5202527,-7.3549876,-4.6926355,0.0,4.508335,-7.354988,-4.630918,-0.05448139,-0.068101734,-0.068101734,2017-06-04 22:56:00,43.46237783105066
4.453215,-7.3645644,-4.7405195,0.0,4.4538536,-7.3686085,-4.671779,-0.027240695,-0.05448139,0.05448139,2017-06-04 22:56:01,72.83917178601894
4.5202527,-7.3549876,-4.596867,0.0,4.440233,-7.3822284,-4.671779,-0.013620348,-0.027240695,-0.2043052,2017-06-04 22:56:02,77.86875717028008
4.453215,-7.335834,-4.7788267,0.0,4.4538536,-7.3686085,-4.671779,-0.013620348,-0.027240695,-0.013620348,2017-06-04 22:56:03,61.00980831961675
4.3861775,-7.441179,-4.7022123,0.0,4.440233,-7.3686085,-4.6853995,0.027240695,0.05448139,-0.08172209,2017-06-04 22:56:04,72.37015652532403
4.4915223,-7.374141,-4.7788267,0.0,4.426613,-7.354988,-4.7126403,0.095342435,0.040861044,-0.13620347,2017-06-04 22:56:05,72.23254336606624
4.414908,-7.393295,-4.7979803,0.0,4.440233,-7.3413677,-4.7262607,0.0,-0.05448139,0.0,2017-06-04 22:56:06,73.08830799855403
4.4340615,-7.374141,-4.807557,0.0,4.426613,-7.3413677,-4.739881,0.040861044,-0.040861044,0.0,2017-06-04 22:56:07,79.07914248037025
4.405331,-7.383718,-4.7405195,0.0,4.426613,-7.3277473,-4.767122,0.05448139,0.040861044,-0.068101734,2017-06-04 22:56:08,76.88565640718186
4.309563,-7.441179,-4.807557,0.0,4.3993726,-7.3413677,-4.767122,-0.10896278,-0.12258312,-0.027240695,2017-06-04 22:56:09,66.85265003661927
4.271256,-7.5082164,-4.8362875,0.0,4.358511,-7.354988,-4.780742,0.068101734,0.0,-0.068101734,2017-06-04 22:56:10,63.11186813855411
4.4436383,-7.393295,-4.711789,0.0,4.358511,-7.3413677,-4.7943625,0.05448139,-0.08172209,0.040861044,2017-06-04 22:56:11,43.66821111426235
4.462792,-7.3549876,-4.7405195,0.0,4.426613,-7.314126,-4.780742,0.08172209,0.040861044,-0.23154591,2017-06-04 22:56:12,73.36361612614462
4.4436383,-7.383718,-4.7788267,0.0,4.440233,-7.300506,-4.780742,-0.013620348,-0.095342435,-0.027240695,2017-06-04 22:56:13,78.12494232996616
4.462792,-7.2209125,-4.8937483,0.0,4.4538536,-7.300506,-4.780742,-0.16344418,-0.23154591,-0.013620348,2017-06-04 22:56:14,43.66012693783419
4.453215,-7.4124484,-4.7788267,0.0,4.4538536,-7.300506,-4.780742,-0.12258312,-0.17706451,-0.05448139,2017-06-04 22:56:15,68.06772553469774
4.357447,-7.4507556,-4.7884035,0.0,4.4538536,-7.300506,-4.780742,0.0,0.05448139,-0.027240695,2017-06-04 22:56:16,78.18560581046795
4.414908,-7.3549876,-4.8937483,0.0,4.4129925,-7.314126,-4.7943625,-0.013620348,-0.068101734,-0.040861044,2017-06-04 22:56:17,78.04390567504082
4.3478703,-7.374141,-4.8362875,0.0,4.385752,-7.314126,-4.807983,-0.05448139,-0.068101734,-0.08172209,2017-06-04 22:56:18,73.42097567070306
4.3287168,-7.393295,-4.903325,0.0,4.372132,-7.314126,-4.821603,-0.05448139,-0.068101734,-0.027240695,2017-06-04 22:56:19,78.94177352094394
4.3382936,-7.4028716,-4.9320555,0.0,4.33127,-7.3277473,-4.835223,-0.013620348,-0.040861044,0.040861044,2017-06-04 22:56:20,76.29713262758584
4.213795,-7.441179,-4.8362875,0.0,4.2904096,-7.354988,-4.835223,-0.068101734,-0.05448139,-0.027240695,2017-06-04 22:56:21,67.84591126538086
4.10845,-7.4603324,-4.8841715,0.0,4.2223077,-7.3958488,-4.8488436,-0.040861044,-0.027240695,-0.027240695,2017-06-04 22:56:22,61.954783860888796
4.0414124,-7.5082164,-4.912902,0.0,4.140586,-7.4230895,-4.862464,-0.068101734,-0.05448139,-0.027240695,2017-06-04 22:56:24,77.92956471251065
4.0318356,-7.489063,-4.9703627,0.0,4.113345,-7.4230895,-4.8760843,-0.095342435,-0.068101734,0.013620348,2017-06-04 22:56:25,67.74478490528496
4.0318356,-7.441179,-4.9895163,0.0,4.0588636,-7.43671,-4.9169455,-0.040861044,-0.013620348,-0.095342435,2017-06-04 22:56:26,65.97581208595925
3.9743748,-7.52737,-4.912902,0.0,3.9907618,-7.4639506,-4.930566,0.05448139,-0.013620348,0.027240695,2017-06-04 22:56:27,73.2543227308762
4.012682,-7.5082164,-4.8937483,0.0,3.9907618,-7.477571,-4.903325,-0.027240695,-0.05448139,0.027240695,2017-06-04 22:56:28,75.50415116615474
4.003105,-7.517793,-4.8841715,0.0,3.9907618,-7.4911914,-4.8760843,-0.040861044,-0.12258312,0.095342435,2017-06-04 22:56:29,66.78548225801845
4.012682,-7.536947,-4.960786,0.0,3.9907618,-7.504812,-4.862464,0.0,-0.068101734,-0.05448139,2017-06-04 22:56:30,77.87419923754402
3.9839516,-7.536947,-4.7979803,0.0,3.963521,-7.532052,-4.835223,0.040861044,0.040861044,-0.068101734,2017-06-04 22:56:31,76.66479174501009
3.9935284,-7.52737,-4.8937483,0.0,3.9771414,-7.518432,-4.8488436,0.040861044,-0.013620348,-0.05448139,2017-06-04 22:56:32,78.2753350429205
4.003105,-7.52737,-4.951209,0.0,3.9771414,-7.518432,-4.862464,0.013620348,-0.05448139,-0.040861044,2017-06-04 22:56:33,71.87391998795144
3.9264908,-7.6231384,-4.8362875,0.0,3.9771414,-7.504812,-4.8760843,0.027240695,-0.013620348,-0.040861044,2017-06-04 22:56:34,73.04531956280597
4.060566,-7.479486,-4.8362875,0.0,3.9771414,-7.504812,-4.8760843,0.013620348,-0.05448139,-0.095342435,2017-06-04 22:56:35,77.97035435497415
4.0797195,-7.422025,-4.8267107,0.0,3.9907618,-7.504812,-4.8760843,0.013620348,0.068101734,-0.21792556,2017-06-04 22:56:36,71.1086910631848
4.0414124,-7.4124484,-5.0182467,0.0,3.9907618,-7.4911914,-4.8760843,0.068101734,0.095342435,-0.16344418,2017-06-04 22:56:37,70.4316929067487
4.0892963,-7.0964136,-3.016694,0.0,3.9771414,-7.4230895,-4.9986672,0.46309182,0.42223078,1.2394516,2017-06-04 22:56:38,73.88822349422627
-5.00867,-5.765238,6.244078,0.0,0.99428535,-9.615966,-1.5799603,-5.856749,3.9090397,7.9134216,2017-06-04 22:56:39,76.01051461339607
-4.4819455,-7.7093296,4.146757,0.0,-4.5491962,-7.1098213,4.985047,0.027240695,-0.35412902,-0.42223078,2017-06-04 22:56:40,70.80573307108932
0.32561144,-9.471462,-1.283292,0.0,-4.2223077,-7.927042,3.9499006,3.8136973,-1.56634,-4.33127,2017-06-04 22:56:41,69.45044552540429
0.59376204,-9.595961,-1.7908629,0.0,-1.1713499,-9.724928,0.013620348,1.6344416,0.17706451,-1.6616825,2017-06-04 22:56:42,77.81528400589768
1.0821792,-9.423578,-2.2888567,0.0,0.57205456,-9.615966,-1.7706451,0.13620347,0.0,-0.35412902,2017-06-04 22:56:43,71.65645677663237
1.7238252,-9.337387,-2.5378537,0.0,0.8580819,-9.547864,-2.0294318,0.91256326,0.28602728,-0.21792556,2017-06-04 22:56:44,77.82135655752757
1.6759412,-9.299079,-2.719813,0.0,1.4028958,-9.425281,-2.2882183,0.31326798,0.10896278,-0.50395286,2017-06-04 22:56:45,62.011019274047925
1.7142484,-9.251195,-2.920926,0.0,1.6753027,-9.248216,-2.73769,0.013620348,-0.05448139,-0.13620347,2017-06-04 22:56:46,78.82605502893439
-3.0550013,-9.155427,1.5610195,0.0,1.334794,-9.384419,-2.4925234,-4.9578066,-0.4086104,4.167826,2017-06-04 22:56:47,74.49679805793029
-2.8921957,-9.346964,1.1875241,0.0,-1.4982383,-9.684067,-0.068101734,-1.1441091,0.29964766,0.99428535,2017-06-04 22:56:48,74.37418103760784
-2.8921957,-9.241618,1.283292,0.0,-2.860273,-9.302697,1.1441091,-0.17706451,-0.040861044,0.13620347,2017-06-04 22:56:49,66.1309145103304
-3.1986535,-9.375694,1.3599066,0.0,-2.8875136,-9.289077,1.2122109,-0.19068487,-0.068101734,0.08172209,2017-06-04 22:56:50,72.36351166767567
-3.2752678,-9.14585,1.5705963,0.0,-2.9964767,-9.234595,1.3211737,-0.2043052,0.08172209,0.19068487,2017-06-04 22:56:51,72.89988189691738
-4.9224787,-7.1826053,4.367024,0.0,-3.2280223,-9.125632,1.5527196,-0.99428535,1.525479,2.1383946,2017-06-04 22:56:52,66.41756170712787
-5.746084,-5.4683566,5.813122,0.0,-4.7943625,-7.6273947,3.8681786,-0.98066497,2.1520147,1.9477097,2017-06-04 22:56:53,56.643045186419855
-5.8322754,-5.391742,5.9184666,0.0,-5.7069254,-5.597963,5.6796846,-0.08172209,0.19068487,0.21792556,2017-06-04 22:56:54,75.4475708990339
-5.803545,-5.3247046,5.9567738,0.0,-5.7477865,-5.407278,5.8295083,-0.068101734,0.040861044,0.08172209,2017-06-04 22:56:55,77.1016849788259
-5.8226986,-5.3438582,5.9280434,0.0,-5.761407,-5.339176,5.8703694,-0.068101734,0.013620348,0.068101734,2017-06-04 22:56:56,68.14739868790564
-5.841852,-5.2768207,5.995081,0.0,-5.7750273,-5.298315,5.89761,-0.068101734,0.0,0.05448139,2017-06-04 22:56:57,78.04457857471503
-5.8322754,-5.305551,6.0046577,0.0,-5.7750273,-5.298315,5.89761,-0.040861044,0.040861044,0.095342435,2017-06-04 22:56:58,73.13738630831074
-5.813122,-5.305551,6.0142345,0.0,-5.7750273,-5.257454,5.938472,0.013620348,0.0,0.08172209,2017-06-04 22:56:59,65.96789639177042
-5.6886234,-5.3247046,6.0238113,0.0,-5.7750273,-5.2438335,5.952092,0.05448139,-0.10896278,0.040861044,2017-06-04 22:57:00,62.618726703284835
-5.707777,-5.305551,6.081272,0.0,-5.720546,-5.257454,5.9929533,0.040861044,-0.027240695,0.095342435,2017-06-04 22:57:01,74.37995008567859
-5.707777,-5.315128,6.0525417,0.0,-5.693305,-5.257454,6.0065737,0.013620348,-0.040861044,0.068101734,2017-06-04 22:57:02,76.2548978723896
-5.717354,-5.3247046,6.0238113,0.0,-5.693305,-5.257454,6.0065737,-0.040861044,-0.068101734,0.040861044,2017-06-04 22:57:03,76.67463814479552
-5.6886234,-5.3725886,6.033388,0.0,-5.693305,-5.2710743,6.0065737,-0.027240695,-0.068101734,0.0,2017-06-04 22:57:04,78.14561561388095
-5.7365074,-5.391742,5.985504,0.0,-5.6796846,-5.2846947,5.9929533,0.0,-0.068101734,0.013620348,2017-06-04 22:57:05,78.09514063677719
-5.66947,-5.401319,5.995081,0.0,-5.6796846,-5.298315,5.979333,-0.040861044,-0.10896278,0.0,2017-06-04 22:57:06,75.142971523877
-5.6407394,-5.401319,6.0142345,0.0,-5.6660643,-5.339176,5.9657125,0.027240695,-0.05448139,0.040861044,2017-06-04 22:57:07,72.45047277049704
-5.631162,-5.401319,5.995081,0.0,-5.6660643,-5.339176,5.9657125,0.027240695,-0.068101734,0.040861044,2017-06-04 22:57:09,77.264147540803
-5.659893,-5.3725886,6.033388,0.0,-5.652444,-5.3527966,5.9657125,-0.027240695,-0.040861044,0.040861044,2017-06-04 22:57:10,73.78794007184119
-5.659893,-5.3821654,5.995081,0.0,-5.638824,-5.3527966,5.979333,-0.013620348,-0.013620348,0.040861044,2017-06-04 22:57:11,54.775808117242775
-5.6407394,-5.3438582,6.0142345,0.0,-5.638824,-5.3527966,5.979333,-0.040861044,-0.040861044,0.0,2017-06-04 22:57:12,76.465128394504
-5.707777,-5.3725886,6.0046577,0.0,-5.638824,-5.3527966,5.979333,-0.05448139,-0.027240695,0.027240695,2017-06-04 22:57:13,65.43268907045835
-5.659893,-5.363012,6.0525417,0.0,-5.652444,-5.339176,5.979333,0.0,-0.040861044,0.027240695,2017-06-04 22:57:14,71.86247405044668
-5.659893,-5.3725886,6.033388,0.0,-5.652444,-5.339176,5.9929533,-0.013620348,-0.013620348,0.040861044,2017-06-04 22:57:15,72.32751926830258
-5.6886234,-5.391742,6.0238113,0.0,-5.638824,-5.339176,5.9929533,-0.040861044,-0.05448139,0.013620348,2017-06-04 22:57:16,75.32852155385476
-5.6886234,-5.353435,6.033388,0.0,-5.6660643,-5.339176,5.979333,-0.040861044,-0.027240695,0.027240695,2017-06-04 22:57:17,77.54832243911869
-5.6407394,-5.353435,6.042965,0.0,-5.6660643,-5.325556,5.979333,0.0,-0.040861044,0.040861044,2017-06-04 22:57:18,66.89875346492668
-5.6982,-5.4204726,6.0142345,0.0,-5.6660643,-5.325556,5.979333,0.013620348,-0.013620348,0.05448139,2017-06-04 22:57:19,72.75312128344163
-5.717354,-5.439626,6.1195793,0.0,-5.652444,-5.325556,5.9929533,-0.027240695,-0.013620348,0.05448139,2017-06-04 22:57:20,68.49422468091102
1.7908629,-9.289502,-2.633622,0.0,-4.862464,-6.9191365,4.971427,6.26536,-2.0430522,-6.9463773,2017-06-04 22:57:21,75.78097415869956
3.7445314,-8.00621,-4.357447,0.0,0.87170225,-9.670446,-1.3484143,2.8875136,1.6616825,-2.941995,2017-06-04 22:57:22,69.74975290024011
3.8019924,-7.6135616,-4.855441,0.0,3.4187074,-8.253931,-4.0180025,0.23154591,0.47671217,-0.7354987,2017-06-04 22:57:23,46.102086527247515
3.7253778,-7.6135616,-5.00867,0.0,3.6638737,-7.7772183,-4.69902,0.08172209,0.19068487,-0.2043052,2017-06-04 22:57:24,45.027853206534644
3.8019924,-7.5848308,-4.9799395,0.0,3.7319753,-7.641015,-4.8760843,0.05448139,0.040861044,-0.068101734,2017-06-04 22:57:25,72.4217696444545
-4.1946416,-9.433155,2.1260512,0.0,3.6366327,-7.7091165,-4.821603,-5.175732,-1.607201,4.4538536,2017-06-04 22:57:26,76.07977400012513
-5.985504,-7.536947,3.5051112,0.0,-1.5799603,-9.643206,-0.6946377,-3.7319753,2.0430522,3.52767,2017-06-04 22:57:27,71.04416185906656
-6.14831,-5.8705826,4.9895163,0.0,-5.5571017,-7.354988,3.3506055,-0.5992953,1.4028958,1.56634,2017-06-04 22:57:28,72.07612774887642
-6.090849,-5.659893,5.142745,0.0,-6.074675,-6.074675,4.739881,-0.05448139,0.27240694,0.35412902,2017-06-04 22:57:29,68.54309973211306
-6.14831,-5.592855,5.2289367,0.0,-6.1291566,-5.693305,5.1212506,-0.013620348,0.08172209,0.10896278,2017-06-04 22:57:30,68.67762639562906
-6.129156,-5.5641246,5.267244,0.0,-6.1291566,-5.6660643,5.1621118,0.027240695,0.08172209,0.10896278,2017-06-04 22:57:31,62.4492375650161
-6.129156,-5.5641246,5.2768207,0.0,-6.1291566,-5.611583,5.202973,0.013620348,0.027240695,0.013620348,2017-06-04 22:57:32,68.00864406010714
-6.1387334,-5.5641246,5.209783,0.0,-6.1291566,-5.611583,5.202973,-0.013620348,0.08172209,0.10896278,2017-06-04 22:57:33,74.55005713274011
-6.1770406,-5.5162406,5.353435,0.0,-6.1291566,-5.611583,5.202973,-0.013620348,0.0,0.0,2017-06-04 22:57:34,78.46841688970538
-6.081272,-5.554548,5.2385135,0.0,-6.1291566,-5.597963,5.2165933,-0.05448139,0.040861044,0.08172209,2017-06-04 22:57:35,78.95040230471244
-6.090849,-5.535394,5.257667,0.0,-6.142777,-5.5843425,5.2302136,0.0,0.068101734,0.095342435,2017-06-04 22:57:36,77.28690380962183
-6.129156,-5.5162406,5.257667,0.0,-6.1291566,-5.5571017,5.2710743,-0.040861044,0.068101734,0.10896278,2017-06-04 22:57:37,78.86854988320843
-6.14831,-5.48751,5.315128,0.0,-6.1291566,-5.5434813,5.2710743,-0.027240695,0.068101734,0.095342435,2017-06-04 22:57:38,75.94212551560781
-6.205771,-5.554548,5.3342814,0.0,-6.142777,-5.5162406,5.298315,0.040861044,0.027240695,0.0,2017-06-04 22:57:39,75.72533151379602
-6.157887,-5.449203,5.410896,0.0,-6.142777,-5.5162406,5.298315,0.013620348,0.013620348,0.027240695,2017-06-04 22:57:40,73.58674553634731
-6.129156,-5.48751,5.363012,0.0,-6.142777,-5.4890003,5.325556,0.0,0.013620348,0.05448139,2017-06-04 22:57:41,79.81176074256814
-6.14831,-5.48751,5.363012,0.0,-6.142777,-5.47538,5.339176,0.027240695,-0.013620348,-0.040861044,2017-06-04 22:57:42,77.97552301537559
-6.1100025,-5.4683566,5.3342814,0.0,-6.142777,-5.47538,5.339176,0.013620348,0.0,0.05448139,2017-06-04 22:57:43,77.37991800692302
-6.129156,-5.4683566,5.3725886,0.0,-6.142777,-5.47538,5.339176,0.013620348,0.027240695,0.027240695,2017-06-04 22:57:44,71.84807258899465
-6.129156,-5.4779334,5.315128,0.0,-6.142777,-5.47538,5.339176,0.0,0.027240695,0.040861044,2017-06-04 22:57:45,78.85525304119352
-6.1195793,-5.4779334,5.315128,0.0,-6.142777,-5.47538,5.339176,0.0,0.013620348,0.013620348,2017-06-04 22:57:46,78.55316381134006
-6.090849,-5.4300494,5.363012,0.0,-6.142777,-5.47538,5.339176,0.040861044,0.0,-0.027240695,2017-06-04 22:57:47,76.52150824600795
-6.1387334,-5.439626,5.410896,0.0,-6.142777,-5.4617596,5.3527966,0.0,-0.013620348,0.0,2017-06-04 22:57:48,74.69933270434333
-6.1100025,-5.45878,5.4204726,0.0,-6.142777,-5.4617596,5.3527966,0.040861044,0.0,0.027240695,2017-06-04 22:57:49,42.691210852316026
-6.090849,-5.497087,5.3342814,0.0,-6.142777,-5.4617596,5.3527966,0.027240695,-0.040861044,-0.013620348,2017-06-04 22:57:50,73.70112837243674
-6.1770406,-5.48751,5.3438582,0.0,-6.1291566,-5.4617596,5.366417,0.027240695,0.068101734,0.08172209,2017-06-04 22:57:51,79.22298271873794
-6.157887,-5.449203,5.363012,0.0,-6.1291566,-5.4617596,5.366417,-0.013620348,0.027240695,0.095342435,2017-06-04 22:57:52,78.38513699693331
-6.157887,-5.4300494,5.4683566,0.0,-6.1291566,-5.448139,5.3800373,-0.040861044,0.0,0.027240695,2017-06-04 22:57:54,65.37397597022479
-6.157887,-5.410896,5.401319,0.0,-6.1291566,-5.448139,5.3800373,-0.040861044,0.040861044,0.08172209,2017-06-04 22:57:55,74.26155028112946
-6.167464,-5.4204726,5.410896,0.0,-6.142777,-5.434519,5.3800373,0.0,0.027240695,0.013620348,2017-06-04 22:57:56,77.48925731434097
-6.157887,-5.4204726,5.410896,0.0,-6.1563973,-5.4208984,5.393657,-0.05448139,-0.040861044,-0.05448139,2017-06-04 22:57:57,44.93330353654005
-6.14831,-5.4204726,5.3725886,0.0,-6.1563973,-5.407278,5.393657,-0.013620348,-0.013620348,0.0,2017-06-04 22:57:58,43.90462184819053
1.436521,-8.8777,-2.9017725,0.0,-5.7477865,-6.5377665,4.508335,6.0610547,-2.6014864,-6.7284517,2017-06-04 22:57:59,73.56396682756332
3.2369606,-8.2169,-4.309563,0.0,-0.7763598,-9.697687,-1.2394516,3.4731886,1.3892754,-2.6832085,2017-06-04 22:58:00,76.59828900213785
-5.4300494,-6.981492,3.821146,0.0,2.165635,-8.853226,-3.5957716,-8.812365,0.44947144,7.3413677,2017-06-04 22:58:01,73.2488324622414
-6.081272,-5.7748146,5.104438,0.0,-3.9771414,-8.785125,1.7978858,-1.7161638,2.6832085,2.8875136,2017-06-04 22:58:02,47.08228941626676
-6.1866174,-5.401319,5.4204726,0.0,-6.0474343,-5.938472,4.944186,-0.12258312,0.53119355,0.44947144,2017-06-04 22:58:03,72.49496846164651
-6.1770406,-5.3821654,5.391742,0.0,-6.1563973,-5.47538,5.325556,-0.013620348,0.095342435,0.05448139,2017-06-04 22:58:04,79.0856245890302
-6.215348,-5.3821654,5.439626,0.0,-6.1563973,-5.393657,5.407278,0.0,0.068101734,0.040861044,2017-06-04 22:58:05,77.945728634235
-6.1866174,-5.3342814,5.449203,0.0,-6.1563973,-5.393657,5.407278,-0.013620348,0.05448139,0.013620348,2017-06-04 22:58:06,75.64157470712254
-6.1866174,-5.3725886,5.4204726,0.0,-6.1700177,-5.3800373,5.407278,-0.013620348,0.040861044,0.05448139,2017-06-04 22:58:07,72.44905519260675
-6.196194,-5.3438582,5.4779334,0.0,-6.1700177,-5.3800373,5.407278,-0.027240695,0.013620348,0.040861044,2017-06-04 22:58:08,73.15900212414222
-6.167464,-5.3821654,5.4683566,0.0,-6.1700177,-5.366417,5.4208984,0.013620348,0.040861044,0.027240695,2017-06-04 22:58:09,75.11411239382254
-6.129156,-5.363012,5.45878,0.0,-6.1700177,-5.3527966,5.434519,0.068101734,0.027240695,0.05448139,2017-06-04 22:58:10,72.68452213095479
-6.14831,-5.2959743,5.5258174,0.0,-6.1563973,-5.3527966,5.434519,-0.040861044,-0.013620348,0.05448139,2017-06-04 22:58:11,72.62549325101259
-6.1387334,-5.353435,5.439626,0.0,-6.1563973,-5.339176,5.47538,-0.013620348,-0.05448139,-0.10896278,2017-06-04 22:58:12,77.9673848049162
-6.1866174,-5.315128,5.5162406,0.0,-6.1563973,-5.3119354,5.4890003,-0.013620348,0.0,0.0,2017-06-04 22:58:13,78.12084349793521
-6.1770406,-5.267244,5.4779334,0.0,-6.1700177,-5.298315,5.4890003,-0.027240695,0.027240695,0.05448139,2017-06-04 22:58:14,70.01082818749849
-6.157887,-5.2480903,5.554548,0.0,-6.1700177,-5.2710743,5.50262,0.0,-0.040861044,0.013620348,2017-06-04 22:58:15,72.6594544181003
-6.1770406,-5.2863975,5.497087,0.0,-6.1700177,-5.2710743,5.5162406,-0.027240695,-0.040861044,-0.013620348,2017-06-04 22:58:16,79.4533391873249
-6.1866174,-5.267244,5.5641246,0.0,-6.1700177,-5.257454,5.529861,0.0,0.027240695,0.05448139,2017-06-04 22:58:17,77.98251594317225
-6.205771,-5.2480903,5.544971,0.0,-6.1700177,-5.257454,5.529861,-0.013620348,0.0,0.0,2017-06-04 22:58:18,59.89784723222944
-6.167464,-5.2480903,5.554548,0.0,-6.1700177,-5.257454,5.529861,-0.013620348,0.027240695,0.040861044,2017-06-04 22:58:19,74.66285682677102
-6.1866174,-5.267244,5.544971,0.0,-6.1700177,-5.257454,5.529861,0.013620348,0.0,0.027240695,2017-06-04 22:58:20,71.73977734484814
-6.167464,-5.1906295,5.583278,0.0,-6.1700177,-5.2302136,5.5434813,-0.027240695,-0.027240695,0.013620348,2017-06-04 22:58:21,51.9135529896159
-6.215348,-5.257667,5.544971,0.0,-6.1700177,-5.2302136,5.5434813,-0.05448139,-0.013620348,0.040861044,2017-06-04 22:58:22,71.05888236648815
-6.1866174,-5.21936,5.583278,0.0,-6.1700177,-5.2302136,5.5571017,-0.05448139,0.0,-0.040861044,2017-06-04 22:58:23,76.42491830085295
-6.1770406,-5.209783,5.5737014,0.0,-6.1836376,-5.2165933,5.5571017,0.0,0.0,0.027240695,2017-06-04 22:58:24,74.19492852790158
-6.196194,-5.21936,5.592855,0.0,-6.1836376,-5.2165933,5.5571017,0.027240695,-0.013620348,0.027240695,2017-06-04 22:58:25,71.333654401956
-6.196194,-5.2385135,5.544971,0.0,-6.1700177,-5.202973,5.570722,-0.027240695,-0.013620348,-0.013620348,2017-06-04 22:58:26,70.9138029640001
-6.253655,-5.2863975,5.48751,0.0,-6.1836376,-5.2165933,5.5571017,-0.027240695,-0.013620348,-0.068101734,2017-06-04 22:58:27,71.39694348487585
-6.291962,-5.2002063,5.4779334,0.0,-6.197258,-5.2165933,5.529861,-0.05448139,0.040861044,-0.068101734,2017-06-04 22:58:28,64.51280467418783
-6.3302693,-5.21936,5.410896,0.0,-6.2517395,-5.202973,5.4890003,-0.05448139,0.0,-0.05448139,2017-06-04 22:58:29,71.29186751410779
-6.3302693,-5.209783,5.439626,0.0,-6.2789803,-5.202973,5.448139,-0.095342435,-0.027240695,-0.040861044,2017-06-04 22:58:30,77.42717779686802
-6.3685765,-5.21936,5.410896,0.0,-6.3198414,-5.1893525,5.407278,-0.013620348,-0.027240695,0.013620348,2017-06-04 22:58:31,77.32837255026239
-6.3685765,-5.2002063,5.4300494,0.0,-6.3334613,-5.1893525,5.407278,-0.040861044,0.0,0.013620348,2017-06-04 22:58:32,74.82330565546603
-6.397307,-5.1906295,5.449203,0.0,-6.3334613,-5.1893525,5.407278,-0.027240695,-0.013620348,0.0,2017-06-04 22:58:33,78.85445542402103
-6.397307,-5.1906295,5.439626,0.0,-6.3470817,-5.1621118,5.407278,-0.040861044,-0.040861044,0.013620348,2017-06-04 22:58:34,73.63960269336546
-6.4164605,-5.1906295,5.4204726,0.0,-6.3470817,-5.1621118,5.407278,-0.05448139,-0.013620348,0.027240695,2017-06-04 22:58:35,45.34175012103682
-6.4164605,-5.21936,5.401319,0.0,-6.360702,-5.1621118,5.393657,-0.013620348,-0.013620348,0.013620348,2017-06-04 22:58:36,62.96987361313836
-6.38773,-5.1810527,5.4204726,0.0,-6.3743224,-5.1621118,5.393657,-0.040861044,-0.040861044,0.027240695,2017-06-04 22:58:38,78.18581970224568
-6.38773,-5.209783,5.3725886,0.0,-6.3743224,-5.1484914,5.393657,-0.040861044,-0.08172209,0.0,2017-06-04 22:58:39,72.04098510843463
-6.4260373,-5.171476,5.4204726,0.0,-6.3743224,-5.1621118,5.393657,-0.013620348,0.0,0.013620348,2017-06-04 22:58:40,78.70491033069672
-6.4164605,-5.171476,5.4204726,0.0,-6.3743224,-5.1484914,5.393657,-0.05448139,-0.013620348,0.013620348,2017-06-04 22:58:41,74.87709880123572
-6.435614,-5.171476,5.401319,0.0,-6.387943,-5.1484914,5.393657,-0.027240695,-0.040861044,0.013620348,2017-06-04 22:58:42,65.44865274767236
-6.435614,-5.1523223,5.401319,0.0,-6.387943,-5.1484914,5.3800373,-0.05448139,0.013620348,0.05448139,2017-06-04 22:58:43,67.24614556593791
-6.483498,-5.161899,5.391742,0.0,-6.401563,-5.134871,5.3800373,-0.040861044,-0.027240695,0.013620348,2017-06-04 22:58:44,72.96524004677904
-6.4164605,-5.1523223,5.3821654,0.0,-6.401563,-5.134871,5.3800373,-0.08172209,-0.027240695,0.013620348,2017-06-04 22:58:45,71.93992585004048
-6.483498,-5.2002063,5.363012,0.0,-6.4151835,-5.1212506,5.366417,0.0,-0.013620348,0.0,2017-06-04 22:58:46,77.12944735697616
-6.435614,-5.142745,5.363012,0.0,-6.4151835,-5.1212506,5.366417,-0.040861044,-0.027240695,-0.013620348,2017-06-04 22:58:47,73.57318665779405
-6.4643445,-5.133168,5.3821654,0.0,-6.428804,-5.1212506,5.3527966,-0.013620348,-0.013620348,0.027240695,2017-06-04 22:58:48,74.19444765888316
-6.445191,-5.1523223,5.3725886,0.0,-6.428804,-5.1076303,5.3527966,-0.027240695,-0.05448139,0.013620348,2017-06-04 22:58:49,72.53319209739647
-6.4643445,-5.1140146,5.3821654,0.0,-6.4424243,-5.1076303,5.366417,-0.040861044,-0.013620348,0.027240695,2017-06-04 22:58:50,73.60743586559454
-6.483498,-5.104438,5.3821654,0.0,-6.4424243,-5.09401,5.366417,-0.05448139,-0.013620348,0.0,2017-06-04 22:58:51,78.27916059620627
-6.493075,-5.1523223,5.3821654,0.0,-6.4560447,-5.09401,5.366417,-0.027240695,-0.013620348,-0.013620348,2017-06-04 22:58:52,77.8007813187555
-6.493075,-5.085284,5.391742,0.0,-6.4560447,-5.09401,5.3527966,-0.013620348,-0.013620348,0.027240695,2017-06-04 22:58:53,74.8913855549051
-6.4739213,-5.1140146,5.353435,0.0,-6.469665,-5.08039,5.339176,-0.027240695,0.013620348,0.068101734,2017-06-04 22:58:54,67.25028819998265
-6.3781533,-5.085284,5.401319,0.0,-6.469665,-5.08039,5.3527966,-0.05448139,-0.068101734,0.040861044,2017-06-04 22:58:55,59.86147503130307
-6.493075,-5.085284,5.3725886,0.0,-6.469665,-5.08039,5.3527966,-0.027240695,0.013620348,0.068101734,2017-06-04 22:58:56,72.99239531395821
-6.5026517,-5.0182467,5.439626,0.0,-6.469665,-5.0531487,5.366417,-0.040861044,0.027240695,0.05448139,2017-06-04 22:58:57,73.31615306057742
-6.5218053,-4.999093,5.45878,0.0,-6.469665,-5.0531487,5.366417,-0.05448139,0.040861044,0.05448139,2017-06-04 22:58:58,64.55345816805173
-6.5122285,-5.0278234,5.4300494,0.0,-6.483285,-5.0122876,5.393657,-0.040861044,0.013620348,0.068101734,2017-06-04 22:58:59,72.80449294326786
-6.493075,-4.9895163,5.45878,0.0,-6.483285,-4.9986672,5.407278,-0.040861044,0.0,0.027240695,2017-06-04 22:59:00,76.17413190792277
-6.540959,-4.9799395,5.4779334,0.0,-6.4969053,-4.985047,5.407278,0.0,-0.013620348,0.040861044,2017-06-04 22:59:01,75.2822409421336
-6.540959,-5.00867,5.401319,0.0,-6.4969053,-4.9578066,5.434519,0.0,-0.013620348,0.027240695,2017-06-04 22:59:02,73.97211247417641
-6.5122285,-4.999093,5.439626,0.0,-6.4969053,-4.9578066,5.4208984,-0.027240695,-0.040861044,-0.027240695,2017-06-04 22:59:03,78.56271981333356
