ACC_X,ACC_Y,ACC_Z,GYRO_X,GYRO_Y,GYRO_Z,LIGH_1,GRAV_X,GRAV_Y,GRAV_Z,LINACC_X,LINACC_Y,LINACC_Z,ROTVEC_X,ROTVEC_Y,ROTVEC_Z,TIME,VOICE
2.6719291,0.8379706,9.425972,-0.17998707,0.004363323,0.1985312,7.04,2.8179753,0.6631939,9.370906,-0.14604631,0.17477672,0.055066638,-0.13717772,-0.0892644,-0.95897526,2016-12-26 22:46:31,37.23680355142128
3.107674,0.50757074,9.67018,-0.07526732,0.011999139,-0.025089107,3.84,3.0142999,0.46686932,9.323022,0.093373865,0.04070143,0.34715924,-0.14734787,-0.069258414,-0.9591129,2016-12-26 22:46:32,39.45717277168927
3.1124623,0.22026655,9.7563715,0.018544123,-0.0141808,0.017453292,4.48,3.040636,0.33279404,9.3182335,0.07182605,-0.11252748,0.4381389,-0.14866957,-0.053244594,-0.95872676,2016-12-26 22:46:33,29.25398047854587
3.1890767,0.06703765,9.588778,0.0,-0.006544985,0.0032724924,5.7599998,3.016694,0.2825158,9.32781,0.17238252,-0.21547815,0.260968,-0.1466299,-0.04535966,-0.9575203,2016-12-26 22:46:34,25.14198981761794
2.9735985,0.20590134,9.488221,0.021816615,0.01308997,-0.006544985,5.12,2.9233203,0.35194764,9.356541,0.050278235,-0.14604631,0.1316811,-0.13967898,-0.044853274,-0.9558997,2016-12-26 22:46:35,27.779415923788232
3.265691,0.4213795,9.646238,0.031634092,0.025089107,0.0021816615,5.7599998,3.0597897,0.61052144,9.299079,0.20590134,-0.18914193,0.34715924,-0.14331093,-0.060814563,-0.95441467,2016-12-26 22:46:36,40.36351301937667
3.098097,0.40222588,9.64145,0.0054541538,0.0283616,-0.009817477,4.48,3.040636,0.62728083,9.303867,0.05746084,-0.22505496,0.33758244,-0.14219984,-0.06275644,-0.95437264,2016-12-26 22:46:37,30.185288685179344
3.1651347,0.40222588,9.569624,0.018544123,-0.018544123,0.0,3.84,3.0310593,0.60812724,9.308656,0.1340753,-0.20590134,0.260968,-0.1420038,-0.06279391,-0.9543272,2016-12-26 22:46:38,36.493561590682425
3.217807,0.44532153,9.464279,-0.0076358155,-0.008726646,-0.0010908308,5.12,3.0358477,0.6488287,9.303867,0.18195933,-0.20350714,0.1604115,-0.14183578,-0.06569631,-0.9540251,2016-12-26 22:46:39,25.69354399092259
2.920926,0.6368576,9.421184,0.017453292,-0.0141808,0.0010908308,5.7599998,2.9137435,0.7781156,9.332599,0.007182605,-0.1412579,0.088585466,-0.13385022,-0.0712924,-0.9543411,2016-12-26 22:46:40,29.200395825523824
3.1747115,0.61770403,9.445126,-0.011999139,0.0,0.008726646,4.48,2.9975405,0.79248077,9.303867,0.17717093,-0.17477672,0.1412579,-0.13832268,-0.07334859,-0.95411813,2016-12-26 22:46:41,29.76019278745565
3.9217024,0.6895301,8.870518,0.5345071,-0.12871803,-0.102538094,2.56,3.8977604,1.043872,8.939949,0.023942016,-0.35434186,-0.06943185,-0.1801901,-0.10186581,-0.94145733,2016-12-26 22:46:42,34.14408537225266
4.841076,-1.1204864,8.042124,-0.14944382,-0.6239552,-0.21162117,6.3999996,5.4300494,-1.5107412,8.025364,-0.58897364,0.39025488,0.016759412,-0.2943151,-0.04284312,-0.8607393,2016-12-26 22:46:43,30.409260615166893
6.215348,-1.6903064,8.429984,0.018544123,0.080721475,0.10581058,3.84,5.8945246,-1.7788919,7.6351094,0.320823,0.088585466,0.79487497,-0.32933813,-0.011848107,-0.87975085,2016-12-26 22:46:44,39.39164579603473
-2.4468741,1.0773908,9.847352,-0.8290314,-0.779944,0.053450707,12.799999,-2.719813,0.34955344,9.416395,0.272939,0.7278373,0.4309563,0.14076309,0.031268716,-0.96166986,2016-12-26 22:46:45,35.09210365555876
-1.2545617,-0.545878,9.976639,0.0,0.009817477,0.0,19.84,-1.5394717,-0.7086837,9.660604,0.28491,0.16280572,0.31603462,0.0715784,0.07577838,-0.95736194,2016-12-26 22:46:47,36.87727521566591
-1.316811,-0.48841715,9.880871,0.0109083075,0.0032724924,0.009817477,19.199999,-1.5011644,-0.6727707,9.667787,0.18435353,0.18435353,0.21308395,0.07252673,0.077225514,-0.95549107,2016-12-26 22:46:48,26.829250071724637
-1.115698,-0.48362875,9.871294,0.0567232,-0.062177356,0.0021816615,12.16,-1.2018893,-0.51714754,9.720459,0.08619126,0.033518825,0.15083471,0.060763374,0.064590305,-0.95655274,2016-12-26 22:46:49,24.6133905110449
7.4746976,-1.292869,13.385982,-0.786489,-0.34579337,0.37524578,9.599999,0.8834604,0.8643068,9.730036,6.591237,-2.1571758,3.655946,-0.021522593,-0.03438221,-0.95584255,2016-12-26 22:46:50,32.26749691639658
1.1204864,0.1388637,10.134656,0.006544985,0.0141808,0.0109083075,14.719999,1.0702082,0.038307227,9.749189,0.050278235,0.10055647,0.3854665,-0.044151336,0.0068143513,-0.96182907,2016-12-26 22:46:51,31.432802948482763
1.5370775,0.33518824,9.957485,-0.019634955,-0.073085666,-0.0010908308,12.799999,1.3862427,0.20350714,9.7084875,0.15083471,0.1316811,0.24899697,-0.057888728,-0.0037401915,-0.96049213,2016-12-26 22:46:52,32.99286154627651
1.7190368,0.4405331,10.115502,0.011999139,-0.021816615,-0.0032724924,12.799999,1.7022774,0.18914193,9.65821,0.016759412,0.25139117,0.45729253,-0.07421894,-0.006227929,-0.9585042,2016-12-26 22:46:53,40.01545506596415
1.910573,0.19632454,9.938332,-0.022907447,0.0010908308,-0.009817477,13.44,1.6639702,0.18195933,9.665392,0.24660277,0.01436521,0.272939,-0.07261312,-0.004430812,-0.95750636,2016-12-26 22:46:54,41.503285846663076
1.7525556,0.6560113,10.168175,0.01308997,0.0021816615,-0.0054541538,11.5199995,1.661576,0.39264908,9.65821,0.090979666,0.2633622,0.50996494,-0.07033764,-0.014432566,-0.95872104,2016-12-26 22:46:55,32.14027676065653
1.7908629,0.7469909,9.627085,0.0054541538,0.07853982,-0.019634955,12.16,1.6903064,0.4141969,9.653421,0.10055647,0.33279404,-0.02633622,-0.07206416,-0.017866705,-0.9589668,2016-12-26 22:46:56,33.11489849828587
1.7764976,0.6895301,9.660604,-0.015271631,-0.0109083075,0.05235988,12.16,1.7118542,0.272939,9.653421,0.06464344,0.4165911,0.007182605,-0.07560858,-0.013021093,-0.9591109,2016-12-26 22:46:57,36.91568988903483
0.38307226,1.7908629,10.737994,-0.05781403,0.35124752,-0.1668971,11.5199995,0.46208093,0.51475334,9.782708,-0.079008654,1.2761095,0.9552865,-0.012319595,-0.008940287,-0.9690276,2016-12-26 22:46:58,34.94930792942233
-0.08619126,0.7757214,9.995792,0.051269047,-0.061086524,-0.0021816615,10.88,-0.06464344,0.33997664,9.801862,-0.021547815,0.4357447,0.19393034,0.010801949,0.0060521597,-0.9718199,2016-12-26 22:46:59,32.56347359650282
0.11971009,0.93373865,10.072407,0.0,0.009817477,-0.0054541538,10.88,0.088585466,0.44532153,9.797073,0.031124622,0.48841715,0.2753332,0.0044963434,-5.885782E-4,-0.9716716,2016-12-26 22:47:00,25.024754860424025
0.17717093,0.91458505,9.981427,0.009817477,-0.040360738,0.011999139,10.88,0.1604115,0.4429273,9.797073,0.016759412,0.47165772,0.18435353,9.1230124E-4,-0.0010431083,-0.9709382,2016-12-26 22:47:01,29.40364970082641
0.023942016,0.8810662,10.09156,0.0,-0.0076358155,0.0,10.88,0.1436521,0.4141969,9.797073,-0.11971009,0.46686932,0.29448682,0.0015348401,8.566575E-4,-0.97056353,2016-12-26 22:47:02,28.17067937699184
0.29688102,1.0869676,10.120291,-0.01308997,-0.119991384,-0.0032724924,10.88,0.37828386,0.62249243,9.7803135,-0.08140286,0.46447513,0.33997664,-0.0074206507,-0.0123641845,-0.97042084,2016-12-26 22:47:03,32.38900880096759
2.9352913,1.0821792,9.334992,0.015271631,-0.25961772,-0.09162979,10.24,2.6791117,0.37828386,9.428367,0.25617957,0.7038953,-0.093373865,-0.12501809,-0.03141529,-0.9603717,2016-12-26 22:47:04,37.02873544991634
2.5905263,0.79008657,9.952697,0.01308997,0.020725785,-0.01308997,10.88,2.5474305,0.19632454,9.469068,0.04309563,0.59376204,0.48362875,-0.11974312,-0.021524657,-0.9587481,2016-12-26 22:47:05,26.760760153875154
3.107674,0.33039984,9.339781,0.13635385,-0.11562806,-0.13526301,14.08,2.9759927,-0.5386954,9.330204,0.1316811,0.8690952,0.009576807,-0.1507571,0.007741347,-0.9519472,2016-12-26 22:47:06,31.65112578066922
3.0214825,0.14844051,9.378088,0.030543262,0.021816615,-0.018544123,13.44,3.1292217,-0.46686932,9.28232,-0.107739076,0.61530983,0.095768064,-0.15737116,0.002394341,-0.9512508,2016-12-26 22:47:07,41.55284215145373
2.1978772,1.0199299,10.053253,0.07526732,0.11453723,-0.2519819,10.88,2.2098482,0.05746084,9.555259,-0.011971008,0.9624691,0.49799395,-0.10003132,-0.016984168,-0.9424438,2016-12-26 22:47:08,37.93888852012068
1.2354081,0.30166942,9.909601,0.023998277,0.022907447,0.0021816615,13.44,1.1994951,-0.41180268,9.725247,0.035913024,0.7134721,0.18435353,-0.059090383,0.024980536,-0.9575589,2016-12-26 22:47:09,29.465177645203088
1.1587936,0.37349546,9.890448,0.009817477,0.02727077,-0.008726646,12.799999,1.1803415,-0.34237084,9.730036,-0.021547815,0.7158663,0.1604115,-0.057495885,0.020201733,-0.95927525,2016-12-26 22:47:10,28.953741963161175
1.1683705,0.35434186,10.129868,0.0141808,-0.02617994,-0.0141808,12.799999,1.1587936,-0.260968,9.734824,0.009576807,0.61530983,0.39504328,-0.055582147,0.014563564,-0.9604926,2016-12-26 22:47:11,23.222623773669497
1.1492168,0.40701428,9.967062,-0.0141808,0.0032724924,0.011999139,12.16,1.1492168,-0.24181437,9.737218,0.0,0.6488287,0.22984336,-0.054942474,0.0118727535,-0.96071017,2016-12-26 22:47:12,23.921581467540424
1.0630256,0.40222588,10.0341,-0.004363323,0.0054541538,-0.004363323,12.799999,1.1899183,-0.30406362,9.730036,-0.12689269,0.7062895,0.30406362,-0.05766016,0.012279522,-0.96008885,2016-12-26 22:47:13,27.01639929805848
1.0726024,0.5602432,10.048465,0.009817477,0.008726646,-0.004363323,12.799999,1.1587936,-0.22026655,9.737218,-0.08619126,0.78050977,0.31124622,-0.05496529,0.00683704,-0.961047,2016-12-26 22:47:14,25.954594779292872
0.9720459,0.47884035,9.82341,0.0109083075,-0.018544123,-0.0010908308,12.16,1.1611878,-0.14604631,9.737218,-0.18914193,0.62488663,0.08619126,-0.053889323,0.0016456507,-0.96170855,2016-12-26 22:47:15,28.771024685451884
0.8858546,0.47405192,9.928755,-0.01308997,0.030543262,-0.011999139,11.5199995,1.2114661,-0.079008654,9.7324295,-0.32561144,0.5530606,0.19632454,-0.05519033,-0.003558185,-0.961862,2016-12-26 22:47:16,27.719654562895965
0.6991069,0.6751649,10.21127,-0.006544985,0.106901415,-0.0425424,12.16,1.1971009,-0.0047884034,9.734824,-0.49799395,0.6799533,0.47644615,-0.053294286,-0.007946977,-0.9628846,2016-12-26 22:47:17,25.173856128345
0.9959879,0.45968673,10.168175,-0.020725785,-0.021816615,0.0076358155,11.5199995,1.163582,0.04070143,9.739613,-0.16759412,0.4189853,0.4285621,-0.0506585,-0.010790942,-0.9630436,2016-12-26 22:47:18,30.721947339304926
0.8571242,0.4261679,9.981427,0.009817477,0.0032724924,0.0076358155,12.16,1.13964,0.07182605,9.742006,-0.2825158,0.35434186,0.23942018,-0.048837587,-0.013003426,-0.9626392,2016-12-26 22:47:19,28.215230810315305
0.90500826,0.51235914,10.077195,0.006544985,-0.022907447,0.0032724924,11.5199995,1.0893618,0.08619126,9.746795,-0.18435353,0.4261679,0.33039984,-0.0459074,-0.0136393905,-0.9629383,2016-12-26 22:47:20,28.878317224864702
0.7469909,0.56982,9.981427,-0.021816615,-0.016362462,0.0021816615,12.16,1.0989386,0.10534488,9.746795,-0.35194764,0.46447513,0.23463176,-0.04565478,-0.015326727,-0.9628468,2016-12-26 22:47:21,33.440162792085324
1.9201498,-0.33997664,9.832987,-0.12980886,-0.067631505,0.0076358155,15.36,2.2505496,-0.62728083,9.526528,-0.33039984,0.2873042,0.30645782,-0.112376414,0.0012101531,-0.9506988,2016-12-26 22:47:22,29.20705822705382
2.0254946,-0.22026655,9.751583,-0.0109083075,0.016362462,-0.050178215,16.64,2.4899697,-0.557849,9.469068,-0.46447513,0.33758244,0.2825158,-0.122664355,-0.0062949583,-0.949534,2016-12-26 22:47:23,35.42507730353863
2.0685902,0.01436521,9.962274,-0.006544985,-0.029452432,-0.0021816615,15.36,2.456451,-0.44532153,9.485827,-0.3878607,0.45968673,0.47644615,-0.118486196,-0.0114698745,-0.95038563,2016-12-26 22:47:24,28.329889791031313
2.0446482,-0.02873042,9.837775,0.0141808,-0.0076358155,0.0076358155,16.0,2.4420857,-0.5506664,9.483433,-0.39743748,0.521936,0.35434186,-0.11854625,-0.0067205764,-0.95021915,2016-12-26 22:47:25,25.36416389896784
1.958457,0.23463176,9.7803135,-0.022907447,-0.0141808,-0.019634955,14.719999,2.420538,-0.36391866,9.497798,-0.46208093,0.59855044,0.2825158,-0.113831416,-0.015729949,-0.9513408,2016-12-26 22:47:26,26.378314935008973
2.0015526,0.14844051,9.828198,0.04363323,-0.035997417,0.0021816615,14.719999,2.456451,-0.4165911,9.485827,-0.45489833,0.5650316,0.34237084,-0.11526869,-0.014444485,-0.9505713,2016-12-26 22:47:27,25.92206838559227
1.9393034,0.19153613,9.765948,0.02727077,-0.016362462,-0.009817477,14.719999,2.480393,-0.3854665,9.481039,-0.5410896,0.5770026,0.28491,-0.11495762,-0.016738512,-0.95055014,2016-12-26 22:47:28,23.71979385449922
1.8818425,0.14844051,9.866506,0.009817477,-0.034906585,0.01308997,14.08,2.4875755,-0.36152446,9.481039,-0.60573304,0.50996494,0.3854665,-0.113811016,-0.018317666,-0.9507721,2016-12-26 22:47:29,23.39057880353451
2.0350714,0.06703765,9.904813,0.0010908308,0.0021816615,-0.0076358155,14.719999,2.5474305,-0.4357447,9.461885,-0.51235914,0.50278234,0.4429273,-0.11663588,-0.016185932,-0.9501457,2016-12-26 22:47:30,48.06452213333026
1.8770541,0.21547815,10.000581,-0.020725785,0.004363323,0.0054541538,14.08,2.56419,-0.36870706,9.459491,-0.6871359,0.58418524,0.5410896,-0.11519514,-0.01988991,-0.9505869,2016-12-26 22:47:31,51.79620541835312
1.8531121,0.1436521,9.76116,0.021816615,-0.046905722,0.009817477,14.08,2.5809495,-0.39743748,9.454702,-0.7278373,0.5410896,0.30645782,-0.11511918,-0.019179203,-0.9502078,2016-12-26 22:47:32,49.71335477004213
2.006341,0.22505496,9.991004,-0.037088245,-0.016362462,-0.006544985,14.719999,2.6384103,-0.40462008,9.437943,-0.63206923,0.62967503,0.5530606,-0.11663857,-0.0200187,-0.9499972,2016-12-26 22:47:34,40.08994813632114
1.7669208,0.1436521,9.880871,0.009817477,-0.0054541538,0.020725785,14.08,2.6551697,-0.4261679,9.433155,-0.8882488,0.56982,0.44771573,-0.116264984,-0.019674394,-0.94962376,2016-12-26 22:47:35,24.471418742529146
1.7717092,0.04309563,10.038888,-0.004363323,0.023998277,-0.029452432,14.719999,2.7006595,-0.4405331,9.41879,-0.92895025,0.48362875,0.62009823,-0.11725864,-0.01968835,-0.94993293,2016-12-26 22:47:36,38.71476609555688
2.2936451,0.39264908,9.43076,-0.11017391,-0.06872234,0.11017391,13.44,3.0430303,-0.24660277,9.320627,-0.7493851,0.6392518,0.110133275,-0.1299461,-0.035285544,-0.9471339,2016-12-26 22:47:37,56.00868141710613
1.7381904,-0.062249243,10.029311,0.017453292,-0.07744899,0.0010908308,14.719999,2.5306711,-0.4165911,9.466674,-0.79248077,0.35434186,0.5626374,-0.105136946,-0.020034716,-0.9483664,2016-12-26 22:47:38,61.74851402401953
1.5514427,0.33518824,9.91439,-0.0141808,-0.051269047,0.0010908308,14.719999,2.6886885,-0.30645782,9.428367,-1.1372458,0.641646,0.48602295,-0.109912805,-0.028018974,-0.9477395,2016-12-26 22:47:39,56.95964569657466
1.6280571,0.11492168,9.85214,-0.0109083075,0.0109083075,0.0054541538,14.08,2.681506,-0.2777274,9.43076,-1.0534488,0.39264908,0.4213795,-0.107732445,-0.02926403,-0.94831526,2016-12-26 22:47:40,63.00281469638861
1.5849615,0.320823,9.703699,-0.0076358155,0.02617994,-0.021816615,12.799999,2.731784,-0.2896984,9.416395,-1.1468226,0.61052144,0.2873042,-0.10891798,-0.029802185,-0.9477589,2016-12-26 22:47:41,57.70112048933715
1.661576,0.39264908,10.105926,-0.0076358155,-0.015271631,-0.038179077,12.799999,2.72939,-0.30406362,9.416395,-1.067814,0.6967127,0.6895301,-0.1075867,-0.028957296,-0.94830114,2016-12-26 22:47:42,24.632582464757746
1.7238252,0.24899697,9.876082,-0.019634955,-0.019634955,0.018544123,13.44,2.719813,-0.320823,9.41879,-0.9959879,0.56982,0.45729253,-0.10575219,-0.028617837,-0.947845,2016-12-26 22:47:43,29.268288686675007
1.6903064,0.4357447,9.947908,0.0032724924,-0.023998277,0.004363323,14.719999,2.791639,-0.38307226,9.394848,-1.1013328,0.81881696,0.5530606,-0.10884754,-0.02718613,-0.94695,2016-12-26 22:47:44,63.959838982078885
1.4173675,0.2681506,10.014946,-0.016362462,0.03926991,-0.0021816615,13.44,2.7700913,-0.4237737,9.399636,-1.352724,0.6919243,0.61530983,-0.106932014,-0.025011078,-0.94727206,2016-12-26 22:47:45,50.51204996527033
1.5179238,0.44532153,9.713276,0.0021816615,-0.031634092,-0.020725785,14.719999,2.8203697,-0.44771573,9.382876,-1.3024458,0.89303726,0.33039984,-0.10818638,-0.024978612,-0.94698,2016-12-26 22:47:46,40.206312514279176
1.5610195,0.5602432,10.177752,0.0141808,-0.030543262,0.0021816615,13.44,2.8299465,-0.36391866,9.385271,-1.2689269,0.92416185,0.79248077,-0.1056896,-0.029039804,-0.947714,2016-12-26 22:47:47,23.70844497395078
1.6519991,0.41180268,9.986216,0.0021816615,-0.008726646,-0.004363323,12.799999,2.8921957,-0.46447513,9.361329,-1.2401965,0.8762778,0.62488663,-0.10883529,-0.025838874,-0.94661474,2016-12-26 22:47:48,25.034104522594024
1.6376339,0.2873042,10.081984,0.0010908308,-0.0054541538,0.011999139,14.08,2.9137435,-0.50038815,9.351752,-1.2761095,0.78769237,0.7302315,-0.108819656,-0.025061004,-0.9460062,2016-12-26 22:47:49,26.798781603610962
1.6424223,0.33518824,9.694122,-0.034906585,0.035997417,0.0109083075,13.44,2.882619,-0.45729253,9.363723,-1.2401965,0.79248077,0.33039984,-0.10510205,-0.026585232,-0.94668984,2016-12-26 22:47:50,29.090197385744943
1.5370775,0.35434186,9.995792,-0.019634955,-0.02617994,0.021816615,14.08,2.930503,-0.5746084,9.3421755,-1.3934253,0.92895025,0.6536171,-0.10784127,-0.02260895,-0.9454442,2016-12-26 22:47:51,26.874527820758765
1.7190368,0.31603462,10.000581,-0.0141808,0.021816615,0.0109083075,14.719999,2.9903579,-0.60573304,9.320627,-1.271321,0.92176765,0.6799533,-0.10977121,-0.022460666,-0.9451107,2016-12-26 22:47:52,25.773146374302836
1.6184803,0.2777274,9.957485,0.006544985,-0.0076358155,-0.0032724924,13.44,3.0142999,-0.5506664,9.3182335,-1.3958195,0.8283938,0.6392518,-0.108451955,-0.02562309,-0.9456725,2016-12-26 22:47:53,26.45283050087793
1.5658079,0.2681506,10.014946,0.0109083075,-0.018544123,0.0021816615,13.44,3.0071173,-0.59615624,9.315839,-1.4413095,0.8643068,0.6991069,-0.107281625,-0.024061698,-0.94514453,2016-12-26 22:47:54,25.199783088756547
1.5466543,0.23942018,9.866506,0.011999139,0.051269047,-0.035997417,14.08,2.954445,-0.58657944,9.332599,-1.4077905,0.82599956,0.533907,-0.10307819,-0.023985159,-0.9456928,2016-12-26 22:47:55,37.868404126455886
1.5179238,0.36391866,9.995792,0.016362462,-0.0054541538,-0.0032724924,12.799999,2.9376855,-0.45968673,9.346964,-1.4197617,0.82360536,0.6488287,-0.09905372,-0.02951198,-0.94677454,2016-12-26 22:47:56,33.535263476409924
1.6807296,0.5267244,10.043676,0.05781403,-0.050178215,-0.0054541538,14.719999,2.9759927,-0.39743748,9.337387,-1.2952632,0.92416185,0.7062895,-0.099006,-0.033706784,-0.9458052,2016-12-26 22:47:57,31.694870710963905
2.0829554,0.6991069,10.9103775,-0.5355979,0.3261584,0.7701265,16.64,2.6767175,-1.0630256,9.375694,-0.59376204,1.7621324,1.5346833,-0.09419879,-0.0010002926,-0.9390689,2016-12-26 22:47:58,31.242677764711523
-0.59855044,-1.091756,9.646238,-0.23016529,-0.18762289,-0.049087387,26.24,1.1827357,-1.8124107,9.564836,-1.7812861,0.7206547,0.08140286,-0.03379272,0.064356595,-0.9431071,2016-12-26 22:47:59,38.46987499509723
-0.31603462,-1.460463,9.828198,-0.0032724924,-0.011999139,0.019634955,35.2,0.9888053,-2.0039468,9.55047,-1.30484,0.5434838,0.2777274,-0.03311652,0.07932247,-0.93957245,2016-12-26 22:48:00,29.922211163526345
-0.39264908,-1.5705963,9.895236,-0.004363323,0.032724924,0.019634955,36.48,0.6895301,-1.9728222,9.581595,-1.0821792,0.40222588,0.31364042,-0.022602154,0.08507006,-0.9371922,2016-12-26 22:48:01,28.992709053944065
-0.2681506,-1.5753847,10.010158,0.0,-0.015271631,-0.015271631,36.48,0.61052144,-1.8626889,9.610326,-0.878672,0.2873042,0.39983168,-0.02027094,0.083337545,-0.9363527,2016-12-26 22:48:02,30.86801613260684
-0.44532153,-1.5897499,10.014946,0.018544123,-0.0021816615,0.0032724924,36.48,0.5482722,-1.8028339,9.624691,-0.9935937,0.21308395,0.39025488,-0.018860731,0.08385128,-0.9363296,2016-12-26 22:48:03,34.82952149516673
-0.5267244,-1.5035586,10.038888,-0.0010908308,0.0054541538,-0.0032724924,37.76,0.40701428,-1.7836803,9.634268,-0.93373865,0.2801216,0.40462008,-0.014340706,0.08585051,-0.93594086,2016-12-26 22:48:04,35.61740473458207
-0.50757074,-1.3982137,9.94312,-0.0054541538,0.006544985,-0.0076358155,37.76,0.33997664,-1.733402,9.646238,-0.8475474,0.33518824,0.29688102,-0.01267191,0.084115505,-0.9367739,2016-12-26 22:48:05,34.528322266260176
0.39264908,1.2880806,7.716512,-0.7810348,-0.8290314,0.4112432,10.88,1.2162545,0.9935937,9.682152,-0.82360536,0.29448682,-1.9656396,-0.008028062,-0.06285557,-0.9356397,2016-12-26 22:48:06,34.31550376858451
1.0007763,-1.2497733,9.746795,-0.0054541538,0.08181231,-0.09599311,28.16,1.757344,-1.4652514,9.536105,-0.7565677,0.21547815,0.21068975,-0.08094537,0.047007844,-0.9313443,2016-12-26 22:48:07,35.269288690678636
3.0885203,-0.0047884034,9.31105,-0.12544554,-0.1734421,-0.16035213,9.599999,3.7301662,-0.02633622,9.0716305,-0.641646,0.021547815,0.23942018,-0.15324849,-0.066332564,-0.9072282,2016-12-26 22:48:08,30.939365208529807
2.5091233,0.46926352,10.144233,-0.08726646,0.034906585,-0.0141808,9.599999,3.040636,0.36391866,9.3182335,-0.5315128,0.10534488,0.82599956,-0.115289055,-0.06745965,-0.9154128,2016-12-26 22:48:09,34.79732426202637
2.4229321,0.40222588,9.727641,0.0010908308,0.023998277,-0.01308997,8.96,2.9472623,0.39983168,9.346964,-0.5243302,0.0023942017,0.38067806,-0.112536825,-0.06627468,-0.915833,2016-12-26 22:48:10,30.124777992283377
2.6144683,0.36870706,9.7803135,0.006544985,-0.021816615,-0.01308997,10.88,2.9281087,0.36152446,9.354146,-0.31364042,0.007182605,0.4261679,-0.11530997,-0.062095106,-0.91989815,2016-12-26 22:48:11,34.18254323091822
2.5378537,0.2873042,9.785102,-0.0283616,-0.01308997,0.0141808,8.96,2.8562827,0.49081135,9.370906,-0.3184288,-0.20350714,0.4141969,-0.11156542,-0.06789873,-0.9206346,2016-12-26 22:48:12,30.37098495056305
2.72939,0.38307226,9.363723,0.033815753,0.015271631,-0.017453292,9.599999,2.8754363,0.46447513,9.3661175,-0.14604631,-0.08140286,-0.0023942017,-0.114278935,-0.068272464,-0.91956824,2016-12-26 22:48:13,26.27457605267039
2.5953147,0.4309563,9.742006,-0.009817477,-0.008726646,-0.011999139,8.96,2.80361,0.2801216,9.394848,-0.20829555,0.15083471,0.34715924,-0.11566937,-0.05891858,-0.91987866,2016-12-26 22:48:14,23.91052786139976
2.585738,0.4213795,9.91439,-0.0141808,-0.0010908308,-0.0021816615,9.599999,2.7820623,0.19632454,9.40203,-0.19632454,0.22505496,0.51235914,-0.11738755,-0.055078328,-0.9204302,2016-12-26 22:48:15,25.484252495327905
2.6001031,0.44532153,9.7803135,-0.01308997,-0.020725785,0.0021816615,8.96,2.7341783,0.088585466,9.41879,-0.1340753,0.35673606,0.36152446,-0.11782788,-0.04983911,-0.9202896,2016-12-26 22:48:16,24.893372800384
2.528277,0.4309563,9.674969,0.01308997,0.0021816615,-0.023998277,9.599999,2.7341783,0.09816227,9.41879,-0.20590134,0.33279404,0.25617957,-0.11838664,-0.05096236,-0.9207637,2016-12-26 22:48:17,26.08748828678732
2.801216,0.58418524,9.569624,0.032724924,0.018544123,-0.017453292,8.32,2.920926,0.40940848,9.354146,-0.11971009,0.17477672,0.21547815,-0.12251495,-0.06956096,-0.9212092,2016-12-26 22:48:18,28.489930492760895
-1.1875241,1.4269443,9.94312,0.361065,1.9340429,-0.21489367,8.96,-1.2473791,1.5729905,9.600749,0.059855044,-0.14604631,0.34237084,0.09661328,-0.049298055,-0.93826807,2016-12-26 22:48:20,24.226889918917106
-1.283292,-0.062249243,10.158598,-0.20616701,-0.046905722,-0.0054541538,15.36,-1.1803415,-0.24660277,9.7324295,-0.10295067,0.18435353,0.4261679,0.061700992,0.04035385,-0.93427044,2016-12-26 22:48:21,26.905117151172647
-1.283292,0.05267244,9.82341,0.053450707,0.06544985,-0.0021816615,16.0,-1.2186487,-0.12210429,9.730036,-0.06464344,0.17477672,0.093373865,0.064761735,0.03722415,-0.9337642,2016-12-26 22:48:22,28.714732037003415
-1.2306197,-0.4405331,9.7084875,0.029452432,-0.019634955,-0.0021816615,14.08,-1.0749966,-0.32561144,9.744401,-0.15562311,-0.11492168,-0.035913024,0.05334653,0.04617177,-0.93150043,2016-12-26 22:48:23,32.227408507672806
-1.2018893,0.20111294,10.120291,-0.031634092,-0.011999139,-0.008726646,12.799999,-0.9504981,0.06703765,9.76116,-0.25139117,0.1340753,0.35913026,0.054224003,0.02658787,-0.93299025,2016-12-26 22:48:24,28.451665393962656
-1.2210429,0.22026655,9.866506,-0.0010908308,-0.015271631,0.0021816615,12.799999,-0.94331545,0.095768064,9.76116,-0.2777274,0.12449849,0.10534488,0.054008957,0.025738861,-0.932894,2016-12-26 22:48:25,27.05300531271316
-1.1300632,0.44532153,9.794679,0.029452432,0.0141808,0.016362462,10.88,-1.0989386,0.28491,9.742006,-0.031124622,0.1604115,0.05267244,0.06412084,0.017952973,-0.93541926,2016-12-26 22:48:26,24.432727687557957
-1.292869,0.29209262,10.139444,0.033815753,0.01308997,0.02617994,6.3999996,-1.1827357,0.37588966,9.730036,-0.110133275,-0.08379706,0.40940848,0.069190726,0.014243491,-0.9344349,2016-12-26 22:48:27,27.411138296161667
-1.292869,0.6607997,10.0341,-0.029452432,-0.0109083075,-0.016362462,5.7599998,-1.283292,0.6560113,9.701305,-0.009576807,0.0047884034,0.33279404,0.07867287,0.0020213202,-0.93250215,2016-12-26 22:48:28,35.91398551281249
-1.3838485,0.6751649,9.866506,-0.10471976,-0.029452432,-0.017453292,5.7599998,-1.340753,0.6895301,9.691729,-0.04309563,-0.01436521,0.17477672,0.08165656,5.7088956E-4,-0.9324804,2016-12-26 22:48:29,31.959209747305856
-1.364695,0.2777274,9.809045,0.037088245,-0.009817477,-0.004363323,11.5199995,-1.2378023,0.21547815,9.727641,-0.12689269,0.062249243,0.08140286,0.06777358,0.020027395,-0.9370464,2016-12-26 22:48:30,28.66657710133324
-1.4652514,0.25857377,9.94312,0.0032724924,-0.035997417,-0.0032724924,12.16,-1.2665327,0.17238252,9.722853,-0.19871874,0.08619126,0.22026655,0.068234876,0.021822836,-0.93760484,2016-12-26 22:48:31,25.94625014350664
-1.6089035,1.8195933,10.675745,0.004363323,-0.21707533,-0.06544985,1.28,-1.1563994,0.9768343,9.689334,-0.45250413,0.842759,0.9864111,0.076703176,-0.01968044,-0.93866396,2016-12-26 22:48:32,24.03931562207491
-1.2306197,1.3838485,10.168175,-0.015271631,0.025089107,-0.0032724924,2.56,-0.9552865,1.0773908,9.701305,-0.2753332,0.30645782,0.46686932,0.06833437,-0.028983815,-0.94095856,2016-12-26 22:48:33,31.865673058191838
-1.0342951,0.93852705,7.93199,0.9882927,0.3370667,-0.018544123,14.08,-1.2138603,0.81642276,9.698911,0.17956513,0.12210429,-1.7669208,0.076654404,-0.01128405,-0.9346571,2016-12-26 22:48:34,39.731651019944316
-1.3742718,0.50278234,10.005369,-0.037088245,0.0109083075,0.017453292,10.24,-1.2449849,0.34955344,9.722853,-0.12928689,0.15322891,0.2825158,0.06932941,0.009933718,-0.9421315,2016-12-26 22:48:35,29.86433009215731
-1.3838485,0.60812724,9.933543,0.02727077,0.017453292,0.008726646,10.24,-1.2473791,0.39264908,9.720459,-0.1364695,0.21547815,0.21308395,0.06982345,0.0074775834,-0.94208384,2016-12-26 22:48:36,42.37413394635681
-1.2976574,0.5650316,9.7084875,0.009817477,0.0054541538,0.0032724924,10.24,-1.2641385,0.39983168,9.718064,-0.033518825,0.16519992,-0.009576807,0.070456415,0.006962996,-0.94197595,2016-12-26 22:48:37,23.768505858476093
-1.3742718,0.58418524,10.019734,-0.016362462,-0.0021816615,-0.0109083075,13.44,-1.2593501,0.4405331,9.715671,-0.11492168,0.1436521,0.30406362,0.07084553,0.0045413636,-0.94227034,2016-12-26 22:48:38,26.084101349392753
-1.3120226,0.6703765,9.933543,-0.018544123,-0.020725785,-0.0032724924,13.44,-1.2330139,0.41180268,9.720459,-0.079008654,0.25857377,0.21308395,0.0689382,0.0050460324,-0.9425009,2016-12-26 22:48:39,24.063769345102703
-1.412579,0.5410896,9.809045,0.0010908308,0.015271631,0.0010908308,9.599999,-1.2066777,0.38067806,9.725247,-0.20590134,0.1604115,0.08379706,0.06714025,0.0056940746,-0.942835,2016-12-26 22:48:40,56.394431842476365
-1.4077905,0.6512229,10.000581,-0.004363323,-0.0076358155,-0.016362462,8.32,-1.2042835,0.33758244,9.727641,-0.20350714,0.31364042,0.272939,0.06635115,0.00728976,-0.9428446,2016-12-26 22:48:41,41.75776100275726
-1.340753,0.60812724,9.995792,-0.018544123,-0.025089107,-0.01308997,6.3999996,-1.2018893,0.30645782,9.727641,-0.1388637,0.30166942,0.2681506,0.065892935,0.008331073,-0.9432453,2016-12-26 22:48:42,56.96314668535542
-1.4221559,0.94810385,9.411607,-0.070904,-0.06981317,-0.053450707,4.48,-1.1252748,0.5650316,9.725247,-0.29688102,0.38307226,-0.31364042,0.06667423,-0.00616657,-0.9440212,2016-12-26 22:48:43,49.575702064485434
-2.2122424,0.272939,9.818622,-0.25743607,-0.35452,-0.17998707,5.12,-1.2354081,-0.11252748,9.730036,-0.9768343,0.3854665,0.088585466,0.06281852,0.023024296,-0.96854496,2016-12-26 22:48:44,34.03293932551199
-0.31124622,1.1540052,9.7324295,-0.44069564,0.52032626,-0.44178647,13.44,0.0047884034,0.7350199,9.7803135,-0.31603462,0.4189853,-0.047884032,0.011824835,0.029388525,0.94281673,2016-12-26 22:48:45,41.541874738861004
1.292869,-0.22984336,9.97185,0.032724924,-0.076358154,0.0032724924,8.96,1.1731589,-0.20350714,9.734824,0.11971009,-0.02633622,0.23702596,-0.05739246,0.0039932244,-0.9627249,2016-12-26 22:48:46,27.735960033646503
1.2641385,-0.46447513,9.813833,0.020725785,0.11017391,-0.011999139,14.08,1.3383588,-0.61291564,9.696517,-0.074220255,0.14844051,0.11731588,-0.073336124,0.028200936,-0.96736956,2016-12-26 22:48:47,32.49753104685945
-1.436521,0.7374141,9.78989,-0.090538956,0.37633663,-0.06981317,14.719999,-1.1372458,0.6607997,9.720459,-0.29927522,0.076614454,0.06943185,-0.036213387,0.03454191,0.94038486,2016-12-26 22:48:48,40.18781089421876
-0.32561144,0.8762778,10.307038,0.0054541538,0.33052173,-0.021816615,12.799999,-0.4165911,1.0606314,9.742006,0.090979666,-0.18435353,0.5650316,-0.009414019,0.05667734,0.9708389,2016-12-26 22:48:49,37.40723300268418
-0.090979666,0.7086837,10.18254,0.0054541538,-0.13744467,0.0076358155,12.799999,-0.12210429,0.7469909,9.77792,0.031124622,-0.038307227,0.40462008,-0.003162574,0.04874006,0.9836985,2016-12-26 22:48:50,36.6656594685463
0.35913026,0.6991069,9.866506,0.016362462,-0.14617133,-0.016362462,12.799999,0.21547815,0.6727707,9.782708,0.1436521,0.02633622,0.08379706,0.012433905,0.046188314,0.983073,2016-12-26 22:48:51,40.679593756622126
0.076614454,0.7278373,10.163386,-0.023998277,0.11235557,-0.015271631,12.799999,0.0,0.6440403,9.787497,0.076614454,0.08379706,0.37588966,0.0012995675,0.048536748,0.9826902,2016-12-26 22:48:52,35.2921078808128
-0.18674773,0.6751649,10.259154,-0.016362462,0.016362462,-0.01308997,12.799999,-0.09816227,0.5243302,9.792285,-0.088585466,0.15083471,0.46686932,-0.004678786,0.044465918,0.9825386,2016-12-26 22:48:53,56.89269328237515
0.04309563,0.63206923,10.014946,0.0,-0.07199483,0.0021816615,12.799999,0.035913024,0.47405192,9.797073,0.007182605,0.15801731,0.21787235,0.0016150866,0.041521013,0.98223895,2016-12-26 22:48:54,36.40026323981445
-0.076614454,0.47405192,10.09156,-0.02617994,-0.0021816615,0.01308997,12.799999,0.12210429,0.40222588,9.799467,-0.19871874,0.07182605,0.29209262,0.005376868,0.03775056,0.98224974,2016-12-26 22:48:55,36.48596002981185
0.05267244,0.545878,10.192117,-0.011999139,0.004363323,-0.004363323,12.799999,0.01436521,0.29927522,9.8042555,0.038307227,0.24660277,0.3878607,-8.9105964E-4,0.034158614,0.98238593,2016-12-26 22:48:56,36.043689488292344
0.04309563,0.521936,9.976639,-0.0109083075,-0.10908308,0.009817477,12.799999,0.08140286,0.29448682,9.8042555,-0.038307227,0.22744916,0.17238252,0.0025583766,0.03389254,0.9821661,2016-12-26 22:48:57,39.34527697803825
0.20111294,0.47405192,10.000581,-0.011999139,0.004363323,0.006544985,12.799999,0.19153613,0.23702596,9.8042555,0.009576807,0.23702596,0.19632454,0.007703391,0.030664705,0.9824282,2016-12-26 22:48:58,39.5219944266872
0.033518825,0.61770403,9.938332,0.0010908308,-0.02727077,0.017453292,12.799999,0.06943185,0.23463176,9.8042555,-0.035913024,0.38307226,0.1340753,0.0017022379,0.03224278,0.9821834,2016-12-26 22:48:59,38.231702199016404
0.33518824,0.40222588,10.206482,0.01308997,0.025089107,0.009817477,12.799999,0.2896984,0.18195933,9.801862,0.045489833,0.22026655,0.40462008,0.012414617,0.028244395,0.98226833,2016-12-26 22:49:00,39.840448398051805
0.15801731,0.45489833,10.149021,-0.009817477,0.0109083075,-0.009817477,12.799999,0.107739076,0.12689269,9.80665,0.050278235,0.32800564,0.34237084,0.0028828476,0.027790254,0.9820919,2016-12-26 22:49:01,27.117193774212083
-0.095768064,0.47884035,10.163386,0.0,0.011999139,0.0109083075,12.799999,-0.05746084,0.033518825,9.80665,-0.038307227,0.44532153,0.35673606,-0.00626929,0.02548097,0.9819037,2016-12-26 22:49:02,32.500843923795905
-0.22505496,0.37828386,10.048465,-0.006544985,0.0010908308,-0.008726646,14.08,-0.20111294,-0.10295067,9.8042555,-0.023942016,0.48123455,0.24420857,-0.014615653,0.0209061,0.98160017,2016-12-26 22:49:03,26.376731485051174
-0.07182605,0.20111294,10.220847,-0.008726646,-0.004363323,0.011999139,14.719999,0.007182605,-0.15083471,9.80665,-0.079008654,0.35194764,0.4141969,-0.0045185657,0.017295133,0.9817172,2016-12-26 22:49:04,27.146405575254597
-0.17238252,0.34476504,10.15381,-0.015271631,0.031634092,0.0032724924,13.44,-0.079008654,-0.1436521,9.80665,-0.093373865,0.48841715,0.34715924,-0.008562021,0.01919376,0.98175114,2016-12-26 22:49:06,30.736618456302637
-0.2825158,0.33518824,10.038888,-0.011999139,0.034906585,0.008726646,14.719999,-0.22266077,-0.19632454,9.8042555,-0.059855044,0.5315128,0.23463176,-0.01625331,0.01908824,0.98174465,2016-12-26 22:49:07,31.773158097652257
-0.2777274,0.40222588,10.206482,0.011999139,0.11453723,0.0021816615,12.799999,-0.17477672,-0.1604115,9.8042555,-0.10295067,0.5626374,0.40222588,-0.0136323385,0.02151953,0.9816527,2016-12-26 22:49:08,23.72298159077237
-0.34476504,0.20590134,10.115502,-0.011999139,0.017453292,-0.025089107,13.44,-0.18914193,-0.18914193,9.8042555,-0.15562311,0.39504328,0.31124622,-0.014720425,0.021338042,0.981814,2016-12-26 22:49:09,23.641365138376266
-0.1436521,0.2681506,10.038888,-0.009817477,0.032724924,-0.019634955,12.799999,-0.06703765,-0.22984336,9.8042555,-0.076614454,0.49799395,0.23463176,-0.009088283,0.019102959,0.98189306,2016-12-26 22:49:10,36.66049348068184
-0.2825158,0.3878607,9.181764,-0.27379853,-0.09817477,0.004363323,14.719999,-0.30406362,-0.24181437,9.799467,0.021547815,0.62967503,-0.61770403,-0.02158879,0.022137301,0.97870886,2016-12-26 22:49:11,35.235849850028224
0.33997664,0.17238252,9.718064,0.034906585,0.040360738,0.038179077,14.08,0.23463176,-0.35673606,9.799467,0.10534488,0.5291186,-0.08140286,0.00420257,0.011623101,0.9799576,2016-12-26 22:49:12,28.75043167411285
0.33997664,-0.19632454,10.196905,0.02617994,-0.062177356,0.015271631,14.719999,0.38307226,-0.6464345,9.77792,-0.04309563,0.45010993,0.4189853,0.009630566,-0.0034932876,0.98249435,2016-12-26 22:49:13,36.0934891545303
0.25378537,-0.6943185,10.072407,-0.06435902,-0.051269047,-0.037088245,14.08,0.2873042,-1.1133038,9.739613,-0.033518825,0.4189853,0.33279404,7.8243576E-4,-0.025295028,0.98317444,2016-12-26 22:49:14,32.84504989972305
-0.12928689,-0.4309563,9.794679,-0.01308997,0.0054541538,0.016362462,14.719999,-0.02873042,-0.9816227,9.758766,-0.10055647,0.5506664,0.035913024,-0.01357474,-0.015157325,0.9837707,2016-12-26 22:49:15,32.60595049237256
0.1388637,-0.18674773,10.053253,0.0021816615,0.0,0.0,14.08,0.0047884034,-0.8331822,9.773131,0.1340753,0.6464345,0.2801216,-0.010377588,-0.007326632,0.984022,2016-12-26 22:49:16,28.86767945922376
-0.05267244,-0.1388637,10.149021,0.038179077,0.04363323,-0.009817477,14.719999,0.09816227,-0.7637503,9.77792,-0.15083471,0.62488663,0.37110126,-0.004906661,-0.0040961076,0.98451656,2016-12-26 22:49:17,28.153591072621055
-0.11971009,-0.320823,9.885659,-0.040360738,-0.01308997,-0.006544985,14.08,-0.05746084,-0.9816227,9.758766,-0.062249243,0.6607997,0.12689269,-0.014858216,-0.012954652,0.98413813,2016-12-26 22:49:18,26.723884453907758
-0.320823,-0.4261679,10.029311,-0.050178215,-0.016362462,-0.0076358155,16.0,-0.16519992,-1.0534488,9.749189,-0.15562311,0.62728083,0.2801216,-0.021041168,-0.014915971,0.9839734,2016-12-26 22:49:19,28.625040683275014
-0.51235914,-0.40222588,10.110714,-0.02617994,0.0032724924,0.0010908308,14.08,-0.15801731,-1.1109096,9.742006,-0.35434186,0.7086837,0.36870706,-0.021472795,-0.018114662,0.9835334,2016-12-26 22:49:20,27.50302641214001
0.07182605,-0.50278234,9.627085,-0.051269047,-0.02727077,-0.18980455,14.08,-0.12449849,-1.127669,9.742006,0.19632454,0.62488663,-0.11492168,-0.020171262,-0.0204182,0.9824748,2016-12-26 22:49:21,22.617484517844325
0.80445176,-0.62728083,10.45069,-0.0141808,0.07199483,0.011999139,16.0,0.80684596,-1.2976574,9.68694,-0.0023942017,0.6703765,0.7637503,0.021077447,-0.039386243,0.97418225,2016-12-26 22:49:22,29.983474456268652
-0.01436521,-0.5506664,10.005369,-0.02727077,0.018544123,0.011999139,15.36,0.41180268,-1.1324574,9.7324295,-0.4261679,0.581791,0.272939,0.0045280624,-0.027669722,0.9777462,2016-12-26 22:49:23,32.65391291210768
0.79487497,1.0342951,5.145139,0.0021816615,0.03926991,0.0076358155,13.44,0.46686932,0.8643068,9.758766,0.32800564,0.16998832,-4.6136265,0.028057985,0.07275748,0.9833168,2016-12-26 22:49:24,29.734790357889334
-0.2681506,0.8283938,10.149021,-0.046905722,-0.05781403,0.023998277,13.44,-0.12928689,0.29209262,9.801862,-0.1388637,0.5363012,0.34715924,-0.006534571,0.046649553,0.98504823,2016-12-26 22:49:25,39.42647442657528
0.25857377,0.79966336,10.225636,0.0,-0.141808,0.04145157,13.44,0.4381389,0.1340753,9.797073,-0.17956513,0.6655881,0.4285621,0.021201119,0.032077912,0.9875697,2016-12-26 22:49:26,34.7885076202278
1.5849615,0.78529817,9.94312,-0.07526732,-0.47996554,0.13635385,13.44,1.4389153,0.2896984,9.696517,0.14604631,0.49559975,0.24660277,0.073665455,0.03168222,0.9879072,2016-12-26 22:49:27,35.087465315316415
-2.6527755,0.1340753,9.722853,-0.03926991,0.1559888,-0.035997417,16.0,-2.183512,-0.58418524,9.543288,-0.46926352,0.7182605,0.17956513,-0.114259094,0.004935935,0.9896917,2016-12-26 22:49:28,50.960455369039366
-0.19153613,0.62728083,9.813833,-0.6774059,-0.9021171,-0.59450275,16.64,-2.695871,0.46686932,9.41879,2.504335,0.1604115,0.39504328,-0.13653702,0.04675061,0.98952997,2016-12-26 22:49:29,34.785153920460786
1.0055647,-0.12449849,10.263943,0.11562806,-0.08835729,0.011999139,15.36,1.4413095,-0.9696517,9.653421,-0.4357447,0.8451532,0.61052144,0.06490529,-0.03968655,0.9849956,2016-12-26 22:49:30,64.60632513362096
0.9768343,-0.44532153,9.97185,-0.0076358155,-0.0010908308,-0.008726646,15.36,1.2138603,-0.90500826,9.689334,-0.23702596,0.45968673,0.2825158,0.054797053,-0.037215397,0.98639953,2016-12-26 22:49:31,44.65869177263643
1.043872,-0.46926352,10.134656,0.0,-0.0010908308,0.011999139,15.36,1.1947067,-0.866701,9.696517,-0.15083471,0.39743748,0.4381389,0.05441769,-0.03736255,0.98614085,2016-12-26 22:49:32,31.84064729054625
0.8619126,-0.48841715,9.967062,0.0010908308,0.008726646,-0.008726646,15.36,1.1803415,-0.81881696,9.701305,-0.3184288,0.33039984,0.2657564,0.054110277,-0.03649422,0.9860165,2016-12-26 22:49:33,44.79120312666629
0.90500826,-0.48841715,9.923966,-0.0076358155,-0.009817477,0.004363323,13.44,1.1827357,-0.79008657,9.703699,-0.2777274,0.30166942,0.22026655,0.054510366,-0.03616983,0.98587555,2016-12-26 22:49:34,33.57558883075961
1.0534488,-0.47884035,10.024523,0.008726646,-0.008726646,-0.0010908308,13.44,1.1683705,-0.7493851,9.7084875,-0.11492168,0.2705448,0.31603462,0.054013215,-0.03510391,0.9857579,2016-12-26 22:49:35,38.74743871194761
0.9959879,-0.45968673,10.058042,-0.0109083075,0.0032724924,0.0010908308,12.799999,1.1659763,-0.7374141,9.710882,-0.16998832,0.2777274,0.34715924,0.05403254,-0.035622247,0.98558956,2016-12-26 22:49:36,30.472407846413038
0.9864111,-0.51714754,10.129868,0.011999139,0.004363323,-0.0109083075,14.719999,1.1683705,-0.7038953,9.713276,-0.18195933,0.18674773,0.4165911,0.054301452,-0.03484926,0.98553157,2016-12-26 22:49:37,41.82641739245193
0.9768343,-0.45010993,10.029311,0.011999139,0.004363323,0.0109083075,14.08,1.163582,-0.6919243,9.713276,-0.18674773,0.24181437,0.31603462,0.054087155,-0.034961656,0.98541915,2016-12-26 22:49:38,31.954349115966476
0.9576807,-0.40222588,9.986216,0.018544123,-0.008726646,0.0021816615,15.36,1.163582,-0.6775591,9.715671,-0.20590134,0.2753332,0.2705448,0.05405779,-0.03485032,0.98535275,2016-12-26 22:49:39,29.29563666419483
0.9864111,-0.545878,9.97185,-0.011999139,-0.006544985,-0.0054541538,16.0,1.1779473,-0.6631939,9.713276,-0.19153613,0.11731588,0.25857377,0.054566253,-0.034761827,0.985148,2016-12-26 22:49:40,36.47294317063605
1.0342951,-0.5267244,9.94312,-0.006544985,-0.01308997,0.0021816615,16.0,1.1611878,-0.6464345,9.718064,-0.12689269,0.11971009,0.22505496,0.053688895,-0.0342197,0.9851624,2016-12-26 22:49:41,36.268448688431356
0.89543146,-0.56982,10.014946,0.0,-0.011999139,-0.0010908308,16.0,1.1587936,-0.6512229,9.718064,-0.2633622,0.08140286,0.29688102,0.053321358,-0.034778584,0.98532844,2016-12-26 22:49:42,27.21520370526235
0.9816227,-0.5267244,9.967062,0.006544985,-0.0054541538,0.0,16.0,1.1372458,-0.6560113,9.720459,-0.15562311,0.12928689,0.24660277,0.052002907,-0.035177477,0.985338,2016-12-26 22:49:43,25.930413381358335
1.0773908,-0.47884035,10.024523,-0.009817477,-0.0054541538,-0.01308997,16.0,1.1372458,-0.641646,9.720459,-0.059855044,0.16280572,0.30406362,0.05193774,-0.034739416,0.9852988,2016-12-26 22:49:44,30.74885740667597
0.9959879,-0.59855044,9.967062,0.0054541538,0.004363323,0.0054541538,12.799999,1.1324574,-0.6392518,9.720459,-0.1364695,0.04070143,0.24660277,0.051423833,-0.034893043,0.9851737,2016-12-26 22:49:45,31.55311993690079
2.2170308,-0.59376204,9.7803135,-0.4003349,-0.1559888,0.63922685,15.36,1.412579,-0.85473,9.667787,0.80445176,0.260968,0.11252748,0.06342285,-0.04861101,0.9833195,2016-12-26 22:49:46,46.46969712880456
-0.20590134,3.0310593,8.760384,0.46360308,0.09272061,-0.20289452,11.5199995,0.7517793,2.2697031,9.512163,-0.9576807,0.7613561,-0.7517793,0.05627516,0.11458419,0.97737443,2016-12-26 22:49:47,49.42197229783676
0.521936,1.4652514,10.000581,0.0,-0.04363323,-0.021816615,13.44,0.7445967,1.340753,9.68694,-0.22266077,0.12449849,0.31364042,0.04586618,0.06846298,0.9901799,2016-12-26 22:49:48,58.471087411713995
0.58897364,1.7381904,9.770737,-0.0054541538,0.0283616,0.006544985,13.44,0.7685388,1.5179238,9.660604,-0.17956513,0.22026655,0.110133275,0.049701344,0.0756606,0.98918283,2016-12-26 22:49:49,32.94579653328878
0.46447513,1.4269443,9.607931,0.009817477,0.06544985,-0.0054541538,13.44,0.6488287,1.520318,9.667787,-0.18435353,-0.093373865,-0.059855044,0.044093125,0.07587975,0.9896708,2016-12-26 22:49:50,40.23577287138241