ACC_X,ACC_Y,ACC_Z,GYRO_X,GYRO_Y,GYRO_Z,LIGH_1,GRAV_X,GRAV_Y,GRAV_Z,LINACC_X,LINACC_Y,LINACC_Z,ROTVEC_X,ROTVEC_Y,ROTVEC_Z,TIME,VOICE
2.143409,7.797915,9.5798,-0.84529406,-0.32508752,1.992795,0.0,0.0,0.0,0.0,0.0,0.0,0.0,0.0,0.0,0.0,2017-06-24 21:17:48,63.39933877818568
5.837662,2.3127987,7.307702,-0.38767728,0.051648177,-0.12607741,0.0,1.4882725,6.5945096,7.1040745,4.5026183,-3.9130037,0.4598074,0.34086657,0.14697954,0.54635304,2017-06-24 21:17:49,68.83022729174391
6.096236,2.219425,7.4681134,-0.017326914,0.0101433955,0.0112076225,0.0,1.3492756,6.092341,7.565265,4.7469606,-3.872916,-0.09715176,0.31203753,0.13004386,0.5413154,2017-06-24 21:17:50,74.86225422113962
6.057929,2.2361844,7.4848733,0.018856741,-0.0036915313,-0.0036915294,0.0,2.021124,5.734227,7.6944194,4.036805,-3.4980428,-0.20954609,0.314339,0.09425922,0.55667293,2017-06-24 21:17:51,82.35243810504576
6.3260794,2.2457612,7.5136037,0.27427077,-0.7209793,0.061226204,0.0,3.0540583,5.159053,7.7606244,3.272021,-2.9132917,-0.24702072,0.32103953,0.035382494,0.5684256,2017-06-24 21:17:52,62.1147357583138
7.453748,2.0398598,6.3763576,-0.024776492,0.005886495,-0.04306786,0.0,5.163618,3.9066153,7.365175,2.2901301,-1.8667555,-0.9888172,0.33681598,-0.105050415,0.54426,2017-06-24 21:17:53,80.83287769269164
7.0347633,2.0614076,6.83365,-0.009877339,0.00482227,0.008014948,0.0,5.649022,2.9991257,7.433988,1.3857412,-0.93771815,-0.600338,0.3205241,-0.13504218,0.5924313,2017-06-24 21:17:54,82.65711884977168
4.099472,0.44532153,7.367557,-0.2025021,1.9778957,-0.1207563,0.0,5.3342967,0.46259537,8.2159395,-1.2348247,-0.017273843,-0.8483825,0.21468207,-0.1871236,0.6654987,2017-06-24 21:17:55,62.944911716582254
0.31902736,-0.16519992,3.8265328,-0.48771444,-1.3318446,0.07506113,30.0,-0.1326214,1.7029532,9.656747,-0.6664434,-6.7579746E-4,-0.8885813,0.039606556,0.07793773,0.85035604,2017-06-24 21:17:56,81.5192156999415
-0.3369839,0.07182605,10.142437,-2.9931264E-4,0.0016295945,-0.0015630787,13.0,0.17186192,0.168779,9.803692,-0.5088458,-0.09695295,0.33874512,0.011790369,0.0034414309,0.8811567,2017-06-24 21:17:57,82.43499791982242
-0.3752911,-0.023942016,9.859921,7.649129E-4,5.6536915E-4,-4.988536E-4,13.0,0.17959853,-0.04349732,9.804909,-0.5548896,0.019555304,0.055012703,0.007395184,-0.00583847,0.90863895,2017-06-24 21:17:58,81.98036792721885
-0.3633201,0.0023942017,9.843162,7.649129E-4,5.6536915E-4,-0.0015630787,13.0,0.1386178,-0.16053833,9.804357,-0.5402451,0.15335573,0.13217926,0.0036506744,-0.010180055,0.9330195,2017-06-24 21:17:59,83.0799195640061
-0.3321955,-0.033518825,9.814431,7.649129E-4,5.6536915E-4,-0.0015630787,13.0,0.08045895,-0.23502584,9.803503,-0.41265443,0.20150702,0.010928154,3.245022E-4,-0.012662577,0.9540062,2017-06-24 21:18:00,81.95842577333028
-0.30825347,0.04070143,10.053851,7.649129E-4,5.6536915E-4,-0.0026273048,17.0,0.020026425,-0.2586759,9.803218,-0.32827988,0.29937732,0.25063324,-0.0022791505,-0.013031621,0.9687267,2017-06-24 21:18:01,83.5006001257097
-0.3561375,0.033518825,9.905411,-2.9931264E-4,5.6536915E-4,5.653715E-4,13.0,-0.0475951,-0.27502033,9.802678,-0.30854243,0.30853915,0.10273266,-0.0052057416,-0.013245764,0.97934586,2017-06-24 21:18:02,81.56218649789933
-0.3393781,0.019153614,9.895834,-2.9931264E-4,-4.9885595E-4,-4.988536E-4,17.0,-0.11391239,-0.2691004,9.802296,-0.2254657,0.28825402,0.093538284,-0.007964762,-0.012593269,0.9865524,2017-06-24 21:18:03,82.83878078652307
-0.3369839,-0.04309563,9.491214,-2.9931264E-4,5.6536915E-4,-0.0015630787,13.0,-0.18102941,-0.25110012,9.801764,-0.15595448,0.20800449,-0.31054974,-0.010814463,-0.0114980955,0.99142236,2017-06-24 21:18:04,81.69563234235227
-0.3393781,0.01436521,9.845556,7.649129E-4,5.6536915E-4,-0.0015630787,17.0,-0.22999388,-0.22443275,9.801384,-0.10938421,0.23879796,0.044172287,-0.01286492,-0.010149609,0.9943378,2017-06-24 21:18:05,82.76784966737614
-0.38965634,-0.023942016,9.752182,7.649129E-4,5.6536915E-4,-0.0015630787,17.0,-0.26677996,-0.19366331,9.801107,-0.12048218,0.20084591,-0.0537138,-0.014411839,-0.008653925,0.9960642,2017-06-24 21:18:06,76.55409097630968
-0.39205053,0.023942016,9.428965,7.649129E-4,5.6536915E-4,-0.0015630787,13.0,-0.29426503,-0.15190144,9.801057,-0.0977855,0.17584345,-0.37209225,-0.0155425295,-0.006602537,0.9970599,2017-06-24 21:18:07,81.02068211979602
-0.3752911,0.016759412,9.955689,0.0018291378,-4.9885595E-4,-0.0015630787,17.0,-0.31801298,-0.11793867,9.800783,-0.057278126,0.13469808,0.15490627,-0.016585985,-0.0049042534,0.99756396,2017-06-24 21:18:08,82.60988561477588
-0.3298013,-0.009576807,9.86471,7.649129E-4,5.6536915E-4,-0.0015630787,13.0,-0.33443052,-0.090821914,9.800525,0.0046292245,0.08124511,0.06418514,-0.0173116,-0.003548601,0.9978608,2017-06-24 21:18:09,78.24431639902593
-0.3513491,0.01436521,9.924564,7.649129E-4,-4.9885595E-4,-4.988536E-4,17.0,-0.3363345,-0.0593878,9.800701,-0.015014589,0.07375301,0.12386322,-0.01730715,-0.0019459274,0.99787694,2017-06-24 21:18:10,82.69927421052236
-0.3298013,-0.016759412,9.917382,7.649129E-4,5.6536915E-4,-4.988536E-4,13.0,-0.33946365,-0.042330068,9.800682,0.00966236,0.025570655,0.11670017,-0.017413815,-0.0010346366,0.99775517,2017-06-24 21:18:11,81.349135253349
-0.29628247,-0.033518825,9.809643,7.649129E-4,-0.0058199815,-0.0015630787,13.0,-0.36001432,-0.033506703,9.799982,0.06373185,-1.2122095E-5,0.009660721,-0.01843361,-4.0609227E-4,0.99732685,2017-06-24 21:18:12,82.96238213980044
-0.3393781,0.007182605,9.821614,7.649129E-4,5.6536915E-4,-0.0015630787,13.0,-0.35112727,-0.013711064,9.800352,-0.052894264,0.028076274,-0.019439697,-0.017905725,6.9035025E-4,0.9968333,2017-06-24 21:18:13,83.59330726621769
-0.3537433,-0.04070143,9.871892,7.649129E-4,5.6536915E-4,-0.0015630787,17.0,-0.3439063,-0.0027631125,9.800617,-0.009837002,-0.03793832,0.07127476,-0.017483424,0.0013774558,0.9960944,2017-06-24 21:18:14,83.30298173072262
-0.3633201,-0.035913024,9.615712,-2.9931264E-4,5.6536915E-4,-0.0015630787,15.0,-0.33906078,0.0033195436,9.800786,-0.024259329,-0.039232567,-0.18507385,-0.017193997,0.001826135,0.9952448,2017-06-24 21:18:15,83.03917489976749
-0.3728969,0.0,9.594165,7.649129E-4,-4.9885595E-4,-0.0015630787,13.0,-0.33849955,0.009147188,9.800802,-0.034397364,-0.009147188,-0.20663738,-0.017116714,0.002277346,0.99431753,2017-06-24 21:18:16,83.03199945027416
-0.3321955,-0.023942016,9.862315,-2.9931264E-4,0.0016295945,-0.0015630787,17.0,-0.33056843,0.011153558,9.801071,-0.0016270578,-0.035095572,0.06124401,-0.016681314,0.0024910886,0.99330944,2017-06-24 21:18:17,83.6434250258027
-0.3441665,-0.019153614,9.826403,7.649129E-4,0.0016295945,-0.0015630787,17.0,-0.32729584,0.008725245,9.801183,-0.016870648,-0.027878858,0.025219917,-0.016504228,0.0025212683,0.99206686,2017-06-24 21:18:18,72.02538172297011
-0.3824737,-0.021547815,9.761759,-2.9931264E-4,0.0016295945,-0.0015630787,13.0,-0.32674065,0.00851971,9.801202,-0.055733055,-0.030067526,-0.039443016,-0.016453056,0.0026626377,0.990848,2017-06-24 21:18:19,83.38544271813757
-0.38965634,-0.035913024,9.778519,7.649129E-4,-4.9885595E-4,-0.0026273048,17.0,-0.33400783,0.00828793,9.800957,-0.055648506,-0.044200953,-0.02243805,-0.016799327,0.0028380805,0.98971313,2017-06-24 21:18:20,82.43103308275445
-0.30825347,-0.11252748,9.960478,7.649129E-4,-4.9885595E-4,-0.0015630787,0.0,-0.33741516,0.0015878513,9.800843,-0.028299153,-0.16678777,0.2338543,-0.016997749,0.0026696755,0.98846245,2017-06-24 21:18:21,83.22063767348962
-2.2499511,-1.2090719,8.648455,-0.40683332,0.8370463,-0.1548115,0.0,-2.1113698,-1.0566313,9.518195,-0.13858128,-0.15244055,-0.8697405,-0.11091641,-0.049037438,0.99148875,2017-06-24 21:18:22,77.9265688642436
-8.683171,-5.671864,14.22934,1.2565506,-1.5979007,2.275879,0.0,-3.5381374,1.0956362,9.080284,-5.145034,-6.7675004,5.1490555,0.17767863,0.07392348,-0.7539696,2017-06-24 21:18:23,60.72747322940049
-1.797447,-0.46686932,10.609306,-0.63564175,-0.07073771,0.39113602,0.0,0.045196712,-1.7759861,9.644388,-1.8426437,1.3091167,0.96491814,-0.07921694,0.044696193,-0.511272,2017-06-24 21:18:24,69.64617600021596
-1.5412674,-2.8443117,6.7067575,-0.7750552,0.36240193,-0.9732007,0.0,0.40260777,-3.4931512,9.1545725,-1.9438752,0.6488395,-2.447815,-0.17967033,0.031069152,-0.27736855,2017-06-24 21:18:26,73.8668624219497
1.0205284,-4.9296613,11.377845,0.39559245,0.16126336,-0.49855623,0.0,0.0806314,-0.6339239,9.785808,0.93989706,-4.2957373,1.5920372,-0.031999096,0.006224353,-0.31310147,2017-06-24 21:18:27,82.81947987829206
2.272696,-5.4061074,7.5112095,-0.96555156,-0.49536353,0.5316137,0.0,0.6993503,-3.177607,9.251168,1.5733457,-2.2285004,-1.7399588,-0.16828606,0.0012294935,-0.21890485,2017-06-24 21:18:28,81.46050001052942
2.8113914,-7.69257,4.0276456,0.5679969,1.4393978,0.51352185,0.0,5.366856,-7.7205033,2.7858722,-2.5554647,0.02793312,1.2417734,-0.23845276,-0.5487261,0.42113566,2017-06-24 21:18:29,76.14974708416018
6.8839283,-6.5218053,7.5351515,1.1139444,3.5923252,-0.6432909,0.0,7.025224,-6.629229,1.6940914,-1.975254,0.55274534,-1.8299624,-0.18324725,-0.61647856,0.34507293,2017-06-24 21:18:30,82.215583285338
-19.325397,-0.23223756,-19.755754,0.7989338,-0.029232936,0.57524693,1.0,2.0275705,1.0868012,-9.53301,-21.352968,-1.3190387,-10.222745,0.6784833,-0.72505766,0.03038726,2017-06-24 21:18:31,78.0696287478622
0.27114335,-0.2825158,-9.595362,-2.9931264E-4,5.6536915E-4,-0.0026273048,0.0,-0.4544357,0.99004364,-9.745958,0.725579,-1.2725594,0.15059662,0.59036183,-0.80521953,-0.054493185,2017-06-24 21:18:32,81.84601815041782
0.27114335,-0.22266077,-9.8994255,-2.9931264E-4,0.0016295945,-0.0015630787,0.0,0.01731607,0.88157725,-9.766932,0.26100987,-1.0779018,0.13326263,0.53730524,-0.84218645,-0.037456017,2017-06-24 21:18:33,82.51355531108972
0.3238158,-0.22505496,-9.140464,7.649129E-4,5.6536915E-4,-0.0015630787,0.0,0.45597935,0.6260313,-9.776019,-0.13216355,-0.85108626,0.63555527,0.47386268,-0.87971157,-0.017089363,2017-06-24 21:18:34,82.85391554539481
0.29747957,-0.24899697,-9.456498,-0.0013635377,5.6536915E-4,-0.0015630787,0.0,0.70625186,0.3184643,-9.775999,-0.4087723,-0.56746125,0.31950092,0.41145724,-0.91057134,3.10469E-5,2017-06-24 21:18:35,81.97796883761319
0.27353755,-0.25617957,-9.710283,-2.9931264E-4,5.6536915E-4,-0.0015630787,0.0,0.80978906,0.03425065,-9.7731,-0.54822254,-0.30000705,-0.0042209625,0.34799817,-0.93658245,0.012754328,2017-06-24 21:18:36,82.76183441967385
0.26635495,-0.25139117,-9.69113,7.649129E-4,0.0016295945,-0.0026273048,0.0,0.82564944,-0.20467766,-9.769686,-0.55929446,-0.046713516,0.07855606,0.2931981,-0.95506555,0.022351447,2017-06-24 21:18:37,76.33047618414653
0.28072014,-0.2657564,-9.624092,-2.9931264E-4,5.6536915E-4,-4.988536E-4,0.0,0.7859866,-0.3530576,-9.7687235,-0.5052664,0.087301195,0.14463139,0.25493777,-0.96595705,0.027658023,2017-06-24 21:18:38,82.79497244296311
0.25438392,-0.20590134,-9.789292,7.649129E-4,0.0016295945,-0.0015630787,0.0,0.722029,-0.4541725,-9.769481,-0.46764505,0.24827115,-0.01981163,0.22934875,-0.9723703,0.031018402,2017-06-24 21:18:39,82.37006028365226
0.28072014,-0.2825158,-9.722255,-2.9931264E-4,5.6536915E-4,-0.0015630787,0.0,0.65665495,-0.5031154,-9.771695,-0.3735406,0.27566624,-0.0032320023,0.2152386,-0.9756486,0.032290846,2017-06-24 21:18:40,82.23330274156135
0.27353755,-0.24899697,-9.794081,-2.9931264E-4,0.0016295945,-0.0015630787,0.0,0.58835363,-0.5153437,-9.775411,-0.3148161,0.26634675,-0.018670082,0.2083772,-0.97723395,0.0319788,2017-06-24 21:18:41,81.70377733185481
0.23283611,-0.2896984,-9.753379,-2.9931264E-4,5.6536915E-4,-0.0015630787,0.0,0.53112626,-0.5089259,-9.779024,-0.29829013,0.21922752,0.025645256,0.20820914,-0.977364,0.03104265,2017-06-24 21:18:42,77.28393649862197
0.28311434,-0.2633622,-9.731832,-2.9931264E-4,5.6536915E-4,-0.0026273048,0.0,0.4782986,-0.48194298,-9.783116,-0.19518426,0.21858078,0.05128479,0.21288301,-0.9764635,0.029220428,2017-06-24 21:18:43,81.99572958494113
0.26635495,-0.24660277,-9.772532,-2.9931264E-4,5.6536915E-4,-0.0015630787,0.0,0.43458286,-0.45419544,-9.786486,-0.16822791,0.20759267,0.013953209,0.21771176,-0.9754863,0.02744202,2017-06-24 21:18:44,82.92529794154768
0.26635495,-0.23942018,-9.533113,-2.9931264E-4,5.6536915E-4,-0.0026273048,0.0,0.39615026,-0.42464077,-9.789444,-0.12979531,0.1852206,0.25633144,0.22522432,-0.9738566,0.025656229,2017-06-24 21:18:45,62.09759016579891
0.24241292,-0.23942018,-9.674371,7.649129E-4,-4.9885595E-4,-0.0026273048,0.0,0.35647014,-0.39455023,-9.792224,-0.11405721,0.15513006,0.117853165,0.23325107,-0.97203827,0.023810806,2017-06-24 21:18:46,82.25529706078972
0.26874915,-0.24420857,-9.750985,-0.0013635377,0.0016295945,-0.0015630787,0.0,0.3340419,-0.35958534,-9.79436,-0.065292746,0.11537677,0.043375015,0.23994932,-0.9704626,0.02189261,2017-06-24 21:18:47,81.83874342383325
0.26156655,-0.29927522,-9.739014,-0.0013635377,0.0016295945,-0.0015630787,0.0,0.31761748,-0.33105794,-9.795912,-0.056050926,0.031782717,0.056898117,0.24683344,-0.9687754,0.020360572,2017-06-24 21:18:48,81.8353626533761
0.24480712,-0.24660277,-9.774927,7.649129E-4,0.0016295945,-0.0015630787,0.0,0.30496868,-0.30706766,-9.797097,-0.06016156,0.06046489,0.022170067,0.2536642,-0.96704054,0.01909362,2017-06-24 21:18:49,80.64125910177303
0.30945057,-0.260968,-9.679159,-2.9931264E-4,-4.9885595E-4,-0.0026273048,0.0,0.2956208,-0.2874347,-9.7979765,0.013829768,0.026466697,0.11881733,0.25835738,-0.9658205,0.018056255,2017-06-24 21:18:50,68.04774181167491
0.28790274,-0.22266077,-9.631275,-2.9931264E-4,5.6536915E-4,-0.0015630787,0.0,0.28037748,-0.27090773,-9.798901,0.007525265,0.048246965,0.16762543,0.26271024,-0.96467,0.017086722,2017-06-24 21:18:51,81.93203301146951
0.3238158,-0.2633622,-9.758167,-2.9931264E-4,5.6536915E-4,-0.0015630787,0.0,0.26868474,-0.26392218,-9.799415,0.0096412,0.005348414,0.12743855,0.2665473,-0.96363044,0.01662448,2017-06-24 21:18:52,78.55501146383315
0.29747957,-0.2825158,-9.71986,-0.0013635377,5.6536915E-4,-0.0015630787,0.0,0.26359117,-0.25874743,-9.799691,0.0338884,-0.023768365,0.07983112,0.27039772,-0.9625644,0.016338363,2017-06-24 21:18:53,59.66444686344917
0.30705637,-0.23942018,-9.64564,-2.9931264E-4,5.6536915E-4,-0.0015630787,0.0,0.26106197,-0.2478015,-9.800045,0.0459944,0.008381322,0.15440464,0.27321124,-0.961779,0.015793348,2017-06-24 21:18:54,82.68315469935585
0.27114335,-0.30166942,-9.820416,-2.9931264E-4,0.0016295945,-0.0015630787,0.0,0.2602149,-0.24198899,-9.800212,0.010928452,-0.059680432,-0.020204544,0.27591455,-0.9610114,0.01552269,2017-06-24 21:18:55,81.31072443196777
0.28550854,-0.25139117,-9.671976,-2.9931264E-4,0.0016295945,-0.0015630787,0.0,0.26040423,-0.23865643,-9.800286,0.025104314,-0.012734741,0.1283102,0.27769208,-0.96050125,0.0153793525,2017-06-24 21:18:56,82.84431082168295
0.26635495,-0.25378537,-9.794081,7.649129E-4,5.6536915E-4,-0.0015630787,0.0,0.2613192,-0.23968467,-9.800238,0.005035758,-0.014100701,0.0061569214,0.2789452,-0.9601368,0.015454967,2017-06-24 21:18:57,65.11184699597209
0.27593175,-0.3184288,-9.930551,-2.9931264E-4,5.6536915E-4,-0.0026273048,0.0,0.2630474,-0.23651429,-9.800271,0.012884349,-0.08191453,-0.13027954,0.2800415,-0.9598185,0.0153351445,2017-06-24 21:18:58,80.04356527217163
0.23283611,-0.272939,-9.595362,-2.9931264E-4,0.0016295945,-0.0015630787,0.0,0.26333764,-0.23946361,-9.800188,-0.03050153,-0.033475384,0.20482635,0.28085008,-0.95958,0.015491681,2017-06-24 21:18:59,60.809453581961264
0.30945057,-0.2705448,-9.688736,7.649129E-4,5.6536915E-4,-0.0015630787,0.0,0.26264033,-0.25109833,-9.799916,0.04681024,-0.019446462,0.111180305,0.2808284,-0.9595791,0.01605103,2017-06-24 21:19:00,82.43341240409555
0.24959552,-0.272939,-9.772532,-2.9931264E-4,0.0016295945,-0.0015630787,0.0,0.26264882,-0.25286865,-9.799871,-0.013053298,-0.020070344,0.027338982,0.28075674,-0.9595989,0.016137127,2017-06-24 21:19:01,82.79627142631941
0.26874915,-0.260968,-9.76535,-2.9931264E-4,5.6536915E-4,-0.0015630787,0.0,0.2599923,-0.25178197,-9.799971,-0.06306921,-0.016368628,-0.013263702,0.28070277,-0.9596173,0.01604534,2017-06-24 21:19:02,75.44989485681076
0.26396075,-0.24181437,-9.686341,7.649129E-4,5.6536915E-4,-0.0015630787,0.0,0.25805718,-0.25112417,-9.80004,0.005903572,0.0093097985,0.11369896,0.28107136,-0.9595113,0.015988877,2017-06-24 21:19:03,81.67548367552959
0.3309984,-0.2777274,-9.439739,-2.9931264E-4,5.6536915E-4,-4.988536E-4,0.0,0.25937563,-0.25381523,-9.799934,0.07162276,-0.023912162,0.36019516,0.28117114,-0.9594792,0.016140465,2017-06-24 21:19:04,82.23765439856282
0.25438392,-0.23223756,-9.640852,7.649129E-4,5.6536915E-4,-0.0015630787,0.0,0.2600068,-0.25117403,-9.799988,-0.005622864,0.01893647,0.15913582,0.2816716,-0.95933384,0.016024996,2017-06-24 21:19:05,70.09000085272658
0.27832595,-0.2825158,-9.760562,-2.9931264E-4,5.6536915E-4,-4.988536E-4,0.0,0.25781187,-0.2600868,-9.7998085,-0.027369961,-0.015246391,0.029669762,0.28210366,-0.9592021,0.016433641,2017-06-24 21:19:06,82.18169078203249
0.24959552,-0.2657564,-9.794081,-2.9931264E-4,5.6536915E-4,-0.0015630787,0.0,0.25748128,-0.2577832,-9.799881,-0.007885754,-0.007973194,0.005800247,0.2819417,-0.95925164,0.01631465,2017-06-24 21:19:07,64.42833658787833
0.24720132,-0.25857377,-9.925761,-2.9931264E-4,5.6536915E-4,-4.988536E-4,0.0,0.259571,-0.25629118,-9.799865,-0.0123696625,-0.0022825897,-0.12589645,0.28190964,-0.95926064,0.016271409,2017-06-24 21:19:08,81.78338575973925
0.5033809,-0.20829555,-8.6712,0.024177868,5.6536915E-4,0.006950722,0.0,0.2240382,-0.33957776,-9.798209,-0.34793812,0.19592567,-0.09642792,0.2821663,-0.9591412,0.01983789,2017-06-24 21:19:09,83.15498069053574
0.2136825,-0.31603462,-9.794081,-2.9931264E-4,-0.001563081,-0.0015630787,0.0,0.2123127,-0.3492017,-9.798131,0.0013698041,0.033167094,0.004050255,0.28170413,-0.95927495,0.020137426,2017-06-24 21:19:10,80.90131503200823
0.24241292,-0.29448682,-9.755774,-2.9931264E-4,5.6536915E-4,-0.0026273048,0.0,0.22313137,-0.35695788,-9.797612,0.019281551,0.062471062,0.041838646,0.28193155,-0.95919436,0.020674063,2017-06-24 21:19:11,83.28201752113586
0.25917232,-0.2657564,-9.729437,-0.0024277628,5.6536915E-4,-0.0015630787,0.0,0.22710264,-0.33296803,-9.798367,0.032069683,0.06721163,0.06892967,0.28182063,-0.959247,0.01955626,2017-06-24 21:19:12,66.2424430855171
0.15382746,-0.29688102,-9.8515415,-0.0013635377,-4.9885595E-4,5.653715E-4,0.0,0.22438063,-0.32172465,-9.798804,-0.07055317,0.024843633,-0.052737236,0.28155917,-0.9593354,0.018965043,2017-06-24 21:19:13,76.69023180325942
0.1921347,-0.4405331,-9.279327,0.0028933631,5.6536915E-4,-0.0026273048,0.0,0.22145046,-0.32214126,-9.798855,-0.02931577,-0.11839184,0.51952744,0.28158465,-0.95932925,0.018943487,2017-06-24 21:19:14,81.12919887058092
0.2088941,-0.32561144,-9.829993,0.012471389,-0.006884207,0.0026938217,0.0,0.20757721,-0.31726736,-9.799319,0.056383535,0.18079786,0.13213158,0.28155607,-0.95935,0.018505335,2017-06-24 21:19:15,83.03773183070672
0.24959552,-0.36152446,-9.794081,-2.9931264E-4,5.6536915E-4,-0.0015630787,0.0,0.22959858,-0.33306953,-9.798306,0.019996941,-0.02845493,0.004225731,0.28083584,-0.95953417,0.01959051,2017-06-24 21:19:16,65.44809129536937
0.23762453,-0.320823,-9.808446,-0.0013635377,5.6536915E-4,-0.0026273048,0.0,0.2281694,-0.32184297,-9.798714,0.0094551295,0.0010199547,-0.009732246,0.2803351,-0.9596914,0.01901693,2017-06-24 21:19:17,81.77834140747662
0.27593175,-0.29448682,-9.813234,-0.0013635377,0.0016295945,-0.0026273048,0.0,0.23538616,-0.3167193,-9.798709,0.040545583,0.022232473,-0.0145254135,0.27995098,-0.9598034,0.018866517,2017-06-24 21:19:18,82.86154254393857
0.23762453,-0.2873042,-9.789292,-2.9931264E-4,0.0016295945,-0.0015630787,0.0,0.23460677,-0.32251576,-9.79854,0.0030177534,0.035211563,0.00924778,0.28028443,-0.9597016,0.01914164,2017-06-24 21:19:19,80.84094868034526
0.2088941,-0.2753332,-9.695918,-0.0024277628,5.6536915E-4,-0.0015630787,0.0,0.23542336,-0.31526217,-9.798753,-0.026529253,0.039928973,0.1028347,0.28020617,-0.9597301,0.018797556,2017-06-24 21:19:20,82.91692318500763
0.27114335,-0.22505496,-9.695918,-0.0013635377,5.6536915E-4,-0.0015630787,0.0,0.23935333,-0.30496967,-9.7989855,0.031790018,0.079914704,0.1030674,0.2795418,-0.95993,0.018344663,2017-06-24 21:19:21,65.21152104845102
0.15143326,-0.19153613,-9.8276,-0.0034919875,0.0016295945,-0.0026273048,0.0,0.2335048,-0.31156898,-9.798921,-0.08207154,0.12003285,-0.028678894,0.2793684,-0.95997876,0.01858316,2017-06-24 21:19:22,64.03016277275066
0.15382746,-0.33518824,-9.794081,-2.9931264E-4,5.6536915E-4,-0.0015630787,0.0,0.233019,-0.31693488,-9.798759,-0.079191536,-0.018253356,0.004678726,0.27930018,-0.9599943,0.018838573,2017-06-24 21:19:23,81.95496599388181
0.17537527,-0.34955344,-9.662399,7.649129E-4,5.6536915E-4,-0.0015630787,0.0,0.22428216,-0.31284305,-9.799092,-0.0082054585,-0.010374188,0.11514473,0.27917302,-0.96004015,0.01851271,2017-06-24 21:19:24,83.03663680473727
0.2160767,-0.32321724,-9.834782,7.649129E-4,-0.001563081,-0.0015630787,0.0,0.22050805,-0.32060242,-9.798926,-0.004431352,-0.002614826,-0.035855293,0.2792445,-0.96001494,0.018839475,2017-06-24 21:19:25,70.08886027228957
0.3333926,-0.39264908,-9.705495,-0.0013635377,5.6536915E-4,-4.988536E-4,0.0,0.21668592,-0.32631952,-9.798822,0.11670667,-0.06632957,0.09332752,0.27949482,-0.95993936,0.01906659,2017-06-24 21:19:26,78.48451200824783
0.2136825,-0.32561144,-9.669582,-2.9931264E-4,-4.9885595E-4,-0.0015630787,0.0,0.21970892,-0.32422662,-9.798826,-0.006026417,-0.0013848245,0.12924385,0.27968603,-0.95988375,0.019008433,2017-06-24 21:19:27,82.32709120071851
0.2136825,-0.31124622,-9.671976,0.0060860384,-0.0026273062,-0.0015630787,0.0,0.21216346,-0.32282194,-9.79904,0.0015190393,0.011575729,0.12706375,0.27953997,-0.95993197,0.018831028,2017-06-24 21:19:28,82.74979587381046
0.25198972,-0.33758244,-9.583391,7.649129E-4,5.6536915E-4,-0.0015630787,0.0,0.20645845,-0.33293885,-9.798826,0.045531273,-0.0046435893,0.21543503,0.2797008,-0.95987946,0.019246038,2017-06-24 21:19:29,79.58503347418096
0.22565351,-0.30885202,-9.820416,-2.9931264E-4,5.6536915E-4,-0.0026273048,0.0,0.21154918,-0.33481163,-9.798653,0.0141043365,0.025959611,-0.021763802,0.27979496,-0.9598474,0.019410996,2017-06-24 21:19:30,82.24039187999912
0.2208651,-0.34715924,-9.750985,7.649129E-4,0.0016295945,-0.0015630787,0.0,0.21694958,-0.33097064,-9.798664,0.0039155185,-0.016188592,0.047678947,0.27983,-0.9598375,0.019300228,2017-06-24 21:19:31,81.68020380797077
0.2208651,-0.31124622,-9.750985,-2.9931264E-4,5.6536915E-4,-0.0026273048,0.0,0.21968964,-0.33281562,-9.798539,0.0011754632,0.021569401,0.047554016,0.27995166,-0.9597987,0.019430492,2017-06-24 21:19:32,68.14564580493868
0.27353755,-0.33039984,-9.803658,-2.9931264E-4,5.6536915E-4,-0.0015630787,0.0,0.22503245,-0.32845032,-9.798568,0.048505098,-0.0019495189,-0.00508976,0.28019297,-0.959729,0.01929465,2017-06-24 21:19:33,83.22551294773638
0.18734628,-0.2825158,-9.772532,-2.9931264E-4,0.0016295945,-0.0026273048,0.0,0.2261349,-0.32433486,-9.798677,-0.038788617,0.041819066,0.026144981,0.2801068,-0.9597571,0.019108307,2017-06-24 21:19:34,69.59985066691851
0.26396075,-0.29688102,-9.789292,-2.9931264E-4,5.6536915E-4,-0.0015630787,0.0,0.2286291,-0.3206067,-9.798742,0.03533165,0.023725688,0.009449959,0.27958593,-0.9599107,0.018957809,2017-06-24 21:19:35,67.99055312754403
0.23762453,-0.33279404,-9.710283,-2.9931264E-4,5.6536915E-4,-0.0015630787,0.0,0.22835082,-0.32264104,-9.798682,0.009273708,-0.010152996,0.08839893,0.279466,-0.959944,0.019052655,2017-06-24 21:19:36,82.41921507026107
0.2208651,-0.272939,-9.887454,-2.9931264E-4,0.0016295945,-0.0026273048,0.0,0.22385001,-0.31826872,-9.798926,-0.0029849112,0.04532972,-0.08852768,0.27923754,-0.96001697,0.018772755,2017-06-24 21:19:37,82.90530456703955
0.24241292,-0.32321724,-9.81084,-2.9931264E-4,5.6536915E-4,-0.0026273048,0.0,0.22383152,-0.32117906,-9.798835,0.018581405,-0.0020381808,-0.012004852,0.27908924,-0.9600577,0.018914064,2017-06-24 21:19:38,65.79556219658778
0.25677812,-0.272939,-9.863512,-2.9931264E-4,0.0016295945,-0.0015630787,0.0,0.2230184,-0.3214205,-9.798847,0.014606133,-0.023344547,0.05025673,0.2791736,-0.9600335,0.018914862,2017-06-24 21:19:39,80.38880842659985
0.20171149,-0.320823,-9.784504,7.649129E-4,0.0016295945,-0.0015630787,0.0,0.22300085,-0.32507297,-9.798726,-0.021289364,0.00424996,0.014222145,0.2791387,-0.9600404,0.019093301,2017-06-24 21:19:40,81.51370555905183
0.24720132,-0.34237084,-9.743802,7.649129E-4,5.6536915E-4,-0.0015630787,0.0,0.22324298,-0.32587034,-9.798694,0.02395834,-0.016500503,0.054891586,0.2792981,-0.9599932,0.019136855,2017-06-24 21:19:41,82.58397688899461
0.2160767,-0.34237084,-9.743802,-2.9931264E-4,5.6536915E-4,-0.0026273048,0.0,0.21731907,-0.32743123,-9.798774,-0.0012423694,-0.014939606,0.054971695,0.27904344,-0.96006936,0.019127266,2017-06-24 21:19:42,66.83705209274811
0.19931729,-0.2825158,-9.590573,-2.9931264E-4,5.6536915E-4,-0.0015630787,0.0,0.22007927,-0.32413092,-9.798822,-0.020761982,0.04161513,0.20824909,0.27923164,-0.96001595,0.019006118,2017-06-24 21:19:43,78.57818928241083
0.24001873,-0.31603462,-9.76535,-2.9931264E-4,5.6536915E-4,-0.0015630787,0.0,0.22059247,-0.3252419,-9.798774,0.06731027,0.013995677,0.066942215,0.27966693,-0.9598879,0.019070651,2017-06-24 21:19:44,82.65550819178303
0.23283611,-0.35434186,-9.796474,-2.9931264E-4,0.0016295945,-4.988536E-4,0.0,0.22162113,-0.32566273,-9.7987385,0.011214986,-0.028679132,0.0022640228,0.27963725,-0.9598956,0.019105755,2017-06-24 21:19:45,79.67800935833961
0.23044191,-0.30166942,-9.729437,-2.9931264E-4,5.6536915E-4,-0.0015630787,0.0,0.22025554,-0.3249583,-9.798792,0.010186374,0.023288876,0.06935501,0.27982563,-0.95984215,0.019052966,2017-06-24 21:19:46,64.21713731708779
0.2088941,-0.34715924,-9.626487,-2.9931264E-4,0.0016295945,-0.0015630787,0.0,0.22362435,-0.32876343,-9.798588,-0.03627807,-0.044732034,0.18646622,0.27974224,-0.95986104,0.019286906,2017-06-24 21:19:47,64.7288266821862
0.23283611,-0.2825158,-9.217078,-2.9931264E-4,0.0016295945,-0.0015630787,0.0,0.2258526,-0.32610568,-9.798628,0.0069835186,0.04358989,0.58154964,0.27975404,-0.95985866,0.019188635,2017-06-24 21:19:48,82.76316579336957
0.23523031,-0.31124622,-9.743802,-2.9931264E-4,0.0016295945,-0.0015630787,0.0,0.22994693,-0.32462907,-9.798579,0.0052833855,0.013382852,0.054777145,0.27945518,-0.9599444,0.019172728,2017-06-24 21:19:49,82.43954936749113
0.25917232,-0.30406362,-9.796474,-2.9931264E-4,0.0016295945,-0.0015630787,0.0,0.23102365,-0.32301643,-9.798609,0.001812458,-0.004989207,0.01649952,0.27946463,-0.95994246,0.019109165,2017-06-24 21:19:50,82.68728639967703
0.24959552,-0.3184288,-10.023924,7.649129E-4,5.6536915E-4,-0.0015630787,0.0,0.23064451,-0.32438043,-9.79857,0.018951014,0.005951613,-0.2253542,0.27974102,-0.9598609,0.019172486,2017-06-24 21:19:51,78.17105239864289
0.24001873,-0.34955344,-9.76535,-2.9931264E-4,5.6536915E-4,-0.0026273048,0.0,0.23048009,-0.3257195,-9.7985325,0.009538636,-0.02383393,0.033182144,0.27978975,-0.9598457,0.019236058,2017-06-24 21:19:52,82.65687692205658
0.25438392,-0.29688102,-9.873089,-2.9931264E-4,5.6536915E-4,-0.0015630787,0.0,0.2322518,-0.3259992,-9.798477,0.022132128,0.02911818,-0.074611664,0.27931046,-0.9599838,0.019271709,2017-06-24 21:19:53,74.59329381197875
0.24241292,-0.2896984,-9.547478,-2.9931264E-4,5.6536915E-4,-0.0026273048,0.0,0.22943406,-0.3246808,-9.798589,0.012978867,0.034982413,0.25111103,0.27908802,-0.9600515,0.019165417,2017-06-24 21:19:54,82.44633796546393
0.23762453,-0.31364042,-9.743802,-2.9931264E-4,5.6536915E-4,-0.0026273048,0.0,0.23264718,-0.32485002,-9.7985115,0.0049773455,0.011209607,0.054709435,0.27910393,-0.9600448,0.019219598,2017-06-24 21:19:55,79.01727891326291
0.17776948,-0.31364042,-9.832388,-2.9931264E-4,5.6536915E-4,-0.0015630787,0.0,0.22903207,-0.32349533,-9.798639,-0.051262587,0.009854913,-0.033748627,0.27903733,-0.9600676,0.019101266,2017-06-24 21:19:56,69.26932620866381
0.24241292,-0.33997664,-9.820416,-2.9931264E-4,5.6536915E-4,-0.0015630787,0.0,0.23484753,-0.3262429,-9.798412,0.007565394,-0.013733745,-0.022004128,0.27896875,-0.96008146,0.01931822,2017-06-24 21:19:57,77.07415643893223
0.1945289,-0.35434186,-9.798869,-2.9931264E-4,5.6536915E-4,-0.0015630787,0.0,0.23354732,-0.3277202,-9.79839,-0.039018422,-0.02662167,-4.787445E-4,0.27906293,-0.9600535,0.019372739,2017-06-24 21:19:58,83.13171448485086
0.26156655,-0.29927522,-9.547478,-0.0013635377,5.6536915E-4,-0.0015630787,0.0,0.2353897,-0.3279672,-9.798335,0.026176855,0.028691977,0.25085735,0.27971965,-0.9598609,0.019415777,2017-06-24 21:19:59,63.37009053593013
0.22565351,-0.2896984,-9.549872,-2.9931264E-4,5.6536915E-4,-0.0026273048,0.0,0.23555504,-0.33143827,-9.79822,-0.009901524,0.04173988,0.24834728,0.27973443,-0.95985353,0.019588249,2017-06-24 21:20:00,82.81094652850541
0.2112883,-0.36631286,-9.815628,-2.9931264E-4,0.0016295945,-0.0015630787,0.0,0.22945334,-0.33461505,-9.798255,-0.018165037,-0.03169781,-0.017373085,0.27988943,-0.9598093,0.019657742,2017-06-24 21:20:01,77.96286238270385
0.18734628,-0.3184288,-9.930551,-2.9931264E-4,5.6536915E-4,-4.988536E-4,0.0,0.23103048,-0.32781413,-9.798447,-0.0436842,0.009385318,-0.13210392,0.2799373,-0.9598004,0.01934753,2017-06-24 21:20:02,83.31307610400896
0.24959552,-0.36152446,-9.822811,-2.9931264E-4,5.6536915E-4,-0.0015630787,0.0,0.23556803,-0.33020926,-9.798258,0.014027491,-0.031315207,-0.024553299,0.2794304,-0.9599431,0.019526077,2017-06-24 21:20:03,82.64703330485078
0.2112883,-0.33518824,-9.770139,-2.9931264E-4,0.0016295945,-0.0015630787,0.0,0.23111567,-0.3288137,-9.798413,-0.019827366,-0.006374538,0.028274536,0.27924052,-0.9600025,0.019392889,2017-06-24 21:20:05,65.75636030821356
0.24241292,-0.32561144,-9.753379,-2.9931264E-4,0.0016295945,-0.0015630787,0.0,0.23063695,-0.32853046,-9.798431,0.01177597,0.0029190183,0.04505253,0.27940693,-0.95995456,0.019373337,2017-06-24 21:20:06,83.26459172994278
0.22565351,-0.32561144,-9.966463,-2.9931264E-4,0.0016295945,-0.0015630787,0.0,0.2292689,-0.33102837,-9.798378,-0.0036153793,0.0054169297,-0.1680851,0.27932006,-0.9599784,0.01947559,2017-06-24 21:20:07,70.21529360140002
0.1921347,-0.33758244,-9.73662,-2.9931264E-4,5.6536915E-4,-0.0015630787,0.0,0.22790639,-0.33270374,-9.798357,-0.035771698,-0.0048787,0.06173706,0.27919766,-0.96001345,0.019537406,2017-06-24 21:20:08,82.30833740548455
0.1945289,-0.320823,-9.777321,-2.9931264E-4,5.6536915E-4,-0.0026273048,0.0,0.2271195,-0.3340164,-9.798328,-0.032590613,0.013193399,0.021007538,0.27937332,-0.9599616,0.01959166,2017-06-24 21:20:09,82.06044752479025
0.23283611,-0.2633622,-9.422979,-2.9931264E-4,0.0016295945,-0.0015630787,0.0,0.22801639,-0.32682446,-9.798552,0.004819721,0.06346226,0.3755722,0.27941865,-0.9599543,0.019252472,2017-06-24 21:20:10,81.96532056151622
0.22325931,-0.28491,-9.815628,-2.9931264E-4,5.6536915E-4,-0.0026273048,0.0,0.22829261,-0.32747123,-9.798522,-0.0050332993,0.042561233,-0.017106056,0.27950752,-0.9599277,0.019288694,2017-06-24 21:20:11,82.87831861534488
0.22565351,-0.2873042,-9.784504,7.649129E-4,5.6536915E-4,-0.0015630787,0.0,0.22772942,-0.32863414,-9.798498,-0.0020759106,0.04132995,0.013994217,0.27948242,-0.95993435,0.01933745,2017-06-24 21:20:12,83.57921164996823
0.18734628,-0.36152446,-9.8515415,-2.9931264E-4,5.6536915E-4,-0.0015630787,0.0,0.22480494,-0.32864738,-9.798566,-0.03745866,-0.032877088,-0.052975655,0.2795412,-0.95991904,0.019296758,2017-06-24 21:20:13,80.0035893776299
0.22565351,-0.33039984,-9.58818,-2.9931264E-4,5.6536915E-4,-0.0015630787,0.0,0.22413793,-0.32476652,-9.798711,0.020669192,-0.034363747,-0.021705627,0.2796624,-0.95988756,0.019097954,2017-06-24 21:20:14,82.87250705109128
0.23044191,-0.33997664,-9.985617,-2.9931264E-4,0.0016295945,-0.0026273048,0.0,0.22540046,-0.32237244,-9.798757,0.0050414503,-0.017604202,-0.18686008,0.27938703,-0.959969,0.018996878,2017-06-24 21:20:15,82.19333260875061
0.23044191,-0.30645782,-9.724648,-2.9931264E-4,5.6536915E-4,-0.0015630787,0.0,0.22473393,-0.3221774,-9.79878,0.005707979,0.015719593,0.074131966,0.2794459,-0.9599525,0.01897821,2017-06-24 21:20:16,79.28816614442819
0.20410569,-0.34955344,-9.791686,-2.9931264E-4,5.6536915E-4,-0.0015630787,0.0,0.22158498,-0.31932154,-9.798948,-0.015085086,-0.0062898993,0.01923275,0.2793692,-0.95997924,0.018792901,2017-06-24 21:20:17,67.51600599656493
0.25677812,-0.32321724,-9.760562,-2.9931264E-4,5.6536915E-4,-0.0015630787,0.0,0.21976778,-0.32342368,-9.798853,0.037010342,2.0644069E-4,0.038290977,0.27908003,-0.96006083,0.018966062,2017-06-24 21:20:18,80.6064525543001
0.2136825,-0.33279404,-9.858724,-2.9931264E-4,5.6536915E-4,-0.0015630787,0.0,0.21690081,-0.32156223,-9.798978,-0.003218308,-0.01123181,-0.05974579,0.2791349,-0.9600482,0.018834379,2017-06-24 21:20:19,82.52988078708427
0.22565351,-0.30645782,-9.791686,-2.9931264E-4,0.0016295945,-0.0026273048,0.0,0.22143492,-0.32049298,-9.798914,0.011401191,0.0020641685,0.021593094,0.2789945,-0.9600873,0.01884569,2017-06-24 21:20:20,83.46591415520143
0.2088941,-0.32561144,-9.786898,-2.9931264E-4,5.6536915E-4,-0.0015630787,0.0,0.22860901,-0.31945887,-9.798782,-0.019714907,-0.0061525702,0.011884689,0.27924857,-0.96000993,0.018898968,2017-06-24 21:20:21,68.62946029012781
0.2136825,-0.34715924,-9.750985,-2.9931264E-4,5.6536915E-4,-0.0026273048,0.0,0.22748546,-0.32053697,-9.798769,-0.0138029605,-0.026622266,0.04778385,0.27958468,-0.95991176,0.018938063,2017-06-24 21:20:22,64.3966084118154
0.23044191,-0.32800564,-9.750985,-2.9931264E-4,5.6536915E-4,-0.0015630787,0.0,0.226516,-0.32027972,-9.798803,0.0039259195,-0.0077259243,0.047818184,0.27998137,-0.959797,0.018914318,2017-06-24 21:20:23,81.49721692138175
0.23523031,-0.34237084,-9.729437,-2.9931264E-4,0.0016295945,-0.0015630787,0.0,0.22715509,-0.32206094,-9.798727,-0.0038957745,-0.027492493,0.0046463013,0.27992505,-0.95981145,0.019010304,2017-06-24 21:20:24,65.31432653966475
0.2088941,-0.3184288,-9.882666,7.649129E-4,0.0016295945,-0.0026273048,0.0,0.22627345,-0.32572904,-9.798625,-0.017379344,0.007300228,-0.08404064,0.27966633,-0.95988417,0.019175613,2017-06-24 21:20:25,80.52453736361508
0.25438392,-0.32800564,-9.806051,-2.9931264E-4,5.6536915E-4,-0.0015630787,0.0,0.22807439,-0.32857016,-9.798492,0.026309535,5.645156E-4,-0.0075588226,0.2796304,-0.9598911,0.019340238,2017-06-24 21:20:26,79.72959601501191
0.19931729,-0.320823,-9.729437,-2.9931264E-4,5.6536915E-4,-0.0015630787,0.0,0.22857153,-0.3256696,-9.798575,0.0018703789,0.01681757,-0.019447327,0.27960286,-0.95990133,0.01920508,2017-06-24 21:20:27,82.96509965499835
0.20649989,-0.35434186,-9.727043,-2.9931264E-4,5.6536915E-4,-0.0026273048,0.0,0.23118664,-0.3264436,-9.798491,-0.024686754,-0.027898252,0.07144737,0.27920154,-0.9600159,0.019277532,2017-06-24 21:20:28,76.55128296571185
0.26874915,-0.2657564,-9.798869,7.649129E-4,0.0016295945,-0.0026273048,0.0,0.23266807,-0.3213177,-9.798625,0.036081076,0.055561304,-2.4414063E-4,0.27888623,-0.9601111,0.019045314,2017-06-24 21:20:29,82.94942459757081
0.24001873,-0.31603462,-9.755774,-2.9931264E-4,0.0016295945,-0.0026273048,0.0,0.22884864,-0.32011774,-9.798755,-0.017560333,0.006477326,0.042981148,0.2788924,-0.96011275,0.01893219,2017-06-24 21:20:30,82.81800911397104
0.24720132,-0.30885202,-9.815628,7.649129E-4,0.0016295945,-0.0015630787,0.0,0.23491853,-0.32322583,-9.798506,0.012282789,0.014373809,-0.017122269,0.27913418,-0.96003586,0.019172618,2017-06-24 21:20:31,64.60551669302531
0.23283611,-0.3184288,-9.858724,-0.0013635377,5.6536915E-4,-0.0015630787,0.0,0.23282139,-0.3220809,-9.798597,1.4722347E-5,0.0036520958,-0.060126305,0.27897012,-0.960086,0.019085482,2017-06-24 21:20:32,82.31347804993504
0.25917232,-0.33279404,-9.722255,-2.9931264E-4,5.6536915E-4,-0.0015630787,0.0,0.22990443,-0.32373855,-9.798613,0.029267892,-0.009055495,0.07635784,0.2789331,-0.96009713,0.019124886,2017-06-24 21:20:33,83.05590494218123
0.2136825,-0.34715924,-9.739014,-0.0013635377,5.6536915E-4,-0.0015630787,0.0,0.22827575,-0.32168534,-9.798714,-0.014593244,-0.025473893,0.059700012,0.27950266,-0.9599342,0.019005025,2017-06-24 21:20:34,77.11840339887105
0.18974048,-0.33997664,-9.777321,-2.9931264E-4,5.6536915E-4,-0.0015630787,0.0,0.2252471,-0.32204744,-9.798775,-0.03550662,-0.017929196,0.021453857,0.279712,-0.9598748,0.018980948,2017-06-24 21:20:35,64.56011288169464
0.24001873,-0.3184288,-9.755774,-2.9931264E-4,5.6536915E-4,-0.0026273048,0.0,0.22767313,-0.32248706,-9.798703,0.012345597,0.004058242,0.04292965,0.27942836,-0.9599555,0.019035187,2017-06-24 21:20:36,65.76059718679544
0.20410569,-0.2825158,-9.774927,-2.9931264E-4,0.0016295945,-0.0015630787,0.0,0.22422723,-0.3254591,-9.798685,-0.020121545,0.0429433,0.023757935,0.27942374,-0.9599564,0.019131575,2017-06-24 21:20:37,67.08423224050166
0.22565351,-0.33039984,-9.762956,7.649129E-4,0.0016295945,-0.0015630787,0.0,0.22269014,-0.32611793,-9.798697,0.002963379,-0.0042819083,0.035741806,0.2792058,-0.9600201,0.019140499,2017-06-24 21:20:38,67.98014358600106
0.25438392,-0.36870706,-9.9233675,-2.9931264E-4,5.6536915E-4,-0.0015630787,0.0,0.22339627,-0.3219113,-9.798819,0.03098765,-0.046795756,-0.12454891,0.27921396,-0.96002096,0.01894456,2017-06-24 21:20:39,63.838322603651925
0.25677812,-0.31603462,-9.97604,7.649129E-4,-4.9885595E-4,-0.0015630787,0.0,0.22743909,-0.32057336,-9.798771,0.02933903,0.0045387447,-0.17726898,0.27948573,-0.9599406,0.018938506,2017-06-24 21:20:40,82.0176206114644
0.2184709,-0.30885202,-9.794081,-2.9931264E-4,5.6536915E-4,-0.0015630787,0.0,0.22896867,-0.32174844,-9.7987,-0.010497764,0.012896419,0.0046195984,0.27959165,-0.9599079,0.019018615,2017-06-24 21:20:41,80.87947829918639
0.18255788,-0.37588966,-9.782109,-0.0013635377,5.6536915E-4,-0.0015630787,0.0,0.22349483,-0.32727826,-9.798644,-0.040936947,-0.048611403,0.016534805,0.27965733,-0.95988727,0.01921176,2017-06-24 21:20:42,65.40757077654445
0.1945289,-0.34237084,-9.813234,-2.9931264E-4,5.6536915E-4,-0.0026273048,0.0,0.2236683,-0.32779717,-9.798618,-0.029139414,-0.0145736635,-0.014616013,0.27955088,-0.9599176,0.019238958,2017-06-24 21:20:43,81.63652690245085
0.1921347,-0.37588966,-9.796474,-0.0013635377,5.6536915E-4,-0.0015630787,0.0,0.22327144,-0.32674837,-9.798665,-0.031136751,-0.049141288,0.00219059,0.2796703,-0.95988405,0.019182703,2017-06-24 21:20:44,82.52383267242041
0.23762453,-0.30885202,-9.688736,-2.9931264E-4,5.6536915E-4,-0.0015630787,0.0,0.22393255,-0.31896937,-9.798904,0.013691977,0.010117352,0.11016846,0.27980873,-0.9598501,0.01881207,2017-06-24 21:20:45,65.94563673208854
0.23283611,-0.31603462,-9.762956,-2.9931264E-4,0.0016295945,-0.0015630787,0.0,0.22593549,-0.32122138,-9.798785,-2.8197467E-4,0.0051867664,-0.033602715,0.27944303,-0.9599534,0.018948503,2017-06-24 21:20:46,81.27240686050465
0.18734628,-0.40940848,-10.035895,-2.9931264E-4,5.6536915E-4,-0.0015630787,0.0,0.22054568,-0.32506955,-9.798779,-0.0331994,-0.08433893,-0.23711681,0.27959943,-0.9599077,0.019061109,2017-06-24 21:20:47,64.29958910546796
0.23283611,-0.35194764,-9.71986,-0.0013635377,5.6536915E-4,-0.0026273048,0.0,0.22151521,-0.3259114,-9.798731,0.011320904,-0.026036233,0.07887077,0.2797995,-0.95984817,0.01911747,2017-06-24 21:20:48,82.52168761814414
0.18495208,-0.33758244,-9.808446,-2.9931264E-4,5.6536915E-4,-0.0026273048,0.0,0.22158998,-0.32328546,-9.798815,-0.036637902,-0.014296979,-0.009631157,0.28001437,-0.9597877,0.018991327,2017-06-24 21:20:49,82.68157308298122
0.18016368,-0.30166942,-10.035895,-2.9931264E-4,5.6536915E-4,-0.0015630787,0.0,0.21924226,-0.32138407,-9.798931,-0.03907858,0.019714653,-0.23696423,0.28002027,-0.9597891,0.018864688,2017-06-24 21:20:50,83.02910968810629
0.19931729,-0.33279404,-9.643246,-2.9931264E-4,5.6536915E-4,-0.0026273048,0.0,0.22703616,-0.31916437,-9.798826,-0.027718872,-0.013629675,0.15558052,0.27987742,-0.95982796,0.018866422,2017-06-24 21:20:51,83.07163052845097
0.23523031,-0.32561144,-9.741408,-2.9931264E-4,5.6536915E-4,-0.0015630787,0.0,0.22384948,-0.32267115,-9.798784,-0.005378574,-0.0053344965,0.054982185,0.2793338,-0.9599852,0.018989034,2017-06-24 21:20:52,81.732554825874
0.24001873,-0.34237084,-9.705495,-2.9931264E-4,5.6536915E-4,-0.0015630787,0.0,0.22691022,-0.32328433,-9.798696,0.013108507,-0.01908651,0.09320068,0.27910846,-0.9600484,0.019061187,2017-06-24 21:20:53,72.76140357495083
0.22325931,-0.3184288,-9.779716,-2.9931264E-4,0.0016295945,-0.0026273048,0.0,0.2273134,-0.32298368,-9.798694,-0.0040540844,0.0045548677,0.018978119,0.2789112,-0.96010566,0.019050863,2017-06-24 21:20:54,80.57922452794318
0.23523031,-0.33997664,-9.782109,-2.9931264E-4,0.0016295945,-0.0015630787,0.0,0.23150928,-0.32301596,-9.7985935,0.0037210286,-0.01696068,0.01648426,0.2789927,-0.9600793,0.019112762,2017-06-24 21:20:55,65.71370661211341
0.25438392,-0.34955344,-9.779716,-2.9931264E-4,5.6536915E-4,-0.0015630787,0.0,0.23147091,-0.3229604,-9.798601,0.022913009,-0.02659303,0.018885612,0.2789667,-0.96008706,0.019109309,2017-06-24 21:20:56,79.90076104926418
0.2160767,-0.35434186,-9.73662,-2.9931264E-4,0.0016295945,-4.988536E-4,0.0,0.22899026,-0.32205892,-9.798685,-0.012913555,-0.03228295,0.062065125,0.27936247,-0.9599742,0.019032551,2017-06-24 21:20:57,66.07411867971317
0.22804771,-0.32321724,-9.731832,-2.9931264E-4,5.6536915E-4,-0.0015630787,0.0,0.22697423,-0.3247238,-9.798649,0.0010734797,0.001506567,0.06681728,0.27901128,-0.9600754,0.019131955,2017-06-24 21:20:58,65.37365318802568
0.19692309,-0.30885202,-9.6528225,-0.0013635377,0.0016295945,-0.0015630787,0.0,0.2241512,-0.32566494,-9.798678,-0.027228102,0.01681292,0.1458559,0.27905566,-0.9600633,0.019138144,2017-06-24 21:20:59,64.58209533358774
0.20410569,-0.31603462,-9.710283,7.649129E-4,5.6536915E-4,-0.0015630787,0.0,0.22788507,-0.32497418,-9.798616,-0.023779377,0.008939564,0.08833313,0.2789595,-0.96008956,0.019156845,2017-06-24 21:21:00,83.12561625576282
0.24001873,-0.29688102,-9.74859,-2.9931264E-4,0.0016295945,-4.988536E-4,0.0,0.23079112,-0.32058838,-9.798696,0.009227604,0.02370736,0.050105095,0.27882865,-0.9601297,0.018982455,2017-06-24 21:21:01,65.60061397614562
0.14185645,-0.34955344,-10.143634,-2.9931264E-4,0.0016295945,-0.0015630787,0.0,0.22704287,-0.31868225,-9.798843,-0.08518642,-0.030871183,-0.34479046,0.27927917,-0.96000266,0.01883881,2017-06-24 21:21:02,63.873643957092156
0.22565351,-0.33039984,-9.592968,7.649129E-4,5.6536915E-4,-0.0015630787,0.0,0.22754116,-0.3187666,-9.798827,-0.0018876493,-0.011633247,0.20585918,0.2791918,-0.96002764,0.018849446,2017-06-24 21:21:03,78.71226418281994
0.2136825,-0.34476504,-9.772532,-2.9931264E-4,5.6536915E-4,-4.988536E-4,0.0,0.22528322,-0.31999242,-9.798842,-0.011600718,-0.024772614,0.026309967,0.27889445,-0.9601145,0.018875303,2017-06-24 21:21:04,82.24976018857183
0.24001873,-0.30406362,-9.770139,-2.9931264E-4,5.6536915E-4,-0.0015630787,0.0,0.22875983,-0.3185799,-9.798804,0.0136531,0.0049394965,-0.024006844,0.27923116,-0.9600156,0.018857945,2017-06-24 21:21:05,65.09211660514686
0.2112883,-0.32800564,-9.88506,-2.9931264E-4,5.6536915E-4,-0.0015630787,0.0,0.22555156,-0.32026663,-9.798825,-0.014263257,-0.0077390075,-0.08623505,0.2790871,-0.96005803,0.018893858,2017-06-24 21:21:06,81.67148336796322
0.20649989,-0.30885202,-9.942521,7.649129E-4,0.0016295945,-0.0026273048,0.0,0.22227404,-0.32308227,-9.798806,-0.015774146,0.014230251,-0.1437149,0.2790378,-0.96007186,0.018984769,2017-06-24 21:21:07,83.48835665543236
0.23523031,-0.33518824,-9.743802,-2.9931264E-4,0.0016295945,-0.0015630787,0.0,0.22219455,-0.32595974,-9.798716,0.013035759,-0.009228498,0.05491352,0.2789885,-0.9600838,0.019124273,2017-06-24 21:21:08,82.67497049127132
0.2112883,-0.30885202,-9.638457,-0.0013635377,5.6536915E-4,-0.0015630787,0.0,0.22430111,-0.32767648,-9.798612,-0.013012812,0.018824458,0.16015434,0.2787183,-0.9601595,0.019236596,2017-06-24 21:21:09,81.27769120901499
0.27114335,-0.34955344,-9.806051,-0.0013635377,0.0016295945,-0.0015630787,0.0,0.22502425,-0.32769558,-9.798591,0.046119094,-0.021857858,-0.007460594,0.27878872,-0.9601385,0.01924829,2017-06-24 21:21:10,83.43629931018911
0.2160767,-0.29688102,-9.73662,-2.9931264E-4,-4.9885595E-4,-0.0015630787,0.0,0.22255413,-0.3263419,-9.798693,-0.0064774305,0.029460877,0.062072754,0.27892262,-0.9601023,0.019147689,2017-06-24 21:21:11,82.77190203260444
0.24959552,-0.36391866,-9.772532,-2.9931264E-4,5.6536915E-4,-0.0015630787,0.0,0.22236177,-0.32553044,-9.798723,-0.0014966726,-0.014446199,0.05492115,0.27813056,-0.9603329,0.019100029,2017-06-24 21:21:12,82.46364639655334
0.24241292,-0.3184288,-9.743802,7.649129E-4,5.6536915E-4,-0.0015630787,0.0,0.22694428,-0.3247458,-9.798647,0.015468642,0.0063169897,0.054844856,0.2780219,-0.9603623,0.019125907,2017-06-24 21:21:13,65.07374003751893
0.24720132,-0.34476504,-9.6767645,-2.9931264E-4,0.0016295945,-0.0015630787,0.0,0.22720039,-0.32567728,-9.798607,0.020000935,-0.019087762,0.121842384,0.27835357,-0.96026516,0.019177437,2017-06-24 21:21:14,64.36142647624288
0.26396075,-0.32321724,-9.657611,-2.9931264E-4,5.6536915E-4,-0.0015630787,0.0,0.22949718,-0.3247986,-9.798584,0.03206937,-0.027149022,0.021263123,0.27825612,-0.9602928,0.019166349,2017-06-24 21:21:15,81.40544967471996
0.23762453,-0.320823,-9.818023,-2.9931264E-4,-4.9885595E-4,-0.0015630787,0.0,0.2293647,-0.3231524,-9.798641,0.008259833,0.0023293793,-0.019381523,0.27807572,-0.9603466,0.019082554,2017-06-24 21:21:16,82.2359453910996
0.24241292,-0.320823,-9.729437,-2.9931264E-4,5.6536915E-4,-0.0015630787,0.0,0.23077968,-0.31874856,-9.798753,0.011633247,-0.0020744503,0.06931591,0.27811164,-0.9603391,0.0188871,2017-06-24 21:21:17,83.22486791705526
0.18734628,-0.33997664,-10.062231,-2.9931264E-4,0.0016295945,-4.988536E-4,0.0,0.22527361,-0.31661215,-9.798951,-0.03792733,-0.023364484,-0.2632799,0.27793816,-0.9603946,0.01870306,2017-06-24 21:21:18,67.49349295235672
0.23283611,-0.29927522,-9.746197,7.649129E-4,0.0016295945,-0.0015630787,0.0,0.23039128,-0.31604952,-9.79885,0.0024448335,0.016774297,0.052653313,0.27801046,-0.960371,0.018748617,2017-06-24 21:21:19,82.31160025031414
0.22325931,-0.24660277,-9.688736,-2.9931264E-4,5.6536915E-4,-0.0015630787,0.0,0.23024796,-0.31386745,-9.798924,-0.0069886446,0.067264676,0.110188484,0.27807537,-0.9603542,0.018640116,2017-06-24 21:21:20,81.68694149257544
0.20649989,-0.33518824,-9.789292,-2.9931264E-4,5.6536915E-4,-0.0015630787,0.0,0.22490342,-0.3198401,-9.798855,-0.01840353,-0.015348136,0.009562492,0.27832037,-0.9602814,0.018858567,2017-06-24 21:21:21,80.98865349448968
0.20649989,-0.34237084,-9.791686,-2.9931264E-4,5.6536915E-4,-0.0015630787,0.0,0.22312081,-0.32339665,-9.798776,-0.01662092,-0.018974185,0.007089615,0.27847025,-0.96023583,0.01900849,2017-06-24 21:21:22,82.18802539308145
0.22565351,-0.36152446,-9.638457,7.649129E-4,5.6536915E-4,-0.0015630787,0.0,0.22587189,-0.3249096,-9.798665,-2.1837652E-4,-0.036614865,0.16020775,0.2784393,-0.96024185,0.019121518,2017-06-24 21:21:23,66.70535597314078
0.18974048,-0.32321724,-9.727043,-2.9931264E-4,5.6536915E-4,-0.0026273048,0.0,0.2256193,-0.32608226,-9.798632,-0.035878822,0.0028650165,0.071588516,0.27830526,-0.9602798,0.019174488,2017-06-24 21:21:24,81.93118115851952
0.24480712,-0.33039984,-9.731832,-2.9931264E-4,0.0016295945,-0.0015630787,0.0,0.227838,-0.32856917,-9.798494,0.01696913,-0.0018306673,0.06666279,0.27840745,-0.96024656,0.01932856,2017-06-24 21:21:25,82.76207020578289
0.24001873,-0.31603462,-9.753379,-2.9931264E-4,0.0016295945,-0.0015630787,0.0,0.23146622,-0.32874486,-9.798408,0.008552507,0.012710243,0.045028687,0.27870157,-0.96015894,0.019390779,2017-06-24 21:21:26,65.37374325038822
0.25438392,-0.3184288,-9.837176,-2.9931264E-4,0.0016295945,-4.988536E-4,0.0,0.2298118,-0.3260026,-9.798537,0.02457212,0.0075737834,-0.03863907,0.27897105,-0.96008414,0.019234743,2017-06-24 21:21:27,64.63477735214259
0.19931729,-0.34476504,-9.88506,-2.9931264E-4,5.6536915E-4,-0.0026273048,0.0,0.22895809,-0.32838225,-9.798477,-0.029640794,-0.016382784,-0.08658314,0.27884236,-0.9601199,0.019338286,2017-06-24 21:21:28,82.61803347271425
0.23523031,-0.3878607,-9.712678,-2.9931264E-4,-0.0026273062,-0.0015630787,0.0,0.2429212,-0.3325627,-9.797998,-0.0076908916,-0.05529797,0.08532047,0.27962634,-0.95987916,0.019747723,2017-06-24 21:21:29,81.46532521847908
0.18495208,-0.33518824,-9.717466,7.649129E-4,5.6536915E-4,-0.0015630787,0.0,0.2192305,-0.33620977,-9.798433,-0.034278423,0.0010215342,0.08096695,0.27973062,-0.9598603,0.01958879,2017-06-24 21:21:30,82.37097284076249
0.22565351,-0.31603462,-9.777321,7.649129E-4,0.0026938193,-0.0015630787,0.0,0.21500625,-0.3400836,-9.798391,0.010647267,0.024048984,0.02107048,0.27989936,-0.95981,0.019719202,2017-06-24 21:21:31,80.85725798788314
0.2160767,-0.31364042,-9.887454,-2.9931264E-4,5.6536915E-4,-0.0026273048,0.0,0.21968657,-0.34121883,-9.798252,0.0011785328,-0.020305634,0.15261173,0.28036213,-0.95967126,0.01984451,2017-06-24 21:21:32,81.27394566232853
0.2112883,-0.31364042,-9.880272,7.649129E-4,0.0016295945,-0.0026273048,0.0,0.22826433,-0.33593103,-9.798237,-0.016976029,0.022290617,-0.082035065,0.28019458,-0.9597198,0.019707233,2017-06-24 21:21:33,80.1825190728288
0.23762453,-0.32561144,-9.739014,-2.9931264E-4,5.6536915E-4,-0.0015630787,0.0,0.22541645,-0.33684868,-9.798273,0.012208074,0.011237234,0.059259415,0.28014132,-0.9597363,0.019711088,2017-06-24 21:21:34,83.0423513762235
0.18974048,-0.33518824,-9.791686,-2.9931264E-4,5.6536915E-4,-0.0015630787,0.0,0.22268622,-0.33403468,-9.798432,-0.032945737,-0.0011535585,0.006746292,0.28003263,-0.9597722,0.019533537,2017-06-24 21:21:35,79.6774459114585
0.2088941,-0.33039984,-9.801263,-2.9931264E-4,5.6536915E-4,-0.0015630787,0.0,0.22192943,-0.33321512,-9.798478,0.0061182827,-0.018732518,0.018762589,0.28032327,-0.9596886,0.019484429,2017-06-24 21:21:36,64.83154150413776
0.22565351,-0.33279404,-9.760562,-2.9931264E-4,5.6536915E-4,-0.0015630787,0.0,0.22137338,-0.33014816,-9.798592,0.004280135,-0.00264588,0.03802967,0.2807238,-0.9595745,0.019328838,2017-06-24 21:21:38,64.09160177160192
0.24720132,-0.32561144,-9.669582,-2.9931264E-4,-4.9885595E-4,-4.988536E-4,0.0,0.22287686,-0.3291806,-9.798592,0.024324462,0.003569156,0.12900925,0.28065658,-0.9595942,0.019302575,2017-06-24 21:21:39,65.09769126470225
0.24480712,-0.33518824,-9.755774,-0.0013635377,5.6536915E-4,-0.0026273048,0.0,0.2242929,-0.32925573,-9.798557,0.02051422,-0.00593251,0.042783737,0.28029758,-0.9596982,0.019324198,2017-06-24 21:21:40,80.4509364767788
0.2208651,-0.36152446,-9.801263,-2.9931264E-4,5.6536915E-4,-4.988536E-4,0.0,0.22207615,-0.33355793,-9.79846,-0.0012110472,-0.02796653,-0.0028028488,0.28010774,-0.95975107,0.019501947,2017-06-24 21:21:41,82.69469647988144
0.22565351,-0.33997664,-9.722255,-2.9931264E-4,5.6536915E-4,-0.0015630787,0.0,0.2229773,-0.33349636,-9.798442,0.0026762187,-0.0064802766,0.076187134,0.2804677,-0.95964545,0.019514125,2017-06-24 21:21:42,82.11755790743071
0.1921347,-0.2825158,-9.52593,-2.9931264E-4,5.6536915E-4,-0.0015630787,0.0,0.22178254,-0.3295338,-9.798602,-0.029647842,0.04701799,0.2726717,0.2806013,-0.95961064,0.019303838,2017-06-24 21:21:43,64.4551096847947
0.23283611,-0.31124622,-9.686341,7.649129E-4,0.0016295945,-0.0015630787,0.0,0.22409141,-0.32824832,-9.7985935,0.020715714,0.024184704,0.0021190643,0.28005663,-0.9597695,0.019270407,2017-06-24 21:21:44,83.13282500645957
0.2208651,-0.33518824,-9.772532,7.649129E-4,0.0016295945,-0.0015630787,0.0,0.22422427,-0.33325896,-9.798424,-0.0033591688,-0.0019292831,0.025891304,0.28010416,-0.9597511,0.019518,2017-06-24 21:21:45,82.03878898205957
0.24241292,-0.33039984,-10.179547,-2.9931264E-4,0.0016295945,-0.0026273048,0.0,0.22387406,-0.33365187,-9.798416,0.018538862,0.0032520294,-0.38113117,0.2803332,-0.9596841,0.01953371,2017-06-24 21:21:46,82.3991562617033
0.23762453,-0.34955344,-9.631275,7.649129E-4,5.6536915E-4,-0.0026273048,0.0,0.22316231,-0.33396873,-9.798423,0.050375238,0.039481908,0.2605219,0.28078485,-0.95955217,0.019541934,2017-06-24 21:21:47,83.0976955428041
0.26635495,-0.33997664,-9.786898,-2.9931264E-4,5.6536915E-4,-0.0015630787,0.0,0.22127257,-0.3324364,-9.798519,0.045082375,-0.007540226,0.011621475,0.28096917,-0.9595008,0.019440984,2017-06-24 21:21:48,82.78334114132862
0.23283611,-0.34715924,-9.535507,-2.9931264E-4,0.0016295945,-0.0015630787,0.0,0.22383018,-0.33227968,-9.798462,0.009005934,-0.0148795545,0.2629547,0.28050253,-0.9596358,0.019466985,2017-06-24 21:21:49,82.20894743587371
0.20171149,-0.320823,-9.786898,-0.0013635377,0.0016295945,-0.0026273048,0.0,0.22300223,-0.3329202,-9.798464,-0.021290734,0.01209718,0.011566162,0.2803125,-0.95969135,0.01948527,2017-06-24 21:21:50,79.9800168026752
0.22565351,-0.33039984,-9.789292,-2.9931264E-4,5.6536915E-4,-0.0015630787,0.0,0.22638336,-0.33506957,-9.798311,0.006452754,0.0070639253,0.028172493,0.28097108,-0.9594947,0.019643225,2017-06-24 21:21:51,82.6983910029587
0.1945289,-0.33997664,-9.741408,-2.9931264E-4,5.6536915E-4,-0.0015630787,0.0,0.22914128,-0.33139768,-9.798371,-0.034612387,-0.008578956,0.056962967,0.28096712,-0.95949745,0.019502982,2017-06-24 21:21:52,79.5477481837401
0.30466217,-0.31603462,-9.482835,7.649129E-4,-4.9885595E-4,-0.0026273048,0.0,0.23114632,-0.33049706,-9.798355,0.07351585,0.014462441,0.3155203,0.28086936,-0.95952564,0.019486979,2017-06-24 21:21:53,65.33552390880278
0.16340427,-0.39264908,-9.849147,7.649129E-4,5.6536915E-4,-0.0015630787,0.0,0.22689149,-0.3314951,-9.798421,-0.013208985,0.0010952652,0.08574295,0.2814473,-0.95935804,0.01947866,2017-06-24 21:21:54,81.54123427530942
0.22565351,-0.32800564,-9.85633,-0.0013635377,5.6536915E-4,-0.0015630787,0.0,0.22093318,-0.3336721,-9.798484,0.0047203302,0.0056664646,-0.05784607,0.28175187,-0.9592703,0.019501528,2017-06-24 21:21:55,65.80527323751714
0.18974048,-0.32321724,-9.712678,7.649129E-4,-4.9885595E-4,-0.0015630787,0.0,0.22607338,-0.33626744,-9.798278,-0.036332905,0.013050199,0.0855999,0.28186715,-0.95923096,0.01970325,2017-06-24 21:21:56,82.69896914552872
0.16819267,-0.4165911,-9.894637,-0.007748889,0.0101433955,-0.0026273048,0.0,0.1703198,-0.39956787,-9.797028,-0.0021271259,-0.017023236,-0.09760952,0.28237408,-0.9590486,0.022000918,2017-06-24 21:21:57,80.8151424279148
0.18974048,-0.32800564,-9.722255,-2.9931264E-4,-4.9885595E-4,-0.0026273048,0.0,0.206962,-0.352637,-9.798126,-0.017221525,0.024631351,0.07587147,0.28161716,-0.95930034,0.020228175,2017-06-24 21:21:58,82.65845979365838
0.17776948,-0.36391866,-9.966463,0.0028933631,-4.9885595E-4,-0.0026273048,0.0,0.1998677,-0.35823026,-9.798069,-0.022098213,-0.005688399,-0.16839409,0.28135124,-0.9593769,0.020398704,2017-06-24 21:21:59,80.18587389554199
0.23044191,-0.33039984,-9.8276,-2.9931264E-4,0.0016295945,-0.0015630787,0.0,0.19982864,-0.3551923,-9.798181,0.030613273,0.024792463,-0.029418945,0.28167254,-0.95928556,0.020250982,2017-06-24 21:22:00,80.79064085884067
0.22804771,-0.260968,-10.035895,-0.0013635377,5.6536915E-4,-0.0026273048,0.0,0.20018664,-0.35047492,-9.798344,-0.022417158,-0.0038669407,-0.017284393,0.28135005,-0.9593845,0.020023609,2017-06-24 21:22:01,65.8260494979346
0.2184709,-0.33518824,-9.624092,-2.9931264E-4,-0.001563081,-0.0026273048,0.0,0.20504165,-0.3390075,-9.798648,0.013429254,0.003819257,0.17455578,0.28129005,-0.9594102,0.01953163,2017-06-24 21:22:02,75.57571028478831
0.1921347,-0.35434186,-9.779716,0.0018291378,5.6536915E-4,-0.0015630787,0.0,0.19811745,-0.3359887,-9.798889,-0.0059827566,-0.018353164,0.019173622,0.2811458,-0.9594589,0.019283695,2017-06-24 21:22:03,82.54341984954624
0.20410569,-0.29927522,-9.657611,-2.9931264E-4,-0.001563081,-4.988536E-4,0.0,0.19214699,-0.31606105,-9.799671,0.028718114,0.047910452,-0.18834019,0.28129905,-0.95943475,0.01822324,2017-06-24 21:22:04,64.22963992278869
0.2112883,-0.32321724,-9.727043,-2.9931264E-4,0.0026938193,-0.0015630787,0.0,0.19288915,-0.3215307,-9.79948,0.01839915,-0.0016865432,0.07243729,0.2814201,-0.95939416,0.018502252,2017-06-24 21:22:05,82.6449922398843
0.17058687,-0.36870706,-9.791686,-2.9931264E-4,5.6536915E-4,-0.0015630787,0.0,0.19094302,-0.32773116,-9.799314,-0.020356148,-0.0409759,0.007627487,0.28077415,-0.959579,0.018774685,2017-06-24 21:22:06,82.35104731564583
0.17776948,-0.30406362,-9.70789,-0.0013635377,-4.9885595E-4,-0.0015630787,0.0,0.183991,-0.34789228,-9.798752,-0.006221518,0.043828666,0.090862274,0.2811472,-0.95945483,0.019663736,2017-06-24 21:22:07,74.82879874374716
0.2088941,-0.35673606,-9.688736,-0.0013635377,0.0016295945,-0.0015630787,0.0,0.18856668,-0.3463717,-9.7987175,0.08257666,-0.05824837,-0.012122154,0.28145343,-0.9593641,0.019656317,2017-06-24 21:22:08,83.70320278689762
0.23044191,-0.33518824,-9.667188,7.649129E-4,5.6536915E-4,-0.0015630787,0.0,0.1923897,-0.3352737,-9.79903,0.038052216,8.547306E-5,0.13184261,0.2816852,-0.9593044,0.019169083,2017-06-24 21:22:09,65.64942658423763
0.23044191,-0.3184288,-9.69113,-2.9931264E-4,0.0016295945,-0.0026273048,0.0,0.19013453,-0.34307432,-9.798803,0.040307388,0.024645507,0.107673645,0.28171343,-0.9592901,0.019518612,2017-06-24 21:22:10,83.11255171081795
0.19692309,-0.320823,-9.420585,-2.9931264E-4,-0.0026273062,-0.0015630787,0.0,0.1939453,-0.34714976,-9.798586,0.0029777884,0.026326746,0.3780012,0.28147605,-0.959354,0.019771783,2017-06-24 21:22:11,72.71247828456546
0.20171149,-0.4189853,-9.767744,-0.0013635377,5.6536915E-4,-0.0015630787,0.0,0.19647054,-0.34887898,-9.798472,0.005240947,-0.07010633,0.03072834,0.28113508,-0.95945096,0.019891078,2017-06-24 21:22:12,83.12835204292344
0.2112883,-0.41180268,-9.8754835,-2.9931264E-4,0.0016295945,-0.0015630787,0.0,0.19404288,-0.34860918,-9.79853,0.017245427,-0.0631935,-0.07695389,0.28069356,-0.95958173,0.01984096,2017-06-24 21:22:13,68.93594098545238
0.18734628,-0.34476504,-9.523536,-2.9931264E-4,0.0016295945,-0.0026273048,0.0,0.20167926,-0.3396691,-9.79869,-0.01433298,-0.005095929,0.2751541,0.2806478,-0.9595994,0.019512393,2017-06-24 21:22:14,82.84610944795614
0.110731825,-0.33997664,-9.789292,-2.9931264E-4,0.00482227,-0.0015630787,0.0,0.2036562,-0.34828094,-9.79835,-0.09292437,0.008304298,0.009057999,0.28037837,-0.9596691,0.019960992,2017-06-24 21:22:15,82.59581951056921
0.2088941,-0.35913026,-9.870695,0.0028933631,0.0026938193,-0.0015630787,0.0,0.2025592,-0.35456842,-9.798146,0.006334901,-0.0045618415,-0.072548866,0.28002614,-0.9597665,0.02025141,2017-06-24 21:22:16,82.60227076610673
0.2112883,-0.36631286,-9.741408,-2.9931264E-4,0.0016295945,-4.988536E-4,0.0,0.20151502,-0.3542773,-9.798179,-0.01177454,0.0334543,0.030434608,0.2797763,-0.95984024,0.020220974,2017-06-24 21:22:17,65.11600185513208
0.15143326,-0.4213795,-10.114903,-2.9931264E-4,5.6536915E-4,-0.0015630787,0.0,0.20343181,-0.3566193,-9.798055,-0.051998556,-0.06476021,-0.31684875,0.2801071,-0.95974046,0.020364737,2017-06-24 21:22:18,68.87452649064025
0.1945289,-0.28491,-9.413403,-2.9931264E-4,-0.001563081,-0.0026273048,0.0,0.20103109,-0.34920466,-9.7983675,-0.006502196,0.064294666,0.38496494,0.28034136,-0.9596804,0.019968469,2017-06-24 21:22:19,82.08452999666713
0.11312603,-0.33039984,-9.715072,-2.9931264E-4,5.6536915E-4,-0.0015630787,0.0,0.21083343,-0.34929872,-9.79816,0.038762093,0.0045336783,-0.1156311,0.28052008,-0.9596226,0.020114347,2017-06-24 21:22:20,82.39077284157831
0.25917232,-0.35673606,-9.753379,-0.0013635377,0.0016295945,-0.0015630787,0.0,0.21013603,-0.35408983,-9.798006,0.049036294,-0.0026462376,0.04462719,0.28046143,-0.9596357,0.020338653,2017-06-24 21:22:21,82.26517868661064
0.22565351,-0.35673606,-9.8276,0.0018291378,0.0016295945,-0.0026273048,0.0,0.20498143,-0.35510674,-9.798076,0.020672083,-0.0016293228,-0.02952385,0.28099814,-0.9594805,0.020317417,2017-06-24 21:22:22,82.74628790547146
0.23762453,-0.36391866,-9.712678,-0.0034919875,5.6536915E-4,-0.0015630787,0.0,0.20504418,-0.35929576,-9.797919,0.032580346,-0.0046229064,0.08524132,0.28093168,-0.95949584,0.02052308,2017-06-24 21:22:23,81.59535382692134
0.24959552,-0.36152446,-9.861118,-0.0066846637,0.00482227,-0.0026273048,0.0,0.21247408,-0.34112966,-9.798411,0.037121445,-0.020394802,-0.06270695,0.28118786,-0.95943385,0.01974166,2017-06-24 21:22:24,64.20772270424726
0.24959552,-0.31364042,-9.767744,-2.9931264E-4,0.0026938193,-0.0015630787,0.0,0.21456933,-0.34190983,-9.798338,0.035026193,0.02826941,0.030593872,0.28073522,-0.95956445,0.01980729,2017-06-24 21:22:25,83.01813029316358
0.23283611,-0.30885202,-9.6528225,-2.9931264E-4,5.6536915E-4,-0.0026273048,0.0,0.22078285,-0.3406335,-9.798246,0.012053266,0.031781495,0.14542389,0.28088844,-0.9595172,0.019834792,2017-06-24 21:22:26,80.07934600167499
0.22325931,-0.33039984,-9.844358,-2.9931264E-4,5.6536915E-4,-0.0015630787,0.0,0.221294,-0.34096044,-9.798223,0.0019653141,0.010560602,-0.046135902,0.28121388,-0.9594212,0.019860145,2017-06-24 21:22:27,83.17114116959365
0.24480712,-0.32800564,-9.724648,-2.9931264E-4,0.0016295945,-0.0015630787,0.0,0.22065674,-0.33897868,-9.798307,0.0026025772,-0.008180559,0.15745544,0.28104404,-0.95947325,0.019752923,2017-06-24 21:22:28,83.00117382028753
0.2184709,-0.39025488,-9.861118,-2.9931264E-4,5.6536915E-4,-0.0026273048,0.0,0.21830116,-0.33841863,-9.798376,1.6973913E-4,-0.051836252,-0.06274223,0.28117695,-0.9594361,0.019692518,2017-06-24 21:22:29,82.14044759275257
0.2208651,-0.29927522,-9.8515415,-2.9931264E-4,5.6536915E-4,-4.988536E-4,0.0,0.22131315,-0.33918023,-9.798284,-4.4804811E-4,0.03990501,-0.053257942,0.28123814,-0.95941573,0.019773418,2017-06-24 21:22:30,82.0479826889421
0.22325931,-0.33039984,-9.683948,-2.9931264E-4,5.6536915E-4,-0.0026273048,0.0,0.22150366,-0.33735824,-9.798343,0.0017556548,0.0069583952,0.11439514,0.28084093,-0.95953363,0.01968447,2017-06-24 21:22:31,81.26106962580909
0.24241292,-0.31603462,-9.755774,7.649129E-4,5.6536915E-4,-0.0026273048,0.0,0.22253193,-0.33804643,-9.798296,0.019880995,0.022011817,0.04252243,0.2805541,-0.9596163,0.019731099,2017-06-24 21:22:32,81.92426434374568
0.22325931,-0.31603462,-9.585785,7.649129E-4,0.0016295945,-0.0026273048,0.0,0.21905525,-0.33956155,-9.798323,0.0042040646,-0.041116506,0.009030342,0.28052348,-0.95962596,0.019755306,2017-06-24 21:22:33,83.18904567779586
0.18255788,-0.28491,-9.731832,-0.0013635377,0.0016295945,-0.0015630787,0.0,0.21529534,-0.33727607,-9.798485,-0.032737464,0.052366078,0.06665325,0.28077582,-0.95955646,0.01959105,2017-06-24 21:22:34,65.12964306279738
0.2184709,-0.36391866,-9.710283,-2.9931264E-4,5.6536915E-4,-0.0015630787,0.0,0.21639128,-0.3372819,-9.798459,0.002079621,-0.02663675,0.08817577,0.28101015,-0.9594872,0.019608451,2017-06-24 21:22:35,82.43488208817641
0.2208651,-0.33758244,-9.8994255,7.649129E-4,5.6536915E-4,-0.0015630787,0.0,0.22002,-0.33946934,-9.798304,-0.06140414,0.033011526,0.04731846,0.28062898,-0.9595946,0.019765258,2017-06-24 21:22:36,66.5262265412774
0.24241292,-0.25139117,-9.918579,-2.9931264E-4,0.0016295945,-0.0015630787,0.0,0.24114677,-0.25449967,-9.800381,0.0012661517,0.0031085014,-0.118198395,0.27830264,-0.960327,0.015887907,2017-06-24 21:22:37,82.7943144344485
0.15622166,-0.24660277,-9.71986,-0.0024277628,5.6536915E-4,-0.0026273048,0.0,0.24275637,-0.25402352,-9.800354,-0.08653471,0.0074207485,0.08049393,0.2785183,-0.9602638,0.015889306,2017-06-24 21:22:38,82.65489186342803
0.2112883,-0.24420857,-9.841965,0.0028933631,0.0026938193,-0.0036915294,0.0,0.2223303,-0.28507188,-9.799987,-0.011041999,0.040863305,-0.041977882,0.2794659,-0.9599787,0.017126683,2017-06-24 21:22:39,73.34649075690754
-1.869273,2.8179753,8.282143,-3.7921336,-2.6642544,2.0938964,7.0,-3.143724,1.9754717,9.076612,1.274451,0.84250355,-0.79446983,-0.04763578,0.18695554,0.71103096,2017-06-24 21:22:40,77.80925786205381
8.282143,-1.0199299,5.2558713,0.5616116,-0.71672237,0.46882445,4.0,8.215864,-0.09558666,5.3535805,0.12134457,-0.47662753,1.0419307,0.17333083,-0.44384658,0.32932076,2017-06-24 21:22:41,82.82295189072143
8.614936,-0.19871874,6.079477,-0.14077704,-0.051581662,-0.07605884,10.0,8.866558,-0.34969008,4.1751957,-0.2516222,0.15097134,1.9042811,0.21850309,-0.48926544,0.374408,2017-06-24 21:22:42,82.40209651887731
8.921394,1.0390835,4.07553,0.2636285,-4.9885595E-4,0.078253806,40.0,9.079017,0.9687902,3.5781698,-0.15762234,0.07029331,0.49736023,0.28309575,-0.48725855,0.33686864,2017-06-24 21:22:43,83.46537448614322
8.650849,1.508347,3.4099417,0.3987851,0.14210731,0.14636421,41.0,8.88732,1.409293,3.8986945,-0.23647022,0.09905398,-0.48875284,0.28966352,-0.46617267,0.32453838,2017-06-24 21:22:44,60.19087676805633
2.665345,-0.6536171,4.31495,-0.8750924,1.2201674,1.3755443,46.0,8.256563,0.15123233,5.2892985,-3.3646107,-0.7785132,-1.6830323,0.21625961,-0.4284304,0.38092422,2017-06-24 21:22:45,82.56224103154047
1.01574,-2.2768857,9.32362,0.6637772,0.07186846,0.07718958,7.0,1.0734401,-2.3064349,9.470927,-0.057700038,0.029549122,-0.1473074,-0.09461956,-0.09035607,0.31821513,2017-06-24 21:22:46,81.78166834077389
0.75956047,-4.6232033,11.684303,0.37537217,-0.94446653,0.52842104,16.0,0.38124546,-2.2639978,9.534115,0.378315,-2.3592055,2.1501884,-0.061101414,-0.10080691,0.7519475,2017-06-24 21:22:47,61.719838911780116
-1.5556326,-6.9767036,8.919,-0.20569476,-0.615621,1.1669562,0.0,-1.8862494,-3.8168063,8.834276,-0.11709893,-2.441637,-0.0206213,-0.19658466,-0.10455494,0.7917467,2017-06-24 21:22:48,82.5349782670977
0.32621,-6.6774287,11.957242,-0.98364335,1.3627735,-1.074302,0.0,-0.6914198,-3.5132914,9.129574,1.0176297,-3.1641374,2.8276682,-0.15185483,-0.10705799,0.7105862,2017-06-24 21:22:49,82.98852032405802
-1.0265139,-3.1771057,4.777031,-0.3642643,-0.32615176,-0.27506894,0.0,-0.60421884,-3.400157,9.178466,-0.4222951,0.22305131,-4.401435,-0.17404836,-0.04166095,0.3929057,2017-06-24 21:22:50,81.98917486081447
-0.061650693,-4.6112323,10.726623,-0.013070014,-0.3197664,0.29641998,10.0,-1.5418136,-4.193142,8.729877,1.5711426,0.34565973,0.88822937,-0.23424019,-0.005627118,0.35731775,2017-06-24 21:22:51,62.222347114568024
0.14425065,-2.1452048,8.794501,0.61163014,0.46563178,0.021849874,28.0,-0.56527466,-3.9160311,8.973046,0.7095253,1.7708263,-0.178545,-0.18560761,-0.08973184,0.54739636,2017-06-24 21:22:52,61.42081607917731
-1.6011224,-4.450821,6.6325374,-0.15141928,0.82321143,-0.3506289,45.0,-3.1055944,-4.49364,8.1445,1.504472,0.042819023,-1.5119624,-0.2737915,-0.09891571,0.77897686,2017-06-24 21:22:53,63.883582748049065
3.1226375,-4.9440265,4.6261964,-1.2571492,-2.454602,-2.710016,65.0,3.8531246,-3.8398342,8.159625,0.55280495,-4.166376,3.7162142,-0.0035065808,-0.28976297,0.66734314,2017-06-24 21:22:54,82.54711096873095
10.161591,-5.149928,4.2622776,-1.8084178,-0.379363,1.2435803,2.0,9.109391,-3.0357726,1.9933577,1.0521994,-2.1141555,2.26892,-0.044002436,-0.6296275,0.19333343,2017-06-24 21:22:55,82.21270561462852
5.6820393,-7.2328835,0.048482586,-0.22485082,0.06548311,-0.86677814,0.0,7.224776,-6.628154,0.20148692,-1.5427365,-0.60472965,-0.15300433,-0.57688904,-0.39613894,-0.16056201,2017-06-24 21:22:56,77.74160857870497
6.000468,-7.4627266,0.3286042,0.6169513,0.043134376,0.25278676,0.0,7.2856746,-6.5518003,-0.40401703,-1.2852068,-0.91092634,0.7326212,-0.5757304,-0.434895,-0.13174838,2017-06-24 21:22:57,82.83997869394682
6.297349,-5.5042696,2.2942438,0.1316646,-0.6720249,0.49010894,0.0,7.740358,-5.9520955,0.91093564,-1.4430089,0.4478259,1.3833082,-0.5937823,-0.31777,-0.30404416,2017-06-24 21:22:58,82.72891272173695
9.950901,-6.5960255,0.85293436,1.2278165,-0.73375,0.4400904,0.0,7.4581604,-6.359068,0.3293886,2.4927406,-0.23695755,0.52354574,-0.6694413,-0.18722774,-0.40119252,2017-06-24 21:22:59,74.49815378485545
7.887099,-7.261614,0.8194155,0.8010622,-0.946595,-0.6166852,0.0,6.6064506,-7.2272406,0.5405819,1.2806482,-0.034373283,0.27883363,-0.5767313,-0.37392375,-0.11954479,2017-06-24 21:23:00,82.44503815276505
5.677251,-7.704541,1.2695254,0.8872645,0.17829096,-0.65925425,0.0,7.361516,-6.4790764,0.0072838576,-1.6842651,-1.2254648,1.2622416,-0.45160693,-0.5437645,0.020264542,2017-06-24 21:23:01,83.12149636141908
5.2223525,-8.240842,2.6318262,0.11357278,-0.66031843,0.35175967,0.0,5.0243654,-8.289963,1.4841359,0.19798708,0.049120903,1.1476903,-0.0741955,-0.647167,0.5998434,2017-06-24 21:23:02,83.16230872446295
6.891111,-9.694122,3.544017,0.72124535,-1.0732378,-2.0267835,0.0,4.866534,-8.476882,-0.79354095,2.0245767,-1.2172403,4.337558,0.318497,-0.6625851,0.6760852,2017-06-24 21:23:03,72.80409917284044
7.662044,-6.6654577,-2.130241,-0.59413695,-0.1292701,-0.121820524,0.0,6.361036,-7.454088,-0.37974286,1.3010082,0.7886305,-1.750498,-0.5612807,0.4520237,-0.6812766,2017-06-24 21:23:04,82.35293981234594
7.6069775,-8.154651,0.83378077,-0.1014007,-0.46130833,0.15274957,0.0,5.83724,-7.858063,0.58981204,1.7697372,-0.29658747,0.24396873,-0.6189426,0.29468286,-0.64323074,2017-06-24 21:23:05,81.71343979098816
3.2040405,-9.076419,0.7858967,-0.032226067,1.2169747,-0.24420641,0.0,3.6074815,-9.1147175,-0.28000677,-0.9660785,0.08378887,1.2406802,-0.6146281,0.36947083,-0.5536901,2017-06-24 21:23:06,82.39649427905952
4.221576,-8.578424,-0.29388827,0.3008764,-0.39426216,0.16871294,0.0,4.1161366,-8.900957,0.028242936,0.10543966,0.32253265,-0.32213122,-0.6305543,0.31774402,-0.5546582,2017-06-24 21:23:07,71.94512712292274
4.425083,-8.640674,0.42437226,0.14975643,-0.18035291,0.15487802,0.0,4.3879385,-8.760219,0.41826153,0.03714466,0.11954498,0.006110728,-0.6278027,0.29075477,-0.5647226,2017-06-24 21:23:08,82.3440873469136
4.042011,-8.9519205,-0.40880993,-0.09395113,0.12401549,-0.053710114,2.0,3.9392028,-8.978121,0.2155121,0.102808,0.026200294,-0.62432206,-0.6564202,0.24109024,-0.4952811,2017-06-24 21:23:09,82.96182485023922
4.3915644,-8.561666,0.17776948,-0.016262691,0.23682335,-0.16119686,0.0,4.27508,-8.822022,0.25691733,0.37266397,0.46865273,0.09802309,-0.6414202,0.27473807,-0.54094374,2017-06-24 21:23:10,72.13260254443999
4.779425,-8.822633,0.66379243,-0.012005788,0.16019914,0.09421718,2.0,4.5679,-8.66803,0.41223952,0.21152496,-0.154603,0.2515529,-0.60585934,0.33453864,-0.60326254,2017-06-24 21:23:11,81.23188326032061
6.558317,-7.1490865,0.4794389,0.8340532,-0.9583015,-0.26123402,0.0,6.0602455,-7.7009444,0.37318084,0.49807167,0.55185795,0.106258065,-0.6575912,0.22033352,-0.60231715,2017-06-24 21:23:12,81.03639769429263
6.929418,-6.933608,-0.3824737,-1.5008568,0.8040554,-0.9923567,0.0,5.3243213,-8.229563,-0.31031585,1.6050968,1.2959547,-0.07215786,-0.70387447,0.14276707,-0.48656526,2017-06-24 21:23:13,80.10757810366724
8.27496,-5.523423,2.4833858,-0.17270379,-0.062223915,0.110180564,0.0,8.13743,-5.2886505,1.4081228,0.089645386,-0.0049295425,0.83584285,-0.62651867,0.18889171,-0.72598845,2017-06-24 21:23:14,82.89016102166158
7.791331,-5.671864,1.7818847,-0.038611416,0.00482227,0.008014948,0.0,7.963354,-5.5345287,1.4575312,-0.1720233,-0.1373353,0.32435346,-0.6280614,0.17670724,-0.7161794,2017-06-24 21:23:15,80.68804117648628
7.911041,-5.731719,1.6047137,0.035884343,-0.016462233,0.019721422,0.0,7.785437,-5.7576375,1.5514416,0.12560368,0.025918484,0.053272128,-0.6241445,0.17703713,-0.71210235,2017-06-24 21:23:16,82.1321736587516
7.436989,-7.141904,1.204882,-1.0027994,0.35175967,-0.08244419,0.0,7.6394544,-6.140997,0.3118968,-0.20246553,-1.000907,0.8929852,-0.6682952,0.19359548,-0.6629219,2017-06-24 21:23:17,81.91725498689836
6.603807,-7.410054,0.23762453,-0.016262691,0.039941702,0.052712403,0.0,6.495179,-7.316678,0.67027885,0.108627796,-0.09337616,-0.43265432,-0.6025446,0.32057026,-0.68507993,2017-06-24 21:23:18,83.05387786651886
6.3979053,-7.4483614,1.0085574,0.06248997,0.032492124,-0.026040258,0.0,6.532291,-7.272907,0.77744013,-0.13438559,-0.17545462,0.23111731,-0.59793824,0.32067344,-0.69088376,2017-06-24 21:23:19,82.23483843131284
6.371569,-6.8306575,0.362123,-0.3259522,0.09953831,5.653715E-4,0.0,6.899734,-6.884917,1.0779556,-0.52816486,0.0542593,-0.7158326,-0.5875032,0.31603727,-0.7136813,2017-06-24 21:23:20,83.22394795320724
7.6285253,-6.4667387,0.32621,-0.15461196,-0.015398009,-0.99342096,0.0,7.0627546,-6.7734613,-0.6388098,1.5497875,-0.9023495,-0.06209272,-0.6248002,0.37708744,-0.66698813,2017-06-24 21:23:21,82.81739278188881
7.0108213,-5.851429,1.3628993,0.02098519,-0.08776531,0.42625543,0.0,7.0705485,-6.792468,-0.20027675,-0.059727192,0.9410391,1.563176,-0.5834479,0.41206777,-0.6919461,2017-06-24 21:23:23,81.52759559806627
6.096236,-6.397307,0.54408234,0.59353834,1.7075825,-0.66351116,0.0,8.107513,-5.4956446,-0.48636013,-2.0112772,-0.90166235,1.0304425,-0.6196111,0.37533927,-0.6884513,2017-06-24 21:23:24,72.20138439247414
2.248754,-4.0078936,-1.5077485,0.6850617,0.93708354,-0.36127117,0.0,9.571798,-2.0611954,0.55006874,-5.0677066,-5.1046505,-1.2557597,-0.6856324,0.04315668,-0.71859026,2017-06-24 21:23:25,82.96573922378137
10.891822,-6.991069,3.3859997,1.8748654,-0.20270164,-0.055838563,0.0,7.8434806,-4.7918277,3.4188595,3.0483413,-2.1992412,-0.032859802,-0.5637636,-0.0886412,-0.6257431,2017-06-24 21:23:26,82.97913321369646
7.6572556,-4.249708,4.7123876,-0.03967564,-0.09627912,0.0026938217,0.0,7.6417494,-4.03147,4.6391063,0.015506268,-0.21823835,0.07328129,-0.50109196,-0.11125764,-0.6542155,2017-06-24 21:23:27,83.00541295434917
7.963713,-3.6870706,4.8297033,-0.009877339,0.06441888,-0.048388988,0.0,7.804195,-3.511552,4.7889395,0.15951824,-0.17551851,0.040763855,-0.4969166,-0.09437134,-0.70682514,2017-06-24 21:23:28,82.49090038394606
7.9421654,-3.3877954,4.9901147,-0.10778606,-0.039875187,0.09102451,0.0,7.80071,-3.147464,5.0411096,0.15103197,-0.06794882,0.3464427,-0.4802533,-0.111048155,-0.71278316,2017-06-24 21:23:29,83.12067478347905
8.454525,-0.8882488,5.45459,0.46689552,-0.12820588,-0.22611459,4.0,8.178733,-1.1036776,5.297227,0.27579212,0.21542883,0.15736294,-0.42311278,-0.22559293,-0.71218526,2017-06-24 21:23:30,82.14632346516579
8.998009,-6.943185,1.7675194,-0.89850533,-0.251656,0.9892306,0.0,8.326769,-4.3777533,2.7695796,0.67123985,-2.5654316,-1.0020603,-0.5201855,-0.29698116,-0.43076932,2017-06-24 21:23:31,80.22029162419753
5.861604,-7.7332716,0.7954735,2.652814,-1.6404698,-0.5102627,2.0,7.736541,-5.801731,1.6298046,-1.1806178,-1.5915637,0.24305964,-0.61496615,-0.19677328,-0.44223472,2017-06-24 21:23:32,83.26060117521638
6.345233,-7.043741,-0.2100912,0.20616037,-0.76993364,0.5060723,0.0,4.7957673,-8.319426,1.9895191,1.5494657,1.2756844,-2.1996102,-0.6254107,0.08616404,-0.47538662,2017-06-24 21:23:33,82.99954908221629
6.773795,-7.6351094,-2.8868086,1.905728,0.6433574,0.005886496,0.0,8.06588,-5.2465043,1.8937128,-1.2920847,-2.388605,-4.7805214,-0.5948293,-0.22276805,-0.45862463,2017-06-24 21:23:34,73.96239125442139
5.1409497,-5.475539,2.7659016,-0.43024626,0.7763855,-0.31018835,0.0,6.395407,-7.4317827,0.19439021,-1.2544575,1.9562435,2.5715113,-0.6591352,0.23585932,-0.62090427,2017-06-24 21:23:35,83.0361534266737
7.6524673,-7.0581064,4.305373,1.9429758,-2.1012793,-0.7837686,0.0,6.3854494,-7.387712,0.9045161,1.8464146,0.79886913,3.4798656,-0.66463983,0.11016538,-0.5681665,2017-06-24 21:23:36,83.3027128124391
7.4585366,-8.236053,2.3229742,-1.9190973,0.29961264,0.4496684,0.0,7.261291,-6.48642,1.1706454,0.1972456,-1.7496333,1.1523288,-0.5308568,-0.39812657,-0.14732383,2017-06-24 21:23:37,83.00577860053946
7.5926123,-5.1642933,0.27832595,-0.70055944,-0.58263,0.27407125,15.0,8.220115,-4.8151383,2.3269186,-0.62750244,-0.34915495,-2.0485926,-0.41064897,-0.46122402,-0.15438047,2017-06-24 21:23:38,83.04137681745934
9.993997,-7.855376,0.623091,1.7673787,-2.8004751,0.92644125,17.0,6.3139186,-7.484953,0.52941924,3.680078,-0.37042284,0.09367174,-0.4328079,-0.5344946,0.13667367,2017-06-24 21:23:39,82.24919895663975
7.5686703,-2.554613,2.4570496,-0.12481366,0.60078835,0.3230256,20.0,8.3065405,-4.2085037,3.0757575,-0.7378702,1.6538906,-0.6187079,-0.030571321,-0.58501744,0.32805547,2017-06-24 21:23:40,81.93600914671093
2.7539306,-1.970428,13.788806,1.7429014,0.58376074,1.5607195,51.0,4.084619,-2.9285104,8.420814,-1.3306885,0.95808244,5.3679924,-0.069235824,-0.25664058,0.3382598,2017-06-24 21:23:41,83.58251653961922
-0.20530279,0.0,9.383475,-2.9931264E-4,-0.42299622,0.0037580468,4.0,0.1130862,-0.11627991,9.805308,-0.29684117,0.056424864,-0.13931751,-0.0023264561,-0.007936324,0.4917952,2017-06-24 21:23:42,80.15160621331047
-0.3776853,0.0,10.01315,0.0018291378,0.013336072,-0.0026273048,4.0,-0.27777618,-0.027928846,9.802675,-0.09990913,0.027928846,0.21047497,-0.008366543,0.011517389,0.50378615,2017-06-24 21:23:43,83.00045064616603
-0.41120413,-0.035913024,10.10413,7.649129E-4,0.0026938193,-0.0015630787,4.0,-0.33407742,0.010915105,9.800952,-0.07712671,-0.04682813,0.30317783,-0.008242067,0.014919539,0.511805,2017-06-24 21:23:44,80.65284412724252
-0.40162733,-0.033518825,9.912594,7.649129E-4,-0.001563081,-0.0015630787,4.0,-0.37829217,0.034977682,9.799289,-0.023335159,-0.06849651,0.11330509,-0.008449396,0.017433813,0.5170351,2017-06-24 21:23:45,82.8912330572488
-0.41359833,0.035913024,9.869498,7.649129E-4,0.0069507197,-4.988536E-4,4.0,-0.4147494,0.054584727,9.797724,0.0011510849,-0.018671703,0.07177448,-0.008632705,0.01950888,0.52039945,2017-06-24 21:23:46,78.15688751259056
-0.39923313,0.016759412,10.020332,7.649129E-4,5.6536915E-4,-0.0026273048,4.0,-0.44301656,0.056574207,9.796474,0.043783426,-0.039814793,0.22385788,-0.009312365,0.020786222,0.521025,2017-06-24 21:23:47,75.94387000330912
-0.3633201,0.033518825,10.13286,7.649129E-4,0.0016295945,-0.0015630787,4.0,-0.45751998,0.05979344,9.795789,0.094199866,-0.026274614,0.33707142,-0.00956365,0.02150087,0.5212442,2017-06-24 21:23:48,82.68985840035324
-0.38965634,-0.031124622,9.948506,7.649129E-4,-4.9885595E-4,-0.0026273048,4.0,-0.4531371,0.054244496,9.796025,0.04672137,-0.08297492,0.07347298,-0.0096848635,0.02116413,0.5210995,2017-06-24 21:23:49,82.74729177615936
-0.3824737,0.007182605,9.903017,7.649129E-4,5.6536915E-4,-0.0026273048,4.0,-0.4565766,0.037526745,9.795943,0.07410288,-0.03034414,0.107073784,-0.0104833655,0.020879803,0.52025753,2017-06-24 21:23:50,78.5511465081902
-0.41120413,-0.011971008,9.582193,7.649129E-4,0.0026938193,-0.0015630787,4.0,-0.45269468,0.029778147,9.79615,0.041490555,-0.041749157,-0.21395683,-0.010677584,0.020525925,0.5185886,2017-06-24 21:23:51,74.42290854631742
-0.43035775,0.021547815,9.979631,7.649129E-4,-4.9885595E-4,-4.988536E-4,4.0,-0.449359,0.024732124,9.796318,0.019001245,-0.0031843092,0.18331337,-0.010768567,0.020268602,0.5168709,2017-06-24 21:23:52,82.43483085945756
-0.39444473,-0.019153614,9.783307,7.649129E-4,-0.014333783,-0.0015630787,4.0,-0.43780681,0.025448963,9.79684,0.04336208,-0.044602577,-0.013532639,-0.010404439,0.019797733,0.515662,2017-06-24 21:23:53,81.03672661314816
-0.39444473,-0.0023942017,9.900622,7.649129E-4,-0.0036915313,-0.0015630787,4.0,-0.4342265,0.019406931,9.797013,0.03978178,-0.021801133,0.103609085,-0.0105482,0.019496376,0.5145213,2017-06-24 21:23:54,80.08256805795213
-0.3728969,0.019153614,9.962872,7.649129E-4,-0.009012657,-0.0015630787,4.0,-0.42758504,0.02347962,9.797297,0.054688126,-0.0043260064,0.16557503,-0.010176631,0.019322788,0.5136774,2017-06-24 21:23:55,81.92313368135646
-0.3705027,-0.01436521,9.905411,7.649129E-4,0.0026938193,-0.0015630787,4.0,-0.4245038,0.012598617,9.79745,0.054001093,-0.026963826,0.1079607,-0.010565138,0.018906584,0.5133719,2017-06-24 21:23:56,64.03955076232486
-0.39205053,-0.007182605,9.905411,-2.9931264E-4,5.6536915E-4,-4.988536E-4,4.0,-0.42088807,0.009891091,9.797608,0.028837532,-0.017073696,0.10780239,-0.010575755,0.018684821,0.5127704,2017-06-24 21:23:57,82.82061560158282
-0.42317516,0.02633622,9.929353,7.649129E-4,5.6536915E-4,-4.988536E-4,4.0,-0.41074017,0.011621815,9.798038,-0.012434989,0.014714404,0.13131523,-0.010227608,0.01828945,0.5124551,2017-06-24 21:23:58,78.92686464828294
-0.39205053,-0.0047884034,9.93893,7.649129E-4,5.6536915E-4,-0.0015630787,4.0,-0.41002968,0.0044710855,9.798074,0.017979145,-0.009259488,0.14085579,-0.010524357,0.018070117,0.5125607,2017-06-24 21:23:59,80.7666524289575
-0.3657143,0.055066638,9.953295,-2.9931264E-4,5.6536915E-4,-0.0015630787,4.0,-0.4034631,0.0069892863,9.798345,0.037748784,0.048077352,0.15495014,-0.010251131,0.017843267,0.51298684,2017-06-24 21:24:00,65.08447651163098
-0.43035775,0.016759412,9.905411,7.649129E-4,-0.001563081,-4.988536E-4,4.0,-0.40095872,0.013863473,9.79844,-0.029399037,0.0028959392,0.10697079,-0.009870378,0.017921358,0.5123029,2017-06-24 21:24:01,65.34503367382004
-0.47105917,-0.088585466,9.721058,7.649129E-4,5.6536915E-4,-0.0026273048,4.0,-0.39900282,0.012801251,9.798521,-0.07205635,-0.10138672,-0.07746315,-0.00984907,0.017817153,0.51149887,2017-06-24 21:24:02,81.74333690182135
-0.3537433,0.055066638,10.1161,7.649129E-4,5.6536915E-4,-0.0015630787,4.0,-0.39942196,0.007657386,9.798511,0.045678645,0.04740925,0.31758976,-0.010080199,0.017704276,0.51124656,2017-06-24 21:24:03,75.10185417264624
-0.41838676,0.011971008,9.950901,7.649129E-4,5.6536915E-4,-0.0026273048,4.0,-0.40477616,0.0059264037,9.798291,-0.044735223,-0.003532202,-0.022167206,-0.010294952,0.017894335,0.51120603,2017-06-24 21:24:04,81.15109551995509
-0.39923313,-0.011971008,9.862315,7.649129E-4,0.0016295945,-4.988536E-4,4.0,-0.4055211,0.011590014,9.798255,0.006287962,-0.023561023,0.06406021,-0.01007124,0.018071858,0.5114465,2017-06-24 21:24:05,80.75285407458813
-0.38486794,0.01436521,9.943718,-2.9931264E-4,-0.001563081,-0.0015630787,4.0,-0.3995025,0.006287133,9.798507,0.01463455,0.008078078,0.14521122,-0.010139617,0.017673643,0.51111364,2017-06-24 21:24:06,82.9270460592125
-0.45429978,-0.04070143,9.302073,0.0018291378,0.005886495,-0.0015630787,4.0,-0.40554923,0.0076866173,9.798258,-0.05353895,-0.043599643,-0.10593033,-0.01022887,0.017979315,0.51077026,2017-06-24 21:24:07,81.57132987120504
-0.3776853,0.019153614,9.718663,-2.9931264E-4,0.0026938193,-0.0015630787,4.0,-0.40916163,0.007710186,9.798107,0.03147632,0.011443428,-0.07944393,-0.010316932,0.018141245,0.51052845,2017-06-24 21:24:08,83.06134573316513
-1.1510124,-0.4237737,9.706693,-0.31105307,0.41029206,0.54225594,4.0,-0.4150783,-0.015919883,9.797849,-0.73593414,-0.4078538,-0.091156006,-0.0115900105,0.017731575,0.51452863,2017-06-24 21:24:09,79.07172681904152
8.157643,2.5067291,5.7299232,0.42964765,0.67528415,-0.2016374,0.0,8.115761,2.1180804,5.0811963,0.041882515,0.38864875,0.64872694,0.4907798,0.008141186,0.84654206,2017-06-24 21:24:10,71.62941974257032
2.9909565,1.8339585,10.10413,0.63717157,-1.1711465,-0.29422498,0.0,5.480019,-0.9132753,8.081195,1.0256257,-0.31255597,0.45712662,0.2804104,-0.09666305,0.9417423,2017-06-24 21:24:11,82.50436335825341
5.0643353,0.2896984,7.709928,-0.83571607,-0.42086777,-0.4730148,0.0,5.659863,-0.019371035,8.008493,-0.59552765,0.30906942,-0.2985654,0.29849163,-0.05082545,0.94007725,2017-06-24 21:24:12,81.13279132563208
4.3580456,0.1316811,8.96449,-0.13758436,0.17296983,-0.046260536,0.0,4.34091,0.1405094,8.792449,0.01713562,-0.008828297,0.17204094,0.22534338,-0.03050009,0.96027225,2017-06-24 21:24:13,54.226070802561416
1.9063832,-0.48123455,2.9526494,0.16465558,0.6763483,-0.11969207,0.0,3.716872,0.05437099,9.074817,-1.8104888,-0.53560555,-6.1221676,0.19070259,-0.030751428,0.9662649,2017-06-24 21:24:14,79.02493462985275
4.621408,0.36152446,8.792108,-0.02264804,-0.02604026,-0.03455406,0.0,4.26339,0.40573102,8.82209,0.35801792,-0.04420656,-0.029982567,0.22296223,-0.022055227,0.9563931,2017-06-24 21:24:15,42.6664840137812
4.396353,0.4429273,8.765771,-0.007748889,0.0101433955,-0.006884205,0.0,4.3495145,0.3811632,8.781049,0.046838284,0.06176409,-0.015277863,0.22714186,-0.026413279,0.95347923,2017-06-24 21:24:16,51.772948955095984
4.353257,0.4309563,8.945336,-0.009877339,0.0016295945,-0.012205331,0.0,4.3388915,0.40594366,8.7851925,0.014365673,0.025012642,0.16014385,0.2266936,-0.02626481,0.9524989,2017-06-24 21:24:17,60.053181272527844
4.5016975,0.320823,8.916606,0.010342939,-0.10053602,0.013336073,0.0,4.3647227,0.40138218,8.772597,0.13697481,-0.080559164,0.14400864,0.22781405,-0.028683683,0.9504665,2017-06-24 21:24:18,33.42666902787287
4.702811,0.4237737,8.5886,0.05397617,0.075061135,0.043134376,0.0,4.535249,0.3745453,8.686865,0.16756153,0.0492284,-0.098264694,0.23654744,-0.03374115,0.9467565,2017-06-24 21:24:19,32.573220151356026
4.4179006,0.3878607,8.909423,0.0018291378,-0.016462233,-0.0047557545,0.0,4.3054914,0.41720712,8.801084,0.074101925,-0.026952237,0.20171356,0.22477902,-0.027276712,0.9511096,2017-06-24 21:24:20,78.05256311856635
4.3819876,0.49081135,8.93576,0.0050218133,0.011207622,0.0016295966,0.0,4.3658433,0.44254914,8.77006,0.016144276,0.04826221,0.16569996,0.22833316,-0.026746228,0.95026004,2017-06-24 21:24:21,59.242969396875964
4.506486,0.41180268,8.863934,-0.0045562135,0.009079171,-0.0036915294,0.0,4.3924565,0.44685906,8.756542,0.11402941,-0.035056382,0.10739136,0.22982326,-0.026867734,0.9498857,2017-06-24 21:24:22,33.239766091162565
4.484938,0.39025488,8.897452,0.0018291378,-0.004755757,-0.0026273048,0.0,4.441949,0.42410517,8.732675,0.042989254,-0.033850282,0.16477776,0.23222618,-0.028783534,0.94911844,2017-06-24 21:24:23,31.555245451427936
4.4394484,0.49799395,8.796896,0.012471389,-0.009012657,0.013336073,0.0,4.5268025,0.44628993,8.6878805,-0.08735418,0.05170402,0.109015465,0.23712257,-0.028535204,0.9480703,2017-06-24 21:24:24,56.549531876084
4.717176,0.5650316,8.612542,0.13379306,0.051648177,0.12933661,0.0,4.5248694,0.4820388,8.686977,0.19230652,0.08299279,-0.074435234,0.23748401,-0.026244251,0.9484321,2017-06-24 21:24:25,69.81114615502514
4.6285906,0.4429273,8.7849245,0.0071502635,5.6536915E-4,0.0016295966,0.0,4.61026,0.47233257,8.642499,0.018330574,-0.029405266,0.14242554,0.24210492,-0.027210053,0.94774175,2017-06-24 21:24:26,32.64823231987742
4.2742486,-0.7493851,8.878299,0.017792515,-0.03455406,-0.037746735,0.0,4.648744,0.48951656,8.620901,-0.3744955,-1.2389016,0.25739765,0.24437799,-0.027125116,0.9468889,2017-06-24 21:24:27,36.49765531442297
3.7666779,3.4811692,9.297284,-0.09182268,-0.86890656,0.26449323,0.0,4.1665807,2.299158,8.574606,-0.39990282,1.1820111,0.7226782,0.24465138,0.05442864,0.92894375,2017-06-24 21:24:28,45.39039356887753
5.9741316,1.0055647,9.029133,0.090159826,-0.0036915313,-0.028168708,0.0,6.0345798,0.8552738,7.6826262,-0.06044817,0.1502909,1.3465066,0.32739544,-0.033276327,0.9167662,2017-06-24 21:24:29,67.01990175231259
10.003573,4.6806645,-19.756353,1.9961871,2.4067783,-0.43151003,0.0,4.5900245,0.6856185,8.638981,1.3721361,-1.6073861,1.058135,0.24378988,0.010052765,0.9642232,2017-06-24 21:24:30,33.83205145550609
2.6270378,2.3295584,9.321226,0.027370542,0.012271846,-0.018590681,0.0,3.284642,2.6843328,8.841712,-0.6576042,-0.35477448,0.47951412,0.19544287,0.10488199,0.9570542,2017-06-24 21:24:31,66.32488055519077
2.7730842,2.2457612,9.208698,-0.017326914,-0.0122053325,0.015464523,0.0,3.162249,2.5183818,8.9346695,-0.38916492,-0.27262068,0.27402878,0.18779626,0.09587074,0.9579316,2017-06-24 21:24:32,53.35074200566829
3.2734723,1.5610195,9.177573,-0.36213586,-0.060095463,0.06441888,0.0,3.5232701,1.7466397,8.983664,-0.24979782,-0.18562019,0.19390965,0.19790225,0.052871056,0.959444,2017-06-24 21:24:33,55.96362485761448
3.41473,0.8379706,9.282919,0.008214489,-0.010076882,-0.03455406,0.0,3.6407528,0.902472,9.060952,-0.08955312,-0.1435101,0.12380409,0.19478554,0.008866386,0.96174,2017-06-24 21:24:34,35.48829427659426
3.6900635,0.90740246,9.2494,7.649129E-4,-0.0122053325,0.0016295966,0.0,3.6384146,0.93600243,9.058489,0.051648855,-0.028599977,0.1909113,0.1951228,0.0085260635,0.95957685,2017-06-24 21:24:35,35.47203267222456
3.6373909,0.8738836,9.117719,-0.012005788,0.013336072,-4.988536E-4,0.0,3.5859659,0.81985456,9.090604,0.05142498,0.054029047,0.027114868,0.19103354,0.0037932708,0.9610407,2017-06-24 21:24:36,35.022022893656825
3.532046,0.79487497,9.270947,-2.9931264E-4,-0.013269559,5.653715E-4,0.0,3.5267894,0.81246686,9.114387,0.005256653,-0.027168691,0.18529129,0.18783447,0.0037186309,0.9613014,2017-06-24 21:24:37,68.39976176704906
3.532046,0.80924016,9.177573,0.003957588,0.025042547,0.016528748,0.0,3.4616518,0.7851339,9.141713,0.07039428,0.024106264,0.03586006,0.18407929,0.0041434853,0.9632064,2017-06-24 21:24:38,35.503621379648735
3.5152867,0.7182605,9.299678,0.076324895,-0.009012657,-0.006884205,0.0,3.4287221,0.6632159,9.163755,0.08656454,0.05504465,0.13592243,0.18102558,-0.0028791507,0.96248436,2017-06-24 21:24:39,35.5946872004563
3.6661212,0.6560113,9.314043,-0.023712266,-0.02816871,0.04526283,0.0,3.3978987,0.723232,9.170693,-0.019081593,-0.05285549,0.13137913,0.18006884,8.3607774E-5,0.962197,2017-06-24 21:24:40,65.01826337462121
3.46022,0.8571242,9.354745,0.008214489,5.6536915E-4,-0.020719133,0.0,3.3912852,0.74670976,9.17126,0.06893492,0.110414445,0.18348503,0.17998508,0.0011340585,0.96197104,2017-06-24 21:24:41,72.42686134594058
3.663727,2.2146366,8.093,0.7361445,0.20170392,-0.21440811,0.0,3.6577399,2.1637566,8.837957,0.0059871674,0.050879955,-0.744957,0.21253212,0.064959265,0.9476099,2017-06-24 21:24:42,55.459084792679505
4.4155064,0.521936,8.811261,0.0060860384,-0.01965491,-0.0015630787,0.0,4.371109,0.59385586,8.758489,0.15453053,-0.06952566,-0.124399185,0.22978865,-0.025268756,0.94396305,2017-06-24 21:24:43,33.69681144539216
4.50888,0.6368576,8.988432,-0.007748889,0.018657196,-0.0026273048,0.0,4.3935294,0.69572127,8.739752,0.11535072,-0.05886364,0.24868011,0.23232631,-0.020522166,0.94334644,2017-06-24 21:24:44,33.19727894379423
3.5128925,0.8619126,9.060258,0.05397617,-0.19844474,0.027171,0.0,3.433048,0.80173695,9.151054,0.079844475,0.060175657,-0.09079647,0.18277162,-0.0045425626,0.9515336,2017-06-24 21:24:45,34.555446275456156
4.3077674,0.56982,9.191938,0.11782968,-0.04306786,0.027171,0.0,4.1990356,0.934025,8.812836,0.09676075,0.0715397,0.07503986,0.22498083,-0.007350191,0.94367504,2017-06-24 21:24:46,37.56146363570054
3.342904,2.4636335,8.279748,0.13485728,0.36665884,-0.3538216,0.0,3.6993387,2.3981047,8.759816,-0.35643458,0.06552887,-0.4800682,0.22195761,0.06409768,0.93119735,2017-06-24 21:24:47,81.94087645510996
-2.247557,-0.6488287,10.661979,0.2668212,-0.64435506,0.004822272,0.0,0.4489386,-0.6620522,9.773972,-2.6964955,0.013223529,0.88800716,-0.0119516505,-0.039029237,0.62652934,2017-06-24 21:24:48,82.23139820451608
-0.38965634,0.011971008,9.962872,-2.9931264E-4,5.6536915E-4,-4.988536E-4,4.0,-0.43651468,-0.02920868,9.796886,0.04685834,0.041179687,0.1659851,-0.01637277,0.015156842,0.6866673,2017-06-24 21:24:49,82.76175496567873
-0.41599256,-0.023942016,9.826403,-2.9931264E-4,-4.9885595E-4,-4.988536E-4,7.0,-0.42219466,-0.04683925,9.797445,0.0062021017,0.022897232,0.028957367,-0.016621433,0.013893066,0.6917127,2017-06-24 21:24:50,82.1388622879403
-0.3776853,-0.01436521,9.831191,7.649129E-4,-4.9885595E-4,-0.0015630787,4.0,-0.4168606,-0.06036179,9.7976,0.0391753,0.04599658,0.03359127,-0.017006569,0.013122216,0.69584143,2017-06-24 21:24:51,82.60088890425821
4.647744,-2.9281087,7.453748,2.7230527,-1.6809103,0.06654733,9.0,5.0411863,-4.694955,6.979558,0.87548447,-0.2227354,7.3527317,0.0672906,-0.373649,0.7405098,2017-06-24 21:24:52,80.97817415763441
7.5854297,0.5770026,5.715558,-0.038611416,0.030363673,0.10911634,0.0,7.7857275,-0.7984312,5.908921,-0.20029783,1.3754338,-0.19336271,0.37725592,-0.23750128,0.802221,2017-06-24 21:24:53,81.21472105829457
8.461707,-0.80205756,5.507262,-0.07266662,-0.2729405,0.118694365,2.0,8.116191,-1.3763107,5.3295035,0.3455162,0.57425314,0.1777587,0.3897398,-0.27635813,0.7914767,2017-06-24 21:24:54,83.02883041110886
8.421006,-1.7118542,4.4681787,0.09441672,-0.14097658,0.0314279,0.0,8.371779,-2.1700745,4.623254,0.15696526,0.5922955,0.41474533,0.386904,-0.338504,0.766612,2017-06-24 21:24:55,56.57829465925299
0.64942724,5.791574,5.492897,-0.3685212,0.230438,0.7274311,6.0,-0.38518232,0.06178007,9.798888,1.0346096,5.729794,-4.305991,-0.012447705,0.015518276,0.74120134,2017-06-24 21:24:56,81.24708232098534
-0.3705027,-0.01436521,9.926959,7.649129E-4,0.0016295945,-4.988536E-4,0.0,-0.6148141,0.04122438,9.787272,0.24431139,-0.05558959,0.13968658,-0.022256374,0.022196153,0.75334775,2017-06-24 21:24:58,68.00332560356107
-0.3513491,0.02633622,9.934141,-2.9931264E-4,-4.9885595E-4,-0.0015630787,0.0,-0.50865513,0.055260133,9.793294,0.15730605,-0.028923914,0.1408472,-0.017668154,0.0192047,0.7523203,2017-06-24 21:24:59,69.41011162881887
-0.39683893,-0.02633622,9.929353,7.649129E-4,-0.006884207,-0.0015630787,4.0,-0.43360412,0.040690318,9.796975,0.036765188,-0.06702654,0.13237762,-0.01524743,0.016149668,0.751252,2017-06-24 21:25:00,82.22704733996402
-0.3537433,-0.007182605,9.898229,7.649129E-4,-0.0036915313,-4.988536E-4,4.0,-0.38146958,0.03461543,9.799167,0.027726263,-0.041798037,0.099061966,-0.013427115,0.014186524,0.7500793,2017-06-24 21:25:01,79.64272010517469
-0.3657143,0.04309563,9.840768,7.649129E-4,-4.9885595E-4,-0.0015630787,0.0,-0.34184355,0.02837503,9.80065,-0.023870766,0.0147206,0.040118217,-0.012107649,0.012624081,0.7494048,2017-06-24 21:25:02,82.34868557861716
-0.39444473,0.031124622,9.828796,7.649129E-4,-4.9885595E-4,-4.988536E-4,4.0,-0.3163861,0.021681478,9.801521,-0.07805863,0.009443143,0.027275085,-0.011351296,0.011517557,0.74890083,2017-06-24 21:25:03,77.85414240602793
-0.3728969,0.02633622,9.850345,7.649129E-4,-4.9885595E-4,-4.988536E-4,0.0,-0.29748347,0.019108977,9.802118,-0.075413436,0.007227242,0.048226357,-0.0107113905,0.010785168,0.7486232,2017-06-24 21:25:04,82.2467874076439
-0.3681085,0.01436521,9.912594,-2.9931264E-4,-4.9885595E-4,-4.988536E-4,4.0,-0.29403228,0.014668093,9.80223,-0.074076235,-3.0288287E-4,0.11036396,-0.010732163,0.010496428,0.74878013,2017-06-24 21:25:05,82.49775077184091
-0.53570265,-0.11492168,10.108918,-0.0013635377,-0.02391181,0.0016295966,4.0,-0.30057776,0.0045825127,9.802042,-0.27343208,-0.23682007,-0.0642252,-0.0113232415,0.010332268,0.7487928,2017-06-24 21:25:06,82.71943898306947
-0.3752911,-0.009576807,9.943718,-2.9931264E-4,-0.001563081,-0.0015630787,4.0,-0.31359994,-0.0037605627,9.801634,-0.061691165,-0.005816244,0.14208412,-0.012113319,0.010441384,0.74946594,2017-06-24 21:25:07,68.8562439772783
-0.40402153,-0.019153614,9.871892,0.0018291378,5.6536915E-4,-0.0015630787,0.0,-0.3193149,2.0294152E-4,9.801451,-0.084706634,-0.019356554,0.070441246,-0.012203531,0.0107796015,0.7498,2017-06-24 21:25:08,82.54454791490534
-0.3657143,-0.0023942017,9.881469,7.649129E-4,-0.0026273062,-0.0015630787,4.0,-0.3194851,-1.0827963E-4,9.801444,-0.01989299,0.0288387,0.0058050156,-0.01221677,0.0107777165,0.7495686,2017-06-24 21:25:09,71.58225884055324
-0.39683893,0.038307227,9.771336,-2.9931264E-4,-0.0058199815,-4.988536E-4,0.0,-0.32939267,0.0052478164,9.801115,-0.06744626,0.03305941,-0.029779434,-0.012423324,0.011307631,0.750057,2017-06-24 21:25:10,79.30453643216234
-0.38486794,0.0047884034,10.113707,0.0018291378,-0.001563081,-4.988536E-4,2.0,-0.3325946,0.0091062505,9.801004,-0.052273333,-0.004317847,0.31270218,-0.012419145,0.011559571,0.7502495,2017-06-24 21:25:11,81.33621927766734
-0.3513491,0.019153614,9.821614,7.649129E-4,-0.004755757,-0.0015630787,4.0,-0.34360808,0.009468603,9.800624,-0.007741004,0.009685011,0.020990372,-0.01283355,0.011939327,0.7505238,2017-06-24 21:25:12,80.52199000343377
-0.40402153,0.02633622,9.929353,7.649129E-4,0.0069507197,-0.0015630787,4.0,-0.35436848,0.0077161016,9.800242,-0.049653053,0.018620118,0.12911034,-0.01330902,0.012230108,0.75075465,2017-06-24 21:25:13,82.36845105309607
-0.3585317,-0.01436521,9.790489,7.649129E-4,0.009079171,-0.0026273048,0.0,-0.3594263,0.012263212,9.800054,8.945763E-4,-0.026628423,-0.0095644,-0.013355358,0.012568514,0.75105286,2017-06-24 21:25:14,67.50634197480744
-0.3633201,-0.007182605,9.804854,0.0018291378,-0.010076882,-0.0015630787,4.0,-0.36525023,0.018320909,9.799829,0.0019301176,-0.025503514,0.0050258636,-0.013376549,0.012994685,0.75114673,2017-06-24 21:25:15,83.02864844689222
-0.3752911,-0.009576807,9.934141,-0.0013635377,0.0026938193,-0.0015630787,0.0,-0.3676049,0.015940884,9.799745,-0.0076861978,-0.047065504,0.17270374,-0.013550389,0.012979129,0.75132287,2017-06-24 21:25:16,82.42366292581423
-0.3728969,0.10534488,9.81922,-2.9931264E-4,-0.0026273062,-4.988536E-4,0.0,-0.36998627,0.018830135,9.79965,-0.0029106438,0.08651474,0.019569397,-0.013546622,0.013167782,0.7514291,2017-06-24 21:25:17,82.36655481361039
-0.41120413,0.023942016,9.881469,7.649129E-4,-0.001563081,-0.0015630787,0.0,-0.37331,0.018468967,9.799525,-0.03789413,0.0054730494,0.08194351,-0.013681854,0.013270272,0.75121063,2017-06-24 21:25:18,81.16616336395778
-0.3537433,0.011971008,9.912594,7.649129E-4,-0.004755757,-0.0015630787,0.0,-0.37686056,0.017127782,9.799391,0.023117244,-0.005156774,0.11320305,-0.013860091,0.0133415125,0.75106055,2017-06-24 21:25:19,66.78011338177798
-0.3705027,0.016759412,10.01315,-2.9931264E-4,0.003758045,-0.0015630787,0.0,-0.381306,0.011558248,9.799228,0.010803282,0.0052011646,0.2139225,-0.0142124025,0.013283757,0.7507831,2017-06-24 21:25:20,82.92264853105571
-0.3705027,0.011971008,9.749788,-2.9931264E-4,-0.0058199815,-4.988536E-4,0.0,-0.37725696,0.011679821,9.799384,0.0067542493,2.9118732E-4,-0.049595833,-0.014057558,0.013147342,0.75100493,2017-06-24 21:25:21,80.63140149144073
-0.40162733,-0.04309563,9.831191,7.649129E-4,-0.007948432,-0.0015630787,0.0,-0.37883008,0.008509587,9.799327,-0.022797257,-0.051605217,0.031864166,-0.014219626,0.013084244,0.75075495,2017-06-24 21:25:22,81.659260455364
-0.39923313,0.023942016,10.075399,-2.9931264E-4,-4.9885595E-4,-0.0015630787,0.0,-0.38162416,0.0107129095,9.799215,-0.01760897,0.013229107,0.27618408,-0.014241656,0.013274346,0.7502153,2017-06-24 21:25:23,79.80371205315689
-0.3561375,0.050278235,10.149619,-2.9931264E-4,-0.001563081,-4.988536E-4,0.0,-0.37873456,0.0076648304,9.799331,0.022597045,0.042613406,0.3502884,-0.014229001,0.013065488,0.7499749,2017-06-24 21:25:24,80.30709317725902
-0.41599256,0.011971008,9.512762,7.649129E-4,0.0016295945,-0.0015630787,4.0,-0.37760833,0.009839976,9.799373,-0.026413202,-0.026599389,0.18025875,-0.014115074,0.013107984,0.7501028,2017-06-24 21:25:25,82.7863425628061
-0.3369839,-0.007182605,9.845556,7.649129E-4,5.6536915E-4,-4.988536E-4,0.0,-0.37885514,0.009075015,9.799325,0.04187125,-0.01625762,0.04623127,-0.014192228,0.013116829,0.7502855,2017-06-24 21:25:26,77.78466807710136
-0.3728969,0.007182605,9.802461,7.649129E-4,5.6536915E-4,-0.0015630787,0.0,-0.37410238,0.011853604,9.799505,0.0012054741,-0.0046709985,0.0029554367,-0.013911848,0.013067999,0.750047,2017-06-24 21:25:27,75.86586235623444
-0.41359833,-0.08379706,9.510367,-2.9931264E-4,5.6536915E-4,-4.988536E-4,4.0,-0.37472352,0.0026975651,9.799488,-0.038874805,-0.086494625,-0.28912067,-0.014240753,0.0127427,0.74986,2017-06-24 21:25:28,83.23423324412458
-0.3465607,-0.0023942017,9.931747,7.649129E-4,0.0016295945,-0.0015630787,0.0,-0.3691022,0.0026328308,9.799701,0.022541523,-0.0050270325,0.1320467,-0.014022262,0.01255681,0.7495687,2017-06-24 21:25:29,82.66242071845843
-0.38965634,0.033518825,9.891046,-2.9931264E-4,5.6536915E-4,-0.0026273048,0.0,-0.37366778,0.00606903,9.799526,-0.015988559,0.027449794,0.091519356,-0.014080028,0.012843277,0.74952,2017-06-24 21:25:30,82.9404662821681
-0.3824737,0.050278235,9.874287,7.649129E-4,5.6536915E-4,-0.0015630787,2.0,-0.37543073,0.004484512,9.79946,-0.0070429742,0.045793723,0.07482624,-0.0142029235,0.012840014,0.7496217,2017-06-24 21:25:31,67.04987812962968
-0.39683893,0.04309563,9.754577,7.649129E-4,-4.9885595E-4,-0.0015630787,0.0,-0.3784883,0.0053465175,9.799342,-0.018350631,0.03774911,-0.044765472,-0.014290767,0.012976205,0.7496186,2017-06-24 21:25:32,82.78404078231061
-0.3561375,0.04070143,9.838373,-2.9931264E-4,5.6536915E-4,-0.0015630787,0.0,-0.37858808,0.00927272,9.7993355,0.022450566,0.03142871,0.039037704,-0.014165836,0.013125652,0.74980694,2017-06-24 21:25:33,82.56759996695283
-0.27234045,0.021547815,9.891046,0.0018291378,-0.02391181,-4.988536E-4,0.0,-0.37375382,0.010618532,9.79952,0.10141337,0.010929283,0.09152603,-0.013936611,0.013012786,0.7498673,2017-06-24 21:25:34,79.20611335078262
-0.3537433,0.08619126,10.092158,7.649129E-4,0.0016295945,-0.0015630787,0.0,-0.3680277,0.016285824,9.799728,0.014284372,0.06990544,0.29242992,-0.013529443,0.013033149,0.7500268,2017-06-24 21:25:35,82.94066633104148
-0.3705027,-0.009576807,9.881469,-2.9931264E-4,0.0016295945,-0.0015630787,0.0,-0.3701109,0.017151281,9.799648,-3.9181113E-4,-0.026728088,0.08182049,-0.013586215,0.013130082,0.7503391,2017-06-24 21:25:36,81.55534200365294
-0.3681085,0.035913024,9.87668,7.649129E-4,-4.9885595E-4,-0.0015630787,0.0,-0.3737011,0.010224011,9.799521,0.0055925846,0.025689013,0.07715893,-0.013958702,0.012984318,0.75041693,2017-06-24 21:25:37,70.71639266934866
-0.39205053,0.016759412,10.025121,0.0018291378,5.6536915E-4,5.653715E-4,2.0,-0.3745905,0.011731395,9.799486,-0.022248447,-0.03327921,-0.47107792,-0.0139462985,0.0130673675,0.75063545,2017-06-24 21:25:38,65.3083621251544
-0.3609259,0.1364695,9.733028,7.649129E-4,5.6536915E-4,-0.0015630787,0.0,-0.3787885,0.012576085,9.799324,0.017862588,0.12389341,-0.066295624,-0.014085362,0.013234007,0.75096834,2017-06-24 21:25:39,82.56088710179026
-0.3250129,0.0,9.99639,-2.9931264E-4,-4.9885595E-4,-0.0015630787,0.0,-0.3695086,0.01642117,9.799672,0.0444957,-0.01642117,0.19671822,-0.013601735,0.013067303,0.7510453,2017-06-24 21:25:40,81.79574851855604
-0.32022446,-0.021547815,9.950901,-2.9931264E-4,0.0016295945,-0.0015630787,0.0,-0.367978,0.017181434,9.799728,0.047753543,-0.03872925,0.15117264,-0.013505827,0.013056966,0.7504561,2017-06-24 21:25:41,80.49978456935655
-0.47345337,-0.08619126,9.304466,-2.9931264E-4,5.6536915E-4,-0.0015630787,2.0,-0.37161016,0.010206409,9.799602,-0.10184321,-0.09639767,-0.4951353,-0.013867656,0.012925593,0.74982595,2017-06-24 21:25:42,83.10413243695635
-0.39923313,-0.011971008,9.955689,-2.9931264E-4,5.6536915E-4,-0.0015630787,0.0,-0.37172878,0.014668295,9.799591,-0.027504355,-0.026639303,0.15609837,-0.013725441,0.0130963065,0.75001526,2017-06-24 21:25:43,81.5852494675458
-0.095169514,0.6368576,7.867945,-0.51751274,0.51884305,-0.08776532,4.0,0.88785213,0.14823273,9.765251,-0.9830216,0.4886249,-1.897306,0.039254166,-0.023871839,0.756381,2017-06-24 21:25:44,75.45482237212201
10.096947,-2.9616275,-0.39923313,-0.25039223,-0.70182323,-1.0051274,0.0,9.753602,-0.52228314,0.8745551,0.3433447,-2.4393444,-1.2737882,0.6626584,-0.12764777,0.7310687,2017-06-24 21:25:45,69.08065496394136
7.259818,0.50996494,4.583101,-0.6569262,1.2031398,-0.84442943,0.0,6.578334,2.4735222,6.8394156,0.6814842,-1.9635572,-2.2563148,0.38770637,-0.031155152,0.83357036,2017-06-24 21:25:46,74.23870210008319
-0.6937199,-0.45489833,9.306861,-0.08650155,0.032492124,-0.054774337,2.0,-0.48720905,-0.84783274,9.757776,-0.15144423,-0.030839264,-0.42218494,-0.047349032,-0.015809886,0.74626535,2017-06-24 21:25:47,81.39833002000739
-0.6410475,-0.038307227,10.697892,0.0018291378,0.22937377,-0.0036915294,4.0,-0.45030427,0.014991242,9.796294,-0.19074321,-0.05329847,0.901598,-0.016113007,0.01638156,0.7243805,2017-06-24 21:25:48,61.602585907681444
-0.3561375,0.02873042,9.86471,7.649129E-4,0.0016295945,-0.0015630787,4.0,-0.42606485,0.047064822,9.7972765,0.069927335,-0.018334402,0.06743336,-0.014077423,0.016724616,0.7238967,2017-06-24 21:25:49,47.56377796722509
-0.39923313,-0.0023942017,9.922171,-2.9931264E-4,5.6536915E-4,-0.0015630787,4.0,-0.3791948,0.06569306,9.799096,-0.020038337,-0.06808726,0.12307453,-0.011667874,0.015780175,0.7229222,2017-06-24 21:25:50,71.09298653568864
-0.43514615,-0.033518825,9.924564,7.649129E-4,-4.9885595E-4,-0.0015630787,7.0,-0.3450865,0.068325974,9.800339,-0.09005967,-0.1018448,0.12422562,-0.01029414,0.014691392,0.7218632,2017-06-24 21:25:51,49.33945626038562
-0.3489549,0.007182605,10.001179,7.649129E-4,5.6536915E-4,-4.988536E-4,4.0,-0.32091853,0.06659683,9.801171,-0.028036356,-0.059414223,0.20000744,-0.0094533,0.013782853,0.7212825,2017-06-24 21:25:52,80.57653216511574
-0.40880993,0.0047884034,9.804854,7.649129E-4,5.6536915E-4,-0.0015630787,4.0,-0.30867255,0.06669541,9.801563,-0.06661856,-0.047541793,0.032021523,-0.008989462,0.013360481,0.7207818,2017-06-24 21:25:53,82.0942270262286
-0.3824737,0.011971008,9.914988,-2.9931264E-4,5.6536915E-4,5.653715E-4,4.0,-0.30106342,0.057063762,9.801862,-0.08141029,-0.045092754,0.1131258,-0.009045471,0.012740691,0.72053653,2017-06-24 21:25:54,74.14294567751442
-0.39444473,0.02873042,9.922171,7.649129E-4,5.6536915E-4,-0.0015630787,4.0,-0.3054936,0.04622508,9.801782,-0.08895114,-0.017494658,0.120388985,-0.009586763,0.012502679,0.7202736,2017-06-24 21:25:55,65.71457283935932
-0.41599256,0.031124622,9.883863,7.649129E-4,0.0016295945,-0.0026273048,4.0,-0.30786434,0.03924512,9.801738,-0.10812822,-0.0081205,0.082125664,-0.009918684,0.012331786,0.72015816,2017-06-24 21:25:56,47.53596383052576
-0.39444473,0.009576807,9.922171,-2.9931264E-4,-4.9885595E-4,-4.988536E-4,4.0,-0.31860313,0.03544091,9.801409,-0.075841606,-0.025864104,0.12076187,-0.010441972,0.012576846,0.7198335,2017-06-24 21:25:57,75.37632126410523
-0.3752911,-0.007182605,9.768942,7.649129E-4,5.6536915E-4,-0.0015630787,4.0,-0.3286362,0.030553672,9.801094,-0.04665491,-0.037736278,-0.032152176,-0.010983369,0.012752599,0.7198287,2017-06-24 21:25:58,48.74574725906036
-0.40641573,0.023942016,9.914988,-2.9931264E-4,5.6536915E-4,-0.0015630787,4.0,-0.33981732,0.027320813,9.800722,-0.066598415,-0.0033787973,0.11426544,-0.011507061,0.013030915,0.71975213,2017-06-24 21:25:59,82.04271692901314
-0.3513491,-0.02873042,10.156802,-2.9931264E-4,5.6536915E-4,-4.988536E-4,4.0,-0.35092065,0.01708259,9.800355,-4.284382E-4,-0.04581301,0.35644722,-0.012271603,0.01305343,0.7194506,2017-06-24 21:26:00,48.980093129225565
-0.3441665,0.04070143,9.934141,7.649129E-4,5.6536915E-4,-4.988536E-4,4.0,-0.35880882,0.018474042,9.800067,0.014642328,0.022227388,0.13407421,-0.012502845,0.013392344,0.71897733,2017-06-24 21:26:01,83.40603190820802
-0.3752911,-0.031124622,9.93893,7.649129E-4,5.6536915E-4,-4.988536E-4,4.0,-0.36679077,0.011848467,9.799782,-0.008500338,-0.04297309,0.13914776,-0.013023666,0.013438891,0.7186224,2017-06-24 21:26:02,47.21872898079479
-0.3489549,0.019153614,9.850345,7.649129E-4,5.6536915E-4,-4.988536E-4,4.0,-0.3697686,0.013666307,9.799666,0.020813704,0.005487307,0.050678253,-0.013066432,0.013613021,0.71852005,2017-06-24 21:26:03,78.73851207902914
-0.3561375,0.04070143,9.941324,7.649129E-4,-4.9885595E-4,-0.0015630787,4.0,-0.37383237,0.013333807,9.799513,0.010512263,-0.003757,0.1106863,-0.013225107,0.013747009,0.71841127,2017-06-24 21:26:04,80.30011426528405
-0.41359833,-0.05267244,9.850345,-2.9931264E-4,5.6536915E-4,-0.0026273048,4.0,-0.38227513,0.00775631,9.799193,-0.031323195,-0.06042875,0.051151276,-0.013736291,0.013838316,0.7186012,2017-06-24 21:26:05,46.32845794209239
-0.39683893,0.035913024,9.850345,-2.9931264E-4,5.6536915E-4,-0.0015630787,4.0,-0.38377222,0.008559601,9.799134,-0.013066709,0.027353423,0.051210403,-0.0137763005,0.013907405,0.71927917,2017-06-24 21:26:06,82.15767679822542
-0.3537433,-0.016759412,9.881469,7.649129E-4,5.6536915E-4,-0.0015630787,4.0,-0.37876004,0.008990396,9.799329,0.025016725,-0.025749808,0.08213997,-0.01358475,0.013738036,0.7196697,2017-06-24 21:26:07,72.19611398881887
-0.3489549,0.02633622,9.948506,7.649129E-4,0.0016295945,-4.988536E-4,4.0,-0.38299918,0.0068119434,9.799166,-0.0066571534,0.012341671,0.12539864,-0.013818655,0.0138070695,0.7197232,2017-06-24 21:26:08,65.7338248835495
-0.40641573,0.038307227,9.869498,-2.9931264E-4,5.6536915E-4,-0.0015630787,4.0,-0.38307318,0.0109143155,9.799159,-0.02334255,0.027392913,0.0703392,-0.013684929,0.0139516955,0.7201589,2017-06-24 21:26:09,82.86249225315308
-0.3633201,-0.04309563,9.862315,7.649129E-4,5.6536915E-4,-4.988536E-4,4.0,-0.38033935,0.0100338925,9.799267,0.017019242,-0.053129524,0.06304836,-0.01362685,0.013811534,0.7207246,2017-06-24 21:26:10,80.96405346887332
-0.3513491,0.05267244,9.898229,-2.9931264E-4,-4.9885595E-4,-4.988536E-4,4.0,-0.38002172,0.0071203816,9.799282,0.028672636,0.045552056,0.09894657,-0.013717706,0.013693641,0.72070265,2017-06-24 21:26:11,78.88974851316462
-0.38726214,0.0047884034,9.931747,-2.9931264E-4,0.0016295945,-0.0015630787,7.0,-0.3825474,0.007351288,9.799183,-0.0047147274,-0.0025628847,0.13256454,-0.01380089,0.013792966,0.7206239,2017-06-24 21:26:12,82.50722786212002
-0.3513491,0.02873042,9.857527,-2.9931264E-4,-4.9885595E-4,-4.988536E-4,4.0,-0.3825468,0.010629229,9.79918,0.031197727,0.018101191,0.05834675,-0.013685752,0.013912689,0.72066134,2017-06-24 21:26:13,52.24897697215383
-0.40641573,0.016759412,9.835979,0.0018291378,5.6536915E-4,-0.0015630787,4.0,-0.37938076,0.01089637,9.799303,-0.027034968,0.0058630425,0.036676407,-0.013554515,0.013815828,0.72039396,2017-06-24 21:26:14,66.1306849707914
-0.39923313,0.12689269,9.924564,7.649129E-4,-4.9885595E-4,-0.0015630787,4.0,-0.3779328,0.008193808,9.799361,2.4747849E-4,0.013354007,0.1802702,-0.01359489,0.013667258,0.72029525,2017-06-24 21:26:15,70.29022256702895
-0.3657143,0.021547815,9.917382,7.649129E-4,5.6536915E-4,-0.0015630787,4.0,-0.3799331,0.012642184,9.799279,0.014218777,0.008905631,0.11810303,-0.013505877,0.013906518,0.720034,2017-06-24 21:26:16,79.58699706471864
-0.39444473,0.0047884034,9.416994,7.649129E-4,5.6536915E-4,-0.0015630787,4.0,-0.3843066,0.017113617,9.799102,-0.010138124,-0.012325213,-0.38210773,-0.013503914,0.014229749,0.71981424,2017-06-24 21:26:17,77.26964177044792
-0.3752911,0.033518825,9.881469,7.649129E-4,-4.9885595E-4,-0.0015630787,4.0,-0.38123783,0.013488296,9.799228,0.0059467256,0.020030528,0.08224106,-0.013517808,0.013989636,0.71973217,2017-06-24 21:26:18,80.9782523274904
-0.3657143,0.059855044,9.838373,7.649129E-4,5.6536915E-4,-4.988536E-4,4.0,-0.38027793,0.012848262,9.799266,0.01456362,0.047006782,0.039107323,-0.013515053,0.013922604,0.72022307,2017-06-24 21:26:19,59.39417140852889
-0.3824737,0.045489833,9.895834,7.649129E-4,-4.9885595E-4,-0.0015630787,4.0,-0.37931788,0.012017702,9.799304,-0.0031558275,0.033472132,0.09652996,-0.013505913,0.013861277,0.7200618,2017-06-24 21:26:20,80.71776983981675
-0.3298013,0.009576807,9.869498,7.649129E-4,0.0016295945,-4.988536E-4,4.0,-0.37790224,0.011599946,9.799359,0.04810095,-0.002023139,0.07013893,-0.013463287,0.013801096,0.7197915,2017-06-24 21:26:21,51.85500927264876
-0.38726214,0.007182605,9.874287,7.649129E-4,5.6536915E-4,-4.988536E-4,4.0,-0.3795293,0.01094254,9.799297,-0.0077328384,-0.003759935,0.07498932,-0.0135440715,0.013836762,0.71967804,2017-06-24 21:26:22,73.69798945274938
-0.3800795,0.0047884034,9.86471,7.649129E-4,5.6536915E-4,-4.988536E-4,4.0,-0.3794823,0.008081823,9.799301,0.016162187,-0.012870226,0.09174442,-0.013645524,0.0137281865,0.71977484,2017-06-24 21:26:23,54.9502742369111
-0.40641573,-0.007182605,9.900622,7.649129E-4,5.6536915E-4,-0.0015630787,0.0,-0.37974522,0.007469638,9.799293,-0.026670516,-0.014652243,0.1013298,-0.013687244,0.013704647,0.7203006,2017-06-24 21:26:24,57.76176610744149
-0.3657143,0.007182605,9.895834,-2.9931264E-4,-4.9885595E-4,-0.0015630787,4.0,-0.38108513,0.0046373056,9.799241,0.015370816,0.0025452995,0.0965929,-0.013839426,0.013645187,0.7204404,2017-06-24 21:26:25,82.48689257885376
-0.31543607,0.055066638,10.451289,-2.9931264E-4,5.6536915E-4,-0.0015630787,4.0,-0.37468058,0.011215574,9.799484,0.059244514,0.043851063,0.6518049,-0.013374804,0.013657038,0.72061753,2017-06-24 21:26:26,82.12175326690993
-0.42556936,-0.0047884034,9.287707,-2.9931264E-4,5.6536915E-4,-0.0015630787,4.0,-0.37364945,0.010133222,9.799524,-0.051919907,-0.014921625,-0.511817,-0.013376988,0.013578987,0.7207119,2017-06-24 21:26:27,81.99499287232521
-0.3585317,-0.038307227,9.869498,7.649129E-4,-4.9885595E-4,-0.0015630787,4.0,-0.37690106,0.005629003,9.799402,0.018369347,-0.04393623,0.070096016,-0.0136595825,0.013524519,0.72090566,2017-06-24 21:26:28,80.71779685771077
-0.3681085,-0.033518825,9.797672,7.649129E-4,-4.9885595E-4,-0.0015630787,7.0,-0.3783619,0.005398453,9.799347,0.0102534,-0.038917277,-0.0016746521,-0.0137307355,0.013558293,0.72137815,2017-06-24 21:26:29,82.54544920945334
-0.3800795,0.019153614,9.89344,-2.9931264E-4,-4.9885595E-4,-0.0015630787,0.0,-0.37772745,0.004495931,9.799372,-0.002352059,0.014657683,0.09406853,-0.013741534,0.013500352,0.7214956,2017-06-24 21:26:30,78.19804744091948
-0.3705027,0.0047884034,9.924564,-2.9931264E-4,5.6536915E-4,-0.0026273048,4.0,-0.37407047,0.0051037753,9.799512,0.0035677552,-3.153719E-4,0.12505245,-0.013587625,0.013391366,0.72161055,2017-06-24 21:26:32,65.09819962353785
-0.42556936,-0.019153614,9.962872,-2.9931264E-4,-4.9885595E-4,-4.988536E-4,4.0,-0.3756292,0.0036347941,9.799453,-0.04994017,-0.022788407,0.16341877,-0.013697993,0.013391182,0.7216678,2017-06-24 21:26:33,67.55220448250152
-0.3633201,0.016759412,9.84795,7.649129E-4,5.6536915E-4,-4.988536E-4,4.0,-0.37377265,0.0039180964,9.799523,0.010452539,0.012841316,0.048426628,-0.013622673,0.013332957,0.7218268,2017-06-24 21:26:34,75.52013629230981
-0.38726214,-0.009576807,9.965266,-2.9931264E-4,5.6536915E-4,-4.988536E-4,4.0,-0.37483054,0.0049534393,9.799482,0.01869303,0.0046233675,0.0987463,-0.013628037,0.013405437,0.7219774,2017-06-24 21:26:35,80.69144855056678
-0.39205053,0.0,9.898229,7.649129E-4,0.0016295945,-0.0015630787,4.0,-0.37405866,0.0107100075,9.799508,-0.01799187,-0.0107100075,0.09872055,-0.0133954985,0.013591193,0.72192544,2017-06-24 21:26:36,80.35003073661
-0.39205053,-0.016759412,9.934141,-2.9931264E-4,5.6536915E-4,-0.0015630787,4.0,-0.37571746,0.0066368715,9.799448,-0.016333073,-0.023396283,0.13469315,-0.0135991685,0.013500894,0.7218665,2017-06-24 21:26:37,77.91770919164965
-0.38965634,-0.04070143,9.852738,7.649129E-4,5.6536915E-4,-0.0015630787,4.0,-0.37619087,0.008336,9.799428,-0.013465464,-0.04903743,0.053310394,-0.013561205,0.013575623,0.7220978,2017-06-24 21:26:38,81.52429260062922
-0.3537433,0.019153614,9.903017,-2.9931264E-4,0.0016295945,-4.988536E-4,4.0,-0.37612742,0.009863095,9.79943,0.022384107,0.009290518,0.10358715,-0.013502591,0.013632019,0.7219753,2017-06-24 21:26:39,79.54785758399177
-0.3752911,-0.0023942017,9.907805,-2.9931264E-4,-0.0036915313,-0.0015630787,4.0,-0.3686966,0.0053358213,9.799715,-0.006594509,-0.007730023,0.1080904,-0.013387081,0.013204582,0.7219025,2017-06-24 21:26:40,77.13688089599721
-0.3537433,-0.0047884034,9.962872,7.649129E-4,-4.9885595E-4,-4.988536E-4,4.0,-0.37300602,0.0077039427,9.799551,0.019262701,-0.012492346,0.16332054,-0.013459788,0.013446347,0.7217724,2017-06-24 21:26:41,81.80175294911186
-0.3752911,0.059855044,10.17835,7.649129E-4,0.0016295945,-0.0015630787,4.0,-0.37251917,0.014172094,9.7995615,-0.0027719438,0.04568295,0.37878895,-0.013215814,0.01366515,0.721884,2017-06-24 21:26:42,78.11563272835615
-0.3752911,0.033518825,9.924564,7.649129E-4,5.6536915E-4,-0.0015630787,4.0,-0.37220752,0.01643524,9.79957,-0.0030835867,0.017083585,0.12499428,-0.013123859,0.013738075,0.72185266,2017-06-24 21:26:43,80.95040028315105
-0.3633201,0.05267244,9.833585,-2.9931264E-4,0.0016295945,-4.988536E-4,4.0,-0.3725069,0.022108901,9.799548,-3.90023E-4,-0.017320499,0.14177608,-0.012930728,0.013961218,0.7216553,2017-06-24 21:26:44,77.8639822198365
-0.3800795,0.02873042,9.93893,-2.9931264E-4,5.6536915E-4,-0.0015630787,4.0,-0.37100554,0.016953953,9.799615,-0.009073973,0.011776468,0.13931465,-0.013058869,0.013717052,0.7217314,2017-06-24 21:26:45,82.93041870707873
-0.39444473,0.021547815,9.857527,7.649129E-4,5.6536915E-4,-0.0015630787,4.0,-0.3753581,0.014673234,9.799453,-0.01908663,0.006874581,0.058073997,-0.013290498,0.013795565,0.7212699,2017-06-24 21:26:46,81.06312409265458
-0.3824737,-0.019153614,9.87668,7.649129E-4,-0.001563081,-0.0015630787,4.0,-0.3747161,0.014932527,9.799478,-0.007757604,-0.03408614,0.0772028,-0.01325395,0.013786044,0.72108114,2017-06-24 21:26:47,78.7157061869441
-0.3824737,0.038307227,9.87668,-2.9931264E-4,5.6536915E-4,-4.988536E-4,4.0,-0.37324694,0.016057676,9.799532,-0.009226769,0.022249551,0.07714844,-0.013162475,0.013773289,0.7211989,2017-06-24 21:26:48,82.02677098809274
-0.3705027,-0.0047884034,9.907805,7.649129E-4,5.6536915E-4,-0.0015630787,4.0,-0.37599617,0.016592987,9.799425,0.005493462,-0.02138139,0.10838032,-0.013240924,0.013893748,0.72100705,2017-06-24 21:26:49,65.4941544369892
-0.3752911,0.033518825,9.778519,-2.9931264E-4,5.6536915E-4,-4.988536E-4,4.0,-0.37631536,0.016599404,9.799413,0.0010242462,0.016919421,-0.02089405,-0.013246248,0.013911162,0.7206985,2017-06-24 21:26:50,82.04603868172879
-0.3417723,0.038307227,10.233417,-2.9931264E-4,-4.9885595E-4,-0.0015630787,4.0,-0.38080364,0.0093018655,9.79925,0.012695134,-0.016484471,0.04630661,-0.013667259,0.013803555,0.7205968,2017-06-24 21:26:51,53.941715135856505
-0.39923313,-0.019153614,9.87668,0.0018291378,-0.0026273062,-4.988536E-4,4.0,-0.37961823,0.005221635,9.799298,-0.019614905,-0.024375249,0.07738209,-0.013763232,0.013616402,0.7203593,2017-06-24 21:26:52,81.91213386070523
-0.3728969,-0.0023942017,9.89344,-2.9931264E-4,5.6536915E-4,-4.988536E-4,4.0,-0.37981316,0.0069857957,9.79929,0.0069162548,-0.009379998,0.09415054,-0.013703048,0.013693083,0.7201079,2017-06-24 21:26:53,80.1108251882404
-0.41120413,-0.035913024,9.891046,7.649129E-4,-0.001563081,-4.988536E-4,4.0,-0.37535188,0.00545181,9.799463,0.035973787,-6.634067E-4,0.15622616,-0.013589316,0.013482971,0.7199011,2017-06-24 21:26:54,49.902517910366775
-0.3609259,-0.016759412,9.965266,7.649129E-4,5.6536915E-4,-0.0026273048,4.0,-0.37224048,0.0043937797,9.7995825,0.011314571,-0.021153193,0.16568375,-0.013517531,0.013328849,0.72016644,2017-06-24 21:26:55,81.95263688323652
-0.41120413,0.0047884034,9.838373,7.649129E-4,-4.9885595E-4,-0.0015630787,7.0,-0.3727239,0.0110511435,9.799558,-0.038480222,-0.00626274,0.0388155,-0.013300589,0.01358972,0.72020626,2017-06-24 21:26:56,81.47326706635822
-0.39923313,0.045489833,9.850345,-2.9931264E-4,5.6536915E-4,-0.0015630787,4.0,-0.3735487,0.013501163,9.799523,-0.025684446,0.03198867,0.050821304,-0.01324786,0.013705402,0.72038895,2017-06-24 21:26:57,80.68834079757534
-0.41120413,-0.033518825,9.869498,-2.9931264E-4,-4.9885595E-4,-0.0015630787,4.0,-0.37909004,0.010808541,9.7993145,0.0037989318,0.0466523,0.082154274,-0.013546039,0.013803192,0.72034925,2017-06-24 21:26:58,80.13609805430195
-0.3393781,-0.04309563,9.855133,7.649129E-4,-4.9885595E-4,-0.0015630787,4.0,-0.37626374,0.012730713,9.79942,0.03688565,-0.055826344,0.0557127,-0.013370097,0.013777799,0.72014534,2017-06-24 21:26:59,81.46670661725777
-0.40162733,-0.0047884034,9.804854,7.649129E-4,5.6536915E-4,-4.988536E-4,4.0,-0.38151634,0.0128994165,9.799217,-0.020110995,-0.01768782,0.005637169,-0.013546898,0.013979803,0.71963346,2017-06-24 21:27:00,82.1725473956529
-0.3513491,0.047884032,9.910199,-2.9931264E-4,-4.9885595E-4,-0.0026273048,4.0,-0.38341823,0.015806777,9.799139,0.032069147,0.032077253,0.11106014,-0.013511536,0.0141560435,0.7195207,2017-06-24 21:27:01,80.96880107437569
-0.40880993,-0.016759412,9.948506,7.649129E-4,-4.9885595E-4,-0.0015630787,4.0,-0.38277936,0.013507847,9.799167,-0.02603057,-0.03026726,0.14933968,-0.013570905,0.014047667,0.7195916,2017-06-24 21:27:02,48.04742049326735
-0.3752911,0.038307227,9.824008,7.649129E-4,5.6536915E-4,-0.0015630787,4.0,-0.38005367,0.014321633,9.799273,0.00476256,0.023985595,0.02473545,-0.0134463655,0.013976815,0.7198094,2017-06-24 21:27:03,76.92127269375365
-0.38965634,-0.0023942017,9.855133,7.649129E-4,5.6536915E-4,-0.0026273048,4.0,-0.37931392,0.016887125,9.799297,-0.010342419,-0.019281326,0.055835724,-0.013329609,0.014043666,0.7198696,2017-06-24 21:27:04,79.92148080457059
-0.40162733,-0.011971008,9.900622,0.0018291378,5.6536915E-4,-0.0026273048,4.0,-0.3769777,0.014761413,9.799391,-0.02464962,-0.026732422,0.101231575,-0.013314656,0.0138871,0.7196529,2017-06-24 21:27:05,78.36196416678038
-0.40162733,0.06943185,9.783307,-2.9931264E-4,5.6536915E-4,-0.0015630787,4.0,-0.37866056,0.0130833145,9.799328,-0.022966772,0.056348532,-0.016020775,-0.013436499,0.013884473,0.7196841,2017-06-24 21:27:06,81.63167530763121
-0.40880993,-0.045489833,9.888652,-2.9931264E-4,5.6536915E-4,-0.0015630787,4.0,-0.3782972,0.007677001,9.799348,-0.03051272,-0.053166833,0.08930397,-0.013616655,0.013671039,0.7197922,2017-06-24 21:27:07,81.39650353368184
-0.3513491,0.0047884034,9.948506,7.649129E-4,-4.9885595E-4,-0.0015630787,4.0,-0.37597057,0.006263709,9.799438,0.024621487,-0.0014753058,0.14906788,-0.013577846,0.013540168,0.71962047,2017-06-24 21:27:08,81.63880342064525
-0.3824737,0.02633622,9.87668,-2.9931264E-4,-0.001563081,-0.0015630787,4.0,-0.37629482,0.008357779,9.799424,-0.0061788857,0.017978441,0.0772562,-0.013523477,0.013620711,0.7200206,2017-06-24 21:27:09,82.15378552794195
-0.38965634,0.0023942017,9.802461,7.649129E-4,5.6536915E-4,-0.0015630787,4.0,-0.3809295,0.009119385,9.799245,-0.008726835,0.017216835,0.11334896,-0.013674288,0.013805309,0.7203934,2017-06-24 21:27:10,82.23775496610415
-0.3561375,0.047884032,10.331579,7.649129E-4,5.6536915E-4,-0.0015630787,4.0,-0.3741967,0.0126689365,9.7995,0.018059194,0.035215095,0.53207874,-0.0132998945,0.013698925,0.7203271,2017-06-24 21:27:11,47.26752060063576
