ACC_X,ACC_Y,ACC_Z,GYRO_X,GYRO_Y,GYRO_Z,LIGH_1,GRAV_X,GRAV_Y,GRAV_Z,LINACC_X,LINACC_Y,LINACC_Z,ROTVEC_X,ROTVEC_Y,ROTVEC_Z,TIME,VOICE
-1.8387469,0.33518824,9.713276,0.0,0.0,0.0,8.96,0.0,0.0,0.0,0.0,0.0,0.0,0.0,0.0,0.0,2016-12-26 22:37:36,34.687020193912325
-1.9297266,0.4405331,9.689334,-0.009817477,0.006544985,-0.0010908308,12.799999,-1.9201498,0.37349546,9.610326,-0.009576807,0.06703765,0.079008654,0.10355684,0.016889747,-0.9717854,2016-12-26 22:37:37,23.12886667757683
-2.4468741,0.56982,10.2495775,0.16144295,0.22907446,-0.0109083075,10.88,-2.0494366,0.47405192,9.579201,-0.39743748,0.095768064,0.6703765,0.1128972,0.021463871,-0.96958005,2016-12-26 22:37:38,31.028630138661846
-1.9153614,0.45968673,9.861717,0.018544123,0.0021816615,0.0010908308,8.96,-1.9009962,0.45250413,9.610326,-0.01436521,0.007182605,0.25139117,0.10583412,0.024118967,-0.96958214,2016-12-26 22:37:39,22.219790184215835
-1.9536686,0.36391866,9.847352,0.0076358155,-0.019634955,-0.004363323,12.16,-1.8962077,0.45489833,9.61272,-0.05746084,-0.090979666,0.23463176,0.10608734,0.026063725,-0.9685687,2016-12-26 22:37:40,23.420811977217912
-1.8004397,-0.05746084,9.7324295,0.0032724924,0.01308997,-0.009817477,8.96,-1.9800048,0.25139117,9.603143,0.17956513,-0.30885202,0.12928689,0.10814419,0.038487308,-0.96786577,2016-12-26 22:37:41,24.651224941954425
-2.0685902,0.062249243,9.7563715,-0.021816615,0.025089107,-0.009817477,8.96,-1.9608512,0.033518825,9.610326,-0.107739076,0.02873042,0.14604631,0.1037384,0.044687852,-0.96970534,2016-12-26 22:37:42,24.3082726689261
-1.9632454,0.05746084,9.722853,0.006544985,0.006544985,0.01308997,9.599999,-1.9416976,-0.02633622,9.61272,-0.021547815,0.08379706,0.110133275,0.10149079,0.044340365,-0.96992195,2016-12-26 22:37:43,24.655532389423893
-2.0638018,-0.11492168,9.842564,0.009817477,0.0076358155,0.008726646,8.96,-1.9847932,0.009576807,9.605537,-0.079008654,-0.12449849,0.23702596,0.10351002,0.04064235,-0.96969527,2016-12-26 22:37:44,22.09196549228341
-1.8962077,-0.32561144,9.866506,-0.008726646,0.0032724924,0.0021816615,12.16,-1.9081788,-0.062249243,9.619903,0.011971008,-0.2633622,0.24660277,0.09853983,0.041313753,-0.970386,2016-12-26 22:37:45,27.280475708974446
-2.030283,-0.15801731,9.904813,-0.0021816615,-0.011999139,-0.0021816615,11.5199995,-1.9321208,0.0023942017,9.615114,-0.09816227,-0.1604115,0.2896984,0.1001109,0.036777943,-0.97052324,2016-12-26 22:37:46,26.592861588315955
-1.9728222,-0.07182605,9.933543,0.016362462,-0.0010908308,0.004363323,11.5199995,-1.99437,0.055066638,9.603143,0.021547815,-0.12689269,0.33039984,0.10347644,0.033700638,-0.9699404,2016-12-26 22:37:47,27.123918679648686
-2.006341,-0.10055647,9.904813,0.004363323,0.004363323,0.0021816615,10.88,-2.0518308,0.12689269,9.588778,0.045489833,-0.22744916,0.31603462,0.10678829,0.02977416,-0.9696982,2016-12-26 22:37:48,22.529187363010166
-1.9776106,0.0047884034,9.785102,-0.0021816615,-0.009817477,-0.0021816615,12.16,-2.099715,0.16759412,9.579201,0.12210429,-0.16280572,0.20590134,0.10924751,0.02762907,-0.9692803,2016-12-26 22:37:49,22.62609273845055
-1.9249382,-0.08140286,9.813833,0.0010908308,0.0109083075,0.004363323,11.5199995,-2.147599,0.21787235,9.56723,0.22266077,-0.29927522,0.24660277,0.11174129,0.025210533,-0.96886206,2016-12-26 22:37:50,25.503990808208343
-1.9536686,-0.038307227,9.718064,0.009817477,0.023998277,-0.0021816615,12.16,-2.1978772,0.2753332,9.555259,0.24420857,-0.31364042,0.16280572,0.11436428,0.022552874,-0.96850264,2016-12-26 22:37:51,23.015273398754246
-2.0111294,-0.05746084,9.7803135,0.0010908308,0.011999139,0.004363323,10.88,-2.2481554,0.30406362,9.540894,0.23702596,-0.36152446,0.23942018,0.1165687,0.02175079,-0.96785724,2016-12-26 22:37:52,39.04622127665437
-1.9871874,-0.01436521,9.847352,0.0054541538,-0.0076358155,0.009817477,10.88,-2.3104045,0.36391866,9.524135,0.32321724,-0.37828386,0.32321724,0.11964099,0.019496616,-0.9672488,2016-12-26 22:37:53,21.931593961976677
-2.054225,-0.07182605,9.818622,0.009817477,-0.011999139,-0.0010908308,12.16,-2.2864625,0.32561144,9.531317,0.23223756,-0.39743748,0.2873042,0.117192894,0.02103129,-0.9674919,2016-12-26 22:37:54,21.902441299712038
-1.9967642,-0.22026655,9.674969,-0.0021816615,0.0032724924,-0.0109083075,12.16,-2.2361844,0.2873042,9.545682,0.23942018,-0.50757074,0.12928689,0.113514006,0.022377048,-0.96782887,2016-12-26 22:37:55,21.152567754023245
-2.0207062,-0.076614454,9.82341,0.006544985,0.0076358155,0.004363323,12.16,-2.2146366,0.2633622,9.55047,0.19393034,-0.33997664,0.272939,0.11162953,0.023178186,-0.968137,2016-12-26 22:37:56,22.21653273113987
-2.0494366,-0.076614454,9.8042555,-0.0054541538,0.004363323,-0.0109083075,12.16,-2.2026656,0.23463176,9.555259,0.15322891,-0.31124622,0.24899697,0.11022156,0.024240814,-0.96846426,2016-12-26 22:37:57,22.250560849084916
-1.8100165,-0.40701428,9.933543,-0.04145157,-0.018544123,-0.0109083075,11.5199995,-1.99437,-0.019153614,9.603143,0.18435353,-0.3878607,0.33039984,0.096314535,0.034725428,-0.96887904,2016-12-26 22:37:58,20.982758904966417
-1.8866309,-0.24899697,9.904813,0.004363323,0.0010908308,0.0010908308,13.44,-2.066196,0.033518825,9.586384,0.17956513,-0.2825158,0.3184288,0.10028602,0.03293748,-0.96865714,2016-12-26 22:37:59,25.336714567791457
-1.9680338,-0.320823,9.991004,0.0109083075,0.011999139,-0.008726646,12.799999,-2.0638018,0.02633622,9.588778,0.095768064,-0.34715924,0.40222588,0.099945486,0.03278322,-0.9694687,2016-12-26 22:38:00,23.581490841906422
-1.8004397,-0.37828386,9.828198,0.022907447,0.050178215,-0.0076358155,12.799999,-1.946486,-0.1340753,9.610326,0.14604631,-0.24420857,0.21787235,0.09207313,0.039303232,-0.9700991,2016-12-26 22:38:01,22.707516005717686
-1.8052281,0.08619126,9.665392,0.0,-0.04145157,-0.011999139,10.88,-1.7788919,-0.11492168,9.643845,-0.02633622,0.20111294,0.021547815,0.08344921,0.037659265,-0.9677324,2016-12-26 22:38:02,35.288620888102024
-1.8148049,-0.10055647,9.78989,-0.0021816615,-0.01308997,-0.006544985,12.16,-1.8579005,0.090979666,9.629479,0.04309563,-0.19153613,0.1604115,0.08991116,0.027849479,-0.9684091,2016-12-26 22:38:03,71.37643897793659
-1.7717092,-0.110133275,9.909601,0.0032724924,-0.008726646,-0.006544985,11.5199995,-1.8219875,0.055066638,9.636662,0.050278235,-0.16519992,0.272939,0.08785206,0.02913021,-0.96847475,2016-12-26 22:38:04,23.474804470866445
-1.7190368,-0.19153613,9.67018,0.0076358155,-0.009817477,-0.004363323,12.16,-1.7980455,0.04309563,9.64145,0.079008654,-0.23463176,0.02873042,0.086686954,0.029401993,-0.9685713,2016-12-26 22:38:05,20.919891888539958
-1.910573,-0.21068975,9.933543,0.0010908308,-0.0021816615,-0.009817477,11.5199995,-1.8028339,0.04070143,9.64145,-0.107739076,-0.25139117,0.29209262,0.086975,0.029505735,-0.9684757,2016-12-26 22:38:06,30.947971056431513
-1.7621324,-0.18195933,9.689334,0.020725785,-0.021816615,0.0032724924,12.16,-1.8004397,0.016759412,9.64145,0.038307227,-0.19871874,0.047884032,0.08666587,0.030692779,-0.9684941,2016-12-26 22:38:07,20.766025216387693
-1.7812861,-0.320823,9.957485,-0.0032724924,-0.0010908308,0.006544985,11.5199995,-1.7956513,0.02633622,9.64145,0.01436521,-0.34715924,0.31603462,0.08671892,0.030138457,-0.9684739,2016-12-26 22:38:08,33.288262416464185
-1.8531121,-0.18195933,9.885659,-0.008726646,-0.008726646,0.004363323,12.16,-1.8148049,0.02873042,9.639056,-0.038307227,-0.21068975,0.24660277,0.08783294,0.030388502,-0.96815205,2016-12-26 22:38:10,21.797252923828772
-1.7621324,-0.14844051,9.880871,-0.004363323,-0.0032724924,0.0010908308,12.16,-1.7812861,0.0047884034,9.643845,0.019153614,-0.15322891,0.23702596,0.0859828,0.031059656,-0.96839446,2016-12-26 22:38:11,20.843304656197116
-1.8291701,-0.11971009,9.593566,-0.0021816615,-0.0032724924,-0.0032724924,11.5199995,-1.7884687,-0.0023942017,9.643845,-0.04070143,-0.11731588,-0.050278235,0.08636053,0.031419296,-0.9685,2016-12-26 22:38:12,21.155273055274982
-1.7429788,-0.17717093,9.842564,0.0021816615,0.011999139,0.0010908308,12.799999,-1.7142484,-0.08140286,9.655815,-0.02873042,-0.095768064,0.18674773,0.08189686,0.034309298,-0.9689445,2016-12-26 22:38:13,23.37621467439806
-1.7956513,-0.2825158,9.861717,-0.0076358155,0.006544985,0.0010908308,12.799999,-1.745373,-0.074220255,9.651027,-0.050278235,-0.20829555,0.21068975,0.08368435,0.03433086,-0.9686444,2016-12-26 22:38:14,24.751564599069162
-1.757344,-0.24420857,9.885659,-0.0054541538,-0.025089107,-0.009817477,11.5199995,-1.7549498,-0.05746084,9.648633,-0.0023942017,-0.18674773,0.23702596,0.08448361,0.033628006,-0.9685257,2016-12-26 22:38:15,23.278312919980564
-1.7908629,-0.19153613,9.880871,0.008726646,-0.0032724924,-0.008726646,12.799999,-1.7741034,-0.06703765,9.646238,-0.016759412,-0.12449849,0.23463176,0.08541189,0.03422235,-0.96839285,2016-12-26 22:38:16,21.375650875623503
-1.7381904,-0.31124622,10.024523,0.015271631,-0.0021816615,0.009817477,12.799999,-1.7286136,-0.079008654,9.653421,-0.009576807,-0.23223756,0.37110126,0.08308433,0.03421283,-0.9685955,2016-12-26 22:38:17,22.274046015315264
-1.6807296,-0.2633622,9.832987,0.004363323,0.015271631,0.0,12.799999,-1.7262194,-0.09816227,9.653421,0.045489833,-0.16519992,0.17956513,0.082891844,0.03500487,-0.968801,2016-12-26 22:38:18,22.658001678796328
-1.8243817,-0.24899697,9.876082,0.004363323,0.017453292,-0.0054541538,13.44,-1.7405846,-0.10055647,9.651027,-0.08379706,-0.14844051,0.22505496,0.08375761,0.035258174,-0.96859694,2016-12-26 22:38:19,23.157473713737584
-1.7621324,-0.39264908,9.785102,-0.004363323,0.0010908308,0.004363323,11.5199995,-1.7477672,-0.10295067,9.651027,-0.01436521,-0.2896984,0.1340753,0.0841001,0.035472903,-0.9683285,2016-12-26 22:38:20,26.309488175476034
-1.8339585,-0.40222588,9.861717,-0.038179077,-0.0076358155,0.015271631,12.799999,-1.7477672,-0.1412579,9.648633,-0.08619126,-0.260968,0.21308395,0.0837329,0.03714487,-0.96849006,2016-12-26 22:38:21,24.62962338699553
-1.7621324,-0.29688102,9.876082,-0.073085666,-0.05454154,-0.023998277,0.0,-1.6017209,-0.29927522,9.67018,-0.1604115,0.0023942017,0.20590134,0.074747,0.04299882,-0.96925735,2016-12-26 22:38:22,23.51437949857704
-1.7190368,-0.4213795,9.842564,0.0,0.008726646,-0.0109083075,5.12,-1.5777789,-0.29688102,9.674969,-0.1412579,-0.12449849,0.16759412,0.07373514,0.04237131,-0.96942997,2016-12-26 22:38:23,28.024629967141912
-1.5466543,-0.5554548,9.646238,0.020725785,-0.015271631,-0.008726646,5.12,-1.5514427,-0.36391866,9.677363,0.0047884034,-0.19153613,-0.031124622,0.07185352,0.0453037,-0.96943176,2016-12-26 22:38:24,44.69820881167653
-1.6136919,-0.5315128,9.904813,-0.011999139,-0.011999139,0.015271631,5.12,-1.5921441,-0.35913026,9.67018,-0.021547815,-0.17238252,0.23463176,0.07405422,0.045403305,-0.96929896,2016-12-26 22:38:25,31.18465206107624
-1.5610195,-0.59376204,9.809045,-0.073085666,-0.018544123,-0.0076358155,8.32,-1.5610195,-0.45729253,9.672575,0.0,-0.1364695,0.1364695,0.07208963,0.048233323,-0.9738308,2016-12-26 22:38:26,37.06394678763735
-1.6376339,-0.50757074,9.813833,0.0032724924,0.004363323,-0.009817477,8.32,-1.5921441,-0.46686932,9.665392,-0.045489833,-0.04070143,0.14844051,0.07353774,0.04874519,-0.9739084,2016-12-26 22:38:27,37.678431096284825
-1.6089035,-0.48841715,9.713276,0.0,-0.009817477,0.0021816615,8.32,-1.6160861,-0.48602295,9.660604,0.007182605,-0.0023942017,0.05267244,0.07458088,0.049646236,-0.97394407,2016-12-26 22:38:28,50.55285876257743
-1.7190368,-0.60333884,9.991004,-0.06435902,-0.050178215,-0.0054541538,8.32,-1.6256629,-0.5650316,9.655815,-0.093373865,-0.038307227,0.33518824,0.07415767,0.05316934,-0.97426975,2016-12-26 22:38:29,30.692525007539192
-1.5227122,-0.8283938,9.842564,0.05454154,0.0032724924,0.016362462,7.68,-1.541866,-0.61052144,9.665392,0.019153614,-0.21787235,0.17717093,0.06929821,0.05437235,-0.97412765,2016-12-26 22:38:30,53.69007394754415
-1.4556746,-0.842759,9.813833,-0.0283616,-0.008726646,-0.0054541538,13.44,-1.4820108,-0.7206547,9.667787,0.02633622,-0.12210429,0.14604631,0.06534038,0.058821764,-0.9744452,2016-12-26 22:38:31,33.6078426682932
-1.3742718,-0.7565677,10.043676,0.015271631,0.004363323,-0.0010908308,14.08,-1.472434,-0.7015011,9.67018,0.09816227,-0.055066638,0.37349546,0.06492179,0.057525534,-0.97416914,2016-12-26 22:38:32,30.30253018235836
-1.5658079,-0.48841715,9.91439,0.0010908308,-0.07417649,0.02727077,17.279999,-1.376666,-0.6655881,9.68694,-0.18914193,0.17717093,0.22744916,0.060511585,0.054675315,-0.9739455,2016-12-26 22:38:33,40.31947210603971
-1.2354081,-0.7661445,9.239224,0.06872234,0.15489797,0.2018037,17.279999,-1.484405,-0.5554548,9.679757,0.24899697,-0.21068975,-0.4405331,0.065490805,0.052917786,-0.9636134,2016-12-26 22:38:34,40.06181946429584
-1.4891934,-0.31124622,10.005369,-0.05781403,-0.023998277,0.0021816615,17.279999,-1.364695,-0.4285621,9.703699,-0.12449849,0.11731588,0.30166942,0.061366256,0.04504035,-0.963563,2016-12-26 22:38:35,41.01043151727998
-1.4556746,-0.6895301,9.876082,-0.017453292,-0.040360738,-0.011999139,17.92,-1.42455,-0.5602432,9.68694,-0.031124622,-0.12928689,0.18914193,0.06301561,0.05173474,-0.96490455,2016-12-26 22:38:36,34.629573532628044
-1.541866,-0.6847417,9.799467,-0.020725785,-0.008726646,0.0032724924,10.88,-1.4317327,-0.56982,9.68694,-0.110133275,-0.11492168,0.11252748,0.06354084,0.05203522,-0.96522903,2016-12-26 22:38:37,36.44215106669458
-1.3455414,-0.58418524,9.933543,-0.0076358155,0.004363323,0.008726646,17.279999,-1.4748282,-0.5363012,9.682152,0.12928689,-0.047884032,0.25139117,0.06613593,0.05089451,-0.9649055,2016-12-26 22:38:38,30.8162180606368
-1.5035586,-0.5506664,9.837775,0.004363323,0.009817477,0.009817477,16.64,-1.4748282,-0.545878,9.679757,-0.02873042,-0.0047884034,0.15801731,0.06610407,0.051404674,-0.9646003,2016-12-26 22:38:39,37.25302689896559
-1.3982137,-0.5315128,9.78989,-0.044724062,-0.0567232,0.0076358155,5.7599998,-1.4748282,-0.58897364,9.677363,0.076614454,0.05746084,0.11252748,0.06555922,0.053326815,-0.96458167,2016-12-26 22:38:40,35.649029189289635
-1.4939818,-0.78050977,9.818622,0.008726646,-0.020725785,0.0054541538,7.68,-1.4532804,-0.6464345,9.677363,-0.04070143,-0.1340753,0.1412579,0.063813835,0.05576508,-0.9645022,2016-12-26 22:38:41,31.717831129576876
-1.4030021,-0.7469909,9.847352,-0.0076358155,0.008726646,-0.0021816615,8.32,-1.4077905,-0.6392518,9.6845455,0.0047884034,-0.107739076,0.16280572,0.061675165,0.05475651,-0.96476805,2016-12-26 22:38:42,34.660011939226706
-1.6089035,-0.6368576,9.871294,-0.006544985,0.0010908308,-0.0021816615,5.12,-1.4317327,-0.60573304,9.6845455,-0.17717093,-0.031124622,0.18674773,0.063449815,0.05337487,-0.9646353,2016-12-26 22:38:43,29.93920958801287
-1.4508862,-0.62728083,9.856929,-0.0054541538,0.008726646,0.008726646,5.7599998,-1.4508862,-0.6679823,9.677363,0.0,0.04070143,0.17956513,0.06359479,0.056618217,-0.9644359,2016-12-26 22:38:44,32.72077656131291
-1.4939818,-0.6607997,9.890448,-0.006544985,-0.006544985,-0.0054541538,13.44,-1.4532804,-0.6919243,9.674969,-0.04070143,0.031124622,0.21547815,0.063494176,0.05742932,-0.964467,2016-12-26 22:38:45,30.491243031838977
-1.4748282,-0.7230489,10.000581,0.0076358155,0.018544123,-0.004363323,15.36,-1.4317327,-0.6775591,9.679757,-0.04309563,-0.045489833,0.320823,0.062822506,0.05614877,-0.9643986,2016-12-26 22:38:46,37.52662303473862
-1.5275006,-0.56982,9.933543,0.008726646,0.0021816615,-0.009817477,14.719999,-1.412579,-0.6751649,9.682152,-0.11492168,0.10534488,0.25139117,0.062099665,0.055455953,-0.9644308,2016-12-26 22:38:47,33.46008042903108
-1.4796166,-0.7374141,9.737218,-0.0021816615,-0.004363323,-0.0032724924,15.36,-1.3958195,-0.7206547,9.679757,-0.08379706,-0.016759412,0.05746084,0.06091799,0.0572301,-0.96430564,2016-12-26 22:38:48,22.93877950444278
-1.4700398,-0.78050977,9.847352,-0.0054541538,0.0032724924,-0.015271631,15.36,-1.3910311,-0.7038953,9.682152,-0.079008654,-0.076614454,0.16519992,0.06109933,0.05617712,-0.96433717,2016-12-26 22:38:49,20.757749973557132
-1.5275006,-0.5315128,9.7563715,-0.10144726,0.049087387,-0.006544985,17.279999,-1.3982137,-0.6967127,9.682152,-0.12928689,0.16519992,0.074220255,0.0619254,0.055667583,-0.9645921,2016-12-26 22:38:50,23.419824055544947
-1.508347,-0.21547815,10.412383,-0.106901415,-0.30325097,-0.031634092,16.0,-1.1085154,-0.8643068,9.706094,-0.39983168,0.6488287,0.7062895,0.045504503,0.0601478,-0.9648814,2016-12-26 22:38:52,35.784816207169435
-1.0342951,-0.7278373,9.94312,0.021816615,0.0054541538,0.009817477,16.0,-0.9911995,-0.8499416,9.720459,-0.04309563,0.12210429,0.22266077,0.04007606,0.057687465,-0.965274,2016-12-26 22:38:53,31.443906184249112
-1.1444284,-0.79008657,9.871294,0.0,0.006544985,0.0141808,15.36,-1.0462662,-0.8475474,9.715671,-0.09816227,0.05746084,0.15562311,0.04369693,0.06189728,-0.9638999,2016-12-26 22:38:54,49.198778570607345
-1.1109096,-0.8619126,9.904813,0.018544123,-0.02727077,-0.006544985,16.64,-1.0462662,-0.8331822,9.715671,-0.06464344,-0.02873042,0.18914193,0.044616424,0.06518697,-0.9626787,2016-12-26 22:38:55,22.220766943890872
-1.0295067,-0.78529817,9.856929,0.009817477,0.016362462,-0.0032724924,16.64,-1.055843,-0.81642276,9.715671,0.02633622,0.031124622,0.1412579,0.04569067,0.0677902,-0.96140134,2016-12-26 22:38:56,42.13549243311603
-0.9768343,-0.8714894,9.976639,-0.015271631,-0.017453292,-0.0054541538,16.64,-1.0534488,-0.80924016,9.718064,0.076614454,-0.062249243,0.25857377,0.04587008,0.06997108,-0.96015435,2016-12-26 22:38:57,21.56700552582017
-0.9672575,-0.81881696,9.91439,0.004363323,0.0054541538,-0.0109083075,15.36,-1.0366893,-0.7757214,9.722853,0.06943185,-0.04309563,0.19153613,0.045730837,0.070448205,-0.9590248,2016-12-26 22:38:58,44.95933594310181
-0.9911995,-0.80445176,9.828198,-0.004363323,0.0021816615,-0.006544985,16.64,-1.0366893,-0.78769237,9.720459,0.045489833,-0.016759412,0.107739076,0.045081813,0.06985236,-0.959065,2016-12-26 22:38:59,26.21766801142723
-1.1061212,-0.82360536,9.962274,0.009817477,-0.0032724924,-0.011999139,17.279999,-1.0271125,-0.79966336,9.720459,-0.079008654,-0.023942016,0.24181437,0.04391824,0.06861973,-0.959232,2016-12-26 22:39:00,26.446149960271505
-0.9864111,-0.8475474,9.876082,0.0076358155,-0.006544985,0.0,15.36,-1.0486604,-0.81402856,9.718064,0.062249243,-0.033518825,0.15801731,0.04436242,0.06811038,-0.95940995,2016-12-26 22:39:01,32.58252056636147
-0.9816227,-0.79966336,9.895236,0.0054541538,-0.0054541538,-0.019634955,16.0,-1.0271125,-0.81642276,9.720459,0.045489833,0.016759412,0.17477672,0.042814165,0.066587575,-0.9596995,2016-12-26 22:39:02,21.481140043440856
-1.0151415,-0.7038953,9.861717,-0.0021816615,-0.0021816615,-0.015271631,17.279999,-1.0342951,-0.82360536,9.718064,0.019153614,0.11971009,0.1436521,0.042676684,0.06593681,-0.9595361,2016-12-26 22:39:03,23.50191465891619
-0.9816227,-0.7757214,9.765948,0.0054541538,0.0010908308,0.0032724924,17.279999,-0.9888053,-0.81163436,9.722853,0.007182605,0.035913024,0.04309563,0.040372528,0.063724875,-0.9598992,2016-12-26 22:39:04,22.161494014223003
-1.0342951,-0.8379706,9.94312,-0.0032724924,0.017453292,-0.0021816615,16.0,-1.0247183,-0.80205756,9.720459,-0.009576807,-0.035913024,0.22266077,0.042050578,0.06294979,-0.96002924,2016-12-26 22:39:05,20.635522652658945
-1.0390835,-0.80445176,9.765948,0.0010908308,0.0021816615,-0.004363323,17.279999,-1.0055647,-0.80684596,9.722853,-0.033518825,0.0023942017,0.04309563,0.040879533,0.062171757,-0.9601952,2016-12-26 22:39:06,23.56651179858408
-0.9816227,-0.8379706,9.928755,0.0032724924,-0.01308997,-0.018544123,18.56,-0.9816227,-0.8355764,9.722853,0.0,-0.0023942017,0.20590134,0.039231714,0.062538944,-0.96028686,2016-12-26 22:39:07,21.134558895164112
-1.0869676,-0.81402856,9.861717,-0.004363323,0.008726646,0.0021816615,18.56,-1.0127473,-0.82599956,9.720459,-0.074220255,0.011971008,0.1412579,0.04067895,0.06188631,-0.96047103,2016-12-26 22:39:08,20.492099442006662
-1.0151415,-0.8283938,10.120291,0.008726646,-0.022907447,0.0054541538,18.56,-1.0055647,-0.82599956,9.720459,-0.009576807,-0.0023942017,0.39983168,0.040168546,0.061168768,-0.9605491,2016-12-26 22:39:09,23.74618526922383
-0.9576807,-0.79487497,9.809045,0.021816615,-0.008726646,-0.01308997,17.92,-1.0079589,-0.8379706,9.720459,0.050278235,0.04309563,0.088585466,0.039936636,0.06128138,-0.9605394,2016-12-26 22:39:10,27.764166448572904
-1.0103531,-0.7038953,9.94312,0.020725785,0.0283616,-0.0010908308,17.92,-1.0151415,-0.8523358,9.718064,0.0047884034,0.14844051,0.22505496,0.03995677,0.06148178,-0.9607295,2016-12-26 22:39:11,24.26673888021373
-0.94810385,-0.79966336,10.096349,0.018544123,0.004363323,-0.008726646,17.279999,-0.9888053,-0.85473,9.720459,0.04070143,0.055066638,0.37588966,0.038520776,0.060821906,-0.9608679,2016-12-26 22:39:12,26.515162612710267
-1.0295067,-0.7757214,9.957485,-0.008726646,0.023998277,-0.006544985,17.279999,-0.9744401,-0.866701,9.720459,-0.055066638,0.090979666,0.23702596,0.037689738,0.060700014,-0.9608834,2016-12-26 22:39:13,24.68338097863301
-1.0103531,-0.7422025,9.82341,-0.011999139,0.016362462,-0.006544985,16.64,-0.9983821,-0.8834604,9.715671,-0.011971008,0.1412579,0.107739076,0.03864156,0.06140517,-0.96077895,2016-12-26 22:39:14,46.87392275170549
-1.067814,-0.91937345,9.991004,0.0032724924,0.0021816615,0.0032724924,17.279999,-1.0055647,-0.8858546,9.715671,-0.062249243,-0.033518825,0.2753332,0.038886253,0.061121296,-0.96100545,2016-12-26 22:39:15,26.52733721768812
-1.0151415,-0.80445176,10.024523,-0.0021816615,0.045814894,-0.006544985,16.64,-0.94810385,-0.8571242,9.722853,-0.06703765,0.05267244,0.30166942,0.0365038,0.05866485,-0.9610616,2016-12-26 22:39:16,25.497183183729817
-0.8858546,-0.7374141,9.765948,-0.0109083075,-0.0054541538,-0.004363323,16.64,-0.93134445,-0.8762778,9.722853,0.045489833,0.1388637,0.04309563,0.0355589,0.058996752,-0.9611834,2016-12-26 22:39:17,35.11617691957862
-1.0390835,-0.81402856,10.010158,0.0010908308,0.0,0.004363323,16.64,-0.9528923,-0.8858546,9.720459,-0.08619126,0.07182605,0.2896984,0.036643744,0.059592895,-0.96105707,2016-12-26 22:39:18,24.826175506047473
-0.9528923,-0.8331822,9.85214,0.006544985,0.019634955,-0.008726646,17.279999,-0.93134445,-0.8834604,9.722853,-0.021547815,0.050278235,0.12928689,0.035802748,0.0588813,-0.96127796,2016-12-26 22:39:19,26.976052633403185
-0.90500826,-0.91937345,9.895236,-0.008726646,0.0076358155,0.0054541538,16.64,-0.92895025,-0.8882488,9.722853,0.023942016,-0.031124622,0.17238252,0.035747685,0.05880566,-0.96123254,2016-12-26 22:39:20,27.06904386481257
-1.0726024,-0.79966336,9.94312,-0.0076358155,0.008726646,-0.009817477,17.279999,-0.94810385,-0.90500826,9.720459,-0.12449849,0.10534488,0.22266077,0.036549848,0.05963851,-0.961061,2016-12-26 22:39:21,25.878395323158454
-0.9768343,-0.81402856,9.799467,-0.004363323,0.0032724924,-0.0076358155,16.64,-0.93613285,-0.90500826,9.720459,-0.04070143,0.090979666,0.079008654,0.036136977,0.059296213,-0.96109664,2016-12-26 22:39:22,29.013788478615247
-1.0582372,-0.6943185,9.919178,0.0010908308,-0.004363323,0.0076358155,16.64,-0.92176765,-0.8882488,9.722853,-0.1364695,0.19393034,0.19632454,0.035752453,0.058015138,-0.96118987,2016-12-26 22:39:23,22.23322846308089
-1.0103531,-0.8523358,9.986216,0.0010908308,0.01308997,0.0076358155,17.279999,-0.91697925,-0.90261406,9.722853,-0.093373865,0.050278235,0.2633622,0.035406213,0.058460202,-0.9609787,2016-12-26 22:39:24,22.466575550138298
-1.0055647,-0.7422025,10.029311,-0.0076358155,0.0021816615,-0.011999139,16.64,-0.92895025,-0.91458505,9.720459,-0.076614454,0.17238252,0.30885202,0.035904404,0.0589909,-0.9608418,2016-12-26 22:39:25,30.704311715829302
-1.0103531,-0.82360536,9.995792,0.006544985,0.006544985,-0.0021816615,17.279999,-0.90261406,-0.91219085,9.722853,-0.107739076,0.088585466,0.272939,0.034899358,0.058204506,-0.9608404,2016-12-26 22:39:26,25.32101172693234
-0.9816227,-0.89064306,9.871294,0.009817477,-0.008726646,-0.0032724924,16.64,-0.91458505,-0.91219085,9.722853,-0.06703765,0.021547815,0.14844051,0.035668585,0.058269497,-0.9609053,2016-12-26 22:39:27,23.314441685505003
-1.0342951,-0.80445176,9.919178,0.0,-0.004363323,-0.011999139,17.279999,-0.92895025,-0.92895025,9.718064,-0.10534488,0.12449849,0.20111294,0.036268,0.05897258,-0.9609619,2016-12-26 22:39:28,32.567122350998446
-1.0007763,-0.8858546,9.909601,0.0021816615,0.01308997,-0.004363323,17.279999,-0.92176765,-0.94570965,9.718064,-0.079008654,0.059855044,0.19153613,0.035833333,0.059474748,-0.96097994,2016-12-26 22:39:29,28.44650589678129
-1.0295067,-0.78050977,9.976639,-0.0032724924,-0.016362462,0.006544985,16.64,-0.90979666,-0.9504981,9.718064,-0.11971009,0.16998832,0.25857377,0.03525574,0.059273545,-0.960944,2016-12-26 22:39:30,27.796415776302403
-1.0390835,-0.8619126,9.885659,-0.006544985,-0.0010908308,-0.008726646,17.279999,-0.90500826,-0.9528923,9.718064,-0.1340753,0.090979666,0.16759412,0.035159472,0.059015412,-0.96098125,2016-12-26 22:39:31,22.850554052233598
-1.0773908,-0.8523358,9.967062,0.0,-0.015271631,0.0054541538,16.64,-0.90500826,-0.9624691,9.718064,-0.17238252,0.110133275,0.24899697,0.03519749,0.059230313,-0.9608952,2016-12-26 22:39:32,24.075927067746147
-1.13964,-0.8283938,9.890448,-0.0425424,0.011999139,-0.021816615,14.08,-1.0773908,-1.0127473,9.696517,-0.062249243,0.18435353,0.19393034,0.043880735,0.063302636,-0.9633734,2016-12-26 22:39:33,25.701584814094446
-1.3694834,-1.0582372,10.014946,0.059995692,0.006544985,-0.025089107,9.599999,-1.1899183,-1.0462662,9.679757,-0.17956513,-0.011971008,0.33518824,0.049580716,0.06610136,-0.96439356,2016-12-26 22:39:35,37.45624634331713
-1.4030021,-0.7230489,9.866506,0.016362462,-0.0054541538,0.009817477,13.44,-1.1611878,-0.91458505,9.696517,-0.24181437,0.19153613,0.16998832,0.050027914,0.05908545,-0.96444094,2016-12-26 22:39:36,70.75292884650571
-1.3215994,-0.866701,9.818622,-0.0021816615,-0.05781403,0.02617994,14.08,-1.1348516,-0.94810385,9.694122,-0.18674773,0.08140286,0.12449849,0.048673384,0.060156643,-0.96456516,2016-12-26 22:39:37,25.45886716821307
-1.091756,-0.866701,9.986216,0.006544985,0.0,-0.0141808,15.36,-0.93613285,-0.9911995,9.713276,-0.15562311,0.12449849,0.272939,0.03811115,0.05962228,-0.96370804,2016-12-26 22:39:38,34.468790755980436
-1.1348516,-0.80924016,10.043676,-0.004363323,0.0,0.0032724924,15.36,-0.92895025,-0.9696517,9.715671,-0.20590134,0.1604115,0.32800564,0.038394544,0.058231663,-0.9636608,2016-12-26 22:39:39,23.446132949422278
-1.1013328,-0.81402856,9.923966,0.008726646,0.004363323,0.0021816615,15.36,-0.92655605,-0.9840169,9.713276,-0.17477672,0.16998832,0.21068975,0.038469907,0.058655936,-0.9637515,2016-12-26 22:39:40,23.01577042985809
-0.9911995,-0.8379706,9.923966,-0.009817477,-0.009817477,-0.004363323,15.36,-0.92176765,-0.9864111,9.713276,-0.06943185,0.14844051,0.21068975,0.03846765,0.058466244,-0.9636915,2016-12-26 22:39:41,24.598007035634623
-1.1204864,-0.7613561,10.024523,0.008726646,0.025089107,0.0032724924,15.36,-0.92416185,-1.0127473,9.710882,-0.19632454,0.25139117,0.31364042,0.038517118,0.059372433,-0.96366215,2016-12-26 22:39:42,24.166058400477493
-1.0965444,-0.8858546,9.871294,0.009817477,0.0109083075,-0.0021816615,15.36,-0.93373865,-1.0462662,9.706094,-0.16280572,0.1604115,0.16519992,0.038891427,0.06074252,-0.96343684,2016-12-26 22:39:43,22.744272746610147
-1.043872,-0.8571242,10.09156,0.0032724924,-0.0109083075,-0.0021816615,15.36,-0.93134445,-1.0199299,9.710882,-0.11252748,0.16280572,0.38067806,0.039270494,0.05894595,-0.96361613,2016-12-26 22:39:44,21.600681674290993
-1.1109096,-0.7278373,10.043676,-0.004363323,0.0076358155,0.0032724924,15.36,-0.8810662,-1.0103531,9.715671,-0.22984336,0.2825158,0.32800564,0.037189767,0.057636984,-0.96366286,2016-12-26 22:39:45,24.761581045880273
-0.9576807,-0.78529817,10.019734,0.0,-0.017453292,0.0,15.36,-0.8499416,-1.0175357,9.718064,-0.107739076,0.23223756,0.30166942,0.036011133,0.057341192,-0.9637789,2016-12-26 22:39:46,24.00944320756367
-1.1444284,-0.7661445,10.129868,0.0010908308,0.0054541538,0.004363323,15.36,-0.8643068,-1.0175357,9.715671,-0.2801216,0.25139117,0.4141969,0.03719197,0.057350542,-0.96388614,2016-12-26 22:39:47,20.720659914147458
-1.0869676,-0.7565677,9.962274,-0.019634955,-0.0010908308,0.0032724924,15.36,-0.90740246,-1.0486604,9.7084875,-0.17956513,0.29209262,0.25378537,0.03915562,0.05906867,-0.9636021,2016-12-26 22:39:48,21.805141474608718
-1.1061212,-0.770933,10.120291,0.006544985,-0.006544985,-0.004363323,15.36,-0.91219085,-1.0390835,9.7084875,-0.19393034,0.2681506,0.41180268,0.03963114,0.05833922,-0.96363795,2016-12-26 22:39:49,21.386184338994923
-1.091756,-0.7613561,9.995792,0.008726646,-0.01308997,-0.0021816615,15.36,-0.89782566,-1.0223241,9.713276,-0.19393034,0.260968,0.2825158,0.039304364,0.057070974,-0.96369046,2016-12-26 22:39:50,32.319912247516
-1.1013328,-0.7757214,10.014946,-0.016362462,-0.0076358155,0.008726646,15.36,-0.89303726,-1.0414777,9.710882,-0.20829555,0.2657564,0.30406362,0.03890484,0.057664208,-0.96359634,2016-12-26 22:39:51,21.529250465670327
-1.043872,-0.78050977,9.856929,0.011999139,0.004363323,0.0,16.0,-0.94331545,-1.0319009,9.706094,-0.10055647,0.25139117,0.15083471,0.042026393,0.05769912,-0.96436095,2016-12-26 22:39:52,33.52284243700378
-1.0773908,-0.6943185,9.880871,-0.015271631,-0.030543262,0.0021816615,17.92,-0.93613285,-1.067814,9.703699,-0.1412579,0.37349546,0.17717093,0.041650414,0.059201293,-0.96504676,2016-12-26 22:39:53,30.010464736357108
-1.1587936,-0.80924016,9.751583,-0.008726646,0.0054541538,0.0021816615,17.279999,-0.89543146,-1.0295067,9.713276,-0.2633622,0.22026655,0.038307227,0.0403941,0.056646917,-0.9649807,2016-12-26 22:39:54,28.569213809116654
-1.1204864,-0.82360536,9.923966,-0.004363323,0.0032724924,-0.004363323,16.64,-0.8810662,-1.0007763,9.715671,-0.23942018,0.17717093,0.20829555,0.040429436,0.055062667,-0.96524465,2016-12-26 22:39:55,29.035206749219313
-1.1061212,-0.7517793,9.923966,-0.011999139,-0.008726646,0.0109083075,16.64,-0.8762778,-0.9911995,9.718064,-0.22984336,0.23942018,0.20590134,0.040613376,0.054453805,-0.96559095,2016-12-26 22:39:56,41.33532322052857
-1.1348516,-0.78529817,9.976639,0.008726646,0.038179077,-0.0032724924,17.279999,-0.89303726,-1.055843,9.7084875,-0.24181437,0.2705448,0.2681506,0.0408785,0.057751972,-0.96544313,2016-12-26 22:39:57,33.0524654562892
-1.0630256,-0.7757214,9.904813,0.009817477,-0.0021816615,-0.0010908308,16.64,-0.8738836,-1.0462662,9.713276,-0.18914193,0.2705448,0.19153613,0.040301133,0.0568501,-0.9655967,2016-12-26 22:39:58,24.111600589241384
-1.0342951,-0.90979666,9.900024,-0.011999139,-0.0010908308,-0.011999139,17.279999,-0.8762778,-1.0366893,9.713276,-0.15801731,0.12689269,0.18674773,0.04083745,0.056308627,-0.9657041,2016-12-26 22:39:59,23.337956115804847
-1.163582,-0.8523358,9.923966,0.011999139,0.0010908308,0.004363323,16.64,-0.8738836,-1.0366893,9.713276,-0.2896984,0.18435353,0.21068975,0.040991154,0.05618682,-0.9656173,2016-12-26 22:40:00,27.083075665010053
-1.0486604,-0.7565677,9.900024,-0.006544985,0.016362462,0.0021816615,16.64,-0.8619126,-1.0342951,9.715671,-0.18674773,0.2777274,0.18435353,0.040538877,0.055860214,-0.9656967,2016-12-26 22:40:01,27.026477011898137
-1.115698,-0.842759,9.986216,0.01308997,0.008726646,0.011999139,17.279999,-0.8738836,-1.0366893,9.713276,-0.24181437,0.19393034,0.272939,0.04129808,0.056056816,-0.9653466,2016-12-26 22:40:02,25.280029288835113
-1.1492168,-0.82360536,9.861717,0.017453292,-0.016362462,-0.0054541538,16.64,-0.8595184,-1.0462662,9.713276,-0.2896984,0.22266077,0.14844051,0.040737145,0.05631552,-0.9654231,2016-12-26 22:40:03,28.076054880981953
-1.1348516,-0.8379706,10.0341,0.009817477,0.0010908308,0.0,17.279999,-0.8643068,-1.0127473,9.715671,-0.2705448,0.17477672,0.3184288,0.041658312,0.0547949,-0.96566486,2016-12-26 22:40:04,32.248555776131994
-1.1779473,-0.7326257,10.0341,0.0076358155,0.006544985,0.0010908308,17.279999,-0.82599956,-1.0223241,9.718064,-0.35194764,0.2896984,0.31603462,0.039785158,0.05481347,-0.9655584,2016-12-26 22:40:05,41.1139491911609
-1.0582372,-0.80445176,9.995792,0.009817477,0.0,-0.009817477,16.64,-0.8475474,-1.0534488,9.713276,-0.21068975,0.24899697,0.2825158,0.040711544,0.056504503,-0.9654001,2016-12-26 22:40:06,29.70579305714851
-1.1300632,-0.78050977,10.053253,0.0,-0.0021816615,-0.0109083075,16.64,-0.8379706,-1.0271125,9.718064,-0.29209262,0.24660277,0.33518824,0.040800057,0.05508206,-0.9655311,2016-12-26 22:40:07,23.940355745360367
-1.0247183,-0.78050977,9.938332,-0.015271631,0.0021816615,0.0032724924,17.279999,-0.8403648,-1.0319009,9.718064,-0.18435353,0.25139117,0.22026655,0.041011896,0.055360604,-0.96548194,2016-12-26 22:40:08,26.606263763877603
-1.115698,-0.7182605,10.058042,0.0054541538,0.017453292,0.008726646,16.64,-0.8331822,-1.0390835,9.715671,-0.2825158,0.320823,0.34237084,0.040887862,0.055671833,-0.9654439,2016-12-26 22:40:09,35.61637209786766
-1.1683705,-0.79966336,9.871294,0.01308997,0.004363323,-0.0032724924,17.279999,-0.81642276,-1.0127473,9.720459,-0.35194764,0.21308395,0.15083471,0.04066688,0.054204464,-0.9657843,2016-12-26 22:40:10,28.673778599511195
-1.0821792,-0.7565677,9.871294,-0.0021816615,0.018544123,-0.011999139,16.64,-0.8379706,-1.0271125,9.718064,-0.24420857,0.2705448,0.15322891,0.04164887,0.055182967,-0.96551114,2016-12-26 22:40:11,24.831592097169796
-1.1061212,-0.8523358,9.909601,0.0,0.015271631,-0.0076358155,17.279999,-0.82360536,-1.0510546,9.715671,-0.2825158,0.19871874,0.19393034,0.04086527,0.056210857,-0.9653431,2016-12-26 22:40:12,31.504110153944715
-1.1348516,-0.866701,9.947908,-0.006544985,-0.0032724924,-0.0054541538,16.64,-0.8331822,-1.0893618,9.710882,-0.30166942,0.22266077,0.23702596,0.040953938,0.058136914,-0.9651288,2016-12-26 22:40:13,36.12248161422439
-1.0247183,-0.7422025,10.09156,0.0021816615,-0.0076358155,-0.004363323,17.279999,-0.8331822,-1.067814,9.713276,-0.19153613,0.32561144,0.37828386,0.041467886,0.056847353,-0.9652488,2016-12-26 22:40:14,38.65669433416359
-1.1109096,-0.8571242,10.043676,-0.0109083075,-0.0076358155,0.011999139,17.279999,-0.79966336,-1.0726024,9.715671,-0.31124622,0.21547815,0.32800564,0.039973985,0.05647773,-0.9653781,2016-12-26 22:40:15,38.45464579770701
-1.13964,-0.81402856,9.85214,0.004363323,0.019634955,-0.015271631,16.64,-0.80205756,-1.1061212,9.710882,-0.33758244,0.29209262,0.1412579,0.039742228,0.05805854,-0.96521586,2016-12-26 22:40:16,30.469347316299576
-1.1061212,-0.7230489,9.895236,0.0021816615,0.006544985,0.01308997,17.279999,-0.79248077,-1.0654198,9.718064,-0.31364042,0.34237084,0.17717093,0.040150046,0.055729292,-0.9653038,2016-12-26 22:40:18,27.808916102078946
-1.0486604,-0.81881696,9.813833,-0.006544985,-0.004363323,0.009817477,16.64,-0.81881696,-1.0821792,9.713276,-0.22984336,0.2633622,0.10055647,0.04148705,0.056775678,-0.9652543,2016-12-26 22:40:19,34.17088852668792
-1.1683705,-0.7757214,9.876082,-0.006544985,-0.0076358155,0.017453292,17.279999,-0.8283938,-1.1133038,9.7084875,-0.33997664,0.33758244,0.16759412,0.04156743,0.058249287,-0.9649868,2016-12-26 22:40:20,29.79461112504299
-1.1540052,-0.842759,9.986216,-0.0425424,0.006544985,-0.0141808,18.56,-0.79726917,-1.1779473,9.703699,-0.35673606,0.33518824,0.2825158,0.039697155,0.060816437,-0.9654851,2016-12-26 22:40:21,34.97733121399711
-1.1540052,-0.93373865,9.895236,0.01308997,0.009817477,0.009817477,16.64,-0.7781156,-1.1563994,9.7084875,-0.37588966,0.22266077,0.18674773,0.039153885,0.059530724,-0.965382,2016-12-26 22:40:22,28.120982901254138
-1.0821792,-0.770933,9.890448,0.0021816615,0.0,0.0054541538,16.64,-0.79248077,-1.0989386,9.713276,-0.2896984,0.32800564,0.17717093,0.04075659,0.0568379,-0.9649154,2016-12-26 22:40:23,33.779069980423166
-1.0390835,-0.8858546,9.900024,-0.008726646,-0.019634955,-0.008726646,17.279999,-0.79966336,-1.127669,9.7084875,-0.23942018,0.24181437,0.19153613,0.04093691,0.058307424,-0.96498716,2016-12-26 22:40:24,30.53327386840496
-1.1348516,-0.78050977,10.005369,0.0076358155,0.067631505,-0.006544985,16.64,-0.79726917,-1.1061212,9.713276,-0.33758244,0.32561144,0.29209262,0.04127823,0.057117194,-0.96518993,2016-12-26 22:40:25,32.81513913786491
-1.0582372,-0.80924016,9.947908,-0.0076358155,-0.011999139,-0.004363323,17.279999,-0.79487497,-1.0965444,9.713276,-0.2633622,0.2873042,0.23463176,0.041398536,0.056503925,-0.9652155,2016-12-26 22:40:26,25.178059895828685
-1.115698,-0.7278373,9.895236,0.009817477,0.0021816615,0.008726646,16.64,-0.79248077,-1.1300632,9.710882,-0.32321724,0.40222588,0.18435353,0.04099992,0.05797255,-0.96517587,2016-12-26 22:40:27,28.572633757791476
-1.0821792,-0.8571242,9.775525,0.0109083075,0.023998277,-0.0054541538,17.279999,-0.80445176,-1.1013328,9.713276,-0.2777274,0.24420857,0.062249243,0.042070173,0.056582466,-0.96532315,2016-12-26 22:40:28,22.407727858433827
-1.3263878,-0.39743748,10.043676,-0.006544985,-0.030543262,-0.0054541538,14.08,-0.8882488,-0.866701,9.727641,-0.4381389,0.46926352,0.31603462,0.049259488,0.045817774,-0.96526253,2016-12-26 22:40:29,26.823124566620553
-1.1300632,-0.4261679,9.85214,0.020725785,0.038179077,0.029452432,14.719999,-0.8762778,-0.8499416,9.7324295,-0.25378537,0.4237737,0.11971009,0.049077347,0.044617876,-0.96473885,2016-12-26 22:40:30,24.79605298538698
-1.2449849,-0.45489833,10.019734,0.01308997,0.020725785,-0.01308997,14.08,-0.90021986,-0.8738836,9.727641,-0.34476504,0.4189853,0.29209262,0.0503188,0.045879714,-0.9647414,2016-12-26 22:40:31,24.6695716274358
-1.0247183,-0.4213795,9.516952,-0.02617994,0.018544123,0.022907447,14.719999,-0.82121116,-0.9816227,9.722853,-0.20350714,0.5602432,-0.20590134,0.04550655,0.049743466,-0.9650507,2016-12-26 22:40:32,32.958487502876444
-1.2785037,-0.5554548,9.837775,0.015271631,0.0054541538,-0.0076358155,14.08,-0.8499416,-0.9552865,9.722853,-0.4285621,0.39983168,0.11492168,0.047619805,0.048339956,-0.9649855,2016-12-26 22:40:33,26.011179990900036
-1.2785037,-0.60333884,9.919178,0.0076358155,0.0032724924,0.016362462,14.719999,-0.8403648,-0.9888053,9.720459,-0.4381389,0.3854665,0.19871874,0.047187258,0.049339104,-0.96492124,2016-12-26 22:40:34,28.560639533331
-1.2018893,-0.45489833,9.856929,0.0032724924,-0.018544123,0.0021816615,16.0,-0.8283938,-1.115698,9.7084875,-0.37349546,0.6607997,0.14844051,0.045862354,0.054921173,-0.9658566,2016-12-26 22:40:35,31.249360222593058
-1.2737153,-0.50278234,9.866506,0.0,0.017453292,0.0109083075,14.08,-0.81402856,-1.0749966,9.715671,-0.45968673,0.5722142,0.15083471,0.04639949,0.052246727,-0.96633875,2016-12-26 22:40:36,33.05131389454605
0.047884032,-1.982399,10.335769,0.30761427,0.62177354,-0.8224864,14.719999,-0.59376204,-1.1923125,9.715671,0.641646,-0.79008657,0.62009823,0.044282004,0.055347957,-0.99044275,2016-12-26 22:40:37,25.51485577758055
1.8722657,0.10055647,8.477868,0.22471114,-0.11017391,-0.16798794,12.16,1.7860745,0.9696517,9.595961,0.08619126,-0.8690952,-1.1180922,0.0829666,0.009026244,0.9322763,2016-12-26 22:40:38,34.45305750296115
0.8379706,-0.12449849,10.058042,0.04145157,0.038179077,-0.04145157,11.5199995,0.9840169,-0.06703765,9.758766,-0.14604631,-0.05746084,0.29927522,0.031120345,-0.027099468,0.9447543,2016-12-26 22:40:39,26.71695333037369
0.79487497,-0.04309563,10.187328,0.070904,-0.009817477,-0.01308997,11.5199995,0.6895301,0.059855044,9.782708,0.10534488,-0.10295067,0.40462008,0.022892157,-0.018486893,0.94541204,2016-12-26 22:40:40,23.011656914882078
0.545878,0.33039984,10.0341,-0.022907447,0.033815753,0.009817477,12.16,0.7445967,0.2801216,9.775525,-0.19871874,0.050278235,0.25857377,0.032108556,-0.011204351,0.943233,2016-12-26 22:40:41,28.738761955392413
0.49320555,0.5267244,10.54167,-0.21380283,0.023998277,0.0283616,11.5199995,0.4333505,0.5386954,9.782708,0.059855044,-0.011971008,0.7589619,0.023749858,0.004813471,0.94574314,2016-12-26 22:40:42,25.98498691209113
0.11971009,0.41180268,9.94312,-0.016362462,0.017453292,0.006544985,12.16,0.15562311,0.33758244,9.801862,-0.035913024,0.074220255,0.1412579,0.007804322,7.6478254E-4,0.94580114,2016-12-26 22:40:43,23.323164026492442
0.033518825,0.16280572,10.014946,-0.020725785,-0.0109083075,-0.021816615,11.5199995,0.19153613,0.15083471,9.8042555,-0.15801731,0.011971008,0.21068975,0.007129753,-0.007944465,0.945196,2016-12-26 22:40:44,28.345942066507902
1.436521,0.47884035,9.799467,-0.019634955,0.103628926,0.0141808,11.5199995,1.3838485,0.40940848,9.701305,0.05267244,0.06943185,0.09816227,0.069700144,-0.015753137,0.9370005,2016-12-26 22:40:45,22.376746183286315
1.0486604,0.59376204,10.163386,-0.032724924,-0.14726216,-0.0021816615,12.16,1.0773908,0.35434186,9.742006,-0.02873042,0.23942018,0.4213795,0.05434178,-0.012257433,0.9377597,2016-12-26 22:40:46,27.16309469007183
0.91458505,0.35913026,9.828198,-0.0076358155,0.0283616,-0.0010908308,11.5199995,0.91697925,0.29209262,9.76116,-0.0023942017,0.06703765,0.06703765,0.045842167,-0.011752758,0.9382105,2016-12-26 22:40:47,39.602977149980106
0.82360536,0.40222588,10.043676,-0.008726646,-0.035997417,0.016362462,12.16,0.89543146,0.32321724,9.76116,-0.07182605,0.079008654,0.2825158,0.045664288,-0.009146551,0.9380029,2016-12-26 22:40:48,25.077631358773896
0.8283938,0.320823,10.101137,0.004363323,-0.009817477,0.004363323,11.5199995,0.8571242,0.260968,9.765948,-0.02873042,0.059855044,0.33518824,0.043042526,-0.010806164,0.93815506,2016-12-26 22:40:49,23.720754262293312
0.7613561,0.31124622,10.235212,0.006544985,0.0021816615,-0.016362462,12.16,0.79726917,0.2896984,9.770737,-0.035913024,0.021547815,0.46447513,0.040890187,-0.0077601653,0.9380367,2016-12-26 22:40:50,23.463122166746334
0.6655881,0.29688102,10.010158,0.0032724924,0.006544985,0.0021816615,11.5199995,0.7278373,0.2873042,9.775525,-0.062249243,0.009576807,0.23463176,0.03764566,-0.006066015,0.9379728,2016-12-26 22:40:51,24.276551307919338
0.4213795,-0.08619126,10.134656,0.045814894,-0.004363323,-0.017453292,11.5199995,0.79008657,0.23223756,9.773131,-0.36870706,-0.3184288,0.36152446,0.039782424,-0.00927615,0.9375088,2016-12-26 22:40:52,22.363010307346403
0.6799533,0.30645782,10.067618,-0.0054541538,0.0021816615,-0.0032724924,12.16,0.80924016,0.23463176,9.770737,-0.12928689,0.07182605,0.29688102,0.040777672,-0.009060569,0.9371265,2016-12-26 22:40:53,23.927811958737433
0.81402856,0.29209262,10.144233,-0.008726646,0.045814894,0.0010908308,11.5199995,0.80445176,0.22744916,9.773131,0.009576807,0.06464344,0.37110126,0.040555485,-0.008824063,0.93654317,2016-12-26 22:40:54,28.20834754282056
0.7469909,0.32561144,9.923966,-0.02727077,0.0567232,0.0021816615,12.16,0.78290397,0.19393034,9.775525,-0.035913024,0.1316811,0.14844051,0.03894362,-0.009556541,0.93629414,2016-12-26 22:40:55,27.50358911657947
0.6655881,0.29209262,10.3453455,0.009817477,0.076358154,0.0021816615,11.5199995,0.7182605,0.18674773,9.7803135,-0.05267244,0.10534488,0.5650316,0.035833415,-0.008374572,0.93573093,2016-12-26 22:40:56,24.355291705621664
0.51714754,0.4261679,9.861717,0.0010908308,0.01308997,-0.006544985,12.16,0.6607997,0.15562311,9.785102,-0.1436521,0.2705448,0.076614454,0.032712184,-0.008290794,0.9356829,2016-12-26 22:40:57,23.656010676885447
0.6895301,0.34955344,9.991004,-0.0054541538,-0.011999139,-0.004363323,11.5199995,0.7254431,0.11252748,9.7803135,-0.035913024,0.23702596,0.21068975,0.03511934,-0.010962347,0.9352112,2016-12-26 22:40:58,21.122697684172707
0.45010993,0.32561144,10.09156,-0.0076358155,-0.0032724924,-0.0032724924,12.16,0.5793968,0.10055647,9.78989,-0.12928689,0.22505496,0.30166942,0.028157905,-0.00834682,0.9349382,2016-12-26 22:40:59,22.751673338202455
0.4357447,0.30645782,9.986216,0.0010908308,0.019634955,-0.0032724924,12.16,0.5770026,0.07182605,9.78989,-0.1412579,0.23463176,0.19632454,0.027668325,-0.00915076,0.93484056,2016-12-26 22:41:00,25.975055062418114
0.6751649,0.80924016,10.699687,-0.06872234,-0.019634955,-0.05235988,11.5199995,0.50757074,0.33758244,9.78989,0.16759412,0.47165772,0.90979666,0.02928732,0.0057696244,0.93771446,2016-12-26 22:41:01,27.691033436328986
0.37349546,0.49799395,9.923966,-0.004363323,0.0021816615,-0.01308997,12.16,0.47644615,0.1316811,9.794679,-0.10295067,0.36631286,0.12928689,0.02439132,-0.0030724155,0.9349805,2016-12-26 22:41:02,32.08162442312847
0.4213795,0.29688102,10.086772,0.0076358155,0.047996555,0.025089107,11.5199995,0.49081135,0.050278235,9.794679,-0.06943185,0.24660277,0.29209262,0.023862455,-0.006494982,0.9355825,2016-12-26 22:41:03,24.110512162686277
0.34476504,0.6703765,9.991004,-0.0010908308,-0.0283616,-0.011999139,12.16,0.272939,0.14844051,9.801862,0.07182605,0.521936,0.18914193,0.015624544,0.0026471429,0.9342556,2016-12-26 22:41:04,30.706234611681666
0.06703765,0.44532153,10.005369,0.018544123,0.035997417,-0.009817477,11.5199995,0.22266077,0.095768064,9.8042555,-0.15562311,0.34955344,0.20111294,0.012641186,0.0017349645,0.9337208,2016-12-26 22:41:05,26.83512318957231
0.32561144,0.44532153,9.909601,-0.004363323,-0.019634955,0.008726646,12.16,0.29209262,-0.0047884034,9.8042555,0.033518825,0.45010993,0.10534488,0.014435774,-0.0036677085,0.93426526,2016-12-26 22:41:07,33.07896986840202
0.18195933,0.3878607,10.340557,0.01308997,0.02727077,-0.0021816615,11.5199995,0.2825158,-0.021547815,9.8042555,-0.10055647,0.40940848,0.5363012,0.014057396,-0.0035979692,0.9340224,2016-12-26 22:41:08,24.851207813334195
0.44532153,0.40222588,10.067618,-0.016362462,-0.035997417,0.019634955,11.5199995,0.21547815,-0.076614454,9.8042555,0.22984336,0.47884035,0.2633622,0.010376638,-0.004327466,0.9338777,2016-12-26 22:41:09,22.76164896511601
0.18674773,0.45010993,10.172963,-0.034906585,-0.015271631,-0.004363323,12.16,0.20350714,-0.088585466,9.8042555,-0.016759412,0.5386954,0.36870706,0.010034498,-0.0040517766,0.933437,2016-12-26 22:41:10,26.219072827238968
0.47884035,0.19632454,9.94312,-0.025089107,0.0109083075,-0.017453292,11.5199995,0.33758244,-0.35434186,9.794679,0.1412579,0.5506664,0.14844051,0.012074679,-0.018521383,0.93304944,2016-12-26 22:41:11,31.569521404049446
0.36391866,0.21068975,10.081984,-0.009817477,0.031634092,-0.006544985,12.16,0.37110126,-0.4333505,9.792285,-0.007182605,0.6440403,0.2896984,0.012565736,-0.022263069,0.93219817,2016-12-26 22:41:12,29.303737489647894
0.33518824,0.019153614,10.038888,-0.029452432,0.022907447,0.0021816615,11.5199995,0.35194764,-0.46926352,9.78989,-0.016759412,0.48841715,0.24899697,0.011360643,-0.023070829,0.9321312,2016-12-26 22:41:13,38.63323231947764
0.30166942,0.01436521,10.072407,-0.019634955,-0.011999139,0.0021816615,12.16,0.3184288,-0.50278234,9.78989,-0.016759412,0.51714754,0.2825158,0.009518869,-0.023549017,0.93186355,2016-12-26 22:41:14,27.434427993005393
0.22505496,0.0047884034,10.120291,-0.0076358155,-0.0109083075,-0.0109083075,11.5199995,0.110133275,-0.46926352,9.794679,0.11492168,0.47405192,0.32561144,4.9172156E-4,-0.017522236,0.9313947,2016-12-26 22:41:15,28.709035636551903
-0.1340753,0.39743748,9.861717,-0.045814894,0.019634955,0.006544985,12.16,-0.1388637,-0.19153613,9.8042555,0.0047884034,0.58897364,0.05746084,-0.0059044184,0.0010015452,0.9274099,2016-12-26 22:41:16,28.595735749398848
0.33997664,0.18195933,9.890448,-0.0109083075,0.02727077,-0.004363323,12.16,0.32321724,-0.4261679,9.792285,0.016759412,0.60812724,0.09816227,0.011994878,-0.018250506,0.9306474,2016-12-26 22:41:17,46.07652689447082
0.24899697,0.12449849,10.105926,0.0010908308,0.009817477,0.0021816615,11.5199995,0.30406362,-0.44771573,9.792285,-0.055066638,0.5722142,0.31364042,0.010973146,-0.018326083,0.930066,2016-12-26 22:41:18,36.7191513090851
0.2681506,0.18195933,10.225636,0.0,-0.020725785,0.0032724924,12.16,0.24660277,-0.4381389,9.794679,0.021547815,0.62009823,0.4309563,0.008582169,-0.016284632,0.9298496,2016-12-26 22:41:19,29.351376391784743
-0.20590134,3.0119057,9.306262,-0.18653207,-0.1134464,-0.020725785,8.32,0.5626374,1.7788919,9.629479,-0.7685388,1.2330139,-0.32321724,0.06991789,0.07924044,0.8992657,2016-12-26 22:41:20,27.193865372200335
1.1109096,0.8858546,9.876082,-0.01308997,-0.050178215,-0.030543262,12.16,1.1372458,0.30885202,9.737218,-0.02633622,0.5770026,0.1388637,0.06598883,-0.0024408698,0.9144564,2016-12-26 22:41:21,29.000301238089563
1.2497733,1.6089035,9.392453,-0.080721475,0.106901415,0.006544985,11.5199995,1.6879122,0.7469909,9.631873,-0.4381389,0.8619126,-0.23942018,0.10184398,0.0027490817,0.90508634,2016-12-26 22:41:22,46.867393572853274
1.388637,1.0007763,10.000581,0.016362462,0.025089107,0.0076358155,11.5199995,1.4341269,0.48602295,9.689334,-0.045489833,0.51475334,0.31124622,0.08532308,-0.005847927,0.9093281,2016-12-26 22:41:23,33.43767485223259
0.9959879,0.79966336,10.005369,0.0010908308,0.015271631,-0.0076358155,12.16,1.2114661,0.2873042,9.727641,-0.21547815,0.51235914,0.2777274,0.07149339,-0.012307489,0.9118629,2016-12-26 22:41:24,27.059153600492465
1.2737153,0.2681506,10.072407,0.37306413,0.49741885,-0.17235127,11.5199995,1.4149733,-0.12689269,9.703699,-0.1412579,0.39504328,0.36870706,0.073173285,-0.0358786,0.9165262,2016-12-26 22:41:25,27.789151174627584
0.45010993,0.8283938,10.048465,-0.0076358155,0.05235988,-0.0054541538,10.88,0.6703765,0.29448682,9.7803135,-0.22026655,0.533907,0.2681506,0.045805763,-3.2785535E-4,0.91837823,2016-12-26 22:41:26,37.94573433247093
0.4405331,0.7134721,9.689334,0.0054541538,-0.033815753,0.0032724924,10.88,0.5650316,0.28491,9.787497,-0.12449849,0.4285621,-0.09816227,0.039929107,0.0018117372,0.9179102,2016-12-26 22:41:27,27.99156682185
-0.35913026,1.2785037,10.105926,-0.11453723,-0.106901415,0.022907447,10.88,-0.18435353,0.81402856,9.773131,-0.17477672,0.46447513,0.33279404,0.01621211,0.040903166,0.9125747,2016-12-26 22:41:28,29.896398170162414
0.41180268,0.89064306,10.139444,0.006544985,-0.034906585,0.017453292,10.88,0.5386954,0.46686932,9.782708,-0.12689269,0.4237737,0.35673606,0.043321706,0.007905101,0.91330254,2016-12-26 22:41:29,54.03420261148537
0.2777274,0.81881696,9.895236,0.006544985,-0.004363323,0.022907447,10.88,0.50996494,0.39983168,9.787497,-0.23223756,0.4189853,0.107739076,0.041219108,0.0036661513,0.90999573,2016-12-26 22:41:30,30.013279943957517
0.038307227,0.9911995,10.30225,-0.015271631,-0.0283616,-0.0425424,10.88,0.5674258,0.33518824,9.785102,-0.5291186,0.6560113,0.51714754,0.0431405,-0.0023239031,0.90997404,2016-12-26 22:41:31,30.91809794131063
0.62728083,0.8619126,9.8042555,-0.03926991,-0.08290314,-0.008726646,10.88,0.6703765,0.31603462,9.7803135,-0.04309563,0.545878,0.023942016,0.047945008,-0.0071016233,0.91023856,2016-12-26 22:41:32,27.937656552682757
0.5267244,0.25378537,10.168175,-0.031634092,0.006544985,0.0021816615,9.599999,0.90261406,-0.07182605,9.765948,-0.37588966,0.32561144,0.40222588,0.050161988,-0.029708073,0.9110979,2016-12-26 22:41:33,38.18757985278981
0.50278234,0.2873042,10.043676,-0.011999139,-0.031634092,0.0141808,10.24,0.6536171,-0.1412579,9.785102,-0.15083471,0.4285621,0.25857377,0.036261484,-0.026581794,0.9127102,2016-12-26 22:41:34,68.1358422644608
0.545878,0.32561144,9.928755,-0.022907447,0.017453292,0.0076358155,10.24,0.6943185,-0.1604115,9.782708,-0.14844051,0.48602295,0.14604631,0.037073445,-0.027465422,0.91212267,2016-12-26 22:41:35,31.00717956603791
0.545878,0.06703765,10.019734,0.031634092,-0.089448124,0.0021816615,10.24,0.7757214,-0.22744916,9.775525,-0.22984336,0.29448682,0.24420857,0.038686357,-0.03145232,0.91163397,2016-12-26 22:41:36,30.31654999463264
0.48841715,0.05267244,10.043676,0.006544985,0.089448124,-0.021816615,10.24,0.7517793,-0.23223756,9.775525,-0.2633622,0.28491,0.2681506,0.036786728,-0.03029687,0.91135824,2016-12-26 22:41:37,29.504429505749577
0.6991069,-0.038307227,10.038888,-0.004363323,-0.011999139,0.0010908308,10.24,0.82121116,-0.33518824,9.768343,-0.12210429,0.29688102,0.2705448,0.037172623,-0.03562458,0.9114777,2016-12-26 22:41:38,24.858042089337573
0.47405192,-0.095768064,10.177752,-0.0109083075,-0.0076358155,0.009817477,10.24,0.7685388,-0.40701428,9.768343,-0.29448682,0.31124622,0.40940848,0.03267548,-0.037140448,0.91101885,2016-12-26 22:41:39,25.379973919518388
0.58897364,-0.12928689,9.890448,-0.016362462,-0.018544123,0.006544985,10.24,0.7565677,-0.4309563,9.768343,-0.16759412,0.30166942,0.12210429,0.031045653,-0.03728906,0.911556,2016-12-26 22:41:40,23.23720356141234
0.37349546,-0.1340753,10.053253,0.009817477,-0.011999139,-0.0054541538,10.24,0.7733272,-0.38067806,9.770737,-0.39983168,0.24660277,0.2825158,0.032255746,-0.034698553,0.91165626,2016-12-26 22:41:41,29.214697075819704
0.37828386,-0.320823,10.072407,0.008726646,0.015271631,-0.0054541538,10.88,0.7541735,-0.36152446,9.773131,-0.37588966,0.04070143,0.29927522,0.03110988,-0.032954212,0.9116178,2016-12-26 22:41:42,22.660306968414282
0.47405192,-0.16759412,10.120291,-0.029452432,-0.0021816615,-0.0010908308,10.88,0.7685388,-0.320823,9.773131,-0.29448682,0.15322891,0.34715924,0.031896085,-0.031108389,0.91120255,2016-12-26 22:41:43,23.588862044058693
0.58418524,-0.2825158,10.431537,0.016362462,-0.035997417,-0.01308997,10.88,0.91458505,-0.32321724,9.758766,-0.33039984,0.04070143,0.6727707,0.03796159,-0.034046274,0.90947676,2016-12-26 22:41:44,21.759162996521134
0.29209262,-0.2633622,9.919178,0.0076358155,0.01308997,0.01308997,12.16,0.770933,-0.36391866,9.770737,-0.47884035,0.10055647,0.14844051,0.029756052,-0.0324128,0.9111409,2016-12-26 22:41:45,21.052049359735726
0.7374141,-0.7086837,10.029311,0.12871803,0.04145157,-0.14289883,10.88,0.6943185,-0.2777274,9.7803135,0.04309563,-0.4309563,0.24899697,0.027426127,-0.026635185,0.91093254,2016-12-26 22:41:46,23.512647050612227
-0.521936,-0.08619126,9.967062,-0.022907447,-0.0054541538,0.022907447,12.16,-0.076614454,-0.088585466,9.80665,-0.44532153,0.0023942017,0.1604115,-0.005158595,-0.001199726,0.90444624,2016-12-26 22:41:47,22.491983573911128
-0.15801731,-0.20111294,9.991004,0.0109083075,-0.053450707,-0.0032724924,12.16,0.24660277,-0.31364042,9.799467,-0.40462008,0.11252748,0.19153613,0.0044931313,-0.018283285,0.9060402,2016-12-26 22:41:48,31.740810177268315
0.7182605,-0.6751649,9.991004,0.0076358155,-0.038179077,0.008726646,11.5199995,1.0821792,-0.7493851,9.718064,-0.36391866,0.074220255,0.272939,0.034635782,-0.055442065,0.91409767,2016-12-26 22:41:49,21.086707094905176
0.7134721,-0.62728083,9.991004,-0.019634955,-0.017453292,-0.008726646,12.16,1.115698,-0.7254431,9.718064,-0.40222588,0.09816227,0.272939,0.036184646,-0.054888308,0.9135066,2016-12-26 22:41:50,20.414173602800695
0.7469909,-0.6895301,9.885659,0.021816615,-0.004363323,-0.0109083075,11.5199995,1.0965444,-0.6967127,9.720459,-0.34955344,0.007182605,0.16519992,0.034631863,-0.053449273,0.90915596,2016-12-26 22:41:51,20.517472593255075
0.7326257,-0.39743748,9.895236,0.0076358155,0.034906585,-0.0032724924,11.5199995,1.1109096,-0.58418524,9.727641,-0.37828386,0.18674773,0.16759412,0.037320346,-0.04813935,0.91131157,2016-12-26 22:41:52,24.3345646367109
0.6368576,-0.4309563,10.043676,0.0109083075,0.009817477,0.01308997,12.16,1.1420342,-0.557849,9.725247,-0.50517654,0.12689269,0.3184288,0.03872137,-0.04745518,0.91167665,2016-12-26 22:41:53,30.251803729043687
0.59855044,-0.5602432,9.847352,0.0032724924,-0.0032724924,0.0076358155,11.5199995,1.1013328,-0.5746084,9.727641,-0.50278234,0.01436521,0.11971009,0.035989784,-0.047168195,0.91212994,2016-12-26 22:41:55,21.636147711408583
0.641646,-0.6895301,10.058042,-0.015271631,0.0,-0.0021816615,12.16,1.0821792,-0.5746084,9.730036,-0.4405331,-0.11492168,0.32800564,0.034353953,-0.046678144,0.9123893,2016-12-26 22:41:56,25.57662565720795
0.7086837,-0.5506664,10.254366,0.030543262,-0.0032724924,-0.016362462,11.5199995,1.0414777,-0.5482722,9.737218,-0.33279404,-0.0023942017,0.51714754,0.032448817,-0.044485513,0.9123831,2016-12-26 22:41:57,23.997818490757467
0.7757214,-0.24899697,9.885659,-0.029452432,0.12217305,0.0283616,12.16,1.0773908,-0.38307226,9.739613,-0.30166942,0.1340753,0.14604631,0.03699076,-0.03764037,0.91095257,2016-12-26 22:41:58,24.025873392919106
0.5267244,-0.2873042,10.125079,-0.01308997,-0.037088245,0.011999139,11.5199995,1.0295067,-0.40940848,9.744401,-0.50278234,0.12210429,0.38067806,0.033704285,-0.037627462,0.91101235,2016-12-26 22:41:59,33.05937736801308
0.60812724,-0.33518824,10.077195,0.006544985,0.017453292,0.0021816615,10.88,1.0606314,-0.40462008,9.742006,-0.45250413,0.06943185,0.33518824,0.034859426,-0.03786709,0.9106489,2016-12-26 22:42:00,29.541992789018394
0.545878,-0.12449849,10.18254,0.008726646,0.004363323,-0.0054541538,12.16,1.0247183,-0.4357447,9.744401,-0.47884035,0.31124622,0.4381389,0.03224965,-0.038303815,0.9104266,2016-12-26 22:42:01,26.977722347637503
0.866701,-0.40222588,9.866506,-0.07199483,-0.06544985,0.023998277,11.5199995,1.0989386,-0.3878607,9.737218,-0.23223756,-0.01436521,0.12928689,0.036376145,-0.037551757,0.9096073,2016-12-26 22:42:02,33.51915827686894
0.6560113,-0.320823,10.010158,0.009817477,0.009817477,-0.0032724924,10.24,1.0534488,-0.45250413,9.739613,-0.39743748,0.1316811,0.2705448,0.032629587,-0.039287984,0.9096831,2016-12-26 22:42:03,34.08409225176536
0.6512229,-0.18674773,10.134656,0.008726646,-0.033815753,-0.004363323,12.16,1.0175357,-0.48123455,9.742006,-0.36631286,0.29448682,0.39264908,0.030117903,-0.039651196,0.9094154,2016-12-26 22:42:04,42.38964920599984
0.61291564,-0.35434186,10.163386,-0.07963065,-0.23343779,0.038179077,12.16,1.0103531,-0.4261679,9.746795,-0.39743748,0.07182605,0.4165911,0.030718928,-0.036704563,0.90871215,2016-12-26 22:42:05,36.570807634909784
0.770933,-0.45968673,9.713276,0.040360738,-0.025089107,0.0032724924,12.16,1.0271125,-0.48602295,9.742006,-0.25617957,0.02633622,-0.02873042,0.030202819,-0.039431702,0.909194,2016-12-26 22:42:06,34.1229776149816
0.5554548,-0.20590134,9.890448,-0.032724924,0.0,0.0076358155,10.24,1.0199299,-0.46208093,9.744401,-0.46447513,0.25617957,0.14604631,0.030286329,-0.03800144,0.90841186,2016-12-26 22:42:07,37.643944083029204
0.866701,0.05267244,9.263166,-0.029452432,0.102538094,-0.046905722,10.88,1.2856863,-0.59615624,9.706094,-0.4189853,0.6488287,-0.4429273,0.039676145,-0.049820296,0.9061377,2016-12-26 22:42:08,31.586281899778783
0.29209262,-0.320823,10.201694,0.021816615,-0.0992656,0.0021816615,10.88,0.9648633,-0.40222588,9.751583,-0.6727707,0.08140286,0.45010993,0.029616237,-0.033146955,0.9122642,2016-12-26 22:42:09,35.666368172739446
0.8475474,-0.2873042,9.579201,0.0010908308,0.037088245,0.0054541538,10.88,1.0103531,-0.4261679,9.746795,-0.16280572,0.1388637,-0.16759412,0.031470075,-0.035049908,0.9120815,2016-12-26 22:42:10,30.461609255526213
0.36391866,-0.076614454,10.426748,0.023998277,-0.009817477,-0.030543262,11.5199995,0.85473,-0.50517654,9.7563715,-0.49081135,0.4285621,0.6703765,0.022597443,-0.035464987,0.91152394,2016-12-26 22:42:11,30.564808263247084
0.521936,-0.24899697,10.081984,0.0021816615,0.0010908308,0.004363323,11.5199995,0.93134445,-0.47644615,9.751583,-0.40940848,0.22744916,0.33039984,0.02700345,-0.035475355,0.91154045,2016-12-26 22:42:12,33.9141959296917
0.45010993,-0.17717093,10.053253,0.006544985,0.018544123,0.0032724924,10.88,0.8643068,-0.48602295,9.7563715,-0.4141969,0.30885202,0.29688102,0.023861282,-0.034423184,0.9111768,2016-12-26 22:42:13,35.953434846118654
0.35913026,-0.30166942,10.029311,0.025089107,0.019634955,-0.018544123,11.5199995,0.770933,-0.47644615,9.765948,-0.41180268,0.17477672,0.2633622,0.019875359,-0.031835914,0.9108149,2016-12-26 22:42:14,26.322146842949063
1.0534488,-0.34476504,10.2735195,-0.08399397,-0.22252949,0.008726646,10.24,0.8690952,-0.51235914,9.7563715,0.18435353,0.16759412,0.51714754,0.02386376,-0.03540887,0.91051906,2016-12-26 22:42:15,39.54856521452018
0.46447513,-0.23463176,10.18254,-0.0054541538,-0.019634955,-0.0032724924,10.88,0.8379706,-0.5291186,9.7563715,-0.37349546,0.29448682,0.4261679,0.022195956,-0.03531438,0.91006726,2016-12-26 22:42:16,32.511838186469845
0.2825158,0.58418524,9.742006,0.06544985,-0.2508911,-0.058904864,12.16,0.7422025,-0.44771573,9.768343,-0.45968673,1.0319009,-0.02633622,0.019548167,-0.029284682,0.9091389,2016-12-26 22:42:17,36.52763309515573
0.51714754,-0.11492168,10.09156,-0.004363323,-0.016362462,0.01308997,12.16,0.8643068,-0.5386954,9.753978,-0.34715924,0.4237737,0.33758244,0.023781154,-0.035701007,0.9100979,2016-12-26 22:42:18,39.16842117643212
0.50278234,-0.2681506,10.254366,-0.0076358155,0.016362462,-0.009817477,11.5199995,0.830788,-0.5770026,9.7563715,-0.32800564,0.30885202,0.49799395,0.021652339,-0.036478825,0.9101256,2016-12-26 22:42:19,27.156656597843686
0.62728083,-0.21068975,10.005369,0.0021816615,-0.030543262,0.0,12.16,0.89543146,-0.5434838,9.751583,-0.2681506,0.33279404,0.25378537,0.025489958,-0.035922576,0.9106529,2016-12-26 22:42:20,27.93077030203186
0.47405192,-0.17717093,10.240001,0.015271631,-0.023998277,-0.0021816615,10.88,0.842759,-0.50038815,9.758766,-0.36870706,0.32321724,0.48123455,0.023936285,-0.03262368,0.91041607,2016-12-26 22:42:21,33.34647649165081
0.35913026,0.01436521,9.904813,0.017453292,-0.037088245,-0.017453292,12.16,0.8643068,-0.47644615,9.758766,-0.50517654,0.49081135,0.14604631,0.025233163,-0.031602796,0.91024554,2016-12-26 22:42:22,35.46066621963623
0.63206923,-0.20590134,10.096349,0.0076358155,-0.017453292,-0.016362462,11.5199995,1.0079589,-0.51235914,9.742006,-0.37588966,0.30645782,0.35434186,0.03099362,-0.036131628,0.91011137,2016-12-26 22:42:23,34.468687284860394
0.58897364,-0.19632454,10.067618,-0.0032724924,-0.0109083075,0.0021816615,11.5199995,0.9983821,-0.49799395,9.744401,-0.40940848,0.30166942,0.32321724,0.030486695,-0.03495387,0.91044676,2016-12-26 22:42:24,22.265247240868128
0.60812724,-0.20111294,9.967062,-0.015271631,0.023998277,0.004363323,12.16,0.94810385,-0.46686932,9.751583,-0.33997664,0.2657564,0.21547815,0.028513744,-0.032280065,0.91045797,2016-12-26 22:42:25,29.16603074584139
0.51235914,-0.33518824,10.019734,0.008726646,-0.015271631,0.0032724924,12.16,0.89782566,-0.49799395,9.753978,-0.3854665,0.16280572,0.2657564,0.025156898,-0.032515403,0.9105117,2016-12-26 22:42:26,55.0813514259695
0.545878,-0.24899697,9.818622,0.0109083075,-0.0283616,0.0,10.88,0.90500826,-0.44532153,9.7563715,-0.35913026,0.19632454,0.062249243,0.026362482,-0.0301789,0.91130316,2016-12-26 22:42:27,25.589209669699116
0.35434186,-0.30166942,10.06283,0.0,-0.0054541538,0.0010908308,12.16,0.89303726,-0.40701428,9.758766,-0.5386954,0.10534488,0.30406362,0.02635535,-0.028268049,0.91205734,2016-12-26 22:42:28,24.88591840924688
-2.0733786,1.3694834,9.828198,0.09599311,0.52687126,-0.212712,12.16,-1.1731589,1.1300632,9.672575,-0.90021986,0.23942018,0.15562311,-0.034369603,0.087183125,0.8853606,2016-12-26 22:42:29,31.406985157565813
-0.29688102,-0.038307227,10.278308,-0.24870943,-0.4646939,0.14071716,11.5199995,0.0047884034,0.12689269,9.80665,-0.30166942,-0.16519992,0.47165772,-0.003106784,0.011897607,0.89884955,2016-12-26 22:42:30,29.24510804979384
-0.33518824,-0.01436521,9.991004,0.0,-0.0109083075,-0.0010908308,12.16,0.17956513,-0.033518825,9.80665,-0.51475334,0.019153614,0.18435353,0.0025102189,-0.0017054109,0.90133226,2016-12-26 22:42:31,29.60825409594407
-0.4261679,0.009576807,10.086772,-0.0032724924,-0.0021816615,0.0,11.5199995,0.17238252,-0.05267244,9.80665,-0.59855044,0.062249243,0.2801216,0.0026614666,-0.0046037724,0.90241283,2016-12-26 22:42:32,22.81232278585214
-0.4165911,0.033518825,10.134656,0.011999139,0.0032724924,0.0,12.16,0.16519992,-0.06703765,9.80665,-0.581791,0.10055647,0.32800564,0.002726606,-0.0069644433,0.90307367,2016-12-26 22:42:33,23.68414736512184
-0.46926352,0.11971009,9.895236,-0.019634955,-0.0054541538,-0.008726646,11.5199995,0.17717093,-0.076614454,9.80665,-0.6464345,0.19632454,0.088585466,0.003514478,-0.009048849,0.90333927,2016-12-26 22:42:34,25.07420122336892
-0.34476504,0.16280572,10.953473,-0.0992656,0.0010908308,0.0010908308,10.24,0.29448682,-0.090979666,9.801862,-0.6392518,0.25378537,1.151611,0.007865638,-0.011311347,0.90262556,2016-12-26 22:42:35,57.65290970076458
-0.37349546,0.095768064,10.081984,-0.0032724924,-0.008726646,-0.006544985,12.16,0.23702596,-0.11731588,9.8042555,-0.61052144,0.21308395,0.2777274,0.0038581416,-0.0102729015,0.90251076,2016-12-26 22:42:36,26.28263307106744
-0.32561144,-0.019153614,9.97185,-0.0010908308,-0.008726646,-0.01308997,11.5199995,0.2633622,-0.11252748,9.8042555,-0.58897364,0.093373865,0.16759412,0.004335868,-0.009760639,0.90190166,2016-12-26 22:42:37,21.653618141503483
-0.320823,-0.04309563,10.110714,-0.0032724924,0.0141808,0.0021816615,12.16,0.2825158,-0.11731588,9.801862,-0.60333884,0.074220255,0.30885202,0.0043827603,-0.009558937,0.9015133,2016-12-26 22:42:38,24.30263230564838
-0.37349546,-0.0047884034,10.235212,0.0054541538,0.0032724924,0.0054541538,12.16,0.2801216,-0.12689269,9.801862,-0.6536171,0.12210429,0.4333505,0.0033038193,-0.009223215,0.9014064,2016-12-26 22:42:39,23.20704380198042
-0.39264908,0.06703765,10.077195,-0.0141808,-0.016362462,-0.004363323,11.5199995,0.2753332,-0.11252748,9.8042555,-0.6679823,0.17956513,0.272939,0.0026729666,-0.0076664165,0.9010723,2016-12-26 22:42:40,22.414011934259264
-0.33039984,0.1340753,9.928755,-0.0010908308,0.0032724924,0.0010908308,12.16,0.25139117,-0.12928689,9.8042555,-0.581791,0.2633622,0.12449849,5.113203E-4,-0.007306359,0.9011045,2016-12-26 22:42:41,21.168705210978743
-0.38307226,-0.033518825,9.97185,0.01308997,-0.015271631,0.004363323,11.5199995,0.28491,-0.12689269,9.801862,-0.6679823,0.093373865,0.16998832,0.0014521359,-0.00724033,0.9011092,2016-12-26 22:42:42,25.140328018860757
-0.6703765,0.44532153,10.939108,0.18216874,-0.39597157,0.1559888,12.16,0.63206923,0.009576807,9.787497,-1.3024458,0.4357447,1.151611,0.01995312,-0.0075913146,0.90530884,2016-12-26 22:42:43,23.01070708863258
-0.7374141,1.0342951,9.660604,-0.23125613,-0.0850848,0.10581058,13.44,-0.47405192,0.9528923,9.749189,-0.2633622,0.08140286,-0.088585466,-0.009772928,0.059747823,0.8926118,2016-12-26 22:42:45,36.20183352656462
-0.38307226,0.038307227,10.000581,-0.08835729,-0.017453292,0.033815753,12.799999,0.31124622,-0.11971009,9.801862,-0.6943185,0.15801731,0.19871874,0.0027771117,-0.009460993,0.89316297,2016-12-26 22:42:46,29.49017769028828
0.023942016,-0.2681506,9.818622,-0.01308997,-0.018544123,0.016362462,11.5199995,0.6464345,-0.39983168,9.77792,-0.62249243,0.1316811,0.04070143,0.013001407,-0.03179463,0.8953668,2016-12-26 22:42:47,32.50073709623378
0.11971009,-0.48841715,10.235212,-0.022907447,0.015271631,0.016362462,13.44,0.557849,-0.59855044,9.773131,-0.4381389,0.110133275,0.46208093,0.0057445,-0.04069318,0.8967353,2016-12-26 22:42:48,28.564519569918033
-0.1340753,-0.5650316,9.957485,-0.009817477,-0.0010908308,-0.02727077,12.16,0.49559975,-0.7757214,9.763555,-0.62967503,0.21068975,0.19393034,6.198697E-5,-0.049105227,0.8976389,2016-12-26 22:42:49,26.837428983927154
-0.08140286,-0.7661445,9.928755,-0.011999139,0.01308997,0.025089107,13.44,0.47884035,-0.8595184,9.758766,-0.5602432,0.093373865,0.16998832,-0.0019036792,-0.053662762,0.898576,2016-12-26 22:42:50,23.296859573391945
0.047884032,-0.7613561,9.8042555,-0.016362462,-0.0010908308,-0.021816615,13.44,0.4309563,-0.93134445,9.753978,-0.38307226,0.16998832,0.050278235,-0.0060852244,-0.054953646,0.89847684,2016-12-26 22:42:51,25.967276392190893
-0.062249243,-0.9528923,10.3932295,-0.018544123,-0.053450707,0.053450707,13.44,0.4381389,-0.9983821,9.746795,-0.50038815,0.045489833,0.6464345,-0.007749893,-0.05698228,0.8985463,2016-12-26 22:42:52,21.632359383700944
0.110133275,-0.770933,10.086772,0.006544985,0.017453292,-0.0010908308,12.799999,0.4141969,-1.0175357,9.746795,-0.30406362,0.24660277,0.33997664,-0.009617295,-0.05639747,0.8983432,2016-12-26 22:42:53,26.930634252613107
-0.21068975,-0.8379706,9.94312,0.0054541538,0.031634092,0.0010908308,12.799999,0.37828386,-1.0031705,9.749189,-0.58897364,0.16519992,0.19393034,-0.01133188,-0.05408874,0.89786315,2016-12-26 22:42:54,26.67166831379739
-0.2777274,-0.8571242,9.991004,-0.0109083075,0.011999139,0.0032724924,12.799999,0.35434186,-1.0199299,9.749189,-0.63206923,0.16280572,0.24181437,-0.0131790135,-0.053591266,0.89788795,2016-12-26 22:42:55,22.943973288057087
-0.11971009,-0.7326257,10.043676,0.0109083075,-0.023998277,-0.017453292,13.44,0.37588966,-1.0175357,9.746795,-0.49559975,0.28491,0.29688102,-0.012389129,-0.053234644,0.8980896,2016-12-26 22:42:56,27.676535965091063
0.019153614,-0.81402856,9.967062,0.0141808,-0.020725785,0.009817477,13.44,0.33518824,-1.0007763,9.751583,-0.31603462,0.18674773,0.21547815,-0.014186924,-0.050866522,0.8975835,2016-12-26 22:42:57,29.221835491127365
-0.23463176,-0.8379706,10.043676,0.011999139,-0.009817477,-0.006544985,13.44,0.33758244,-0.9888053,9.751583,-0.5722142,0.15083471,0.29209262,-0.014021793,-0.049921416,0.897189,2016-12-26 22:42:58,25.973591906199616
-0.08140286,-0.91458505,9.938332,0.0054541538,0.008726646,0.0032724924,13.44,0.31603462,-0.9504981,9.7563715,-0.39743748,0.035913024,0.18195933,-0.014440222,-0.04726982,0.8968792,2016-12-26 22:42:59,21.858961319559693
-0.19632454,-0.79008657,9.995792,0.0021816615,0.0032724924,0.0054541538,13.44,0.29209262,-0.9552865,9.7563715,-0.48841715,0.16519992,0.23942018,-0.015826076,-0.046741918,0.89702845,2016-12-26 22:43:00,20.773376186994025
-0.05267244,-0.8714894,9.876082,-0.01308997,0.008726646,-0.006544985,13.44,0.29448682,-0.9864111,9.753978,-0.34715924,0.11492168,0.12210429,-0.016477637,-0.048028745,0.8976568,2016-12-26 22:43:01,24.644305495241035
-0.2825158,-0.89543146,9.799467,-0.0010908308,0.0054541538,-0.009817477,13.44,0.29209262,-0.9816227,9.753978,-0.5746084,0.08619126,0.045489833,-0.016630156,-0.047350235,0.89723545,2016-12-26 22:43:02,26.76651701995072
-0.1340753,-0.9528923,9.976639,0.0,0.0021816615,0.0010908308,13.44,0.29209262,-0.9816227,9.753978,-0.4261679,0.02873042,0.22266077,-0.01693046,-0.047103338,0.8974455,2016-12-26 22:43:03,21.62831900106813
-0.20590134,-0.8571242,10.010158,0.0,0.0054541538,-0.008726646,13.44,0.2801216,-0.9792285,9.753978,-0.48602295,0.12210429,0.25617957,-0.017639983,-0.04643709,0.8972088,2016-12-26 22:43:04,20.82336487091058
-0.22984336,-0.842759,10.058042,-0.011999139,-0.004363323,-0.004363323,13.44,0.25857377,-0.9935937,9.753978,-0.48841715,0.15083471,0.30406362,-0.019030455,-0.046299573,0.8973703,2016-12-26 22:43:05,22.233769457989105
-0.2681506,-0.8619126,9.995792,0.0021816615,-0.006544985,0.008726646,13.44,0.2753332,-0.9959879,9.753978,-0.5434838,0.1340753,0.24181437,-0.018193828,-0.046624936,0.89856637,2016-12-26 22:43:06,22.137501154207207
-0.10055647,-0.78529817,9.722853,-0.02617994,0.019634955,-0.0054541538,13.44,0.29209262,-0.91458505,9.76116,-0.39264908,0.12928689,-0.038307227,-0.015653275,-0.043062516,0.899352,2016-12-26 22:43:07,27.280018744839918
0.009576807,-0.866701,10.129868,-0.0010908308,-0.0021816615,-0.0076358155,13.44,0.30645782,-0.92895025,9.758766,-0.29688102,0.062249243,0.37110126,-0.015445493,-0.043788265,0.9001975,2016-12-26 22:43:08,28.203916817294115
-0.05267244,-0.8619126,9.967062,0.019634955,-0.0076358155,-0.0109083075,13.44,0.35913026,-0.9888053,9.751583,-0.41180268,0.12689269,0.21547815,-0.014274348,-0.047440756,0.9006993,2016-12-26 22:43:09,39.53741273681817
0.36391866,-0.22984336,9.895236,0.051269047,0.08290314,-0.015271631,14.719999,0.58418524,-0.5410896,9.775525,-0.22026655,0.31124622,0.11971009,0.0056451075,-0.031678293,0.8993236,2016-12-26 22:43:10,35.51766047701574
-0.023942016,-0.7230489,9.928755,-0.037088245,-0.004363323,0.035997417,14.08,0.25857377,-0.8355764,9.768343,-0.2825158,0.11252748,0.1604115,-0.01621385,-0.037655696,0.8958802,2016-12-26 22:43:11,41.2013180337035
-0.12928689,-0.6560113,10.09156,-0.0054541538,0.0021816615,-0.0054541538,14.719999,0.24660277,-0.8690952,9.765948,-0.37588966,0.21308395,0.32561144,-0.01730014,-0.03861752,0.8968664,2016-12-26 22:43:12,37.74993728377127
1.757344,1.364695,10.125079,0.44069564,0.17453292,-0.16035213,11.5199995,1.0845734,1.364695,9.651027,0.6727707,0.0,0.47405192,0.0743954,0.037782643,0.8621644,2016-12-26 22:43:13,32.96982661176116
-3.3662477,3.8642416,8.243237,-0.6348635,-0.7199483,0.1668971,10.88,-2.1068976,2.815581,9.155427,-1.2593501,1.0486604,-0.91219085,-0.02364219,0.18387702,0.8385494,2016-12-26 22:43:14,30.599253368897923
0.29688102,-0.047884032,10.019734,-0.02617994,-0.020725785,0.009817477,12.799999,0.58418524,-0.17477672,9.78989,-0.2873042,0.12689269,0.22984336,0.018372841,-0.022266414,0.88338006,2016-12-26 22:43:15,33.795113583955825
0.5267244,-0.1436521,10.565612,0.016362462,0.023998277,0.031634092,12.799999,0.51235914,-0.2825158,9.78989,0.01436521,0.1388637,0.7757214,0.015162842,-0.028843408,0.8848659,2016-12-26 22:43:16,26.14859881266031
-3.2704794,3.7493198,1.2282255,0.52578044,0.870483,-0.24652776,10.88,-2.6767175,2.9903579,8.949526,-0.59376204,0.7589619,-7.7213006,-0.03292209,0.19989398,0.82705474,2016-12-26 22:43:17,38.46329636673745
1.1923125,0.11492168,10.493786,0.934842,1.7267852,-0.3817908,12.799999,0.24420857,-0.10534488,9.8042555,0.94810385,0.22026655,0.6895301,0.009948453,-0.017484484,0.8907711,2016-12-26 22:43:18,34.47187435702316
0.34955344,-0.009576807,10.029311,-0.047996555,-0.018544123,0.011999139,12.799999,0.44771573,0.1340753,9.797073,-0.09816227,-0.1436521,0.23223756,0.026473608,-0.013301006,0.88522536,2016-12-26 22:43:19,25.9709615580533
0.023942016,-0.11971009,10.278308,-0.093811445,-0.02727077,-0.0054541538,12.799999,0.320823,-0.21308395,9.799467,-0.29688102,0.093373865,0.47884035,0.014344273,-0.027812608,0.8902236,2016-12-26 22:43:20,32.73345675757305
-0.32561144,-0.1436521,10.0341,-0.06872234,-0.045814894,-0.0010908308,12.799999,-0.2633622,-0.1388637,9.8042555,-0.062249243,-0.0047884034,0.22984336,-0.008980386,-0.012025451,0.88186634,2016-12-26 22:43:21,22.052156453498807
-0.24420857,-0.18674773,9.967062,0.0021816615,0.023998277,-0.006544985,12.799999,-0.22266077,-0.25378537,9.801862,-0.021547815,0.06703765,0.16519992,-0.008755403,-0.019725248,0.88363147,2016-12-26 22:43:22,22.416969053736633
-0.545878,-0.9959879,10.54167,0.0850848,0.14071716,-0.02617994,14.08,-0.11971009,-1.163582,9.737218,-0.4261679,0.16759412,0.80445176,-0.0255851,-0.06401805,0.87586486,2016-12-26 22:43:23,21.82468151251864
-0.32561144,-0.5410896,9.378088,0.5017822,0.50505465,0.016362462,14.719999,0.45968673,-0.06943185,9.797073,-0.78529817,-0.47165772,-0.4189853,0.027160218,-0.02803105,0.8856315,2016-12-26 22:43:24,25.318486550314738
0.12928689,-0.22505496,10.115502,-0.031634092,0.0032724924,0.0021816615,14.719999,0.24660277,-0.31364042,9.799467,-0.11731588,0.088585466,0.31603462,0.012588518,-0.036044575,0.88946766,2016-12-26 22:43:25,20.104059726251798
0.0,-0.33518824,10.06283,-0.016362462,-0.011999139,0.016362462,12.799999,0.15322891,-0.4141969,9.797073,-0.15322891,0.079008654,0.2657564,0.006733127,-0.04030837,0.8909642,2016-12-26 22:43:26,19.03621220304748
0.04309563,-0.35434186,10.0341,-0.011999139,0.015271631,0.0021816615,14.719999,0.12210429,-0.4237737,9.797073,-0.079008654,0.06943185,0.23702596,0.0057982,-0.041419894,0.891336,2016-12-26 22:43:27,19.45550643607624
0.047884032,-0.30645782,10.21127,0.0076358155,0.0141808,-0.0054541538,14.719999,0.11492168,-0.37349546,9.799467,-0.06703765,0.06703765,0.41180268,0.0072134845,-0.040152267,0.8909911,2016-12-26 22:43:28,18.539642420950003
0.0,-0.37828386,10.014946,0.0,-0.011999139,0.009817477,14.08,0.1604115,-0.39743748,9.799467,-0.1604115,0.019153614,0.21547815,0.008870734,-0.04238884,0.89160156,2016-12-26 22:43:29,14.388059569774533
-0.023942016,-0.44532153,10.029311,0.0076358155,0.0010908308,-0.011999139,14.719999,0.11252748,-0.34955344,9.801862,-0.1364695,-0.095768064,0.22744916,0.006981911,-0.037370756,0.8902946,2016-12-26 22:43:30,20.53918355714631
0.033518825,-0.44532153,10.101137,-0.016362462,0.0,0.0076358155,14.719999,0.06943185,-0.29209262,9.8042555,-0.035913024,-0.15322891,0.29688102,0.0055823326,-0.03223554,0.88951623,2016-12-26 22:43:31,17.669392834984645
-0.07182605,-0.5363012,9.923966,-0.009817477,-0.0141808,-0.023998277,14.08,0.16759412,-0.36631286,9.799467,-0.23942018,-0.16998832,0.12449849,0.007587434,-0.03651054,0.8906599,2016-12-26 22:43:32,18.657330384576998
-0.45010993,1.1683705,10.350134,-0.08399397,0.43633232,0.26507187,13.44,0.2825158,0.56982,9.787497,-0.7326257,0.59855044,0.5626374,0.03328739,0.0047838464,0.89346987,2016-12-26 22:43:33,16.47769978331781
-0.6847417,0.21547815,9.0716305,0.0425424,0.8552113,0.35124752,13.44,-0.22744916,0.48841715,9.792285,-0.45729253,-0.272939,-0.7206547,0.0065403143,0.01372608,0.90663433,2016-12-26 22:43:35,20.03918066697256
-0.9816227,-0.18195933,7.5584946,0.44942227,-0.5661412,-0.062177356,14.719999,-0.29927522,-0.06464344,9.801862,-0.6823475,-0.11731588,-2.243367,-0.00863317,-0.01194804,0.9175777,2016-12-26 22:43:36,18.274096631474983
-0.45489833,-0.009576807,10.187328,0.073085666,0.04145157,0.032724924,12.799999,-0.11492168,0.11252748,9.80665,-0.33997664,-0.12210429,0.38067806,0.0053950995,-0.008977348,0.9203152,2016-12-26 22:43:37,21.947975353346468
-0.08619126,-0.2873042,9.919178,0.016362462,-0.12653637,-0.04145157,14.719999,0.021547815,-0.21547815,9.8042555,-0.107739076,-0.07182605,0.11492168,0.007088513,-0.028655175,0.9210023,2016-12-26 22:43:38,16.885310512213756
0.090979666,-0.090979666,9.397242,0.08290314,0.14944382,0.25307274,12.799999,0.110133275,0.18914193,9.8042555,-0.019153614,-0.2801216,-0.40701428,0.02112858,-0.01255092,0.91237736,2016-12-26 22:43:39,14.248136027181992
-0.009576807,-0.24899697,9.603143,-0.49414635,-0.17562376,-0.045814894,14.719999,-0.62249243,0.093373865,9.787497,0.61291564,-0.34237084,-0.18435353,-0.015221661,-0.004589786,0.92764723,2016-12-26 22:43:40,19.2754144615406
-0.7517793,0.11492168,9.909601,0.40251654,0.29016098,0.046905722,13.44,-0.2825158,0.0,9.8042555,-0.46926352,0.11492168,0.10534488,-4.679365E-4,-0.014615392,0.92632306,2016-12-26 22:43:41,21.439056477036264
-1.4030021,0.7374141,8.899248,0.30325097,-0.13962634,-0.13526301,12.799999,-1.448492,0.7398083,9.672575,0.045489833,-0.0023942017,-0.7733272,-0.0434404,0.039727643,0.9367829,2016-12-26 22:43:42,19.637386517261966
-2.2218192,3.9935284,9.488221,0.7810348,0.5934119,-0.14071716,10.88,-2.3582888,4.5633483,8.355764,0.1364695,-0.56982,1.1324574,4.0018559E-4,0.25060222,0.88393706,2016-12-26 22:43:43,26.249950187136015
-2.920926,3.5194764,9.938332,-0.018544123,0.33270338,-0.14508049,11.5199995,-1.661576,2.8179753,9.246407,-1.2593501,0.7015011,0.6919243,-8.825138E-4,0.1459066,0.90028983,2016-12-26 22:43:44,29.579164183071804
0.20590134,0.6607997,9.406818,0.16798794,0.17562376,0.025089107,10.88,0.4189853,0.4237737,9.78989,-0.21308395,0.23702596,-0.38307226,0.04528377,-0.012819111,0.92944324,2016-12-26 22:43:45,67.66412178287227
-0.17717093,0.7661445,9.91439,0.0021816615,-0.059995692,0.0032724924,10.88,0.25139117,0.63206923,9.785102,-0.4285621,0.1340753,0.12928689,0.04488097,-0.003402194,0.9316382,2016-12-26 22:43:46,32.506141308392074
-0.18195933,0.8475474,10.010158,0.0010908308,-0.020725785,0.0010908308,10.88,0.24899697,0.6751649,9.7803135,-0.4309563,0.17238252,0.22984336,0.047418155,-0.0032858644,0.9326887,2016-12-26 22:43:47,22.373185319185044
-0.22505496,0.7517793,10.0341,-0.011999139,-0.0109083075,-0.0032724924,10.88,0.1604115,0.6655881,9.782708,-0.3854665,0.08619126,0.25139117,0.043802828,-0.0032903422,0.93374825,2016-12-26 22:43:48,25.336105550107035
-0.33518824,0.7469909,9.933543,-0.009817477,-0.0076358155,-0.009817477,10.88,0.06464344,0.6727707,9.785102,-0.39983168,0.074220255,0.14844051,0.038343932,3.120564E-4,0.9336884,2016-12-26 22:43:49,18.808850164207275
-0.272939,0.8619126,10.072407,-0.0021816615,0.0032724924,-0.0010908308,10.88,0.016759412,0.6775591,9.785102,-0.2896984,0.18435353,0.2873042,0.03505092,0.0032554474,0.93355703,2016-12-26 22:43:50,33.68375222760535
-0.34476504,0.79487497,9.967062,-0.0010908308,0.008726646,0.008726646,10.88,0.011971008,0.6727707,9.785102,-0.35673606,0.12210429,0.18195933,0.033528246,0.004849585,0.93319434,2016-12-26 22:43:51,12.338418642756132
-2.705448,-0.14844051,9.904813,0.10908308,1.6406095,-1.9907662,11.5199995,-4.271256,-0.22026655,8.825027,1.5658079,0.07182605,1.079785,-0.17411321,0.082949825,0.84259343,2016-12-26 22:43:52,13.498439106638937
-1.1587936,-2.5570073,9.627085,-0.02727077,0.045814894,0.022907447,10.88,-1.1085154,-2.5761611,9.397242,-0.050278235,0.019153614,0.22984336,-0.09988091,-0.09434732,0.80353606,2016-12-26 22:43:53,26.058525082856256
-1.1013328,-2.3942018,9.560047,0.07853982,-0.06981317,-0.006544985,10.24,-1.0606314,-2.2481554,9.488221,-0.04070143,-0.14604631,0.07182605,-0.0871724,-0.085673414,0.8159409,2016-12-26 22:43:54,25.750001105983458
-1.0773908,-2.2026656,9.78989,0.07199483,0.20943952,0.004363323,10.24,-1.0414777,-2.1212628,9.519346,-0.035913024,-0.08140286,0.2705448,-0.082314804,-0.08214675,0.8189639,2016-12-26 22:43:55,34.53406579007429
-2.135628,-2.0446482,9.674969,0.02617994,0.0032724924,-0.0010908308,10.24,-1.9153614,-1.8195933,9.445126,-0.22026655,-0.22505496,0.22984336,-0.11101288,-0.043970607,0.8174984,2016-12-26 22:43:56,42.50000805514435
-2.1212628,-1.8243817,9.531317,-0.0054541538,-0.0010908308,0.006544985,10.24,-2.0709844,-1.7812861,9.41879,-0.050278235,-0.04309563,0.11252748,-0.11671427,-0.038078632,0.81814003,2016-12-26 22:43:57,23.072196131599867
-2.3127987,-1.8339585,9.746795,-0.006544985,0.019634955,0.004363323,9.599999,-1.9416976,-1.7932571,9.445126,-0.37110126,-0.04070143,0.30166942,-0.11292423,-0.040738743,0.81832165,2016-12-26 22:43:58,18.727266988827942
-2.2409728,-1.8004397,9.464279,0.0109083075,0.008726646,-0.009817477,10.24,-1.9153614,-1.7980455,9.449914,-0.32561144,-0.0023942017,0.01436521,-0.1132808,-0.040503368,0.8190727,2016-12-26 22:43:59,13.448832793698632
-2.2888567,-1.8866309,9.588778,0.0054541538,0.0010908308,-0.0010908308,10.24,-1.9632454,-1.8052281,9.437943,-0.32561144,-0.08140286,0.15083471,-0.1169499,-0.03804916,0.81858337,2016-12-26 22:44:00,13.437367347200375
-2.3319526,-1.8004397,9.555259,0.015271631,0.0021816615,-0.006544985,10.24,-1.9800048,-1.8171991,9.43076,-0.35194764,0.016759412,0.12449849,-0.11940704,-0.036666155,0.8182993,2016-12-26 22:44:01,18.330673882811887
-2.3894134,-1.8435353,9.536105,-0.0032724924,-0.035997417,0.0,10.24,-2.018312,-1.8195933,9.423578,-0.37110126,-0.023942016,0.11252748,-0.12250066,-0.03442927,0.81855434,2016-12-26 22:44:02,19.622509186326404
-2.2984335,-1.7525556,9.507375,-0.0054541538,-0.006544985,-0.004363323,10.24,-2.0254946,-1.8267759,9.421184,-0.272939,0.074220255,0.08619126,-0.124414295,-0.0334328,0.81895965,2016-12-26 22:44:03,21.165178100424093
-2.4277205,-1.7860745,9.464279,0.0010908308,0.0,0.0010908308,10.24,-2.0254946,-1.8363527,9.41879,-0.40222588,0.050278235,0.045489833,-0.12592381,-0.03253863,0.8187065,2016-12-26 22:44:04,16.124968804079366
-1.8914193,-3.4811692,10.977415,0.9708394,-0.6664976,0.14398967,11.5199995,-1.0342951,-1.1683705,9.682152,-0.8571242,-2.3127987,1.2952632,-0.06493186,-0.034186184,0.8407678,2016-12-26 22:44:05,16.539558077019745
0.019153614,0.35434186,13.429077,-0.09162979,-0.0054541538,-0.5563237,11.5199995,-0.8451532,1.3024458,9.6845455,0.8643068,-0.94810385,3.7445314,-0.005541103,0.06303476,0.9226093,2016-12-26 22:44:06,28.162937878832032
-1.2976574,1.0151415,9.876082,-0.015271631,0.011999139,0.0054541538,13.44,-0.8690952,0.8858546,9.727641,-0.4285621,0.12928689,0.14844051,-0.013254512,0.041225392,0.9246596,2016-12-26 22:44:07,24.566696294237573
-3.107674,0.31603462,9.229648,-0.06435902,-0.07526732,0.13308136,15.36,-2.96881,0.10055647,9.346964,-0.1388637,0.21547815,-0.11731588,-0.12732118,0.045291174,0.9121356,2016-12-26 22:44:08,21.796355590277106
-2.777274,-0.05746084,9.713276,0.03926991,-0.034906585,0.008726646,15.36,-2.6144683,-0.22266077,9.449914,-0.16280572,0.16519992,0.2633622,-0.11603044,0.020605981,0.9155788,2016-12-26 22:44:09,21.42676189371512
-1.283292,0.89064306,9.82341,-0.023998277,0.030543262,0.0021816615,12.799999,-0.8475474,0.79248077,9.739613,-0.4357447,0.09816227,0.08379706,-0.010757551,0.032092594,0.92061335,2016-12-26 22:44:10,19.734742269919018
-0.6799533,1.982399,10.125079,-0.12217305,0.14289883,-0.051269047,12.16,-0.1388637,1.8291701,9.634268,-0.5410896,0.15322891,0.49081135,0.04101638,0.06836855,0.924911,2016-12-26 22:44:11,22.857963302091502
-0.7278373,1.8579005,9.919178,-0.0109083075,0.0076358155,-0.015271631,11.5199995,-0.4333505,1.7238252,9.646238,-0.29448682,0.1340753,0.272939,0.02455653,0.07034445,0.92527616,2016-12-26 22:44:12,20.131445655028468
-0.6895301,1.6136919,9.876082,0.030543262,-0.0021816615,0.0,11.5199995,-0.581791,1.6352397,9.653421,-0.107739076,-0.021547815,0.22266077,0.015183192,0.070357144,0.9252701,2016-12-26 22:44:13,27.347731685813244
-0.80445176,1.6089035,9.909601,-0.0021816615,-0.009817477,-0.009817477,12.799999,-0.5722142,1.5682021,9.665392,-0.23223756,0.04070143,0.24420857,0.013950679,0.06821078,0.9245371,2016-12-26 22:44:14,29.79455420882191
-0.7757214,1.6472107,9.952697,-0.006544985,-0.051269047,0.016362462,12.16,-0.58418524,1.6807296,9.646238,-0.19153613,-0.033518825,0.30645782,0.014612215,0.07502111,0.924701,2016-12-26 22:44:15,22.89207923153422
-0.50757074,1.7669208,9.995792,0.13417219,0.07853982,-0.025089107,12.16,-0.7015011,2.0207062,9.572019,0.19393034,-0.25378537,0.4237737,0.016005542,0.094723314,0.9197678,2016-12-26 22:44:16,19.800317930674712
-0.89543146,1.9871874,9.94312,-0.022907447,-0.016362462,-0.04145157,12.16,-0.7493851,2.1164744,9.548077,-0.14604631,-0.12928689,0.39504328,0.014093716,0.10124765,0.92151785,2016-12-26 22:44:17,23.818067522948752
-1.1923125,1.0773908,10.378864,0.0,-0.07417649,-0.021816615,11.5199995,-0.8690952,2.1068976,9.5385,-0.32321724,-1.0295067,0.8403648,0.007761836,0.10396253,0.92080224,2016-12-26 22:44:18,19.54503811752752
-0.90979666,1.7429788,9.785102,-0.0141808,0.01308997,0.0,12.16,-0.8690952,1.9967642,9.562442,-0.04070143,-0.25378537,0.22266077,0.005144663,0.09937229,0.9209664,2016-12-26 22:44:19,20.484256175570028
-1.0582372,1.8004397,9.94312,-0.011999139,-0.0109083075,-0.017453292,11.5199995,-0.9672575,2.0111294,9.55047,-0.090979666,-0.21068975,0.39264908,1.6402453E-4,0.1026403,0.92065495,2016-12-26 22:44:20,33.974696302571026
-0.94331545,1.6759412,9.698911,-0.023998277,0.0,-0.034906585,11.5199995,-1.0366893,2.1045034,9.524135,0.093373865,-0.4285621,0.17477672,-0.0020200163,0.108874306,0.9203046,2016-12-26 22:44:21,22.163583660524505
-1.043872,1.6998832,9.880871,0.02727077,0.0010908308,0.0141808,12.16,-1.1324574,2.0518308,9.524135,0.088585466,-0.35194764,0.35673606,-0.007845007,0.10846137,0.9196734,2016-12-26 22:44:22,18.36640541572774
-0.9576807,1.7764976,9.947908,-0.04145157,-0.01308997,-0.0021816615,12.16,-1.067814,1.9416976,9.555259,0.110133275,-0.16519992,0.39264908,-0.0062017404,0.10220997,0.9163119,2016-12-26 22:44:23,17.084209001347126
-0.9720459,1.6759412,9.895236,0.02617994,0.008726646,0.09817477,12.16,-1.1204864,1.9752164,9.540894,0.14844051,-0.29927522,0.35434186,-0.00939963,0.10483691,0.91902184,2016-12-26 22:44:25,17.464233566865982
-1.3024458,2.1068976,9.651027,0.09817477,0.045814894,-0.044724062,11.5199995,-1.3000516,2.3511062,9.433155,-0.0023942017,-0.24420857,0.21787235,-0.013024747,0.12622932,0.9213941,2016-12-26 22:44:26,16.793521761896617
-1.5035586,2.0398598,9.8042555,0.015271631,-0.050178215,0.0076358155,12.16,-1.448492,2.4875755,9.375694,-0.055066638,-0.44771573,0.4285621,-0.01824905,0.13572718,0.9208075,2016-12-26 22:44:27,29.849284191616302
-0.8379706,2.006341,9.344569,0.17671458,-0.044724062,0.10799225,11.5199995,-1.0534488,2.633622,9.387665,0.21547815,-0.62728083,-0.04309563,0.003292136,0.13484058,0.92061234,2016-12-26 22:44:28,15.289167002776548
-0.8283938,2.0015526,9.378088,0.045814894,0.022907447,-0.006544985,12.16,-0.8762778,2.540248,9.433155,0.047884032,-0.5386954,-0.055066638,0.010309339,0.12644847,0.9198987,2016-12-26 22:44:29,20.530784434834196
-1.2449849,2.1164744,9.919178,-0.20725785,-0.3261584,-0.05235988,11.5199995,-1.3311762,2.6384103,9.351752,0.08619126,-0.521936,0.5674258,-0.010859564,0.13979965,0.92029434,2016-12-26 22:44:30,18.11449323773955
-1.2449849,2.7006595,9.775525,-0.08181231,0.0992656,0.0,12.16,-1.5777789,2.908955,9.232041,0.33279404,-0.20829555,0.5434838,-0.018772237,0.15715086,0.91968894,2016-12-26 22:44:31,16.462198719275545
-1.8291701,2.2936451,9.694122,0.019634955,0.0,-0.015271631,11.5199995,-1.8650831,2.8491,9.198523,0.035913024,-0.5554548,0.49559975,-0.034135368,0.15705605,0.9217311,2016-12-26 22:44:32,19.33307982040707
-1.6567876,2.6767175,9.61272,-0.0567232,-0.08290314,0.049087387,11.5199995,-1.9847932,3.3207579,9.011775,0.32800564,-0.6440403,0.60094464,-0.030768886,0.18063898,0.9184957,2016-12-26 22:44:33,21.66565778839372
-2.0973208,2.2218192,9.986216,-0.017453292,-0.1308997,0.004363323,12.16,-1.8028339,3.1052797,9.126697,-0.29448682,-0.8834604,0.8595184,-0.025862396,0.16381337,0.9224886,2016-12-26 22:44:34,23.197564929822065
-2.087744,2.542642,9.564836,-0.022907447,0.033815753,-0.015271631,11.5199995,-2.018312,3.1866825,9.052477,-0.06943185,-0.6440403,0.51235914,-0.03560044,0.1697028,0.9234767,2016-12-26 22:44:35,18.56099240720725
-1.733402,2.60968,9.507375,0.067631505,-0.058904864,-0.0076358155,12.16,-1.8962077,3.1794999,9.081207,0.16280572,-0.56982,0.4261679,-0.029851258,0.16538861,0.9251764,2016-12-26 22:44:36,32.6828391629696
-1.3024458,2.3558946,9.660604,0.0032724924,0.037088245,-0.006544985,11.5199995,-1.4269443,2.9951463,9.229648,0.12449849,-0.6392518,0.4309563,-0.0073058307,0.14817989,0.92191434,2016-12-26 22:44:37,18.66877814337499
-1.8004397,2.8778305,10.469844,-0.102538094,-0.20616701,0.040360738,12.16,-1.484405,3.1747115,9.160215,-0.31603462,-0.29688102,1.3096284,-0.007656418,0.15884921,0.9207935,2016-12-26 22:44:38,16.549582420910443
-1.7525556,2.6862943,9.603143,0.0010908308,0.116718896,0.0141808,11.5199995,-1.9297266,3.301604,9.030929,0.17717093,-0.61530983,0.5722142,-0.029886104,0.1739825,0.9217247,2016-12-26 22:44:39,17.460013648554487
-2.0638018,3.3614593,10.283096,-0.021816615,-0.05781403,-0.070904,12.16,-1.7286136,3.3901896,9.040505,-0.33518824,-0.02873042,1.2425907,-0.018259227,0.17496482,0.92076707,2016-12-26 22:44:40,16.24733177020715
-2.6384103,3.5625722,9.55047,0.25307274,0.46578476,-0.0283616,10.88,-2.4827871,4.06296,8.573636,-0.15562311,-0.50038815,0.9768343,-0.04446984,0.22502422,0.91120076,2016-12-26 22:44:41,25.171408926327068
-2.408567,3.8067808,10.15381,0.03926991,-0.20943952,0.0283616,11.5199995,-2.1045034,3.6822822,8.844181,-0.30406362,0.12449849,1.3096284,-0.030911803,0.19589616,0.9161625,2016-12-26 22:44:42,17.100644507673216
-2.2888567,3.2752678,9.239224,0.01308997,0.17889625,-0.035997417,10.88,-2.360683,4.039018,8.62152,0.07182605,-0.7637503,0.61770403,-0.03922403,0.2171731,0.9152586,2016-12-26 22:44:43,21.242868058150215
-1.8962077,3.1603463,9.0716305,0.038179077,-0.0021816615,-0.0076358155,10.24,-2.066196,3.9743748,8.724471,0.16998832,-0.81402856,0.34715924,-0.027395658,0.20591438,0.92075324,2016-12-26 22:44:44,14.708941594862887
-1.364695,3.1364043,9.287108,0.0076358155,-0.0021816615,-0.02617994,10.24,-1.460463,3.904943,8.8777,0.095768064,-0.7685388,0.40940848,0.0032332316,0.1889351,0.922721,2016-12-26 22:44:45,16.869526408912375
-1.0055647,3.4237084,9.272743,-0.05563237,-0.0567232,-0.015271631,10.24,-1.3910311,3.86903,8.9040365,0.3854665,-0.44532153,0.36870706,0.0108926,0.18428606,0.91745883,2016-12-26 22:44:46,16.923511178233525
-0.10534488,1.5227122,10.828975,0.02727077,-0.21925698,-0.04145157,12.16,-0.6847417,2.4851813,9.464279,0.5793968,-0.9624691,1.364695,0.021574847,0.100622214,0.92305523,2016-12-26 22:44:47,23.805127304303454
-0.36391866,1.6711528,10.268731,-0.006544985,-0.033815753,0.0425424,10.24,-0.4405331,2.5713725,9.454702,0.076614454,-0.90021986,0.81402856,0.033090744,0.099580824,0.9281729,2016-12-26 22:44:48,20.867749411553618
-0.81402856,1.7381904,9.933543,-0.063268185,0.08181231,-0.044724062,10.88,-0.6607997,2.6072857,9.433155,-0.15322891,-0.8690952,0.50038815,0.022264745,0.10480489,0.9307338,2016-12-26 22:44:49,16.51681745998869
-0.8619126,2.0207062,9.866506,0.22362031,0.30870512,-0.06544985,10.24,-0.78290397,2.7700913,9.375694,-0.079008654,-0.7493851,0.49081135,0.017634008,0.11440052,0.93371826,2016-12-26 22:44:50,17.137704622025073
-1.6424223,1.685518,9.923966,-0.22907446,0.006544985,-0.018544123,12.16,-1.4508862,2.753332,9.301474,-0.19153613,-1.067814,0.62249243,-0.022907116,0.12291553,0.94549716,2016-12-26 22:44:51,25.973134568770966
-0.8475474,2.6671407,9.579201,0.05454154,-0.103628926,0.073085666,10.24,-0.6751649,3.4524388,9.155427,-0.17238252,-0.78529817,0.4237737,0.022037208,0.14906934,0.9482274,2016-12-26 22:44:52,23.47614572014857
0.05746084,1.8435353,9.737218,-0.076358154,0.13635385,0.019634955,10.24,-0.38067806,2.6503813,9.435549,0.4381389,-0.80684596,0.30166942,0.02442056,0.105902016,0.95343083,2016-12-26 22:44:53,19.91659784242557
-0.89543146,2.7964275,9.469068,0.24216443,-0.3370667,-0.019634955,12.16,-0.8810662,2.9783869,9.303867,-0.01436521,-0.18195933,0.16519992,0.0036518872,0.13101333,0.95327795,2016-12-26 22:44:54,19.946470383534837
-0.91458505,2.432509,9.818622,-0.004363323,0.023998277,0.0032724924,11.5199995,-1.0127473,2.930503,9.306262,0.09816227,-0.49799395,0.51235914,-0.0055241436,0.13157403,0.95688653,2016-12-26 22:44:55,18.851608969773338