ACC_X,ACC_Y,ACC_Z,GYRO_X,GYRO_Y,GYRO_Z,LIGH_1,GRAV_X,GRAV_Y,GRAV_Z,LINACC_X,LINACC_Y,LINACC_Z,ROTVEC_X,ROTVEC_Y,ROTVEC_Z,TIME,VOICE
3.8519745,-0.5899353,9.17601,1.6784668E-4,1.8310547E-4,-9.0026855E-4,112.0,3.7842057,-0.57670164,9.028709,0.003938198,-0.00535959,-0.009613991,-0.16741431,-0.10787213,-0.73440045,2017-07-17 16:14:04,-Infinity
3.8538818,-0.5866699,9.175003,1.6784668E-4,1.8310547E-4,-1.2207031E-4,109.0,3.7859652,-0.5756522,9.028039,9.756088E-4,-0.0021731257,-0.0030527115,-0.16744618,-0.1079811,-0.73436594,2017-07-17 16:14:04,-Infinity
3.8518066,-0.5780792,9.187149,3.6621094E-4,8.69751E-4,3.0517578E-5,110.0,3.7860975,-0.57432353,9.028068,5.352497E-4,-0.006031215,-0.011256218,-0.16739863,-0.108047955,-0.7343255,2017-07-17 16:14:04,-Infinity
3.8489227,-0.591629,9.199554,1.6784668E-4,1.8310547E-4,1.6784668E-4,110.0,3.7843797,-0.5742583,9.028792,-0.0035760403,0.0045286417,-0.0073423386,-0.16732395,-0.10799269,-0.7343263,2017-07-17 16:14:04,-Infinity
3.858673,-0.5863342,9.189865,5.493164E-4,-7.9345703E-4,-5.493164E-4,109.0,3.7861414,-0.57670945,9.027897,0.0020461082,0.0039072633,0.010601044,-0.16749585,-0.10793746,-0.73439765,2017-07-17 16:14:04,-Infinity
3.8441467,-0.5915222,9.196762,-1.373291E-4,-3.0517578E-5,-5.950928E-4,111.0,3.7840757,-0.5781235,9.028673,-0.00863719,-0.004179299,0.007385254,-0.16746567,-0.10780098,-0.7344436,2017-07-17 16:14:04,-Infinity
3.857132,-0.58602905,9.200165,1.2207031E-4,-7.6293945E-5,5.79834E-4,112.0,3.785904,-0.577463,9.027948,6.365776E-5,-0.0036275387,-0.0012245178,-0.16752805,-0.10783882,-0.73444635,2017-07-17 16:14:04,-Infinity
3.8579102,-0.58029175,9.189301,-1.373291E-4,-7.6293945E-5,-6.5612793E-4,113.0,3.7847955,-0.5793129,9.028295,-0.005699396,-0.009100974,0.005498886,-0.16751833,-0.107839495,-0.7344433,2017-07-17 16:14:05,-Infinity
3.8419495,-0.58976746,9.188202,-1.373291E-4,-7.6293945E-5,5.79834E-4,113.0,3.7843533,-0.5775275,9.028595,-0.009128571,-0.002336204,-0.0024843216,-0.16745351,-0.10783838,-0.7344252,2017-07-17 16:14:06,-Infinity
3.8622131,-0.59135437,9.199051,-3.6621094E-4,-7.6293945E-5,5.79834E-4,113.0,3.7844157,-0.5763582,9.028643,0.0044116974,0.004780948,4.968643E-4,-0.1674094,-0.10789538,-0.7343897,2017-07-17 16:14:07,-Infinity
3.8607788,-0.5858612,9.202621,-8.392334E-4,0.0011444092,5.79834E-4,114.0,3.7850044,-0.5774741,9.028325,0.0031096935,5.632639E-4,0.0023479462,-0.1674787,-0.10786298,-0.73442256,2017-07-17 16:14:08,-Infinity
3.8536987,-0.5841217,9.187103,-1.373291E-4,-7.6293945E-5,5.79834E-4,114.0,3.7831163,-0.5764748,9.029181,0.0057985783,-0.0057272315,0.0077705383,-0.16735955,-0.1078458,-0.73439527,2017-07-17 16:14:09,-Infinity
3.8594513,-0.58750916,9.194397,-1.373291E-4,1.5258789E-4,3.3569336E-4,112.0,3.7833803,-0.5761553,9.02909,-0.0014350414,0.005811274,-0.0065431595,-0.16735786,-0.10786975,-0.7343852,2017-07-17 16:14:10,-Infinity
3.8433685,-0.59150696,9.192657,-1.373291E-4,-4.119873E-4,3.9672852E-4,112.0,3.7848053,-0.5767425,9.028456,0.0017127991,-0.001036942,-0.009373665,-0.1674411,-0.10789056,-0.73440075,2017-07-17 16:14:11,-Infinity
3.8562317,-0.58662415,9.195633,4.7302246E-4,-7.6293945E-5,-6.5612793E-4,112.0,3.7833781,-0.5768343,9.029048,0.0010762215,-0.0020217896,4.7683716E-4,-0.1673849,-0.10783781,-0.73440576,2017-07-17 16:14:12,-Infinity
3.8492126,-0.58084106,9.189056,8.69751E-4,-7.6293945E-5,6.1035156E-5,112.0,3.786377,-0.5767375,9.027797,5.0377846E-4,-0.00608927,-0.00217247,-0.16750684,-0.10794414,-0.7343981,2017-07-17 16:14:13,-Infinity
3.8461914,-0.5947113,9.198334,-8.544922E-4,-7.6293945E-5,-6.5612793E-4,116.0,3.7851794,-0.5768098,9.028295,0.0021111965,0.0014993548,0.0011196136,-0.16745949,-0.1079001,-0.7344022,2017-07-17 16:14:14,-Infinity
3.8499298,-0.59173584,9.200119,-1.373291E-4,-1.2207031E-4,-6.2561035E-4,113.0,3.782,-0.5784262,9.029523,-0.004057646,-0.004300654,0.012341499,-0.1673907,-0.107716344,-0.734456,2017-07-17 16:14:15,-Infinity
3.8466797,-0.58584595,9.189346,6.5612793E-4,-7.6293945E-5,-6.5612793E-4,110.0,3.7831707,-0.5758387,9.029198,0.007196188,0.0067982078,0.004705429,-0.16736144,-0.107831,-0.73440176,2017-07-17 16:14:16,-Infinity
3.8536377,-0.5886688,9.190628,3.0517578E-5,-7.6293945E-5,-6.5612793E-4,113.0,3.7837498,-0.57446766,9.029042,7.483959E-4,0.004602611,0.0017089844,-0.16730592,-0.10796149,-0.7343336,2017-07-17 16:14:17,-Infinity
3.8561096,-0.5836334,9.185211,-1.373291E-4,-7.6293945E-5,0.0,114.0,3.7838402,-0.57615536,9.028897,0.0017917156,-9.548664E-5,0.0031442642,-0.16737714,-0.10788536,-0.7343845,2017-07-17 16:14:18,-Infinity
3.844696,-0.58491516,9.190643,3.6621094E-4,-7.6293945E-5,5.79834E-4,116.0,3.782327,-0.5763888,9.029516,-0.0010550022,-7.084608E-4,0.0020608902,-0.16732301,-0.107823044,-0.7343939,2017-07-17 16:14:19,-Infinity
3.853363,-0.5800476,9.197113,-1.373291E-4,-7.6293945E-5,-1.373291E-4,113.0,3.7815542,-0.5750426,9.029926,-0.0020291805,0.009979844,0.0066661835,-0.16723679,-0.10785996,-0.73435444,2017-07-17 16:14:20,-Infinity
3.8488312,-0.5841217,9.190445,5.645752E-4,3.6621094E-4,6.1035156E-5,112.0,3.7818935,-0.5777645,9.02961,0.003229618,0.0012232065,-0.0015258789,-0.1673598,-0.107743785,-0.73443615,2017-07-17 16:14:21,-Infinity
3.8549805,-0.5860443,9.191788,-1.373291E-4,6.1035156E-4,6.1035156E-5,115.0,3.783573,-0.5784598,9.028862,0.00151968,-6.225705E-4,0.0073451996,-0.16745977,-0.10780328,-0.734441,2017-07-17 16:14:22,-Infinity
3.8468475,-0.58914185,9.191101,0.0010681152,-7.6293945E-5,-7.6293945E-5,114.0,3.7838933,-0.5762626,9.028868,-0.0017871857,-0.0051106215,0.01215744,-0.16738367,-0.107882135,-0.73438764,2017-07-17 16:14:23,-Infinity
3.8444672,-0.58413696,9.195618,-1.373291E-4,5.79834E-4,5.79834E-4,116.0,3.783285,-0.57798475,9.029013,0.0024454594,-0.001795888,-0.006075859,-0.16742697,-0.107780665,-0.7344406,2017-07-17 16:14:24,-Infinity
3.8469086,-0.5900116,9.188309,-3.0517578E-5,-4.8828125E-4,5.79834E-4,114.0,3.7816272,-0.57586604,9.029842,0.00861907,0.0052628517,0.010183334,-0.16727276,-0.10782382,-0.7343792,2017-07-17 16:14:25,-Infinity
3.853531,-0.59259033,9.185806,-1.9836426E-4,-3.0517578E-5,-6.5612793E-4,115.0,3.782483,-0.5784813,9.029317,-0.002370119,-0.00357306,-0.010912895,-0.16741318,-0.10773015,-0.7344569,2017-07-17 16:14:26,-Infinity
3.8580933,-0.5797577,9.181961,-1.373291E-4,4.272461E-4,-6.4086914E-4,113.0,3.7841923,-0.57720727,9.028683,0.0067915916,0.0022679567,-8.4877014E-4,-0.16743396,-0.107847944,-0.73441577,2017-07-17 16:14:27,-Infinity
3.853592,-0.5889282,9.186951,6.1035156E-5,-7.6293945E-5,-6.5612793E-4,114.0,3.7844176,-0.57457507,9.028756,0.0022735596,-0.002804637,-0.0043144226,-0.1673382,-0.10797911,-0.7343358,2017-07-17 16:14:28,-Infinity
3.8540344,-0.5873718,9.199554,4.4250488E-4,-7.6293945E-5,-6.5612793E-4,114.0,3.7829545,-0.57462037,9.0293665,-0.0017194748,6.3961744E-4,3.1471252E-5,-0.16729663,-0.107915096,-0.7343495,2017-07-17 16:14:29,-Infinity
3.8653107,-0.5864563,9.201111,-1.373291E-4,-7.6293945E-5,5.79834E-4,113.0,3.7836506,-0.5741207,9.029106,0.006505251,-0.00331223,0.0010566711,-0.16728787,-0.107974395,-0.73432326,2017-07-17 16:14:30,-Infinity
3.8524628,-0.5857086,9.203598,-4.5776367E-5,3.3569336E-4,1.5258789E-4,115.0,3.7840636,-0.57705593,9.028746,-2.0694733E-4,-5.405545E-4,0.0106983185,-0.16742252,-0.107850686,-0.73441136,2017-07-17 16:14:31,-Infinity
3.8402863,-0.5878906,9.178955,6.1035156E-4,-7.6293945E-5,-1.8310547E-4,117.0,3.783005,-0.5755884,9.029284,-0.005428791,-0.0025473237,-3.1661987E-4,-0.1673415,-0.107895285,-0.7343703,2017-07-17 16:14:32,-Infinity
3.8449097,-0.5877991,9.184418,5.493164E-4,-7.6293945E-5,-6.5612793E-4,112.0,3.7852478,-0.5722587,9.028555,2.734661E-4,0.0023328662,-0.001329422,-0.16728044,-0.10811599,-0.73426443,2017-07-17 16:14:33,-Infinity
3.8506622,-0.58587646,9.195557,5.493164E-4,-7.7819824E-4,-6.5612793E-4,113.0,3.782756,-0.5766499,9.02932,0.005573511,-0.0010061264,-9.5272064E-4,-0.16735144,-0.107825354,-0.7344011,2017-07-17 16:14:34,-Infinity
3.8444672,-0.5886841,9.196411,-1.373291E-4,5.187988E-4,-4.5776367E-5,115.0,3.7817137,-0.5758841,9.029805,-0.0036606789,-0.0014874935,0.0028734207,-0.16727711,-0.107825905,-0.7343796,2017-07-17 16:14:35,-Infinity
3.8463287,-0.58651733,9.188553,-1.373291E-4,-7.6293945E-5,4.4250488E-4,115.0,3.7822237,-0.5740474,9.029709,0.0030064583,-6.2841177E-4,0.0032491684,-0.1672251,-0.107929386,-0.73432326,2017-07-17 16:14:36,-Infinity
3.856186,-0.57832336,9.191589,0.0010681152,-7.6293945E-5,-5.645752E-4,113.0,3.781699,-0.5714609,9.030092,-0.007040262,-0.008176923,-4.0626526E-4,-0.1670997,-0.10803289,-0.7342459,2017-07-17 16:14:37,-Infinity
3.8473663,-0.5804138,9.185059,-7.6293945E-5,-7.6293945E-5,-6.5612793E-4,116.0,3.7835815,-0.5739825,9.029144,-2.3841858E-5,-0.004811883,-0.005207062,-0.16725777,-0.107983075,-0.73431116,2017-07-17 16:14:38,-Infinity
3.8377075,-0.58551025,9.192169,7.7819824E-4,-5.950928E-4,-3.5095215E-4,111.0,3.781752,-0.57534647,9.029823,-0.0043845177,-2.1100044E-5,-0.006928444,-0.16730009,-0.10787484,-0.7343666,2017-07-17 16:14:39,-Infinity
3.8558044,-0.58662415,9.199005,3.9672852E-4,-7.6293945E-5,-6.5612793E-4,115.0,3.7813437,-0.5752352,9.030002,0.003935337,-0.0020298362,0.009887695,-0.16723566,-0.10784379,-0.7343606,2017-07-17 16:14:40,-Infinity
3.8424072,-0.5817261,9.1910095,5.0354004E-4,-7.6293945E-5,-7.6293945E-5,112.0,3.780538,-0.57450026,9.030386,-0.003891468,1.2594461E-4,-0.005261421,-0.1671725,-0.10785091,-0.7343396,2017-07-17 16:14:41,-Infinity
3.8425293,-0.5854187,9.180191,5.493164E-4,-4.7302246E-4,-6.5612793E-4,115.0,3.784481,-0.5740733,9.028761,-0.0034706593,-0.005566776,-0.003645897,-0.1673241,-0.108019024,-0.73431575,2017-07-17 16:14:42,-Infinity
3.8518372,-0.5923004,9.193649,0.0010681152,-7.9345703E-4,-6.5612793E-4,115.0,3.782891,-0.5758347,9.029316,0.0030169487,-0.0059981346,0.003604889,-0.16730683,-0.1078554,-0.7343763,2017-07-17 16:14:43,-Infinity
3.8491364,-0.5896759,9.208038,-1.373291E-4,-7.6293945E-5,-6.5612793E-4,116.0,3.781052,-0.5749954,9.030139,-0.0025455952,-0.005665779,-0.0047063828,-0.16721386,-0.107845135,-0.7343538,2017-07-17 16:14:44,-Infinity
3.852066,-0.5851593,9.179047,-1.2207031E-4,-1.0681152E-4,6.1035156E-5,114.0,3.7809067,-0.5716748,9.030411,0.0010108948,5.723238E-4,-0.0032567978,-0.16707504,-0.10799595,-0.73425364,2017-07-17 16:14:45,-Infinity
3.8453827,-0.5908966,9.196518,6.866455E-4,-2.1362305E-4,-5.340576E-4,115.0,3.7794666,-0.57526726,9.030786,0.0011737347,-0.003955364,0.011364937,-0.16713548,-0.10775452,-0.73436755,2017-07-17 16:14:46,-Infinity
3.8486328,-0.57662964,9.203262,0.0010681152,-2.4414063E-4,-6.5612793E-4,111.0,3.7799578,-0.574671,9.030618,-0.0030782223,-0.009332597,0.0038204193,-0.16710444,-0.107865736,-0.7343142,2017-07-17 16:14:47,-Infinity
3.8503876,-0.5756378,9.189392,5.340576E-4,4.5776367E-4,-6.5612793E-4,116.0,3.7801416,-0.574112,9.030577,0.0026929379,0.007398367,-0.0024757385,-0.16714035,-0.107855655,-0.7343285,2017-07-17 16:14:48,-Infinity
3.8455505,-0.58029175,9.181122,7.7819824E-4,-3.0517578E-4,6.1035156E-5,114.0,3.7798378,-0.5738531,9.03072,-0.008797407,0.002090454,-0.0028533936,-0.16711728,-0.107857496,-0.7343212,2017-07-17 16:14:49,-Infinity
3.8400116,-0.59173584,9.187851,7.9345703E-4,-7.6293945E-5,5.79834E-4,114.0,3.7789993,-0.57108796,9.031246,-0.009604454,-0.0013365746,-0.008167267,-0.16697161,-0.10795868,-0.7342389,2017-07-17 16:14:50,-Infinity
3.8523102,-0.5788574,9.192429,-1.373291E-4,-7.6293945E-5,-3.3569336E-4,111.0,3.7837696,-0.57158834,9.029217,-2.5749207E-5,0.0038874745,-0.0016994476,-0.16718882,-0.10808494,-0.7342506,2017-07-17 16:14:51,-Infinity
3.847412,-0.58592224,9.189041,-1.373291E-4,-2.2888184E-4,4.272461E-4,114.0,3.7830706,-0.5723412,9.029462,-0.004295349,-0.0053262115,0.0044784546,-0.16719241,-0.10803819,-0.73427033,2017-07-17 16:14:52,-Infinity
3.8432922,-0.58847046,9.183777,5.493164E-4,-7.6293945E-5,-4.7302246E-4,117.0,3.7808025,-0.5736155,9.030332,-6.837845E-4,-0.0060227513,0.002354622,-0.16714823,-0.10790139,-0.7343125,2017-07-17 16:14:53,-Infinity
3.8554993,-0.57943726,9.197968,-4.5776367E-5,-7.6293945E-5,-2.2888184E-4,112.0,3.7843626,-0.5707747,9.02902,0.0033285618,2.8824806E-4,0.010497093,-0.16715549,-0.10816924,-0.7342073,2017-07-17 16:14:54,-Infinity
3.8481903,-0.5819092,9.196671,0.0010681152,-7.6293945E-5,6.1035156E-5,115.0,3.7810974,-0.57106805,9.03037,0.0010597706,-0.004728675,0.004261017,-0.16706596,-0.10802477,-0.73423946,2017-07-17 16:14:55,-Infinity
3.8436737,-0.58322144,9.188202,0.0010681152,-7.6293945E-5,-6.5612793E-4,112.0,3.7815597,-0.5730342,9.030051,2.245903E-4,7.748604E-4,-0.0014066696,-0.16719949,-0.10794462,-0.73430985,2017-07-17 16:14:56,-Infinity
3.85466,-0.5877075,9.193756,0.0010681152,-7.6293945E-5,5.79834E-4,112.0,3.7826195,-0.5737448,9.029562,0.0015220642,-0.0025882125,0.0042905807,-0.16721638,-0.10797119,-0.7343041,2017-07-17 16:14:57,-Infinity
3.8507996,-0.5827484,9.189316,2.2888184E-4,-7.6293945E-5,-6.5612793E-4,117.0,3.781863,-0.5708916,9.03006,0.0032680035,-0.0046725273,0.002439499,-0.1670965,-0.10807295,-0.7342289,2017-07-17 16:14:58,-Infinity
3.8476715,-0.58525085,9.183014,2.4414063E-4,-7.6293945E-5,-6.5612793E-4,114.0,3.7832158,-0.5724882,9.029392,-0.004429579,-0.0029369593,-0.001947403,-0.16720438,-0.10803622,-0.73427457,2017-07-17 16:14:59,-Infinity
3.845169,-0.5923462,9.197723,-3.0517578E-5,-3.5095215E-4,-1.9836426E-4,112.0,3.7802389,-0.57178193,9.0306835,-0.0012457371,-0.0044840574,0.010570526,-0.16706201,-0.10799531,-0.7342501,2017-07-17 16:15:00,-Infinity
3.854065,-0.5804901,9.19162,-2.89917E-4,1.5258789E-4,-1.9836426E-4,115.0,3.7791553,-0.5766646,9.030827,0.0037999153,9.3871355E-4,0.004590988,-0.16723554,-0.107711434,-0.7344135,2017-07-17 16:15:01,-Infinity
3.8399963,-0.580719,9.176498,6.713867E-4,1.2207031E-4,-1.9836426E-4,114.0,3.7810025,-0.5729634,9.030289,-0.008470535,-6.0606E-4,-0.011036873,-0.16714914,-0.10791745,-0.7343063,2017-07-17 16:15:02,-Infinity
3.848053,-0.58717346,9.188095,1.2207031E-4,1.5258789E-4,-1.9836426E-4,116.0,3.7820096,-0.574975,9.029739,4.582405E-4,-0.0031430125,-0.006023407,-0.1672532,-0.107878596,-0.73435163,2017-07-17 16:15:03,-Infinity
3.8542938,-0.5847931,9.188217,-3.6621094E-4,-7.171631E-4,-1.9836426E-4,113.0,3.7810087,-0.57635313,9.03007,0.0021541119,-0.0010089874,0.0047159195,-0.1672663,-0.10777997,-0.73439485,2017-07-17 16:15:04,-Infinity
3.854416,-0.57951355,9.19664,-4.119873E-4,3.0517578E-5,-3.2043457E-4,118.0,3.7797573,-0.5777831,9.030503,0.0024192333,0.0022818446,0.008090019,-0.16727093,-0.107670404,-0.73444,2017-07-17 16:15:05,-Infinity
3.8387604,-0.5847168,9.187744,3.6621094E-4,1.5258789E-4,-1.9836426E-4,117.0,3.782252,-0.575087,9.029631,-0.0066404343,0.003363669,-0.00669384,-0.1672554,-0.10787931,-0.734352,2017-07-17 16:15:07,-Infinity
3.843628,-0.5842438,9.188461,6.713867E-4,1.5258789E-4,-1.373291E-4,117.0,3.781275,-0.57289,9.03018,-0.002359867,0.0017341375,-0.0054807663,-0.16716969,-0.107954435,-0.7342974,2017-07-17 16:15:07,-Infinity
3.8482208,-0.5831909,9.190094,2.4414063E-4,1.5258789E-4,-1.9836426E-4,118.0,3.7819479,-0.5717145,9.029972,-0.0032393932,-0.0017955899,-0.004371643,-0.16712637,-0.10803987,-0.7342507,2017-07-17 16:15:08,-Infinity
3.8538513,-0.5819855,9.187805,-3.3569336E-4,8.392334E-4,-1.9836426E-4,117.0,3.7801268,-0.5745484,9.030555,0.0055816174,0.005731821,-6.7806244E-4,-0.16715878,-0.10784823,-0.73433673,2017-07-17 16:15:10,-Infinity
3.8551483,-0.58380127,9.185364,1.5258789E-4,1.5258789E-4,-1.9836426E-4,117.0,3.7802734,-0.57491034,9.030471,0.0038774014,0.0047138333,-0.0020723343,-0.16717778,-0.10782269,-0.7343524,2017-07-17 16:15:11,-Infinity
3.8461761,-0.59080505,9.183548,1.5258789E-4,1.5258789E-4,-1.9836426E-4,112.0,3.7818074,-0.5744817,9.029856,-0.003298521,-0.005479932,0.0038995743,-0.16722499,-0.107894875,-0.7343371,2017-07-17 16:15:12,-Infinity
3.849411,-0.5882416,9.186905,-4.4250488E-4,1.5258789E-4,-1.9836426E-4,115.0,3.7810237,-0.5760356,9.030085,0.003465414,-0.006678462,0.0072221756,-0.16723256,-0.10777831,-0.73438585,2017-07-17 16:15:13,-Infinity
3.8424225,-0.58535767,9.183548,6.713867E-4,1.5258789E-4,2.746582E-4,114.0,3.78047,-0.5722335,9.030559,-7.097721E-4,3.6787987E-4,-0.004351616,-0.16709283,-0.107937075,-0.7342823,2017-07-17 16:15:14,-Infinity
3.852127,-0.5766754,9.181717,3.9672852E-4,1.5258789E-4,7.9345703E-4,112.0,3.77936,-0.5747,9.030867,0.0034208298,0.007278621,-0.002234459,-0.16713108,-0.10780154,-0.7343475,2017-07-17 16:15:15,-Infinity
3.8424225,-0.5901489,9.195236,-3.0517578E-5,1.5258789E-4,-1.9836426E-4,115.0,3.7799048,-0.5779205,9.030433,-0.0017707348,-0.0029156804,0.0056238174,-0.1672826,-0.10766897,-0.73444396,2017-07-17 16:15:16,-Infinity
3.8444977,-0.5853424,9.181946,-5.340576E-4,1.5258789E-4,4.272461E-4,116.0,3.7829866,-0.5749873,9.029329,-0.0050120354,9.3215704E-4,-0.0020980835,-0.16729467,-0.10791119,-0.7343505,2017-07-17 16:15:17,-Infinity
3.845581,-0.58425903,9.19812,-3.0517578E-5,1.5258789E-4,1.2207031E-4,116.0,3.7803528,-0.57493454,9.030436,-0.0026819706,0.0015262961,0.0071935654,-0.16719545,-0.10789057,-0.7343303,2017-07-17 16:15:18,-Infinity
3.84581,-0.58906555,9.183548,6.713867E-4,-3.8146973E-4,-1.9836426E-4,119.0,3.782961,-0.5739391,9.029407,-0.008911133,-0.005820632,0.0045175552,-0.16725169,-0.1079595,-0.73431885,2017-07-17 16:15:19,-Infinity
3.847763,-0.5893097,9.1857605,-5.340576E-4,1.5258789E-4,-1.373291E-4,116.0,3.7803054,-0.57442033,9.030488,-0.004045725,-0.012229979,0.0011138916,-0.16711329,-0.10793558,-0.73428875,2017-07-17 16:15:20,-Infinity
3.8513184,-0.5845642,9.189896,-4.272461E-4,4.5776367E-5,2.1362305E-4,119.0,3.7818341,-0.5730966,9.029932,3.4332275E-4,5.440712E-4,-0.0033903122,-0.16717076,-0.10796076,-0.7342951,2017-07-17 16:15:21,-Infinity
3.8433685,-0.58558655,9.180603,-5.340576E-4,-3.0517578E-5,-1.9836426E-4,115.0,3.782721,-0.57505,9.029437,-5.078316E-4,-0.0057044625,0.002117157,-0.16728602,-0.107899226,-0.7343528,2017-07-17 16:15:22,-Infinity
3.8498383,-0.5838928,9.1918335,5.187988E-4,-5.645752E-4,8.8500977E-4,116.0,3.779937,-0.5752779,9.030588,0.004076481,0.0028480291,0.0013217926,-0.16715506,-0.10778365,-0.7343615,2017-07-17 16:15:23,-Infinity
3.8427887,-0.58566284,9.19043,6.713867E-4,1.5258789E-4,0.0010375977,113.0,3.7785604,-0.5726441,9.031331,-0.00397563,-0.004115224,0.008098602,-0.16699499,-0.107848614,-0.73428965,2017-07-17 16:15:24,-Infinity
3.844345,-0.58750916,9.186493,6.713867E-4,1.5258789E-4,-1.9836426E-4,117.0,3.77985,-0.5749975,9.0306425,-0.0015745163,-0.005173743,0.006006241,-0.1671635,-0.107804224,-0.73435575,2017-07-17 16:15:25,-Infinity
3.8435974,-0.5860901,9.188202,6.713867E-4,3.9672852E-4,-1.9836426E-4,118.0,3.7782967,-0.57620984,9.031215,-0.0025503635,-8.727312E-4,0.008881569,-0.16719219,-0.10769357,-0.7344082,2017-07-17 16:15:26,-Infinity
3.8417816,-0.58036804,9.185806,-5.187988E-4,1.5258789E-4,0.0010223389,119.0,3.7788715,-0.57561874,9.031013,0.0018393993,0.005151093,-0.0026779175,-0.16713625,-0.10770482,-0.7343877,2017-07-17 16:15:27,-Infinity
3.848938,-0.5893707,9.18306,1.0681152E-4,1.5258789E-4,-1.9836426E-4,120.0,3.7787313,-0.57367986,9.031194,0.0020625591,-2.2560358E-4,-0.005331993,-0.16706397,-0.10782804,-0.73431766,2017-07-17 16:15:28,-Infinity
3.844635,-0.5800476,9.196381,6.713867E-4,1.5258789E-4,-1.9836426E-4,116.0,3.7798731,-0.5723134,9.030803,-9.920597E-4,0.001994729,0.002913475,-0.16705723,-0.1079309,-0.73427457,2017-07-17 16:15:29,-Infinity
3.8410034,-0.59277344,9.18132,6.713867E-4,1.5258789E-4,-1.9836426E-4,117.0,3.7787752,-0.57701796,9.030963,-0.004221678,-0.004901409,-0.0048923492,-0.16719916,-0.107672974,-0.73441845,2017-07-17 16:15:30,-Infinity
3.8404999,-0.5927429,9.189224,4.5776367E-4,-5.645752E-4,5.187988E-4,121.0,3.7769759,-0.57581735,9.031793,0.0018441677,-0.011043251,-0.004901886,-0.16706692,-0.10768976,-0.7343738,2017-07-17 16:15:31,-Infinity
3.84198,-0.5856018,9.1835785,-2.89917E-4,1.5258789E-4,7.6293945E-4,120.0,3.7769003,-0.5751022,9.03187,0.002070427,-2.117157E-4,0.003622055,-0.167044,-0.10769917,-0.7343635,2017-07-17 16:15:32,-Infinity
3.851715,-0.58154297,9.189423,7.6293945E-4,1.5258789E-4,-1.9836426E-4,115.0,3.7803953,-0.5746529,9.030436,0.0033230782,0.009432614,-0.009868622,-0.1671374,-0.10793269,-0.73429686,2017-07-17 16:15:33,-Infinity
3.8398285,-0.58677673,9.171265,6.713867E-4,-1.8310547E-4,-1.9836426E-4,116.0,3.7817013,-0.573316,9.029974,-6.432533E-4,-0.0032215714,-0.0020980835,-0.16717395,-0.10794596,-0.734302,2017-07-17 16:15:34,-Infinity
3.841507,-0.58891296,9.177139,-5.340576E-4,1.5258789E-4,-1.9836426E-4,115.0,3.7835119,-0.57369053,9.029192,0.0032448769,-0.001925528,-0.002026558,-0.16726486,-0.10798986,-0.73431045,2017-07-17 16:15:35,-Infinity
3.851715,-0.5800476,9.18428,6.713867E-4,-5.645752E-4,-1.9836426E-4,119.0,3.7807853,-0.57201403,9.03044,0.0032629967,0.0020746589,0.005206108,-0.1670835,-0.107975915,-0.7342641,2017-07-17 16:15:36,-Infinity
3.84581,-0.5885315,9.174469,-3.0517578E-5,1.5258789E-4,7.6293945E-5,120.0,3.7811978,-0.5707519,9.030347,0.0062212944,-4.54247E-4,8.3065033E-4,-0.16705035,-0.108049124,-0.7342253,2017-07-17 16:15:37,-Infinity
3.8373566,-0.5782623,9.1770935,6.713867E-4,-5.645752E-4,-8.8500977E-4,118.0,3.779881,-0.57202864,9.030818,-0.0069901943,-0.0030580163,-0.005882263,-0.16703506,-0.10793371,-0.7342671,2017-07-17 16:15:38,-Infinity
3.8450165,-0.5832825,9.185654,6.713867E-4,1.5258789E-4,-1.9836426E-4,117.0,3.778334,-0.5733218,9.0313835,5.0902367E-4,-3.4332275E-5,-9.937286E-4,-0.16702326,-0.107842326,-0.73430026,2017-07-17 16:15:39,-Infinity
3.8423615,-0.5842285,9.184799,-3.6621094E-4,1.5258789E-4,0.0010375977,119.0,3.778082,-0.57204014,9.0315695,1.0704994E-4,0.0048589706,-0.009222031,-0.1669712,-0.10788288,-0.73426914,2017-07-17 16:15:40,-Infinity
3.8468933,-0.5870819,9.186188,-5.340576E-4,-4.8828125E-4,-1.9836426E-4,118.0,3.7790077,-0.5721661,9.031175,0.005128145,1.6820431E-4,-6.198883E-5,-0.16701505,-0.10790841,-0.73427147,2017-07-17 16:15:41,-Infinity
3.8508759,-0.578949,9.189697,-2.2888184E-4,1.5258789E-4,-8.8500977E-4,116.0,3.77796,-0.57161736,9.031648,0.003131628,0.002606392,-0.003235817,-0.1669492,-0.107898556,-0.73425657,2017-07-17 16:15:42,-Infinity
3.8412933,-0.58932495,9.185745,-4.5776367E-5,1.5258789E-4,5.187988E-4,118.0,3.776384,-0.5736264,9.032179,-0.0025925636,7.2717667E-6,-0.001042366,-0.16696341,-0.10775085,-0.73431975,2017-07-17 16:15:43,-Infinity
3.8371124,-0.5909424,9.189362,-2.89917E-4,1.5258789E-4,6.1035156E-5,118.0,3.7779884,-0.57583946,9.031367,-0.0019414425,-0.005191207,-0.0043678284,-0.1671191,-0.10770154,-0.73438406,2017-07-17 16:15:44,-Infinity
3.841217,-0.577652,9.204193,6.4086914E-4,-3.5095215E-4,5.340576E-4,121.0,3.7764468,-0.573383,9.032168,-0.006625414,-0.0010704398,0.0013189316,-0.1669563,-0.107764386,-0.7343123,2017-07-17 16:15:45,-Infinity
3.8458252,-0.58439636,9.196655,3.0517578E-5,1.5258789E-4,-1.9836426E-4,118.0,3.7761617,-0.5735335,9.032278,0.0037879944,0.0050892234,0.0027389526,-0.16695037,-0.10774765,-0.7343173,2017-07-17 16:15:46,-Infinity
3.8452148,-0.5912018,9.200424,5.0354004E-4,1.5258789E-4,-3.6621094E-4,120.0,3.7755911,-0.5727365,9.032567,-0.00101161,-0.01002264,0.00458622,-0.16689637,-0.107754484,-0.73429906,2017-07-17 16:15:47,-Infinity
3.8480988,-0.5801544,9.190002,2.746582E-4,-5.645752E-4,-5.950928E-4,116.0,3.782166,-0.57032233,9.029969,-0.007825851,-6.4593554E-4,-7.696152E-4,-0.16706991,-0.108033836,-0.73423696,2017-07-17 16:15:48,-Infinity
3.857788,-0.58180237,9.188065,-9.1552734E-5,7.6293945E-5,5.187988E-4,118.0,3.7832088,-0.57219553,9.029413,0.005762577,0.0036802292,-0.005842209,-0.1671924,-0.10804971,-0.73426574,2017-07-17 16:15:49,-Infinity
3.8596191,-0.5801544,9.178894,6.713867E-4,-5.645752E-4,-1.9836426E-4,117.0,3.785315,-0.5695838,9.028696,0.0019423962,-0.0064077377,0.0022592545,-0.16717419,-0.108314596,-0.73415434,2017-07-17 16:15:50,-Infinity
3.8486633,-0.5851135,9.179993,1.6784668E-4,1.5258789E-4,-1.9836426E-4,116.0,3.786069,-0.56993484,9.0283575,0.0021531582,-0.0034688711,-0.008552551,-0.16720048,-0.10825976,-0.73418385,2017-07-17 16:15:51,-Infinity
3.8515167,-0.58081055,9.184128,5.340576E-4,2.746582E-4,-1.9836426E-4,118.0,3.7837317,-0.57145095,9.029242,5.1760674E-4,-0.0013299584,-0.007680893,-0.16718455,-0.108102396,-0.7342424,2017-07-17 16:15:52,-Infinity
3.853897,-0.57632446,9.194824,6.713867E-4,-5.645752E-4,-1.9836426E-4,117.0,3.7836578,-0.56979185,9.029378,0.0014104843,-0.002354741,0.011940002,-0.16711509,-0.10817771,-0.7341923,2017-07-17 16:15:53,-Infinity
3.8432617,-0.58122253,9.183533,6.713867E-4,-5.493164E-4,5.187988E-4,118.0,3.7835994,-0.57044774,9.029361,-0.0017838478,-3.3426285E-4,-0.003730774,-0.16716072,-0.10814941,-0.7342167,2017-07-17 16:15:54,-Infinity
3.8486938,-0.58247375,9.187576,2.1362305E-4,1.5258789E-4,-1.9836426E-4,119.0,3.7828734,-0.569783,9.029707,-9.0551376E-4,-0.0026492476,9.1552734E-5,-0.16708185,-0.10815148,-0.73419327,2017-07-17 16:15:55,-Infinity
3.8462067,-0.5789795,9.173721,3.9672852E-4,-7.9345703E-4,-1.9836426E-4,120.0,3.7841427,-0.5713423,9.029077,0.00590086,-2.5171041E-4,-0.00508976,-0.16719744,-0.108121455,-0.73423845,2017-07-17 16:15:56,-Infinity
3.8453522,-0.59384155,9.199585,5.79834E-4,-9.765625E-4,-1.9836426E-4,120.0,3.7850873,-0.5721946,9.028626,-0.008091688,-0.0069727898,0.0060806274,-0.16727114,-0.10811355,-0.7342627,2017-07-17 16:15:57,-Infinity
3.848587,-0.5858917,9.18811,3.3569336E-4,1.5258789E-4,-1.9836426E-4,119.0,3.7821853,-0.5705134,9.029949,-0.0055122375,-0.00606519,-8.869171E-4,-0.16708788,-0.10810551,-0.7342134,2017-07-17 16:15:58,-Infinity
3.840149,-0.58651733,9.182434,6.713867E-4,1.5258789E-4,-1.9836426E-4,120.0,3.78192,-0.5719143,9.029971,-0.00625062,-0.0053100586,-0.0047311783,-0.16715613,-0.10803533,-0.7342611,2017-07-17 16:15:59,-Infinity
3.8433228,-0.58755493,9.184799,-3.0517578E-5,-3.6621094E-4,-1.9836426E-4,120.0,3.7834404,-0.57051337,9.029423,-0.006403923,-0.004601896,-0.0021772385,-0.16713484,-0.10813648,-0.7342145,2017-07-17 16:16:00,-Infinity
3.8491821,-0.59243774,9.205292,1.9836426E-4,-3.2043457E-4,4.5776367E-5,119.0,3.784283,-0.5743771,9.028825,-0.0029742718,-0.009465098,-6.8950653E-4,-0.16731814,-0.107983135,-0.73432845,2017-07-17 16:16:01,-Infinity
3.8481598,-0.5864258,9.192993,1.9836426E-4,2.1362305E-4,-3.0517578E-5,121.0,3.7826242,-0.5744025,9.029518,0.0013604164,-0.002152145,0.00244236,-0.16725565,-0.10793411,-0.7343302,2017-07-17 16:16:02,-Infinity
3.8513641,-0.58125305,9.184769,1.9836426E-4,-9.1552734E-5,-3.0517578E-5,118.0,3.785462,-0.5716281,9.028505,0.005824566,0.005951822,0.0012712479,-0.1672761,-0.10815264,-0.7342485,2017-07-17 16:16:03,-Infinity
3.8460388,-0.5849457,9.191528,-5.0354004E-4,-1.5258789E-4,-3.0517578E-5,122.0,3.784019,-0.573932,9.028964,-0.0014674664,8.3732605E-4,-8.420944E-4,-0.16729578,-0.107995756,-0.734317,2017-07-17 16:16:04,-Infinity
3.848938,-0.5897827,9.196732,-8.392334E-4,2.1362305E-4,-3.0517578E-5,120.0,3.783578,-0.5748408,9.029091,-0.002225399,-0.0064970255,0.006181717,-0.16729765,-0.10797287,-0.73432666,2017-07-17 16:16:05,-Infinity
3.8484802,-0.5878296,9.193237,1.9836426E-4,-3.2043457E-4,-3.0517578E-5,119.0,3.7820258,-0.57430524,9.029776,-0.0022935867,-1.9365549E-4,0.0022354126,-0.16722709,-0.107910566,-0.73433137,2017-07-17 16:16:06,-Infinity
3.850235,-0.58143616,9.186539,-5.340576E-4,2.1362305E-4,-3.0517578E-5,121.0,3.7826731,-0.57519966,9.029448,8.432865E-4,-3.1852722E-4,-0.0025930405,-0.16727385,-0.10790422,-0.73434734,2017-07-17 16:16:07,-Infinity
3.851303,-0.5807495,9.190903,1.2207031E-4,-5.0354004E-4,-3.0517578E-5,121.0,3.7824872,-0.5764776,9.029444,-0.0015227795,0.0010256767,-2.1648407E-4,-0.16733326,-0.10782431,-0.73439634,2017-07-17 16:16:08,-Infinity
3.8459625,-0.5726166,9.184097,1.8310547E-4,1.9836426E-4,4.7302246E-4,121.0,3.7819662,-0.57248265,9.029916,0.0028653145,0.003790319,-0.0040769577,-0.16715175,-0.10799404,-0.73427635,2017-07-17 16:16:09,-Infinity
3.8545074,-0.5827484,9.177231,1.9836426E-4,-3.8146973E-4,-6.1035156E-4,120.0,3.785293,-0.57431656,9.028405,0.0066320896,0.007869065,-0.0071878433,-0.1673646,-0.10802097,-0.7343266,2017-07-17 16:16:10,-Infinity
3.84581,-0.5895996,9.183945,1.9836426E-4,6.1035156E-5,-3.0517578E-5,119.0,3.7858853,-0.5777939,9.027935,3.771782E-4,-0.0026273727,-0.0030202866,-0.16755968,-0.107901365,-0.73443043,2017-07-17 16:16:11,-Infinity
3.8455048,-0.5880432,9.185547,-2.1362305E-4,2.1362305E-4,-3.0517578E-5,119.0,3.7854176,-0.5751654,9.028299,-6.787777E-4,0.0017684698,-0.006222725,-0.16740376,-0.10798536,-0.7343521,2017-07-17 16:16:12,-Infinity
3.8415222,-0.5874481,9.180725,1.9836426E-4,-7.7819824E-4,-3.0517578E-5,122.0,3.7835248,-0.57462746,9.029127,-0.004691839,1.3709068E-6,2.2888184E-5,-0.16736424,-0.10794341,-0.73435754,2017-07-17 16:16:13,-Infinity
3.8452454,-0.5870819,9.185928,1.9836426E-4,-5.0354004E-4,-3.0517578E-5,121.0,3.781815,-0.57588565,9.029763,-0.0089588165,0.005298853,-0.006546974,-0.16728142,-0.107829265,-0.7343795,2017-07-17 16:16:14,-Infinity
3.8467865,-0.58714294,9.184509,1.9836426E-4,-4.8828125E-4,6.866455E-4,119.0,3.7806346,-0.57403404,9.0303755,2.2125244E-4,-0.005325973,-0.0062847137,-0.16715792,-0.107876055,-0.73432535,2017-07-17 16:16:15,-Infinity
3.8502655,-0.5813446,9.188293,-5.0354004E-4,2.1362305E-4,-3.0517578E-5,121.0,3.7816079,-0.57426405,9.029953,-0.0058972836,0.003524065,0.0024166107,-0.16718122,-0.107872255,-0.7343336,2017-07-17 16:16:16,-Infinity
3.8467865,-0.5764923,9.187759,1.9836426E-4,-4.272461E-4,-3.0517578E-5,119.0,3.7807548,-0.5738113,9.030339,-0.0013651848,0.005263567,-0.009720802,-0.16713235,-0.10787854,-0.73431706,2017-07-17 16:16:17,-Infinity
3.851242,-0.5804138,9.184753,-1.2207031E-4,2.1362305E-4,-3.5095215E-4,125.0,3.7822158,-0.5734656,9.029749,-6.594658E-4,-3.1113625E-4,-0.0029287338,-0.1671794,-0.10790463,-0.7343201,2017-07-17 16:16:18,-Infinity
3.8513336,-0.585495,9.200851,-5.0354004E-4,2.1362305E-4,-3.0517578E-5,120.0,3.7808144,-0.57498455,9.030239,-0.0011837482,0.0013710856,0.007291794,-0.16720346,-0.10783758,-0.73435384,2017-07-17 16:16:19,-Infinity
3.8492126,-0.5867157,9.197067,-5.0354004E-4,2.1362305E-4,3.0517578E-5,122.0,3.7818027,-0.5737524,9.029904,-0.0013494492,0.0012170076,0.0022554398,-0.16720872,-0.10795224,-0.73430943,2017-07-17 16:16:20,-Infinity
3.840561,-0.58277893,9.183792,-1.5258789E-5,-1.5258789E-5,-3.0517578E-5,121.0,3.7788997,-0.57348496,9.0311365,-0.00253582,3.029108E-4,-0.002494812,-0.1670695,-0.10783197,-0.73431766,2017-07-17 16:16:21,-Infinity
3.8452148,-0.59077454,9.1914215,1.9836426E-4,2.1362305E-4,-3.0517578E-5,122.0,3.780352,-0.57307374,9.030555,0.0046885014,-0.004586637,0.00395298,-0.16710874,-0.10795024,-0.7342816,2017-07-17 16:16:22,-Infinity
3.8450775,-0.58114624,9.189407,-0.0010070801,2.1362305E-4,-3.0517578E-5,123.0,3.7782452,-0.5760609,9.031246,-0.0048639774,0.0040540695,0.0010557175,-0.1671387,-0.10769987,-0.7343904,2017-07-17 16:16:23,-Infinity
3.8456726,-0.57876587,9.182968,-1.5258789E-5,-3.2043457E-4,-3.0517578E-5,122.0,3.7803934,-0.5717627,9.030621,-0.0012359619,-0.0012485385,9.717941E-4,-0.16705701,-0.10797439,-0.7342571,2017-07-17 16:16:24,-Infinity
3.844162,-0.58203125,9.194809,1.9836426E-4,2.1362305E-4,-3.0517578E-5,123.0,3.7798204,-0.57170105,9.030864,-1.4138222E-4,1.9156933E-4,0.0025186539,-0.16702035,-0.10796139,-0.7342518,2017-07-17 16:16:25,-Infinity
3.844818,-0.5818939,9.19487,-4.5776367E-5,-5.0354004E-4,-3.0517578E-5,123.0,3.7791474,-0.574408,9.030973,0.006622076,0.010099232,-0.004424095,-0.1671105,-0.10780802,-0.734339,2017-07-17 16:16:26,-Infinity
3.8472443,-0.5771942,9.180206,1.9836426E-4,-5.0354004E-4,-3.0517578E-5,121.0,3.7813594,-0.5717565,9.030216,5.145073E-4,8.3363056E-4,-0.008037567,-0.16709727,-0.10800749,-0.7342554,2017-07-17 16:16:27,-Infinity
3.843567,-0.5836334,9.189911,1.9836426E-4,2.1362305E-4,1.0681152E-4,121.0,3.780608,-0.5724415,9.030487,-0.0040643215,-9.4395876E-4,-0.0019702911,-0.16709435,-0.10798047,-0.7342654,2017-07-17 16:16:28,-Infinity
3.8516388,-0.58099365,9.186493,1.9836426E-4,2.1362305E-4,-3.0517578E-5,121.0,3.7826393,-0.57123905,9.029713,0.0012235641,-0.0044971704,0.013495445,-0.16713026,-0.10807523,-0.7342377,2017-07-17 16:16:29,-Infinity
3.8523407,-0.5851288,9.184952,1.9836426E-4,2.1362305E-4,-3.0517578E-5,123.0,3.7834287,-0.5707161,9.029415,0.0033209324,6.8861246E-4,2.155304E-4,-0.16714245,-0.10812658,-0.7342206,2017-07-17 16:16:30,-Infinity
3.8483124,-0.5843506,9.179123,2.4414063E-4,-7.6293945E-5,-3.0517578E-5,123.0,3.7806988,-0.5702469,9.030588,0.005074501,5.428195E-4,-0.0109500885,-0.1670354,-0.10807135,-0.73421204,2017-07-17 16:16:31,-Infinity
3.8436737,-0.5869446,9.198944,1.9836426E-4,-2.593994E-4,-4.8828125E-4,121.0,3.7803483,-0.5705909,9.030713,8.1562996E-4,-0.0046646595,0.012537003,-0.1670083,-0.108027816,-0.73422176,2017-07-17 16:16:32,-Infinity
3.8391876,-0.58296204,9.195877,1.9836426E-4,-2.1362305E-4,-3.0517578E-5,122.0,3.7810576,-0.57235414,9.030305,-0.009118557,-0.0043963194,1.487732E-4,-0.16707592,-0.10798421,-0.7342586,2017-07-17 16:16:33,-Infinity
3.8551788,-0.5717621,9.195572,1.9836426E-4,2.1362305E-4,-3.0517578E-5,125.0,3.7799063,-0.5729911,9.030746,0.0024425983,0.010566711,0.008983612,-0.16707893,-0.10797146,-0.73426455,2017-07-17 16:16:34,-Infinity
3.849884,-0.5851898,9.196686,-6.2561035E-4,-1.8310547E-4,-3.0517578E-5,124.0,3.7826915,-0.571047,9.029703,-2.2268295E-4,-0.0024328232,0.008700371,-0.16712476,-0.10808601,-0.7342318,2017-07-17 16:16:35,-Infinity
3.8455505,-0.5840149,9.186035,1.9836426E-4,2.1362305E-4,-3.0517578E-5,124.0,3.7801914,-0.5739546,9.030565,0.0018014908,-0.0037241578,-0.0026016235,-0.16711691,-0.107904956,-0.73430204,2017-07-17 16:16:36,-Infinity
3.844818,-0.58529663,9.196518,1.9836426E-4,2.1362305E-4,-1.0681152E-4,125.0,3.7796047,-0.572835,9.030883,-0.0059239864,-0.0052966475,1.3160706E-4,-0.16708383,-0.107875556,-0.73430437,2017-07-17 16:16:37,-Infinity
3.8449402,-0.5890808,9.202011,-5.645752E-4,9.0026855E-4,-3.0517578E-5,123.0,3.7783298,-0.5741021,9.031336,0.0031678677,-0.008214414,0.012032509,-0.16706398,-0.107794605,-0.7343311,2017-07-17 16:16:38,-Infinity
3.8482666,-0.5747528,9.186813,-1.5258789E-5,2.1362305E-4,-3.0517578E-5,125.0,3.7794778,-0.57229954,9.03097,0.0026011467,0.009692609,0.0032444,-0.16704008,-0.10791812,-0.73427474,2017-07-17 16:16:39,-Infinity
3.8531342,-0.57844543,9.194519,-6.5612793E-4,2.1362305E-4,-3.0517578E-5,121.0,3.7818785,-0.5697981,9.030123,0.005194187,0.009859383,0.0036439896,-0.16704074,-0.10811697,-0.7341953,2017-07-17 16:16:40,-Infinity
3.8465424,-0.58410645,9.184647,3.6621094E-4,2.1362305E-4,-3.0517578E-5,126.0,3.7807436,-0.56984156,9.030595,0.0012910366,-0.0030350685,-0.001994133,-0.16698489,-0.108050674,-0.73420584,2017-07-17 16:16:41,-Infinity
3.8449554,-0.58169556,9.198639,-5.0354004E-4,-1.9836426E-4,-3.0517578E-5,125.0,3.780944,-0.5717821,9.030389,-0.0032424927,8.356571E-5,0.006324768,-0.16708088,-0.10799218,-0.7342568,2017-07-17 16:16:42,-Infinity
3.8468475,-0.5845947,9.187912,1.9836426E-4,2.1362305E-4,-3.0517578E-5,127.0,3.780609,-0.57001805,9.030641,-0.00192976,-0.0036352277,0.0032691956,-0.16698901,-0.10803641,-0.73421276,2017-07-17 16:16:43,-Infinity
3.849823,-0.57702637,9.193832,-2.2888184E-4,1.2207031E-4,-3.0517578E-5,123.0,3.7817252,-0.5717258,9.030065,0.0037038326,0.0010806918,0.006422043,-0.1671114,-0.108021356,-0.7342539,2017-07-17 16:16:44,-Infinity
3.8507233,-0.5765381,9.1901245,1.9836426E-4,-7.019043E-4,-2.2888184E-4,125.0,3.7810888,-0.5699076,9.030446,0.006471634,-3.5250187E-4,5.8174133E-5,-0.16701202,-0.108085014,-0.7341999,2017-07-17 16:16:45,-Infinity
3.840805,-0.578537,9.198288,1.9836426E-4,-8.8500977E-4,-1.6784668E-4,125.0,3.7799444,-0.5700889,9.030914,-0.0068297386,0.003322363,0.0036268234,-0.16696428,-0.1080048,-0.73421836,2017-07-17 16:16:46,-Infinity
3.8375702,-0.57884216,9.18895,1.9836426E-4,2.1362305E-4,-1.6784668E-4,125.0,3.7817056,-0.5679234,9.0303135,-0.014457703,-0.0016556978,-0.010100365,-0.16695853,-0.10819901,-0.73413885,2017-07-17 16:16:47,-Infinity
3.83609,-0.58465576,9.191559,-9.1552734E-4,2.1362305E-4,-3.0517578E-5,126.0,3.778056,-0.56991607,9.031715,-0.0073485374,-0.004918039,-0.0011348724,-0.1668852,-0.10798158,-0.73420495,2017-07-17 16:16:48,-Infinity
3.8462067,-0.5784149,9.190582,1.9836426E-4,2.1362305E-4,-7.171631E-4,126.0,3.7798574,-0.5695093,9.030987,0.0011603832,0.0069820285,0.0036592484,-0.16694447,-0.10806185,-0.7341898,2017-07-17 16:16:49,-Infinity
3.8440857,-0.574646,9.191757,1.9836426E-4,-2.593994E-4,-3.0517578E-5,125.0,3.7802188,-0.56868076,9.030888,-0.0016217232,0.0029740334,0.002811432,-0.1669265,-0.10811298,-0.7341642,2017-07-17 16:16:50,-Infinity
3.8435822,-0.58584595,9.184753,1.9836426E-4,2.1362305E-4,-3.0517578E-5,128.0,3.7808433,-0.5688018,9.030619,-0.003811121,-0.0069476366,-0.0012378693,-0.16695751,-0.10812852,-0.7341668,2017-07-17 16:16:51,-Infinity
3.838745,-0.58322144,9.19574,1.9836426E-4,2.1362305E-4,-6.1035156E-4,130.0,3.7789412,-0.5703818,9.031315,-0.0025804043,-0.005527556,-0.003189087,-0.16694094,-0.10798982,-0.73421764,2017-07-17 16:16:52,-Infinity
3.8526459,-0.5713806,9.18811,-5.0354004E-4,2.1362305E-4,-3.0517578E-5,126.0,3.77845,-0.5682631,9.031654,0.0059945583,0.004576087,0.0058345795,-0.16681333,-0.10803699,-0.73416215,2017-07-17 16:16:53,-Infinity
3.8413696,-0.5820465,9.189819,1.9836426E-4,2.1362305E-4,-5.340576E-4,126.0,3.781004,-0.571586,9.0303755,-0.008595228,-0.0035136342,-0.0071439743,-0.16705726,-0.10797294,-0.73425776,2017-07-17 16:16:54,-Infinity
3.8420563,-0.5867615,9.197845,1.9836426E-4,-7.4768066E-4,-0.0012359619,128.0,3.78117,-0.571281,9.030326,-0.0027503967,-0.004814863,0.0054559708,-0.16707031,-0.10802335,-0.7342413,2017-07-17 16:16:55,-Infinity
3.852707,-0.58335876,9.193924,1.9836426E-4,2.1362305E-4,-9.460449E-4,127.0,3.7814693,-0.5713876,9.030193,0.0036845207,-0.0054044127,0.0053014755,-0.16708714,-0.10802853,-0.73424405,2017-07-17 16:16:56,-Infinity
3.845398,-0.5890808,9.195892,1.9836426E-4,-6.1035156E-4,-3.0517578E-5,129.0,3.7834685,-0.5688432,9.029516,-0.006974697,-0.0041692257,-0.0020694733,-0.16706924,-0.10821578,-0.7341639,2017-07-17 16:16:57,-Infinity
3.8481903,-0.5883484,9.196945,3.0517578E-5,-8.544922E-4,6.866455E-4,129.0,3.7814882,-0.56959397,9.030299,-7.236004E-4,-0.0043097734,0.0014476776,-0.16701621,-0.10811328,-0.73418975,2017-07-17 16:16:58,-Infinity
3.8384857,-0.579895,9.182053,1.9836426E-4,-3.5095215E-4,-3.0517578E-5,130.0,3.7801158,-0.56918097,9.030899,-0.0021660328,-9.1552734E-4,-0.009293556,-0.16697341,-0.10811344,-0.7341774,2017-07-17 16:16:59,-Infinity
3.8456573,-0.5776825,9.192322,-1.2207031E-4,1.2207031E-4,-1.0681152E-4,128.0,3.781091,-0.5679938,9.030566,-0.0043985844,-0.008692622,-0.0060539246,-0.16693558,-0.10817482,-0.734142,2017-07-17 16:17:01,-Infinity
3.846634,-0.58628845,9.186478,9.1552734E-5,4.272461E-4,1.2207031E-4,130.0,3.7814498,-0.57042116,9.030263,-0.0073411465,-0.0039905906,-0.0015411377,-0.16704768,-0.10807319,-0.73421484,2017-07-17 16:17:01,-Infinity
3.838745,-0.5841675,9.178757,1.5258789E-5,4.272461E-4,-5.0354004E-4,128.0,3.77566,-0.56998694,9.032712,-0.0028195381,-0.0026968122,-0.009695053,-0.16680185,-0.10787037,-0.73422563,2017-07-17 16:17:02,-Infinity
3.8360596,-0.58273315,9.193512,-6.1035156E-4,1.0681152E-4,-5.0354004E-4,130.0,3.7766607,-0.568488,9.032389,5.5217743E-4,1.5318394E-5,0.0027589798,-0.16676964,-0.10800111,-0.73416406,2017-07-17 16:17:04,-Infinity
3.8479614,-0.58006287,9.19278,7.171631E-4,-7.9345703E-4,1.8310547E-4,127.0,3.778826,-0.5682961,9.031495,0.0010826588,-0.0038758516,0.008028984,-0.16683412,-0.108017154,-0.7341761,2017-07-17 16:17:05,-Infinity
3.8470764,-0.5714874,9.194382,7.9345703E-4,4.272461E-4,1.8310547E-4,128.0,3.778863,-0.56781584,9.031509,-3.8266182E-4,0.0072524548,0.004155159,-0.16684371,-0.108130455,-0.7341334,2017-07-17 16:17:06,-Infinity
3.8564606,-0.5771942,9.200211,5.187988E-4,-1.0681152E-4,-9.3078613E-4,130.0,3.7782986,-0.5675766,9.031761,0.008492231,0.0029556155,0.0022192001,-0.16680185,-0.10809949,-0.73413384,2017-07-17 16:17:07,-Infinity
3.846527,-0.5868988,9.19902,9.1552734E-5,-7.4768066E-4,-0.0010223389,134.0,3.7783854,-0.5681674,9.031688,-2.9468536E-4,-0.009461045,0.002122879,-0.16686578,-0.10804173,-0.7341753,2017-07-17 16:17:08,-Infinity
3.8471832,-0.5830078,9.193222,9.1552734E-5,-5.645752E-4,-7.324219E-4,132.0,3.7791085,-0.5700158,9.031268,-0.0012042522,-0.002976656,9.279251E-4,-0.16692297,-0.108001076,-0.734208,2017-07-17 16:17:09,-Infinity
3.841385,-0.57814026,9.188339,9.1552734E-5,-7.9345703E-4,-0.0010223389,130.0,3.7788384,-0.56997675,9.0313835,-0.0012967587,0.003161788,2.193451E-5,-0.16692044,-0.10800532,-0.73420554,2017-07-17 16:17:10,-Infinity
3.8393402,-0.5754547,9.193939,7.324219E-4,-2.1362305E-4,-4.4250488E-4,131.0,3.7790372,-0.5717388,9.031189,-0.0074312687,-0.0053718686,0.006565094,-0.1669992,-0.10792945,-0.73425853,2017-07-17 16:17:11,-Infinity
3.8398895,-0.5813141,9.201843,9.1552734E-5,-7.9345703E-4,-5.0354004E-4,130.0,3.7755208,-0.56874764,9.032848,-0.010103464,-0.0021460056,0.0079574585,-0.16674703,-0.107935086,-0.73418397,2017-07-17 16:17:12,-Infinity
3.8306732,-0.57263184,9.199219,9.1552734E-5,-7.6293945E-5,1.8310547E-4,134.0,3.775836,-0.5700109,9.032638,-0.01483202,0.004509032,0.008696556,-0.16669814,-0.10786692,-0.73419726,2017-07-17 16:17:13,-Infinity
3.8473053,-0.5726776,9.192902,-8.544922E-4,-5.493164E-4,-5.187988E-4,129.0,3.775358,-0.5691855,9.032889,0.0052940845,0.0041395426,0.011071205,-0.16674292,-0.107924156,-0.7341872,2017-07-17 16:17:14,-Infinity
3.8467712,-0.5783081,9.1839905,-6.1035156E-4,3.0517578E-4,-2.1362305E-4,130.0,3.7780733,-0.56830823,9.031809,0.0016810894,-0.0044320226,0.0028009415,-0.16682167,-0.10805754,-0.7341563,2017-07-17 16:17:15,-Infinity
3.8490295,-0.5896759,9.186951,9.1552734E-5,-2.89917E-4,1.8310547E-4,129.0,3.7786605,-0.56923527,9.031505,0.006690502,-0.0019540787,0.0019044876,-0.16688335,-0.10803404,-0.73418343,2017-07-17 16:17:16,-Infinity
3.8438263,-0.57847595,9.175568,9.1552734E-5,-7.9345703E-4,1.8310547E-4,132.0,3.7775552,-0.5701721,9.031908,-3.015995E-4,-6.878376E-5,-0.010061264,-0.16687445,-0.10795257,-0.73421353,2017-07-17 16:17:17,-Infinity
3.8417816,-0.5782318,9.187271,9.1552734E-5,3.0517578E-4,-3.2043457E-4,127.0,3.7776072,-0.5705308,9.031864,0.0031864643,0.0035287738,-0.0017471313,-0.16694301,-0.107951134,-0.73423374,2017-07-17 16:17:18,-Infinity
3.8403778,-0.5811157,9.188095,9.1552734E-5,-3.5095215E-4,1.8310547E-4,135.0,3.77699,-0.5692119,9.032206,4.2438507E-4,-0.0022386312,0.0041828156,-0.16681238,-0.10797837,-0.7341854,2017-07-17 16:17:19,-Infinity
3.84729,-0.57743835,9.189911,1.5258789E-5,4.272461E-4,-9.460449E-4,129.0,3.7751787,-0.57100636,9.032849,0.0020484924,-7.1525574E-4,-0.004930496,-0.16680819,-0.10783272,-0.7342425,2017-07-17 16:17:20,-Infinity
3.8489685,-0.58006287,9.192413,9.1552734E-5,4.119873E-4,1.8310547E-4,127.0,3.7770944,-0.57052207,9.032079,0.0021424294,0.0026124716,0.00404644,-0.16686761,-0.1078541,-0.73425096,2017-07-17 16:17:21,-Infinity
3.8481293,-0.57948303,9.189056,-6.1035156E-4,4.5776367E-5,-5.0354004E-4,130.0,3.7784982,-0.56911,9.031581,0.0028042793,0.0029296875,-0.003695488,-0.16684517,-0.10808343,-0.7341527,2017-07-17 16:17:22,-Infinity
3.845398,-0.5790405,9.193848,-4.5776367E-5,-2.89917E-4,1.8310547E-4,127.0,3.7785816,-0.5709054,9.031432,0.0037190914,0.0047658086,0.0020160675,-0.1669468,-0.10795306,-0.73423404,2017-07-17 16:17:23,-Infinity
3.839325,-0.58117676,9.197678,9.1552734E-5,-2.89917E-4,-5.0354004E-4,128.0,3.7780325,-0.5681133,9.031838,-3.8075447E-4,0.0037403703,0.00511837,-0.16678935,-0.10808897,-0.7341345,2017-07-17 16:17:24,-Infinity
3.8439178,-0.5784607,9.180618,9.1552734E-5,-4.5776367E-5,1.373291E-4,134.0,3.7796671,-0.56811583,9.031155,0.0032186508,-0.003925979,0.005911827,-0.16688077,-0.10812072,-0.73414797,2017-07-17 16:17:25,-Infinity
3.842041,-0.57995605,9.185806,9.1552734E-5,-2.89917E-4,-1.0681152E-4,130.0,3.7788427,-0.5689994,9.031444,0.004584551,0.001101613,-0.0028047562,-0.16688155,-0.108051285,-0.734176,2017-07-17 16:17:26,-Infinity
3.8375092,-0.57624817,9.179932,9.1552734E-5,4.272461E-4,-4.8828125E-4,130.0,3.7796874,-0.568914,9.0310955,-0.002775669,0.002814591,0.005645752,-0.16691354,-0.108083986,-0.73417205,2017-07-17 16:17:27,-Infinity
3.8418732,-0.5819702,9.191116,9.1552734E-5,7.6293945E-5,-3.2043457E-4,129.0,3.7771895,-0.56742245,9.032234,0.0019578934,-0.0066109896,0.002248764,-0.16675806,-0.10807898,-0.7341295,2017-07-17 16:17:28,-Infinity
3.84523,-0.5840912,9.185974,0.005569458,-0.016693115,-0.0052948,114.0,3.7767653,-0.56805974,9.0323715,0.0020508766,-0.0060397387,-0.0013999939,-0.16675691,-0.108024746,-0.7341509,2017-07-17 16:17:29,-Infinity
3.8437805,-0.5744171,9.184067,-8.087158E-4,9.3078613E-4,-1.2207031E-4,82.0,3.7798412,-0.5606737,9.031547,0.011265039,9.317398E-4,0.0056381226,-0.16658905,-0.10847753,-0.7339143,2017-07-17 16:17:30,-Infinity
3.851822,-0.5734558,9.184082,8.087158E-4,4.272461E-4,-0.0010223389,82.0,3.7905595,-0.56362176,9.02687,0.001742363,-0.0019313097,0.012617111,-0.1671563,-0.108703785,-0.73398614,2017-07-17 16:17:31,-Infinity