ACC_X,ACC_Y,ACC_Z,GYRO_X,GYRO_Y,GYRO_Z,LIGH_1,GRAV_X,GRAV_Y,GRAV_Z,LINACC_X,LINACC_Y,LINACC_Z,ROTVEC_X,ROTVEC_Y,ROTVEC_Z,TIME,VOICE
0.15801731,0.06943185,10.479421,-0.02130529,0.010652645,0.014913702,2.0,0.10190321,0.14305355,9.805004,0.056114104,-0.073621705,0.6744167,0.005365748,-0.0071767075,-0.3050885,2017-06-12 18:36:42,48.936108813802115
0.21547815,0.088585466,10.505757,-0.02130529,0.010652645,0.013848438,2.0,0.11043255,0.13557167,9.805004,0.1050456,-0.046986207,0.7007529,0.0048713945,-0.0074702613,-0.30466592,2017-06-12 18:36:43,44.47743522054897
0.23942018,-0.011971008,10.496181,-0.02130529,0.010652645,0.014913702,2.0,0.074220255,0.0052373162,9.806351,0.16519992,-0.017208325,0.68982935,-2.9028952E-4,-0.0037898421,-0.14687124,2017-06-12 18:36:44,47.102105227854985
0.24660277,0.01436521,10.510546,-0.02130529,0.011717909,0.014913702,2.0,0.08664017,0.0068833297,9.806201,0.1599626,0.0074818805,0.7043442,-4.4138823E-4,-0.004412515,-0.17902309,2017-06-12 18:36:45,57.19280351261983
0.22505496,0.035913024,10.479421,-0.02130529,0.010652645,0.013848438,2.0,0.098461546,0.008230069,9.806051,0.12659341,0.027682956,0.6733692,-6.031683E-4,-0.0050077448,-0.20236044,2017-06-12 18:36:46,43.936993414717776
0.23702596,-0.0047884034,10.539276,-0.02130529,0.010652645,0.013848438,2.0,0.10908581,0.01062427,9.805902,0.12794015,-0.015412673,0.7333739,-6.7607313E-4,-0.0055491673,-0.21701533,2017-06-12 18:36:47,48.542535075932854
0.19871874,0.02633622,10.565612,-0.022370553,0.010652645,0.013848438,2.0,0.118213706,0.012120646,9.805902,0.080505036,0.014215573,0.75971013,-7.68709E-4,-0.0060131196,-0.2279852,2017-06-12 18:36:48,46.21624517229407
0.22026655,0.035913024,10.460267,-0.02130529,0.011717909,0.013848438,2.0,0.12749124,0.013617022,9.805753,0.092775315,0.022296004,0.6545149,-8.602971E-4,-0.0064828526,-0.23649621,2017-06-12 18:36:49,53.06075395963233
0.23463176,0.019153614,10.515334,-0.02130529,0.010652645,0.014913702,2.0,0.13587095,0.014664485,9.805603,0.09876082,0.004489128,0.70973116,-9.505693E-4,-0.006906582,-0.24215735,2017-06-12 18:36:50,48.813184428589125
0.22266077,0.047884032,10.496181,-0.02130529,0.010652645,0.013848438,2.0,0.14305355,0.016011223,9.805453,0.0796072,0.03187281,0.6907272,-9.899139E-4,-0.007276063,-0.24501507,2017-06-12 18:36:51,49.14511090308106
0.25378537,0.047884032,10.42196,-0.02130529,0.010652645,0.013848438,2.0,0.15098435,0.016759412,9.805453,0.10280103,0.031124622,0.61650693,-0.001076824,-0.0076748375,-0.24823506,2017-06-12 18:36:52,49.669202581032806
0.22266077,0.08140286,10.484209,-0.02130529,0.010652645,0.013848438,2.0,0.1575684,0.019303251,9.805304,0.065092355,0.062099606,0.67890584,-0.0010618716,-0.0080244895,-0.25102234,2017-06-12 18:36:54,54.98828461290833
0.23223756,0.050278235,10.445902,-0.02130529,0.010652645,0.013848438,2.0,0.163105,0.019602526,9.805154,0.069132574,0.03067571,0.6407482,-0.0011316417,-0.008300837,-0.25308302,2017-06-12 18:36:55,53.9062753846913
0.19632454,0.016759412,10.656591,-0.02130529,0.011717909,0.014913702,2.0,0.1683423,0.019752163,9.805154,0.027982233,-0.002992752,0.851438,-0.0012048418,-0.008560424,-0.25397268,2017-06-12 18:36:56,53.70904533180437
0.21787235,0.016759412,10.412383,-0.02130529,0.010652645,0.013848438,2.0,0.1738789,0.020201078,9.805004,0.043993454,-0.0034416649,0.607379,-0.0012661694,-0.00884199,-0.25501916,2017-06-12 18:36:57,53.3080779754719
0.23463176,0.021547815,10.512939,-0.02130529,0.010652645,0.013848438,2.0,0.17836803,0.02184709,9.804854,0.05626374,-2.992752E-4,0.7080852,-0.0012424998,-0.009080634,-0.25498372,2017-06-12 18:36:58,57.89235629498403
0.25139117,0.076614454,10.472239,-0.02130529,0.011717909,0.013848438,2.0,0.18166006,0.022595279,9.804854,0.069731124,0.054019175,0.66738373,-0.0012408756,-0.0092575215,-0.2548581,2017-06-12 18:36:59,60.62171343089622
0.30166942,0.02633622,10.532093,-0.02130529,0.011717909,0.013848438,2.0,0.185401,0.023343466,9.804854,0.11626842,0.002992752,0.7272388,-0.0012388388,-0.009453061,-0.2534588,2017-06-12 18:37:00,60.05834737912302
0.25857377,0.023942016,10.517728,-0.02130529,0.011717909,0.013848438,2.0,0.18794483,0.024241293,9.804705,0.07062895,-2.992752E-4,0.7130232,-0.0012214286,-0.009588538,-0.2523433,2017-06-12 18:37:01,59.9246341474733
0.260968,0.059855044,10.484209,-0.022370553,0.011717909,0.013848438,2.0,0.19048867,0.024690205,9.804705,0.07047931,0.035164837,0.6795044,-0.001233967,-0.009718293,-0.25313345,2017-06-12 18:37:02,49.39335007579197
0.21308395,0.05746084,10.448297,-0.022370553,0.011717909,0.013848438,2.0,0.19348143,0.02498948,9.804705,0.019602526,0.03247136,0.64359134,-0.0012587216,-0.009869083,-0.25289983,2017-06-12 18:37:03,46.88753470548691
0.22505496,0.04070143,10.486604,-0.02130529,0.011717909,0.013848438,2.0,0.19557635,0.025737667,9.804555,0.029478608,0.014963761,0.6820482,-0.0012398884,-0.009983905,-0.25201237,2017-06-12 18:37:04,53.79123191779481
0.25857377,0.055066638,10.532093,-0.02130529,0.011717909,0.013848438,0.0,0.19767128,0.02558803,9.804555,0.060902506,0.029478608,0.72753805,-0.001269375,-0.010086119,-0.25171402,2017-06-12 18:37:05,55.40702116246138
0.24899697,0.0047884034,10.460267,-0.022370553,0.011717909,0.013848438,2.0,0.19946693,0.026186582,9.804555,0.049530048,-0.021398177,0.655712,-0.0012503294,-0.0101854075,-0.25026187,2017-06-12 18:37:06,43.25719522430191
0.20350714,0.02633622,10.556035,-0.02130529,0.010652645,0.013848438,0.0,0.20156185,0.026485857,9.804405,0.0019452889,-1.496376E-4,0.7516297,-0.001266296,-0.010295591,-0.25084904,2017-06-12 18:37:07,53.146154457541385
0.23702596,0.050278235,10.510546,-0.02130529,0.010652645,0.013848438,0.0,0.20305823,0.02633622,9.804405,0.033967737,0.023942016,0.70613986,-0.0013006711,-0.010365695,-0.2513066,2017-06-12 18:37:08,50.70447884926111
0.20350714,0.0047884034,10.481815,-0.02130529,0.011717909,0.013848438,0.0,0.2045546,0.026785132,9.804405,-0.0010474633,-0.021996727,0.67740947,-0.0012967279,-0.01044455,-0.25100636,2017-06-12 18:37:09,55.38031011064466
0.25617957,0.02633622,10.436325,-0.02130529,0.011717909,0.013848438,0.0,0.20620061,0.026785132,9.804405,0.04997896,-4.4891282E-4,0.6319196,-0.0013045929,-0.010523418,-0.25049955,2017-06-12 18:37:10,55.3013236492826
0.23702596,0.035913024,10.527305,-0.02130529,0.011717909,0.013848438,0.0,0.20709845,0.026485857,9.804405,0.029927522,0.009427169,0.72289926,-0.0013354663,-0.010562722,-0.25033948,2017-06-12 18:37:11,48.78174270574214
0.23942018,0.05267244,10.539276,-0.02130529,0.011717909,0.014913702,0.0,0.20859483,0.02633622,9.8042555,0.030825347,0.02633622,0.7350199,-0.0013650162,-0.010636652,-0.2511133,2017-06-12 18:37:12,56.80747901566993
0.21787235,0.007182605,10.493786,-0.02130529,0.011717909,0.013848438,0.0,0.20934302,0.026186582,9.8042555,0.008529344,-0.019003976,0.6895301,-0.0013805842,-0.010676513,-0.25065315,2017-06-12 18:37:13,56.486963877403085
0.2633622,0.023942016,10.445902,-0.02130529,0.011717909,0.013848438,0.0,0.2100912,0.026635494,9.8042555,0.05327099,-0.0026934769,0.641646,-0.0013902597,-0.010711029,-0.25255132,2017-06-12 18:37:14,58.35483353822614
0.23463176,-0.011971008,10.5440645,-0.02130529,0.011717909,0.013848438,0.0,0.21113867,0.026934769,9.8042555,0.023493104,-0.038905777,0.7398083,-0.0013830354,-0.010771064,-0.2519712,2017-06-12 18:37:15,54.304963746568234
0.24899697,0.033518825,10.474632,-0.022370553,0.010652645,0.013848438,0.0,0.21338323,0.027084406,9.8042555,0.03561375,0.006434417,0.6703765,-0.0013804184,-0.010884777,-0.2500833,2017-06-12 18:37:16,53.33331684469939
0.24420857,0.04309563,10.493786,-0.02130529,0.011717909,0.013848438,0.0,0.21218613,0.026485857,9.8042555,0.032022446,0.016609775,0.6895301,-0.0013930872,-0.010816815,-0.24956709,2017-06-12 18:37:17,53.87282755212852
0.21308395,0.007182605,10.5440645,-0.02130529,0.011717909,0.013848438,0.0,0.21278468,0.025887307,9.8042555,2.992752E-4,-0.018704701,0.7398083,-0.0014319438,-0.010843398,-0.25007096,2017-06-12 18:37:18,54.65699904518951
0.22266077,-0.009576807,10.481815,-0.022370553,0.011717909,0.014913702,0.0,0.21278468,0.026036944,9.8042555,0.009876082,-0.03561375,0.6775591,-0.0014407858,-0.010835464,-0.25136435,2017-06-12 18:37:19,52.28210631601182
0.24420857,0.047884032,10.505757,-0.02130529,0.011717909,0.013848438,0.0,0.21338323,0.026186582,9.8042555,0.030825347,0.021697452,0.7015011,-0.0014492357,-0.010871233,-0.25240067,2017-06-12 18:37:20,53.42438596436302
0.23702596,0.055066638,10.479421,-0.02130529,0.011717909,0.013848438,0.0,0.21353287,0.026934769,9.8042555,0.023493104,0.02813187,0.6751649,-0.0014142618,-0.01088422,-0.2523866,2017-06-12 18:37:21,50.684782412282715
0.20590134,0.011971008,10.5440645,-0.02130529,0.011717909,0.013848438,0.0,0.21428105,0.026186582,9.8042555,-0.008379706,-0.014215573,0.7398083,-0.0014456119,-0.010918602,-0.2507477,2017-06-12 18:37:22,38.56818541194586
0.29448682,0.059855044,10.522516,-0.02130529,0.010652645,0.013848438,0.0,0.21532851,0.026635494,9.804107,0.07915829,0.03321955,0.71841013,-0.0014392659,-0.010971595,-0.2508725,2017-06-12 18:37:23,54.909572950709745
0.23942018,-0.007182605,10.508151,-0.02130529,0.011717909,0.013848438,0.0,0.21622634,0.026186582,9.804107,0.023193829,-0.033369187,0.70404494,-0.0014676107,-0.011016345,-0.25051644,2017-06-12 18:37:24,56.313457489088535
0.23223756,0.009576807,10.522516,-0.02130529,0.010652645,0.013848438,0.0,0.21622634,0.025288755,9.804107,0.016011223,-0.015711948,0.71841013,-0.0015212251,-0.010997423,-0.25153932,2017-06-12 18:37:25,54.96208117168727
0.24899697,0.08140286,10.522516,-0.02130529,0.010652645,0.013848438,0.0,0.21637598,0.02633622,9.804107,0.032621,0.055066638,0.71841013,-0.0014818935,-0.011015446,-0.2522097,2017-06-12 18:37:26,52.992936433543875
0.23702596,0.04070143,10.498574,-0.02130529,0.011717909,0.014913702,0.0,0.21592706,0.025737667,9.804107,0.021098902,0.014963761,0.69446814,-0.0014954023,-0.010989142,-0.25123674,2017-06-12 18:37:27,52.880709759563686
0.23702596,0.031124622,10.493786,-0.02130529,0.011717909,0.013848438,0.0,0.21667525,0.026485857,9.804107,0.020350715,0.004638766,0.68967974,-0.0014665565,-0.011034338,-0.25134912,2017-06-12 18:37:28,53.002470739975166
0.38307226,0.047884032,10.654198,-0.02130529,0.011717909,0.013848438,2.0,0.21787235,0.026485857,9.804107,0.16519992,0.021398177,0.8500912,-0.0014673974,-0.01109999,-0.25008833,2017-06-12 18:37:29,54.676012927050614
0.24420857,0.007182605,10.46745,-0.02130529,0.010652645,0.014913702,2.0,0.21862054,0.026934769,9.804107,0.02558803,-0.019752163,0.6633435,-0.0014777584,-0.011138971,-0.25178468,2017-06-12 18:37:30,53.093092344494615
0.20829555,0.04309563,10.443508,-0.02130529,0.011717909,0.013848438,2.0,0.21787235,0.027084406,9.804107,-0.009576807,0.016011223,0.6394015,-0.0014510853,-0.011105202,-0.2514833,2017-06-12 18:37:31,50.50612686764205
0.25378537,0.047884032,10.515334,-0.02130529,0.011717909,0.013848438,2.0,0.21742344,0.027533319,9.804107,0.036361936,0.020350715,0.71122754,-0.0014075646,-0.011092034,-0.24954605,2017-06-12 18:37:32,50.518520073656404
0.24899697,0.021547815,10.484209,-0.02130529,0.011717909,0.013848438,2.0,0.2184709,0.026785132,9.804107,0.030526072,-0.0052373162,0.68010294,-0.0014557643,-0.0111366585,-0.24985956,2017-06-12 18:37:33,53.0100528315248
0.23702596,0.01436521,10.472239,-0.02130529,0.010652645,0.013848438,0.0,0.21936873,0.027084406,9.804107,0.017657237,-0.012719196,0.6681319,-0.0014617816,-0.011183234,-0.2503636,2017-06-12 18:37:34,49.79836784293438
0.23942018,-0.009576807,10.469844,-0.02130529,0.010652645,0.013848438,0.0,0.21981764,0.027383681,9.804107,0.019602526,-0.03696049,0.6657377,-0.0014466634,-0.011204137,-0.24997029,2017-06-12 18:37:36,49.727542545625745
0.24660277,-0.01436521,10.455479,-0.02130529,0.011717909,0.013848438,0.0,0.22011691,0.027234044,9.804107,0.026485857,-0.041599255,0.6513725,-0.0014490774,-0.011222394,-0.24913518,2017-06-12 18:37:37,51.096540617139354
0.25139117,0.05746084,10.510546,-0.02130529,0.011717909,0.013848438,0.0,0.21981764,0.027682956,9.804107,0.031573534,0.029777884,0.70643914,-0.001434139,-0.011212245,-0.24974349,2017-06-12 18:37:38,48.44224582558947
0.23463176,0.011971008,10.484209,-0.02130529,0.011717909,0.013848438,0.0,0.21996728,0.027084406,9.804107,0.014664485,-0.015113398,0.68010294,-0.0014804238,-0.011203496,-0.25123087,2017-06-12 18:37:39,42.641419084084816
0.22984336,0.016759412,10.515334,-0.02130529,0.011717909,0.013848438,0.0,0.22026655,0.026785132,9.804107,0.009576807,-0.010025719,0.71122754,-0.0014827307,-0.011220018,-0.2496824,2017-06-12 18:37:40,46.28227822689985
0.23223756,0.035913024,10.508151,-0.02130529,0.011717909,0.013848438,0.0,0.22056583,0.027383681,9.804107,0.011671733,0.008529344,0.70404494,-0.0014501736,-0.011245207,-0.24920854,2017-06-12 18:37:41,49.45298982674303
0.23702596,0.033518825,10.498574,-0.02130529,0.011717909,0.013848438,0.0,0.21996728,0.026635494,9.804107,0.017058687,0.0068833297,0.69446814,-0.0014696429,-0.011209122,-0.24859495,2017-06-12 18:37:42,55.87036649430486
0.21547815,0.031124622,10.448297,-0.02130529,0.011717909,0.013848438,0.0,0.22026655,0.026635494,9.804107,-0.0047884034,0.004489128,0.6441899,-0.0014810935,-0.011221242,-0.24886982,2017-06-12 18:37:43,55.84066866827211
0.25139117,-0.0047884034,10.534488,-0.02130529,0.011717909,0.014913702,0.0,0.21981764,0.027084406,9.804107,0.031573534,-0.03187281,0.73038113,-0.0014301604,-0.011207188,-0.2472614,2017-06-12 18:37:44,52.03614821638948
0.23463176,0.045489833,10.493786,-0.02130529,0.011717909,0.013848438,0.0,0.22041619,0.027234044,9.804107,0.014215573,0.018255789,0.68967974,-0.0014310014,-0.011241529,-0.2473159,2017-06-12 18:37:45,48.15216169988637
0.24181437,-0.01436521,10.469844,-0.02130529,0.010652645,0.013848438,0.0,0.22071546,0.027982233,9.804107,0.021098902,-0.042347442,0.6657377,-0.001402651,-0.011259089,-0.24805425,2017-06-12 18:37:46,45.9344714341086
0.2705448,0.038307227,10.6158905,-0.02130529,0.010652645,0.013848438,2.0,0.2208651,0.027533319,9.804107,0.049679685,0.010773907,0.811784,-0.0014279168,-0.0112625575,-0.24775915,2017-06-12 18:37:47,44.87458614397766
0.24181437,0.021547815,10.457873,-0.02130529,0.011717909,0.013848438,0.0,0.2220622,0.027084406,9.803957,0.019752163,-0.0055365916,0.65391636,-0.0014841789,-0.011313048,-0.24947299,2017-06-12 18:37:48,58.90936835880847
0.22984336,0.019153614,10.479421,-0.02130529,0.011717909,0.013848438,2.0,0.22101474,0.027383681,9.804107,0.008828619,-0.008230069,0.67531455,-0.0014682179,-0.011264781,-0.25054356,2017-06-12 18:37:49,58.211058175481284
0.21308395,0.07182605,10.46745,-0.022370553,0.011717909,0.013848438,1.0,0.22176293,0.027084406,9.803957,-0.008678981,0.044741645,0.66349316,-0.0014984198,-0.011294436,-0.25133768,2017-06-12 18:37:50,49.50236472251534
0.24181437,0.06464344,10.488997,-0.022370553,0.010652645,0.013848438,2.0,0.22131401,0.027383681,9.804107,0.020500353,0.037259765,0.68489134,-0.0014809323,-0.011276164,-0.25125453,2017-06-12 18:37:51,49.11254306762491
0.23223756,0.055066638,10.486604,-0.02130529,0.011717909,0.014913702,1.0,0.22101474,0.02813187,9.804107,0.011222821,0.026934769,0.68249714,-0.0014363667,-0.01127171,-0.25090855,2017-06-12 18:37:52,53.39787932618667
0.25378537,0.04309563,10.469844,-0.02130529,0.011717909,0.013848438,1.0,0.22101474,0.027383681,9.804107,0.032770637,0.015711948,0.6657377,-0.0014881715,-0.011263984,-0.2520203,2017-06-12 18:37:53,50.633745198068816
0.22984336,0.009576807,10.5440645,-0.02130529,0.011717909,0.013848438,1.0,0.22116438,0.027383681,9.804107,0.008678981,-0.017806875,0.739958,-0.0014860537,-0.011270958,-0.25163364,2017-06-12 18:37:54,46.27498032542082
0.23942018,0.047884032,10.457873,-0.02130529,0.011717909,0.013848438,1.0,0.22131401,0.027982233,9.804107,0.01810615,0.0199018,0.6537667,-0.0014642971,-0.011281038,-0.25212756,2017-06-12 18:37:55,52.852844590497696
0.22505496,0.06464344,10.457873,-0.02130529,0.011717909,0.013848438,1.0,0.22101474,0.028281508,9.804107,0.004040215,0.036361936,0.6537667,-0.0014471803,-0.011277149,-0.2526277,2017-06-12 18:37:56,43.96438375823861
0.22266077,0.038307227,10.453085,-0.02130529,0.011717909,0.013848438,1.0,0.22146365,0.027832596,9.803957,0.0011971008,0.0104746325,0.64912796,-0.0014685849,-0.011292095,-0.25207862,2017-06-12 18:37:57,40.58514792984157
0.24420857,-0.0047884034,10.527305,-0.02130529,0.010652645,0.013848438,1.0,0.22071546,0.027234044,9.804107,0.023493104,-0.032022446,0.72319853,-0.0014996044,-0.011242722,-0.25258416,2017-06-12 18:37:58,42.237274824017625
0.2777274,0.031124622,10.477027,-0.02130529,0.011717909,0.014913702,1.0,0.2208651,0.02813187,9.804107,0.05686229,0.002992752,0.6729203,-0.0014595902,-0.011266148,-0.25309315,2017-06-12 18:37:59,51.388687215388636
0.23223756,0.02633622,10.505757,-0.02130529,0.011717909,0.013848438,1.0,0.2208651,0.027982233,9.804107,0.011372458,-0.0016460137,0.70165074,-0.0014697742,-0.01126326,-0.25318465,2017-06-12 18:38:00,54.01001819195543
0.20590134,0.04070143,10.433931,-0.02130529,0.011717909,0.013848438,1.0,0.22101474,0.028580783,9.804107,-0.015113398,0.012120646,0.6298247,-0.0014459379,-0.011277486,-0.2534056,2017-06-12 18:38:01,48.32363341781286
0.24660277,0.011971008,10.436325,-0.02130529,0.011717909,0.013848438,1.0,0.22101474,0.028580783,9.804107,0.02558803,-0.016609775,0.6322189,-0.0014440967,-0.011276959,-0.25313103,2017-06-12 18:38:02,58.74277961787067
0.19871874,0.0023942017,10.498574,-0.02130529,0.011717909,0.013848438,1.0,0.22041619,0.027982233,9.804107,-0.021697452,-0.02558803,0.69446814,-0.0014624484,-0.0112372525,-0.25309113,2017-06-12 18:38:03,58.42765100972632
0.37110126,-0.107739076,10.259154,-0.02130529,0.010652645,0.014913702,1.0,0.21697453,0.0338181,9.804107,0.15412673,-0.14155717,0.45504797,-0.0011207256,-0.011141641,-0.25235596,2017-06-12 18:38:04,42.176152545734936
0.18195933,0.04070143,10.462662,-0.02130529,0.010652645,0.013848438,1.0,0.21682489,0.034267012,9.804107,-0.034865562,0.006434417,0.6585551,-0.0010869997,-0.011145498,-0.2512563,2017-06-12 18:38:05,48.05153338081481
0.272939,0.021547815,10.45069,-0.02130529,0.010652645,0.014913702,1.0,0.21817163,0.0338181,9.804107,0.054767363,-0.012270284,0.6465841,-0.0011207033,-0.011203545,-0.25132215,2017-06-12 18:38:06,45.424170469392934
0.24181437,0.02633622,10.522516,-0.02130529,0.011717909,0.013848438,1.0,0.21877018,0.03247136,9.804107,0.023044191,-0.006135142,0.71841013,-0.0011794595,-0.011219081,-0.2497676,2017-06-12 18:38:08,48.77462789237812
0.23942018,0.050278235,10.500969,-0.02130529,0.011717909,0.013848438,1.0,0.21906945,0.03232172,9.804107,0.020350715,0.017956512,0.69686234,-0.0011898577,-0.011235115,-0.24925828,2017-06-12 18:38:09,60.30070768668428
0.22744916,0.05746084,10.474632,-0.02130529,0.011717909,0.013848438,0.0,0.22056583,0.031573534,9.804107,0.0068833297,0.025887307,0.6705261,-0.0012520729,-0.011295411,-0.25023934,2017-06-12 18:38:10,65.11609468315096
0.21547815,0.045489833,10.441113,-0.02130529,0.011717909,0.014913702,1.0,0.22116438,0.031423897,9.803957,-0.005686229,0.014065935,0.6371569,-0.0012782924,-0.011322351,-0.25098565,2017-06-12 18:38:11,65.02756103089679
0.23223756,0.038307227,10.474632,-0.02130529,0.011717909,0.014913702,1.0,0.22101474,0.031423897,9.804107,0.011222821,0.0068833297,0.6705261,-0.0012806971,-0.011311703,-0.25186363,2017-06-12 18:38:12,62.00592332544712
0.22984336,0.04309563,10.486604,-0.02130529,0.010652645,0.014913702,1.0,0.22026655,0.032172084,9.804107,0.009576807,0.010923545,0.68249714,-0.0012141718,-0.011291439,-0.24989748,2017-06-12 18:38:13,58.700017138137646
0.22984336,0.007182605,10.508151,-0.02130529,0.011717909,0.013848438,1.0,0.22041619,0.03127426,9.804107,0.009427169,-0.024091655,0.70404494,-0.0012730621,-0.011287734,-0.25104794,2017-06-12 18:38:14,57.48885050852245
0.22266077,0.04070143,10.498574,-0.02130529,0.011717909,0.013848438,1.0,0.22041619,0.03172317,9.804107,0.002244564,0.008978256,0.69446814,-0.0012344699,-0.0112898955,-0.2492698,2017-06-12 18:38:15,52.69158658574856
0.2657564,0.033518825,10.465055,-0.02130529,0.011717909,0.013848438,1.0,0.22116438,0.032022446,9.803957,0.044592008,0.001496376,0.66109896,-0.0012183525,-0.011330476,-0.24852729,2017-06-12 18:38:16,48.39163863084451
0.25378537,0.02873042,10.474632,-0.02130529,0.010652645,0.013848438,1.0,0.2208651,0.031423897,9.804107,0.032920275,-0.0026934769,0.6705261,-0.0012598662,-0.011310958,-0.24995612,2017-06-12 18:38:17,55.28894669124764
0.24899697,0.007182605,10.462662,-0.02130529,0.010652645,0.013848438,1.0,0.22041619,0.030974984,9.804107,0.028580783,-0.023792379,0.6585551,-0.0012854338,-0.011278652,-0.25089076,2017-06-12 18:38:18,56.985016955792524
0.272939,0.055066638,10.484209,-0.022370553,0.010652645,0.013848438,1.0,0.22041619,0.031124622,9.804107,0.0525228,0.023942016,0.68010294,-0.0013006162,-0.011282853,-0.25230032,2017-06-12 18:38:19,52.31977952867781
0.21308395,0.016759412,10.491392,-0.02130529,0.011717909,0.013848438,1.0,0.22161329,0.03007716,9.803957,-0.008529344,-0.013317747,0.68743515,-0.0013640812,-0.011326801,-0.25224903,2017-06-12 18:38:20,52.50877177529564
0.24660277,0.02873042,10.460267,-0.02130529,0.011717909,0.013848438,1.0,0.22146365,0.029927522,9.803957,0.025139118,-0.0011971008,0.65631056,-0.0013491008,-0.011317157,-0.25076813,2017-06-12 18:38:21,46.73389698147475
0.23223756,0.016759412,10.496181,-0.02130529,0.010652645,0.013848438,1.0,0.22116438,0.029927522,9.804107,0.011073183,-0.01316811,0.69207394,-0.0013438435,-0.011300592,-0.25040123,2017-06-12 18:38:22,46.428051219121826
0.23942018,0.05267244,10.488997,-0.02130529,0.011717909,0.013848438,1.0,0.22146365,0.029927522,9.803957,0.017956512,0.022744916,0.68504095,-0.0013529686,-0.01131613,-0.25120416,2017-06-12 18:38:23,45.96756176089136
0.20829555,0.035913024,10.441113,-0.02130529,0.011717909,0.013848438,1.0,0.22056583,0.03007716,9.804107,-0.012270284,0.0058358666,0.6370073,-0.0013458962,-0.011272986,-0.25187215,2017-06-12 18:38:24,52.88571300105761
0.23223756,0.023942016,10.500969,-0.02130529,0.011717909,0.013848438,1.0,0.2208651,0.030226797,9.804107,0.011372458,-0.0062847794,0.69686234,-0.0013505705,-0.01129358,-0.25235415,2017-06-12 18:38:25,51.808251345827045
0.23942018,-0.009576807,10.481815,-0.02130529,0.011717909,0.013848438,1.0,0.22191256,0.029777884,9.803957,0.0175076,-0.03935469,0.67785835,-0.0013770219,-0.011334621,-0.25214222,2017-06-12 18:38:26,54.804450422184125
0.25139117,0.059855044,10.46745,-0.02130529,0.011717909,0.013848438,1.0,0.22161329,0.030526072,9.803957,0.029777884,0.02932897,0.66349316,-0.0013326798,-0.011330771,-0.25129768,2017-06-12 18:38:27,57.54335450765295
0.25378537,0.02633622,10.529699,-0.02130529,0.011717909,0.013848438,1.0,0.22221185,0.029628245,9.803957,0.031573534,-0.0032920274,0.7257424,-0.0013739904,-0.011351175,-0.25030196,2017-06-12 18:38:28,58.61557140221383
0.24181437,0.0047884034,10.445902,-0.02130529,0.011717909,0.013848438,1.0,0.2220622,0.028880058,9.803957,0.019752163,-0.024091655,0.6419453,-0.0014200378,-0.01133272,-0.25167972,2017-06-12 18:38:29,58.668435226142954
0.2777274,0.021547815,10.491392,-0.02130529,0.011717909,0.013848438,1.0,0.22176293,0.028880058,9.803957,0.055964466,-0.0073322426,0.68743515,-0.0014200201,-0.011321484,-0.25209635,2017-06-12 18:38:30,57.386114034753774
0.24420857,0.06464344,10.43872,-0.02130529,0.011717909,0.013848438,1.0,0.22176293,0.029029695,9.803957,0.022445641,0.03561375,0.6347627,-0.0014206562,-0.01131562,-0.25242865,2017-06-12 18:38:31,60.312534456411
0.21308395,0.01436521,10.512939,-0.02130529,0.011717909,0.014913702,1.0,0.22191256,0.028880058,9.803957,-0.008828619,-0.014514848,0.708983,-0.0014248844,-0.011324821,-0.25240424,2017-06-12 18:38:32,55.953315590871675
0.20350714,0.035913024,10.491392,-0.02130529,0.011717909,0.013848438,1.0,0.22161329,0.027982233,9.804107,-0.01810615,0.007930793,0.68728554,-0.0014843978,-0.011295175,-0.25376418,2017-06-12 18:38:33,55.229490885034565
0.2825158,0.01436521,10.445902,-0.02130529,0.010652645,0.013848438,1.0,0.22146365,0.02813187,9.804107,0.061052144,-0.013766659,0.6417957,-0.0014810283,-0.011286864,-0.2542958,2017-06-12 18:38:34,50.04627905433705
0.24420857,0.05746084,10.448297,-0.02130529,0.010652645,0.014913702,1.0,0.22116438,0.02813187,9.804107,0.023044191,0.02932897,0.6441899,-0.0014842292,-0.011273811,-0.2548193,2017-06-12 18:38:35,51.55252115741721
0.23463176,0.038307227,10.493786,-0.022370553,0.010652645,0.013848438,1.0,0.22191256,0.027982233,9.803957,0.012719196,0.010324995,0.68982935,-0.0014864216,-0.0113131795,-0.2535294,2017-06-12 18:38:36,52.19545526964499
0.23942018,0.050278235,10.460267,-0.02130529,0.011717909,0.014913702,1.0,0.22146365,0.027832596,9.804107,0.017956512,0.022445641,0.6561609,-0.0014791535,-0.011288516,-0.2524931,2017-06-12 18:38:37,44.54071258987477
0.24660277,0.02873042,10.462662,-0.022370553,0.011717909,0.013848438,1.0,0.22146365,0.027682956,9.803957,0.025139118,0.0010474633,0.65870476,-0.0014474671,-0.011295674,-0.24955179,2017-06-12 18:38:39,43.61653529506913
0.24660277,0.011971008,10.517728,-0.02130529,0.011717909,0.014913702,1.0,0.22116438,0.027533319,9.804107,0.025438393,-0.015562311,0.71362174,-0.0014468338,-0.011275712,-0.24925295,2017-06-12 18:38:40,54.03404035177634
0.21547815,0.016759412,10.539276,-0.02130529,0.011717909,0.014913702,1.0,0.22116438,0.026635494,9.804107,-0.005686229,-0.009876082,0.73516953,-0.0015012044,-0.011259704,-0.24977046,2017-06-12 18:38:41,58.9426344895415
0.23223756,0.07182605,10.503363,-0.022370553,0.011717909,0.013848438,1.0,0.2220622,0.026485857,9.803957,0.010175358,0.045340195,0.69940615,-0.0015271185,-0.011307951,-0.25048205,2017-06-12 18:38:42,51.21474444170886
0.25617957,0.016759412,10.512939,-0.02130529,0.011717909,0.013848438,1.0,0.22131401,0.025737667,9.804107,0.034865562,-0.008978256,0.70883334,-0.0015630051,-0.011259778,-0.25146303,2017-06-12 18:38:43,46.24826127432311
0.2681506,0.0047884034,10.4171715,-0.02130529,0.010652645,0.013848438,0.0,0.22176293,0.025438393,9.804107,0.046387658,-0.02064999,0.6130653,-0.0016130134,-0.011273998,-0.25368518,2017-06-12 18:38:44,55.14852794378832
0.21787235,0.016759412,10.474632,-0.02130529,0.011717909,0.013848438,0.0,0.22161329,0.025438393,9.804107,-0.0037409402,-0.008678981,0.6705261,-0.0016014362,-0.011266788,-0.25307027,2017-06-12 18:38:45,49.70708492399031
0.19632454,0.06464344,10.426748,-0.020240024,0.010652645,0.014913702,1.0,0.22131401,0.02633622,9.804107,-0.02498948,0.038307227,0.6226421,-0.001537092,-0.011261411,-0.25160053,2017-06-12 18:38:46,42.19496658696713
0.22026655,0.06703765,10.527305,-0.02130529,0.010652645,0.013848438,1.0,0.2208651,0.02633622,9.804107,-5.985504E-4,0.04070143,0.72319853,-0.0015339376,-0.011242981,-0.25191197,2017-06-12 18:38:47,47.17725423325817
0.22744916,0.019153614,10.441113,-0.02130529,0.010652645,0.013848438,0.0,0.22011691,0.027383681,9.804107,0.0073322426,-0.008230069,0.6370073,-0.0014498811,-0.01121946,-0.24990425,2017-06-12 18:38:48,51.03013180448983
0.23702596,0.05267244,10.462662,-0.02130529,0.011717909,0.014913702,2.0,0.22041619,0.027982233,9.804107,0.016609775,0.024690205,0.6585551,-0.0014120163,-0.0112443,-0.24914092,2017-06-12 18:38:49,48.92111045018864
0.19393034,0.08379706,10.295067,-0.02130529,0.010652645,0.013848438,2.0,0.22026655,0.028880058,9.804107,-0.02633622,0.054917,0.490961,-0.0013644788,-0.011248379,-0.24887459,2017-06-12 18:38:50,48.673366924425956
0.23702596,0.08379706,10.493786,-0.02130529,0.011717909,0.014913702,2.0,0.22011691,0.029478608,9.804107,0.01690905,0.05431845,0.68967974,-0.0013404554,-0.01124711,-0.24909602,2017-06-12 18:38:51,53.138105361453285
0.25617957,-0.019153614,10.479421,-0.02130529,0.011717909,0.013848438,2.0,0.22041619,0.02932897,9.804107,0.035763387,-0.048482586,0.67531455,-0.0013647471,-0.011257466,-0.2502972,2017-06-12 18:38:52,52.157839804228196
0.25378537,0.02873042,10.479421,-0.02130529,0.011717909,0.013848438,2.0,0.22071546,0.029777884,9.804107,0.033069912,-0.0010474633,0.67531455,-0.0013528718,-0.011277047,-0.25098166,2017-06-12 18:38:53,57.90369139530383
0.21547815,0.007182605,10.460267,-0.02130529,0.011717909,0.013848438,2.0,0.22026655,0.029927522,9.804107,-0.0047884034,-0.022744916,0.6561609,-0.0013397885,-0.01126203,-0.2507882,2017-06-12 18:38:54,57.9563770029356
0.2753332,0.0,10.481815,-0.02130529,0.011717909,0.013848438,2.0,0.22011691,0.02932897,9.804107,0.055216275,-0.02932897,0.67770875,-0.0013499549,-0.011248498,-0.24940118,2017-06-12 18:38:55,61.7265498487271
0.23942018,0.011971008,10.448297,-0.02130529,0.011717909,0.014913702,2.0,0.22071546,0.028431145,9.804107,0.018704701,-0.016460137,0.6441899,-0.0014159558,-0.011263646,-0.25050232,2017-06-12 18:38:56,62.44753762717131
-1.2737153,-2.5594015,9.813833,-1.2868395,-0.31318775,0.014913702,0.0,-0.7799112,0.2964321,9.771036,-0.4938041,-2.8558338,0.042796355,0.00574605,0.04218535,0.22586998,2017-06-12 18:38:57,62.636722028214955
0.8643068,2.966416,10.105926,0.684965,0.57950383,-0.185356,13.0,1.2223896,1.5282489,9.609278,-0.3580828,1.438167,0.4966472,0.04989526,-0.08699292,-0.36478364,2017-06-12 18:38:58,54.8187472222219
0.20829555,0.033518825,10.453085,-0.02130529,0.010652645,0.014913702,0.0,0.25767595,-0.06060323,9.803059,-0.04938041,0.09412205,0.6500258,-0.0077925753,-0.011019935,-0.37529406,2017-06-12 18:38:59,80.1428273981057
0.19632454,0.01436521,10.498574,-0.02130529,0.011717909,0.014913702,0.0,0.2527379,-0.05267244,9.803208,-0.05641338,0.06703765,0.69536597,-0.0071767597,-0.011040324,-0.36303493,2017-06-12 18:39:00,50.798636396124614
0.19153613,0.031124622,10.469844,-0.022370553,0.011717909,0.013848438,2.0,0.2475006,-0.046686932,9.803358,-0.055964466,0.077811554,0.6664859,-0.0066778203,-0.010971065,-0.352816,2017-06-12 18:39:01,37.21331564439447
0.22026655,0.045489833,10.42196,-0.02130529,0.010652645,0.013848438,2.0,0.24405894,-0.04070143,9.803508,-0.023792379,0.08619126,0.61845225,-0.006242967,-0.010963922,-0.34536332,2017-06-12 18:39:02,54.60617454341423
0.20590134,-0.02873042,10.520123,-0.02130529,0.011717909,0.014913702,2.0,0.24091655,-0.035763387,9.803508,-0.0350152,0.0070329676,0.7166145,-0.005916004,-0.010923519,-0.34225896,2017-06-12 18:39:03,55.763559206420396
0.19871874,0.04070143,10.457873,-0.02130529,0.010652645,0.013848438,2.0,0.23807344,-0.030825347,9.803658,-0.03935469,0.07152677,0.65421563,-0.0056089163,-0.010884486,-0.3404164,2017-06-12 18:39:04,49.65539269440477
0.20829555,0.019153614,10.46745,-0.02130529,0.010652645,0.013848438,2.0,0.23508067,-0.027533319,9.803658,-0.026785132,0.046686932,0.66379243,-0.0053522773,-0.010818005,-0.3362425,2017-06-12 18:39:05,43.36266330512594
0.24181437,0.04309563,10.460267,-0.02130529,0.010652645,0.014913702,2.0,0.2323872,-0.023044191,9.803807,0.009427169,0.066139825,0.65646017,-0.005054647,-0.010783194,-0.33359417,2017-06-12 18:39:06,38.9943788198364
0.19632454,0.023942016,10.462662,-0.02130529,0.010652645,0.013848438,2.0,0.229993,-0.019303251,9.803807,-0.033668462,0.043245267,0.65885437,-0.004836295,-0.010732034,-0.33367884,2017-06-12 18:39:07,36.160634082265425
0.19632454,0.007182605,10.546458,-0.02130529,0.010652645,0.013848438,2.0,0.22700025,-0.0163105,9.803957,-0.03067571,0.023493104,0.7425018,-0.0046283165,-0.010644476,-0.33231443,2017-06-12 18:39:08,42.13440414924078
0.22026655,0.047884032,10.515334,-0.02130529,0.011717909,0.014913702,2.0,0.22505496,-0.01316811,9.803957,-0.0047884034,0.061052144,0.7113772,-0.004445387,-0.010608802,-0.33199608,2017-06-12 18:39:09,42.29713364525222
0.21308395,0.019153614,10.517728,-0.02130529,0.011717909,0.013848438,2.0,0.22221185,-0.009726444,9.804107,-0.009127894,0.028880058,0.71362174,-0.0042224256,-0.010533101,-0.33165184,2017-06-12 18:39:11,37.98161659514229
0.20590134,0.04070143,10.527305,-0.02130529,0.010652645,0.014913702,2.0,0.22026655,-0.007182605,9.804107,-0.01436521,0.047884032,0.72319853,-0.004072083,-0.010473394,-0.3323747,2017-06-12 18:39:12,33.663553366695936
0.25139117,-0.023942016,10.465055,-0.02130529,0.011717909,0.013848438,2.0,0.21877018,-0.0055365916,9.804107,0.032621,-0.018405426,0.6609493,-0.0039740475,-0.010430947,-0.33278853,2017-06-12 18:39:13,47.56336663032645
0.21068975,0.02633622,10.517728,-0.02130529,0.010652645,0.014913702,2.0,0.2172738,-0.0032920274,9.804107,-0.006584055,0.029628245,0.71362174,-0.0038303994,-0.010404748,-0.33143997,2017-06-12 18:39:14,49.519075911747976
0.17477672,-0.011971008,10.460267,-0.02130529,0.011717909,0.013848438,2.0,0.21652561,-0.0013467384,9.8042555,-0.041748893,-0.01062427,0.6560113,-0.0037152488,-0.010401937,-0.33060312,2017-06-12 18:39:15,44.91341591196685
0.22505496,0.011971008,10.46745,-0.02130529,0.011717909,0.014913702,2.0,0.2148796,5.985504E-4,9.8042555,0.010175358,0.011372458,0.6631939,-0.0035770861,-0.010363739,-0.3294806,2017-06-12 18:39:16,43.9461071789455
0.20590134,0.007182605,10.474632,-0.02130529,0.011717909,0.014913702,2.0,0.2148796,0.0026934769,9.8042555,-0.008978256,0.004489128,0.6703765,-0.0034888964,-0.010388401,-0.33078656,2017-06-12 18:39:17,38.057328319539174
0.20350714,0.019153614,10.539276,-0.02130529,0.010652645,0.014913702,2.0,0.21383214,0.0043394906,9.8042555,-0.010324995,0.014814123,0.7350199,-0.0034027658,-0.010361996,-0.3317174,2017-06-12 18:39:18,30.817269469336743
0.25617957,-0.04070143,10.524911,-0.02130529,0.010652645,0.014913702,2.0,0.21353287,0.005985504,9.8042555,0.042646717,-0.046686932,0.7206547,-0.0033126594,-0.010377159,-0.33096814,2017-06-12 18:39:19,34.18222288537499
0.19153613,0.04070143,10.524911,-0.02130529,0.011717909,0.014913702,2.0,0.21263504,0.0067336923,9.8042555,-0.021098902,0.033967737,0.7206547,-0.0032659005,-0.010348769,-0.33110285,2017-06-12 18:39:20,31.302315498175833
0.23942018,0.009576807,10.527305,-0.02130529,0.010652645,0.013848438,2.0,0.21188685,0.0074818805,9.8042555,0.027533319,0.0020949265,0.7230489,-0.0032166224,-0.010327679,-0.33116478,2017-06-12 18:39:21,41.45331664904671
0.2705448,0.016759412,10.460267,-0.02130529,0.011717909,0.014913702,2.0,0.21203649,0.008978256,9.8042555,0.058508303,0.0077811554,0.6560113,-0.0031437473,-0.010362397,-0.33079198,2017-06-12 18:39:22,43.22453397352216
0.23942018,0.02633622,10.512939,-0.02130529,0.010652645,0.013848438,2.0,0.21188685,0.009876082,9.8042555,0.027533319,0.016460137,0.7086837,-0.003094878,-0.010364608,-0.3308661,2017-06-12 18:39:23,38.19504178229795
0.21308395,0.0047884034,10.441113,-0.02130529,0.011717909,0.013848438,2.0,0.21143794,0.01062427,9.8042555,0.0016460137,-0.0058358666,0.6368576,-0.0030452488,-0.010363918,-0.33028662,2017-06-12 18:39:24,33.54715038738962
0.21308395,0.031124622,10.548853,-0.02130529,0.011717909,0.013848438,2.0,0.21039048,0.011671733,9.8042555,0.0026934769,0.019452889,0.7445967,-0.0029696468,-0.010329934,-0.32943502,2017-06-12 18:39:25,34.34824545601582
0.22505496,0.019153614,10.496181,-0.02130529,0.010652645,0.013848438,2.0,0.2100912,0.012270284,9.8042555,0.014963761,0.0068833297,0.6919243,-0.002935919,-0.010321938,-0.3297681,2017-06-12 18:39:26,38.54487592595927
0.21787235,0.023942016,10.419566,-0.02130529,0.010652645,0.013848438,2.0,0.20934302,0.01316811,9.804405,0.008529344,0.010773907,0.6151602,-0.0029028961,-0.010294491,-0.33173624,2017-06-12 18:39:27,48.898074572919825
0.22984336,0.0023942017,10.46745,-0.022370553,0.010652645,0.014913702,2.0,0.20919338,0.01316811,9.804405,0.02064999,-0.010773907,0.6630442,-0.002900755,-0.010293642,-0.3316112,2017-06-12 18:39:28,45.47959242612534
0.17956513,0.02873042,10.474632,-0.02130529,0.010652645,0.013848438,2.0,0.20814592,0.014514848,9.804405,-0.028580783,0.014215573,0.6702268,-0.002806441,-0.010262312,-0.33032197,2017-06-12 18:39:29,35.42889910443205
0.19632454,0.055066638,10.462662,-0.02130529,0.010652645,0.014913702,2.0,0.20829555,0.015113398,9.804405,-0.011971008,0.03995324,0.6582558,-0.0027788486,-0.010282384,-0.330597,2017-06-12 18:39:30,39.436146814981655
0.21068975,0.009576807,10.477027,-0.02130529,0.011717909,0.013848438,2.0,0.20784664,0.015562311,9.804405,0.0028431145,-0.005985504,0.672621,-0.0027589053,-0.010267715,-0.33105436,2017-06-12 18:39:31,40.34501764746832
0.22984336,0.019153614,10.517728,-0.02130529,0.010652645,0.014913702,2.0,0.20709845,0.015861586,9.804405,0.022744916,0.0032920274,0.71332246,-0.002745904,-0.01023247,-0.33222124,2017-06-12 18:39:32,35.832436563053356
0.23942018,0.0047884034,10.508151,-0.02130529,0.010652645,0.013848438,2.0,0.20679916,0.016011223,9.804405,0.032621,-0.011222821,0.70374566,-0.0027312916,-0.0102186585,-0.33243033,2017-06-12 18:39:33,33.350837080059975
0.19632454,0.021547815,10.465055,-0.02130529,0.010652645,0.014913702,2.0,0.2057517,0.016460137,9.804405,-0.009427169,0.005087679,0.66065,-0.002683239,-0.010181207,-0.3315432,2017-06-12 18:39:34,45.04508524636827
0.25139117,0.023942016,10.505757,-0.02130529,0.011717909,0.013848438,2.0,0.20649989,0.015562311,9.804405,0.044891283,0.008379706,0.70135146,-0.0027237227,-0.01020256,-0.33010712,2017-06-12 18:39:35,36.445116735529865
0.22505496,0.06943185,10.505757,-0.02130529,0.010652645,0.014913702,2.0,0.20709845,0.016609775,9.804405,0.017956512,0.052822076,0.70135146,-0.00267985,-0.010250293,-0.3298102,2017-06-12 18:39:36,32.37639284565348
0.23702596,0.04070143,10.433931,-0.02130529,0.010652645,0.014913702,2.0,0.20635025,0.017208325,9.804405,0.03067571,0.023493104,0.6295254,-0.002640172,-0.010226509,-0.33018124,2017-06-12 18:39:37,37.69646330217655
0.19393034,0.011971008,10.515334,-0.02130529,0.010652645,0.013848438,2.0,0.20620061,0.017806875,9.804405,-0.012270284,-0.0058358666,0.71092826,-0.0026027486,-0.010234121,-0.3290743,2017-06-12 18:39:38,33.95667599606208
0.16998832,0.019153614,10.453085,-0.02130529,0.011717909,0.014913702,2.0,0.20590134,0.017806875,9.804405,-0.035913024,0.0013467384,0.648679,-0.0025912495,-0.010220822,-0.3287553,2017-06-12 18:39:39,37.815930821035515
0.21068975,0.050278235,10.546458,-0.02130529,0.010652645,0.014913702,2.0,0.20560206,0.018255789,9.804405,0.005087679,0.032022446,0.7420529,-0.0025613764,-0.0102131,-0.3283728,2017-06-12 18:39:41,46.93995094984291
0.20829555,0.031124622,10.527305,-0.02130529,0.011717909,0.014913702,2.0,0.20560206,0.019153614,9.804405,0.0026934769,0.011971008,0.72289926,-0.0025205528,-0.010226713,-0.3284261,2017-06-12 18:39:42,35.87371247379449
0.23942018,0.02873042,10.42196,-0.022370553,0.010652645,0.013848438,2.0,0.20560206,0.020350715,9.804405,0.0338181,0.008379706,0.6175544,-0.0024582185,-0.010244962,-0.32806423,2017-06-12 18:39:43,32.422501757120756
0.20829555,0.02873042,10.517728,-0.02130529,0.010652645,0.014913702,2.0,0.20545243,0.020949265,9.804405,0.0028431145,0.0077811554,0.71332246,-0.0024335217,-0.010252366,-0.32843778,2017-06-12 18:39:44,42.34310416057332
0.22026655,-0.0023942017,10.508151,-0.02130529,0.010652645,0.014913702,2.0,0.20590134,0.020949265,9.804405,0.01436521,-0.023343466,0.70374566,-0.0024408456,-0.010268349,-0.32856712,2017-06-12 18:39:45,35.79216250466253
0.21308395,0.016759412,10.522516,-0.02130529,0.010652645,0.013848438,2.0,0.20635025,0.02184709,9.804405,0.0067336923,-0.005087679,0.71811086,-0.002388618,-0.010308221,-0.32742697,2017-06-12 18:39:46,31.4102984390481
0.24181437,0.01436521,10.498574,-0.022370553,0.010652645,0.014913702,2.0,0.20709845,0.022296004,9.804405,0.034715924,-0.007930793,0.69416887,-0.0023862366,-0.010354101,-0.32776895,2017-06-12 18:39:47,34.32307730153648
0.21068975,0.02873042,10.5440645,-0.02130529,0.010652645,0.013848438,2.0,0.20724809,0.023193829,9.804405,0.0034416649,0.0055365916,0.7396587,-0.0023566373,-0.0103695765,-0.3291052,2017-06-12 18:39:48,31.33429123371507
0.22744916,0.05746084,10.496181,-0.02130529,0.010652645,0.013848438,2.0,0.20724809,0.023193829,9.804405,0.020201078,0.034267012,0.69177467,-0.0023639211,-0.0103683155,-0.3298645,2017-06-12 18:39:49,43.50033888102966
0.14604631,-0.19632454,11.066,-0.02130529,0.010652645,0.014913702,2.0,0.20620061,0.022146367,9.804405,-0.06015432,-0.2184709,1.2615947,-0.0024025245,-0.010300257,-0.33042455,2017-06-12 18:39:50,39.273536520908486
0.22984336,0.05267244,10.481815,-0.02130529,0.010652645,0.013848438,2.0,0.2057517,0.022894554,9.804405,0.024091655,0.029777884,0.67740947,-0.0023530172,-0.010296792,-0.32969546,2017-06-12 18:39:51,42.3806251176555
0.2753332,0.05267244,10.472239,-0.02130529,0.010652645,0.013848438,2.0,0.21532851,0.028281508,9.804107,0.06000468,0.02439093,0.6681319,-0.00225926,-0.010847217,-0.32994428,2017-06-12 18:39:52,43.09750677180751
0.18674773,0.0047884034,10.508151,-0.02130529,0.011717909,0.013848438,2.0,0.21443069,0.026036944,9.8042555,-0.027682956,-0.02124854,0.7038953,-0.002370149,-0.010756505,-0.33159578,2017-06-12 18:39:53,42.91411115413383
0.2825158,0.06464344,10.527305,-0.022370553,0.010652645,0.013848438,2.0,0.21278468,0.02633622,9.8042555,0.069731124,0.038307227,0.7230489,-0.0023185015,-0.010690061,-0.33074245,2017-06-12 18:39:54,55.63720316542656
0.22744916,-0.035913024,10.539276,-0.02130529,0.011717909,0.014913702,2.0,0.21233577,0.025288755,9.8042555,0.015113398,-0.06120178,0.7350199,-0.0023480542,-0.0106489,-0.32939184,2017-06-12 18:39:55,62.68793169465191
0.1604115,0.02873042,10.532093,-0.02130529,0.010652645,0.013848438,2.0,0.21353287,0.036810853,9.804107,-0.05312135,-0.00808043,0.72798693,-0.0018276563,-0.010899442,-0.330452,2017-06-12 18:39:56,76.46804680371952
0.20350714,0.021547815,10.465055,-0.02130529,0.010652645,0.013848438,2.0,0.21218613,0.0350152,9.8042555,-0.008678981,-0.0134673845,0.6607997,-0.0018719891,-0.010807338,-0.3293802,2017-06-12 18:39:57,65.46124329923954
0.23942018,0.038307227,10.508151,-0.02130529,0.010652645,0.013848438,2.0,0.21113867,0.033518825,9.8042555,0.028281508,0.0047884034,0.7038953,-0.0019275099,-0.010732571,-0.3292055,2017-06-12 18:39:58,42.69423794764055
0.23702596,0.05267244,10.500969,-0.02130529,0.011717909,0.014913702,2.0,0.20994157,0.03321955,9.8042555,0.027084406,0.019452889,0.6967127,-0.0019274848,-0.010668064,-0.32978478,2017-06-12 18:39:59,45.18848031652263
0.22744916,0.05746084,10.429143,-0.02130529,0.011717909,0.013848438,2.0,0.20964229,0.031573534,9.8042555,0.017806875,0.025887307,0.62488663,-0.001987854,-0.010629855,-0.3281074,2017-06-12 18:40:00,55.81635359224205
0.2801216,0.050278235,10.54167,-0.02130529,0.010652645,0.013848438,2.0,0.2100912,0.03067571,9.8042555,0.0700304,0.019602526,0.7374141,-0.0020209467,-0.010638147,-0.3270578,2017-06-12 18:40:01,51.05778697271029
0.22026655,0.021547815,10.613496,-0.02130529,0.010652645,0.013848438,2.0,0.20994157,0.029628245,9.8042555,0.010324995,-0.00808043,0.80924016,-0.0020814762,-0.010611161,-0.32812512,2017-06-12 18:40:02,52.38154022671445
0.20829555,0.038307227,10.548853,-0.02130529,0.010652645,0.013848438,2.0,0.20994157,0.029478608,9.8042555,-0.0016460137,0.008828619,0.7445967,-0.0020746011,-0.0106106615,-0.3271126,2017-06-12 18:40:03,46.79656137459637
0.22266077,0.021547815,10.515334,-0.02130529,0.011717909,0.014913702,2.0,0.20874447,0.02873042,9.8042555,0.013916298,-0.007182605,0.7110779,-0.0020937975,-0.010543437,-0.3267932,2017-06-12 18:40:04,34.25067824963952
0.24660277,0.055066638,10.472239,-0.02130529,0.010652645,0.013848438,2.0,0.2088941,0.028281508,9.8042555,0.037708677,0.026785132,0.6679823,-0.0021090396,-0.01054473,-0.32607904,2017-06-12 18:40:05,43.21323015139626
0.20350714,0.04070143,10.43872,-0.02130529,0.011717909,0.013848438,2.0,0.20904374,0.027383681,9.8042555,-0.0055365916,0.013317747,0.6344634,-0.0021545906,-0.01053513,-0.32652566,2017-06-12 18:40:06,42.77706246508265
0.21547815,0.02873042,10.477027,-0.022370553,0.010652645,0.013848438,2.0,0.20814592,0.02633622,9.804405,0.0073322426,0.0023942017,0.672621,-0.0021879347,-0.010478149,-0.32615742,2017-06-12 18:40:07,35.05856616063192
0.20590134,0.04070143,10.486604,-0.02130529,0.010652645,0.013848438,2.0,0.20784664,0.026186582,9.804405,-0.0019452889,0.014514848,0.68219787,-0.0021873657,-0.0104577765,-0.32552886,2017-06-12 18:40:08,34.04041757585527
0.19871874,0.007182605,10.524911,-0.02130529,0.010652645,0.013848438,2.0,0.207697,0.02558803,9.804405,-0.008978256,-0.018405426,0.72050506,-0.002207797,-0.010442759,-0.32508764,2017-06-12 18:40:09,33.8565374403749
0.21308395,0.007182605,10.484209,-0.02130529,0.011717909,0.013848438,2.0,0.20784664,0.025288755,9.804405,0.0052373162,-0.01810615,0.67980367,-0.0022454457,-0.010441239,-0.32689428,2017-06-12 18:40:10,41.588788208049806
0.50038815,0.51475334,10.30225,-0.02130529,0.011717909,0.014913702,2.0,0.2021604,0.045340195,9.804405,0.29822776,0.46941316,0.4978443,-0.0011988664,-0.010500353,-0.32819003,2017-06-12 18:40:11,40.61571745251254
0.31124622,0.019153614,10.649409,-0.02130529,0.011717909,0.014913702,2.0,0.20260932,0.037110128,9.804405,0.1086369,-0.017956512,0.84500355,-0.0015901085,-0.010385015,-0.3272712,2017-06-12 18:40:12,60.508041097178626
0.19393034,0.045489833,10.486604,-0.02130529,0.010652645,0.013848438,2.0,0.20635025,0.03561375,9.804405,-0.012419921,0.009876082,0.68219787,-0.0017339382,-0.010538199,-0.32793272,2017-06-12 18:40:13,50.81168303000162
0.22744916,0.019153614,10.539276,-0.022370553,0.011717909,0.014913702,2.0,0.20590134,0.035164837,9.804405,0.021547815,-0.016011223,0.73487025,-0.0017354758,-0.0105132125,-0.32711193,2017-06-12 18:40:14,36.31784513348683
0.20829555,0.045489833,10.462662,-0.02130529,0.010652645,0.014913702,2.0,0.20530279,0.034865562,9.804405,0.002992752,0.01062427,0.6582558,-0.0017404631,-0.010482281,-0.3270739,2017-06-12 18:40:15,36.20337793616325
0.22266077,0.055066638,10.474632,-0.02130529,0.010652645,0.013848438,2.0,0.20590134,0.034117375,9.804405,0.016759412,0.020949265,0.6702268,-0.0017938884,-0.010490288,-0.3274337,2017-06-12 18:40:16,47.13937802630958
0.23223756,0.009576807,10.500969,-0.02130529,0.010652645,0.013848438,2.0,0.20530279,0.032920275,9.804405,0.026934769,-0.023343466,0.69656307,-0.0018452061,-0.010443257,-0.32822978,2017-06-12 18:40:17,54.120638293157945
0.23463176,0.02873042,10.503363,-0.02130529,0.010652645,0.013848438,2.0,0.20485388,0.031573534,9.804405,0.029777884,-0.0028431145,0.69895726,-0.0019072201,-0.010400264,-0.32860366,2017-06-12 18:40:18,45.37455752562594
0.21308395,0.045489833,10.462662,-0.02130529,0.010652645,0.013848438,2.0,0.20440497,0.03127426,9.804405,0.008678981,0.014215573,0.6582558,-0.0019276794,-0.010366936,-0.32954466,2017-06-12 18:40:19,48.616172426156716
0.19393034,0.011971008,10.505757,-0.02130529,0.010652645,0.013848438,2.0,0.2045546,0.030376434,9.804405,-0.01062427,-0.018405426,0.70135146,-0.0019822158,-0.010361471,-0.3300957,2017-06-12 18:40:20,42.94772973771482
0.21547815,0.031124622,10.448297,-0.02130529,0.010652645,0.013848438,2.0,0.2045546,0.03007716,9.804405,0.010923545,0.0010474633,0.6438906,-0.0019869078,-0.010360501,-0.32940066,2017-06-12 18:40:21,57.388094242226984
0.22744916,0.02633622,10.484209,-0.02130529,0.011717909,0.014913702,2.0,0.2045546,0.029478608,9.804405,0.022894554,-0.0031423897,0.67980367,-0.0020253519,-0.010342459,-0.3302007,2017-06-12 18:40:22,60.42256056999797
0.21308395,-0.021547815,10.457873,-0.022370553,0.011717909,0.014913702,2.0,0.20395605,0.02873042,9.804405,0.009127894,-0.050278235,0.6534674,-0.0020433078,-0.010308452,-0.32926616,2017-06-12 18:40:24,56.189846264993655
0.22266077,0.0023942017,10.481815,-0.02130529,0.011717909,0.013848438,2.0,0.20380642,0.028281508,9.804405,0.018854339,-0.025887307,0.67740947,-0.002069679,-0.010290019,-0.33061755,2017-06-12 18:40:25,58.815688953093726
0.20350714,0.02873042,10.484209,-0.02130529,0.011717909,0.013848438,2.0,0.20365678,0.028431145,9.804405,-1.496376E-4,2.992752E-4,0.67980367,-0.0020602942,-0.010283224,-0.33034736,2017-06-12 18:40:26,49.578283383187916
0.19153613,0.050278235,10.43872,-0.02130529,0.010652645,0.013848438,2.0,0.20350714,0.028580783,9.804405,-0.011971008,0.021697452,0.6343138,-0.002042599,-0.0102848,-0.3296063,2017-06-12 18:40:27,38.126951105963656
0.25378537,0.05267244,10.484209,-0.02130529,0.011717909,0.013848438,2.0,0.20380642,0.028880058,9.804405,0.04997896,0.023792379,0.67980367,-0.002031601,-0.010298828,-0.32951352,2017-06-12 18:40:28,43.4856769719857
0.22505496,0.047884032,10.429143,-0.02130529,0.010652645,0.013848438,2.0,0.20395605,0.028281508,9.804405,0.021098902,0.019602526,0.624737,-0.002078971,-0.010296289,-0.33076617,2017-06-12 18:40:29,42.10460234446191
0.22984336,0.02633622,10.488997,-0.02130529,0.010652645,0.013848438,2.0,0.2045546,0.02813187,9.804405,0.025288755,-0.0017956513,0.68459207,-0.0020864932,-0.010321258,-0.33029193,2017-06-12 18:40:30,45.46952095506082
0.22744916,0.033518825,10.491392,-0.02130529,0.010652645,0.013848438,2.0,0.20425533,0.026934769,9.804405,0.023193829,0.006584055,0.68698627,-0.002163046,-0.010281239,-0.33207276,2017-06-12 18:40:31,42.1139763219334
0.20350714,0.055066638,10.496181,-0.02130529,0.011717909,0.013848438,2.0,0.20440497,0.026635494,9.804405,-8.9782564E-4,0.028431145,0.69177467,-0.0021698903,-0.010291949,-0.33142534,2017-06-12 18:40:32,43.06157420612319
0.20111294,0.01436521,10.474632,-0.02130529,0.011717909,0.013848438,2.0,0.20425533,0.025737667,9.804405,-0.0031423897,-0.011372458,0.6702268,-0.0022093076,-0.010266857,-0.3312619,2017-06-12 18:40:33,50.3026160481504
0.19871874,0.023942016,10.520123,-0.02130529,0.011717909,0.013848438,2.0,0.20440497,0.025288755,9.804405,-0.005686229,-0.0013467384,0.71571666,-0.0022456283,-0.010259339,-0.33219278,2017-06-12 18:40:34,45.82510371308332
0.22266077,0.019153614,10.472239,-0.02130529,0.010652645,0.013848438,2.0,0.20470424,0.024690205,9.804405,0.017956512,-0.0055365916,0.6678326,-0.0022677546,-0.0102723595,-0.33139586,2017-06-12 18:40:35,37.0338229452969
0.22026655,0.04309563,10.469844,-0.02130529,0.010652645,0.013848438,2.0,0.20485388,0.02498948,9.804405,0.015412673,0.01810615,0.6654384,-0.0022481913,-0.010280879,-0.33074862,2017-06-12 18:40:36,54.241119300737054
3.608062,1.1779473,8.255207,0.078829564,-1.385909,-0.28442562,0.0,3.1899745,0.45250413,9.262119,0.41808748,0.7254431,-1.0069114,-0.031922407,-0.16351454,-0.3229758,2017-06-12 18:40:37,58.5003921603526
5.947197,1.8267759,8.726865,0.04580637,-0.070307456,0.044741105,2.0,5.3470006,1.6424223,8.054843,0.6001964,0.18435353,0.67202246,-0.015768047,-0.29843894,-0.32795057,2017-06-12 18:40:38,57.25340844067805
0.45489833,0.94570965,10.19451,-0.8181231,0.28868666,-0.046871636,2.0,0.04833295,0.2853589,9.802311,0.40656537,0.66035074,0.39220017,0.013128987,-0.006754782,-0.30252007,2017-06-12 18:40:39,51.668473026171085
0.17238252,0.016759412,10.488997,-0.02130529,0.010652645,0.013848438,2.0,0.0899322,0.011222821,9.806201,0.08245032,0.0055365916,0.6827964,-8.336874E-4,-0.004553525,-0.3016617,2017-06-12 18:40:40,46.92456385234714
0.19871874,0.04070143,10.500969,-0.02130529,0.011717909,0.013848438,2.0,0.09891046,0.010773907,9.806051,0.09980828,0.029927522,0.694917,-9.808736E-4,-0.004978611,-0.29841265,2017-06-12 18:40:41,49.20671666078219
0.20111294,-0.0023942017,10.469844,-0.02130529,0.011717909,0.013848438,2.0,0.107140526,0.008978256,9.806051,0.093972415,-0.011372458,0.66379243,-0.0011729049,-0.0053582266,-0.29579073,2017-06-12 18:40:42,59.283992224964244
0.21308395,0.021547815,10.498574,-0.022370553,0.010652645,0.013848438,2.0,0.11462241,0.008978256,9.805902,0.098461546,0.012569559,0.6926725,-0.00128912,-0.005718874,-0.295586,2017-06-12 18:40:43,60.029584379291805
0.21547815,-0.011971008,10.536881,-0.02130529,0.010652645,0.014913702,2.0,0.12120646,0.008379706,9.805753,0.09427169,-0.020350715,0.73112935,-0.0014201859,-0.0060307365,-0.29592615,2017-06-12 18:40:44,60.27667878169574
0.20829555,0.007182605,10.508151,-0.02130529,0.010652645,0.013848438,2.0,0.12704232,0.008529344,9.805753,0.08125322,-0.0013467384,0.7023989,-0.001492016,-0.006319929,-0.29457736,2017-06-12 18:40:45,57.9056680649775
0.18914193,0.019153614,10.488997,-0.02130529,0.010652645,0.013848438,2.0,0.13198037,0.0077811554,9.805753,0.057161566,0.011372458,0.6832453,-0.0015986357,-0.0065519037,-0.29423913,2017-06-12 18:40:46,60.58848313459627
0.16998832,0.0,10.479421,-0.02130529,0.010652645,0.013848438,2.0,0.13661914,0.0068833297,9.805603,0.033369187,-0.0068833297,0.6738181,-0.0017015645,-0.0067713754,-0.29280648,2017-06-12 18:40:47,50.68319779494709
0.24899697,-0.011971008,10.46745,-0.02130529,0.011717909,0.013848438,2.0,0.14155717,0.006135142,9.805603,0.1074398,-0.01810615,0.6618471,-0.0018126601,-0.0069958474,-0.29309574,2017-06-12 18:40:48,46.21710838996043
0.21068975,-0.007182605,10.479421,-0.02130529,0.010652645,0.013848438,2.0,0.14499883,0.0053869537,9.805453,0.06569091,-0.012569559,0.6739678,-0.0019063791,-0.0071526775,-0.2933508,2017-06-12 18:40:49,43.406759803165535
0.23463176,-0.0047884034,10.532093,-0.02130529,0.011717909,0.013848438,2.0,0.15008652,0.005087679,9.805453,0.08454525,-0.009876082,0.7266402,-0.001989046,-0.007395665,-0.29284987,2017-06-12 18:40:50,44.77011611683112
0.22266077,0.011971008,10.488997,-0.02130529,0.010652645,0.013848438,2.0,0.15412673,0.005087679,9.805304,0.068534024,0.0068833297,0.68369424,-0.0020446898,-0.0075937985,-0.2920175,2017-06-12 18:40:51,57.378946095512134
0.23942018,0.04070143,10.486604,-0.02130529,0.010652645,0.013848438,2.0,0.15741876,0.0047884034,9.805304,0.08200141,0.035913024,0.68130004,-0.0020980714,-0.0077569876,-0.2909393,2017-06-12 18:40:52,54.850759918595344
0.22026655,0.007182605,10.488997,-0.02130529,0.010652645,0.013848438,2.0,0.16026187,0.005087679,9.805304,0.06000468,0.0020949265,0.68369424,-0.0021242779,-0.007901836,-0.29062393,2017-06-12 18:40:53,50.46895200969746
0.19393034,0.0,10.486604,-0.02130529,0.010652645,0.013848438,2.0,0.16355391,0.0052373162,9.805154,0.030376434,-0.0052373162,0.68144965,-0.002166341,-0.0080627985,-0.29102272,2017-06-12 18:40:54,50.03112337186543
0.20111294,-0.01436521,10.524911,-0.022370553,0.011717909,0.013848438,2.0,0.16609775,0.004938041,9.805154,0.0350152,-0.019303251,0.7197569,-0.0022229692,-0.008177502,-0.29117242,2017-06-12 18:40:55,49.6549013256405
0.21787235,0.038307227,10.465055,-0.02130529,0.011717909,0.013848438,2.0,0.1683423,0.0043394906,9.805154,0.049530048,0.033967737,0.65990186,-0.0022705626,-0.008284534,-0.28986353,2017-06-12 18:40:56,49.35767220465486
0.18435353,-0.023942016,10.491392,-0.022370553,0.010652645,0.013848438,2.0,0.16983868,0.0031423897,9.805154,0.014514848,-0.027084406,0.68623805,-0.0023553884,-0.0083404835,-0.29028726,2017-06-12 18:40:58,53.05585037718605
0.24181437,0.04070143,10.431537,-0.02130529,0.011717909,0.013848438,2.0,0.1714847,0.0035913025,9.805004,0.07032967,0.037110128,0.6265327,-0.0023571681,-0.008427902,-0.29009414,2017-06-12 18:40:59,58.71602829353768
0.21068975,0.0,10.498574,-0.02130529,0.011717909,0.013848438,2.0,0.17357962,0.0031423897,9.805004,0.037110128,-0.0031423897,0.6935703,-0.0024094973,-0.008522901,-0.2899017,2017-06-12 18:41:00,61.57613742260505
0.19871874,0.009576807,10.493786,-0.022370553,0.010652645,0.013848438,2.0,0.17627311,0.0034416649,9.805004,0.022445641,0.006135142,0.6887819,-0.0024349736,-0.008654495,-0.289825,2017-06-12 18:41:01,59.58269227075661
0.16519992,0.031124622,10.462662,-0.02130529,0.010652645,0.014913702,2.0,0.17732057,0.002992752,9.805004,-0.012120646,0.02813187,0.65765727,-0.0024524238,-0.008707862,-0.2872889,2017-06-12 18:41:02,56.631671378228525
0.19871874,-0.019153614,10.484209,-0.02130529,0.010652645,0.013848438,2.0,0.17851767,0.002244564,9.805004,0.020201078,-0.021398177,0.6792051,-0.0024961745,-0.008757095,-0.28678933,2017-06-12 18:41:03,58.02925689303229
0.20111294,-0.0047884034,10.508151,-0.02130529,0.011717909,0.014913702,2.0,0.17926586,0.002244564,9.805004,0.02184709,-0.0070329676,0.7031471,-0.0025223782,-0.008791791,-0.28826866,2017-06-12 18:41:04,54.64975207006784
0.18674773,-0.0023942017,10.462662,-0.02130529,0.011717909,0.013848438,2.0,0.1806126,0.0020949265,9.804854,0.006135142,-0.004489128,0.65780693,-0.0025531063,-0.008849295,-0.2883524,2017-06-12 18:41:05,52.939510859207985
0.19153613,-0.023942016,10.498574,-0.02130529,0.010652645,0.013848438,2.0,0.18136078,0.0020949265,9.804854,0.010175358,-0.026036944,0.6937199,-0.0025710892,-0.008890626,-0.28899384,2017-06-12 18:41:06,54.54576422440982
0.20829555,-0.050278235,10.517728,-0.022370553,0.010652645,0.013848438,2.0,0.18270752,0.0020949265,9.804854,0.02558803,-0.052373163,0.7128736,-0.0025846353,-0.008955974,-0.28892064,2017-06-12 18:41:07,52.918347923291826
0.19393034,0.007182605,10.493786,-0.02130529,0.011717909,0.013848438,2.0,0.18315643,0.002244564,9.804854,0.010773907,0.004938041,0.6889315,-0.0025923513,-0.0089740325,-0.28975183,2017-06-12 18:41:08,47.68557056518357
0.23223756,0.038307227,10.500969,-0.02130529,0.010652645,0.014913702,2.0,0.18315643,0.0032920274,9.804854,0.049081136,0.0350152,0.6961141,-0.0025298204,-0.008998966,-0.2880555,2017-06-12 18:41:09,48.111519408086316
0.21787235,0.0023942017,10.496181,-0.02130529,0.010652645,0.013848438,2.0,0.18390462,0.0028431145,9.804854,0.033967737,-4.4891282E-4,0.6913257,-0.002564364,-0.009021728,-0.28844002,2017-06-12 18:41:10,46.43035454734344
0.23463176,-0.0047884034,10.484209,-0.02130529,0.010652645,0.014913702,2.0,0.18480244,0.0026934769,9.804854,0.049829323,-0.0074818805,0.6793547,-0.0025889967,-0.009068496,-0.2888941,2017-06-12 18:41:11,49.4097145109189
0.21547815,0.009576807,10.508151,-0.02130529,0.011717909,0.013848438,2.0,0.18480244,0.002992752,9.804854,0.03067571,0.006584055,0.7032967,-0.0025666058,-0.00907564,-0.28812104,2017-06-12 18:41:12,40.14813356039178
0.18195933,-0.021547815,10.474632,-0.02130529,0.010652645,0.013848438,2.0,0.18570027,0.0026934769,9.804854,-0.0037409402,-0.024241293,0.6697779,-0.0026085386,-0.009108382,-0.2893647,2017-06-12 18:41:13,48.100914908527216
0.19393034,0.0,10.45069,-0.02130529,0.011717909,0.013848438,2.0,0.18689737,0.002244564,9.804854,0.0070329676,-0.002244564,0.64583594,-0.002644929,-0.009161079,-0.28954545,2017-06-12 18:41:14,44.956738925693706
0.18674773,-0.0047884034,10.474632,-0.022370553,0.010652645,0.013848438,2.0,0.18764555,0.0025438394,9.804854,-8.9782564E-4,-0.0073322426,0.6697779,-0.0026397621,-0.009202789,-0.28874907,2017-06-12 18:41:15,47.77245280866345
0.18674773,0.02873042,10.54167,-0.02130529,0.011717909,0.013848438,2.0,0.18749592,0.002244564,9.804854,-7.48188E-4,0.026485857,0.7368156,-0.0026573827,-0.0091903405,-0.28972375,2017-06-12 18:41:16,47.6193298452293
0.17477672,-0.007182605,10.491392,-0.022370553,0.010652645,0.014913702,2.0,0.18764555,0.002244564,9.804854,-0.012868834,-0.009427169,0.6865373,-0.002667427,-0.00919603,-0.29052496,2017-06-12 18:41:17,47.37955856376545
0.23223756,0.031124622,10.515334,-0.02130529,0.010652645,0.013848438,2.0,0.18749592,0.002244564,9.804854,0.044741645,0.028880058,0.7104794,-0.0026529292,-0.009185455,-0.2894923,2017-06-12 18:41:18,50.992520436107895
0.21787235,-0.0047884034,10.472239,-0.022370553,0.011717909,0.013848438,0.0,0.18854338,0.0025438394,9.804705,0.02932897,-0.0073322426,0.66753334,-0.0026447792,-0.009244663,-0.28842515,2017-06-12 18:41:19,44.038992567241195
0.19632454,0.01436521,10.469844,-0.02130529,0.010652645,0.014913702,2.0,0.18809447,0.0031423897,9.804705,0.008230069,0.011222821,0.66513914,-0.0026033558,-0.009231965,-0.28755987,2017-06-12 18:41:20,47.69542055607743
0.17477672,0.023942016,10.453085,-0.02130529,0.010652645,0.013848438,0.0,0.18764555,0.0032920274,9.804705,-0.012868834,0.02064999,0.64837974,-0.002600791,-0.009216807,-0.28854156,2017-06-12 18:41:21,51.432539966523464
0.1604115,0.021547815,10.491392,-0.022370553,0.011717909,0.013848438,1.0,0.1882441,0.0035913025,9.804705,-0.027832596,0.017956512,0.686687,-0.0025992077,-0.009245525,-0.2894193,2017-06-12 18:41:22,50.94628790538462
0.18435353,0.0,10.522516,-0.02130529,0.011717909,0.013848438,1.0,0.18869302,0.004040215,9.804705,-0.0043394906,-0.004040215,0.7178116,-0.002591147,-0.009269146,-0.29029274,2017-06-12 18:41:23,46.44602050017035
0.20111294,0.019153614,10.496181,-0.02130529,0.011717909,0.013848438,1.0,0.18809447,0.004189853,9.804705,0.013018472,0.014963761,0.6914754,-0.002592273,-0.009242184,-0.29145968,2017-06-12 18:41:24,59.7221915522346
0.19871874,0.019153614,10.493786,-0.022370553,0.011717909,0.014913702,1.0,0.18899229,0.0043394906,9.804705,0.009726444,0.014814123,0.6890812,-0.00260087,-0.009288995,-0.29225507,2017-06-12 18:41:25,61.83691537139444
0.20829555,0.019153614,10.431537,-0.022370553,0.011717909,0.013848438,1.0,0.18929157,0.0047884034,9.804705,0.019003976,0.01436521,0.62683195,-0.002573236,-0.00931031,-0.29068017,2017-06-12 18:41:26,53.2427031992491
0.1604115,0.016759412,10.522516,-0.02130529,0.010652645,0.013848438,1.0,0.18959084,0.004489128,9.804705,-0.029179333,0.012270284,0.7178116,-0.0025924267,-0.009318586,-0.29108176,2017-06-12 18:41:27,51.15655289051128
0.19632454,0.011971008,10.479421,-0.02130529,0.011717909,0.013848438,1.0,0.18959084,0.004189853,9.804705,0.0067336923,0.0077811554,0.674716,-0.0026026266,-0.00931828,-0.29049236,2017-06-12 18:41:28,42.97556317804422
0.21068975,0.02633622,10.469844,-0.02130529,0.010652645,0.013848438,1.0,0.18959084,0.004040215,9.804705,0.021098902,0.022296004,0.66513914,-0.002623381,-0.009311297,-0.2916479,2017-06-12 18:41:29,43.65623144644069
0.22984336,0.023942016,10.477027,-0.02130529,0.011717909,0.013848438,1.0,0.1894412,0.004189853,9.804705,0.040402155,0.019752163,0.67232174,-0.0026094858,-0.009305944,-0.29187885,2017-06-12 18:41:30,48.021465699258215
0.22744916,0.0023942017,10.503363,-0.02130529,0.010652645,0.013848438,2.0,0.19018939,0.0047884034,9.804705,0.037259765,-0.0023942017,0.698658,-0.0026040953,-0.009346455,-0.29270542,2017-06-12 18:41:31,58.25993638361308
0.21547815,0.01436521,10.505757,-0.02130529,0.010652645,0.013848438,2.0,0.18974048,0.004638766,9.804705,0.025737667,0.009726444,0.7010522,-0.0025784103,-0.009328874,-0.29058433,2017-06-12 18:41:32,57.59184243936876
0.23942018,0.016759412,10.443508,-0.02130529,0.011717909,0.013848438,2.0,0.19048867,0.004489128,9.804705,0.048931498,0.012270284,0.63880295,-0.0025958922,-0.009365052,-0.29020548,2017-06-12 18:41:33,54.441010887983836
0.19632454,-0.01436521,10.491392,-0.02130529,0.010652645,0.013848438,2.0,0.19048867,0.004938041,9.804705,0.0058358666,-0.019303251,0.686687,-0.0025710817,-0.0093769105,-0.28946266,2017-06-12 18:41:35,49.05887936207983
0.21787235,0.0023942017,10.546458,-0.022370553,0.011717909,0.013848438,2.0,0.19048867,0.004489128,9.804705,0.027383681,-0.0020949265,0.74175364,-0.002588492,-0.009372116,-0.289387,2017-06-12 18:41:36,54.41200669220766
0.18914193,-0.047884032,10.457873,-0.02130529,0.010652645,0.013848438,2.0,0.19048867,0.004189853,9.804705,-0.0013467384,-0.05207389,0.65316814,-0.0025837123,-0.0093678795,-0.28755105,2017-06-12 18:41:37,59.19901722320907
0.22266077,-0.0047884034,10.493786,-0.02130529,0.010652645,0.013848438,2.0,0.19078794,0.004040215,9.804705,0.03187281,-0.008828619,0.6890812,-0.0025984915,-0.009379205,-0.2879913,2017-06-12 18:41:38,57.92042683580551
0.19632454,0.0023942017,10.484209,-0.022370553,0.010652645,0.013848438,2.0,0.1906383,0.004489128,9.804705,0.005686229,-0.0020949265,0.6795044,-0.0025739688,-0.009382726,-0.28750026,2017-06-12 18:41:39,46.69386307691742
0.19393034,0.04309563,10.429143,-0.02130529,0.010652645,0.014913702,2.0,0.19138649,0.004938041,9.804705,0.0025438394,0.03815759,0.62443775,-0.0025570123,-0.009427902,-0.28722087,2017-06-12 18:41:40,50.42683305710838
0.20829555,0.023942016,10.488997,-0.02130529,0.010652645,0.013848438,2.0,0.19198506,0.0038905777,9.804705,0.0163105,0.020051438,0.6842928,-0.0026330743,-0.009436386,-0.2887631,2017-06-12 18:41:41,50.21332919942941
0.21787235,-0.007182605,10.486604,-0.02130529,0.011717909,0.013848438,2.0,0.19198506,0.0032920274,9.804705,0.025887307,-0.0104746325,0.6818986,-0.002673272,-0.009424726,-0.28988123,2017-06-12 18:41:42,47.6952984630504
0.22505496,0.04309563,10.517728,-0.02130529,0.011717909,0.013848438,2.0,0.19183542,0.0034416649,9.804705,0.03321955,0.039653964,0.7130232,-0.0026467945,-0.009418456,-0.287967,2017-06-12 18:41:43,42.04615279316115
0.22266077,-0.033518825,10.510546,-0.02130529,0.010652645,0.013848438,2.0,0.19243397,0.0034416649,9.804705,0.030226797,-0.03696049,0.7058406,-0.0026443386,-0.009452913,-0.28691587,2017-06-12 18:41:44,42.52257565704444
0.25139117,0.038307227,10.481815,-0.022370553,0.010652645,0.013848438,2.0,0.19318216,0.004040215,9.804705,0.058209028,0.034267012,0.6771102,-0.0026348457,-0.009501058,-0.2875804,2017-06-12 18:41:45,46.261106892737274
0.23702596,0.009576807,10.479421,-0.02130529,0.010652645,0.013848438,2.0,0.19303252,0.0038905777,9.804705,0.043993454,0.005686229,0.674716,-0.0026421444,-0.009483496,-0.2881654,2017-06-12 18:41:46,45.13460448980538
0.21787235,0.047884032,10.529699,-0.02130529,0.010652645,0.013848438,2.0,0.19288288,0.004040215,9.804705,0.02498948,0.043843817,0.7249942,-0.0026429975,-0.009476857,-0.28913504,2017-06-12 18:41:47,44.02423451192806
0.21547815,0.04309563,10.488997,-0.02130529,0.011717909,0.013848438,2.0,0.19288288,0.0052373162,9.804705,0.022595279,0.037858315,0.6842928,-0.0025731456,-0.009499645,-0.28825232,2017-06-12 18:41:48,43.82773760901091
0.22984336,0.031124622,10.536881,-0.02130529,0.011717909,0.013848438,2.0,0.19243397,0.005087679,9.804705,0.037409402,0.026036944,0.7321768,-0.0025777547,-0.0094719855,-0.288112,2017-06-12 18:41:49,47.83860905183788
0.17477672,-0.0047884034,10.486604,-0.022370553,0.011717909,0.013848438,2.0,0.19318216,0.0055365916,9.804705,-0.018405426,-0.010324995,0.6818986,-0.0025616381,-0.009519285,-0.2878952,2017-06-12 18:41:50,51.47262077118213
0.24420857,0.01436521,10.527305,-0.02130529,0.011717909,0.014913702,2.0,0.19288288,0.005686229,9.804705,0.051325697,0.008678981,0.7226,-0.0025517773,-0.009507553,-0.28815073,2017-06-12 18:41:51,49.79021808340051
0.16519992,-0.01436521,10.517728,-0.02130529,0.010652645,0.013848438,2.0,0.1921347,0.0053869537,9.804705,-0.026934769,-0.019752163,0.7130232,-0.0025465507,-0.009467908,-0.28695115,2017-06-12 18:41:52,41.589894164637286
0.19871874,0.019153614,10.457873,-0.02130529,0.011717909,0.013848438,2.0,0.19183542,0.004938041,9.804705,0.0068833297,0.014215573,0.65316814,-0.0025650794,-0.009448208,-0.28743133,2017-06-12 18:41:53,45.35367412921971
0.20111294,0.033518825,10.496181,-0.02130529,0.011717909,0.013848438,2.0,0.19078794,0.004938041,9.804705,0.010324995,0.028580783,0.6914754,-0.0025630519,-0.009390882,-0.28839833,2017-06-12 18:41:54,40.397824852433146
0.22026655,-0.007182605,10.453085,-0.02130529,0.011717909,0.013848438,2.0,0.19108722,0.004938041,9.804705,0.029179333,-0.012120646,0.64837974,-0.0025764424,-0.009402456,-0.28949538,2017-06-12 18:41:55,39.82498428933735
0.21547815,0.019153614,10.500969,-0.022370553,0.011717909,0.013848438,2.0,0.19123685,0.0053869537,9.804705,0.024241293,0.013766659,0.6962638,-0.0025625806,-0.009414857,-0.28982025,2017-06-12 18:41:56,46.0171496341819
0.21787235,0.0,10.45069,-0.02130529,0.010652645,0.013848438,2.0,0.19183542,0.005087679,9.804705,0.026036944,-0.005087679,0.64598554,-0.0025781207,-0.009444535,-0.28908855,2017-06-12 18:41:57,59.750926312711016
0.20829555,-0.031124622,10.532093,-0.02130529,0.011717909,0.013848438,2.0,0.19123685,0.0043394906,9.804705,0.017058687,-0.03546411,0.7273884,-0.0026027346,-0.009402107,-0.28918356,2017-06-12 18:41:58,56.956077322881015
0.19153613,0.0023942017,10.424355,-0.02130529,0.011717909,0.013848438,2.0,0.19198506,0.0047884034,9.804705,-4.4891282E-4,-0.0023942017,0.61964935,-0.00259378,-0.009444293,-0.28890294,2017-06-12 18:41:59,56.25923238319452
0.20111294,0.0047884034,10.503363,-0.02130529,0.011717909,0.013848438,2.0,0.19243397,0.004638766,9.804705,0.008678981,1.496376E-4,0.698658,-0.0025991881,-0.009466813,-0.2880892,2017-06-12 18:42:00,53.01995644995225
0.23942018,0.021547815,10.433931,-0.02130529,0.010652645,0.013848438,2.0,0.19198506,0.004938041,9.804705,0.04743512,0.016609775,0.62922615,-0.0025776885,-0.009448104,-0.28794798,2017-06-12 18:42:01,49.93811815900792
0.21547815,-0.011971008,10.443508,-0.022370553,0.010652645,0.014913702,2.0,0.19183542,0.004040215,9.804705,0.023642741,-0.016011223,0.63880295,-0.002617891,-0.009428488,-0.28804308,2017-06-12 18:42:02,49.943135546180855
0.24660277,-0.01436521,10.43872,-0.02130529,0.010652645,0.013848438,2.0,0.19168578,0.004489128,9.804705,0.054917,-0.018854339,0.63401455,-0.0025966913,-0.009427427,-0.28840476,2017-06-12 18:42:03,51.82555251059293
0.20350714,-0.007182605,10.493786,-0.02130529,0.010652645,0.013848438,2.0,0.19108722,0.004489128,9.804705,0.012419921,-0.011671733,0.6890812,-0.0026020939,-0.009397816,-0.28968033,2017-06-12 18:42:04,50.36182960391805
0.20350714,-0.021547815,10.522516,-0.02130529,0.010652645,0.013848438,2.0,0.19153613,0.0043394906,9.804705,0.011971008,-0.025887307,0.7178116,-0.0026118075,-0.009416003,-0.28919324,2017-06-12 18:42:05,50.907325735038995
0.21787235,0.0047884034,10.484209,-0.02130529,0.010652645,0.013848438,2.0,0.19033903,0.004938041,9.804705,0.027533319,-1.496376E-4,0.6795044,-0.002570955,-0.009367277,-0.2895754,2017-06-12 18:42:06,48.11831336950958
0.24420857,0.031124622,10.474632,-0.02130529,0.010652645,0.014913702,2.0,0.19138649,0.0047884034,9.804705,0.052822076,0.02633622,0.66992754,-0.00258895,-0.009415428,-0.2896609,2017-06-12 18:42:07,51.00715813051398
0.19153613,-0.035913024,10.477027,-0.02130529,0.010652645,0.014913702,2.0,0.19168578,0.0043394906,9.804705,-1.496376E-4,-0.040252518,0.67232174,-0.0025999686,-0.009430645,-0.28800592,2017-06-12 18:42:08,50.215165338382654
0.20829555,0.04309563,10.453085,-0.02130529,0.011717909,0.013848438,2.0,0.19123685,0.004189853,9.804705,0.017058687,0.038905777,0.64837974,-0.002616371,-0.009397247,-0.2893185,2017-06-12 18:42:09,48.630843137769936
0.15322891,-0.016759412,10.474632,-0.02130529,0.011717909,0.013848438,2.0,0.1906383,0.0038905777,9.804705,-0.037409402,-0.02064999,0.66992754,-0.0026223147,-0.0093644075,-0.28969046,2017-06-12 18:42:10,48.76330938424936
0.20590134,0.019153614,10.453085,-0.022370553,0.011717909,0.014913702,2.0,0.19093758,0.004638766,9.804705,0.014963761,0.014514848,0.64837974,-0.0025891792,-0.009391785,-0.2895324,2017-06-12 18:42:11,49.084084688471556
0.18674773,0.02873042,10.469844,-0.02130529,0.010652645,0.013848438,2.0,0.19108722,0.0047884034,9.804705,-0.0043394906,0.023942016,0.66513914,-0.002589791,-0.009400774,-0.28978872,2017-06-12 18:42:13,50.32202618652259
0.20111294,0.047884032,10.477027,-0.02130529,0.010652645,0.013848438,2.0,0.19093758,0.0055365916,9.804705,0.010175358,0.042347442,0.67232174,-0.0025507705,-0.009401374,-0.29042798,2017-06-12 18:42:14,47.222962766097545
0.20111294,-0.007182605,10.46745,-0.02130529,0.010652645,0.014913702,2.0,0.19033903,0.006584055,9.804705,0.010773907,-0.013766659,0.66274494,-0.0024857968,-0.009390286,-0.28940693,2017-06-12 18:42:15,50.04429956223628
0.20111294,0.01436521,10.496181,-0.02130529,0.010652645,0.013848438,2.0,0.19093758,0.0070329676,9.804705,0.010175358,0.0073322426,0.6914754,-0.0024689287,-0.009429914,-0.28922004,2017-06-12 18:42:16,46.901167660348165
0.17477672,0.016759412,10.484209,-0.02130529,0.011717909,0.014913702,2.0,0.19018939,0.007182605,9.804705,-0.015412673,0.009576807,0.6795044,-0.0024571046,-0.009395558,-0.28983647,2017-06-12 18:42:17,53.97059684302097
0.14844051,0.04309563,10.524911,-0.02130529,0.011717909,0.014913702,2.0,0.1906383,0.006434417,9.804705,-0.042197805,0.036661215,0.7202058,-0.0024904646,-0.009402595,-0.288937,2017-06-12 18:42:18,56.796091980989516
0.18195933,-0.009576807,10.484209,-0.022370553,0.010652645,0.013848438,2.0,0.19048867,0.006434417,9.804705,-0.008529344,-0.016011223,0.6795044,-0.0024832627,-0.009396626,-0.28869003,2017-06-12 18:42:19,44.74613593486439
0.21068975,0.021547815,10.481815,-0.02130529,0.010652645,0.013848438,2.0,0.19078794,0.0053869537,9.804705,0.0199018,0.01616086,0.6771102,-0.0025383756,-0.009396935,-0.28861895,2017-06-12 18:42:20,54.50465704231587
0.20350714,0.007182605,10.455479,-0.02130529,0.011717909,0.014913702,2.0,0.19003975,0.0055365916,9.804705,0.0134673845,0.0016460137,0.65077394,-0.0025243144,-0.0093637165,-0.2885932,2017-06-12 18:42:21,50.94632938044867
0.21068975,0.009576807,10.500969,-0.02130529,0.011717909,0.014913702,2.0,0.1906383,0.005985504,9.804705,0.020051438,0.0035913025,0.6962638,-0.002493973,-0.0094004925,-0.2872348,2017-06-12 18:42:22,46.26695690430165
0.20590134,0.033518825,10.465055,-0.02130529,0.010652645,0.013848438,2.0,0.19183542,0.006584055,9.804705,0.014065935,0.026934769,0.66035074,-0.0024880655,-0.009467579,-0.28762808,2017-06-12 18:42:23,47.03391429904863
0.23942018,0.007182605,10.515334,-0.02130529,0.010652645,0.013848438,2.0,0.19198506,0.0074818805,9.804705,0.04743512,-2.992752E-4,0.710629,-0.0024610376,-0.0094848,-0.28929892,2017-06-12 18:42:24,49.50118911753102
0.20829555,0.045489833,10.493786,-0.02130529,0.010652645,0.013848438,2.0,0.19108722,0.0074818805,9.804705,0.017208325,0.038007952,0.6890812,-0.0024535637,-0.009439172,-0.2899316,2017-06-12 18:42:25,44.96504495913641
0.19393034,0.009576807,10.424355,-0.02130529,0.010652645,0.013848438,2.0,0.19078794,0.007182605,9.804705,0.0031423897,0.0023942017,0.61964935,-0.0024465555,-0.009423988,-0.28765205,2017-06-12 18:42:26,50.015847116820126
0.19632454,-0.011971008,10.536881,-0.02130529,0.010652645,0.013848438,2.0,0.19048867,0.0067336923,9.804705,0.0058358666,-0.018704701,0.7321768,-0.0024606455,-0.0094037475,-0.28733796,2017-06-12 18:42:27,54.85126691970124
0.24420857,0.016759412,10.484209,-0.02130529,0.011717909,0.013848438,2.0,0.19048867,0.006434417,9.804705,0.0537199,0.010324995,0.6795044,-0.002478606,-0.009397186,-0.28799367,2017-06-12 18:42:28,58.36305281098875
0.22505496,0.0023942017,10.436325,-0.02130529,0.010652645,0.013848438,2.0,0.1906383,0.0062847794,9.804705,0.03441665,-0.0038905777,0.63162035,-0.002500806,-0.009402056,-0.28873888,2017-06-12 18:42:29,57.72739824843185
0.17477672,-0.023942016,10.500969,-0.022370553,0.010652645,0.013848438,2.0,0.19003975,0.005985504,9.804705,-0.015263036,-0.029927522,0.6962638,-0.0025001839,-0.009374502,-0.28835365,2017-06-12 18:42:30,59.537580600562464
0.20111294,0.011971008,10.436325,-0.02130529,0.010652645,0.014913702,2.0,0.18959084,0.0067336923,9.804705,0.011522096,0.0052373162,0.63162035,-0.0024433006,-0.009363448,-0.28728545,2017-06-12 18:42:31,58.82262944514194
0.19632454,0.021547815,10.491392,-0.02130529,0.011717909,0.014913702,2.0,0.18929157,0.007182605,9.804705,0.0070329676,0.01436521,0.686687,-0.0024244199,-0.009352245,-0.28747353,2017-06-12 18:42:32,52.75936654456237
0.23702596,-0.007182605,10.505757,-0.02130529,0.010652645,0.014913702,2.0,0.18959084,0.006584055,9.804705,0.04743512,-0.013766659,0.7010522,-0.0024487209,-0.009359986,-0.2870779,2017-06-12 18:42:33,43.7953627926506
0.20111294,0.01436521,10.536881,-0.02130529,0.010652645,0.014913702,2.0,0.18929157,0.0068833297,9.804705,0.011821371,0.0074818805,0.7321768,-0.0024328148,-0.00935431,-0.2869567,2017-06-12 18:42:34,53.12253095411914
0.20350714,0.035913024,10.441113,-0.02130529,0.011717909,0.013848438,2.0,0.18929157,0.0068833297,9.804705,0.014215573,0.029029695,0.63640875,-0.002423524,-0.009355657,-0.28593683,2017-06-12 18:42:35,49.12978555418614
0.22744916,0.011971008,10.453085,-0.02130529,0.010652645,0.014913702,2.0,0.19033903,0.006434417,9.804705,0.037110128,0.0055365916,0.64837974,-0.0024639135,-0.009394052,-0.28637746,2017-06-12 18:42:36,48.265822633388076
0.15562311,-0.031124622,10.484209,-0.02130529,0.010652645,0.014913702,2.0,0.19018939,0.0058358666,9.804705,-0.034566287,-0.03696049,0.6795044,-0.0025040163,-0.009375898,-0.28777748,2017-06-12 18:42:37,59.30939984597474
0.20111294,0.007182605,10.524911,-0.022370553,0.010652645,0.013848438,2.0,0.18899229,0.006135142,9.804705,0.012120646,0.0010474633,0.7202058,-0.0024794554,-0.009323884,-0.2883473,2017-06-12 18:42:38,57.80683509275995
0.24420857,-0.01436521,10.479421,-0.02130529,0.011717909,0.014913702,2.0,0.18914193,0.0058358666,9.804705,0.055066638,-0.020201078,0.674716,-0.0024964241,-0.009324744,-0.28899625,2017-06-12 18:42:39,54.656910761010664
0.20829555,0.033518825,10.484209,-0.02130529,0.010652645,0.013848438,2.0,0.18884265,0.005985504,9.804705,0.019452889,0.027533319,0.6795044,-0.0025005434,-0.009305191,-0.29032126,2017-06-12 18:42:40,53.38927579716988
0.25617957,-0.011971008,10.527305,-0.02130529,0.010652645,0.014913702,2.0,0.18959084,0.005686229,9.804705,0.06658874,-0.017657237,0.7226,-0.0025305478,-0.0093402695,-0.29097494,2017-06-12 18:42:41,39.242293317837685
0.20590134,-0.019153614,10.508151,-0.02130529,0.011717909,0.014913702,2.0,0.18899229,0.006135142,9.804705,0.01690905,-0.025288755,0.7034464,-0.0024837656,-0.009319609,-0.2894558,2017-06-12 18:42:42,42.37153677650586
0.21547815,0.0,10.457873,-0.02130529,0.011717909,0.014913702,2.0,0.18884265,0.005686229,9.804705,0.026635494,-0.005686229,0.65316814,-0.0025082752,-0.009302737,-0.2895433,2017-06-12 18:42:43,48.92300797214091
0.21547815,0.0,10.520123,-0.02130529,0.011717909,0.013848438,2.0,0.18764555,0.005985504,9.804854,0.027832596,-0.005985504,0.7152678,-0.0024692863,-0.009251566,-0.28863755,2017-06-12 18:42:44,45.0533873946719
0.23463176,0.0,10.474632,-0.02130529,0.011717909,0.014913702,2.0,0.18779519,0.0053869537,9.804705,0.04683657,-0.0053869537,0.66992754,-0.0024890862,-0.009256578,-0.28729877,2017-06-12 18:42:46,40.65629113071873
0.17238252,-0.0047884034,10.45069,-0.022370553,0.010652645,0.013848438,2.0,0.1882441,0.005087679,9.804705,-0.015861586,-0.009876082,0.64598554,-0.0025028056,-0.009277615,-0.28684375,2017-06-12 18:42:47,39.5675116715955
0.18195933,-0.007182605,10.534488,-0.022370553,0.010652645,0.014913702,2.0,0.1882441,0.0055365916,9.804705,-0.0062847794,-0.012719196,0.7297826,-0.0024870606,-0.0092789065,-0.287659,2017-06-12 18:42:48,44.8684053585736
0.20590134,0.021547815,10.409989,-0.02130529,0.011717909,0.013848438,2.0,0.18764555,0.005686229,9.804705,0.018255789,0.015861586,0.6052841,-0.002464774,-0.009249749,-0.2871405,2017-06-12 18:42:49,54.838584532142384
0.20829555,0.023942016,10.5704,-0.02130529,0.011717909,0.013848438,2.0,0.18764555,0.006434417,9.804705,0.02064999,0.0175076,0.76569563,-0.0024136677,-0.0092670955,-0.2855334,2017-06-12 18:42:50,52.89327478070489
0.22744916,-0.033518825,10.503363,-0.022370553,0.011717909,0.013848438,2.0,0.18794483,0.006135142,9.804705,0.039504327,-0.039653964,0.698658,-0.0024441136,-0.00927168,-0.28673673,2017-06-12 18:42:51,51.23265604671914
0.21547815,0.055066638,10.524911,-0.02130529,0.011717909,0.013848438,2.0,0.18854338,0.0068833297,9.804705,0.026934769,0.04818331,0.7202058,-0.002430424,-0.009314968,-0.28777066,2017-06-12 18:42:52,48.68917408879699
0.20829555,0.01436521,10.5704,-0.02130529,0.011717909,0.014913702,2.0,0.18884265,0.0070329676,9.804705,0.019452889,0.0073322426,0.76569563,-0.0024417331,-0.009324045,-0.28926197,2017-06-12 18:42:53,41.200925716764914
0.20350714,0.02633622,10.472239,-0.02130529,0.010652645,0.013848438,2.0,0.18929157,0.005985504,9.804705,0.014215573,0.020350715,0.66753334,-0.0024986062,-0.009331968,-0.28965762,2017-06-12 18:42:54,45.51576483577271
0.19871874,0.02873042,10.481815,-0.02130529,0.011717909,0.014913702,2.0,0.18914193,0.0067336923,9.804705,0.009576807,0.021996727,0.6771102,-0.0024551982,-0.009337564,-0.28859803,2017-06-12 18:42:55,49.41554210894256
0.20350714,0.0047884034,10.498574,-0.02130529,0.010652645,0.014913702,2.0,0.18869302,0.0073322426,9.804705,0.014814123,-0.0025438394,0.6938696,-0.0024205614,-0.009319451,-0.2892477,2017-06-12 18:42:56,54.64501637134568
0.21068975,0.045489833,10.508151,-0.02130529,0.011717909,0.014913702,2.0,0.18884265,0.00808043,9.804705,0.02184709,0.037409402,0.7034464,-0.0024013715,-0.009334401,-0.29080263,2017-06-12 18:42:57,52.01548392582137
0.21547815,0.011971008,10.469844,-0.02130529,0.010652645,0.013848438,2.0,0.18914193,0.007930793,9.804705,0.02633622,0.004040215,0.66513914,-0.0024171062,-0.0093492,-0.29103893,2017-06-12 18:42:58,57.494666431907945
0.20590134,0.009576807,10.572795,-0.02130529,0.011717909,0.013848438,2.0,0.18914193,0.00808043,9.804705,0.016759412,0.001496376,0.76808983,-0.002401583,-0.009350623,-0.28999218,2017-06-12 18:42:59,53.192278837815216
0.22984336,-0.023942016,10.491392,-0.02130529,0.011717909,0.013848438,2.0,0.18989012,0.008230069,9.804705,0.03995324,-0.032172084,0.686687,-0.002399535,-0.009393756,-0.28927636,2017-06-12 18:43:00,51.720322880653455
0.21787235,0.0023942017,10.481815,-0.02130529,0.010652645,0.013848438,2.0,0.19018939,0.007930793,9.804705,0.027682956,-0.0055365916,0.6771102,-0.0024187444,-0.0094065,-0.28948286,2017-06-12 18:43:01,55.07731369306469
0.22984336,-0.011971008,10.465055,-0.02130529,0.011717909,0.014913702,2.0,0.19048867,0.008230069,9.804705,0.03935469,-0.020201078,0.66035074,-0.0024100207,-0.009421301,-0.28993276,2017-06-12 18:43:02,49.872057535061074
0.19153613,-0.0047884034,10.46745,-0.02130529,0.011717909,0.013848438,2.0,0.18989012,0.008230069,9.804705,0.0016460137,-0.013018472,0.66274494,-0.0024032732,-0.00939437,-0.29000083,2017-06-12 18:43:03,45.524378098845276
0.19632454,0.023942016,10.515334,-0.02130529,0.010652645,0.013848438,2.0,0.19003975,0.007631518,9.804705,0.0062847794,0.0163105,0.710629,-0.0024445113,-0.009391472,-0.29101235,2017-06-12 18:43:04,45.795634768765
0.19871874,-0.04309563,10.515334,-0.022370553,0.010652645,0.013848438,2.0,0.18959084,0.008230069,9.804705,0.009127894,-0.051325697,0.710629,-0.0023980914,-0.009378788,-0.2901464,2017-06-12 18:43:05,43.25659096077355
0.16759412,0.009576807,10.481815,-0.022370553,0.010652645,0.013848438,2.0,0.18899229,0.0077811554,9.804705,-0.021398177,0.0017956513,0.6771102,-0.0024201078,-0.009340254,-0.2905962,2017-06-12 18:43:06,56.94238862113992
0.21308395,0.019153614,10.551247,-0.02130529,0.010652645,0.013848438,2.0,0.1882441,0.007631518,9.804705,0.024839843,0.011522096,0.74654204,-0.002407113,-0.009301176,-0.29000077,2017-06-12 18:43:07,48.75963687845669
0.17238252,0.007182605,10.503363,-0.02130529,0.010652645,0.013848438,2.0,0.18779519,0.0068833297,9.804705,-0.015412673,2.992752E-4,0.698658,-0.0024301158,-0.009274717,-0.28906885,2017-06-12 18:43:08,55.177677775285886
0.22266077,-0.007182605,10.453085,-0.02130529,0.011717909,0.013848438,2.0,0.1882441,0.006584055,9.804705,0.03441665,-0.013766659,0.64837974,-0.0024475465,-0.009291598,-0.2887241,2017-06-12 18:43:09,54.65371572535449
0.21787235,0.011971008,10.43872,-0.022370553,0.011717909,0.013848438,2.0,0.1882441,0.0068833297,9.804705,0.029628245,0.005087679,0.63401455,-0.0024482645,-0.009295422,-0.29029477,2017-06-12 18:43:10,51.71323007012798
0.19632454,0.01436521,10.445902,-0.02130529,0.011717909,0.013848438,2.0,0.18884265,0.0070329676,9.804705,0.0074818805,0.0073322426,0.64119714,-0.0024472233,-0.009323239,-0.28991282,2017-06-12 18:43:11,51.432289411383564
0.21068975,-0.009576807,10.493786,-0.02130529,0.011717909,0.013848438,2.0,0.18869302,0.0068833297,9.804705,0.021996727,-0.016460137,0.6890812,-0.0024574567,-0.009309948,-0.290456,2017-06-12 18:43:12,47.80068238625357
0.22266077,0.009576807,10.460267,-0.02130529,0.011717909,0.013848438,2.0,0.18899229,0.006135142,9.804705,0.033668462,0.0034416649,0.65556234,-0.0024822997,-0.009323201,-0.2890269,2017-06-12 18:43:13,46.75044305745328
0.19632454,0.031124622,10.46745,-0.02130529,0.010652645,0.013848438,2.0,0.18929157,0.006135142,9.804705,0.0070329676,0.02498948,0.66274494,-0.0024745986,-0.009341926,-0.28722316,2017-06-12 18:43:14,48.66861079884559
0.22266077,0.0,10.45069,-0.02130529,0.010652645,0.014913702,2.0,0.18959084,0.006584055,9.804705,0.033069912,-0.006584055,0.64598554,-0.0024519302,-0.009359813,-0.28706154,2017-06-12 18:43:15,46.53300092691333
0.20350714,0.047884032,10.472239,-0.02130529,0.011717909,0.013848438,2.0,0.18914193,0.0070329676,9.804705,0.01436521,0.040851068,0.66753334,-0.0024185106,-0.009343954,-0.28706327,2017-06-12 18:43:16,48.67052696117342
0.17477672,0.02873042,10.429143,-0.022370553,0.011717909,0.013848438,2.0,0.18839374,0.007182605,9.804705,-0.013617022,0.021547815,0.62443775,-0.0024265759,-0.0093066385,-0.28932667,2017-06-12 18:43:17,50.17638999871758
0.18195933,-0.0047884034,10.512939,-0.02130529,0.010652645,0.013848438,2.0,0.18809447,0.006434417,9.804705,-0.006135142,-0.011222821,0.7082348,-0.0024535805,-0.009281068,-0.2890659,2017-06-12 18:43:18,61.099183199024395
0.16998832,0.0,10.520123,-0.02130529,0.010652645,0.013848438,2.0,0.18854338,0.005985504,9.804705,-0.018555064,-0.005985504,0.7154174,-0.0024771858,-0.009301891,-0.288279,2017-06-12 18:43:19,51.393424268462375
0.16280572,-0.0047884034,10.515334,-0.02130529,0.010652645,0.013848438,2.0,0.1882441,0.0062847794,9.804705,-0.025438393,-0.011073183,0.710629,-0.0024528187,-0.009290535,-0.28767937,2017-06-12 18:43:20,65.81262710548671
0.18435353,-0.01436521,10.539276,-0.022370553,0.011717909,0.014913702,2.0,0.18839374,0.0058358666,9.804705,-0.004040215,-0.020201078,0.734571,-0.0024830028,-0.009291762,-0.28867334,2017-06-12 18:43:21,58.902383533669806
0.19153613,0.023942016,10.460267,-0.02130529,0.010652645,0.013848438,2.0,0.18884265,0.006135142,9.804705,0.0026934769,0.017806875,0.65556234,-0.0024802694,-0.009314824,-0.28851742,2017-06-12 18:43:23,50.558219328689404
0.23463176,0.0023942017,10.433931,-0.02130529,0.010652645,0.014913702,2.0,0.18899229,0.0058358666,9.804705,0.04563947,-0.0034416649,0.62922615,-0.002493958,-0.009313741,-0.2889762,2017-06-12 18:43:24,57.94723251216341
0.17238252,0.023942016,10.493786,-0.02130529,0.010652645,0.013848438,2.0,0.18899229,0.0053869537,9.804705,-0.016609775,0.018555064,0.6890812,-0.0025177319,-0.0093117235,-0.2890873,2017-06-12 18:43:25,54.195924718472284
0.20350714,-0.031124622,10.503363,-0.02130529,0.011717909,0.014913702,2.0,0.18899229,0.004938041,9.804705,0.014514848,-0.03606266,0.698658,-0.0025427956,-0.009300394,-0.28883925,2017-06-12 18:43:26,56.763656863785044
0.17238252,-0.04309563,10.515334,-0.02130529,0.010652645,0.013848438,2.0,0.18854338,0.0047884034,9.804705,-0.01616086,-0.047884032,0.710629,-0.0025566388,-0.009271198,-0.29036823,2017-06-12 18:43:27,52.567388307012195
0.19153613,0.01436521,10.498574,-0.022370553,0.010652645,0.013848438,2.0,0.18854338,0.005087679,9.804705,0.002992752,0.009277532,0.6938696,-0.0025298893,-0.009285863,-0.28918555,2017-06-12 18:43:28,59.84701416980042
0.23702596,0.035913024,10.496181,-0.02130529,0.010652645,0.013848438,2.0,0.18929157,0.005087679,9.804705,0.047734395,0.030825347,0.6914754,-0.0025505302,-0.00931908,-0.29050872,2017-06-12 18:43:29,54.761567217326615
0.18195933,0.02873042,10.500969,-0.02130529,0.010652645,0.013848438,2.0,0.18884265,0.005087679,9.804705,-0.0068833297,0.023642741,0.6962638,-0.0025435872,-0.009294187,-0.2903941,2017-06-12 18:43:30,49.56766397093168
0.19393034,0.009576807,10.486604,-0.02130529,0.010652645,0.014913702,2.0,0.18914193,0.005985504,9.804705,0.0047884034,0.0035913025,0.6818986,-0.002505947,-0.009319997,-0.29024157,2017-06-12 18:43:31,46.72924583462983
0.22505496,0.016759412,10.474632,-0.02130529,0.010652645,0.013848438,0.0,0.18899229,0.006584055,9.804705,0.03606266,0.010175358,0.66992754,-0.0024812203,-0.00932098,-0.29136023,2017-06-12 18:43:32,47.848717524938934
0.18435353,0.009576807,10.486604,-0.02130529,0.010652645,0.013848438,0.0,0.18899229,0.006135142,9.804705,-0.004638766,0.0034416649,0.6818986,-0.0025021816,-0.009315442,-0.2908277,2017-06-12 18:43:33,42.89430482599265
0.19871874,-0.007182605,10.477027,-0.02130529,0.011717909,0.014913702,0.0,0.18854338,0.005686229,9.804705,0.010175358,-0.012868834,0.67232174,-0.0025184294,-0.009288123,-0.2906671,2017-06-12 18:43:34,42.08514065899167
0.260968,0.02873042,10.512939,-0.02130529,0.011717909,0.014913702,0.0,0.18899229,0.0053869537,9.804705,0.071975686,0.023343466,0.7082348,-0.0025482709,-0.00930271,-0.29192793,2017-06-12 18:43:35,41.6718167347351
0.19153613,0.016759412,10.462662,-0.02130529,0.010652645,0.014913702,0.0,0.18959084,0.0052373162,9.804705,0.0019452889,0.011522096,0.65795654,-0.002558047,-0.009326477,-0.29161188,2017-06-12 18:43:36,56.73185126814627
0.19393034,0.016759412,10.503363,-0.02130529,0.010652645,0.014913702,0.0,0.19003975,0.0052373162,9.804705,0.0038905777,0.011522096,0.698658,-0.0025580255,-0.009355812,-0.29045427,2017-06-12 18:43:37,44.67313528271571
0.19871874,-0.0023942017,10.457873,-0.02130529,0.011717909,0.013848438,0.0,0.1906383,0.004489128,9.804705,0.00808043,-0.0068833297,0.65316814,-0.0026080208,-0.009370176,-0.29114884,2017-06-12 18:43:38,43.790290373652006
0.22505496,-0.0023942017,10.474632,-0.02130529,0.010652645,0.013848438,0.0,0.19093758,0.0053869537,9.804705,0.034117375,-0.0077811554,0.66992754,-0.0025812313,-0.009396174,-0.29242602,2017-06-12 18:43:39,51.45645042745532
0.18914193,0.021547815,10.455479,-0.02130529,0.010652645,0.013848438,0.0,0.19153613,0.005087679,9.804705,-0.0023942017,0.016460137,0.65077394,-0.0026008924,-0.009424549,-0.292165,2017-06-12 18:43:40,48.883137856044236
0.23223756,0.0047884034,10.45069,-0.022370553,0.011717909,0.013848438,0.0,0.1921347,0.0055365916,9.804705,0.040102877,-7.48188E-4,0.64598554,-0.0025781738,-0.009461172,-0.29057753,2017-06-12 18:43:41,49.21410795757189
0.1412579,-0.02873042,10.481815,-0.02130529,0.011717909,0.014913702,0.0,0.19183542,0.0055365916,9.804705,-0.05057751,-0.034267012,0.6771102,-0.0025584428,-0.009449238,-0.28967154,2017-06-12 18:43:42,43.43616274280551
0.20111294,-0.0023942017,10.455479,-0.02130529,0.011717909,0.013848438,0.0,0.1906383,0.004938041,9.804705,0.0104746325,-0.0073322426,0.65077394,-0.0025533633,-0.009382743,-0.28820238,2017-06-12 18:43:43,59.08453748382644
0.19871874,-0.0023942017,10.460267,-0.02130529,0.011717909,0.013848438,0.0,0.19138649,0.0047884034,9.804705,0.0073322426,-0.007182605,0.65556234,-0.002580842,-0.0094142975,-0.28864947,2017-06-12 18:43:44,60.25627839089143
0.21547815,-0.023942016,10.488997,-0.02130529,0.010652645,0.013848438,0.0,0.19198506,0.004489128,9.804705,0.023493104,-0.028431145,0.6842928,-0.0025903247,-0.009449034,-0.28731608,2017-06-12 18:43:45,56.75683140826666
0.23942018,0.0,10.488997,-0.022370553,0.010652645,0.013848438,0.0,0.19318216,0.0043394906,9.804705,0.04623802,-0.0043394906,0.6842928,-0.0026154993,-0.0094993245,-0.2875394,2017-06-12 18:43:46,49.615181987534584
0.20829555,0.01436521,10.448297,-0.02130529,0.011717909,0.013848438,0.0,0.19228433,0.004189853,9.804705,0.016011223,0.010175358,0.64359134,-0.0026121829,-0.009456154,-0.2874253,2017-06-12 18:43:47,44.6060627419902
0.19153613,-0.0047884034,10.484209,-0.02130529,0.011717909,0.013848438,0.0,0.19273324,0.004638766,9.804705,-0.0011971008,-0.009427169,0.6795044,-0.002604805,-0.00947878,-0.2883631,2017-06-12 18:43:48,34.43084440079163
0.21308395,0.0023942017,10.500969,-0.02130529,0.011717909,0.013848438,0.0,0.19288288,0.005087679,9.804705,0.020201078,-0.0026934769,0.6962638,-0.0025736727,-0.009501954,-0.2872227,2017-06-12 18:43:49,44.48825559034787
0.23223756,0.016759412,10.527305,-0.02130529,0.010652645,0.013848438,0.0,0.19348143,0.0053869537,9.804705,0.03875614,0.011372458,0.7226,-0.0025602924,-0.00953532,-0.28649884,2017-06-12 18:43:50,36.985850760320595
0.18435353,0.0047884034,10.496181,-0.022370553,0.011717909,0.013848438,2.0,0.19303252,0.004938041,9.804705,-0.008678981,-1.496376E-4,0.6914754,-0.0025710426,-0.009504414,-0.28590316,2017-06-12 18:43:52,31.534893389815608
0.22266077,0.007182605,10.477027,-0.02130529,0.011717909,0.013848438,2.0,0.19228433,0.0052373162,9.804705,0.030376434,0.0019452889,0.67232174,-0.002548037,-0.009476273,-0.2858991,2017-06-12 18:43:53,30.803878269191244
0.21787235,-0.021547815,10.46745,-0.02130529,0.011717909,0.013848438,2.0,0.19228433,0.004938041,9.804705,0.02558803,-0.026485857,0.66274494,-0.0025713323,-0.009471442,-0.28679314,2017-06-12 18:43:54,29.82923410055506
0.19393034,-0.016759412,10.46745,-0.02130529,0.010652645,0.014913702,2.0,0.1921347,0.005087679,9.804705,0.0017956513,-0.02184709,0.66274494,-0.0025604079,-0.009463265,-0.28716528,2017-06-12 18:43:55,45.214749631868536
0.18914193,0.01436521,10.465055,-0.02130529,0.010652645,0.013848438,2.0,0.19153613,0.0058358666,9.804705,-0.0023942017,0.008529344,0.66035074,-0.0025144173,-0.009446224,-0.286837,2017-06-12 18:43:56,29.78921974634715
0.19632454,0.0023942017,10.472239,-0.02130529,0.010652645,0.013848438,2.0,0.19168578,0.0067336923,9.804705,0.004638766,-0.0043394906,0.66753334,-0.0024694083,-0.009463755,-0.28633392,2017-06-12 18:43:57,49.8390411513891
0.18195933,0.035913024,10.491392,-0.02130529,0.010652645,0.013848438,2.0,0.19183542,0.0070329676,9.804705,-0.009876082,0.028880058,0.686687,-0.0024609026,-0.009475748,-0.28679574,2017-06-12 18:43:58,47.78311762649398
0.23223756,0.023942016,10.496181,-0.02130529,0.010652645,0.014913702,2.0,0.1921347,0.00808043,9.804705,0.040102877,0.015861586,0.6914754,-0.002415442,-0.009508319,-0.2870965,2017-06-12 18:43:59,44.470459695556514
0.19153613,0.021547815,10.45069,-0.022370553,0.011717909,0.013848438,2.0,0.19168578,0.0074818805,9.804705,-1.496376E-4,0.014065935,0.64598554,-0.002454049,-0.009469007,-0.28873417,2017-06-12 18:44:00,44.119920229296895
0.18435353,-0.04070143,10.508151,-0.02130529,0.010652645,0.013848438,2.0,0.19153613,0.006584055,9.804705,-0.007182605,-0.047285482,0.7034464,-0.002489714,-0.009451123,-0.28796464,2017-06-12 18:44:01,45.319526369923494
0.21547815,-0.007182605,10.503363,-0.02130529,0.011717909,0.013848438,2.0,0.19138649,0.0062847794,9.804705,0.024091655,-0.0134673845,0.698658,-0.0024949647,-0.0094402665,-0.28748232,2017-06-12 18:44:02,45.96219156872649
0.20350714,0.016759412,10.46745,-0.02130529,0.010652645,0.014913702,2.0,0.19048867,0.0068833297,9.804705,0.013018472,0.009876082,0.66274494,-0.0024637086,-0.0094093615,-0.2882539,2017-06-12 18:44:03,47.00007632375758
0.21308395,0.007182605,10.520123,-0.02130529,0.011717909,0.013848438,2.0,0.1906383,0.0067336923,9.804705,0.022445641,4.4891282E-4,0.7154174,-0.00247214,-0.009408156,-0.28817672,2017-06-12 18:44:04,38.57542618485836
0.22984336,0.016759412,10.460267,-0.02130529,0.011717909,0.014913702,2.0,0.19093758,0.0070329676,9.804705,0.038905777,0.009726444,0.65556234,-0.0024550334,-0.009432783,-0.28757784,2017-06-12 18:44:05,33.53327564825834
0.19632454,0.031124622,10.474632,-0.02130529,0.011717909,0.014913702,2.0,0.19033903,0.006584055,9.804705,0.005985504,0.024540568,0.66992754,-0.0024626441,-0.00939794,-0.28718284,2017-06-12 18:44:06,42.33943574123654
0.19393034,-0.01436521,10.496181,-0.022370553,0.010652645,0.013848438,2.0,0.18974048,0.0062847794,9.804705,0.004189853,-0.02064999,0.6914754,-0.0024551554,-0.009364434,-0.2858887,2017-06-12 18:44:07,38.068033299250814
0.21068975,0.009576807,10.460267,-0.022370553,0.010652645,0.014913702,2.0,0.19018939,0.006584055,9.804705,0.020500353,0.002992752,0.65556234,-0.0024506925,-0.009395183,-0.28619024,2017-06-12 18:44:08,36.950336157365776
0.18674773,-0.01436521,10.491392,-0.02130529,0.010652645,0.013848438,2.0,0.19108722,0.0067336923,9.804705,-0.0043394906,-0.021098902,0.686687,-0.0024609864,-0.009436492,-0.28656387,2017-06-12 18:44:09,37.0032032309708
0.21547815,-0.021547815,10.45069,-0.02130529,0.010652645,0.013848438,2.0,0.19168578,0.006584055,9.804705,0.023792379,-0.02813187,0.64598554,-0.0024662344,-0.009464225,-0.28587916,2017-06-12 18:44:10,48.79289596099103
0.18914193,0.05746084,10.527305,-0.02130529,0.011717909,0.013848438,2.0,0.19183542,0.0062847794,9.804705,-0.0026934769,0.05117606,0.7226,-0.0025029527,-0.009462035,-0.28777057,2017-06-12 18:44:11,41.02282257240784
0.20590134,-0.019153614,10.479421,-0.02130529,0.010652645,0.013848438,2.0,0.19183542,0.006584055,9.804705,0.014065935,-0.025737667,0.674716,-0.0025069164,-0.009463952,-0.28971836,2017-06-12 18:44:12,43.40409409556518
0.17717093,0.0047884034,10.512939,-0.02130529,0.011717909,0.014913702,2.0,0.19138649,0.0068833297,9.804705,-0.014215573,-0.0020949265,0.7082348,-0.0024866574,-0.009450461,-0.28946325,2017-06-12 18:44:13,38.12321017850885
0.21068975,0.011971008,10.45069,-0.02130529,0.010652645,0.013848438,2.0,0.19198506,0.006584055,9.804705,0.018704701,0.0053869537,0.64598554,-0.0024718484,-0.009483857,-0.2853088,2017-06-12 18:44:14,34.39121252818475
0.19393034,-0.011971008,10.453085,-0.02130529,0.010652645,0.013848438,2.0,0.19198506,0.0068833297,9.804705,0.0019452889,-0.018854339,0.64837974,-0.002453275,-0.009488749,-0.2851496,2017-06-12 18:44:15,36.41266973872822
0.20111294,0.007182605,10.481815,-0.022370553,0.011717909,0.014913702,2.0,0.19168578,0.0068833297,9.804705,0.009427169,2.992752E-4,0.6771102,-0.0024631023,-0.0094661005,-0.28658053,2017-06-12 18:44:16,39.92976363376859
0.20350714,0.007182605,10.488997,-0.02130529,0.010652645,0.013848438,2.0,0.19183542,0.006584055,9.804705,0.011671733,5.985504E-4,0.6842928,-0.0024754815,-0.009471628,-0.2864806,2017-06-12 18:44:17,38.45142307359316
0.20829555,0.016759412,10.46745,-0.02130529,0.011717909,0.013848438,2.0,0.19183542,0.0068833297,9.804705,0.016460137,0.009876082,0.66274494,-0.0024809968,-0.009474314,-0.28824311,2017-06-12 18:44:18,40.10232026546576
0.22505496,0.016759412,10.498574,-0.02130529,0.010652645,0.014913702,2.0,0.19183542,0.006434417,9.804705,0.03321955,0.010324995,0.6938696,-0.0025176574,-0.0094580855,-0.29019216,2017-06-12 18:44:19,46.493811095853516
0.21068975,-0.009576807,10.529699,-0.022370553,0.010652645,0.014913702,2.0,0.19183542,0.006434417,9.804705,0.018854339,-0.016011223,0.7249942,-0.0025276393,-0.009458495,-0.2911056,2017-06-12 18:44:20,46.608143341701435
0.22266077,0.0023942017,10.498574,-0.02130529,0.010652645,0.013848438,2.0,0.1921347,0.0068833297,9.804705,0.030526072,-0.004489128,0.6938696,-0.0025116932,-0.009479625,-0.29112217,2017-06-12 18:44:21,34.70721263939612
0.17717093,0.035913024,10.462662,-0.022370553,0.010652645,0.013848438,2.0,0.19273324,0.0074818805,9.804705,-0.015562311,0.028431145,0.65795654,-0.0024836985,-0.009517845,-0.28988236,2017-06-12 18:44:23,43.19319346280554
0.21068975,0.0023942017,10.460267,-0.02130529,0.010652645,0.013848438,2.0,0.1933318,0.0070329676,9.804705,0.017357962,-0.004638766,0.65556234,-0.002515071,-0.0095456205,-0.28979617,2017-06-12 18:44:24,46.7390842750028
0.20590134,0.007182605,10.546458,-0.02130529,0.010652645,0.013848438,2.0,0.19273324,0.006584055,9.804705,0.01316811,5.985504E-4,0.74175364,-0.0025214218,-0.009510695,-0.28938138,2017-06-12 18:44:25,44.202599301759086
0.20350714,0.05746084,10.493786,-0.022370553,0.010652645,0.013848438,2.0,0.19198506,0.006584055,9.804705,0.011522096,0.050876785,0.6890812,-0.0025015548,-0.009472369,-0.2890429,2017-06-12 18:44:26,41.94549462120769
0.21547815,-0.016759412,10.496181,-0.02130529,0.010652645,0.013848438,2.0,0.19228433,0.0068833297,9.804705,0.023193829,-0.023642741,0.6914754,-0.0025030328,-0.009487982,-0.29004407,2017-06-12 18:44:27,30.585011526754155
0.25378537,0.0047884034,10.457873,-0.02130529,0.010652645,0.014913702,0.0,0.19348143,0.006584055,9.804705,0.060303956,-0.0017956513,0.65316814,-0.0025370289,-0.009543172,-0.29026535,2017-06-12 18:44:28,33.36547284394518
0.21308395,-0.009576807,10.508151,-0.02130529,0.011717909,0.014913702,0.0,0.1933318,0.006434417,9.804705,0.019752163,-0.016011223,0.7034464,-0.0025559412,-0.009532268,-0.2910275,2017-06-12 18:44:29,39.417720998210434
0.15562311,0.01436521,10.510546,-0.02130529,0.010652645,0.013848438,0.0,0.19288288,0.006434417,9.804705,-0.037259765,0.007930793,0.7058406,-0.0025479514,-0.009509074,-0.29085317,2017-06-12 18:44:30,37.460912753718965
0.22266077,0.0023942017,10.512939,-0.022370553,0.010652645,0.013848438,0.0,0.19273324,0.0067336923,9.804705,0.029927522,-0.0043394906,0.7082348,-0.0025054412,-0.009509492,-0.28909087,2017-06-12 18:44:31,35.78126536923719
0.17717093,0.007182605,10.465055,-0.02130529,0.011717909,0.013848438,0.0,0.19198506,0.0073322426,9.804705,-0.014814123,-1.496376E-4,0.66035074,-0.0024675736,-0.009486446,-0.28903964,2017-06-12 18:44:32,48.3319910708785
0.20829555,-0.0047884034,10.479421,-0.02130529,0.011717909,0.013848438,0.0,0.1921347,0.0074818805,9.804705,0.01616086,-0.012270284,0.674716,-0.002460463,-0.009493179,-0.28878132,2017-06-12 18:44:33,44.8484622004754
0.19632454,0.038307227,10.445902,-0.02130529,0.011717909,0.013848438,0.0,0.19168578,0.007631518,9.804705,0.004638766,0.03067571,0.64119714,-0.0024539884,-0.009470923,-0.28952184,2017-06-12 18:44:34,33.6608231500185
0.17956513,0.009576807,10.465055,-0.02130529,0.011717909,0.013848438,0.0,0.19108722,0.007182605,9.804705,-0.011522096,0.0023942017,0.66035074,-0.0024802666,-0.009430415,-0.29102433,2017-06-12 18:44:35,45.171668491348726
0.20829555,0.01436521,10.500969,-0.02130529,0.010652645,0.014913702,0.0,0.19108722,0.007631518,9.804705,0.017208325,0.0067336923,0.6962638,-0.0024663461,-0.009434605,-0.29175627,2017-06-12 18:44:36,38.58019961954432
0.22744916,0.0047884034,10.472239,-0.02130529,0.010652645,0.013848438,0.0,0.19093758,0.0074818805,9.804705,0.036511578,-0.0026934769,0.66753334,-0.0024642907,-0.009434272,-0.29106244,2017-06-12 18:44:37,35.25552267674827
0.18435353,0.02873042,10.539276,-0.02130529,0.010652645,0.013848438,0.0,0.19093758,0.007631518,9.804705,-0.006584055,0.021098902,0.734571,-0.0024322392,-0.009440836,-0.2886235,2017-06-12 18:44:38,35.11610449226933
0.19393034,-0.01436521,10.503363,-0.02130529,0.010652645,0.013848438,0.0,0.19108722,0.0074818805,9.804705,0.0028431145,-0.02184709,0.698658,-0.0024536531,-0.0094435485,-0.28911173,2017-06-12 18:44:39,34.219730505022994
0.20590134,0.011971008,10.486604,-0.022370553,0.010652645,0.013848438,0.0,0.19078794,0.007631518,9.804705,0.015113398,0.0043394906,0.6818986,-0.0024526492,-0.009424737,-0.29077986,2017-06-12 18:44:40,49.36168710376994
0.22505496,-0.01436521,10.491392,-0.022370553,0.010652645,0.013848438,0.0,0.19093758,0.007182605,9.804705,0.034117375,-0.021547815,0.686687,-0.002475896,-0.00942474,-0.29052237,2017-06-12 18:44:41,39.057259088113945
0.20350714,0.007182605,10.481815,-0.02130529,0.010652645,0.014913702,0.0,0.19153613,0.006434417,9.804705,0.011971008,7.48188E-4,0.6771102,-0.0025130725,-0.0094508715,-0.28958964,2017-06-12 18:44:42,35.77681750159079
0.17238252,0.0,10.453085,-0.02130529,0.011717909,0.013848438,0.0,0.19093758,0.006434417,9.804705,-0.018555064,-0.006434417,0.64837974,-0.0025160396,-0.009416979,-0.29060024,2017-06-12 18:44:43,38.84947068022847
0.12449849,0.12689269,10.431537,-0.02130529,0.010652645,0.014913702,0.0,0.19273324,0.0047884034,9.804705,-0.06823475,0.12210429,0.62683195,-0.0025982875,-0.00948579,-0.28838134,2017-06-12 18:44:44,39.11319106947672
0.16519992,0.17956513,10.493786,-0.02130529,0.011717909,0.013848438,0.0,0.19198506,0.0052373162,9.804705,-0.026785132,0.1743278,0.6890812,-0.0025739856,-0.009455744,-0.28901225,2017-06-12 18:44:45,38.521410453744636
0.19871874,0.033518825,10.474632,-0.022370553,0.011717909,0.013848438,0.0,0.19183542,0.006135142,9.804705,0.0068833297,0.027383681,0.66992754,-0.00253662,-0.009454328,-0.29006284,2017-06-12 18:44:46,41.15032246194917
0.19632454,0.062249243,10.498574,-0.02130529,0.011717909,0.013848438,0.0,0.1906383,0.0053869537,9.804705,0.005686229,0.05686229,0.6938696,-0.0025480753,-0.009388596,-0.28959972,2017-06-12 18:44:47,41.25601124060458
0.23223756,-0.04309563,10.484209,-0.02130529,0.010652645,0.013848438,0.0,0.19078794,0.0047884034,9.804705,0.041449618,-0.047884032,0.6795044,-0.0025699204,-0.00939012,-0.28871226,2017-06-12 18:44:48,49.38907171902763
0.15562311,-0.021547815,10.472239,-0.022370553,0.011717909,0.013848438,0.0,0.19482817,0.0034416649,9.804705,-0.039205052,-0.02498948,0.66753334,-0.002688501,-0.009572122,-0.28746057,2017-06-12 18:44:49,40.564701012240064
0.19632454,0.007182605,10.491392,-0.022370553,0.010652645,0.013848438,0.0,0.19572599,0.004189853,9.804555,5.985504E-4,0.002992752,0.6868366,-0.0026832335,-0.009619822,-0.2895681,2017-06-12 18:44:50,39.1286306905552
0.17477672,0.0047884034,10.486604,-0.022370553,0.010652645,0.013848438,0.0,0.19527708,0.004489128,9.804555,-0.020500353,2.992752E-4,0.6820482,-0.002669773,-0.009596331,-0.29040125,2017-06-12 18:44:51,37.01881082599341
0.19632454,0.0023942017,10.565612,-0.02130529,0.011717909,0.013848438,0.0,0.19602527,0.004638766,9.804555,2.992752E-4,-0.002244564,0.76105684,-0.0026748627,-0.009634269,-0.29060915,2017-06-12 18:44:52,35.40265913895919
0.21308395,-0.0023942017,10.551247,-0.02130529,0.010652645,0.014913702,0.0,0.19527708,0.0052373162,9.804555,0.017806875,-0.007631518,0.74669164,-0.0026271222,-0.009614742,-0.28972003,2017-06-12 18:44:53,35.41162728402275
0.18674773,0.016759412,10.517728,-0.02130529,0.011717909,0.013848438,0.0,0.19527708,0.0052373162,9.804705,-0.008529344,0.011522096,0.7130232,-0.0026153252,-0.009613073,-0.28838,2017-06-12 18:44:54,41.92484037718981
0.20350714,0.0023942017,10.505757,-0.02130529,0.010652645,0.013848438,0.0,0.19602527,0.005686229,9.804555,0.0074818805,-0.0032920274,0.7012018,-0.0025872402,-0.009660595,-0.28698617,2017-06-12 18:44:55,40.99120006146839
0.22026655,-0.021547815,10.43872,-0.02130529,0.011717909,0.014913702,0.0,0.19542672,0.004938041,9.804555,0.024839843,-0.026485857,0.63416415,-0.0026121382,-0.009624459,-0.28688014,2017-06-12 18:44:56,39.7540954747423
0.17238252,0.007182605,10.536881,-0.02130529,0.010652645,0.014913702,0.0,0.19437926,0.0055365916,9.804705,-0.021996727,0.0016460137,0.7321768,-0.002574225,-0.009577792,-0.28729638,2017-06-12 18:44:57,41.96764095614032
0.21547815,0.021547815,10.488997,-0.02130529,0.010652645,0.013848438,0.0,0.19348143,0.006434417,9.804705,0.021996727,0.015113398,0.6842928,-0.002519779,-0.009550861,-0.28716972,2017-06-12 18:44:59,30.02396696941976
0.22505496,0.009576807,10.469844,-0.022370553,0.011717909,0.014913702,0.0,0.1933318,0.005087679,9.804705,0.03172317,0.004489128,0.66513914,-0.0025789673,-0.009525614,-0.2871077,2017-06-12 18:45:00,46.85282950033988
0.19871874,-0.016759412,10.491392,-0.02130529,0.010652645,0.014913702,0.0,0.19288288,0.0055365916,9.804705,0.0058358666,-0.022296004,0.686687,-0.0025375877,-0.009506814,-0.2862113,2017-06-12 18:45:01,36.14667940887007
0.22266077,0.0,10.517728,-0.02130529,0.010652645,0.013848438,0.0,0.1921347,0.006434417,9.804705,0.030526072,-0.006434417,0.7130232,-0.0024837255,-0.0094894655,-0.28588086,2017-06-12 18:45:02,31.048319573711293
0.20350714,-0.0047884034,10.498574,-0.02130529,0.010652645,0.013848438,0.0,0.19228433,0.0062847794,9.804705,0.011222821,-0.011073183,0.6938696,-0.002497687,-0.009491792,-0.28600731,2017-06-12 18:45:03,37.33039819872731
0.19393034,-0.0047884034,10.517728,-0.022370553,0.010652645,0.014913702,0.0,0.19123685,0.005985504,9.804705,0.0026934769,-0.010773907,0.7130232,-0.0025086924,-0.009432853,-0.28729913,2017-06-12 18:45:04,37.07046507270991
0.21308395,0.007182605,10.508151,-0.02130529,0.010652645,0.013848438,0.0,0.19153613,0.005686229,9.804705,0.021547815,0.001496376,0.7034464,-0.0025341846,-0.009438737,-0.28849393,2017-06-12 18:45:05,49.79726970414194
0.18435353,-0.0023942017,10.496181,-0.022370553,0.011717909,0.013848438,0.0,0.19168578,0.0053869537,9.804705,-0.0073322426,-0.0077811554,0.6914754,-0.002562441,-0.009440167,-0.28907284,2017-06-12 18:45:06,37.906578409722066
0.19153613,0.02633622,10.486604,-0.02130529,0.011717909,0.013848438,0.0,0.19138649,0.005686229,9.804705,1.496376E-4,0.02064999,0.6818986,-0.002562561,-0.009425149,-0.29127854,2017-06-12 18:45:07,29.711018176871278
0.22026655,0.0,10.484209,-0.02130529,0.010652645,0.013848438,0.0,0.1921347,0.0055365916,9.804705,0.02813187,-0.0055365916,0.6795044,-0.0025847238,-0.00945422,-0.2920198,2017-06-12 18:45:08,32.275338844511616
0.21787235,-0.035913024,10.441113,-0.02130529,0.010652645,0.014913702,0.0,0.19168578,0.0055365916,9.804705,0.026186582,-0.041449618,0.63640875,-0.0025838222,-0.009436996,-0.29181844,2017-06-12 18:45:09,32.68515203097616
0.19153613,-0.04309563,10.512939,-0.02130529,0.010652645,0.014913702,0.0,0.19153613,0.006135142,9.804705,0.0,-0.049230773,0.7082348,-0.00254001,-0.009443099,-0.29054135,2017-06-12 18:45:10,35.887810036408496
0.19393034,-0.0023942017,10.477027,-0.02130529,0.010652645,0.013848438,0.0,0.19243397,0.0062847794,9.804705,0.001496376,-0.008678981,0.67232174,-0.002548026,-0.009481702,-0.2909743,2017-06-12 18:45:11,34.78310541739483
0.22505496,-0.007182605,10.517728,-0.02130529,0.011717909,0.014913702,0.0,0.19198506,0.006135142,9.804705,0.033069912,-0.013317747,0.7130232,-0.0025296323,-0.009468129,-0.28897238,2017-06-12 18:45:12,34.731047413772416
0.18674773,0.050278235,10.46745,-0.02130529,0.010652645,0.014913702,0.0,0.19273324,0.006584055,9.804705,-0.005985504,0.04369418,0.66274494,-0.0025104443,-0.009508424,-0.28870437,2017-06-12 18:45:13,36.607192662052846
0.22266077,0.033518825,10.448297,-0.022370553,0.010652645,0.013848438,0.0,0.19273324,0.007182605,9.804705,0.029927522,0.02633622,0.64359134,-0.002498718,-0.009515214,-0.28983855,2017-06-12 18:45:14,37.16309251665149
0.18914193,-0.007182605,10.462662,-0.022370553,0.010652645,0.013848438,0.0,0.1925836,0.0077811554,9.804705,-0.0034416649,-0.014963761,0.65795654,-0.0024604201,-0.009519643,-0.2894663,2017-06-12 18:45:15,33.65117334889461
0.19153613,-0.02633622,10.522516,-0.02130529,0.011717909,0.013848438,0.0,0.19288288,0.0073322426,9.804705,-0.0013467384,-0.033668462,0.7178116,-0.0024865586,-0.009528536,-0.2891522,2017-06-12 18:45:16,41.885076596447604
0.18674773,-0.023942016,10.5680065,-0.022370553,0.010652645,0.014913702,0.0,0.19273324,0.007631518,9.804705,-0.005985504,-0.031573534,0.76330143,-0.0024633063,-0.009527463,-0.28882074,2017-06-12 18:45:17,36.03948566056829
0.22505496,-0.021547815,10.524911,-0.022370553,0.010652645,0.014913702,0.0,0.19273324,0.0077811554,9.804705,0.03232172,-0.02932897,0.7202058,-0.0024566036,-0.009525401,-0.288895,2017-06-12 18:45:18,36.55267276811639
0.16998832,0.0023942017,10.479421,-0.02130529,0.010652645,0.014913702,0.0,0.19198506,0.0077811554,9.804705,-0.021996727,-0.0053869537,0.674716,-0.0024510678,-0.009493268,-0.28895548,2017-06-12 18:45:19,38.28564911079003
0.20111294,0.023942016,10.43872,-0.02130529,0.011717909,0.013848438,0.0,0.19168578,0.0073322426,9.804705,0.009427169,0.016609775,0.63401455,-0.0024652546,-0.009468951,-0.28885317,2017-06-12 18:45:20,39.467912972713734
0.18914193,0.011971008,10.505757,-0.022370553,0.010652645,0.014913702,0.0,0.19123685,0.006434417,9.804705,-0.0020949265,0.0055365916,0.7010522,-0.0025058342,-0.009436797,-0.28953573,2017-06-12 18:45:21,41.37865304654977
0.19871874,0.08140286,10.510546,-0.02130529,0.010652645,0.014913702,0.0,0.1906383,0.0070329676,9.804705,0.00808043,0.07436989,0.7058406,-0.0024645934,-0.00941621,-0.28910193,2017-06-12 18:45:22,35.924529052163635
0.24420857,-0.031124622,10.520123,-0.022370553,0.010652645,0.013848438,0.0,0.19123685,0.0070329676,9.804705,0.052971713,-0.03815759,0.7154174,-0.0024737073,-0.009446455,-0.2893251,2017-06-12 18:45:23,37.44007394418679
0.20350714,0.0,10.529699,-0.02130529,0.010652645,0.013848438,0.0,0.19123685,0.007182605,9.804705,0.012270284,-0.007182605,0.7249942,-0.002467136,-0.009444748,-0.28926465,2017-06-12 18:45:24,41.5299765089589
0.19393034,0.011971008,10.510546,-0.02130529,0.010652645,0.014913702,0.0,0.19108722,0.00808043,9.804705,0.0028431145,0.0038905777,0.7058406,-0.0024080407,-0.009451045,-0.2877593,2017-06-12 18:45:25,31.080344450261258
0.21308395,-0.0023942017,10.527305,-0.02130529,0.011717909,0.014913702,0.0,0.19093758,0.0073322426,9.804705,0.022146367,-0.009726444,0.7226,-0.0024446677,-0.009437445,-0.28803155,2017-06-12 18:45:26,35.495179659566105
0.21308395,0.01436521,10.54167,-0.02130529,0.010652645,0.013848438,0.0,0.19033903,0.0070329676,9.804705,0.022744916,0.0073322426,0.73696524,-0.0024624122,-0.009397803,-0.2896218,2017-06-12 18:45:27,41.8688507376864
0.20350714,0.007182605,10.477027,-0.022370553,0.010652645,0.013848438,0.0,0.19018939,0.0074818805,9.804705,0.013317747,-2.992752E-4,0.67232174,-0.002442642,-0.009399222,-0.28970915,2017-06-12 18:45:28,39.4747048340805
0.18914193,0.01436521,10.43872,-0.02130529,0.010652645,0.013848438,0.0,0.19033903,0.007930793,9.804705,-0.0011971008,0.006434417,0.63401455,-0.0024352847,-0.009407799,-0.29134297,2017-06-12 18:45:29,43.27740690227366
0.17717093,-0.016759412,10.510546,-0.02130529,0.010652645,0.014913702,0.0,0.1906383,0.0073322426,9.804705,-0.0134673845,-0.024091655,0.7058406,-0.0024699094,-0.009409661,-0.29136848,2017-06-12 18:45:30,42.63325201114199
0.21308395,-0.007182605,10.532093,-0.02130529,0.010652645,0.013848438,0.0,0.19003975,0.00808043,9.804705,0.023044191,-0.015263036,0.7273884,-0.0024109557,-0.009396269,-0.2896153,2017-06-12 18:45:31,44.84324942562879
0.19153613,-0.019153614,10.448297,-0.02130529,0.010652645,0.013848438,0.0,0.19033903,0.008230069,9.804705,0.0011971008,-0.027383681,0.64359134,-0.0023872564,-0.0094185,-0.28795293,2017-06-12 18:45:33,40.33786981698025
0.20829555,-0.009576807,10.469844,-0.022370553,0.011717909,0.013848438,0.0,0.19033903,0.007930793,9.804705,0.017956512,-0.0175076,0.66513914,-0.0024074344,-0.00941813,-0.28806907,2017-06-12 18:45:34,45.08471079646568
0.1604115,-0.05267244,10.498574,-0.022370553,0.010652645,0.013848438,0.0,0.19048867,0.007182605,9.804705,-0.03007716,-0.059855044,0.6938696,-0.0024566296,-0.00940465,-0.28922057,2017-06-12 18:45:35,39.943517566116135
0.20590134,0.0023942017,10.469844,-0.022370553,0.010652645,0.013848438,0.0,0.19048867,0.0062847794,9.804705,0.015412673,-0.0038905777,0.66513914,-0.0024860958,-0.009395462,-0.28807828,2017-06-12 18:45:36,35.51548152987015
0.22266077,0.007182605,10.496181,-0.022370553,0.011717909,0.014913702,0.0,0.19078794,0.006135142,9.804705,0.03187281,0.0010474633,0.6914754,-0.002513674,-0.009409364,-0.28965062,2017-06-12 18:45:37,32.95435944299986
0.22744916,0.016759412,10.46745,-0.022370553,0.010652645,0.013848438,0.0,0.1906383,0.0073322426,9.804705,0.036810853,0.009427169,0.66274494,-0.0024473378,-0.009421789,-0.28906566,2017-06-12 18:45:38,29.74012481553245
0.20590134,0.016759412,10.498574,-0.02130529,0.011717909,0.013848438,0.0,0.19153613,0.007631518,9.804705,0.01436521,0.009127894,0.6938696,-0.0024525812,-0.009463113,-0.28950584,2017-06-12 18:45:39,34.077497467472305
0.18435353,0.023942016,10.500969,-0.02130529,0.011717909,0.013848438,0.0,0.19198506,0.007631518,9.804705,-0.007631518,0.0163105,0.6962638,-0.0024682693,-0.009486995,-0.29063565,2017-06-12 18:45:40,34.77662277725
0.22026655,0.04309563,10.474632,-0.02130529,0.010652645,0.013848438,0.0,0.19198506,0.007930793,9.804705,0.028281508,0.035164837,0.66992754,-0.002458728,-0.009488699,-0.29070693,2017-06-12 18:45:41,38.35768824624644
0.17717093,-0.01436521,10.481815,-0.02130529,0.010652645,0.014913702,0.0,0.19198506,0.007631518,9.804705,-0.014814123,-0.021996727,0.6771102,-0.002466903,-0.009481345,-0.2905597,2017-06-12 18:45:42,48.44625406896406
0.25139117,-0.0023942017,10.441113,-0.02130529,0.010652645,0.013848438,0.0,0.19228433,0.0077811554,9.804705,0.059106853,-0.010175358,0.63640875,-0.0024713716,-0.0094995815,-0.29119083,2017-06-12 18:45:43,36.691720334636685
0.21547815,-0.023942016,10.443508,-0.022370553,0.011717909,0.014913702,0.0,0.19318216,0.0074818805,9.804705,0.022296004,-0.031423897,0.63880295,-0.0024966132,-0.00954294,-0.29079193,2017-06-12 18:45:44,43.84012727711573
0.19393034,0.011971008,10.498574,-0.02130529,0.011717909,0.014913702,0.0,0.19407998,0.0073322426,9.804705,-1.496376E-4,0.004638766,0.6938696,-0.002507276,-0.009581027,-0.28978738,2017-06-12 18:45:45,37.308075011467146
0.21547815,0.035913024,10.484209,-0.022370553,0.010652645,0.013848438,0.0,0.1945289,0.0073322426,9.804705,0.020949265,0.028580783,0.6795044,-0.0025177263,-0.00960325,-0.28993946,2017-06-12 18:45:46,46.54418067060408
0.18914193,0.011971008,10.488997,-0.02130529,0.010652645,0.014913702,0.0,0.19422962,0.0073322426,9.804705,-0.005087679,0.004638766,0.6842928,-0.0025174879,-0.009591811,-0.29015222,2017-06-12 18:45:47,36.32592777170318
0.18914193,-0.011971008,10.534488,-0.022370553,0.011717909,0.014913702,0.0,0.19393034,0.0073322426,9.804705,-0.0047884034,-0.019303251,0.7297826,-0.0025144722,-0.009578308,-0.29062778,2017-06-12 18:45:48,39.12821046291669
0.22505496,-0.019153614,10.54167,-0.02130529,0.011717909,0.014913702,0.0,0.1937807,0.0058358666,9.804705,0.03127426,-0.02498948,0.73696524,-0.0025866274,-0.009543681,-0.29091287,2017-06-12 18:45:49,39.57252387461357
0.22505496,0.050278235,10.503363,-0.02130529,0.010652645,0.014913702,0.0,0.19303252,0.006434417,9.804705,0.032022446,0.043843817,0.698658,-0.0025370205,-0.009516103,-0.2900134,2017-06-12 18:45:50,35.21573903591993
0.20350714,0.01436521,10.503363,-0.02130529,0.010652645,0.013848438,0.0,0.19288288,0.0070329676,9.804705,0.01062427,0.0073322426,0.698658,-0.0024942188,-0.009522772,-0.28886092,2017-06-12 18:45:51,38.157285188454495
0.22505496,0.009576807,10.457873,-0.02130529,0.011717909,0.013848438,0.0,0.1933318,0.0077811554,9.804705,0.03172317,0.0017956513,0.65316814,-0.0024751266,-0.009550826,-0.28958848,2017-06-12 18:45:52,35.60718112259294
0.22266077,0.009576807,10.441113,-0.022370553,0.011717909,0.014913702,0.0,0.1933318,0.007182605,9.804705,0.02932897,0.0023942017,0.63640875,-0.002497984,-0.009550175,-0.28943545,2017-06-12 18:45:53,43.65497247089137
0.19871874,0.016759412,10.505757,-0.022370553,0.010652645,0.014913702,2.0,0.19318216,0.007631518,9.804705,0.0055365916,0.009127894,0.7010522,-0.0024955543,-0.009541214,-0.29136977,2017-06-12 18:45:54,41.639138775914475
0.20829555,0.038307227,10.460267,-0.02130529,0.010652645,0.014913702,0.0,0.19318216,0.009576807,9.804705,0.015113398,0.02873042,0.65556234,-0.0024020206,-0.009571775,-0.291215,2017-06-12 18:45:55,35.87914025491367
0.19632454,-0.0047884034,10.527305,-0.02130529,0.011717909,0.013848438,0.0,0.19303252,0.009726444,9.804705,0.0032920274,-0.014514848,0.7226,-0.0023771804,-0.009568559,-0.29032773,2017-06-12 18:45:56,33.86572809399262
0.21068975,-0.0023942017,10.42196,-0.022370553,0.010652645,0.014913702,0.0,0.1933318,0.0104746325,9.804705,0.017357962,-0.012868834,0.61725515,-0.0023490964,-0.009591648,-0.29062933,2017-06-12 18:45:57,38.443151847101475
0.21068975,-0.021547815,10.510546,-0.022370553,0.011717909,0.013848438,2.0,0.19303252,0.009876082,9.804705,0.017657237,-0.031423897,0.7058406,-0.002365063,-0.009569085,-0.2893508,2017-06-12 18:45:58,45.44761682714976
0.19153613,0.007182605,10.488997,-0.02130529,0.010652645,0.013848438,2.0,0.19228433,0.009876082,9.804705,-7.48188E-4,-0.0026934769,0.6842928,-0.0023424197,-0.0095356945,-0.28874823,2017-06-12 18:45:59,48.08678993638199
0.18195933,0.023942016,10.472239,-0.02130529,0.010652645,0.014913702,2.0,0.19243397,0.009277532,9.804705,-0.0104746325,0.014664485,0.66753334,-0.0023878487,-0.00953026,-0.29008037,2017-06-12 18:46:00,41.058052911903786
0.20590134,0.007182605,10.517728,-0.02130529,0.010652645,0.013848438,2.0,0.19288288,0.009576807,9.804705,0.013018472,-0.0023942017,0.7130232,-0.0023628455,-0.009560333,-0.28836152,2017-06-12 18:46:01,37.86019552730382
0.16280572,0.021547815,10.560823,-0.022370553,0.010652645,0.013848438,2.0,0.19243397,0.010324995,9.804705,-0.029628245,0.011222821,0.75611883,-0.0023224726,-0.009552441,-0.28796273,2017-06-12 18:46:03,49.30569438388876
0.20111294,0.009576807,10.493786,-0.02130529,0.010652645,0.013848438,2.0,0.19183542,0.010175358,9.804705,0.009277532,-5.985504E-4,0.6890812,-0.0023104986,-0.0095207365,-0.287005,2017-06-12 18:46:04,38.02279912005674
0.17477672,0.02633622,10.556035,-0.022370553,0.010652645,0.014913702,2.0,0.1925836,0.009576807,9.804705,-0.017806875,0.016759412,0.75133044,-0.002362269,-0.0095501095,-0.2882962,2017-06-12 18:46:05,46.18156030113798
0.20111294,0.023942016,10.503363,-0.02130529,0.010652645,0.014913702,2.0,0.19243397,0.009876082,9.804705,0.008678981,0.014065935,0.698658,-0.0023535164,-0.009543882,-0.28913394,2017-06-12 18:46:06,50.15513850732798
0.20829555,-0.016759412,10.477027,-0.02130529,0.010652645,0.013848438,2.0,0.19273324,0.009576807,9.804705,0.015562311,-0.02633622,0.67232174,-0.002370257,-0.009554598,-0.2886105,2017-06-12 18:46:07,45.78085873400293
0.22984336,-0.0023942017,10.457873,-0.02130529,0.010652645,0.013848438,2.0,0.19228433,0.010324995,9.804705,0.03755904,-0.012719196,0.65316814,-0.0023129694,-0.009549699,-0.28751984,2017-06-12 18:46:08,47.61442421924457
0.20590134,0.011971008,10.465055,-0.02130529,0.010652645,0.013848438,2.0,0.1921347,0.0104746325,9.804705,0.013766659,0.001496376,0.66035074,-0.0022997018,-0.009545849,-0.28739822,2017-06-12 18:46:09,31.57204055065419
0.19393034,0.023942016,10.527305,-0.02130529,0.010652645,0.013848438,2.0,0.1921347,0.010324995,9.804705,0.0017956513,0.013617022,0.7226,-0.002312461,-0.009542178,-0.2876821,2017-06-12 18:46:10,30.372542235146902
0.20829555,0.04309563,10.546458,-0.02130529,0.010652645,0.013848438,2.0,0.19198506,0.009876082,9.804705,0.0163105,0.03321955,0.74175364,-0.0023228955,-0.009528115,-0.2868666,2017-06-12 18:46:11,29.76275927850706
