ACC_X,ACC_Y,ACC_Z,GYRO_X,GYRO_Y,GYRO_Z,LIGH_1,GRAV_X,GRAV_Y,GRAV_Z,LINACC_X,LINACC_Y,LINACC_Z,ROTVEC_X,ROTVEC_Y,ROTVEC_Z,TIME,VOICE
9.206808,0.272688,3.477968,0.0021055825,0.031914987,0.0029793605,43.0,9.176004,0.2791627,3.4486778,-0.012863574,0.016042696,-0.10822628,-0.17271963,-0.5425258,-0.27309483,2016-12-03 17:49:11,27.49456248546286
9.2139845,0.243984,3.619096,0.021657582,0.08812698,0.01275536,42.0,9.136243,0.28030777,3.5525908,-0.063389644,0.018383762,0.011234803,-0.1799601,-0.53524077,-0.28688425,2016-12-03 17:49:12,59.66794586761757
9.260628,0.22126001,2.940964,-0.31805843,-0.500877,-0.09478064,39.0,9.195204,0.26897302,3.397979,-0.12641981,-0.17235099,-0.26297727,-0.18840674,-0.5396797,-0.2929777,2016-12-03 17:49:13,55.60598435027608
10.101417,0.570492,1.9566561,0.031433582,-0.49843302,0.0054233596,42.0,9.588064,0.3642954,2.0265045,-0.25979954,0.18967937,0.36406434,-0.14412525,-0.6131109,-0.2063246,2016-12-03 17:49:15,46.650189627454864
9.351524,0.297804,2.5223641,-0.26673442,0.298311,-0.063008636,45.0,9.4591465,0.3968284,2.5568495,-0.05025018,0.19948839,-0.44152242,-0.20615785,-0.571958,-0.3002905,2016-12-03 17:49:16,57.30946144970349
9.369464,0.32531202,2.551068,-0.32539043,-0.53264904,-0.09478064,47.0,9.421478,0.24919133,2.7099905,-0.2816694,0.08773133,-0.045593586,-0.23044646,-0.55562884,-0.32544944,2016-12-03 17:49:17,47.44064381916344
9.389796,0.284648,2.6921961,0.050985586,-0.0023010145,-0.0067966394,46.0,9.414992,0.16279812,2.7389421,-0.013075755,-0.09673388,0.012062194,-0.24524185,-0.54791355,-0.33931077,2016-12-03 17:49:18,41.70378675340758
9.484281,0.25116,2.5343242,-0.015002416,-0.06340101,-0.0043526404,37.0,9.462336,0.18501668,2.569117,-0.061412793,-0.08049535,0.024028819,-0.25620145,-0.55079246,-0.3490374,2016-12-03 17:49:20,67.7386769837723
9.520161,0.249964,2.40994,-0.0027824156,-0.009633014,0.0029793605,32.0,9.490466,0.18371406,2.4632676,-0.029694296,-0.06624993,0.053327687,-0.26409766,-0.5519608,-0.3551242,2016-12-03 17:49:21,74.20642122852942
9.479496,0.23920001,2.519972,-0.014976965,-0.026521508,-0.0019117333,33.0,9.454147,0.19576983,2.598298,-0.037308864,-0.04821418,0.0053700027,-0.26607087,-0.54472923,-0.36376065,2016-12-03 17:49:22,63.1707819623163
9.569196,0.119600005,2.44582,0.014351036,-0.1536095,0.02008427,26.0,9.49032,0.15425299,2.4658535,0.045508537,0.051396992,-0.06368659,-0.2735673,-0.5472088,-0.36517146,2016-12-03 17:49:23,57.3462469932459
8.650668,0.117208004,5.175092,0.18298703,-0.1536095,0.010308269,97.0,8.550958,-0.15892273,4.798569,-0.38435823,-0.28211072,0.6006094,-0.21892974,-0.45542383,-0.3593555,2016-12-03 17:49:24,69.83690450341989
8.668609,0.249964,4.632108,-0.014976965,-0.119393505,-0.021463733,109.0,8.577453,0.0896642,4.752858,-0.051687516,-0.05624781,0.0023459787,-0.20936143,-0.4624278,-0.3635391,2016-12-03 17:49:26,70.14203550878109
8.729604,0.205712,4.584268,0.026571035,-0.041185506,0.03230427,104.0,8.674682,0.10664602,4.5726275,-0.05731471,-0.08351798,0.02663111,-0.21777919,-0.46843693,-0.37048402,2016-12-03 17:49:27,53.01849942293053
8.745152,0.202124,4.563936,0.0045750346,-0.004525507,0.0054202676,103.0,8.707232,0.16501988,4.5085764,-0.03552841,0.009539891,0.036732234,-0.22127159,-0.47028232,-0.37830147,2016-12-03 17:49:28,70.84550690821166
8.863556,0.206908,4.220684,-0.027196966,-0.006969507,5.322695E-4,96.0,8.839295,0.14192075,4.2446575,-0.008712299,-0.06379125,-0.031042205,-0.23266052,-0.4790113,-0.38197398,2016-12-03 17:49:29,71.14841649270515
8.980764,0.165048,4.272112,0.01675171,-0.22904067,0.0054141916,99.0,8.846055,0.15564269,4.230068,-0.05577274,-0.058441304,-0.05519991,-0.2354042,-0.47844687,-0.3867719,2016-12-03 17:49:31,70.49813297902803
9.284548,0.20930001,3.254316,0.021639708,-0.092176676,0.0029701926,79.0,9.240714,0.17705753,3.2784536,-0.0031704467,-0.13390246,-0.10622633,-0.23874849,-0.52520907,-0.35219505,2016-12-03 17:49:32,70.875271803951
9.285745,0.22843601,3.107208,0.046079706,-0.17282866,0.0029701926,81.0,9.254368,0.18739948,3.2391272,-0.06247195,-0.03146852,-0.09771307,-0.24484171,-0.52431196,-0.35996997,2016-12-03 17:49:33,70.78714785489814
9.35272,0.217672,2.903888,-0.017464291,0.027579324,0.0029701926,76.0,9.338627,0.1836562,2.987765,-0.0045253686,-0.0399958,-0.35027096,-0.25183046,-0.533149,-0.35924733,2016-12-03 17:49:34,66.44989899480984
9.35272,0.220064,3.050996,0.0020877086,-0.06284867,0.0029701926,77.0,9.312685,0.198928,3.066714,-0.047211833,-0.03429202,0.016913725,-0.24422783,-0.53291076,-0.3531825,2016-12-03 17:49:35,47.52184909064007
9.345544,0.226044,3.149068,-0.01013229,0.0055833245,5.2619353E-4,75.0,9.294568,0.199253,3.1211715,-0.022272037,-0.026791014,0.007983692,-0.24468832,-0.530087,-0.35597947,2016-12-03 17:49:37,69.70376432910345
9.335977,0.223652,3.120364,-0.0052442905,-0.045740675,5.2619353E-4,77.0,9.315391,0.2030667,3.0582118,-0.03374211,-0.0229773,-0.02866437,-0.24759665,-0.5317617,-0.35777795,2016-12-03 17:49:38,73.30787324840239
9.341956,0.178204,3.058172,-3.5818852E-4,-0.057951745,0.002952136,75.0,9.301072,0.19606297,3.1019368,-0.034904726,-0.032373052,-0.037563425,-0.24600284,-0.5304035,-0.35677624,2016-12-03 17:49:39,50.65180665766104
9.326408,0.22724001,3.141892,-0.0028021876,-0.07750374,-0.0019358657,77.0,9.292367,0.20266573,3.1274993,-0.0340408,-0.028162284,0.054975163,-0.24569221,-0.5293178,-0.35788026,2016-12-03 17:49:40,51.84125738496154
9.331192,0.232024,3.083288,-3.608074E-4,-0.08959639,5.005263E-4,76.0,9.289657,0.19982378,3.1357212,-0.022400048,-0.03818022,0.030905135,-0.2454381,-0.52903956,-0.3576339,2016-12-03 17:49:41,47.75999308481766
9.3587,0.20332001,3.168204,-0.017468806,-0.07004439,-0.0068314746,78.0,9.286388,0.20814212,3.1448464,-0.07231179,0.0048221047,-0.023357496,-0.2436196,-0.5294402,-0.35614154,2016-12-03 17:49:43,51.54866082556367
9.459165,0.188968,2.759172,-0.012580807,-0.011388391,-0.011719473,71.0,9.420692,0.21898617,2.7153275,-0.031295303,-0.03217384,-0.11201661,-0.23878792,-0.5518489,-0.33426693,2016-12-03 17:49:44,67.31178293776169
9.453184,0.247572,2.749604,-0.015024807,0.071707614,5.005263E-4,69.0,9.413983,0.2287696,2.7376978,-0.046377722,-0.0080384,-0.035826225,-0.23969631,-0.5504198,-0.33702534,2016-12-03 17:49:45,71.16938507463254
9.426872,-0.038272,3.01392,0.1633872,0.1548036,0.088484526,77.0,9.305554,0.20225364,3.088066,-0.50284195,0.34098965,-0.37435383,-0.24221668,-0.5328073,-0.35152084,2016-12-03 17:49:46,70.87930881819968
9.314448,0.229632,3.2471402,-0.034576807,-0.0040563913,0.015164524,78.0,9.296173,0.1964657,3.1165655,-0.002727379,-0.0546943,-0.1903744,-0.24010946,-0.53239733,-0.34927756,2016-12-03 17:49:48,73.08449927851493
9.390992,0.24039601,2.915848,-0.051684804,0.08637161,-0.028827474,74.0,9.336331,0.19936435,2.9939256,-0.031936523,-0.003955661,-0.13600655,-0.2419683,-0.5374046,-0.3473258,2016-12-03 17:49:49,71.19269253937881
9.353916,0.21528001,2.956512,0.009374343,-0.0063627944,0.0028956383,76.0,9.327964,0.20106122,3.0197756,-0.042695817,-0.022590784,0.08957564,-0.24252772,-0.5359241,-0.34920985,2016-12-03 17:49:50,68.55826646136639
9.318036,0.20451601,3.052192,-0.0028652363,-0.096547015,0.00779788,74.0,9.313808,0.18878129,3.0639393,-0.026952304,-0.012146712,0.015335225,-0.24072653,-0.5346338,-0.34748778,2016-12-03 17:49:51,66.7276603949093
9.335977,0.196144,3.054584,-4.1968375E-4,0.028195677,0.007786697,77.0,9.294693,0.18149492,3.121881,-0.04367606,-0.008669081,-0.005659341,-0.23965505,-0.5323475,-0.34767666,2016-12-03 17:49:52,71.22303904920608
9.333584,0.19136,3.202888,-0.007742035,0.030910503,3.4631416E-4,76.0,9.280789,0.17268851,3.16347,-0.016914895,-0.03182749,-0.052574236,-0.23705593,-0.531519,-0.34499335,2016-12-03 17:49:54,61.51934518255199
9.339564,0.184184,3.132324,-3.990233E-4,-9.0052467E-4,0.0052141994,78.0,9.283555,0.17901246,3.1549907,-0.028501287,-0.0027795478,-0.0060375268,-0.23374316,-0.53338957,-0.34058428,2016-12-03 17:49:55,50.53296463040741
9.295312,0.18538,3.158636,0.0020606183,-0.008200955,0.0052035414,76.0,9.2839,0.18203853,3.153802,-0.01858838,-0.016497472,-0.027558161,-0.23364764,-0.5334882,-0.34064758,2016-12-03 17:49:56,71.7113157137011
9.321624,0.190164,3.2256122,0.0045074336,-0.03966849,0.0026974306,78.0,9.282781,0.17310353,3.1575942,-0.034059506,-0.012276458,0.034838382,-0.23407006,-0.53312165,-0.34066588,2016-12-03 17:49:57,69.9074485158252
9.319232,0.206908,3.18734,0.0021090098,-0.044475425,-0.0022071227,76.0,9.279042,0.17975393,3.1681998,-0.040189974,-0.027154075,-0.019140169,-0.2337186,-0.53276867,-0.34111145,2016-12-03 17:49:58,65.75568123936766
9.29292,0.196144,3.083288,-0.022174053,-0.009462856,0.00260726,78.0,9.278578,0.18096155,3.1694868,-0.041850016,-0.005614461,-0.009481237,-0.23229244,-0.5333305,-0.3392798,2016-12-03 17:50:00,69.70511957363698
9.312057,0.184184,3.149068,-0.009954054,-0.03879085,-0.00716874,78.0,9.276454,0.16955665,3.1763275,-0.053542204,-0.033763357,-0.08277269,-0.23178071,-0.53322613,-0.3379194,2016-12-03 17:50:01,69.13410464403638
9.314448,0.19255601,3.280628,-0.002622053,-0.046122856,0.005051259,78.0,9.2738285,0.17207652,3.183851,-0.028659694,-1.4748218E-4,-0.035781216,-0.23305479,-0.53231037,-0.34017453,2016-12-03 17:50:02,68.58082250640516
9.310861,0.181792,3.244748,-1.662746E-4,0.0152025595,0.0026289,76.0,9.269569,0.17405571,3.1961172,-0.041290626,-0.00893228,-0.07613894,-0.23289934,-0.5317906,-0.3405834,2016-12-03 17:50:03,63.5669721725219
9.321624,0.188968,3.1024241,0.019261586,-0.033180255,-0.0022568405,78.0,9.29434,0.1905369,3.1223962,-0.023695933,-0.017567111,-0.020692075,-0.23343512,-0.53507966,-0.33984005,2016-12-03 17:50:05,62.28394371661966
9.34076,0.202124,2.982824,-5.323924E-4,-0.06886988,1.8265843E-4,74.0,9.336437,0.21787499,2.992301,-0.010302198,0.007378968,0.080040924,-0.2336023,-0.5411701,-0.33736464,2016-12-03 17:50:06,49.49914668598015
9.341956,0.212888,3.094052,-0.010340268,0.04365836,0.0026169047,76.0,9.317022,0.20825551,3.052886,-0.03330606,-0.0070245103,-0.06867401,-0.23289435,-0.5386152,-0.33789325,2016-12-03 17:50:07,69.67153933459318
9.398169,0.22724001,2.9206321,-0.010340268,0.04610236,1.7290562E-4,73.0,9.356438,0.22720893,2.9284573,-0.039338324,-0.010795078,0.023373278,-0.23115143,-0.5452149,-0.33244652,2016-12-03 17:50:08,67.71513915549471
9.363484,0.224848,2.9911962,0.009271106,0.041674793,0.0074534956,75.0,9.345585,0.22391689,2.9631572,-0.033446927,-0.011695114,0.078405134,-0.23212121,-0.5431766,-0.33476102,2016-12-03 17:50:09,72.153444182263
9.3742485,0.24039601,2.943356,0.0019391049,-0.016981209,0.0025654957,73.0,9.348065,0.22351211,2.9553523,-0.009438275,-0.0061198897,0.016780162,-0.23358409,-0.5429157,-0.3364191,2016-12-03 17:50:11,64.83093050714396
9.3742485,0.223652,2.994784,-5.394593E-4,0.029510614,0.0025366694,75.0,9.348818,0.22119185,2.9531438,-0.031409867,-0.0072441627,-0.042836394,-0.23289913,-0.5433135,-0.33523107,2016-12-03 17:50:12,66.76199055665961
9.344348,0.235612,2.986412,-5.394593E-4,0.012402615,0.0025366694,73.0,9.337642,0.22196722,2.9882383,-0.025842298,-0.0088607855,-0.06036562,-0.23157118,-0.5422334,-0.33478275,2016-12-03 17:50:13,58.569143686534694
9.389796,0.23441601,2.856048,-0.015203459,0.009958615,-0.0023513325,73.0,9.35263,0.22626375,2.9406674,-0.022814475,-0.005760244,-0.0899965,-0.23080587,-0.5447902,-0.33234978,2016-12-03 17:50:14,64.42443286844691
9.443616,0.260728,2.789072,0.0019045398,0.0075146146,0.0025366694,71.0,9.410366,0.22330841,2.7505517,-0.04401333,-0.017087603,-0.07081249,-0.23449498,-0.5520625,-0.33020568,2016-12-03 17:50:15,66.11293432208818
9.668465,0.678132,2.02722,-0.08363546,0.8751346,-0.039011333,67.0,9.579781,0.2650757,2.080373,0.011780455,0.39304772,0.556669,-0.2400418,-0.5799228,-0.31752303,2016-12-03 17:50:17,70.89220996069467
9.540492,0.270296,2.4051561,-0.051863458,0.2690226,-0.0047953315,65.0,9.538618,0.24999388,2.263329,5.178864E-4,-0.010734123,-0.09398703,-0.25003982,-0.56752306,-0.3349866,2016-12-03 17:50:18,66.28374012896343
9.5979,0.416208,2.34416,0.0019045398,-0.024257384,0.0049806684,62.0,9.552224,0.23957945,2.206358,-0.036108255,-0.013972576,0.09422186,-0.24837685,-0.570803,-0.33015886,2016-12-03 17:50:19,64.51883607094737
9.57398,0.252356,2.334592,-0.05675146,0.2787986,-0.0023513325,62.0,9.557777,0.22951953,2.1832533,-0.0150076,0.007063527,-0.17286679,-0.25004172,-0.57110786,-0.33068246,2016-12-03 17:50:20,69.18870886601673
9.554844,0.259532,2.23652,-5.394593E-4,0.031954616,0.0049806684,65.0,9.514713,0.2428595,2.3625472,-0.03654314,0.0048554954,0.05546309,-0.24929133,-0.56338036,-0.3370128,2016-12-03 17:50:22,52.40980652110986
9.58594,0.261924,2.177916,0.0019045398,-0.11468539,9.267032E-5,62.0,9.564958,0.24776451,2.1495597,-0.035334934,-0.011767485,-0.040316377,-0.25429177,-0.5707352,-0.33611953,2016-12-03 17:50:23,44.52932492209211
9.606272,0.249964,2.055924,-0.0029662512,-0.05864818,0.0025173798,62.0,9.572736,0.24280016,2.1152198,-0.021576457,-0.014339838,-0.02801219,-0.25609267,-0.57146335,-0.33677208,2016-12-03 17:50:24,70.14989232871667
9.512984,0.728364,1.8645641,0.14367375,-0.2761642,0.02206938,59.0,9.610375,0.24622752,1.936605,0.016062662,-0.05038049,-0.13845526,-0.25860447,-0.57825977,-0.3338824,2016-12-03 17:50:25,68.75304950762434
9.5225525,0.271492,2.20064,-0.0029662512,-0.4521322,-0.04391862,66.0,9.496854,0.20483196,2.4368422,-0.057989832,0.09958395,-0.1895736,-0.24921015,-0.5600446,-0.33670178,2016-12-03 17:50:26,67.72060474341374
3.41458,-0.080132,-0.69607204,-1.0734383,1.9796479,-0.5424946,78.0,9.323174,0.06651509,3.0404596,0.54094636,1.1249751,0.7250034,-0.24177785,-0.5352786,-0.3384092,2016-12-03 17:50:28,50.60839833204561
2.3094761,10.054772,4.559152,1.2850218,0.13931581,1.3784894,147.0,-0.47887367,8.83481,4.2293277,1.7110025,2.552222,1.4546076,0.3081989,-0.43517557,-0.71580607,2016-12-03 17:50:29,44.75961730942302
0.058604002,9.199633,2.413528,1.6174058,-0.76740813,0.64528936,161.0,-1.0778146,9.0891485,3.520811,-1.0562866,-0.274336,0.6563909,0.36572722,-0.43212527,-0.68755114,2016-12-03 17:50:30,40.73505667779031
1.308424,8.651864,3.143088,-0.31824225,0.019559816,-0.33719862,202.0,-0.20595834,8.742466,4.438159,-1.6734502,-0.07683833,1.450551,0.29687896,-0.43078968,-0.7129208,2016-12-03 17:50:31,51.911942066325594
1.425632,9.224749,3.320096,-0.20093025,-0.49123618,0.10760938,195.0,-0.03928864,9.030531,3.8233974,-1.3082448,-0.22770518,0.060781218,0.30420116,-0.4610018,-0.69778806,2016-12-03 17:50:32,56.25897845466405
1.079988,9.733048,4.014972,0.30253375,-0.7063082,-0.41296262,198.0,0.57843906,9.262058,3.1701853,-0.99430096,0.058837973,-0.25515872,0.27626422,-0.511902,-0.690347,2016-12-03 17:50:34,35.44991754736377
1.380184,9.42448,3.174184,0.09234975,0.4105998,-0.014590621,203.0,0.6100164,9.245964,3.2109838,-0.91368765,-0.21080783,-0.013432314,0.27269894,-0.5117819,-0.6922069,2016-12-03 17:50:35,43.475185295677825
1.4878241,9.08362,2.216188,0.19744176,-0.17596018,-0.04636262,192.0,0.9262921,9.300932,2.967327,-0.018547902,-0.36274785,-0.19968086,0.26616198,-0.5271302,-0.68080693,2016-12-03 17:50:36,50.99582547375271
1.406496,9.3742485,3.178968,-0.020074252,0.0122278165,0.009849381,196.0,0.8424688,9.238954,3.1784232,-0.63698316,-0.106590495,0.32357115,0.25751054,-0.52118504,-0.693739,2016-12-03 17:50:37,37.836414971525414
1.29168,9.377836,2.101372,0.004365748,-0.2932722,-0.06347062,193.0,1.0145556,9.292218,2.9657648,-0.5055606,-0.3116618,-2.1842117,0.25813234,-0.5311834,-0.68324226,2016-12-03 17:50:38,42.231543846717784
1.107496,9.404148,2.23652,-0.11050226,-0.2688322,0.01718138,185.0,1.005423,9.308417,2.9176831,-0.34725305,0.001145663,0.208743,0.25851753,-0.5332994,-0.6828678,2016-12-03 17:50:40,45.901906044267584
1.35148,9.612252,4.04248,0.18033375,-0.024432182,0.09538938,195.0,0.5421318,9.172331,3.4270759,-0.6813762,0.12219898,0.7779358,0.26102364,-0.50708425,-0.7068865,2016-12-03 17:50:41,41.66470239637714
1.0249721,9.581156,2.3955882,-0.09339425,-0.05864818,0.03673338,157.0,0.46235332,9.444658,2.5990539,-0.5697947,-0.14606617,0.11974574,0.3074555,-0.52245224,-0.6648858,2016-12-03 17:50:42,45.57904220597193
1.0405201,9.648132,2.658708,-0.078730255,0.09287982,-0.009702619,157.0,0.8825997,9.455144,2.4477909,-0.23207237,-0.11046412,0.033066697,0.2954879,-0.53654855,-0.65395266,2016-12-03 17:50:43,47.83424399099019
0.81806403,9.637368,2.28436,0.19988576,0.029335815,0.00740538,153.0,0.5034186,9.497032,2.3923507,-0.26321736,-0.05661562,0.43210664,0.31792462,-0.5262585,-0.65250194,2016-12-03 17:50:45,38.089741060729054
0.84198403,9.648132,2.067884,-0.103170246,-0.061092187,-0.00725862,139.0,0.7425494,9.546879,2.1156838,0.47703743,-0.29859248,0.5513158,0.3197106,-0.53843784,-0.6375011,2016-12-03 17:50:46,48.04093269847797
0.688896,9.518964,2.132468,0.44672975,0.14664783,-0.09035462,179.0,0.5681418,9.310073,3.0282257,-0.4101862,-0.17061903,0.15304157,0.28104755,-0.5163485,-0.68564117,2016-12-03 17:50:47,26.57229574761732
0.981916,9.545277,2.436252,-0.18626624,-0.021988183,0.046509378,157.0,0.6362147,9.457386,2.5146518,-0.55500126,-0.04602993,-0.06870821,0.29916862,-0.5313065,-0.66297805,2016-12-03 17:50:48,40.78168585722763
1.756924,9.194848,6.2909603,0.35385776,-0.73808014,0.9239054,234.0,-0.63834,8.1944895,5.349138,-2.325896,-0.3760475,0.024545243,0.27825156,-0.38709944,-0.7514731,2016-12-03 17:50:49,34.732388449700636
1.999712,9.163753,2.823756,0.14122975,0.7234318,0.3177934,150.0,0.77632195,8.846767,4.159617,-1.2939541,-0.32057285,0.51301265,0.21839873,-0.490123,-0.73781335,2016-12-03 17:50:51,49.37042519509092
2.934984,3.2315922,9.279764,-1.2909542,-0.8920522,-0.7551226,350.0,1.8451531,4.859624,8.31564,-9.036055,1.7571996,-6.184664,0.15102777,-0.23067512,-0.56493545,2016-12-03 17:50:52,29.797977044935852
2.857244,6.435676,4.707456,0.93552977,0.21263582,-5.887522,265.0,4.02383,8.201021,3.5668504,-2.0996897,2.8333728,-0.06420564,0.1740621,-0.5365106,-0.59289384,2016-12-03 17:50:53,59.84098720016409
0.04186,10.234172,1.760512,-0.24492225,-0.3006042,0.08072538,167.0,0.06314941,9.739433,1.1444818,-1.2321187,-0.16942601,0.09439371,0.3479702,-0.5661841,-0.63406044,2016-12-03 17:50:54,39.057276476990175
-2.817776,9.2510605,1.8023721,-0.72639024,0.4619238,-0.3665266,29.0,-1.5439926,9.6067,1.2238415,-0.49749273,1.3997476,-0.4134826,0.52964115,-0.39633533,-0.5388955,2016-12-03 17:50:55,45.640813734554094
-1.468688,8.456916,4.2242723,-0.82903826,2.2949238,-1.1021707,122.0,-1.9950154,8.853592,3.715407,-0.5956953,-0.10444822,-0.81145346,0.45432237,-0.32273555,-0.6178948,2016-12-03 17:50:57,50.13265502090049
4.243408,7.2477603,5.1727,0.52982575,1.5275078,-0.4154066,269.0,4.232357,7.293407,5.0063715,-0.085203126,0.31235507,0.13506342,0.14923601,-0.47167227,-0.58506554,2016-12-03 17:50:58,49.5106824520689
4.99928,7.88164,1.8609761,2.8711777,-2.6370683,0.36911738,243.0,3.5738554,8.853916,2.2374387,-0.32032064,0.56922436,-0.97023326,0.29535452,-0.5465237,-0.49983016,2016-12-03 17:50:59,47.67494808853496
4.5256643,8.41386,0.716404,0.7546737,-0.52300817,-0.3689706,182.0,3.643348,8.985336,1.4697505,-0.61919606,0.47699207,-0.14126141,0.27751014,-0.58995914,-0.5145695,2016-12-03 17:51:00,71.0863561720703
1.32158,10.01052,2.171936,-0.7606062,1.0387079,-0.6329226,122.0,1.3436636,9.68123,0.79922616,-1.2552444,0.5402011,-1.1813499,0.3962787,-0.54973996,-0.5317495,2016-12-03 17:51:02,40.16335884051382
1.048892,8.897044,4.023344,-0.04207025,-0.031764183,-0.15878662,222.0,0.71642834,8.997195,3.8350494,-0.8228237,0.26998365,-0.026834816,0.26265848,-0.4852602,-0.69961214,2016-12-03 17:51:03,60.2021520485621
1.639716,9.040565,3.6824841,0.20966175,-0.17596018,0.03673338,221.0,1.1165721,8.940469,3.8719087,0.05930815,-0.48520753,0.3676286,0.21238688,-0.5074243,-0.72445714,2016-12-03 17:51:04,45.529512122119186
1.1469641,9.381424,3.8152401,0.41495776,1.0631478,-0.6035946,193.0,0.80186,9.237099,3.1942787,-0.16091998,0.02789923,1.6633986,0.2271797,-0.5343468,-0.7189021,2016-12-03 17:51:05,40.59279496679171
0.712816,9.788064,3.925272,-1.0489982,0.9433918,-0.4985026,156.0,0.5687892,9.4270315,2.641581,-0.13326281,-0.4136562,-0.37951487,0.33004218,-0.5063487,-0.6399995,2016-12-03 17:51:07,60.656470622164264
2.342964,8.638708,4.046068,-0.97812223,0.68921584,0.38133737,171.0,0.57202977,9.365989,2.8498151,-2.8832142,0.9341887,-0.78841686,0.36139655,-0.47338405,-0.6076009,2016-12-03 17:51:08,76.06728236330264
1.7916081,9.070464,4.074772,0.009253748,-0.6207682,-0.68180263,193.0,0.2453484,9.584046,2.0630739,-1.3919758,0.3473381,-2.029638,0.44305643,-0.44554865,-0.53740734,2016-12-03 17:51:09,75.90994973977675
-4.064008,6.551688,2.890732,-0.69217426,-1.0704641,-0.60115063,132.0,-6.046794,6.174429,4.6349864,-1.70651,-0.79346746,0.027993923,0.44308668,-0.2595297,-0.82791567,2016-12-03 17:51:10,73.79322408188675
-0.232024,-0.55614,9.820356,-4.9530156E-4,-0.016659029,0.002487652,261.0,-0.8446884,-0.77596676,9.739342,-0.6186444,-0.20547475,-0.106129885,0.023341471,0.053730663,-0.9123505,2016-12-03 17:51:11,64.20585380078154
-0.220064,-0.570492,9.853845,-0.002820773,-0.014645684,0.0023194104,263.0,-0.23433441,-0.56916434,9.787314,-0.0058983923,-0.009436339,-0.04500234,-8.173827E-4,0.031387452,-0.91401845,2016-12-03 17:51:13,53.46096826652547
-0.224848,-0.558532,9.8681965,-0.0027049854,-0.015263415,0.0021300055,261.0,-0.23521668,-0.5687603,9.787317,-0.009172665,0.0053197336,-0.073702365,-6.5646064E-4,0.031389337,-0.9154486,2016-12-03 17:51:14,48.44178238168786
-0.226044,-0.56570804,9.863412,-1.5061721E-4,-0.01356612,0.0019331165,263.0,-0.2389081,-0.57173854,9.787055,-0.017648086,-0.0072265537,-0.05124153,-3.8785147E-4,0.031606603,-0.91742575,2016-12-03 17:51:15,51.72880008687845
-0.22843601,-0.553748,9.864608,-4.4804066E-5,-0.009706728,0.0017795451,262.0,-0.23874648,-0.567481,9.787306,-0.006722477,0.017363004,-0.06534137,-9.061928E-5,0.031405173,-0.9201705,2016-12-03 17:51:16,58.09532496732375
-0.212888,-0.571688,9.84906,0.0024634432,-0.0083791,0.0040963683,263.0,-0.24108253,-0.5650803,9.787388,0.012469496,0.014979688,-0.09037644,2.7985653E-4,0.031337716,-0.92280304,2016-12-03 17:51:18,70.43659609481793
-0.211692,-0.54418004,9.827532,-0.0022652466,-0.009697672,0.0015395507,261.0,-0.24751282,-0.5670636,9.787112,0.009627185,-0.0695276,0.19399638,7.6985697E-4,0.031552657,-0.92552334,2016-12-03 17:51:19,67.6283229830793
-0.212888,-0.566904,9.904077,0.002707528,-0.0062214155,0.0014193933,263.0,-0.24315041,-0.5660444,9.78728,-0.023086404,-0.0027284021,-0.1156009,6.5649307E-4,0.031418916,-0.92640245,2016-12-03 17:51:20,56.13268795963492
-0.22245601,-0.558532,9.875372,0.0026669707,-0.002953846,0.0013767574,262.0,-0.24618539,-0.56930715,9.787016,-0.01057338,-0.0024031156,-0.01300795,7.903776E-4,0.031630237,-0.92702204,2016-12-03 17:51:21,55.85505676837641
-3.0222921,2.474524,9.13744,-1.498052,-0.0027381945,2.320609,354.0,-4.4582295,3.3122501,8.082301,-0.011501637,-0.32000208,-0.20119478,0.29578516,-0.020700632,-0.80450255,2016-12-03 17:51:22,41.46835973942875
-0.13156,0.50949603,7.22384,1.8062359,0.5056138,-3.801611,50.0,2.5026686,1.6203082,9.3424635,-1.3185517,0.1791282,2.5922394,-0.080120124,-0.13133034,-0.8903971,2016-12-03 17:51:24,43.17886985293083
-1.2964641,1.778452,9.428068,1.798904,-1.1538622,-1.010563,30.0,-1.5207673,0.5649522,9.67153,-2.7083955,2.358952,0.23389351,0.08295212,0.0028602632,-0.92165756,2016-12-03 17:51:25,43.20027618965846
-0.19734001,1.35148,9.834708,0.100323945,0.043697804,0.06479694,29.0,-0.15036161,1.5731214,9.678486,-0.3118216,0.46323338,0.3592536,0.040666454,-0.06986311,-0.90521985,2016-12-03 17:51:26,26.753405840359363
-1.840644,1.107496,9.133852,0.7406519,2.1137657,-0.7832711,31.0,-1.3368975,2.8043168,9.301554,-0.046413377,2.014957,-1.4995226,0.11882606,-0.10785697,-0.913337,2016-12-03 17:51:28,43.827349993541766
-1.6636361,4.3905163,9.35272,0.022115946,-0.2202542,-1.120543,18.0,-1.168614,5.2833443,8.178691,0.49621803,0.7182123,-1.249377,0.19556153,-0.21156196,-0.826981,2016-12-03 17:51:29,39.31978763608856
-3.149068,3.56408,8.636316,-1.1021241,2.3483899,0.18699694,13.0,-3.2052352,4.894718,7.8701086,0.9257491,1.450238,-1.2266672,-0.16741048,0.2659134,0.9491973,2016-12-03 17:51:30,51.613334515178444
-2.109744,0.30258802,12.284117,-4.572604,4.257154,2.132421,17.0,-1.6224557,4.7964664,8.39833,-0.3702436,3.7547503,2.8823774,0.19114406,-0.18779863,-0.85981303,2016-12-03 17:51:31,45.60576468051057
-0.208104,0.934076,10.582209,-0.35426003,-0.2544702,-0.052515056,30.0,0.04479513,2.1690116,9.56367,0.37728313,0.9132116,0.018393734,0.046201855,-0.10126186,-0.89541423,2016-12-03 17:51:32,35.695826021276154
-0.308568,1.101516,10.539152,0.25429595,-0.022290194,0.037912942,32.0,0.3481644,1.5656668,9.6746,0.3003244,0.9413547,-0.30362874,0.020915242,-0.079343,-0.88558364,2016-12-03 17:51:34,34.40107132211227
-0.14471601,0.864708,9.890921,0.061219946,0.07546981,-0.0011910573,31.0,0.06832191,1.5104694,9.689387,0.15443392,0.5620414,-0.06758184,0.030550968,-0.071031295,-0.8971482,2016-12-03 17:51:35,37.61012825119905
0.064584,0.81567204,10.15404,0.11009994,0.117017806,0.015916942,32.0,0.063765496,0.867197,9.768025,0.024297493,0.09218897,-0.53073186,0.016068863,-0.04136645,-0.90218973,2016-12-03 17:51:36,30.312052356963783
0.91135204,2.372864,10.066732,-0.34937203,0.2709898,0.18455294,27.0,0.8629914,3.3002021,9.194255,-0.035204586,0.26475424,0.32711014,0.030738318,-0.17400771,-0.8944103,2016-12-03 17:51:37,27.694090614659558
2.728076,3.4815562,7.1293564,-0.30049205,-0.5770782,-0.067179054,29.0,0.29793936,2.842707,9.380865,-0.8717486,-0.048025195,2.2000809,0.050432604,-0.13843963,-0.88898784,2016-12-03 17:51:39,41.442707448735376
0.963976,0.95440805,10.683868,-0.08542005,0.11212981,0.05013294,32.0,0.8374771,2.1419091,9.533166,0.19642113,0.8813252,-0.28718963,0.005155389,-0.11797143,-0.90815544,2016-12-03 17:51:40,33.486187473624355
0.165048,1.75214,8.9102,-0.13918805,-0.1615982,0.0036969408,30.0,0.6577134,2.1211224,9.551892,0.25705338,0.40247035,-0.43470776,0.012714873,-0.11325804,-0.9101628,2016-12-03 17:51:41,43.95121250122315
0.56570804,1.6253641,10.32148,0.09054795,0.1267938,0.09901294,32.0,0.9539226,1.9353348,9.566342,0.19446261,0.45349064,-0.09494623,-0.005936526,-0.11053084,-0.91373146,2016-12-03 17:51:42,35.62037739131337
-0.727168,1.9291481,10.049988,0.012339946,0.37608182,0.05257694,31.0,0.6519378,1.9490715,9.588873,1.3946538,0.08331132,-0.24105215,0.00823306,-0.10505124,-0.9155455,2016-12-03 17:51:43,43.13728619477742
0.441324,1.616992,9.9172325,0.16386795,0.055917807,-0.050071057,31.0,0.74606,2.009405,9.569539,0.301148,0.41513667,-0.13241233,0.004142477,-0.10987334,-0.9180899,2016-12-03 17:51:45,44.19925575560117
0.344448,2.711332,8.1328,1.317436,-0.10049819,0.26276094,29.0,0.39289004,2.7292447,9.411017,0.38093004,0.37192866,0.01643734,0.037011325,-0.13711973,-0.90915596,2016-12-03 17:51:46,40.955736571458246
-1.5727401,3.419364,8.903025,-1.1094561,1.4709938,0.66113293,25.0,-0.7932162,4.0372453,8.901791,-0.25023222,1.6560093,-1.4699218,0.13449684,-0.16746846,-0.865101,2016-12-03 17:51:47,46.25670339524862
0.129168,3.36076,8.217716,1.769576,-0.6846142,-0.030519057,31.0,0.17465587,3.5279176,9.148425,-0.26068816,0.80103755,0.5826725,0.07254228,-0.16821937,-0.882364,2016-12-03 17:51:48,42.87464733292922
-0.102856,1.295268,9.5979,0.083215944,-0.10538619,-0.03785106,33.0,0.26031795,1.6351125,9.665871,0.33805794,0.24655645,0.10385025,0.023448002,-0.081412636,-0.902217,2016-12-03 17:51:50,40.352371821534746
0.658996,1.706692,9.61584,0.05144395,0.31742582,-0.05984706,31.0,1.1794337,2.2235022,9.478152,0.27764973,0.4534221,-0.18194003,-0.0076845298,-0.12918863,-0.90202767,2016-12-03 17:51:51,46.114219361407585
0.64823204,1.426828,9.790456,0.056331947,0.024145804,0.0036969408,34.0,0.70682186,1.4860014,9.667605,0.07533384,0.053193394,0.121133395,-0.0016208427,-0.0841825,-0.90791464,2016-12-03 17:51:52,54.77033691446783
0.5083,1.499784,9.755773,0.09054795,-0.027178196,-0.013411056,31.0,0.5530231,1.4739006,9.679472,-0.07009287,-0.016315468,0.006223989,0.0053356183,-0.08034821,-0.9079717,2016-12-03 17:51:53,37.81649367840575
0.60398,1.4124761,9.709128,-0.009656053,0.024145804,-0.0011910573,32.0,0.56835353,1.3949057,9.690284,0.04330953,0.011133681,-0.0941922,0.0028301673,-0.076974176,-0.90888095,2016-12-03 17:51:54,34.62515710614711
0.18059601,1.041716,9.800024,0.009895947,0.016813803,0.0061409418,32.0,0.1438281,1.0185224,9.752554,-0.0750399,-0.036349736,-0.052254505,0.014922491,-0.050353214,-0.9083781,2016-12-03 17:51:56,34.90343718511818
-0.087308004,1.11826,9.826336,0.13698395,-0.019846195,-0.008523058,35.0,-0.112299554,1.1154001,9.742365,-0.01781555,0.03899996,0.051176645,0.02873225,-0.049519017,-0.9093754,2016-12-03 17:51:57,51.398885797280045
-0.019136,0.89580405,9.8430805,-0.10497205,-0.076058194,0.0061409418,33.0,-0.034811202,0.89627093,9.765546,0.0142247975,0.02917093,-0.14451018,0.020219253,-0.041072488,-0.9126873,2016-12-03 17:51:58,49.63140148676682
0.141128,0.68172,9.966269,-0.041428052,-0.1542662,-0.06962305,35.0,-0.22455835,0.615935,9.784713,0.35550162,0.089695066,-0.2449439,0.023053128,-0.024230113,-0.9162466,2016-12-03 17:51:59,41.972340240810475
-0.306176,1.185236,9.9913845,0.17364395,-0.029622195,-0.015855059,33.0,-0.28702232,1.0858138,9.742126,-0.03347029,0.05844978,0.4121306,0.035554238,-0.045008063,-0.91554856,2016-12-03 17:52:00,44.21738755454807
-0.145912,1.150552,9.717501,0.036779948,0.0021498036,0.0036969408,32.0,-0.15866362,1.1303834,9.739994,0.07096839,0.059963327,-0.23225394,0.03069656,-0.049561422,-0.91352594,2016-12-03 17:52:02,28.845741260139143
-0.06578,0.94364405,9.631389,-0.08297605,0.011925804,0.086792946,32.0,-0.15760274,1.1112981,9.742206,-0.04278674,-0.036861923,-0.03987842,0.03030597,-0.048655093,-0.9131322,2016-12-03 17:52:03,61.507962377738544
0.07176,1.12424,9.468732,-0.25894403,-0.1322702,0.020804942,35.0,-0.11600611,0.8289743,9.770861,0.30259392,-0.16131373,-0.20019057,0.022797376,-0.036124796,-0.9106524,2016-12-03 17:52:04,48.57674823129421
-0.135148,1.132612,9.788064,0.056331947,-0.056506194,0.008584943,35.0,-0.10764431,1.1506927,9.738312,-0.021532306,0.009708617,-0.07008476,0.029144656,-0.0513313,-0.9102257,2016-12-03 17:52:05,41.247663842023385
-0.13754,1.26178,9.929193,0.017227948,-0.0125141945,-0.030519057,36.0,-0.07624701,1.2906634,9.721047,0.04933299,-0.035700697,-0.19140053,0.030502785,-0.058601264,-0.9107208,2016-12-03 17:52:07,47.833093341869244
-0.033488,1.4352,9.776104,0.014783949,0.0070378045,-0.0011910573,32.0,-0.06925083,1.4403203,9.700055,-0.009450829,0.013492227,-0.060500354,0.0330971,-0.06587425,-0.91159976,2016-12-03 17:52:08,38.76830965404763
0.03588,1.475864,9.965073,0.007197717,-0.004923869,-0.032964364,34.0,-0.050121877,1.459884,9.697248,-0.032181878,-0.02196005,0.08260405,0.032326102,-0.067327514,-0.9132395,2016-12-03 17:52:09,31.89870398450141
0.096876,1.4507481,9.674444,0.085405715,-0.16867188,0.020803632,32.0,0.025633221,1.4190177,9.703407,0.048357222,0.12016163,0.16291502,0.028100422,-0.066889994,-0.912393,2016-12-03 17:52:10,38.841244445721685
-0.20332001,1.8813081,9.856236,-0.049014285,0.38122815,0.121007636,32.0,-0.07381196,1.8326014,9.633615,0.15821204,0.054149378,0.011793898,0.04297608,-0.08351925,-0.9028708,2016-12-03 17:52:11,47.4965725079019
-0.32292,1.794,9.82514,0.043857716,0.04640013,-0.020744367,32.0,-0.2451744,1.6612568,9.661807,-0.03228638,0.14233679,0.0615145,0.04692801,-0.07199124,-0.9051234,2016-12-03 17:52:13,39.42204410550248
-0.16146,1.706692,9.58594,-0.031906284,0.02929213,-0.0011923667,33.0,-0.21131249,1.7378016,9.649134,0.037455525,-0.0047704293,-0.1293623,0.046722703,-0.07647284,-0.9063667,2016-12-03 17:52:14,41.94350355653866
-0.163852,1.723436,9.662484,-0.012354284,-0.009811869,-0.0060803685,31.0,-0.18824936,1.7032807,9.655764,0.010286636,0.039644614,-0.13469197,0.0448212,-0.07539296,-0.9069964,2016-12-03 17:52:15,35.7953686978088
-0.24039601,1.712672,9.491456,-0.13455428,0.012184131,-0.028076367,33.0,-0.18004407,1.7616999,9.645434,0.07589995,0.009559856,-0.09837796,0.04533951,-0.07851176,-0.9085734,2016-12-03 17:52:16,31.152089598891074
-0.114816,1.75214,9.581156,-0.029462283,0.012184131,-0.008524368,31.0,-0.19490364,1.7344341,9.650085,0.020376379,-0.06195786,-0.115254276,0.045397688,-0.07695231,-0.9089939,2016-12-03 17:52:17,40.57629781448786
-0.15069601,1.497392,9.269,0.20516172,-0.14178787,0.033023633,33.0,-0.108266026,1.814209,9.636768,-0.37019002,0.16612098,-0.03767536,0.043005627,-0.08253519,-0.90882295,2016-12-03 17:52:19,38.062940063756685
0.47840002,2.0595121,10.14806,-0.024574284,-0.024475867,0.008583633,31.0,-0.051715065,1.6756247,9.662298,0.22814894,-0.23079935,-0.14609833,0.037027154,-0.07738813,-0.9115759,2016-12-03 17:52:20,49.06438942985075
-3.766204,0.98311204,9.363484,0.6255297,1.942944,-0.28714037,33.0,-2.7604492,1.7335799,9.249057,0.55725485,1.1379719,0.84596044,0.167119,-0.022376325,-0.8969129,2016-12-03 17:52:21,46.54611273214084
-5.342532,4.110652,9.990189,-1.6400583,0.44966015,0.13078363,14.0,-5.0534234,4.3073397,7.216657,0.43502107,-0.0712164,-3.2005029,0.36186084,-0.033311564,-0.7614382,2016-12-03 17:52:22,37.850061349815796
-4.214704,2.388412,8.50356,1.7913177,-2.0090036,-0.8737004,17.0,-4.637637,3.5096564,7.895886,-0.7171493,0.6715484,0.5428776,0.31202182,-0.008014657,-0.7720329,2016-12-03 17:52:24,37.309630784398074
-4.355832,3.619096,8.154328,-0.25919828,0.65740013,-0.008524368,20.0,-4.1514683,4.159786,7.8505993,-0.44745618,0.0479381,-0.08844927,0.31341034,-0.03879283,-0.7476706,2016-12-03 17:52:25,44.55655399309025
-4.246996,3.597568,8.471269,-0.19809829,0.41055614,-0.09162036,23.0,-4.29409,3.3285618,8.164059,-0.09732582,-0.11831015,0.071921915,0.28927755,-0.008206424,-0.7728638,2016-12-03 17:52:26,48.846069759097546
-4.4275923,2.412332,8.373197,0.08784972,0.22970012,-0.07940037,22.0,-4.201231,2.8981123,8.373829,0.105564944,0.21428807,-0.47776657,0.27025715,-0.0038310734,-0.8001799,2016-12-03 17:52:27,49.00139956625601
-2.9170442,4.7421403,8.403096,0.63774973,-1.0289599,0.106343634,18.0,-4.0755715,4.627426,7.6254206,0.97992027,-0.8897215,-1.8983278,0.31238788,-0.11672874,-0.83132577,2016-12-03 17:52:29,40.27338178403018
-0.824044,4.938284,7.5623083,0.33958173,-1.5470879,-0.010968367,24.0,-0.6741893,5.1730227,8.303957,-0.2699413,0.19168285,0.68782854,0.13649128,-0.24080324,-0.89020234,2016-12-03 17:52:30,48.89974758522618
4.237428,3.8331802,7.226232,0.33713773,1.3123921,1.3478956,31.0,4.7971864,3.5420787,7.7853117,0.6171666,-0.17748131,0.43469548,-0.15176474,-0.28289056,-0.85590017,2016-12-03 17:52:31,49.38555641600827
1.9614401,0.31454802,10.496097,-4.2942424,3.1136203,3.7332397,61.0,2.1960766,1.7547654,9.395129,0.99050844,-1.2340386,1.9906933,-0.046114977,-0.1373142,-0.8316111,2016-12-03 17:52:32,33.40797594363934
1.703104,-1.063244,9.815572,-0.18343428,-0.34708387,-0.32868838,79.0,2.0310245,-0.7358234,9.565767,0.30758858,0.41114065,0.65915483,-0.10611112,-0.031969894,-0.7970245,2016-12-03 17:52:34,37.18894649262514
2.4912682,0.075348005,10.511644,-0.21031828,1.7180961,-1.1303203,67.0,3.0612078,0.21906814,9.314044,0.33193567,0.06358815,0.8248364,-0.12421189,-0.09842439,-0.8156609,2016-12-03 17:52:35,52.800988549964046
1.180452,0.643448,10.075104,-0.22742628,0.7404961,0.22609963,67.0,1.9658912,0.61369795,9.587964,0.66464317,-0.17566213,0.09650807,-0.07089973,-0.07825069,-0.8569476,2016-12-03 17:52:36,40.705700853087656
0.838396,4.148924,10.601344,-1.7744783,-2.2631798,-1.7437643,60.0,0.97218853,4.6415324,8.58379,0.42202854,0.2665642,0.8839415,0.08798356,-0.2336825,-0.81702447,2016-12-03 17:52:37,24.817630465645184
-0.17461601,5.091372,8.900632,-0.056346282,0.18815212,-0.054960363,36.0,-0.015347061,5.2131195,8.306235,0.25016496,0.13490357,-0.38031334,0.08846069,-0.26205838,-0.91141385,2016-12-03 17:52:38,44.95676660456
0.299,5.2671843,8.131604,0.23204571,0.65740013,1.2867957,36.0,0.46091217,4.999566,8.423912,0.59247214,0.34353784,0.49682373,0.06935874,-0.25629947,-0.9035821,2016-12-03 17:52:40,41.745885367093535
6.20724,1.2581921,8.183032,0.21982571,-1.4713238,0.7051236,57.0,5.5888243,1.9781559,7.811681,-0.092176184,0.8957758,-0.6739397,-0.09195374,-0.30538452,-0.56041497,2016-12-03 17:52:41,46.8289373999403
7.637656,1.395732,6.677268,-0.92152226,-0.9556399,0.21387963,33.0,7.109698,1.5223904,6.580649,-0.43108258,0.18526232,0.013412439,-0.15923625,-0.3729935,-0.5269566,2016-12-03 17:52:42,40.31778214607603
5.706116,0.740324,8.248812,0.18316571,-0.13201188,-0.23337236,48.0,5.466614,0.5576687,8.122533,-0.14262627,-0.036743376,-0.23750645,-0.14962876,-0.2519471,-0.5691203,2016-12-03 17:52:43,22.275075955757664
5.898672,0.44491202,7.514468,-0.9532943,0.5620841,0.23343162,40.0,6.1479936,0.95722985,7.5799923,-0.093930334,0.047073886,0.40160045,-0.1600752,-0.29648593,-0.5694392,2016-12-03 17:52:44,43.68424051500742
2.973256,0.282256,9.62182,-0.33985028,-0.11490386,-1.3576123,69.0,3.0652504,-0.08359832,9.314916,-0.36128977,-0.19123833,0.7431828,-0.116343394,-0.10740453,-0.70697147,2016-12-03 17:52:46,44.979841043869904
1.9554601,3.3057442,9.456772,1.9281816,1.0313321,1.4236597,58.0,1.8781048,2.8578582,9.19107,0.08530074,-0.89997375,-0.6759312,-0.01671831,-0.17637001,-0.8698115,2016-12-03 17:52:47,26.24613404269916