ACC_X,ACC_Y,ACC_Z,GYRO_X,GYRO_Y,GYRO_Z,LIGH_1,GRAV_X,GRAV_Y,GRAV_Z,LINACC_X,LINACC_Y,LINACC_Z,ROTVEC_X,ROTVEC_Y,ROTVEC_Z,TIME,VOICE
0.47884035,5.985504,7.7667904,-0.002443461,0.012217305,0.0036651916,1.0,0.2514,7.0004997,6.8629,0.21139999,-0.7094,1.2064999,0.220028,0.31886598,0.777095,2017-06-18 19:51:10,57.415510155572406
0.545878,5.861006,8.025364,0.008552114,-0.052534413,0.007330383,1.0,0.5724,5.8589997,7.8430996,0.022799999,0.2791,0.5384,0.20069,0.243691,0.784971,2017-06-18 19:51:11,66.96574673342583
0.90021986,5.899313,7.872135,0.02565634,-0.004886922,0.04642576,1.0,0.80079997,5.8666997,7.8173,0.1291,0.3024,0.4145,0.212478,0.237234,0.785164,2017-06-18 19:51:12,79.09662231173601
1.0055647,5.9567738,7.8912888,-0.007330383,-0.02687807,0.04642576,1.0,0.9885,5.9079,7.7644997,-0.027999999,0.2853,0.46269998,0.224888,0.232285,0.78068,2017-06-18 19:51:13,78.54543897208521
0.91937345,5.899313,7.7572136,0.007330383,-0.034208454,0.004886922,1.0,0.88229996,5.9089,7.7766,0.0515,0.25239998,0.3945,0.215928,0.238487,0.788043,2017-06-18 19:51:14,72.49453623542317
0.60333884,5.8801594,7.824251,-0.007330383,0.035430185,0.0,1.0,0.61,5.8603997,7.8391,0.0145,0.294,0.3409,0.202179,0.243387,0.788802,2017-06-18 19:51:15,56.95566614455067
0.78529817,5.7748146,7.9966335,-0.010995574,0.1282817,-0.0012217305,1.0,0.81369996,5.8957,7.7939997,0.009,0.1472,0.56409997,0.210565,0.241399,0.792317,2017-06-18 19:51:16,61.422688836745216
1.0534488,5.841852,7.929596,-0.008552114,-0.11728613,-0.017104227,1.0,0.9005,5.8847,7.7928,0.49499997,0.0793,0.22209999,0.214976,0.237612,0.790496,2017-06-18 19:51:17,70.35224367098333
-0.7374141,0.038307227,18.339584,-0.94806284,-0.7892379,0.16737708,1.0,-1.214,-0.4527,9.7206,0.4254,0.1362,9.0651,-0.045816,0.0425,0.666424,2017-06-18 19:51:18,66.74606128479628
0.7565677,2.2601264,8.992621,0.032986723,0.007330383,0.004886922,1.0,0.6475,2.5254,9.4537,0.1379,-0.1513,-0.026999999,0.125704,0.046812,0.56565,2017-06-18 19:51:19,53.66821910401601
0.7661445,2.2026656,9.155427,-0.013439035,0.009773844,0.0036651916,1.0,0.7407,2.4064,9.4779,0.049,-0.0942,0.088999994,0.122235,0.043803,0.59362197,2017-06-18 19:51:20,52.506156728480626
0.8523358,2.2888567,8.66701,-0.013439035,-0.028099801,0.040317107,1.0,0.93869996,2.2988,9.4869995,-0.11009999,-0.0334,0.0784,0.122522,0.03581,0.617495,2017-06-18 19:51:21,54.66739733391667
0.02873042,0.46926352,9.442732,-0.004886922,-0.019547688,-0.0012217305,1.0,0.2051,0.22039999,9.802,-0.19559999,0.23349999,0.0929,0.016209,0.004232,0.848583,2017-06-18 19:51:22,42.38343323670293
0.15322891,0.49799395,9.289502,-0.002443461,-0.0036651916,0.002443461,1.0,0.132,0.412,9.797,0.0212,0.0976,-0.0502,0.017911,0.01289,0.803802,2017-06-18 19:51:23,44.94651221316487
0.11492168,0.5363012,9.279925,-0.0036651916,0.0061086523,0.0061086523,1.0,0.1547,0.49749997,9.7927,-0.0749,0.0986,0.0764,0.021565,0.015572,0.79645,2017-06-18 19:51:24,59.34280334727437
0.15322891,0.5363012,9.279925,-0.0061086523,-0.007330383,0.0061086523,1.0,0.1432,0.5412,9.7906,0.0015,0.0069,0.020399999,0.022573,0.017489,0.793978,2017-06-18 19:51:25,60.48012093383558
-0.15322891,0.5363012,9.299079,-0.0061086523,-0.13072516,-0.002443461,1.0,-0.028099999,0.34219998,9.8006,-0.120299995,0.20529999,0.0109,0.004583,0.016899,0.940235,2017-06-18 19:51:26,49.531487318279865
-0.1340753,0.48841715,9.222465,-0.002443461,-0.004886922,0.002443461,1.0,-0.1494,0.4278,9.7961,0.022799999,0.10569999,0.0150999995,0.001153,0.023002,0.926685,2017-06-18 19:51:27,50.85042821213438
-0.095768064,0.51714754,9.299079,-0.002443461,-0.007330383,0.0036651916,1.0,-0.0973,0.5083,9.7929,-0.0156,-0.0011,0.047599997,0.005147,0.025892999,0.926324,2017-06-18 19:51:28,44.772881093655016
-0.095768064,0.49799395,9.32781,0.002443461,-0.002443461,0.0036651916,1.0,-0.1047,0.5071,9.7929,0.0104,0.0077,0.027999999,0.004861,0.026009,0.925934,2017-06-18 19:51:29,48.38620406358474
-0.047884032,0.50757074,9.232041,-0.0036651916,-0.008552114,0.0012217305,1.0,-0.10569999,0.5139,9.7926,0.0614,0.0106999995,-0.0972,0.004884,0.026312,0.925925,2017-06-18 19:51:30,60.51351885405691
-0.12449849,0.49799395,9.289502,-0.0012217305,-0.0012217305,0.0012217305,1.0,-0.1074,0.5086,9.7928,-0.0075,-5.9999997E-4,-0.0016999999,0.004759,0.026025,0.925931,2017-06-18 19:51:31,55.69555249690119
-0.08619126,0.48841715,9.308656,-0.002443461,-0.0061086523,0.004886922,1.0,-0.105799995,0.51089996,9.7927,-0.0075,0.0063,2.0E-4,0.004819,0.026171,0.925928,2017-06-18 19:51:32,56.41506995849216
-0.11492168,0.49799395,9.308656,0.0012217305,0.008552114,0.0012217305,1.0,-0.110599995,0.5049,9.793,-0.0025,0.0099,-0.0101,0.004477,0.02598,0.925932,2017-06-18 19:51:33,58.38792799928184
-0.12449849,0.49799395,9.241618,-0.0036651916,-0.0012217305,0.0036651916,1.0,-0.105,0.5093,9.7928,-0.0082,-0.0103,0.0185,0.00479,0.026009,0.925933,2017-06-18 19:51:34,64.2416708802946
-0.11492168,0.50757074,9.299079,-0.0061086523,0.004886922,0.0036651916,1.0,-0.1046,0.5108,9.7927,0.031,-0.0162,-0.0576,0.004877,0.026146,0.92593,2017-06-18 19:51:35,57.01492855271863
-0.10534488,0.48841715,9.270349,-0.0061086523,0.002443461,0.0036651916,1.0,-0.102299996,0.511,9.7927,-0.0021,-0.0034999999,0.0,0.005045,0.026113,0.925932,2017-06-18 19:51:36,54.97442780905633
-0.10534488,0.47884035,9.346964,-0.0036651916,-0.014660766,0.0061086523,1.0,-0.103099994,0.5097,9.7928,-2.9999999E-4,-0.0121,0.0686,0.004924,0.026063,0.925935,2017-06-18 19:51:37,36.556440765988995
-0.095768064,0.48841715,9.270349,-0.007330383,0.0012217305,0.004886922,1.0,-0.103599995,0.5129,9.7926,0.0104,0.0133,-0.0589,0.004935,0.026167,0.925932,2017-06-18 19:51:38,60.335631352385555
-0.08619126,0.46926352,9.289502,-0.0036651916,0.002443461,0.0,1.0,-0.10569999,0.51559997,9.7925,0.0022,0.0013,0.039499998,0.004916,0.026391,0.925925,2017-06-18 19:51:39,52.34572167932476
-0.11492168,0.48841715,9.289502,-0.0061086523,-0.007330383,0.0036651916,1.0,-0.1109,0.5133,9.7925,-0.0026999998,-0.0056999996,0.0095,0.004625,0.026384,0.925923,2017-06-18 19:51:40,53.15856416724331
-0.10534488,0.49799395,9.289502,0.0,0.0012217305,0.007330383,1.0,-0.106699996,0.5155,9.7925,0.0045,0.0018999999,2.0E-4,0.004783,0.026380999,0.925924,2017-06-18 19:51:41,42.150401795788994
-0.11492168,0.48841715,9.279925,-0.0061086523,0.0,0.0012217305,1.0,-0.105299994,0.5173,9.792399,0.0016,5.9999997E-4,0.0187,0.004969,0.026465,0.925922,2017-06-18 19:51:42,59.181645447736884
-0.10534488,0.49799395,9.299079,-0.0012217305,-0.0061086523,0.0036651916,1.0,-0.1082,0.5166,9.792399,0.0063,-9.999999E-4,-0.0187,0.004746,0.026513,0.925919,2017-06-18 19:51:43,62.92139888275125
-0.11492168,0.49799395,9.289502,-0.0036651916,-0.0012217305,0.004886922,1.0,-0.1166,0.5193,9.7921,0.0026999998,-0.0021,0.0019999999,0.004898,0.026705,0.919787,2017-06-18 19:51:44,51.996770815345485
-0.12449849,0.47884035,9.279925,0.002443461,0.0,-0.0012217305,1.0,-0.1025,0.5081,9.7929,-0.02,0.0069,-0.0493,0.005406,0.02588,0.918733,2017-06-18 19:51:45,41.54909600787069
-0.12449849,0.50757074,9.260772,-0.0012217305,-0.002443461,0.0036651916,1.0,-0.099,0.5191,9.792399,-0.0246,0.0049,-0.0585,0.005763,0.026392,0.920475,2017-06-18 19:51:46,55.29324338570592
-0.11492168,0.50757074,9.289502,-0.0036651916,-0.007330383,0.0036651916,1.0,-0.0973,0.5164,9.7925,-0.0155,0.0104,9.0E-4,0.005699,0.02619,0.920484,2017-06-18 19:51:47,55.62774896116528
-0.095768064,0.48841715,9.289502,-0.0012217305,-0.0012217305,0.0036651916,1.0,-0.1047,0.51519996,9.7925,-0.0072999997,0.02,-0.0391,0.00529,0.026342,0.920478,2017-06-18 19:51:48,43.993739050779055
-0.10534488,0.48841715,9.279925,-0.0036651916,-0.002443461,0.004886922,1.0,-0.1039,0.5196,9.7923,0.0103,-0.0025,0.0098,0.005456,0.026473999,0.920475,2017-06-18 19:51:49,60.96987456009293
-0.095768064,0.47884035,9.279925,-0.002443461,-0.004886922,0.007330383,1.0,-0.0971,0.51519996,9.7926,0.0039999997,-0.0175,0.0101,0.005682,0.02617,0.920483,2017-06-18 19:51:50,64.91604028638935
-0.095768064,0.48841715,9.270349,-0.002443461,-0.0012217305,0.002443461,1.0,-0.104399994,0.5173,9.792399,0.0111,-0.0116,-0.0493,0.005383,0.026375,0.920476,2017-06-18 19:51:51,50.597361653942656
-0.10534488,0.49799395,9.3182335,0.0,-0.002443461,0.0036651916,1.0,-0.107,0.5122,9.7926,4.9999997E-4,0.0262,0.0385,0.005289,0.026158,0.920481,2017-06-18 19:51:52,58.98896042613564
-0.095768064,0.51714754,9.279925,-0.0036651916,-0.0036651916,0.0061086523,1.0,-0.1039,0.5137,9.7926,-0.019399999,0.0149,0.0486,0.005337,0.026197,0.92048,2017-06-18 19:51:53,50.204108139474
-0.095768064,0.50757074,9.289502,-0.0012217305,0.0,0.0061086523,1.0,-0.107,0.5159,9.792399,0.0132,0.0109,4.9999997E-4,0.005233,0.026359,0.920476,2017-06-18 19:51:54,45.12860405035767
-0.095768064,0.50757074,9.270349,-0.0036651916,-0.0061086523,0.004886922,1.0,-0.10349999,0.5147,9.7925,0.0109,-0.0069,-0.0196,0.005305,0.026196,0.920481,2017-06-18 19:51:55,49.04231756548712
-0.095768064,0.50757074,9.270349,0.0012217305,0.008552114,0.0036651916,1.0,-0.108899996,0.51669997,9.792399,0.024699999,7.0E-4,0.0095,0.005161,0.026435,0.920473,2017-06-18 19:51:56,53.993279163653995
-0.08619126,0.50757074,9.270349,-0.002443461,0.0012217305,0.002443461,1.0,-0.1026,0.51519996,9.7925,0.0186,0.0112,-0.009099999,0.005449,0.026277,0.920479,2017-06-18 19:51:57,51.36220513818507
-0.11492168,0.48841715,9.289502,-0.0012217305,0.002443461,0.004886922,1.0,-0.096999995,0.5161,9.7925,-0.0158,-0.0089,-1.0E-4,0.005707,0.02617,0.920483,2017-06-18 19:51:58,39.743716355155655
-0.10534488,0.49799395,9.260772,0.0,0.002443461,0.004886922,1.0,-0.1081,0.5137,9.7925,0.0414,-0.027199998,-0.04,0.005263,0.026247,0.92048,2017-06-18 19:51:59,51.770561297465534
-0.095768064,0.47884035,9.279925,-0.0012217305,0.007330383,0.004886922,1.0,-0.1153,0.5201,9.7921,-0.018199999,0.017099999,0.009699999,0.00493,0.02672,0.920467,2017-06-18 19:52:00,52.47086816374345
-0.095768064,0.50757074,9.289502,-0.002443461,0.0036651916,0.004886922,1.0,-0.1047,0.5158,9.7925,0.0112,0.0104,-0.0095,0.005339,0.02631,0.920479,2017-06-18 19:52:01,51.13757902381088
-0.10534488,0.48841715,9.279925,-0.002443461,-0.0061086523,0.0012217305,1.0,-0.103999995,0.51,9.7928,-0.0137,-0.024999999,-0.0389,0.005519,0.025988,0.920486,2017-06-18 19:52:02,60.93529579380749
-0.08619126,0.50757074,9.299079,0.0,0.0,0.0061086523,1.0,-0.10349999,0.51089996,9.7927,-0.019199999,0.0046,-0.030199999,0.005299,0.026059,0.920479,2017-06-18 19:52:03,65.56085795213271
-0.10534488,0.46926352,9.299079,0.0,-0.0036651916,0.007330383,1.0,-0.107099995,0.5105,9.7927,0.0041,-0.025899999,-0.0207,0.005133,0.026167,0.920476,2017-06-18 19:52:04,54.72394939750451
-0.11492168,0.46926352,9.299079,-0.0036651916,-0.0061086523,0.002443461,1.0,-0.1026,0.5121,9.7927,-0.0105,-0.024799999,0.0093,0.005367,0.026097,0.92048,2017-06-18 19:52:05,41.77640326823542
-0.095768064,0.49799395,9.299079,-0.002443461,-0.002443461,0.004886922,1.0,-0.0954,0.5172,9.7925,-0.0072999997,-0.010799999,0.0101,0.005812,0.026238,0.920477,2017-06-18 19:52:06,37.62118105817453
-0.11492168,0.49799395,9.3182335,-0.0012217305,-0.002443461,0.0036651916,1.0,-0.1096,0.5139,9.7925,-0.0134,0.0018,-0.02,0.0050749998,0.026318999,0.920468,2017-06-18 19:52:07,49.80123787761005
-0.11492168,0.50757074,9.3182335,-0.007330383,-0.009773844,0.004886922,1.0,-0.102699995,0.5105,9.7928,-0.0106999995,0.0175,0.059299998,0.005331,0.02602,0.920475,2017-06-18 19:52:08,60.37446205722262
-0.10534488,0.48841715,9.299079,-0.0036651916,0.0061086523,0.002443461,1.0,-0.1026,0.51339996,9.7926,-0.011299999,0.023,-0.0104,0.005418,0.026078,0.920472,2017-06-18 19:52:09,65.39945043643571
-0.12449849,0.49799395,9.308656,-0.0012217305,-0.004886922,0.0036651916,1.0,-0.105399996,0.5159,9.792399,-0.007999999,0.0018999999,0.0287,0.005313,0.02633,0.920465,2017-06-18 19:52:10,65.60796227469555
-0.095768064,0.50757074,9.299079,-0.002443461,-0.0012217305,0.0061086523,1.0,-0.1051,0.5143,9.7925,0.0106999995,0.0122,0.0,0.005324,0.026207,0.920469,2017-06-18 19:52:11,58.92332804252304
-0.12449849,0.48841715,9.251195,0.0012217305,-0.0012217305,0.0012217305,1.0,-0.104499996,0.51019996,9.7928,-0.0184,-0.0033,-0.0387,0.005239,0.026045,0.920473,2017-06-18 19:52:12,56.29949530191746
-0.11492168,0.51714754,9.279925,-0.0012217305,0.0012217305,0.007330383,1.0,-0.1041,0.51089996,9.7927,0.011399999,-0.0021,0.0195,0.005193,0.02602,0.920474,2017-06-18 19:52:13,56.6377144247017
-0.11492168,0.46926352,9.279925,0.0,0.0036651916,0.004886922,1.0,-0.109799996,0.5141,9.7925,0.0061999997,0.0021,-0.039699998,0.005068,0.026332,0.920464,2017-06-18 19:52:14,61.916559106219665
-0.08619126,0.51714754,9.299079,-0.002443461,-0.0036651916,0.002443461,1.0,-0.1048,0.5129,9.7926,0.0212,0.022499999,-0.0084,0.005278,0.026176,0.920468,2017-06-18 19:52:16,67.958311087972
-0.08619126,0.47884035,9.3182335,-0.002443461,-0.002443461,0.002443461,1.0,-0.1092,0.516,9.792399,-0.011299999,0.0072999997,-0.0488,0.005057,0.026552,0.920454,2017-06-18 19:52:17,64.9532196117616
-0.11492168,0.49799395,9.270349,0.0,0.0,0.0036651916,1.0,-0.1056,0.5135,9.7926,0.0117999995,0.0037,-8.0E-4,0.005254,0.02622,0.920462,2017-06-18 19:52:18,64.73209828006787
-0.11492168,0.48841715,9.299079,0.0,0.0036651916,0.0036651916,1.0,-0.112799995,0.5165,9.7923,-0.0016999999,-0.0088,0.0014,0.005006,0.026434,0.920453,2017-06-18 19:52:19,60.255218340107994
-0.095768064,0.49799395,9.289502,-0.0012217305,0.0,0.004886922,1.0,-0.103099994,0.5147,9.7925,0.0098,5.9999997E-4,-0.0288,0.005394,0.026224,0.92046,2017-06-18 19:52:20,64.59328154066816
-0.095768064,0.50757074,9.260772,-0.002443461,0.0,0.004886922,1.0,-0.1033,0.514,9.7926,0.019399999,0.0026999998,0.0105,0.005386,0.026226,0.92046,2017-06-18 19:52:21,55.52593360011035
-0.11492168,0.49799395,9.308656,-0.002443461,-0.0061086523,0.008552114,1.0,-0.106699996,0.51559997,9.7925,0.0026,0.013599999,0.0197,0.005247,0.026341,0.920457,2017-06-18 19:52:22,62.8963853484709
-0.10534488,0.50757074,9.279925,0.0012217305,-0.002443461,0.004886922,1.0,-0.1069,0.5108,9.7927,0.0034999999,0.0150999995,-0.0199,0.005139,0.026122,0.920462,2017-06-18 19:52:23,60.62299905563429
-0.10534488,0.47884035,9.299079,-0.0012217305,-0.002443461,0.007330383,1.0,-0.1033,0.5132,9.7926,-9.999999E-4,-0.0074,0.0691,0.005515,0.026243,0.919444,2017-06-18 19:52:24,47.24818769530674
-0.095768064,0.51714754,9.279925,-0.0012217305,-0.007330383,0.002443461,1.0,-0.1015,0.5159,9.7925,0.0078,-0.0077,-0.0095999995,0.005584,0.026233999,0.919154,2017-06-18 19:52:25,47.62909678243056
-0.095768064,0.47884035,9.3182335,-0.0012217305,0.0012217305,0.0061086523,1.0,-0.1004,0.5287,9.7918,0.0067,-0.0316,0.030199999,0.00581,0.026876,0.920802,2017-06-18 19:52:26,42.74672258530462
-0.12449849,0.51714754,9.299079,-0.002443461,-0.0036651916,0.002443461,1.0,-0.1147,0.5171,9.7923,-0.0092,0.021,0.039699998,0.004874,0.026576,0.92086,2017-06-18 19:52:27,38.176046162412796
-0.11492168,0.51714754,9.270349,-0.0012217305,0.002443461,0.0012217305,1.0,-0.1083,0.51699996,9.792399,-0.0134,-4.9999997E-4,-0.029099999,0.0051,0.026475,0.920863,2017-06-18 19:52:28,62.02258700046376
-0.11492168,0.51714754,9.279925,-0.0012217305,0.0,0.002443461,1.0,-0.11229999,0.5177,9.7923,0.028199999,-0.0011999999,-0.0106,0.004997,0.026556,0.920861,2017-06-18 19:52:29,64.74825676433188
-0.12449849,0.45968673,9.232041,-0.004886922,-0.002443461,0.0036651916,1.0,-0.1073,0.5093,9.7928,-0.0155,-0.0335,-0.088999994,0.005064,0.026064,0.920874,2017-06-18 19:52:30,59.54200836281268
-0.1340753,0.48841715,9.279925,-0.0012217305,-0.0012217305,0.0036651916,1.0,-0.098299995,0.5086,9.7929,-0.0064,0.0374,0.0284,0.0055649998,0.025861999,0.920881,2017-06-18 19:52:31,61.59052302555746
-0.10534488,0.46926352,9.279925,-0.002443461,-0.0036651916,0.0061086523,1.0,-0.1043,0.5197,9.7923,0.0104,0.0082,-0.010199999,0.005385,0.026496,0.921261,2017-06-18 19:52:32,61.29067080576621
-0.11492168,0.50757074,9.299079,-0.0036651916,-0.0036651916,0.007330383,1.0,-0.1037,0.52739996,9.7919,-0.0084999995,-0.0039,-0.028199999,0.005608,0.026939,0.920817,2017-06-18 19:52:33,66.02181110364793
-0.10534488,0.48841715,9.289502,0.002443461,0.002443461,0.007330383,1.0,-0.1016,0.5176,9.792399,-0.0018999999,-0.0092,0.0208,0.005455,0.026346,0.921498,2017-06-18 19:52:34,61.067991677993234
-0.08619126,0.48841715,9.299079,-0.0036651916,-0.0061086523,0.0061086523,1.0,-0.1078,0.5183,9.7923,0.0149,0.0032,-0.067099996,0.005212,0.026647,0.921497,2017-06-18 19:52:35,60.46576628977668
-0.10534488,0.5267244,9.3182335,-0.004886922,0.0012217305,0.0036651916,1.0,-0.109799996,0.5117,9.7926,0.0252,-0.0223,0.0495,0.004954,0.026233,0.92150897,2017-06-18 19:52:36,57.08458980237617
-0.095768064,0.48841715,9.279925,-0.0036651916,-0.002443461,0.0,1.0,-0.100899994,0.5045,9.793099,0.0075999997,9.999999E-4,-0.028099999,0.005229,0.025718,0.921523,2017-06-18 19:52:37,58.45845048721471
-0.095768064,0.48841715,9.308656,0.0,-0.0012217305,0.0036651916,1.0,-0.099,0.5147,9.7926,0.006,0.0115,0.008599999,0.00551,0.026212,0.921512,2017-06-18 19:52:38,49.419311993651014
-0.12449849,0.49799395,9.270349,-0.002443461,0.0061086523,0.0012217305,1.0,-0.108799994,0.5118,9.7926,0.0052,-0.0053,-0.039499998,0.004999,0.026216,0.921507,2017-06-18 19:52:39,61.83182686808416
-0.11492168,0.48841715,9.289502,-0.0036651916,-0.002443461,0.0,1.0,-0.102699995,0.52279997,9.7921,-0.0105,-0.014699999,0.0103,0.0055029998,0.026614,0.921498,2017-06-18 19:52:40,63.00620651944215
-0.08619126,0.49799395,9.260772,-0.002443461,-0.0036651916,0.0036651916,1.0,-0.0991,0.5222,9.7922,0.0268,-0.015,0.0101,0.005595,0.026558,0.921499,2017-06-18 19:52:41,44.96731105741836
-0.095768064,0.49799395,9.289502,-0.004886922,-0.0012217305,0.004886922,1.0,-0.1008,0.5239,9.7921,0.0072999997,-0.0064999997,-0.0093,0.005614,0.026628,0.921497,2017-06-18 19:52:42,38.75485669286979
-0.10534488,0.48841715,9.308656,0.0012217305,0.002443461,0.0,1.0,-0.094399996,0.5164,9.7925,-0.0079,-0.011299999,-0.0199,0.005762,0.026153,0.92150897,2017-06-18 19:52:43,37.09837772134862
-0.10534488,0.48841715,9.279925,-0.0036651916,0.0,0.0061086523,1.0,-0.1015,0.5141,9.7926,-0.0018,-0.0064999997,-5.9999997E-4,0.005388,0.02618,0.921507,2017-06-18 19:52:44,61.07064356921036
-0.12449849,0.50757074,9.299079,-0.0036651916,-0.009773844,0.004886922,1.0,-0.101799995,0.5089,9.7929,-0.0117,-7.0E-4,0.0486,0.005283,0.025945,0.921513,2017-06-18 19:52:45,64.11598654322054
-0.08619126,0.49799395,9.337387,-0.0036651916,-0.0036651916,0.0036651916,0.0,-0.0976,0.5136,9.7927,-0.0251,-0.006,0.01,0.005562,0.02608,0.92151,2017-06-18 19:52:46,55.94906792902927
-0.08619126,0.49799395,9.270349,-0.002443461,-0.008552114,0.007330383,1.0,-0.105,0.5121,9.7927,0.020399999,0.0026999998,-0.0296,0.005251,0.026206,0.921505,2017-06-18 19:52:47,60.79269942203197
-0.08619126,0.50757074,9.308656,0.004886922,0.009773844,0.004886922,1.0,-0.1043,0.5089,9.7928,0.0207,0.0164,-0.0011999999,0.005154,0.025991,0.921513,2017-06-18 19:52:48,66.14727788705719
-0.10534488,0.49799395,9.32781,0.0,-0.0061086523,0.0,1.0,-0.100099996,0.51089996,9.7928,-0.0032,-0.0041,0.020499999,0.005396,0.025982,0.921514,2017-06-18 19:52:49,55.410229198624
-0.11492168,0.49799395,9.308656,0.0,-0.0036651916,0.0061086523,1.0,-0.103,0.5136,9.7926,0.0098,-0.0081,-0.0297,0.005307,0.026189,0.921508,2017-06-18 19:52:50,58.94405344576679
-0.11492168,0.49799395,9.260772,0.0,0.002443461,0.002443461,1.0,-0.107499994,0.52,9.7922,-0.0058,-0.0028,-0.029199999,0.005223,0.026578,0.921495,2017-06-18 19:52:51,56.633837660999966
-0.12449849,0.49799395,9.308656,-0.0036651916,-0.0036651916,0.0061086523,1.0,-0.106699996,0.5172,9.792399,-0.0075,0.0018,4.0E-4,0.00522,0.026367,0.9215,2017-06-18 19:52:52,63.081546309801084
-0.095768064,0.48841715,9.289502,-0.0012217305,-0.008552114,0.0036651916,1.0,-0.1017,0.5108,9.7928,-9.0E-4,-0.0069,2.9999999E-4,0.005315,0.026029,0.921511,2017-06-18 19:52:53,57.699113441716634
-0.095768064,0.51714754,9.308656,0.0,0.0061086523,0.004886922,1.0,-0.1019,0.5166,9.7925,0.0066,0.0207,-4.0E-4,0.005479,0.026177,0.921508,2017-06-18 19:52:54,56.44004524375391
-0.12449849,0.51714754,9.251195,-0.007330383,-0.007330383,0.002443461,1.0,-0.109299995,0.5147,9.7925,-0.014099999,0.0223,-0.0289,0.005036,0.026363,0.9215,2017-06-18 19:52:55,54.80279664259883
-0.11492168,0.49799395,9.289502,0.0,0.009773844,0.0036651916,1.0,-0.104499996,0.5135,9.7926,-0.0079,0.0066,0.0301,0.005139,0.026121,0.921506,2017-06-18 19:52:56,46.8058085391865
-0.06703765,0.51714754,9.279925,-0.002443461,-0.004886922,0.002443461,1.0,-0.1073,0.5185,9.7923,0.0037999998,0.0176,0.009699999,0.005203,0.0265,0.921494,2017-06-18 19:52:57,59.556388954483204
-0.12449849,0.49799395,9.279925,-0.0012217305,-0.002443461,0.0036651916,1.0,-0.1072,0.5148,9.7925,-0.0163,0.0034999999,0.019299999,0.005137,0.026326,0.921497,2017-06-18 19:52:58,64.98196191969362
-0.10534488,0.49799395,9.32781,-0.007330383,0.004886922,0.004886922,1.0,-0.1024,0.5173,9.792399,0.0187,0.0087,-0.0198,0.005415,0.026359,0.921499,2017-06-18 19:52:59,61.72393788624866
-0.095768064,0.51714754,9.260772,-0.004886922,-0.0061086523,0.002443461,1.0,-0.1021,0.5143,9.7926,-0.0011999999,-0.0166,-0.0013,0.005364,0.026205,0.921504,2017-06-18 19:53:00,40.20940607213342
-0.10534488,0.50757074,9.3182335,0.0012217305,0.0012217305,0.004886922,1.0,-0.0986,0.5105,9.7928,-0.0041,0.018099999,0.0387,0.005395,0.02588,0.921508,2017-06-18 19:53:01,41.98590339971767
-0.11492168,0.5267244,9.270349,-0.0036651916,0.0012217305,0.0,1.0,-0.105299994,0.5202,9.7922,-0.0081,0.0273,-9.0E-4,0.00533,0.026543,0.92149,2017-06-18 19:53:02,44.26082270168696
-0.076614454,0.50757074,9.299079,-0.002443461,0.004886922,0.0012217305,1.0,-0.101799995,0.5158,9.7925,-0.0013,-2.0E-4,-0.039,0.005415,0.026254,0.921498,2017-06-18 19:53:03,58.134036237809966
-0.095768064,0.48841715,9.308656,-0.008552114,-0.012217305,0.0036651916,1.0,-0.1061,0.5193,9.7923,-0.0166,-0.013499999,-0.0486,0.005274,0.026516,0.921493,2017-06-18 19:53:04,43.40142489031496
-0.12449849,0.49799395,9.260772,-0.0061086523,-0.004886922,0.002443461,1.0,-0.105799995,0.5121,9.7926,-0.0173,0.0050999997,-0.0199,0.005145,0.026171,0.9215,2017-06-18 19:53:05,63.46788591265202
-0.10534488,0.51714754,9.279925,-0.0012217305,-0.002443461,0.004886922,1.0,-0.0999,0.5157,9.7925,-0.0032,0.0109,0.0092,0.005497,0.026225,0.921502,2017-06-18 19:53:06,58.944476579659735
-0.11492168,0.49799395,9.299079,-0.004886922,-0.0036651916,0.004886922,1.0,-0.103599995,0.5175,9.792399,-0.0104,-0.0015,0.0092,0.005424,0.026415,0.921498,2017-06-18 19:53:07,61.090462802528556
-0.095768064,0.50757074,9.279925,-0.0036651916,-0.0012217305,0.002443461,1.0,-0.1042,0.5161,9.7925,-0.0176,-0.0083,-0.0479,0.0052279998,0.026298,0.921498,2017-06-18 19:53:08,44.33217692155451
-0.11492168,0.50757074,9.270349,-0.0036651916,-0.004886922,0.004886922,1.0,-0.1034,0.515,9.7925,0.0,-0.0078,0.0199,0.005317,0.026259,0.921505,2017-06-18 19:53:09,50.741456429794994
-0.10534488,0.49799395,9.299079,-0.0012217305,0.0036651916,0.002443461,1.0,-0.105799995,0.5123,9.7926,0.0013,0.0016,-0.049,0.005223,0.026133,0.921508,2017-06-18 19:53:10,61.75559779163397
-0.08619126,0.48841715,9.279925,0.0012217305,0.0,0.0061086523,1.0,-0.1073,0.5137,9.7925,0.0050999997,0.032199997,0.020499999,0.005266,0.026279,0.918187,2017-06-18 19:53:11,58.7225207840019
-0.12449849,0.51714754,9.260772,-0.0012217305,-0.002443461,0.007330383,1.0,-0.0959,0.51449996,9.7926,-0.0368,0.0142,0.028199999,0.005764,0.026064,0.91992897,2017-06-18 19:53:12,59.89403823707071
-0.10534488,0.49799395,9.299079,0.0,-0.0012217305,0.0036651916,1.0,-0.1082,0.5142,9.7925,0.0056,4.9999997E-4,0.038599998,0.005221,0.026501,0.919463,2017-06-18 19:53:13,53.61976696281049
-0.10534488,0.48841715,9.279925,0.0012217305,0.007330383,0.002443461,1.0,-0.107099995,0.5193,9.7923,0.0033999998,-0.0115,1.0E-4,0.005369,0.02651,0.919463,2017-06-18 19:53:14,54.13488291220518
-0.11492168,0.49799395,9.308656,0.002443461,-0.004886922,0.007330383,1.0,-0.106699996,0.5172,9.792399,-0.0264,0.0177,-0.048899997,0.005373,0.026394,0.919466,2017-06-18 19:53:15,60.0115660381997
-0.10534488,0.48841715,9.279925,-0.004886922,0.0036651916,0.0036651916,1.0,-0.1081,0.52059996,9.7922,0.0139999995,-0.0121,7.0E-4,0.005346,0.02659,0.919461,2017-06-18 19:53:16,40.935633987709785
-0.11492168,0.49799395,9.3182335,-0.0012217305,0.002443461,-0.002443461,1.0,-0.106699996,0.52129996,9.7922,-0.0072999997,-0.0023999999,0.0299,0.005426,0.026501,0.919464,2017-06-18 19:53:17,38.761173947682934
-0.10534488,0.49799395,9.289502,-0.0012217305,0.004886922,0.004886922,1.0,-0.109799996,0.5159,9.792399,-0.014099999,0.0128999995,-0.028199999,0.005168,0.026342,0.919467,2017-06-18 19:53:18,59.35595436728271
-0.1340753,0.51714754,9.308656,0.0,0.004886922,0.004886922,1.0,-0.1157,0.5294,9.7916,-0.0266,-0.0056999996,-0.12799999,0.005115,0.027164,0.920171,2017-06-18 19:53:19,62.086951654784706
-0.076614454,0.545878,9.069236,-0.0036651916,-0.002443461,0.004886922,1.0,-0.1196,0.51919997,9.7921,0.0374,0.050499998,-0.2956,0.004969,0.026232,0.920352,2017-06-18 19:53:20,43.026885101348654
-0.22984336,0.51714754,9.337387,-0.002443461,-0.004886922,0.007330383,1.0,-0.1223,0.50369996,9.7929,-0.1086,0.0285,-0.0213,0.004322,0.026086,0.919739,2017-06-18 19:53:21,54.86116192424477
-0.095768064,0.47884035,9.222465,-0.004886922,-0.0012217305,0.007330383,1.0,-0.1061,0.5257,9.7919,-0.0053999997,-0.042799998,-0.059499998,0.005504,0.026885,0.919733,2017-06-18 19:53:22,62.667604865021474
-0.11492168,0.47884035,9.260772,0.0012217305,-0.007330383,0.0036651916,1.0,-0.0928,0.5259,9.792,-0.01,-0.0177,0.0095999995,0.006138,0.02654,0.91992897,2017-06-18 19:53:23,57.182026932217994
-0.11492168,0.47884035,9.32781,-0.0036651916,-0.002443461,-0.0012217305,1.0,-0.1038,0.51629996,9.792399,-0.0093,-0.0188,0.039499998,0.005457,0.026298,0.919452,2017-06-18 19:53:24,59.2335378412202
-0.095768064,0.50757074,9.289502,-0.0012217305,0.004886922,0.0036651916,1.0,-0.1065,0.5106,9.7927,0.0050999997,0.015,0.019299999,0.005124,0.026147,0.919458,2017-06-18 19:53:25,45.549602040720664
-0.08619126,0.48841715,9.260772,0.0012217305,0.0061086523,0.004886922,1.0,-0.1099,0.51309997,9.7925,-0.0034999999,0.013499999,0.0106999995,0.005149,0.026268,0.918887,2017-06-18 19:53:26,61.7179781255486
-0.1340753,0.48841715,9.289502,-0.004886922,0.0036651916,0.002443461,1.0,-0.111999996,0.5074,9.7928,-0.026099999,-0.0047999998,-0.0088,0.005235,0.02612,0.919313,2017-06-18 19:53:27,40.391739141879185
-0.12449849,0.51714754,9.299079,-0.0012217305,0.0012217305,0.004886922,1.0,-0.1095,0.522,9.7921,-0.0137,0.0144,0.0015,0.005238,0.026695,0.92051,2017-06-18 19:53:28,57.75738619680464
-0.10534488,0.48841715,9.279925,-0.0012217305,-0.0012217305,0.0036651916,1.0,-0.11009999,0.5162,9.792399,-0.0211,-0.0106,-0.0393,0.005016,0.026469,0.920529,2017-06-18 19:53:29,64.95988097728728
-0.11492168,0.49799395,9.279925,0.0,0.0,0.0061086523,1.0,-0.102199994,0.5185,9.7923,-0.0105,0.0067999996,-0.029199999,0.005508,0.026387,0.92053,2017-06-18 19:53:30,56.25619202978945
-0.10534488,0.47884035,9.260772,-0.0036651916,0.007330383,0.004886922,1.0,-0.1134,0.5121,9.7926,0.0123,-0.0128999995,-0.0201,0.004676,0.026293,0.920527,2017-06-18 19:53:31,59.63865405561723
-0.10534488,0.50757074,9.299079,-0.004886922,0.004886922,0.0012217305,1.0,-0.11,0.51879996,9.7922,-0.0056999996,0.019399999,-9.999999E-4,0.005223,0.026428,0.920527,2017-06-18 19:53:32,62.48115007330107
-0.1340753,0.51714754,9.279925,0.0,-0.0061086523,0.0061086523,1.0,-0.1103,0.5139,9.7925,-0.0037,0.0055,0.0585,0.005035,0.026332,0.920528,2017-06-18 19:53:33,62.011345494539796
-0.1340753,0.47884035,9.299079,0.0,-0.0012217305,0.002443461,1.0,-0.1107,0.515,9.792399,-0.022799999,-0.015999999,0.019399999,0.005031,0.026326999,0.92053,2017-06-18 19:53:34,63.8323050894073
-0.12449849,0.50757074,9.260772,-0.002443461,-0.0012217305,0.0,1.0,-0.1056,0.51019996,9.7927,-0.0175,0.0167,-0.0188,0.00527,0.026051,0.919231,2017-06-18 19:53:35,58.98994458688467
-0.12449849,0.48841715,9.3182335,-0.0012217305,0.002443461,0.0,1.0,-0.0976,0.5256,9.792,-0.0251,-0.015299999,0.0307,0.005943,0.026502,0.918751,2017-06-18 19:53:37,63.194118116168376
-0.11492168,0.49799395,9.289502,-0.002443461,0.0012217305,0.002443461,1.0,-0.1017,0.5218,9.7922,-0.0014,-0.005,-0.028199999,0.005597,0.026534,0.920546,2017-06-18 19:53:38,60.37756681486525
-0.10534488,0.48841715,9.251195,-0.002443461,-0.007330383,0.0012217305,1.0,-0.1178,0.5162,9.7923,0.0109,-0.0075,-0.009699999,0.004847,0.026541,0.920552,2017-06-18 19:53:39,60.69144785094734
-0.08619126,0.49799395,9.260772,-0.002443461,-0.002443461,-0.0012217305,1.0,-0.1096,0.51339996,9.7925,0.0168,0.0053,0.0587,0.004976,0.026306,0.920558,2017-06-18 19:53:40,47.59648053155894
-0.11492168,0.48841715,9.260772,-0.002443461,-0.0061086523,0.004886922,1.0,-0.1061,0.51089996,9.7927,0.0023,0.016999999,0.0484,0.005172,0.026109999,0.920564,2017-06-18 19:53:41,50.275108580867915
-0.12449849,0.50757074,9.289502,-0.002443461,0.0,0.0036651916,1.0,-0.1065,0.5097,9.7928,-0.018199999,0.0176,-9.0E-4,0.005192,0.02598,0.920566,2017-06-18 19:53:42,54.12567191641828
-0.095768064,0.50757074,9.270349,0.0012217305,-0.002443461,0.0061086523,1.0,-0.116,0.506,9.7928,0.0213,0.0222,0.0197,0.0046,0.026077,0.920709,2017-06-18 19:53:43,58.63549438213031
-0.076614454,0.50757074,9.308656,0.002443461,-0.004886922,0.0,1.0,-0.0963,0.5094,9.7929,0.0074,-0.0655,-0.068399996,0.005275,0.025706,0.920625,2017-06-18 19:53:44,63.60367909763654
-0.08619126,0.48841715,9.299079,-0.0012217305,-0.0012217305,0.002443461,1.0,-0.096499994,0.4976,9.7935,-0.0164,0.0782,-1.0E-4,0.005431,0.025276,0.919444,2017-06-18 19:53:45,66.00739568957117
-0.12449849,0.51714754,9.251195,-0.004886922,-0.007330383,0.007330383,1.0,-0.0885,0.52599996,9.7921,-0.0313,0.0075,-0.018099999,0.006261,0.026755,0.920687,2017-06-18 19:53:46,63.78015663238793
-0.11492168,0.47884035,9.279925,0.0012217305,0.0,0.0061086523,1.0,-0.0993,0.5158,9.7925,-0.013599999,-0.0088,-0.0298,0.005641,0.026116,0.91961,2017-06-18 19:53:47,66.102525348694
-0.076614454,0.50757074,9.279925,0.0012217305,0.002443461,0.0061086523,1.0,-0.0927,0.52529997,9.7921,-0.0095999995,0.0095999995,-0.057699997,0.006035,0.026532,0.9213,2017-06-18 19:53:48,60.54027262706814
-0.076614454,0.5554548,9.299079,-0.002443461,-0.0036651916,0.007330383,1.0,-0.1127,0.5197,9.7922,0.0407,0.0554,0.0298,0.004892,0.02681,0.921296,2017-06-18 19:53:49,60.42532197723421
-0.10534488,0.48841715,9.279925,0.0,0.0,0.0,1.0,-0.110199995,0.5096,9.7927,0.0061999997,-0.0018,0.0095,0.005032,0.026116,0.919409,2017-06-18 19:53:50,40.55028085653791
-0.095768064,0.49799395,9.270349,-0.0012217305,0.0061086523,0.002443461,1.0,-0.1013,0.5259,9.792,-0.0016,-0.0263,-0.038799997,0.005705,0.026624,0.919666,2017-06-18 19:53:51,54.829431017695065
-0.08619126,0.5363012,9.241618,-0.002443461,0.0,0.004886922,1.0,-0.101799995,0.5212,9.7922,-0.011,-0.0053999997,-0.0369,0.005681,0.026483,0.919056,2017-06-18 19:53:52,60.902644859368344
-0.11492168,0.46926352,9.232041,0.0012217305,0.004886922,0.0036651916,1.0,-0.1028,0.5201,9.7923,-0.0105,-0.0312,-0.048299998,0.005612,0.026421,0.918924,2017-06-18 19:53:53,59.69836798809531
-0.11492168,0.48841715,9.270349,-0.002443461,-0.002443461,0.0012217305,1.0,-0.102299996,0.51949996,9.7923,0.0075999997,-0.0109,0.0393,0.005669,0.026353,0.918924,2017-06-18 19:53:54,58.35527349521331
-0.10534488,0.51714754,9.260772,-0.0012217305,-0.0036651916,0.0036651916,1.0,-0.1094,0.528,9.7918,0.0056,0.009699999,0.01,0.005468,0.026954,0.918906,2017-06-18 19:53:55,62.78687393498544
-0.10534488,0.49799395,9.3182335,-0.004886922,0.002443461,-0.0012217305,1.0,-0.1081,0.5239,9.792,0.0028,-0.006,0.049399998,0.005533,0.026734,0.918911,2017-06-18 19:53:56,57.13666006558487
-0.076614454,0.50757074,9.279925,-0.004886922,-0.004886922,-0.0012217305,1.0,-0.099199995,0.5158,9.7925,0.024999999,0.0128999995,0.0288,0.005705,0.026178,0.918927,2017-06-18 19:53:57,46.03155490443687
-0.095768064,0.50757074,9.270349,-0.0012217305,0.0,0.004886922,1.0,-0.1012,0.52,9.7923,-0.011,-0.0026999998,-0.03,0.005646,0.026395,0.91892,2017-06-18 19:53:58,59.90099420322018
-0.08619126,0.47884035,9.279925,0.0,-0.002443461,0.0061086523,1.0,-0.0971,0.5193,9.792399,0.0233,-0.0115,0.019199999,0.005872,0.0263,0.918925,2017-06-18 19:53:59,62.71629744863087
-0.095768064,0.50757074,9.270349,-0.004886922,0.0,0.004886922,1.0,-0.1074,0.51449996,9.7925,0.011899999,0.0116,-4.0E-4,0.005399,0.026326999,0.918921,2017-06-18 19:54:00,59.17519154889181
-0.10534488,0.50757074,9.260772,-0.0061086523,-0.009773844,0.0036651916,1.0,-0.1006,0.5222,9.7922,0.0094,-0.0117,0.0087,0.005611,0.026486,0.918918,2017-06-18 19:54:01,62.3557086745296
-0.095768064,0.48841715,9.232041,-0.002443461,0.0012217305,0.002443461,1.0,-0.1095,0.5207,9.7922,-0.0039,0.0061,-0.020399999,0.005318,0.026617,0.918912,2017-06-18 19:54:02,63.38925478171299
-0.11492168,0.50757074,9.289502,-0.0012217305,-0.004886922,0.004886922,1.0,-0.1043,0.5197,9.7923,-0.0088,0.0093,0.0093,0.005501,0.026383,0.91892,2017-06-18 19:54:03,62.02202646492676
-0.10534488,0.49799395,9.308656,0.0012217305,0.0061086523,0.0012217305,1.0,-0.1069,0.5219,9.7921,0.0030999999,-0.0036,0.0389,0.005464,0.02662,0.918913,2017-06-18 19:54:04,57.94317026966187
-0.12449849,0.51714754,9.270349,-0.0012217305,-0.002443461,0.0061086523,1.0,-0.106699996,0.5203,9.7922,0.0131,-0.0131,0.029099999,0.005451,0.026609,0.918915,2017-06-18 19:54:05,63.645069671640606
-0.08619126,0.51714754,9.3182335,-0.0061086523,0.002443461,-0.0012217305,1.0,-0.0977,0.5203,9.7923,-0.0056,-0.0016,0.0093,0.005864,0.026361,0.918923,2017-06-18 19:54:06,56.39197960526121
-0.11492168,0.51714754,9.222465,0.0,0.0036651916,0.004886922,1.0,-0.1039,0.5268,9.7919,-0.011399999,0.0122,-0.0497,0.005779,0.026701,0.918912,2017-06-18 19:54:07,62.20509444237133
-0.10534488,0.50757074,9.270349,-0.007330383,-0.009773844,0.002443461,1.0,-0.1052,0.52099997,9.7922,0.0098,0.015,-0.02,0.005633,0.026566999,0.918914,2017-06-18 19:54:08,66.39746094050822
-0.12449849,0.49799395,9.251195,-0.0036651916,-0.0012217305,0.007330383,1.0,-0.1015,0.51629996,9.7925,-0.0016,-0.019399999,-0.0286,0.005604,0.026248,0.918921,2017-06-18 19:54:09,43.976217985587084
-0.11492168,0.50757074,9.279925,-0.002443461,-0.0061086523,0.0061086523,1.0,-0.110599995,0.5082,9.7928,-0.0030999999,0.016999999,-0.0101,0.005051,0.026096,0.918925,2017-06-18 19:54:10,64.20883114239251
-0.10534488,0.51714754,9.260772,-0.007330383,-0.0036651916,0.0012217305,1.0,-0.1046,0.5185,9.7923,0.0011,0.018199999,-0.029299999,0.005504,0.026411,0.91892,2017-06-18 19:54:11,65.39376419472364
-0.095768064,0.48841715,9.279925,-0.004886922,-0.004886922,0.0,1.0,-0.0973,0.5276,9.7919,-0.0268,-0.0098,-0.0685,0.006098,0.026653,0.918916,2017-06-18 19:54:12,55.70103507065114
-0.11492168,0.49799395,9.3182335,-0.002443461,0.002443461,0.004886922,1.0,-0.0999,0.523,9.7921,-0.0131,-0.0154,0.0502,0.005817,0.026531,0.918915,2017-06-18 19:54:13,57.49429333275371
-0.08619126,0.49799395,9.3182335,-0.0061086523,-0.010995574,0.0036651916,1.0,-0.106699996,0.5166,9.792399,0.0213,-4.0E-4,0.0299,0.005459,0.026378,0.918918,2017-06-18 19:54:14,61.31921777845628
-0.10534488,0.48841715,9.260772,-0.004886922,0.0012217305,0.0036651916,1.0,-0.104499996,0.5193,9.7923,-0.009,0.018,-0.0185,0.005545,0.026499,0.918915,2017-06-18 19:54:15,65.24861313903342
-0.11492168,0.47884035,9.289502,0.0,0.0,0.0012217305,1.0,-0.106199995,0.505,9.793,0.0023999999,0.0026,0.0208,0.005198,0.025805,0.918352,2017-06-18 19:54:16,65.17923440783598
-0.11492168,0.49799395,9.232041,-0.004886922,-0.0012217305,0.0,1.0,-0.1153,0.5045,9.7929,-0.0034999999,0.0037,-0.050699998,0.005175,0.02628,0.918479,2017-06-18 19:54:17,51.004215167948004
-0.05746084,0.49799395,9.270349,-0.002443461,-0.0012217305,0.004886922,1.0,-0.0903,0.5141,9.7927,0.0365,0.0032,-0.0093,0.006157,0.025905,0.91784,2017-06-18 19:54:18,55.80093808136452
-0.11492168,0.51714754,9.279925,-0.007330383,-0.0012217305,0.0036651916,1.0,-0.0953,0.5207,9.7923,0.0013,0.0177,0.0098,0.006062,0.026217,0.917823,2017-06-18 19:54:19,33.5479069172882
-0.10534488,0.48841715,9.289502,-0.007330383,-0.008552114,0.002443461,1.0,-0.099599995,0.5162,9.7925,-0.0133,0.020299999,0.029299999,0.005766,0.026188,0.917824,2017-06-18 19:54:20,37.59410378097214
-0.10534488,0.49799395,9.241618,0.0,-0.0012217305,0.004886922,1.0,-0.103099994,0.5198,9.7923,-5.9999997E-4,-8.0E-4,-0.011,0.005678,0.026439,0.91781497,2017-06-18 19:54:21,50.58964305817739
-0.11492168,0.48841715,9.299079,-0.0061086523,0.0,0.004886922,1.0,-0.104499996,0.52,9.7922,0.0,0.0072,0.0295,0.00568,0.026511,0.917814,2017-06-18 19:54:22,60.31178122316248
-0.08619126,0.49799395,9.270349,-0.004886922,0.0,-0.0012217305,1.0,-0.099,0.5245,9.7921,-0.023599999,0.021699999,-0.019299999,0.0059619998,0.026568,0.917814,2017-06-18 19:54:23,37.88866178220791
-0.095768064,0.50757074,9.270349,-0.004886922,-0.0036651916,0.0,1.0,-0.0954,0.5205,9.7923,4.0E-4,0.0064,7.0E-4,0.006154,0.026324,0.917821,2017-06-18 19:54:24,53.66631485252368
-0.095768064,0.49799395,9.279925,-0.0012217305,0.0012217305,0.0012217305,1.0,-0.1087,0.5202,9.7922,0.015,-0.0036,-0.0197,0.00542,0.026563,0.917811,2017-06-18 19:54:25,59.39938477442199
-0.10534488,0.48841715,9.279925,-0.0036651916,0.002443461,0.002443461,1.0,-0.1026,0.52099997,9.7922,-4.9999997E-4,0.013499999,-0.0578,0.005751,0.026534,0.917813,2017-06-18 19:54:26,55.34053498602408
-0.10534488,0.50757074,9.299079,-0.004886922,-0.0012217305,-0.0012217305,1.0,-0.1017,0.5255,9.792,0.0084,-0.009,-0.0674,0.005854,0.026667,0.917808,2017-06-18 19:54:27,58.89581103000747
-0.11492168,0.47884035,9.299079,-0.0012217305,0.002443461,0.0036651916,1.0,-0.103999995,0.5178,9.792399,-0.0089,-0.0213,-0.009,0.005593,0.026353,0.91781497,2017-06-18 19:54:28,66.80363076129468
-0.08619126,0.50757074,9.270349,-0.002443461,0.0061086523,0.0012217305,1.0,-0.1006,0.5196,9.7923,-0.0131,-0.0287,0.009699999,0.005787,0.026336,0.917817,2017-06-18 19:54:29,39.36728103618345
-0.095768064,0.47884035,9.270349,-0.002443461,-0.0061086523,0.002443461,1.0,-0.1047,0.5208,9.7922,8.0E-4,0.0278,0.04,0.005623,0.026509,0.917812,2017-06-18 19:54:30,64.77363255788217
-0.06703765,0.51714754,9.299079,-0.0036651916,-0.004886922,0.0061086523,1.0,-0.0964,0.51949996,9.792399,0.0339,0.015999999,-0.0103,0.005928,0.026307,0.917819,2017-06-18 19:54:31,61.959244632796626
-0.095768064,0.49799395,9.260772,-0.0012217305,-0.0061086523,0.004886922,1.0,-0.0981,0.519,9.792399,0.0047,-0.0014,-0.0211,0.005894,0.026287999,0.91782,2017-06-18 19:54:32,57.38063109120083
-0.11492168,0.50757074,9.232041,-0.004886922,0.0,0.007330383,1.0,-0.100999996,0.5216,9.7922,-0.0142,0.0265,0.019199999,0.005898,0.026402,0.917818,2017-06-18 19:54:33,54.70709151786455
-0.08619126,0.48841715,9.289502,-0.0061086523,-0.002443461,0.0036651916,1.0,-0.098699994,0.5157,9.7925,0.0253,-4.0E-4,-0.0402,0.005799,0.02615,0.917823,2017-06-18 19:54:34,58.31835164060527
-0.095768064,0.46926352,9.279925,-0.0012217305,-0.010995574,0.0061086523,1.0,-0.0973,0.5204,9.7923,0.0058999998,-0.030499998,0.0206,0.005839,0.026364,0.917818,2017-06-18 19:54:35,44.867692849907044
-0.12449849,0.49799395,9.308656,-0.0036651916,-0.007330383,0.0036651916,1.0,-0.1061,0.5214,9.7922,0.010799999,0.005,-0.0109,0.005655,0.026553,0.917812,2017-06-18 19:54:36,55.933781353769206
-0.10534488,0.48841715,9.270349,0.002443461,0.002443461,0.004886922,1.0,-0.102299996,0.51809996,9.792399,-0.0011999999,4.0E-4,0.008599999,0.005676,0.026332,0.917818,2017-06-18 19:54:37,53.23192751348899
-0.11492168,0.48841715,9.241618,-0.0036651916,0.004886922,0.002443461,0.0,-0.1118,0.5211,9.7921,-0.0019999999,-0.0154,-0.0393,0.0053499998,0.026771,0.917801,2017-06-18 19:54:38,50.94247815092864
-0.08619126,0.50757074,9.270349,0.0,0.0,0.002443461,0.0,-0.105299994,0.5276,9.7918,0.0211,0.0011999999,0.0103,0.005732,0.02684,0.917801,2017-06-18 19:54:39,55.151229632440405
-0.12449849,0.51714754,9.279925,-0.004886922,-0.004886922,0.004886922,0.0,-0.1074,0.5281,9.7918,0.0138,0.011899999,0.049,0.005584,0.026822,0.917799,2017-06-18 19:54:40,54.86077960846444
-0.11492168,0.50757074,9.32781,-0.007330383,0.0012217305,0.0,1.0,-0.109,0.51989996,9.7922,0.024699999,-0.0016999999,-0.0189,0.005401,0.026554,0.917804,2017-06-18 19:54:41,63.24774849123341
-0.10534488,0.48841715,9.251195,-0.010995574,-0.008552114,0.004886922,1.0,-0.104499996,0.5211,9.7922,0.0018999999,-0.0103,-0.0199,0.005533,0.026424,0.91781,2017-06-18 19:54:42,63.75995620300222
-0.10534488,0.47884035,9.241618,0.0,-0.0012217305,0.0012217305,1.0,-0.1072,0.523,9.7921,-0.0162,0.0442,0.028199999,0.005578,0.026772,0.917798,2017-06-18 19:54:43,60.21164140282309
-0.11492168,0.48841715,9.32781,-0.004886922,0.0036651916,0.002443461,1.0,-0.098699994,0.5229,9.7922,-0.005,-0.0023999999,0.0687,0.005943,0.026483,0.917807,2017-06-18 19:54:44,61.96601863033833
-0.1340753,0.5363012,9.299079,-0.0036651916,-0.0036651916,0.0061086523,1.0,-0.1139,0.52849996,9.791699,-0.0207,0.033,0.0491,0.005332,0.026903,0.917793,2017-06-18 19:54:45,58.43467811620183
-0.076614454,0.49799395,9.299079,-0.0036651916,0.0,0.0036651916,1.0,-0.1048,0.52849996,9.7918,0.030399999,-0.0093,0.0396,0.005771,0.02687,0.917794,2017-06-18 19:54:46,64.01325972685088
-0.12449849,0.47884035,9.32781,-0.0061086523,-0.004886922,0.0061086523,1.0,-0.0887,0.5194,9.792399,0.0234,-0.052699998,0.049799997,0.006488,0.026232,0.917744,2017-06-18 19:54:47,49.93032336262604
-0.11492168,0.51714754,9.289502,-0.0036651916,-0.0012217305,0.002443461,1.0,-0.114999995,0.50549996,9.7929,0.010799999,0.011399999,7.0E-4,0.004822,0.026002,0.917958,2017-06-18 19:54:48,36.66162308995312
-0.11492168,0.50757074,9.270349,-0.0036651916,-0.007330383,0.004886922,1.0,-0.099999994,0.5208,9.7922,-0.0126,0.0078,0.0,0.00576,0.026403,0.918397,2017-06-18 19:54:49,43.66309523841071
-0.10534488,0.51714754,9.289502,-0.008552114,-0.0012217305,0.002443461,1.0,-0.0981,0.5182,9.792399,-0.013599999,-0.0019999999,0.0095999995,0.005812,0.026382,0.918397,2017-06-18 19:54:50,45.71994107699659
-0.095768064,0.50757074,9.308656,-0.0012217305,-0.002443461,0.004886922,1.0,-0.100099996,0.5207,9.7923,-0.0127,-0.0139,-0.0104,0.005796,0.026421,0.918397,2017-06-18 19:54:51,59.593735542337356
-0.08619126,0.49799395,9.270349,-0.0061086523,-0.0061086523,0.0061086523,1.0,-0.1021,0.5186,9.7923,0.0178,-2.9999999E-4,0.0197,0.005685,0.026402,0.918397,2017-06-18 19:54:52,64.61530299771428
-0.11492168,0.49799395,9.32781,0.0,-0.002443461,0.004886922,0.0,-0.1043,0.5216,9.7922,-0.0089,-0.0037999998,0.0499,0.005615,0.026548,0.918391,2017-06-18 19:54:53,59.96166747619184
-0.08619126,0.5363012,9.279925,-0.004886922,-0.007330383,0.0061086523,0.0,-0.10349999,0.5256,9.792,0.0011999999,-0.0273,-0.0093,0.005665,0.026692,0.91839,2017-06-18 19:54:54,63.5167041503519
-0.08619126,0.49799395,9.279925,-0.004886922,-0.002443461,0.002443461,0.0,-0.1046,0.5189,9.7923,8.0E-4,-2.0E-4,0.0493,0.005549,0.026424,0.918398,2017-06-18 19:54:56,62.74407688377995
-0.08619126,0.50757074,9.299079,-0.004886922,0.002443461,0.0012217305,1.0,-0.100999996,0.5233,9.7921,0.018299999,0.0082,0.0682,0.005697,0.026528,0.91839397,2017-06-18 19:54:57,65.07647981859334
-0.08619126,0.47884035,9.289502,0.0036651916,-0.002443461,0.0036651916,1.0,-0.0954,0.518,9.792399,0.0133,-0.0039,-0.030199999,0.005944,0.026313,0.918402,2017-06-18 19:54:58,37.50710717952495
-0.10534488,0.50757074,9.289502,-0.0036651916,-0.002443461,0.004886922,1.0,-0.0958,0.52169997,9.7922,-0.037,-0.0023999999,0.038799997,0.006018,0.026379,0.918405,2017-06-18 19:54:59,35.67857159613524
-0.095768064,0.49799395,9.289502,-0.002443461,-0.002443461,0.004886922,0.0,-0.0967,0.5194,9.792399,0.0011,-0.0016,-5.9999997E-4,0.006029,0.026206,0.918408,2017-06-18 19:55:00,40.70724456009558
-0.11492168,0.49799395,9.308656,0.004886922,-0.0012217305,0.0036651916,1.0,-0.1043,0.5229,9.7921,-0.009099999,-0.0045,0.039899997,0.005642,0.026609,0.91839397,2017-06-18 19:55:01,61.528367683237164
-0.10534488,0.49799395,9.3182335,-0.0012217305,0.0012217305,0.0061086523,0.0,-0.1082,0.5218,9.7921,-0.014699999,0.0056999996,2.0E-4,0.005424,0.02667,0.91839,2017-06-18 19:55:02,67.0326178743969
-0.10534488,0.49799395,9.260772,-0.002443461,-0.0036651916,0.007330383,0.0,-0.1024,0.5207,9.7922,0.018099999,0.0284,-0.0013,0.005688,0.026465,0.918401,2017-06-18 19:55:03,61.78070759189389
-0.10534488,0.48841715,9.251195,-0.0012217305,-0.0012217305,0.0061086523,1.0,-0.1024,0.52059996,9.7922,-0.0023999999,-0.011899999,0.0084,0.005761,0.0265,0.91840297,2017-06-18 19:55:04,61.594422206640175
-0.11492168,0.50757074,9.251195,-0.0036651916,-0.0036651916,0.007330383,1.0,-0.103,0.5255,9.792,0.0298,0.0029,0.0094,0.005706,0.026713,0.918399,2017-06-18 19:55:05,51.28646599105106
-0.12449849,0.49799395,9.289502,-0.0036651916,-0.0061086523,0.0061086523,1.0,-0.1072,0.5252,9.7919,0.0033,-0.015999999,0.0099,0.005554,0.026774,0.918396,2017-06-18 19:55:06,55.00838107042555
-0.11492168,0.48841715,9.270349,-0.008552114,-0.013439035,-0.0012217305,1.0,-0.102199994,0.5238,9.7921,-0.0092,-0.0143,-0.0088,0.005645,0.026577,0.918401,2017-06-18 19:55:07,56.800759485933554
-0.10534488,0.48841715,9.270349,-0.007330383,-0.004886922,0.0012217305,1.0,-0.103599995,0.519,9.7923,1.0E-4,-0.011299999,-0.0117,0.005595,0.026411999,0.91840297,2017-06-18 19:55:08,57.24702601317666
-0.10534488,0.50757074,9.299079,-0.004886922,-0.002443461,0.002443461,1.0,-0.102199994,0.5218,9.7922,0.009099999,-0.0045,0.0393,0.005722,0.026631,0.918395,2017-06-18 19:55:09,63.03486518265189
-0.11492168,0.49799395,9.241618,-0.004886922,0.0012217305,0.002443461,1.0,-0.1074,0.5168,9.792399,-0.016099999,-0.0075999997,-0.0011,0.005373,0.026385,0.918397,2017-06-18 19:55:10,60.99667888052692
-0.095768064,0.5363012,9.299079,-0.0036651916,-0.0036651916,0.0036651916,1.0,-0.1047,0.5255,9.7919,0.0106999995,0.0349,0.058399998,0.005644,0.026681,0.918388,2017-06-18 19:55:11,48.02169546132208
-0.12449849,0.48841715,9.260772,0.0,-0.004886922,0.004886922,1.0,-0.107099995,0.5241,9.792,-0.0276,-0.0069999998,0.0201,0.005641,0.026751,0.91838497,2017-06-18 19:55:12,41.7190787444466
-0.10534488,0.50757074,9.251195,-0.004886922,-0.0061086523,0.0012217305,0.0,-0.1025,0.5256,9.792,-9.0E-4,0.011899999,0.0095999995,0.005783,0.026695,0.918383,2017-06-18 19:55:13,54.18214592121234
-0.10534488,0.51714754,9.289502,0.0,-0.0036651916,0.002443461,1.0,-0.0973,0.5266,9.792,-0.0034999999,0.0109,0.0079,0.0059309998,0.026682,0.918383,2017-06-18 19:55:14,49.64077877240651
-0.08619126,0.50757074,9.289502,-0.0061086523,-0.004886922,0.0,1.0,-0.1073,0.5265,9.7919,0.0231,0.0018,0.019299999,0.005575,0.026835,0.918377,2017-06-18 19:55:15,57.2351830644159
-0.095768064,0.50757074,9.260772,-0.0036651916,-0.0061086523,0.004886922,0.0,-0.102699995,0.5244,9.792,1.0E-4,0.0134,-0.020399999,0.005694,0.026642,0.918384,2017-06-18 19:55:16,56.01964481845048
-0.11492168,0.50757074,9.270349,-0.0012217305,-0.002443461,0.004886922,0.0,-0.107499994,0.5293,9.791699,-0.016099999,-0.009,0.0391,0.005619,0.02697,0.918378,2017-06-18 19:55:17,56.92171437411577
-0.10534488,0.5267244,9.279925,-0.0012217305,0.0,0.0061086523,0.0,-0.10569999,0.52779996,9.7918,0.0019999999,0.0223,0.0285,0.005641,0.02681,0.918382,2017-06-18 19:55:18,65.32409887909358
-0.12449849,0.50757074,9.232041,-0.0036651916,-0.0012217305,0.0012217305,0.0,-0.10349999,0.52309996,9.7921,0.0176,-0.0041,-0.038599998,0.005765,0.026528,0.918387,2017-06-18 19:55:19,44.45531303978967
-0.1340753,0.5554548,9.299079,0.002443461,-0.002443461,0.004886922,0.0,-0.118099995,0.522,9.792,0.0037,0.0266,-0.0105,0.005681,0.026703,0.9077,2017-06-18 19:55:20,62.77603833574119
-0.11492168,0.51714754,9.299079,-0.002443461,-0.004886922,0.0061086523,0.0,-0.0708,0.566,9.79,-0.040599998,-0.0264,0.030299999,0.008245,0.027942,0.916049,2017-06-18 19:55:21,58.843867281006695
-0.12449849,0.50757074,9.299079,-0.0036651916,0.0,0.002443461,1.0,-0.1092,0.519,9.7922,-0.0142,0.0088,0.028099999,0.005294,0.02653,0.91896397,2017-06-18 19:55:22,58.1286544380201
-0.12449849,0.5363012,9.260772,-0.007330383,-0.0012217305,0.007330383,1.0,-0.082499996,0.523,9.7923,-0.0078,0.0285,-0.0112,0.006376,0.026053,0.919812,2017-06-18 19:55:23,40.396962445672074
-0.11492168,0.5267244,9.279925,-0.0036651916,0.0012217305,0.004886922,1.0,-0.0953,0.5273,9.7919,-0.0177,0.0211,0.0287,0.006042,0.026655,0.920042,2017-06-18 19:55:24,59.591036931524776
-0.1340753,0.51714754,9.270349,-0.004886922,0.0012217305,0.002443461,1.0,-0.106599994,0.5197,9.7922,-0.0246,0.021399999,0.0087,0.005264,0.026409,0.919029,2017-06-18 19:55:25,56.74969772502955
-0.10534488,0.48841715,9.260772,-0.0036651916,-0.0036651916,0.0036651916,1.0,-0.0977,0.5085,9.7929,-0.0148,0.0074,-0.07,0.005604,0.025899,0.919431,2017-06-18 19:55:26,59.56754165462207
-0.11492168,0.51714754,9.279925,-0.008552114,-0.002443461,-0.002443461,1.0,-0.1085,0.5247,9.7919,-0.0145,-0.0176,-0.027999999,0.005415,0.026792,0.919361,2017-06-18 19:55:27,68.0769964349857
-0.095768064,0.47884035,9.241618,-0.0036651916,-0.0061086523,0.0061086523,0.0,-0.087299995,0.5159,9.7926,-0.0037,-0.017099999,-0.01,0.006197,0.026013,0.918634,2017-06-18 19:55:28,60.487585563101035
-0.076614454,0.48841715,9.251195,-0.004886922,-0.002443461,0.0,1.0,-0.1118,0.5135,9.7925,0.037299998,-0.006,-0.029099999,0.005038,0.026332,0.919342,2017-06-18 19:55:29,56.80677382893389
-0.095768064,0.50757074,9.289502,-0.002443461,-0.0012217305,0.0061086523,0.0,-0.096099995,0.5151,9.7926,-0.026999999,-0.0023999999,0.0778,0.005852,0.026027,0.918141,2017-06-18 19:55:30,62.42232902182219
-0.10534488,0.49799395,9.299079,-0.0036651916,-0.002443461,0.002443461,1.0,-0.103199996,0.5255,9.792,0.0092,0.013499999,0.0383,0.005766,0.026702,0.918115,2017-06-18 19:55:31,57.92904855147552
-0.10534488,0.51714754,9.251195,-0.004886922,0.010995574,0.0036651916,1.0,-0.1006,0.5243,9.7921,-0.0023999999,0.0123,0.0011999999,0.005886,0.026728,0.918116,2017-06-18 19:55:32,62.15370756238955
-0.10534488,0.46926352,9.279925,-0.0061086523,-0.0036651916,0.004886922,0.0,-0.1114,0.5237,9.792,-0.0241,0.0326,-0.039499998,0.005475,0.026797,0.918111,2017-06-18 19:55:33,59.78514400861342
-0.095768064,0.49799395,9.289502,-0.0012217305,-0.002443461,0.004886922,1.0,-0.1028,0.5301,9.791699,-0.020299999,0.0082,-1.0E-4,0.005875,0.02691,0.91811,2017-06-18 19:55:34,65.15921339383897
-0.12449849,0.50757074,9.279925,0.0,0.0036651916,0.002443461,1.0,-0.1086,0.5319,9.7916,-0.015199999,-0.0019999999,0.0,0.005631,0.027012,0.918106,2017-06-18 19:55:35,60.89471373915649
-0.12449849,0.49799395,9.241618,-0.0012217305,0.0,0.0061086523,0.0,-0.1148,0.53249997,9.7915,-0.0089,-0.014099999,-0.039,0.005364,0.027262,0.918098,2017-06-18 19:55:36,64.93704473687399
-0.11492168,0.50757074,9.270349,0.0,-0.002443461,0.0036651916,0.0,-0.1042,0.5266,9.7919,4.0E-4,0.0026,0.0383,0.005738,0.026776,0.918114,2017-06-18 19:55:37,61.47594717316412
-0.08619126,0.49799395,9.270349,-0.004886922,0.0012217305,0.0036651916,1.0,-0.102,0.5324,9.7916,0.0179,-0.012499999,0.0189,0.005958,0.027002,0.918109,2017-06-18 19:55:38,56.54504400403294
-0.08619126,0.50757074,9.270349,-0.007330383,0.0,0.0012217305,1.0,-0.102299996,0.52739996,9.7919,0.018,0.003,0.039,0.005846,0.026775,0.918117,2017-06-18 19:55:39,38.97213644799981
-0.10534488,0.49799395,9.270349,-0.002443461,-0.0012217305,0.002443461,1.0,-0.1055,0.5279,9.7918,-0.0185,-0.018,0.020299999,0.005722,0.026794,0.918114,2017-06-18 19:55:40,58.40429584528232
-0.095768064,0.50757074,9.251195,-0.002443461,0.0,0.007330383,1.0,-0.113699995,0.5309,9.7916,4.0E-4,-0.0251,-0.0585,0.0053809998,0.027168,0.918103,2017-06-18 19:55:41,62.83500724367972
-0.12449849,0.49799395,9.251195,0.002443461,-0.0061086523,0.008552114,1.0,-0.1065,0.5281,9.7918,-0.0162,-0.010199999,-0.049,0.005629,0.026853,0.918113,2017-06-18 19:55:42,65.79154218450967
-0.10534488,0.51714754,9.279925,0.0012217305,-0.008552114,0.004886922,0.0,-0.11229999,0.5277,9.791699,0.0083,0.0104,0.0106999995,0.005382,0.026992,0.918108,2017-06-18 19:55:43,61.75878149595352
-0.1340753,0.5267244,9.289502,-0.004886922,-0.004886922,0.0012217305,0.0,-0.1046,0.5315,9.7916,-0.0079,0.0252,0.0296,0.005826,0.027147,0.917989,2017-06-18 19:55:44,65.07891383638312
-0.10534488,0.51714754,9.270349,-0.007330383,-0.0061086523,0.002443461,0.0,-0.096999995,0.528,9.7919,0.0037,0.009099999,-0.0195,0.0060219998,0.026715,0.919358,2017-06-18 19:55:45,58.70451357004268
-0.095768064,0.50757074,9.241618,0.0,-0.002443461,0.002443461,0.0,-0.113,0.52669996,9.7918,0.0191,0.0016,-4.0E-4,0.0053,0.027051,0.9185,2017-06-18 19:55:46,62.70541411285543
-0.10534488,0.49799395,9.270349,-0.004886922,-0.0036651916,0.0036651916,1.0,-0.1107,0.5239,9.792,0.0082,-0.0044,0.0285,0.005265,0.026789,0.918513,2017-06-18 19:55:47,67.17019664522178
-0.1340753,0.5267244,9.260772,-0.0061086523,-0.007330383,0.0036651916,1.0,-0.1064,0.5338,9.7915,0.0122,-0.0039999997,2.9999999E-4,0.005676,0.027178,0.919666,2017-06-18 19:55:48,61.63950915842817
-0.095768064,0.48841715,9.270349,-0.0036651916,-0.002443461,0.002443461,1.0,-0.1063,0.52459997,9.792,0.015899999,-0.0162,9.999999E-4,0.00527,0.026843,0.9205,2017-06-18 19:55:49,67.7566573671798
-0.11492168,0.51714754,9.251195,-0.002443461,-0.0036651916,0.0061086523,1.0,-0.1029,0.5244,9.792,-0.0109,0.016099999,0.0285,0.005603,0.026678,0.920375,2017-06-18 19:55:50,59.42400402726556
-0.10534488,0.51714754,9.289502,-0.0036651916,-0.0061086523,0.0061086523,0.0,-0.1046,0.5302,9.791699,0.0111,-0.0019999999,-0.0289,0.005617,0.026954,0.920364,2017-06-18 19:55:51,66.52987438745072
-0.05746084,0.51714754,9.32781,-0.0012217305,0.002443461,0.004886922,1.0,-0.096,0.5277,9.7919,0.0026999998,-0.0101,-0.029099999,0.00595,0.026703,0.921022,2017-06-18 19:55:52,61.84236580148327
-0.18195933,0.48841715,9.394848,-0.0036651916,-0.0012217305,0.002443461,0.0,-0.1038,0.5123,9.7927,-0.0743,-0.0047999998,0.097799994,0.005154,0.026144,0.919884,2017-06-18 19:55:53,58.74253823022029
-0.10534488,0.51714754,9.279925,-0.004886922,0.0012217305,0.002443461,1.0,-0.1061,0.5302,9.791699,-0.0064,-0.016999999,0.049599998,0.005512,0.026924,0.919492,2017-06-18 19:55:54,51.181586409238655
-0.12449849,0.5267244,9.308656,0.0,-0.002443461,0.0036651916,1.0,-0.1112,0.5229,9.792,0.0268,0.015,0.0297,0.005248,0.026759,0.919401,2017-06-18 19:55:55,61.24029190397014
-0.12449849,0.50757074,9.241618,-0.002443461,-0.004886922,0.0036651916,1.0,-0.0959,0.528,9.7919,-0.022699999,0.0045,-4.9999997E-4,0.005833,0.026645,0.918846,2017-06-18 19:55:56,40.47553271900395
-0.095768064,0.50757074,9.279925,0.0,0.002443461,0.0036651916,1.0,-0.102699995,0.5377,9.7913,0.0089,-0.0087,0.01,0.005915,0.027288,0.919813,2017-06-18 19:55:57,39.495605343895086
-0.10534488,0.48841715,9.270349,0.0012217305,-0.002443461,0.007330383,1.0,-0.1034,0.53029996,9.791699,-1.0E-4,0.006,0.0195,0.005773,0.027054,0.919839,2017-06-18 19:55:58,46.85095608930599
-0.095768064,0.51714754,9.232041,-0.0036651916,0.0,0.0036651916,0.0,-0.113199994,0.532,9.7915,0.0189,-0.023,0.029399998,0.005271,0.02724,0.920335,2017-06-18 19:55:59,57.87868549662118
-0.095768064,0.51714754,9.260772,0.0012217305,-0.0036651916,0.0061086523,1.0,-0.11,0.5157,9.792399,0.0184,0.020299999,-0.06,0.005041,0.026383,0.91936797,2017-06-18 19:56:00,58.58081346773208
-0.12449849,0.50757074,9.289502,-0.0036651916,0.002443461,0.004886922,1.0,-0.103099994,0.525,9.792,-0.0188,5.9999997E-4,-0.019,0.005668,0.026734,0.919028,2017-06-18 19:56:01,48.673697035071854
-0.08619126,0.5267244,9.251195,-0.009773844,-0.009773844,-0.0012217305,1.0,-0.102199994,0.53569996,9.7914,-0.0209,-0.025899999,-0.009699999,0.005952,0.027174,0.919014,2017-06-18 19:56:02,59.1853895473681
-0.10534488,0.5267244,9.260772,-0.0036651916,-0.004886922,0.002443461,1.0,-0.1064,0.5298,9.791699,0.0021,0.0166,-0.0207,0.005693,0.027016,0.919018,2017-06-18 19:56:03,59.644836344482414
-0.10534488,0.49799395,9.260772,-0.0012217305,-0.002443461,0.0036651916,1.0,-0.1083,0.5329,9.7915,0.0044,-0.0139999995,-0.0089,0.005612,0.027167,0.919013,2017-06-18 19:56:04,66.33308559224845
-0.11492168,0.49799395,9.279925,-0.0061086523,0.0,0.002443461,1.0,-0.11889999,0.52599996,9.7918,0.0313,-0.0284,-0.0385,0.005082,0.027072,0.919885,2017-06-18 19:56:05,61.902511089284914
-0.11492168,0.51714754,9.289502,-0.0012217305,0.0012217305,0.004886922,1.0,-0.1003,0.5345,9.7915,-0.0033,-0.0139,0.0196,0.005968,0.027091,0.919743,2017-06-18 19:56:06,56.72025299574261
-0.11492168,0.48841715,9.260772,-0.0061086523,0.002443461,0.0,1.0,-0.108399995,0.5281,9.7918,-0.0058,-0.0197,-4.0E-4,0.005512,0.026988,0.919643,2017-06-18 19:56:07,60.94407538430773
-0.1340753,0.48841715,9.270349,0.0,-0.002443461,0.0036651916,1.0,-0.11009999,0.5232,9.792,-0.0058999998,-0.0050999997,0.039699998,0.005425,0.026775,0.919651,2017-06-18 19:56:08,65.44644916745983
-0.1340753,0.50757074,9.279925,-0.004886922,0.002443461,0.0036651916,1.0,-0.1047,0.5239,9.792,0.010799999,-0.0053999997,-0.0084999995,0.00556,0.026679,0.919654,2017-06-18 19:56:09,58.04707108288788
-0.1436521,0.51714754,9.289502,-0.0012217305,-0.0036651916,0.0036651916,1.0,-0.105799995,0.5263,9.7919,-0.027999999,0.011299999,0.0254,0.005217,0.027026,0.918238,2017-06-18 19:56:10,58.48476661983172
-0.095768064,0.51714754,9.251195,-0.0012217305,0.002443461,0.004886922,0.0,-0.1017,0.5226,9.7921,0.0079,0.0155,-0.014099999,0.005708,0.026553,0.919144,2017-06-18 19:56:11,65.31960037937158
-0.095768064,0.51714754,9.260772,-0.0012217305,-0.004886922,0.0036651916,1.0,-0.0779,0.5415,9.7913,-0.035099998,-0.0309,0.0295,0.007096,0.02698,0.921333,2017-06-18 19:56:12,51.284385784253686
-0.11492168,0.50757074,9.260772,-0.004886922,-0.0036651916,0.0,1.0,-0.0967,0.5295,9.7918,-0.0164,-0.009699999,-0.0099,0.005972,0.026799,0.920713,2017-06-18 19:56:13,40.409319282851385
-0.076614454,0.5650316,9.232041,-0.0012217305,-0.007330383,0.0036651916,0.0,-0.0903,0.5414,9.7912,0.016999999,0.0403,-0.058399998,0.006654,0.027475,0.92018497,2017-06-18 19:56:15,42.05320520156447
-0.19153613,0.5746084,9.289502,-0.002443461,-0.0012217305,0.0036651916,0.0,-0.10349999,0.5212,9.7922,0.1008,-0.024899999,-0.0301,0.005432,0.026651,0.920022,2017-06-18 19:56:16,53.09968403505066
-0.10534488,0.50757074,9.270349,-0.002443461,-0.007330383,0.004886922,0.0,-0.113199994,0.52529997,9.7919,0.0093,-0.0079,-0.0299,0.005246,0.026902,0.918772,2017-06-18 19:56:17,63.60963326848683
-0.12449849,0.47884035,9.289502,-0.0061086523,0.0036651916,0.0036651916,1.0,-0.103999995,0.51989996,9.7923,-0.0218,-0.025999999,-4.9999997E-4,0.005771,0.026587,0.919004,2017-06-18 19:56:18,64.61218524629521
-0.1340753,0.49799395,9.270349,-0.007330383,0.0061086523,0.0012217305,1.0,-0.1096,0.54069996,9.7911,-0.023899999,-0.020299999,0.0213,0.005663,0.027568,0.91969,2017-06-18 19:56:19,57.06252739958184
-0.095768064,0.50757074,9.260772,-0.0036651916,-0.0061086523,0.0,1.0,-0.1091,0.5301,9.791699,-0.013599999,0.0079,-0.0297,0.005389,0.027036,0.920314,2017-06-18 19:56:20,65.41868126637891
-0.12449849,0.5267244,9.270349,-0.002443461,-0.004886922,0.002443461,1.0,-0.1096,0.52919996,9.791699,0.0058999998,0.0079,-0.069,0.005386,0.027037,0.920317,2017-06-18 19:56:21,52.8670031298391
-0.08619126,0.50757074,9.260772,0.0,-0.002443461,0.0012217305,1.0,-0.1144,0.5259,9.7918,0.029099999,0.0011,-0.020299999,0.005153,0.026991,0.920316,2017-06-18 19:56:22,61.257450799426294
-0.10534488,0.51714754,9.270349,-0.0036651916,-0.002443461,0.004886922,1.0,-0.1178,0.529,9.7916,-0.0053,0.0023,0.0093,0.004916,0.027174,0.920309,2017-06-18 19:56:23,58.13565263037344
-0.095768064,0.51714754,9.260772,-0.0012217305,-0.002443461,0.0012217305,1.0,-0.1139,0.52959996,9.7916,0.0095,0.009699999,0.0201,0.005194,0.027139,0.920312,2017-06-18 19:56:24,57.74659110040127
-0.095768064,0.50757074,9.279925,0.002443461,-0.002443461,0.004886922,1.0,-0.1105,0.5295,9.791699,0.0158,7.0E-4,0.029299999,0.005348,0.027025,0.920317,2017-06-18 19:56:25,38.51586812599037
-0.11492168,0.5267244,9.270349,0.0,-0.010995574,0.002443461,1.0,-0.1078,0.5309,9.7916,-0.0056999996,0.0173,5.9999997E-4,0.005504,0.027079,0.920317,2017-06-18 19:56:26,55.00800717122462
-0.1340753,0.51714754,9.260772,-0.007330383,-0.008552114,0.004886922,1.0,-0.1134,0.52779996,9.791699,0.0079,-0.0202,-0.0691,0.005253,0.02696,0.920317,2017-06-18 19:56:27,62.98641976271924
-0.12449849,0.51714754,9.260772,-0.004886922,-0.002443461,0.004886922,1.0,-0.1114,0.5316,9.7915,-0.003,-0.0095999995,0.0493,0.005353,0.027186,0.920314,2017-06-18 19:56:28,58.977117756112676
-0.11492168,0.49799395,9.270349,0.0,-0.008552114,0.0061086523,1.0,-0.1081,0.52739996,9.7918,-0.0044,-0.0064999997,0.04,0.005344,0.026946,0.920321,2017-06-18 19:56:29,63.50778990630304
-0.11492168,0.51714754,9.279925,-0.0012217305,0.0036651916,0.0012217305,1.0,-0.1162,0.53249997,9.7914,0.0022,0.0067999996,0.0094,0.005125,0.027302999,0.920312,2017-06-18 19:56:30,53.67285549250761
-0.1340753,0.5267244,9.270349,-0.002443461,-0.004886922,0.0036651916,1.0,-0.111899994,0.5345,9.7914,-0.0018,-0.0058,-0.0106999995,0.005385,0.027333,0.920312,2017-06-18 19:56:31,60.15524138397785
-0.11492168,0.49799395,9.260772,0.0012217305,0.0012217305,0.004886922,1.0,-0.11449999,0.53139997,9.7915,-4.0E-4,-0.009699999,1.0E-4,0.005195,0.027101,0.920317,2017-06-18 19:56:32,43.1150503040774
-0.095768064,0.49799395,9.279925,-0.002443461,-0.004886922,0.002443461,1.0,-0.1169,0.5259,9.7918,0.0224,-0.0074,0.0098,0.00498,0.027028,0.92032,2017-06-18 19:56:33,52.7648738859224
-0.12449849,0.47884035,9.251195,-0.0061086523,-0.004886922,0.008552114,1.0,-0.114599995,0.5279,9.791699,0.0287,0.020399999,0.029299999,0.005208,0.027144,0.920319,2017-06-18 19:56:34,64.9463656082967
-0.1340753,0.49799395,9.251195,-0.0061086523,0.002443461,0.0036651916,0.0,-0.1113,0.5232,9.792,-0.012399999,0.015299999,-0.0188,0.005271,0.026771,0.919111,2017-06-18 19:56:35,54.13871102622952
-0.10534488,0.48841715,9.241618,-0.0012217305,-0.0012217305,0.0061086523,0.0,-0.1174,0.5259,9.7918,0.0139999995,-0.0133,-0.0199,0.005013,0.026855,0.917647,2017-06-18 19:56:36,62.95745451855509
-0.11492168,0.49799395,9.241618,-0.0036651916,-0.002443461,0.0012217305,0.0,-0.111899994,0.5269,9.7918,-0.011899999,-0.0089,-0.0195,0.005384,0.026973,0.918488,2017-06-18 19:56:37,65.98398233085403
-0.1436521,0.5267244,9.270349,-0.004886922,-0.0036651916,0.0036651916,0.0,-0.118099995,0.5336,9.7914,-0.0056999996,0.0042,-0.020299999,0.005206,0.027388,0.918478,2017-06-18 19:56:38,60.41070002337491
-0.10534488,0.49799395,9.241618,-0.007330383,-0.002443461,0.0036651916,0.0,-0.1321,0.5132,9.7923,0.025999999,0.0095999995,0.0674,0.004017,0.026738,0.920001,2017-06-18 19:56:39,64.65421396858987
0.0,0.4309563,9.260772,-0.004886922,-0.004886922,0.007330383,1.0,-0.0924,0.5001,9.7934,0.0865,-0.046699997,0.085999995,0.005675,0.025313,0.919461,2017-06-18 19:56:40,58.24649166444475
-0.06703765,0.49799395,9.222465,-0.004886922,-0.0061086523,0.007330383,1.0,-0.0971,0.50189996,9.7933,0.0169,-0.0011,0.0013,0.005278,0.02552,0.919351,2017-06-18 19:56:41,54.29049610861487
-0.1340753,0.51714754,9.241618,-0.007330383,0.004886922,0.004886922,0.0,-0.097799994,0.52779996,9.7919,0.0137,0.032199997,0.031999998,0.005944,0.026728,0.919844,2017-06-18 19:56:42,48.72264295530325
-0.11492168,0.49799395,9.260772,-0.004886922,0.002443461,0.004886922,1.0,-0.1099,0.5221,9.7921,-0.0011,2.9999999E-4,0.0,0.005113,0.026569,0.918913,2017-06-18 19:56:43,55.28661340690082
-0.11492168,0.50757074,9.289502,-0.004886922,-0.009773844,0.009773844,1.0,-0.1064,0.5293,9.791699,-0.009699999,-0.009699999,-0.020499999,0.005783,0.026904,0.9186,2017-06-18 19:56:44,57.570435245135656
-0.1340753,0.51714754,9.270349,-0.004886922,-0.002443461,0.004886922,1.0,-0.0984,0.5283,9.7919,0.0244,-0.009699999,-0.0106,0.006015,0.026744,0.918611,2017-06-18 19:56:45,58.30738221337203
-0.08619126,0.5267244,9.260772,-0.004886922,0.0,0.0,1.0,-0.1006,0.5315,9.791699,0.018,0.0199,0.0191,0.005861,0.026889,0.918608,2017-06-18 19:56:46,56.14219428156822
-0.10534488,0.51714754,9.251195,-0.0012217305,-0.0012217305,0.007330383,1.0,-0.103199996,0.5327,9.7916,-8.0E-4,0.0083,0.029399998,0.005769,0.027071,0.920129,2017-06-18 19:56:47,58.522037178198914
-0.11492168,0.5267244,9.222465,-0.0036651916,0.012217305,0.002443461,1.0,-0.12619999,0.5096,9.7925,0.018199999,0.027999999,-0.0308,0.004576,0.02629,0.917082,2017-06-18 19:56:48,57.83797372179123
-0.11492168,0.50757074,9.251195,-0.004886922,-0.0012217305,0.0061086523,0.0,-0.103099994,0.5381,9.7913,-0.0101,-0.009699999,-0.0196,0.006071,0.027282,0.917435,2017-06-18 19:56:49,54.15995929751741
-0.095768064,0.50757074,9.260772,-0.002443461,-0.002443461,0.004886922,0.0,-0.099199995,0.53569996,9.7915,0.0053999997,-0.0061999997,-0.0198,0.006196,0.027021,0.91744,2017-06-18 19:56:50,67.10575056906622
-0.12449849,0.5363012,9.251195,-0.0061086523,-0.002443461,0.002443461,1.0,-0.1017,0.5311,9.791699,-0.030499998,0.0066,0.0589,0.005979,0.026995,0.917441,2017-06-18 19:56:51,66.62709631170506
-0.10534488,0.50757074,9.251195,0.002443461,-0.0036651916,0.0061086523,1.0,-0.1064,0.52779996,9.7918,-0.0072,-0.0185,-5.9999997E-4,0.005706,0.026865,0.917443,2017-06-18 19:56:52,58.54344445174115
-0.11492168,0.51714754,9.222465,-0.008552114,-0.0012217305,0.002443461,1.0,-0.1068,0.5348,9.7914,-0.0094,0.0052,-0.030199999,0.005944,0.027123,0.917437,2017-06-18 19:56:53,62.87062312260444
-0.10534488,0.51714754,9.279925,-0.002443461,0.0,0.002443461,1.0,-0.1047,0.5341,9.7915,0.0109,0.0044,0.010799999,0.005911,0.027125,0.917436,2017-06-18 19:56:54,62.491529555702876
-0.12449849,0.49799395,9.289502,-0.004886922,0.0,0.0036651916,0.0,-0.107,0.5299,9.791699,0.0116,-0.0030999999,-0.0105,0.005819,0.027003,0.917439,2017-06-18 19:56:55,55.06705342161794
-0.10534488,0.5363012,9.279925,-0.0012217305,0.0012217305,0.002443461,0.0,-0.1024,0.534,9.7915,-0.0112,0.0164,0.0587,0.006016,0.027073,0.917436,2017-06-18 19:56:56,60.367193510686334
-0.10534488,0.51714754,9.241618,0.0012217305,-0.007330383,0.007330383,1.0,-0.1029,0.53499997,9.7915,-7.0E-4,0.0021,-0.0288,0.006051,0.027201,0.917434,2017-06-18 19:56:57,57.01890969927649
-0.12449849,0.50757074,9.260772,-0.008552114,-0.004886922,0.0012217305,1.0,-0.102,0.5355,9.7914,-0.0123,-0.009,-0.009699999,0.006172,0.027226,0.917435,2017-06-18 19:56:58,54.76178260527561
-0.095768064,0.48841715,9.270349,0.0,0.0012217305,0.004886922,1.0,-0.106699996,0.5317,9.7916,-0.0066,-0.0139999995,-0.0094,0.005773,0.027054,0.917438,2017-06-18 19:56:59,58.169078105287035
-0.1340753,0.50757074,9.279925,-0.007330383,-0.0012217305,0.002443461,1.0,-0.107499994,0.532,9.7916,-0.028199999,-0.0042,0.019299999,0.005889,0.0271,0.917438,2017-06-18 19:57:00,63.82801695085426
-0.095768064,0.50757074,9.260772,-0.0036651916,0.002443461,0.002443461,1.0,-0.1077,0.5319,9.7916,0.0138,-0.0039,-0.021,0.005728,0.027085999,0.917438,2017-06-18 19:57:01,61.45769106838718
-0.10534488,0.50757074,9.260772,0.0,0.0,0.004886922,0.0,-0.104899995,0.53459996,9.7915,0.0095,-0.018199999,-0.0196,0.006031,0.02719,0.917435,2017-06-18 19:57:02,43.28408912229925
-0.1340753,0.5267244,9.222465,-0.004886922,-0.007330383,0.004886922,0.0,-0.104399994,0.53209996,9.7916,-0.0093,0.0079,0.0196,0.005886,0.027025,0.917439,2017-06-18 19:57:03,55.93464005092875
-0.11492168,0.49799395,9.232041,-0.002443461,-0.004886922,0.004886922,1.0,-0.1006,0.5282,9.7918,-0.0099,-0.011899999,-0.0492,0.005901,0.02691,0.917442,2017-06-18 19:57:04,63.679390156398014
-0.095768064,0.5267244,9.232041,0.0012217305,0.0012217305,0.0036651916,1.0,-0.111099996,0.53569996,9.7913,0.0053999997,-0.0067,0.049999997,0.005642,0.027367,0.918824,2017-06-18 19:57:05,60.641465889698935
-0.1340753,0.51714754,9.270349,-0.0036651916,0.0,0.007330383,1.0,-0.107,0.52279997,9.7921,0.022799999,-0.0143,0.0089,0.00558,0.02664,0.91741997,2017-06-18 19:57:06,61.49068705411373
-0.095768064,0.51714754,9.260772,-0.004886922,0.0012217305,0.004886922,1.0,-0.1037,0.5326,9.7916,0.0088,0.0042999997,2.9999999E-4,0.005976,0.027122,0.918099,2017-06-18 19:57:07,58.37242639400354
-0.10534488,0.47884035,9.232041,-0.002443461,-0.004886922,0.002443461,0.0,-0.1038,0.53749996,9.7913,2.9999999E-4,-0.0385,-0.048899997,0.005979,0.027276,0.918098,2017-06-18 19:57:08,60.76875970557056
-0.08619126,0.50757074,9.279925,-0.004886922,-0.004886922,0.004886922,0.0,-0.0998,0.5312,9.791699,0.0077,0.0067999996,2.0E-4,0.005972,0.026947,0.918109,2017-06-18 19:57:09,51.97158460268008
-0.095768064,0.51714754,9.270349,-0.0012217305,-0.004886922,0.0012217305,1.0,-0.1091,0.5327,9.7915,-0.024699999,-0.0013,-2.0E-4,0.005635,0.027156,0.9181,2017-06-18 19:57:10,60.89234129200321
-0.095768064,0.49799395,9.241618,-0.004886922,-0.0061086523,0.0036651916,1.0,-0.1012,0.52849996,9.7918,0.0069,-0.0095999995,0.0093,0.00597,0.026892,0.918109,2017-06-18 19:57:11,62.62545449904614
-0.1340753,0.5267244,9.260772,0.0,0.002443461,-0.0012217305,1.0,-0.1077,0.5327,9.7915,0.022699999,0.0069999998,0.020299999,0.005715,0.027081,0.918104,2017-06-18 19:57:12,36.7122246774732
-0.08619126,0.49799395,9.212888,-0.004886922,-0.008552114,0.007330383,1.0,-0.10569999,0.53,9.791699,0.0018,0.0092,-0.0206,0.005739,0.026963,0.918107,2017-06-18 19:57:13,63.99560895698983
-0.12449849,0.50757074,9.270349,-0.0036651916,-0.002443461,0.0012217305,1.0,-0.1015,0.53029996,9.791699,-0.021599999,-0.0033999998,-0.0112,0.005975,0.02694,0.91811,2017-06-18 19:57:14,47.38646294276598
-0.095768064,0.49799395,9.251195,0.002443461,-0.002443461,0.0036651916,1.0,-0.1087,0.5315,9.7916,0.0148,-0.0133,-0.0307,0.005626,0.027095,0.918106,2017-06-18 19:57:15,54.96297574697314
-0.10534488,0.50757074,9.270349,0.0,-0.0012217305,0.0012217305,0.0,-0.1065,0.529,9.791699,0.0123,-0.0077,0.0297,0.005668,0.026942,0.918112,2017-06-18 19:57:16,57.340302774921305
-0.06703765,0.50757074,9.260772,-0.004886922,-0.002443461,0.004886922,1.0,-0.103199996,0.5333,9.7915,0.0092,0.025799999,0.0297,0.005922,0.027067,0.918108,2017-06-18 19:57:17,53.92699840670996
-0.1340753,0.51714754,9.32781,0.0,-0.002443461,0.002443461,1.0,-0.1087,0.5315,9.7916,-0.026099999,0.0083,0.0695,0.005681,0.027017,0.918109,2017-06-18 19:57:18,54.83392212862902
-0.12449849,0.50757074,9.260772,0.0,0.0061086523,0.0012217305,1.0,-0.1048,0.5251,9.792,-0.010199999,0.0122,-0.0279,0.005761,0.026663,0.918119,2017-06-18 19:57:19,55.76617216323576
-0.076614454,0.5267244,9.251195,-0.0061086523,-0.002443461,0.004886922,1.0,-0.1029,0.5297,9.791699,-1.0E-4,0.006,-0.057699997,0.005863,0.026892,0.918113,2017-06-18 19:57:20,60.99698153430859
-0.10534488,0.51714754,9.270349,-0.002443461,-0.0061086523,0.0036651916,1.0,-0.096999995,0.5266,9.792,-0.0061,0.011,0.0196,0.006095,0.026711,0.918119,2017-06-18 19:57:21,64.12221201084355
-0.10534488,0.48841715,9.279925,-0.0036651916,-0.0036651916,0.0036651916,1.0,-0.100099996,0.5297,9.7918,-0.0030999999,-0.0218,-0.0098,0.005995,0.026833,0.918116,2017-06-18 19:57:22,44.34336201764267
-0.11492168,0.50757074,9.260772,0.0,0.0012217305,0.004886922,1.0,-0.0911,0.5272,9.792,-0.0314,0.014099999,0.048499998,0.006305,0.026434,0.918211,2017-06-18 19:57:23,55.45999708657802
-0.16280572,0.5554548,9.404425,-0.0061086523,-0.0036651916,0.0,0.0,-0.107,0.5297,9.791699,0.003,0.039,-0.1471,0.005673,0.026976,0.918099,2017-06-18 19:57:24,66.50482092398134
-0.095768064,0.50757074,9.308656,0.0,0.0,0.004886922,0.0,-0.0909,0.5293,9.7919,-0.0016,0.0021,0.058399998,0.006305,0.026561,0.91862,2017-06-18 19:57:25,62.447382762574506
-0.095768064,0.51714754,9.241618,-0.0012217305,-0.0012217305,0.0061086523,0.0,-0.092,0.5395,9.7913,-0.0134,-0.0106999995,0.009,0.006611,0.027141,0.919522,2017-06-18 19:57:26,52.25373274051351
-0.10534488,0.51714754,9.251195,-0.0036651916,-0.0036651916,0.002443461,0.0,-0.107499994,0.5255,9.7919,0.0134,0.0032,-5.9999997E-4,0.005514,0.026797,0.918822,2017-06-18 19:57:27,55.50702144533684
-0.10534488,0.545878,9.212888,-0.004886922,-0.0061086523,0.0012217305,0.0,-0.1152,0.5269,9.7918,0.0105,0.039,-0.049399998,0.00523,0.027116999,0.91905,2017-06-18 19:57:28,66.67402135127621
-0.10534488,0.48841715,9.289502,-0.0036651916,-0.0012217305,0.0061086523,0.0,-0.1019,0.52599996,9.792,-0.0014,-0.0179,0.0067,0.005814,0.026702,0.918404,2017-06-18 19:57:29,61.978075303789254
-0.047884032,0.46926352,9.203311,0.0,-0.010995574,0.0061086523,0.0,-0.0561,0.546,9.7912,0.1732,0.021499999,0.1192,0.008264,0.026948,0.918978,2017-06-18 19:57:30,57.07909539611326
-0.095768064,0.5363012,9.270349,0.0012217305,0.004886922,0.0061086523,1.0,-0.0929,0.5182,9.7925,0.009099999,-0.0078,0.0198,0.00603,0.026166,0.919196,2017-06-18 19:57:31,58.91076468603635
-0.095768064,0.50757074,9.279925,-0.002443461,0.0,0.0036651916,1.0,-0.097899996,0.5284,9.7919,0.0037,0.0029,0.0497,0.005927,0.026716,0.920177,2017-06-18 19:57:32,60.30202589648609
-0.095768064,0.58418524,9.299079,-0.0036651916,0.0061086523,0.004886922,1.0,-0.1108,0.5374,9.7912,-0.024999999,0.0265,-0.028199999,0.00549,0.027236,0.92074,2017-06-18 19:57:33,59.00476085516404
-0.11492168,0.5267244,9.260772,-0.002443461,-0.004886922,0.002443461,0.0,-0.1038,0.54069996,9.7911,-0.0099,2.9999999E-4,0.021,0.005884,0.027463,0.920361,2017-06-18 19:57:35,61.387751789939855
-0.11492168,0.5267244,9.289502,-0.0012217305,-0.010995574,0.008552114,0.0,-0.102199994,0.5263,9.7919,-0.0075999997,0.024899999,0.0678,0.005491,0.026793,0.919915,2017-06-18 19:57:36,65.77961932951654
-0.11492168,0.49799395,9.232041,-0.0061086523,0.010995574,0.002443461,1.0,-0.0927,0.54429996,9.790999,-0.0199,-0.0254,-0.0499,0.006404,0.027425,0.921378,2017-06-18 19:57:37,60.813044203443866
-0.12449849,0.5267244,9.270349,-0.009773844,-0.002443461,0.0012217305,1.0,-0.107999995,0.5388,9.7912,-0.0064999997,0.0138,0.039499998,0.005551,0.027364999,0.921548,2017-06-18 19:57:38,58.14678336688804
-0.10534488,0.5267244,9.241618,-0.0036651916,-0.008552114,0.0061086523,1.0,-0.1087,0.53639996,9.7913,0.0144,-0.0163,-0.009699999,0.005484,0.027374,0.921549,2017-06-18 19:57:39,59.07374599724926
-0.095768064,0.48841715,9.241618,0.0012217305,0.002443461,0.004886922,1.0,-0.108799994,0.5358,9.7913,0.0142,-0.024899999,-0.0199,0.005466,0.027278,0.92155397,2017-06-18 19:57:40,64.11681796009057
-0.08619126,0.50757074,9.279925,-0.0061086523,0.0,0.002443461,1.0,-0.1042,0.52959996,9.791699,0.031999998,-0.0018999999,-0.030499998,0.005471,0.027015,0.921561,2017-06-18 19:57:41,55.820504251915494
-0.10534488,0.50757074,9.260772,-0.004886922,-0.007330383,0.0012217305,1.0,-0.102699995,0.536,9.7914,-0.0106999995,0.0036,0.058,0.005758,0.027238,0.921556,2017-06-18 19:57:42,53.10772601676141
-0.10534488,0.50757074,9.270349,-0.0012217305,-0.009773844,0.0061086523,1.0,-0.1065,0.5341,9.7915,0.0029,-0.0044,0.0104,0.005519,0.027207,0.921556,2017-06-18 19:57:43,48.56651049032468
-0.11492168,0.51714754,9.270349,-0.0012217305,0.0036651916,0.0036651916,1.0,-0.1064,0.5319,9.7916,-0.0067999996,0.0053999997,-0.0198,0.005504,0.027116999,0.92156,2017-06-18 19:57:44,39.473375145137204
-0.1340753,0.49799395,9.241618,-0.007330383,-0.007330383,0.0012217305,1.0,-0.1158,0.5333,9.7914,0.0099,0.0037999998,-0.0298,0.0052,0.027395999,0.921552,2017-06-18 19:57:45,59.956376121360194
-0.095768064,0.48841715,9.241618,-0.007330383,-0.0036651916,0.0036651916,1.0,-0.1086,0.5305,9.7916,-0.0050999997,0.018099999,0.0104,0.005389,0.027094,0.921324,2017-06-18 19:57:46,64.41191899228373
-0.1340753,0.5267244,9.232041,-0.002443461,0.002443461,0.0036651916,1.0,-0.1033,0.5372,9.7913,-0.0321,0.01,-0.0401,0.005945,0.027302999,0.920956,2017-06-18 19:57:47,53.144809159855086
-0.095768064,0.49799395,9.279925,0.0,-0.0036651916,0.0061086523,1.0,-0.1026,0.5367,9.7914,0.0079,0.0105,-0.0106,0.005872,0.027271,0.921131,2017-06-18 19:57:48,58.288827646231915
-0.095768064,0.50757074,9.270349,-0.0036651916,-0.009773844,0.004886922,1.0,-0.105299994,0.5317,9.7916,0.0116,-0.0041,-0.0198,0.005581,0.027078,0.921139,2017-06-18 19:57:49,37.87343782052161
-0.095768064,0.50757074,9.251195,-0.002443461,-0.0012217305,0.002443461,0.0,-0.1087,0.5312,9.7916,0.0150999995,-0.0041,-0.0297,0.0054119998,0.027178999,0.921135,2017-06-18 19:57:50,45.2579271296934
-0.11492168,0.49799395,9.251195,-0.002443461,0.0012217305,0.0036651916,0.0,-0.103599995,0.5359,9.7914,-0.0095,-0.0179,-0.0381,0.005745,0.027243,0.921135,2017-06-18 19:57:51,57.20988022439276
-0.10534488,0.49799395,9.260772,-0.002443461,-0.0012217305,0.0061086523,0.0,-0.10569999,0.5388,9.7912,-0.0274,-0.028199999,-0.0092,0.005695,0.027418999,0.92113,2017-06-18 19:57:52,65.43143906651149
-0.10534488,0.5267244,9.289502,-0.0036651916,0.002443461,0.0,0.0,-0.10569999,0.53499997,9.7914,-0.0083,-0.0034999999,0.0402,0.005629,0.027245,0.921135,2017-06-18 19:57:53,63.36334468358348
-0.12449849,0.50757074,9.270349,0.002443461,0.0,0.0036651916,0.0,-0.1003,0.5367,9.7914,-0.0229,-0.0077,2.9999999E-4,0.005926,0.027204,0.921137,2017-06-18 19:57:54,39.91918027211749
-0.11492168,0.5267244,9.241618,-0.002443461,-0.0036651916,0.0061086523,0.0,-0.1096,0.5345,9.7914,-0.0144,-0.0037999998,-0.0191,0.005426,0.027218,0.921136,2017-06-18 19:57:55,53.06716212159829
-0.095768064,0.49799395,9.251195,-0.004886922,0.0,0.0036651916,0.0,-0.10569999,0.5312,9.7916,0.0115,0.0087,0.0196,0.005553,0.027064,0.921143,2017-06-18 19:57:56,58.233124074177844
-0.095768064,0.50757074,9.241618,0.0,-0.004886922,0.004886922,0.0,-0.1108,0.528,9.791699,0.0173,-0.0014,-0.03,0.005253,0.027116,0.92114,2017-06-18 19:57:57,61.10994221609202
-0.11492168,0.51714754,9.232041,0.0012217305,0.002443461,0.007330383,1.0,-0.105299994,0.53139997,9.7916,-0.007999999,0.0064,-0.048899997,0.005577,0.027063,0.921143,2017-06-18 19:57:58,61.60245218270474
-0.10534488,0.50757074,9.241618,-0.002443461,-0.0061086523,0.007330383,0.0,-0.10349999,0.5378,9.7913,-0.019399999,0.0089,-0.0687,0.0058,0.027364999,0.921135,2017-06-18 19:57:59,62.57847348556911
-0.11492168,0.51714754,9.241618,-0.004886922,-0.0036651916,0.0061086523,0.0,-0.1021,0.5341,9.7915,-0.0111,0.024,9.0E-4,0.0057779998,0.027129,0.921143,2017-06-18 19:58:00,63.89944220323806
-0.11492168,0.5363012,9.299079,-0.004886922,-0.007330383,0.002443461,1.0,-0.108899996,0.5383,9.7912,-0.0053,0.0218,0.0488,0.005545,0.027415,0.921135,2017-06-18 19:58:01,55.56530449307957
-0.12449849,0.5267244,9.270349,-0.002443461,-0.0012217305,0.0061086523,1.0,-0.112399995,0.5366,9.7913,0.0082,0.0023,1.0E-4,0.005347,0.027433,0.921134,2017-06-18 19:58:02,64.83939802416025
-0.1340753,0.51714754,9.193734,-0.009773844,0.002443461,0.0,1.0,-0.1118,0.5342,9.7914,-0.012399999,-0.032199997,0.0196,0.005326,0.027323,0.921137,2017-06-18 19:58:03,66.13145294499445
-0.11492168,0.51714754,9.251195,-0.0012217305,0.0,0.0036651916,1.0,-0.1122,0.5331,9.7915,-0.0033,0.0075,0.029299999,0.0053499998,0.027281,0.921138,2017-06-18 19:58:04,46.473002482118666
-0.11492168,0.51714754,9.270349,-0.007330383,-0.0012217305,0.0061086523,1.0,-0.1091,0.5352,9.7914,-0.005,0.0058,0.046499997,0.005473,0.02732,0.921139,2017-06-18 19:58:05,59.72889009709883
-0.11492168,0.48841715,9.270349,-0.0012217305,-0.0012217305,0.0036651916,1.0,-0.1056,0.5336,9.7915,0.0011,-0.0072,0.0092,0.005691,0.027274,0.921144,2017-06-18 19:58:06,58.25336178175321
-0.1340753,0.50757074,9.241618,-0.002443461,-0.004886922,0.0036651916,1.0,-0.1099,0.53749996,9.7912,-0.0037,-0.008599999,9.0E-4,0.005479,0.027445,0.921138,2017-06-18 19:58:07,49.652180661617194
-0.095768064,0.5267244,9.241618,-0.0012217305,-0.0036651916,0.010995574,1.0,-0.108899996,0.5324,9.7915,0.0145,0.0134,-0.049999997,0.005475,0.027233,0.921144,2017-06-18 19:58:08,57.977515556853525
-0.10534488,0.5267244,9.260772,-0.002443461,0.0,0.004886922,1.0,-0.1068,0.5408,9.7911,-0.0162,0.0185,9.0E-4,0.00566,0.027503,0.921139,2017-06-18 19:58:09,58.89430785236258
-0.095768064,0.51714754,9.299079,-0.0036651916,0.0036651916,0.002443461,0.0,-0.109,0.53639996,9.7913,0.024699999,0.0022,-0.0185,0.005499,0.027373,0.921143,2017-06-18 19:58:10,61.29478545583082
-0.12449849,0.48841715,9.299079,0.0,0.0012217305,0.0036651916,0.0,-0.114099994,0.5336,9.7914,-0.0116,-0.0245,0.0402,0.005309,0.027333,0.921143,2017-06-18 19:58:11,59.686875397408315
-0.10534488,0.49799395,9.241618,-0.0012217305,-0.002443461,0.007330383,1.0,-0.1016,0.53749996,9.7913,-0.0019999999,-0.0179,-0.0191,0.005872,0.02728,0.92114997,2017-06-18 19:58:12,59.319444954996676
-0.08619126,0.50757074,9.251195,-0.002443461,0.0,0.002443461,1.0,-0.1019,0.5306,9.791699,0.0,-0.011399999,0.038799997,0.005637,0.027,0.921158,2017-06-18 19:58:13,61.648192450201485
-0.12449849,0.51714754,9.251195,-0.0061086523,-0.007330383,0.0036651916,1.0,-0.1059,0.53319997,9.7915,-0.0075,0.0053,2.0E-4,0.00558,0.027161,0.921155,2017-06-18 19:58:14,67.95250666667164
-0.10534488,0.49799395,9.270349,-0.007330383,0.0012217305,0.002443461,1.0,-0.103099994,0.53029996,9.791699,-4.9999997E-4,-0.0122,0.0087,0.005681,0.027023,0.92116,2017-06-18 19:58:15,59.83768459497163
-0.12449849,0.50757074,9.270349,-0.0061086523,-0.008552114,0.004886922,1.0,-0.1052,0.534,9.7915,0.0,0.0235,-0.0197,0.005723,0.027178,0.921155,2017-06-18 19:58:16,55.210953184718974
-0.095768064,0.5363012,9.270349,-0.002443461,-0.0012217305,0.0036651916,1.0,-0.102199994,0.5369,9.7914,0.018,-0.0064999997,0.0185,0.005828,0.027264,0.921154,2017-06-18 19:58:17,41.93858763356239
-0.10534488,0.50757074,9.241618,-0.007330383,-0.0036651916,0.0036651916,0.0,-0.0999,0.5336,9.7916,-0.0039,-0.0033999998,-0.0095999995,0.005877,0.027034,0.921162,2017-06-18 19:58:18,38.372700375052574
-0.11492168,0.50757074,9.251195,-0.007330383,0.002443461,0.0,0.0,-0.1042,0.53,9.791699,-0.0093,-9.0E-4,-0.009099999,0.005765,0.026945,0.918785,2017-06-18 19:58:19,53.484964009056064
-0.1340753,0.51714754,9.279925,-0.0061086523,0.0012217305,0.004886922,1.0,-0.1144,0.5154,9.792399,0.035,0.0356,-0.0989,0.005492,0.02646,0.916115,2017-06-18 19:58:20,67.08153379921517
-0.11492168,0.49799395,9.299079,-0.0012217305,-0.004886922,0.0036651916,0.0,-0.0967,0.53099996,9.791699,0.012999999,-0.0122,2.9999999E-4,0.006318,0.026795,0.916073,2017-06-18 19:58:21,67.5525687874057
-0.10534488,0.51714754,9.3182335,-0.004886922,-0.0061086523,0.004886922,1.0,-0.1059,0.53709996,9.7913,-1.0E-4,-0.0026,0.0391,0.006211,0.027398,0.916073,2017-06-18 19:58:22,56.99323499643454
-0.11492168,0.48841715,9.260772,-0.004886922,0.0036651916,0.004886922,1.0,-0.1112,0.55289996,9.7904,0.0481,0.0058,0.0013,0.00572,0.028263,0.920214,2017-06-18 19:58:23,55.225265199500214
-0.11492168,0.49799395,9.299079,-0.002443461,-0.0036651916,0.004886922,1.0,-0.088599995,0.5437,9.7911,-0.0142,-0.0335,-0.0092,0.006614,0.027312,0.92098397,2017-06-18 19:58:24,59.602127545655755
-0.08619126,0.51714754,9.260772,-0.0061086523,0.0,0.0061086523,1.0,-0.102199994,0.52349997,9.7921,0.020499999,0.018099999,-4.9999997E-4,0.005458,0.026507,0.920056,2017-06-18 19:58:25,64.9911040311996
-0.10534488,0.50757074,9.260772,-0.0061086523,0.0012217305,0.0036651916,1.0,-0.0932,0.52129996,9.7923,-0.0098,0.0072,-2.9999999E-4,0.006043,0.026329,0.919671,2017-06-18 19:58:26,49.587500846834544
-0.076614454,0.50757074,9.279925,-0.0012217305,-0.002443461,0.004886922,0.0,-0.094,0.5316,9.791699,0.0026,0.026099999,-0.0095999995,0.006083,0.026891,0.920306,2017-06-18 19:58:27,57.07507522204722
-0.10534488,0.545878,9.260772,0.0,-0.008552114,0.0061086523,0.0,-0.0971,0.52239996,9.7922,0.0036,0.0253,-0.0198,0.005919,0.026448,0.91916,2017-06-18 19:58:28,40.053721772084515
-0.11492168,0.51714754,9.289502,-0.007330383,0.0,0.0,0.0,-0.0999,0.5276,9.7919,-0.015999999,0.0098,0.0403,0.00601,0.026798,0.919852,2017-06-18 19:58:29,53.581640560141054
-0.11492168,0.50757074,9.270349,-0.004886922,0.002443461,0.004886922,0.0,-0.096999995,0.52849996,9.7919,-0.0174,-5.9999997E-4,0.0198,0.006006,0.026731,0.920825,2017-06-18 19:58:30,66.22246004688031
-0.10534488,0.50757074,9.260772,0.0012217305,-0.004886922,0.0061086523,0.0,-0.0951,0.5309,9.7918,-0.0081,-0.030599998,0.0299,0.006066,0.026833,0.920826,2017-06-18 19:58:31,63.125858907338916
-0.10534488,0.48841715,9.251195,-0.0012217305,-0.013439035,0.007330383,0.0,-0.098299995,0.5232,9.7921,-0.0025,-0.0155,-0.03,0.005655,0.026603,0.920832,2017-06-18 19:58:32,56.16635515626064
-0.095768064,0.47884035,9.270349,-0.004886922,-0.002443461,0.002443461,0.0,-0.100099996,0.5282,9.7918,0.0067,-0.030199999,-0.019,0.005779,0.026809,0.920828,2017-06-18 19:58:33,62.627189870280105
-0.10534488,0.49799395,9.232041,-0.0036651916,0.002443461,0.0036651916,0.0,-0.1038,0.5293,9.7918,0.0,2.0E-4,-0.0197,0.005628,0.026930999,0.920826,2017-06-18 19:58:34,67.8262243842991
-0.10534488,0.49799395,9.279925,0.002443461,0.0012217305,0.0036651916,0.0,-0.1087,0.5322,9.7915,0.0047,-0.0128,0.0208,0.005453,0.027166,0.920818,2017-06-18 19:58:35,63.418049398961486
-0.08619126,0.49799395,9.260772,-0.002443461,-0.010995574,0.002443461,0.0,-0.097799994,0.52489996,9.7921,0.0139999995,-0.0058999998,2.9999999E-4,0.005823,0.026604,0.920835,2017-06-18 19:58:36,42.24497371689182
-0.095768064,0.5267244,9.232041,-0.010995574,-0.0012217305,0.0036651916,0.0,-0.0959,0.53029996,9.7918,0.0029,-0.0106999995,5.9999997E-4,0.00597,0.026733,0.920831,2017-06-18 19:58:37,64.64900617565856
-0.10534488,0.50757074,9.260772,0.0,0.002443461,0.004886922,0.0,-0.1011,0.5294,9.7918,0.0175,-0.0018999999,-0.0285,0.005754,0.026884,0.920825,2017-06-18 19:58:38,57.8101730190093
-0.10534488,0.5267244,9.289502,-0.0012217305,-0.008552114,0.002443461,0.0,-0.097399995,0.5347,9.7915,-0.0053999997,0.0121,0.019399999,0.006045,0.027138,0.920821,2017-06-18 19:58:39,39.741653539281465
-0.06703765,0.49799395,9.260772,-0.0012217305,-0.012217305,0.002443461,0.0,-0.1021,0.5372,9.7913,0.0378,-0.018099999,-0.0099,0.005863,0.027269,0.920816,2017-06-18 19:58:40,61.487460087595345
-0.08619126,0.48841715,9.260772,-0.0036651916,-0.0012217305,0.004886922,0.0,-0.088599995,0.5226,9.7923,0.0157,0.0139999995,-7.0E-4,0.006208,0.026388,0.920841,2017-06-18 19:58:41,64.22536301673208
-0.08619126,0.5363012,9.279925,-0.004886922,-0.0012217305,0.004886922,0.0,-0.098799996,0.5252,9.792,0.0149,0.0133,0.0295,0.005782,0.026641,0.920833,2017-06-18 19:58:42,54.951961749127534
-0.095768064,0.49799395,9.289502,-0.002443461,0.0012217305,0.002443461,1.0,-0.1041,0.5277,9.7918,0.0075,-0.0088,0.019299999,0.005711,0.026788,0.920828,2017-06-18 19:58:43,48.32908206170653
-0.076614454,0.48841715,9.241618,-0.0012217305,-0.004886922,0.004886922,1.0,-0.102,0.52459997,9.792,0.0088,0.0049,-0.0099,0.005573,0.026676,0.920829,2017-06-18 19:58:44,44.23652041206941
-0.08619126,0.49799395,9.251195,0.0,0.0,0.002443461,1.0,-0.098699994,0.5308,9.791699,0.0245,-0.0011999999,-0.0095999995,0.005898,0.026902,0.920826,2017-06-18 19:58:45,53.878268460365526
-0.08619126,0.50757074,9.270349,-0.004886922,-0.002443461,0.0036651916,1.0,-0.100099996,0.5248,9.792,0.018099999,0.0034999999,-0.0186,0.005609,0.026625,0.920835,2017-06-18 19:58:46,49.1871428381457
-0.095768064,0.50757074,9.279925,0.0,-0.002443461,0.004886922,1.0,-0.1012,0.5291,9.7918,0.0072999997,2.9999999E-4,0.029,0.005746,0.026873,0.920828,2017-06-18 19:58:47,62.37174342815833
-0.10534488,0.48841715,9.270349,0.0,0.0,0.0036651916,1.0,-0.0982,0.52889997,9.7918,-0.0155,0.0084,0.0296,0.005943,0.026888,0.92083,2017-06-18 19:58:48,62.98635525507531
-0.076614454,0.50757074,9.308656,-0.002443461,-0.0012217305,0.0036651916,0.0,-0.0963,0.5324,9.791699,0.0128,0.0055,0.0301,0.006038,0.02693,0.920828,2017-06-18 19:58:49,54.81491224124235
-0.12449849,0.4309563,9.279925,-0.0061086523,-0.002443461,0.004886922,0.0,-0.0989,0.5326,9.7916,-0.0253,-0.0792,0.0088,0.005917,0.0268,0.920831,2017-06-18 19:58:50,58.838342066992446
-0.10534488,0.50757074,9.241618,-0.002443461,0.0036651916,0.0012217305,0.0,-0.0977,0.5348,9.7915,0.0039999997,0.0213,-8.0E-4,0.006057,0.027077,0.920825,2017-06-18 19:58:51,59.77441429372849
-0.10534488,0.51714754,9.270349,-0.0012217305,0.007330383,0.0036651916,0.0,-0.0975,0.5306,9.791699,0.0041,0.0169,5.9999997E-4,0.005951,0.02687,0.920828,2017-06-18 19:58:53,54.10248878013662
-0.06703765,0.49799395,9.260772,-0.004886922,-0.004886922,0.0036651916,0.0,-0.0984,0.5344,9.7915,0.0347,-0.0144,9.999999E-4,0.005948,0.027052,0.920824,2017-06-18 19:58:54,39.61829017616307
-0.10534488,0.51714754,9.251195,-0.002443461,0.0,0.0036651916,1.0,-0.098799996,0.5354,9.7915,-0.0045,0.0036,-0.0101,0.005983,0.027122,0.920821,2017-06-18 19:58:55,62.82923849212772
-0.08619126,0.51714754,9.241618,-0.0012217305,0.0012217305,0.004886922,1.0,-0.1008,0.5352,9.7915,-0.0139999995,-0.0156,0.0101,0.00598,0.027199,0.920821,2017-06-18 19:58:56,62.019980739050304
-0.076614454,0.48841715,9.251195,0.0,-0.0036651916,0.004886922,1.0,-0.1024,0.525,9.792,0.008599999,-0.0066,0.0,0.005609,0.026704,0.920831,2017-06-18 19:58:57,67.31975817004047
-0.11492168,0.51714754,9.251195,-0.0012217305,0.0,0.0036651916,1.0,-0.0982,0.5273,9.7919,-0.013599999,0.012,-0.0195,0.0058399998,0.026677,0.919716,2017-06-18 19:58:58,65.69161535909879
-0.10534488,0.5267244,9.260772,-0.002443461,-0.0036651916,0.0036651916,0.0,-0.1013,0.5297,9.7918,0.0296,-0.0121,-0.0309,0.005702,0.026961999,0.920107,2017-06-18 19:58:59,64.45736661373682
-0.095768064,0.50757074,9.279925,0.0012217305,0.0061086523,0.004886922,0.0,-0.092,0.536,9.7915,0.0084,-0.0154,0.0295,0.006289,0.02702,0.921175,2017-06-18 19:59:00,55.349749767938306
-0.10534488,0.51714754,9.251195,-0.0012217305,-0.004886922,0.008552114,1.0,-0.0959,0.53499997,9.7915,-0.0077,0.0021,-0.0393,0.006128,0.027051,0.921187,2017-06-18 19:59:01,59.000592457705466
-0.12449849,0.49799395,9.270349,-0.0012217305,-0.004886922,0.002443461,0.0,-0.096499994,0.5315,9.791699,-0.0264,-0.0121,0.0105,0.005988,0.026896,0.921195,2017-06-18 19:59:02,51.766954217822764
-0.12449849,0.5363012,9.222465,-0.0036651916,0.007330383,0.0012217305,1.0,-0.096599996,0.53069997,9.7918,0.010199999,-0.0179,-5.9999997E-4,0.006035,0.026668,0.921201,2017-06-18 19:59:03,57.996041062510386
-0.076614454,0.48841715,9.279925,0.0,-0.0061086523,0.0061086523,1.0,-0.1033,0.5318,9.7916,-0.0103,-0.011399999,0.0099,0.005676,0.027046,0.921189,2017-06-18 19:59:04,61.513482120853894
-0.08619126,0.50757074,9.251195,-0.0012217305,-0.0036651916,0.0061086523,0.0,-0.1008,0.5338,9.7915,0.0174,-0.0021,0.0088,0.005767,0.027034,0.921189,2017-06-18 19:59:05,64.37114375252067
-0.076614454,0.51714754,9.289502,-0.0061086523,-0.008552114,0.002443461,1.0,-0.0962,0.529,9.7918,-0.018199999,0.0088,-0.009,0.006029,0.026735,0.921197,2017-06-18 19:59:06,38.58003776648421
-0.12449849,0.51714754,9.270349,0.0,0.004886922,0.004886922,0.0,-0.1011,0.53639996,9.7914,-0.012,-0.0178,-0.047799997,0.005795,0.027231,0.922247,2017-06-18 19:59:07,53.45634758789372
-0.10534488,0.51714754,9.279925,-0.004886922,-0.002443461,0.0036651916,0.0,-0.100099996,0.5223,9.7922,7.0E-4,0.019299999,0.0184,0.005382,0.026453,0.920935,2017-06-18 19:59:08,58.61411437932234
-0.10534488,0.48841715,9.251195,0.0,0.0,0.004886922,0.0,-0.10569999,0.53099996,9.7916,0.0015,-0.019399999,0.0288,0.005484,0.027067,0.922053,2017-06-18 19:59:09,52.305289990153724
-0.10534488,0.5363012,9.260772,-0.0036651916,-0.002443461,0.004886922,1.0,-0.098,0.5284,9.7919,0.0047,-0.0077,0.0199,0.005753,0.026752999,0.92206,2017-06-18 19:59:10,52.23101667547739
-0.11492168,0.50757074,9.289502,-0.004886922,-0.0012217305,0.004886922,1.0,-0.101399995,0.5294,9.7918,0.0075,-0.019399999,0.038599998,0.005658,0.026905,0.922055,2017-06-18 19:59:11,52.29378064256703
-0.095768064,0.50757074,9.289502,-0.002443461,0.002443461,0.0036651916,1.0,-0.102699995,0.5351,9.7915,0.0088,-0.0047,0.021,0.005681,0.027125,0.922051,2017-06-18 19:59:12,61.28751670873206
-0.095768064,0.50757074,9.299079,-0.0061086523,-0.0036651916,0.004886922,0.0,-0.0991,0.5383,9.7913,-0.0029,-0.018099999,0.0287,0.005865,0.027311,0.922048,2017-06-18 19:59:13,60.056817337802414
-0.11492168,0.47884035,9.279925,-0.004886922,-0.010995574,0.0036651916,0.0,-0.1025,0.5316,9.7916,-9.999999E-4,0.0165,0.0095,0.005649,0.027034,0.922055,2017-06-18 19:59:14,55.93330610733751
-0.095768064,0.51714754,9.270349,0.0,0.0012217305,0.007330383,0.0,-0.1024,0.5318,9.7916,0.0064,0.007999999,0.0288,0.005757,0.027005,0.922057,2017-06-18 19:59:15,49.35530047423936
-0.095768064,0.47884035,9.260772,-0.004886922,-0.0012217305,0.0012217305,0.0,-0.0995,0.528,9.7919,0.0056999996,-0.0279,0.0101,0.005716,0.026805,0.922063,2017-06-18 19:59:16,61.78386540205917
-0.08619126,0.49799395,9.260772,-0.0012217305,-0.004886922,0.0036651916,0.0,-0.1002,0.5355,9.7915,-0.023799999,0.0128999995,-0.0383,0.005868,0.02709,0.922057,2017-06-18 19:59:17,47.54998072578082
-0.12449849,0.49799395,9.241618,-0.002443461,0.0012217305,0.0061086523,1.0,-0.0993,0.5322,9.7916,-0.0138,-0.0134,-0.0482,0.005812,0.026999,0.922061,2017-06-18 19:59:18,62.09368740575268
-0.12449849,0.5363012,9.193734,-0.0012217305,0.002443461,0.0036651916,1.0,-0.1015,0.5361,9.7914,-0.0221,0.0233,-0.0484,0.005806,0.027239,0.922055,2017-06-18 19:59:19,61.61660961855944
-0.11492168,0.5267244,9.270349,0.0,-0.002443461,0.0061086523,0.0,-0.099999994,0.5318,9.791699,0.0047999998,0.0,0.0,0.005799,0.026891,0.922068,2017-06-18 19:59:20,70.32802036280452
-0.10534488,0.5267244,9.241618,-0.0012217305,-0.0061086523,0.004886922,0.0,-0.0973,0.5308,9.791699,-0.006,0.037499998,0.0103,0.005876,0.026893,0.922069,2017-06-18 19:59:21,64.32872665379178
-0.095768064,0.5363012,9.270349,-0.004886922,-0.0036651916,0.0036651916,0.0,-0.096599996,0.5345,9.7915,0.0018,0.022499999,-0.01,0.006068,0.027048,0.922067,2017-06-18 19:59:22,61.73136933837724
-0.095768064,0.51714754,9.260772,-0.0036651916,-0.004886922,0.0012217305,1.0,-0.091,0.53,9.7918,-0.0019999999,0.0077,-0.0201,0.006156,0.026729,0.922078,2017-06-18 19:59:23,58.144655219472924
-0.08619126,0.51714754,9.270349,0.0012217305,0.0012217305,0.004886922,1.0,-0.092099994,0.5313,9.7918,0.0098,0.0061,-0.0578,0.006074,0.026798,0.922075,2017-06-18 19:59:24,63.957091697202124
-0.11492168,0.49799395,9.279925,-0.002443461,-0.004886922,0.004886922,0.0,-0.0892,0.5316,9.7918,-0.023599999,-0.0117999995,-0.009699999,0.006274,0.026772,0.922077,2017-06-18 19:59:25,47.86241008152318
-0.11492168,0.50757074,9.251195,-0.0036651916,-0.002443461,0.002443461,0.0,-0.099599995,0.5359,9.7914,-0.0157,-0.0069,-0.0202,0.005973,0.027122,0.922069,2017-06-18 19:59:26,53.293202785234435
-0.08619126,0.51714754,9.241618,0.0012217305,-0.002443461,0.004886922,0.0,-0.0954,0.53889996,9.7913,0.0224,0.011899999,0.0297,0.006066,0.027253,0.922064,2017-06-18 19:59:27,53.640493617897604
-0.10534488,0.49799395,9.299079,0.0036651916,0.0061086523,0.004886922,0.0,-0.093899995,0.5369,9.7914,0.02,-0.0069,0.0189,0.006156,0.027111,0.92207,2017-06-18 19:59:28,57.27508293568552
-0.08619126,0.49799395,9.270349,0.0012217305,0.002443461,0.004886922,0.0,-0.0907,0.5327,9.791699,0.0061999997,-0.012399999,2.0E-4,0.006253,0.026755,0.922081,2017-06-18 19:59:29,48.71878765753732
-0.11492168,0.50757074,9.251195,-0.0012217305,-0.002443461,0.007330383,0.0,-0.096099995,0.53679997,9.7914,-0.0168,-0.0084,-0.029099999,0.006052,0.02715,0.92207,2017-06-18 19:59:30,41.373624204968934
-0.095768064,0.50757074,9.260772,-0.008552114,-0.0012217305,0.004886922,0.0,-0.1016,0.5361,9.7914,-0.0106999995,0.0111,-0.009699999,0.005752,0.027276,0.922066,2017-06-18 19:59:31,64.79544643657177
-0.076614454,0.49799395,9.222465,-0.0036651916,-0.0036651916,0.0012217305,0.0,-0.100999996,0.5313,9.791699,0.0074,0.0064,-0.0396,0.005713,0.026991,0.922071,2017-06-18 19:59:32,67.28671560033601
-0.08619126,0.50757074,9.260772,-0.0036651916,0.0,-0.0012217305,0.0,-0.0998,0.5311,9.791699,0.0166,-0.0036,-0.01,0.005757,0.027021,0.922068,2017-06-18 19:59:33,67.90489235146514
-0.08619126,0.5363012,9.289502,-0.002443461,0.0012217305,0.0061086523,1.0,-0.095699996,0.5298,9.7918,0.022,-8.0E-4,-0.019,0.005925,0.026822,0.922074,2017-06-18 19:59:34,38.18682306428566
-0.12449849,0.545878,9.279925,0.0,0.0036651916,0.0036651916,1.0,-0.0967,0.5398,9.7913,0.0030999999,-2.9999999E-4,0.0011,0.006135,0.027291,0.921317,2017-06-18 19:59:35,38.09400717762297
-0.095768064,0.51714754,9.260772,-0.002443461,-0.0012217305,0.002443461,0.0,-0.102,0.5354,9.7914,0.0071,0.0037999998,0.011,0.005866,0.027193,0.921178,2017-06-18 19:59:36,39.48024286633796
-0.08619126,0.5363012,9.251195,-0.004886922,-0.002443461,0.004886922,0.0,-0.101799995,0.5293,9.7918,0.018,0.0279,-0.030499998,0.005693,0.026898,0.921206,2017-06-18 19:59:37,43.9579225054934
-0.08619126,0.51714754,9.251195,-0.0036651916,-0.0036651916,0.0036651916,0.0,-0.0945,0.5391,9.7913,0.0218,-2.0E-4,-0.0185,0.00618,0.027232,0.921195,2017-06-18 19:59:38,36.79090602553848
-0.095768064,0.50757074,9.279925,-0.002443461,-0.004886922,0.004886922,0.0,-0.0976,0.53249997,9.7916,-0.0058,0.0167,0.019199999,0.005955,0.026965,0.9212,2017-06-18 19:59:39,61.47903035648916
-0.10534488,0.51714754,9.308656,-0.004886922,0.002443461,0.004886922,0.0,-0.1046,0.5358,9.7914,-9.999999E-4,0.0047,0.0685,0.005772,0.027203,0.921193,2017-06-18 19:59:40,65.61875923314999
-0.11492168,0.5267244,9.289502,-0.004886922,0.0,0.002443461,0.0,-0.1017,0.5342,9.7915,-0.0111,0.0148,-0.011399999,0.005786,0.027209,0.921195,2017-06-18 19:59:41,56.94510364876535
-0.11492168,0.51714754,9.251195,-0.002443461,-0.0061086523,0.004886922,0.0,-0.0968,0.5336,9.7916,-0.0061,0.013499999,-0.0197,0.006014,0.027004,0.921202,2017-06-18 19:59:42,57.99040238508542
-0.10534488,0.51714754,9.260772,-0.002443461,-0.007330383,0.004886922,0.0,-0.1025,0.5387,9.7913,-0.003,-8.0E-4,-0.009699999,0.005967,0.027356,0.921193,2017-06-18 19:59:43,61.46549153315007
-0.076614454,0.51714754,9.241618,-0.004886922,-0.002443461,0.0061086523,0.0,-0.0958,0.5298,9.7918,0.021699999,0.0104,0.007999999,0.005986,0.026804,0.921207,2017-06-18 19:59:44,62.013362283458065
-0.08619126,0.50757074,9.270349,-0.0036651916,-0.008552114,0.004886922,1.0,-0.1007,0.5363,9.7914,-0.0037999998,-0.0078,-0.0095999995,0.005941,0.027173,0.921199,2017-06-18 19:59:45,58.43548153072345
-0.10534488,0.51714754,9.270349,-0.004886922,-0.0061086523,0.0061086523,1.0,-0.100499995,0.5301,9.791699,-0.0128999995,0.009699999,0.0288,0.005769,0.026909,0.921204,2017-06-18 19:59:46,36.778439651500804
-0.11492168,0.5363012,9.270349,-0.0036651916,0.0061086523,0.0036651916,1.0,-0.103099994,0.5315,9.7916,-0.009699999,0.029099999,0.0381,0.00562,0.027014,0.921201,2017-06-18 19:59:47,37.216956139309175
-0.08619126,0.5267244,9.270349,-0.0036651916,-0.0012217305,0.0061086523,1.0,-0.094799995,0.5359,9.7915,0.0122,0.014099999,-5.9999997E-4,0.00608,0.027035,0.921204,2017-06-18 19:59:48,41.59301175958927
-0.12449849,0.49799395,9.222465,-0.002443461,0.004886922,0.002443461,1.0,-0.0946,0.5362,9.7915,0.0014,-0.0079,-0.0289,0.006169,0.02708,0.921203,2017-06-18 19:59:49,60.56466748979868
-0.10534488,0.51714754,9.232041,-0.007330383,-0.0036651916,0.0012217305,1.0,-0.1017,0.5354,9.7914,-0.0026999998,0.003,-0.048499998,0.005868,0.027142,0.9212,2017-06-18 19:59:50,64.71190815739479
-0.10534488,0.50757074,9.260772,-0.0012217305,0.004886922,0.004886922,0.0,-0.1015,0.5322,9.7916,-0.0018999999,-0.0034999999,-0.0098,0.005768,0.027026,0.921203,2017-06-18 19:59:51,58.974845452663125
-0.095768064,0.51714754,9.260772,0.0,-0.004886922,0.0036651916,0.0,-0.0995,0.5342,9.7915,0.015899999,0.016099999,0.039,0.005864,0.02707,0.921201,2017-06-18 19:59:52,52.640365966763966
-0.11492168,0.50757074,9.251195,-0.002443461,0.0061086523,0.007330383,0.0,-0.1019,0.537,9.7914,-0.0016,0.0015,0.009,0.005845,0.027263,0.921197,2017-06-18 19:59:53,51.06822138871677
-0.11492168,0.5267244,9.260772,-0.0036651916,0.002443461,0.004886922,0.0,-0.099599995,0.541,9.7912,-0.013599999,0.0081,-0.0011,0.00603,0.027403,0.921195,2017-06-18 19:59:54,53.87021198213155
-0.095768064,0.51714754,9.251195,0.0,-0.002443461,0.002443461,0.0,-0.1026,0.538,9.7913,0.0069,0.0106999995,1.0E-4,0.005922,0.027271,0.921202,2017-06-18 19:59:55,40.09078909067683
-0.095768064,0.5267244,9.260772,-0.0061086523,-0.004886922,0.004886922,0.0,-0.104499996,0.5399,9.7912,5.9999997E-4,4.0E-4,0.029,0.005777,0.027453,0.921194,2017-06-18 19:59:56,60.60088644536593
-0.10534488,0.5267244,9.289502,-0.004886922,-0.0036651916,0.007330383,0.0,-0.093399994,0.5317,9.791699,-0.0099,0.019,0.0502,0.006119,0.026799,0.921216,2017-06-18 19:59:57,64.40525738281592
-0.12449849,0.5267244,9.279925,-0.002443461,0.0,0.0036651916,0.0,-0.1002,0.5388,9.7913,-0.0232,0.0117999995,0.0488,0.005959,0.027312,0.921202,2017-06-18 19:59:58,62.655422545977885
-0.08619126,0.50757074,9.222465,-0.0061086523,0.0012217305,0.002443461,0.0,-0.099599995,0.53499997,9.7915,0.017199999,-0.0158,-0.010199999,0.005843,0.027169,0.921206,2017-06-18 19:59:59,66.04536220453883
-0.076614454,0.50757074,9.241618,-0.0036651916,-0.002443461,0.002443461,0.0,-0.1007,0.53569996,9.7914,0.0069,0.023,0.0093,0.005874,0.027176,0.921206,2017-06-18 20:00:00,51.46544191826196
-0.11492168,0.50757074,9.232041,-0.0012217305,-0.0061086523,0.0036651916,0.0,-0.1007,0.5387,9.7913,-0.013499999,-0.0101,-0.047199998,0.005988,0.027292,0.921207,2017-06-18 20:00:01,44.94482431311829
-0.095768064,0.48841715,9.241618,-0.002443461,-0.004886922,0.0036651916,0.0,-0.1008,0.5349,9.7915,-0.0117999995,-0.0274,4.0E-4,0.005867,0.027268,0.921205,2017-06-18 20:00:02,59.62469339611108
-0.095768064,0.5363012,9.308656,-0.0012217305,0.002443461,0.004886922,1.0,-0.12239999,0.5176,9.7922,-0.0411,0.030299999,0.0094,0.00441,0.026767,0.922457,2017-06-18 20:00:03,57.50121726956992
-0.12449849,0.50757074,9.241618,0.0012217305,0.0,0.007330383,0.0,-0.109,0.5266,9.7918,-0.0191,0.0019999999,-0.0197,0.005452,0.026843,0.922351,2017-06-18 20:00:04,63.291729930204205
-0.10534488,0.49799395,9.251195,-0.0012217305,0.004886922,0.0036651916,0.0,-0.0972,0.539,9.7913,-0.0061,-0.019199999,-0.0088,0.005982,0.027288,0.922901,2017-06-18 20:00:05,63.99953232109042
-0.11492168,0.50757074,9.241618,-0.0036651916,-0.0061086523,0.0036651916,0.0,-0.1026,0.5277,9.7919,-0.0018999999,0.0104,-0.0105,0.005557,0.02684,0.922922,2017-06-18 20:00:06,65.57594652572834
-0.10534488,0.5363012,9.251195,-0.002443461,0.0,0.002443461,1.0,-0.0954,0.53389996,9.7916,0.021599999,0.0045,-0.0104,0.005968,0.027014,0.922917,2017-06-18 20:00:07,63.25978657940877
2.27928,0.30645782,9.260772,-0.12950343,-1.8484782,0.2406809,1.0,2.3623,0.2527,9.5145,0.7276,0.0128999995,0.1408,0.082965,-0.020299999,0.907338,2017-06-18 20:00:08,59.844520809199324
4.673482,0.1340753,7.6231384,0.018325957,0.66950834,-0.018325957,1.0,5.3603997,0.13599999,8.2108,-0.403,-0.026899999,0.21079999,0.278323,-0.107359,0.88278997,2017-06-18 20:00:09,38.992703634358854
-0.047884032,0.50757074,9.289502,0.0,0.0,0.002443461,1.0,-0.26639998,0.502,9.7901,0.1827,0.0069,0.0312,-0.003065,0.028827,0.927495,2017-06-18 20:00:10,61.90309018825357
-0.047884032,0.47884035,9.260772,-0.0061086523,0.002443461,0.004886922,0.0,-0.0914,0.5215,9.7923,0.0515,-0.021399999,-0.0103,0.005735,0.026353,0.921975,2017-06-18 20:00:12,64.2766603432004
-0.06703765,0.47884035,9.279925,-0.0036651916,-0.002443461,0.004886922,1.0,-0.0469,0.5344,9.7919,-0.0145,-0.0339,0.0307,0.008265,0.026084,0.922863,2017-06-18 20:00:13,61.35770394944487
-0.076614454,0.48841715,9.251195,-0.0012217305,0.004886922,0.0036651916,1.0,-0.047,0.53,9.7922,-0.012999999,-0.0099,4.9999997E-4,0.008061,0.025877,0.923279,2017-06-18 20:00:14,66.12559541476227
-0.06703765,0.48841715,9.251195,-0.002443461,-0.002443461,0.0061086523,1.0,-0.047,0.52309996,9.7925,-0.0044,-0.0155,-0.038399998,0.008011,0.025562,0.923287,2017-06-18 20:00:15,60.81339144449602
-0.06703765,0.50757074,9.270349,-0.0036651916,0.0061086523,0.002443461,1.0,-0.0453,0.5211,9.7926,-0.0166,0.0036,0.0101,0.008164,0.025615,0.923287,2017-06-18 20:00:16,59.7928129353304
-0.047884032,0.51714754,9.289502,-0.0036651916,-0.002443461,0.007330383,1.0,-0.046,0.5288,9.7922,0.0145,9.0E-4,-0.0196,0.008133,0.025781,0.923282,2017-06-18 20:00:17,37.915972375971386
-0.06703765,0.51714754,9.232041,0.002443461,-0.0012217305,0.002443461,0.0,-0.0491,0.53389996,9.7919,-0.0221,-0.0253,-0.0301,0.008125,0.026112,0.923274,2017-06-18 20:00:18,45.352045098643
-0.047884032,0.49799395,9.222465,-0.008552114,-0.002443461,0.002443461,0.0,-0.055499997,0.529,9.7922,0.014599999,-0.0084999995,-0.0495,0.007623,0.025947,0.923278,2017-06-18 20:00:19,56.342186254586096
-0.06703765,0.51714754,9.251195,-0.0012217305,0.0,0.0036651916,1.0,-0.0514,0.52779996,9.7922,-0.0101,0.0103,-0.0198,0.007896,0.025874,0.923282,2017-06-18 20:00:20,45.398336291373354
-0.06703765,0.49799395,9.222465,-0.0061086523,-0.009773844,0.004886922,1.0,-0.0535,0.52739996,9.7923,0.0106999995,-5.9999997E-4,-0.02,0.00784,0.025906,0.923282,2017-06-18 20:00:21,54.04017595515441
-0.06703765,0.49799395,9.260772,-0.0036651916,-0.0036651916,0.0061086523,1.0,-0.047599997,0.5306,9.7921,-0.0039999997,0.0093,0.0103,0.008127,0.025931,0.923283,2017-06-18 20:00:22,53.31669890161681
-0.047884032,0.51714754,9.241618,-0.007330383,0.0036651916,0.0036651916,1.0,-0.050499998,0.533,9.792,0.0093,0.0058999998,-0.031,0.007989,0.026085,0.923279,2017-06-18 20:00:23,42.42095577168685
-0.05746084,0.48841715,9.270349,0.0,-0.007330383,0.0036651916,1.0,-0.0587,0.5306,9.7921,0.0069,0.0103,0.0299,0.007576,0.026165,0.923275,2017-06-18 20:00:24,61.537656510389816
-0.047884032,0.48841715,9.251195,-0.004886922,-0.002443461,0.0036651916,0.0,-0.051099997,0.5287,9.7922,-0.0299,-0.0105,-0.009699999,0.007924,0.025908,0.923283,2017-06-18 20:00:25,52.844414641697746
-0.06703765,0.48841715,9.260772,-0.0036651916,-0.004886922,0.004886922,0.0,-0.057499997,0.5223,9.7925,-0.0046,-0.016999999,-0.0289,0.007568,0.025836,0.923286,2017-06-18 20:00:26,37.95580468017301
-0.06703765,0.50757074,9.241618,-0.008552114,-0.007330383,0.0012217305,0.0,-0.0548,0.52669996,9.7923,-0.0069999998,0.0021,-0.0188,0.007715,0.025888,0.923287,2017-06-18 20:00:27,61.87944617262549
-0.05746084,0.5363012,9.241618,0.0012217305,0.0,0.002443461,0.0,-0.056599997,0.52059996,9.7926,0.0030999999,0.0156,-0.0405,0.007603,0.025654,0.923292,2017-06-18 20:00:28,60.830442815876154
-0.06703765,0.51714754,9.289502,-0.0012217305,0.0,0.0036651916,0.0,-0.0524,0.5329,9.792,-0.009,0.024,-0.0095,0.007946,0.026134,0.923281,2017-06-18 20:00:29,60.96633851278131
-0.06703765,0.51714754,9.270349,-0.002443461,-0.0012217305,0.007330383,0.0,-0.0497,0.52309996,9.7925,-0.011899999,0.013599999,2.9999999E-4,0.00792,0.025676,0.923292,2017-06-18 20:00:30,36.53075116254203
-0.038307227,0.5363012,9.222465,-0.004886922,-0.0036651916,0.0036651916,1.0,-0.054899998,0.527,9.7923,-0.034399997,0.0069,0.0475,0.007547,0.025792,0.923289,2017-06-18 20:00:31,52.743338703336384
-0.076614454,0.50757074,9.203311,-0.0036651916,0.002443461,0.0012217305,0.0,-0.0673,0.5147,9.7929,0.0145,0.0139999995,0.0396,0.006993,0.025536,0.92173797,2017-06-18 20:00:32,62.27589833400707
-0.047884032,0.47884035,9.241618,-0.002443461,-0.0036651916,0.0061086523,0.0,-0.061199997,0.5243,9.792399,0.018199999,-0.0253,0.009099999,0.007469,0.025975,0.922497,2017-06-18 20:00:33,53.698725703361355
-0.06703765,0.49799395,9.251195,-0.002443461,-0.002443461,0.002443461,1.0,-0.0574,0.5308,9.7921,-0.0046,-0.0099,0.02,0.007724,0.026116,0.922482,2017-06-18 20:00:34,57.50101531756849
-0.047884032,0.50757074,9.251195,-0.0036651916,-0.0036651916,0.002443461,0.0,-0.052199997,0.5243,9.792399,-0.0084999995,0.014599999,-9.999999E-4,0.007786,0.025701,0.922495,2017-06-18 20:00:35,67.59388172157217
-0.05746084,0.49799395,9.3182335,-0.002443461,-0.0036651916,0.002443461,0.0,-0.054899998,0.52129996,9.7926,-0.0264,-0.0034999999,-0.049799997,0.007657,0.025616,0.922496,2017-06-18 20:00:36,64.03888416803592
-0.076614454,0.51714754,9.222465,0.0,-0.0012217305,0.002443461,0.0,-0.059899997,0.53099996,9.792,-0.0121,0.008599999,-0.0391,0.007605,0.026129,0.922483,2017-06-18 20:00:37,53.272670490304314
-0.06703765,0.5267244,9.212888,-0.0012217305,0.0012217305,0.0061086523,0.0,-0.0581,0.5261,9.7923,-0.0042999997,0.0028,-0.0201,0.007636,0.025947,0.922487,2017-06-18 20:00:38,62.52442657087031
-0.047884032,0.50757074,9.270349,-0.0036651916,-0.002443461,0.0036651916,1.0,-0.0521,0.5214,9.7926,0.0099,-0.011399999,0.0289,0.007789,0.025569,0.922497,2017-06-18 20:00:39,59.91429213875021
-0.08619126,0.51714754,9.308656,-0.002443461,0.002443461,0.004886922,1.0,-0.0602,0.5197,9.7926,-0.021599999,0.018299999,0.0491,0.007389,0.025657,0.922493,2017-06-18 20:00:40,54.279048928607864
-0.095768064,0.51714754,9.260772,-0.004886922,-0.0012217305,0.002443461,0.0,-0.064899996,0.52919996,9.7921,-0.026899999,0.0101,0.0103,0.007339,0.026185,0.922481,2017-06-18 20:00:41,59.545037976868585
-0.06703765,0.51714754,9.251195,0.0,0.0061086523,0.0061086523,0.0,-0.060799997,0.5272,9.7922,-0.0115,-0.0042999997,0.0191,0.007478,0.025951,0.922488,2017-06-18 20:00:42,61.23424476933025
-0.05746084,0.48841715,9.260772,0.0012217305,-0.0036651916,0.0061086523,0.0,-0.062099997,0.5248,9.7923,0.0195,-0.0053,2.9999999E-4,0.007385,0.025927,0.922488,2017-06-18 20:00:43,63.69233500265102
-0.038307227,0.50757074,9.279925,-0.002443461,-0.004886922,0.004886922,0.0,-0.0504,0.5209,9.7926,0.015999999,0.011299999,0.0591,0.007927,0.025391,0.922504,2017-06-18 20:00:44,65.62144750733574
-0.047884032,0.50757074,9.222465,0.0,0.002443461,0.0036651916,1.0,-0.051799998,0.5252,9.792399,0.0079,0.0047999998,0.0198,0.007945,0.02564,0.9225,2017-06-18 20:00:45,37.734861186520895
-0.05746084,0.48841715,9.251195,0.0,-0.0036651916,0.0061086523,1.0,-0.0603,0.527,9.7922,-0.0116,0.0023999999,-0.0186,0.007515,0.025994,0.922492,2017-06-18 20:00:46,60.94981201433441
-0.06703765,0.47884035,9.241618,0.0012217305,-0.007330383,0.004886922,0.0,-0.058799997,0.5306,9.7921,-0.0044,-0.0313,-0.0206,0.007721,0.026123,0.922489,2017-06-18 20:00:47,65.48425951542762
-0.05746084,0.49799395,9.232041,-0.0012217305,-0.0061086523,0.0061086523,0.0,-0.0581,0.5234,9.792399,0.0061,-0.0064999997,-0.0682,0.007548,0.025778,0.922498,2017-06-18 20:00:48,49.849798730608974
-0.047884032,0.51714754,9.270349,-0.004886922,0.002443461,0.0012217305,0.0,-0.0532,0.5245,9.792399,7.0E-4,0.0025,-0.0394,0.007831,0.025699,0.9225,2017-06-18 20:00:49,40.488275395525726
-0.06703765,0.5267244,9.299079,-0.0036651916,-0.0012217305,0.0012217305,0.0,-0.057499997,0.5239,9.792399,-0.0044,0.0139999995,-7.0E-4,0.007586,0.02579,0.922498,2017-06-18 20:00:50,50.36857153067672
-0.06703765,0.5363012,9.232041,0.002443461,-0.0036651916,0.0061086523,0.0,-0.0499,0.5256,9.792399,-0.0127,0.031999998,-0.01,0.008063,0.025781,0.92250097,2017-06-18 20:00:51,58.06887429997515
-0.05746084,0.51714754,9.241618,-0.002443461,-0.002443461,0.0061086523,0.0,-0.057099998,0.5308,9.7921,0.0053999997,0.0095,0.0099,0.007697,0.026074,0.922491,2017-06-18 20:00:52,57.94365507179325
-0.05746084,0.47884035,9.260772,0.0,-0.002443461,0.002443461,0.0,-0.0523,0.5334,9.7919,-0.0093,-0.0139999995,0.0101,0.008016,0.026139,0.922488,2017-06-18 20:00:53,54.93856270816498
-0.02873042,0.5267244,9.251195,-0.002443461,0.0012217305,0.0012217305,0.0,-0.051599998,0.5268,9.7923,0.027199998,0.022,0.009699999,0.008025,0.025808,0.922498,2017-06-18 20:00:54,61.358141997576816
-0.05746084,0.49799395,9.232041,-0.0012217305,0.0036651916,0.004886922,0.0,-0.0578,0.5229,9.7925,0.0056999996,-0.0046,-0.040599998,0.007549,0.025752,0.922499,2017-06-18 20:00:55,60.29364670337099
-0.076614454,0.47884035,9.279925,-0.002443461,-0.008552114,0.0036651916,1.0,-0.060799997,0.5214,9.7925,-0.0023,0.0049,-0.020299999,0.007478,0.025826,0.922495,2017-06-18 20:00:56,66.90114869477453
-0.076614454,0.49799395,9.251195,-0.0012217305,0.0,0.004886922,0.0,-0.054899998,0.5241,9.792399,-0.0262,-0.0176,-0.0885,0.007711,0.025752,0.9225,2017-06-18 20:00:57,59.687562972946665
-0.05746084,0.49799395,9.279925,0.0012217305,-0.0036651916,0.0036651916,0.0,-0.0543,0.5261,9.7923,0.0026,-0.0077,0.0014,0.007763,0.025822,0.922497,2017-06-18 20:00:58,63.66691158059516
-0.047884032,0.49799395,9.251195,0.0012217305,-0.0012217305,0.002443461,0.0,-0.061199997,0.5275,9.7922,0.0069999998,-0.019299999,-0.0686,0.007577,0.025997,0.922493,2017-06-18 20:00:59,63.77225097343115
-0.047884032,0.48841715,9.251195,-0.0012217305,-0.0036651916,0.0036651916,0.0,-0.0543,0.5186,9.7927,0.0022,-0.0185,0.0185,0.007632,0.025478,0.922505,2017-06-18 20:01:00,58.42868742326147
-0.076614454,0.49799395,9.279925,-0.004886922,-0.0036651916,0.004886922,0.0,-0.0537,0.52239996,9.7925,-0.0184,-0.0039999997,-2.0E-4,0.007761,0.025603,0.922503,2017-06-18 20:01:01,59.355691567227176
-0.06703765,0.50757074,9.251195,-0.0036651916,-0.002443461,0.0012217305,0.0,-0.057699997,0.5202,9.7926,-0.0042999997,0.0093,0.009099999,0.007503,0.025621,0.922502,2017-06-18 20:01:02,67.25085770184413
-0.08619126,0.48841715,9.251195,0.0,0.0012217305,0.0036651916,0.0,-0.060099997,0.5233,9.792399,-0.0137,-0.0061999997,-7.0E-4,0.007577,0.025836,0.922495,2017-06-18 20:01:03,55.65559183958612
-0.06703765,0.51714754,9.279925,-0.002443461,-0.007330383,0.0061086523,0.0,-0.0526,0.5268,9.7923,-0.009099999,-0.0066,0.0297,0.007872,0.025832,0.922493,2017-06-18 20:01:04,56.33381717426631
-0.06703765,0.50757074,9.260772,-0.0061086523,-0.004886922,0.0061086523,0.0,-0.055499997,0.5268,9.7923,-0.0079,1.0E-4,0.0,0.007858,0.025951,0.922488,2017-06-18 20:01:05,57.80420586593297
-0.05746084,0.48841715,9.279925,-0.0012217305,0.002443461,0.0036651916,0.0,-0.0568,0.5268,9.7923,0.0049,0.0018999999,0.02,0.007691,0.026011,0.922486,2017-06-18 20:01:06,63.54336083518574
-0.05746084,0.48841715,9.251195,-0.002443461,0.0036651916,0.007330383,0.0,-0.053999998,0.5305,9.7921,0.0311,-0.017199999,0.069699995,0.007877,0.026034,0.92249,2017-06-18 20:01:07,64.40796977627771
-0.06703765,0.47884035,9.289502,0.0,-0.002443461,0.004886922,0.0,-0.0535,0.5219,9.7926,-0.007999999,-0.0224,0.0378,0.007729,0.025631,0.9225,2017-06-18 20:01:08,60.21114336733828
-0.05746084,0.47884035,9.251195,0.0036651916,0.0036651916,0.0061086523,0.0,-0.057,0.5125,9.793,0.0047999998,-0.0133,-0.0018,0.007301,0.02527,0.92376,2017-06-18 20:01:09,58.78800051907848
-0.076614454,0.50757074,9.260772,0.0,0.004886922,0.004886922,0.0,-0.059899997,0.5283,9.7922,-0.0036,-0.0072999997,-0.0207,0.007551,0.025906,0.922986,2017-06-18 20:01:10,61.486696796751616
-0.06703765,0.49799395,9.251195,0.0012217305,-0.010995574,0.0036651916,0.0,-0.102199994,0.57589996,9.7891,0.047599997,-0.0345,0.0513,0.006555,0.029107,0.921744,2017-06-18 20:01:11,66.05994651079543
-0.06703765,0.47884035,9.260772,-0.0036651916,-0.004886922,0.0036651916,0.0,-0.0714,0.4958,9.793799,0.010799999,0.0039999997,-0.0021,0.006252,0.024672,0.92218,2017-06-18 20:01:12,62.23409528969605
-0.05746084,0.48841715,9.279925,-0.004886922,0.0,0.002443461,0.0,-0.0641,0.5044,9.7934,0.0117999995,0.040799998,-0.011299999,0.007011,0.025081,0.921129,2017-06-18 20:01:13,61.53984737880769
0.20111294,0.7086837,9.375694,0.0,0.0012217305,0.002443461,0.0,-0.0583,0.5219,9.7925,-0.0037,0.0066,-0.04,0.007553,0.025701,0.921858,2017-06-18 20:01:14,56.23560441060359
-0.05746084,0.49799395,9.270349,-0.0061086523,0.002443461,0.0036651916,0.0,-0.075399995,0.5057,9.7933,0.019399999,0.012399999,0.0082,0.006586,0.025198,0.921526,2017-06-18 20:01:15,50.36786039219163
-0.08619126,0.49799395,9.251195,-0.002443461,0.002443461,0.0012217305,0.0,-0.0679,0.5311,9.792,-0.0142,-0.0117999995,-0.0101,0.007353,0.026303,0.920789,2017-06-18 20:01:16,65.01418382352273
-0.2873042,0.45010993,9.212888,-0.002443461,0.0,0.0,0.0,-0.0709,0.4754,9.7948,-0.0486,0.15359999,0.1635,0.005369,0.023756,0.921649,2017-06-18 20:01:17,47.99976822178255
-0.06703765,0.51714754,9.299079,0.0,0.0036651916,0.0036651916,0.0,-0.0541,0.5262,9.7923,-0.0174,-0.0072,0.0287,0.007845,0.025816,0.921658,2017-06-18 20:01:18,49.446928130452044
0.038307227,0.17238252,9.442732,-0.002443461,-0.002443461,0.004886922,0.0,-0.0657,0.6134,9.7872,0.0835,-0.4103,0.2197,0.009534,0.029922,0.919803,2017-06-18 20:01:19,49.84470821852923
-0.08619126,0.5363012,9.251195,0.0012217305,-0.002443461,0.0061086523,0.0,-0.0495,0.5177,9.7928,-0.0019999999,-0.0044,0.0477,0.007819,0.025213,0.921767,2017-06-18 20:01:20,55.94719586396459
-0.047884032,0.50757074,9.260772,-0.0012217305,-0.0012217305,0.002443461,0.0,-0.067499995,0.5452,9.7912,0.0047,-0.0033,0.0591,0.007515,0.026998,0.922711,2017-06-18 20:01:21,39.55732010144545
-0.076614454,0.48841715,9.241618,-0.004886922,0.0,0.002443461,0.0,-0.0848,0.5495,9.7908,0.0095,-0.0429,0.0206,0.007088,0.027788,0.921445,2017-06-18 20:01:22,57.9419951621179
-0.2873042,0.58418524,9.059659,-0.0012217305,-0.0036651916,0.0061086523,0.0,-0.087799996,0.6069,9.787399,-0.2016,0.0071,-0.1628,0.007972,0.030252,0.920034,2017-06-18 20:01:23,66.98349251864086
-0.05746084,0.49799395,9.251195,-0.0012217305,-0.0061086523,0.004886922,0.0,-0.0654,0.4903,9.7941,0.0089,0.0338,0.0365,0.0062059998,0.024215,0.921443,2017-06-18 20:01:24,60.46283566778034
-0.06703765,0.5267244,9.270349,-0.0012217305,-0.0036651916,0.0036651916,0.0,-0.0645,0.50729996,9.7933,-0.0275,0.0224,0.018,0.006998,0.02513,0.921478,2017-06-18 20:01:25,66.29042227902113
-0.076614454,0.51714754,9.251195,-0.002443461,-0.002443461,0.0061086523,0.0,-0.0592,0.548,9.7911,-0.012999999,-0.0066,0.0298,0.008068,0.02697,0.921531,2017-06-18 20:01:26,66.11354060499454
-0.4309563,0.6703765,9.576807,-0.0036651916,0.0,0.0012217305,0.0,-0.0892,0.5312,9.7918,-0.0757,-0.030599998,0.0579,0.007185,0.025859,0.92242,2017-06-18 20:01:27,40.347885180772074
-0.047884032,0.545878,9.184157,-0.004886922,-0.0012217305,0.002443461,0.0,-0.0625,0.5415,9.7914,-0.117599994,-0.048899997,0.1864,0.007779,0.026696,0.921283,2017-06-18 20:01:28,57.857961941212004
-0.15322891,0.62249243,9.126697,-0.004886922,0.0,0.0012217305,0.0,-0.0682,0.5927,9.7884,-0.074499995,0.0598,-0.095,0.008084,0.029396,0.92151,2017-06-18 20:01:29,56.56159662796089
-0.25857377,0.79487497,9.385271,-0.004886922,-0.002443461,0.0036651916,0.0,-0.088,0.48889998,9.794,-0.1721,0.334,0.1643,0.005468,0.024741,0.922446,2017-06-18 20:01:31,61.7811297538697
-0.047884032,0.51714754,9.260772,-0.002443461,0.0061086523,0.0036651916,0.0,-0.0611,0.5614,9.790299,-0.0208,-0.0382,0.0403,0.008122,0.02764,0.922876,2017-06-18 20:01:32,65.7814064152642
-0.076614454,0.51714754,9.241618,-0.0012217305,0.0036651916,0.0012217305,0.0,-0.078899994,0.54179996,9.7913,0.0056,-1.0E-4,0.0198,0.007015,0.027032,0.921257,2017-06-18 20:01:33,48.68325478110617
-0.08619126,0.5363012,9.241618,-0.004886922,0.0036651916,0.0036651916,0.0,-0.0563,0.51879996,9.7927,-0.0254,0.040999997,0.0185,0.007589,0.025513,0.921797,2017-06-18 20:01:34,63.26975596175721
-0.076614454,0.45968673,9.232041,0.0036651916,0.0012217305,0.004886922,0.0,-0.051799998,0.5311,9.7921,-0.008599999,0.0025,0.0189,0.007878,0.025925,0.922442,2017-06-18 20:01:35,62.916347951936054
-0.076614454,0.48841715,9.251195,0.0012217305,0.0036651916,0.0036651916,0.0,-0.0765,0.4657,9.795199,0.0132,0.051799998,0.0357,0.005805,0.023362,0.918239,2017-06-18 20:01:36,61.492606477792336
-0.047884032,0.49799395,9.279925,0.0012217305,0.007330383,0.0036651916,0.0,-0.072299995,0.5311,9.7919,0.025899999,-0.007999999,0.0583,0.007532,0.02617,0.916668,2017-06-18 20:01:37,39.73149798777036
-0.06703765,0.51714754,9.270349,-0.0036651916,-0.002443461,0.0036651916,0.0,-0.0591,0.5434,9.7914,-0.0028,-0.0042999997,0.0011999999,0.008223,0.026641,0.917628,2017-06-18 20:01:38,51.89383911502007
-0.05746084,0.49799395,9.260772,-0.004886922,-0.0012217305,0.0061086523,0.0,-0.0565,0.5284,9.7922,0.014599999,0.0098,0.0299,0.008019,0.025954999,0.918013,2017-06-18 20:01:39,62.46363402451933
-0.047884032,0.50757074,9.270349,0.0,-0.002443461,0.002443461,0.0,-0.059499998,0.53209996,9.792,0.016999999,-0.0221,-0.0407,0.0079499995,0.026131,0.918015,2017-06-18 20:01:40,53.588423658910784
-0.047884032,0.51714754,9.251195,0.0012217305,-0.004886922,0.0061086523,0.0,-0.050499998,0.53069997,9.7921,0.0112,0.0078,0.0,0.008229,0.025982,0.91802,2017-06-18 20:01:41,61.61833042607233
-0.076614454,0.5267244,9.270349,-0.0061086523,-0.010995574,0.0036651916,0.0,-0.06,0.5298,9.7921,-0.0025,0.0094,0.0685,0.007947,0.026164,0.918015,2017-06-18 20:01:42,48.18948727428765
-0.06703765,0.51714754,9.241618,-0.002443461,-0.002443461,0.0012217305,0.0,-0.0673,0.5284,9.7921,0.0047999998,4.9999997E-4,-0.0196,0.007512,0.026112,0.918015,2017-06-18 20:01:43,58.95621521008883
-0.047884032,0.49799395,9.251195,-0.002443461,0.0012217305,0.004886922,0.0,-0.0629,0.5336,9.7919,0.0186,-0.0156,-0.0289,0.0079189995,0.026247,0.918014,2017-06-18 20:01:44,61.13940487624171
-0.06703765,0.50757074,9.241618,-0.0012217305,-0.0036651916,0.004886922,0.0,-0.060599998,0.5344,9.7918,-0.0015,-0.0045,-0.0089,0.007944,0.026258,0.918015,2017-06-18 20:01:45,62.952245931444644
-0.08619126,0.50757074,9.270349,-0.004886922,-0.0012217305,0.0012217305,0.0,-0.063599996,0.52919996,9.7921,0.0022,-0.0178,0.0288,0.00763,0.02605,0.918019,2017-06-18 20:01:46,57.052837373551725
-0.06703765,0.51714754,9.222465,-0.0012217305,0.0012217305,0.004886922,0.0,-0.07,0.53139997,9.7919,-0.0123,-0.0016999999,0.0301,0.007447,0.026309,0.918013,2017-06-18 20:01:47,43.402899650009125
-0.06703765,0.5363012,9.251195,-0.0012217305,-0.0012217305,0.002443461,0.0,-0.061899997,0.522,9.7925,-4.0E-4,0.0367,0.0084999995,0.007644,0.025712,0.918032,2017-06-18 20:01:48,61.407629188530386
