ACC_X,ACC_Y,ACC_Z,LIGH_1,GRAV_X,GRAV_Y,GRAV_Z,LINACC_X,LINACC_Y,LINACC_Z,TIME,VOICE
-2.2984335,8.274361,-3.4380736,5.0,-5.09401,8.390134,-0.32688835,2.3018386,-0.25878662,-2.6832085,2017-06-12 23:47:34,42.00042666797827
4.644751,6.9144545,-5.1523223,8.0,-1.0215261,8.403754,-4.9578066,5.339176,-1.3892754,-0.068101734,2017-06-12 23:47:35,57.399833576538285
5.161899,6.933608,-5.142745,8.0,3.8273177,7.3958488,-5.1893525,1.2530719,-0.50395286,0.24516624,2017-06-12 23:47:36,69.17004800513163
5.583278,6.5026517,-4.462792,8.0,5.09401,6.7284517,-4.985047,0.5448139,-0.068101734,0.42223078,2017-06-12 23:47:37,69.99253317241865
6.0046577,6.157887,-4.596867,8.0,5.5843425,6.4424243,-4.835223,0.29964766,-0.095342435,0.13620347,2017-06-12 23:47:38,74.98685280676116
5.142745,5.841852,-6.5122285,8.0,5.7750273,6.197258,-4.944186,-0.10896278,-0.42223078,-0.83084124,2017-06-12 23:47:39,79.26768008430496
5.9759274,6.0142345,-4.7788267,5.0,5.3119354,6.1563973,-5.47538,0.74911916,-0.25878662,0.46309182,2017-06-12 23:47:40,67.21886448398479
6.0525417,5.90889,-4.7309427,5.0,5.5571017,6.2517395,-5.1076303,0.74911916,-0.55843425,0.14982383,2017-06-12 23:47:41,71.36197144009358
6.205771,5.6215854,-5.046977,5.0,5.9929533,5.952092,-4.985047,0.16344418,-0.25878662,-0.027240695,2017-06-12 23:47:42,75.93053066525412
6.081272,5.5737014,-5.3342814,5.0,6.1836376,5.7069254,-5.025908,-0.10896278,-0.13620347,-0.25878662,2017-06-12 23:47:43,63.912451746172955
5.995081,5.6215854,-5.133168,5.0,6.1836376,5.570722,-5.175732,-0.040861044,-0.05448139,-0.32688835,2017-06-12 23:47:44,44.16504404996524
5.9184666,5.6886234,-5.056554,5.0,6.0474343,5.5843425,-5.325556,-0.16344418,0.068101734,-0.05448139,2017-06-12 23:47:45,73.00995354072383
5.803545,5.48751,-5.803545,5.0,5.802268,5.638824,-5.529861,0.095342435,-0.14982383,-0.23154591,2017-06-12 23:47:47,76.89585030544559
6.0525417,5.1810527,-5.6982,5.0,5.802268,5.570722,-5.5843425,0.2043052,-0.3405087,-0.05448139,2017-06-12 23:47:48,69.22459924385404
4.7022123,6.5696893,-5.755661,5.0,5.856749,5.47538,-5.652444,-1.4028958,1.2666924,-0.13620347,2017-06-12 23:47:49,66.04647408318604
4.6926355,6.799533,-5.305551,5.0,4.862464,6.5105257,-5.4890003,-0.24516624,0.24516624,0.0,2017-06-12 23:47:50,68.83930002351173
4.8937483,6.646304,-5.401319,5.0,4.7126403,6.7148314,-5.3527966,0.2043052,-0.08172209,-0.013620348,2017-06-12 23:47:51,64.98661086986696
4.8937483,6.6367273,-5.4683566,5.0,4.8488436,6.64673,-5.339176,0.027240695,-0.027240695,-0.16344418,2017-06-12 23:47:52,73.7377153406529
4.999093,6.493075,-5.3247046,5.0,4.8488436,6.6058683,-5.3800373,0.19068487,-0.16344418,-0.013620348,2017-06-12 23:47:53,78.0833623232183
5.0374002,6.349423,-5.497087,5.0,4.903325,6.524146,-5.434519,0.040861044,-0.05448139,-0.068101734,2017-06-12 23:47:54,72.16118867560793
4.999093,6.397307,-5.544971,5.0,4.944186,6.469665,-5.4617596,0.040861044,-0.05448139,-0.05448139,2017-06-12 23:47:55,73.6804044982763
5.171476,6.2345014,-5.4683566,5.0,4.9986672,6.401563,-5.47538,0.16344418,-0.14982383,0.095342435,2017-06-12 23:47:56,55.51989309701721
5.3247046,6.14831,-5.497087,5.0,5.1212506,6.3198414,-5.47538,0.013620348,-0.13620347,0.013620348,2017-06-12 23:47:57,71.26214185793779
5.21936,6.167464,-5.506664,5.0,5.2165933,6.238119,-5.47538,-0.027240695,-0.068101734,0.013620348,2017-06-12 23:47:58,73.46610199828773
5.363012,6.1004257,-5.363012,5.0,5.2710743,6.1836376,-5.47538,0.08172209,-0.095342435,-0.013620348,2017-06-12 23:47:59,77.69945297028782
5.410896,6.301539,-5.1235914,5.0,5.3119354,6.1836376,-5.434519,-0.05448139,0.068101734,0.14982383,2017-06-12 23:48:00,74.6815738082945
5.315128,6.2249246,-5.305551,5.0,5.325556,6.2926006,-5.298315,0.0,-0.095342435,-0.040861044,2017-06-12 23:48:01,69.62437175637893
5.391742,6.129156,-5.3821654,5.0,5.407278,6.26536,-5.257454,0.040861044,-0.14982383,0.0,2017-06-12 23:48:02,68.00889945216957
5.439626,6.090849,-5.4300494,5.0,5.407278,6.2244987,-5.298315,0.013620348,-0.14982383,-0.12258312,2017-06-12 23:48:03,72.28374081062543
5.497087,6.0621185,-5.410896,5.0,5.47538,6.1291566,-5.339176,0.040861044,-0.08172209,-0.08172209,2017-06-12 23:48:04,70.44538386929041
5.363012,6.0238113,-5.6886234,5.0,5.50262,6.101916,-5.339176,-0.2043052,0.27240694,0.5448139,2017-06-12 23:48:06,73.16476858126342
6.0716953,6.0716953,-4.6926355,5.0,5.6660643,6.101916,-5.175732,0.31326798,-0.040861044,0.44947144,2017-06-12 23:48:07,78.39367550350066
7.479486,5.2289367,-3.4380736,5.0,6.469665,5.802268,-4.535576,0.91256326,-0.6401563,0.91256326,2017-06-12 23:48:08,72.21832104445637
5.4204726,6.6175733,-4.4723687,5.0,7.504812,5.1893525,-3.5957716,-2.070293,1.4028958,-1.1713499,2017-06-12 23:48:09,77.8288898499565
7.4603324,5.6215854,-3.5051112,5.0,7.096201,5.7750273,-3.5140495,0.38136974,-0.19068487,0.08172209,2017-06-12 23:48:10,74.39379938847989
7.785944,5.305551,-2.1260512,8.0,7.3277473,5.7750273,-3.0237172,0.43585113,-0.24516624,1.0623871,2017-06-12 23:48:11,72.89064830762644
6.3685765,6.6750345,-1.8962077,8.0,7.886181,5.4208984,-2.1383946,-0.58567494,0.6810174,-0.31326798,2017-06-12 23:48:12,75.06756880438813
6.789956,6.205771,-3.466804,5.0,7.477571,5.761407,-2.628727,-0.51757324,0.29964766,-0.7218784,2017-06-12 23:48:13,69.67375885186428
6.8186865,5.851429,-3.8594532,5.0,6.932757,6.101916,-3.2825036,-0.05448139,-0.21792556,-0.47671217,2017-06-12 23:48:14,60.674327893748696
7.0581064,5.6215854,-3.6870706,5.0,6.851035,5.938472,-3.7319753,0.23154591,-0.32688835,-0.068101734,2017-06-12 23:48:15,68.38101505611235
7.019799,5.535394,-3.9073372,5.0,6.9872384,5.720546,-3.800077,0.05448139,-0.14982383,-0.08172209,2017-06-12 23:48:16,74.90155338837722
6.8186865,5.583278,-4.223372,5.0,7.028099,5.5843425,-3.9362803,-0.17706451,-0.013620348,-0.27240694,2017-06-12 23:48:17,72.80567203195753
7.1634517,5.315128,-4.0701427,5.0,6.932757,5.570722,-4.1269655,0.17706451,-0.23154591,0.040861044,2017-06-12 23:48:18,77.41938885942805
7.1730285,5.2863975,-4.146757,5.0,7.000859,5.4617596,-4.154206,-0.027240695,-0.10896278,0.0,2017-06-12 23:48:19,71.72887265153416
7.2592196,5.209783,-4.0222588,5.0,7.1234417,5.3527966,-4.0861044,0.14982383,-0.16344418,0.027240695,2017-06-12 23:48:20,67.14362829162073
6.6175733,5.755661,-4.1276035,5.0,7.137062,5.325556,-4.099725,-0.62653595,0.46309182,-0.013620348,2017-06-12 23:48:21,63.04533289995209
6.655881,5.6982,-4.280833,5.0,6.782933,5.597963,-4.33127,-0.05448139,-0.027240695,-0.13620347,2017-06-12 23:48:22,43.55703813447633
6.6079965,5.554548,-4.510676,5.0,6.64673,5.638824,-4.4810944,0.0,-0.10896278,-0.08172209,2017-06-12 23:48:23,73.41074607267073
6.6846113,5.48751,-4.55856,5.0,6.6739707,5.5843425,-4.5219555,0.040861044,-0.095342435,0.027240695,2017-06-12 23:48:24,78.52851786790102
6.6079965,5.497087,-4.6160207,5.0,6.6739707,5.5434813,-4.562816,-0.013620348,-0.08172209,-0.013620348,2017-06-12 23:48:26,76.49047545190761
6.6271505,5.4204726,-4.6160207,5.0,6.701211,5.4890003,-4.590057,0.05448139,-0.08172209,0.0,2017-06-12 23:48:27,78.92797125884272
6.9240313,5.161899,-4.55856,5.0,6.7284517,5.4208984,-4.6445384,0.14982383,-0.24516624,0.040861044,2017-06-12 23:48:28,74.1865688002578
6.933608,5.1140146,-4.5777135,5.0,6.8374147,5.2846947,-4.630918,0.12258312,-0.10896278,0.21792556,2017-06-12 23:48:29,78.26433227786305
7.067683,5.0374002,-4.501099,5.0,6.9599977,5.1621118,-4.590057,0.08172209,-0.12258312,-0.027240695,2017-06-12 23:48:30,73.88984701818569
6.9623384,4.9895163,-4.7405195,5.0,6.9872384,5.1212506,-4.5764365,-0.05448139,-0.095342435,-0.040861044,2017-06-12 23:48:31,45.1020592040304
6.885724,4.960786,-4.865018,5.0,7.0144787,5.0395284,-4.6445384,-0.095342435,-0.095342435,-0.14982383,2017-06-12 23:48:32,73.37606924294245
6.933608,4.807557,-5.0374002,5.0,6.9872384,4.930566,-4.7943625,-0.08172209,-0.10896278,-0.2043052,2017-06-12 23:48:33,78.86346535528934
6.6271505,4.7884035,-5.45878,5.0,6.905516,4.835223,-5.0122876,-0.27240694,0.0,-0.36774936,2017-06-12 23:48:34,76.85699923237028
6.751649,4.7884035,-5.3342814,5.0,6.7284517,4.821603,-5.257454,0.013620348,-0.040861044,-0.08172209,2017-06-12 23:48:35,72.26547597722602
6.933608,4.76925,-5.0661306,5.0,6.742072,4.807983,-5.257454,0.14982383,-0.095342435,0.040861044,2017-06-12 23:48:36,75.83109721536452
6.847417,4.7884035,-5.0374002,5.0,6.810174,4.780742,-5.175732,0.068101734,-0.05448139,-0.10896278,2017-06-12 23:48:37,75.52852226176013
6.847417,4.7979803,-5.171476,5.0,6.8237944,4.767122,-5.1621118,-0.027240695,0.040861044,-0.05448139,2017-06-12 23:48:38,76.75185084087485
6.885724,4.7500963,-5.1810527,5.0,6.8237944,4.767122,-5.175732,0.05448139,-0.05448139,-0.08172209,2017-06-12 23:48:39,74.38172114843019
6.895301,4.759673,-5.142745,5.0,6.8237944,4.780742,-5.1621118,0.027240695,-0.040861044,-0.13620347,2017-06-12 23:48:40,70.0551457569795
6.8569937,4.7979803,-5.1140146,5.0,6.851035,4.7535014,-5.134871,0.08172209,-0.040861044,-0.040861044,2017-06-12 23:48:41,70.54446772184035
6.933608,4.817134,-5.0374002,5.0,6.864655,4.767122,-5.1212506,-0.013620348,0.05448139,0.013620348,2017-06-12 23:48:42,45.84397045671079
6.9048777,4.8267107,-5.0757074,5.0,6.851035,4.807983,-5.1076303,0.0,0.040861044,-0.040861044,2017-06-12 23:48:43,65.84878867174386
6.8282633,4.9224787,-5.0374002,5.0,6.8374147,4.835223,-5.09401,-0.05448139,0.08172209,0.013620348,2017-06-12 23:48:45,74.10283701256007
6.7229185,4.9224787,-5.094861,5.0,6.851035,4.862464,-5.0531487,-0.095342435,0.068101734,-0.08172209,2017-06-12 23:48:46,68.890252487027
6.8091097,4.9224787,-5.0278234,5.0,6.8237944,4.8897047,-5.0531487,-0.095342435,-0.05448139,-0.51757324,2017-06-12 23:48:47,68.47317267083983
6.4739213,4.8937483,-5.506664,5.0,6.6603503,4.9578066,-5.2165933,-0.2043052,-0.013620348,-0.17706451,2017-06-12 23:48:48,46.51051355899674
6.694188,4.855441,-5.133168,5.0,6.6194887,4.903325,-5.3119354,0.19068487,-0.095342435,0.13620347,2017-06-12 23:48:49,73.61150954618785
6.83784,4.7979803,-5.1906295,5.0,6.7284517,4.821603,-5.257454,0.13620347,0.0,0.2043052,2017-06-12 23:48:50,78.28406243156886
6.8282633,4.7788267,-5.21936,5.0,6.7965536,4.7943625,-5.1893525,0.013620348,0.013620348,0.05448139,2017-06-12 23:48:51,44.58915802939937
6.8665705,4.711789,-5.257667,5.0,6.8237944,4.780742,-5.175732,-0.068101734,-0.040861044,-0.12258312,2017-06-12 23:48:52,61.903943695217514
6.847417,4.9799395,-4.8841715,5.0,6.810174,4.7535014,-5.202973,0.068101734,0.29964766,0.55843425,2017-06-12 23:48:53,79.61925426197384
6.8186865,4.7884035,-5.2289367,5.0,6.782933,4.8897047,-5.1076303,-0.05448139,-0.095342435,-0.21792556,2017-06-12 23:48:54,78.964465913668
6.7612257,4.5872903,-5.592855,5.0,6.7556925,4.835223,-5.1893525,-0.095342435,-0.13620347,-0.17706451,2017-06-12 23:48:55,75.99758713332466
6.789956,4.5872903,-5.544971,5.0,6.701211,4.671779,-5.4208984,0.05448139,-0.05448139,0.0,2017-06-12 23:48:56,77.53030558597611
6.789956,4.5681367,-5.4779334,5.0,6.701211,4.6172976,-5.4617596,0.10896278,-0.027240695,0.10896278,2017-06-12 23:48:57,76.72514482992034
6.83784,4.548983,-5.353435,5.0,6.742072,4.590057,-5.434519,0.16344418,-0.05448139,0.2043052,2017-06-12 23:48:58,61.77933972930631
6.885724,4.501099,-5.363012,5.0,6.8374147,4.5219555,-5.366417,0.05448139,0.0,0.12258312,2017-06-12 23:48:59,72.2654811890622
6.8665705,4.4915223,-5.3438582,5.0,6.891896,4.4810944,-5.339176,0.013620348,-0.027240695,-0.068101734,2017-06-12 23:49:00,44.88153386244029
6.9240313,4.501099,-5.2480903,5.0,6.905516,4.4538536,-5.339176,0.095342435,-0.05448139,-0.013620348,2017-06-12 23:49:01,70.14928829756099
6.9623384,4.4723687,-5.2959743,5.0,6.891896,4.4538536,-5.3527966,0.027240695,0.0,-0.08172209,2017-06-12 23:49:02,76.96342065135244
6.9048777,4.4436383,-5.401319,5.0,6.905516,4.4538536,-5.339176,-0.027240695,0.013620348,-0.040861044,2017-06-12 23:49:04,70.88536048896066
6.9048777,4.453215,-5.439626,5.0,6.905516,4.440233,-5.339176,0.040861044,0.0,0.040861044,2017-06-12 23:49:05,76.68586000360251
6.9623384,4.4436383,-5.209783,5.0,6.932757,4.426613,-5.325556,0.10896278,-0.040861044,0.08172209,2017-06-12 23:49:06,44.739394588858666
6.943185,4.4340615,-5.2959743,5.0,6.932757,4.4129925,-5.339176,0.027240695,-0.027240695,0.013620348,2017-06-12 23:49:07,67.80139945089925
7.019799,4.3766007,-5.2959743,5.0,6.9599977,4.385752,-5.325556,0.013620348,0.0,0.013620348,2017-06-12 23:49:08,68.96459990023656
7.0581064,4.309563,-5.3342814,5.0,6.973618,4.372132,-5.325556,0.040861044,-0.040861044,-0.05448139,2017-06-12 23:49:09,57.3837964916525
6.991069,4.3478703,-5.410896,5.0,6.9872384,4.358511,-5.3119354,0.0,0.013620348,0.027240695,2017-06-12 23:49:10,65.55524738824629
7.067683,4.3382936,-5.305551,5.0,7.0144787,4.3448906,-5.2846947,0.040861044,0.040861044,0.095342435,2017-06-12 23:49:11,64.85951252116834
7.07726,4.3766007,-5.171476,5.0,7.0144787,4.3448906,-5.2846947,0.095342435,-0.013620348,-0.013620348,2017-06-12 23:49:12,77.33313953364781
7.019799,4.3957543,-5.21936,5.0,7.028099,4.3448906,-5.2710743,0.013620348,-0.013620348,-0.040861044,2017-06-12 23:49:13,79.27595407811667
7.0964136,4.3382936,-5.2385135,5.0,7.028099,4.3448906,-5.257454,0.05448139,-0.013620348,-0.068101734,2017-06-12 23:49:14,77.43547196430934
7.019799,4.31914,-5.3725886,5.0,7.05534,4.3448906,-5.2438335,-0.040861044,0.013620348,-0.040861044,2017-06-12 23:49:15,60.076201832552314
7.0581064,4.2904096,-5.4204726,5.0,7.05534,4.33127,-5.257454,0.013620348,-0.013620348,0.013620348,2017-06-12 23:49:16,76.99038786493395
7.019799,4.3478703,-5.267244,5.0,7.05534,4.31765,-5.257454,0.040861044,0.013620348,0.08172209,2017-06-12 23:49:17,51.987765616294574
7.0485296,4.31914,-5.2768207,5.0,7.05534,4.3040295,-5.2710743,0.040861044,0.0,0.027240695,2017-06-12 23:49:18,62.95211846811131
7.0581064,4.3382936,-5.257667,5.0,7.05534,4.3040295,-5.2710743,0.027240695,0.027240695,0.068101734,2017-06-12 23:49:19,71.03071723656018
7.0485296,4.2425256,-5.391742,5.0,7.05534,4.3040295,-5.257454,0.013620348,-0.095342435,-0.095342435,2017-06-12 23:49:20,44.686813012785045
7.144298,4.2521024,-5.2289367,5.0,7.05534,4.276789,-5.2846947,0.068101734,-0.013620348,0.013620348,2017-06-12 23:49:21,73.53188367222339
7.1634517,4.2042184,-5.267244,5.0,7.05534,4.2495484,-5.3119354,0.12258312,-0.027240695,0.040861044,2017-06-12 23:49:23,78.60524526757668
7.1347213,4.223372,-5.2863975,5.0,7.05534,4.235928,-5.325556,0.05448139,-0.040861044,-0.013620348,2017-06-12 23:49:24,73.94718733369741
7.153875,4.213795,-5.2768207,5.0,7.0825806,4.2223077,-5.298315,0.040861044,0.0,-0.068101734,2017-06-12 23:49:25,72.65910602658793
7.144298,4.2425256,-5.1906295,5.0,7.0825806,4.2223077,-5.298315,0.095342435,-0.068101734,-0.040861044,2017-06-12 23:49:26,56.31172786330286
7.153875,4.223372,-5.2385135,5.0,7.0825806,4.2086873,-5.298315,0.027240695,-0.027240695,-0.12258312,2017-06-12 23:49:27,62.304427314402915
7.1347213,4.213795,-5.315128,5.0,7.096201,4.195067,-5.298315,0.013620348,0.027240695,-0.040861044,2017-06-12 23:49:28,77.7678988585254
7.086837,4.213795,-5.391742,5.0,7.096201,4.2223077,-5.2710743,-0.05448139,-0.027240695,-0.14982383,2017-06-12 23:49:29,73.68182995537674
7.1155677,4.1659107,-5.3821654,5.0,7.096201,4.2086873,-5.2846947,-0.040861044,0.040861044,-0.068101734,2017-06-12 23:49:30,75.70260154251271
7.1634517,4.156334,-5.4204726,5.0,7.06896,4.2086873,-5.325556,0.040861044,-0.013620348,0.0,2017-06-12 23:49:31,66.88290054916116
7.144298,4.156334,-5.305551,5.0,7.0825806,4.1814466,-5.325556,0.14982383,-0.08172209,0.0,2017-06-12 23:49:32,76.94697664079824
7.153875,4.098873,-5.449203,5.0,7.096201,4.154206,-5.325556,0.040861044,0.013620348,0.027240695,2017-06-12 23:49:33,73.5614692196575
7.153875,4.1276035,-5.401319,5.0,7.096201,4.140586,-5.339176,0.027240695,0.027240695,0.068101734,2017-06-12 23:49:34,76.38454442020598
7.1730285,4.1659107,-5.2768207,5.0,7.1234417,4.1269655,-5.325556,0.08172209,0.05448139,0.12258312,2017-06-12 23:49:35,70.00494000275658
7.201759,4.232949,-5.2385135,5.0,7.137062,4.154206,-5.2710743,0.027240695,0.068101734,0.05448139,2017-06-12 23:49:36,72.51659695368816
7.1634517,4.2425256,-5.142745,5.0,7.1506824,4.167826,-5.2438335,0.05448139,0.040861044,0.10896278,2017-06-12 23:49:37,78.06357177540309
7.249643,4.1946416,-5.171476,5.0,7.1643023,4.167826,-5.2302136,0.040861044,0.013620348,0.0,2017-06-12 23:49:38,72.4145341430923
7.2592196,4.6351743,-4.5872903,5.0,7.1779227,4.195067,-5.175732,-0.027240695,0.3949901,0.36774936,2017-06-12 23:49:39,75.7292155449675
7.28795,4.4915223,-4.8937483,5.0,7.137062,4.4947147,-4.9986672,0.13620347,0.027240695,0.12258312,2017-06-12 23:49:40,76.741486120618
7.0581064,4.050989,-6.042965,5.0,6.9872384,4.630918,-5.08039,0.10896278,-0.53119355,-0.24516624,2017-06-12 23:49:42,75.57506599543456
6.943185,4.0797195,-5.6790466,5.0,6.932757,4.33127,-5.4208984,0.040861044,-0.2043052,-0.13620347,2017-06-12 23:49:43,78.27536277486197
6.9527617,3.9073372,-5.7843914,5.0,6.851035,4.1269655,-5.6660643,0.040861044,-0.14982383,-0.12258312,2017-06-12 23:49:44,76.94033322404412
6.8665705,4.0414124,-5.7748146,5.0,6.864655,3.9907618,-5.7477865,-0.013620348,0.05448139,0.0,2017-06-12 23:49:45,74.18454813880385
6.895301,4.0701427,-5.6982,5.0,6.8782754,3.9907618,-5.734166,0.0,0.068101734,0.027240695,2017-06-12 23:49:46,78.04490574272155
7.0006456,4.0797195,-5.592855,5.0,6.8782754,4.0452433,-5.693305,0.095342435,0.013620348,0.08172209,2017-06-12 23:49:47,73.66350611311539
6.895301,4.1180267,-5.6407394,5.0,6.891896,4.072484,-5.638824,-0.013620348,0.08172209,0.013620348,2017-06-12 23:49:48,66.03265100162342
7.029376,4.0701427,-5.554548,5.0,6.9191365,4.0861044,-5.6252036,0.0,-0.013620348,-0.027240695,2017-06-12 23:49:49,70.220628291375
7.0485296,4.0318356,-5.583278,5.0,6.9463773,4.072484,-5.597963,0.0,0.0,-0.040861044,2017-06-12 23:49:50,78.04345591333262
6.981492,3.9839516,-5.746084,5.0,6.9599977,4.072484,-5.5843425,-0.040861044,-0.05448139,-0.14982383,2017-06-12 23:49:51,71.33112907795527
7.0581064,4.0701427,-5.45878,5.0,6.9872384,4.0588636,-5.5434813,0.040861044,0.0,0.068101734,2017-06-12 23:49:52,64.46907326000259
7.1155677,4.0701427,-5.315128,5.0,7.000859,4.0452433,-5.5434813,0.040861044,-0.040861044,-0.2043052,2017-06-12 23:49:53,67.34754718705827
7.144298,4.0701427,-5.391742,5.0,7.028099,4.031623,-5.5162406,-0.013620348,0.08172209,0.013620348,2017-06-12 23:49:54,73.22178926639869
7.1251445,4.1659107,-5.353435,5.0,7.05534,4.072484,-5.448139,0.027240695,0.08172209,0.068101734,2017-06-12 23:49:55,78.86823686592322
7.1730285,4.1946416,-5.21936,5.0,7.1098213,4.099725,-5.366417,0.08172209,0.0,0.05448139,2017-06-12 23:49:56,75.98184583050883
7.2687964,4.1276035,-5.21936,5.0,7.137062,4.140586,-5.298315,0.027240695,-0.013620348,-0.040861044,2017-06-12 23:49:57,55.971838058387114
7.1155677,4.175488,-5.267244,5.0,7.1643023,4.140586,-5.2438335,-0.027240695,0.027240695,-0.027240695,2017-06-12 23:49:58,69.91971797923955
7.1251445,4.1659107,-5.2863975,5.0,7.1779227,4.113345,-5.2438335,0.027240695,0.0,0.0,2017-06-12 23:49:59,69.84540153672268
7.1634517,4.175488,-5.2863975,5.0,7.1643023,4.140586,-5.2438335,0.040861044,0.05448139,-0.013620348,2017-06-12 23:50:01,73.19861233323833
7.2304893,4.1371803,-5.2863975,5.0,7.1506824,4.154206,-5.257454,0.08172209,-0.040861044,0.0,2017-06-12 23:50:02,77.21538432973193
7.201759,4.175488,-5.2385135,5.0,7.1506824,4.154206,-5.257454,0.027240695,0.013620348,-0.013620348,2017-06-12 23:50:03,78.80049571168502
7.1251445,4.175488,-5.2959743,5.0,7.1506824,4.140586,-5.2710743,-0.013620348,0.05448139,0.05448139,2017-06-12 23:50:04,78.88158280557008
7.153875,4.175488,-5.2959743,5.0,7.1643023,4.140586,-5.257454,0.027240695,0.068101734,0.05448139,2017-06-12 23:50:05,79.39268850422488
7.1251445,4.156334,-5.3342814,5.0,7.1779227,4.154206,-5.2165933,0.05448139,0.0,-0.013620348,2017-06-12 23:50:06,78.20356286611927
7.144298,4.1946416,-5.257667,5.0,7.1643023,4.154206,-5.257454,0.027240695,0.013620348,0.027240695,2017-06-12 23:50:07,79.5658240887532
7.1634517,4.185065,-5.267244,5.0,7.1643023,4.140586,-5.257454,0.068101734,0.027240695,0.095342435,2017-06-12 23:50:08,78.29198053401412
7.240066,4.185065,-5.209783,5.0,7.191543,4.140586,-5.2165933,0.068101734,0.027240695,0.05448139,2017-06-12 23:50:09,73.83521571704782
7.326257,4.1276035,-5.209783,5.0,7.2051635,4.140586,-5.1893525,0.08172209,0.0,0.0,2017-06-12 23:50:10,78.1065851835513
7.3645644,4.213795,-5.00867,5.0,7.2460246,4.167826,-5.1212506,0.14982383,0.013620348,0.13620347,2017-06-12 23:50:11,78.31145216235443
7.0581064,4.367024,-5.133168,5.0,7.2732654,4.2223077,-5.0395284,-0.2043052,0.08172209,-0.28602728,2017-06-12 23:50:12,72.48227756093644
7.1059904,4.271256,-5.2959743,5.0,7.1643023,4.276789,-5.1484914,-0.08172209,-0.013620348,-0.14982383,2017-06-12 23:50:13,44.685730513260935
7.144298,4.2425256,-5.267244,5.0,7.1098213,4.276789,-5.2165933,-0.013620348,-0.013620348,-0.095342435,2017-06-12 23:50:14,73.7823180955915
7.0964136,4.271256,-5.353435,5.0,7.096201,4.263169,-5.257454,-0.040861044,0.0,-0.13620347,2017-06-12 23:50:15,78.87550144152617
7.0485296,4.213795,-5.4300494,5.0,7.0417194,4.263169,-5.3119354,0.05448139,-0.013620348,0.0,2017-06-12 23:50:16,76.96753153646684
7.1155677,4.213795,-5.4204726,5.0,7.0417194,4.2495484,-5.325556,-0.013620348,-0.013620348,-0.040861044,2017-06-12 23:50:17,77.66808673222752
6.8761473,4.2521024,-5.602432,5.0,7.0144787,4.2495484,-5.3800373,-0.14982383,0.05448139,-0.12258312,2017-06-12 23:50:19,45.24328968428706
6.847417,4.213795,-5.7269306,5.0,6.891896,4.235928,-5.529861,-0.027240695,0.027240695,-0.068101734,2017-06-12 23:50:20,48.969378064491366
6.8282633,4.223372,-5.7843914,5.0,6.8374147,4.235928,-5.597963,0.013620348,0.027240695,-0.013620348,2017-06-12 23:50:21,72.14850023045709
6.7612257,4.271256,-5.659893,5.0,6.810174,4.2223077,-5.652444,0.0,0.05448139,0.08172209,2017-06-12 23:50:22,71.00686291976179
6.742072,4.098873,-5.90889,5.0,6.769313,4.2086873,-5.7069254,-0.095342435,-0.095342435,-0.24516624,2017-06-12 23:50:23,74.17264097438436
6.943185,4.213795,-5.8226986,5.0,6.6331096,4.140586,-5.9112306,0.05448139,-0.027240695,-0.08172209,2017-06-12 23:50:24,76.15334484864148
6.885724,5.602432,-3.763685,5.0,6.6739707,4.4538536,-5.638824,0.10896278,1.0623871,2.0294318,2017-06-12 23:50:25,72.58120319336587
6.799533,5.3342814,-4.6255975,5.0,6.851035,5.47538,-4.385752,0.24516624,-0.35412902,-0.4086104,2017-06-12 23:50:26,74.50908089623108
6.579266,4.654328,-5.650316,5.0,6.6739707,5.325556,-4.807983,-0.17706451,-0.62653595,-0.8172208,2017-06-12 23:50:27,58.81280337415606
6.5696893,4.5202527,-5.7269306,5.0,6.4560447,4.7535014,-5.6252036,0.08172209,-0.23154591,-0.12258312,2017-06-12 23:50:28,51.73704066187896
8.293514,4.865018,-2.4037786,5.0,6.524146,4.508335,-5.761407,1.0896277,0.013620348,1.4028958,2017-06-12 23:50:29,73.56495458723444
7.690176,4.261679,-4.4436383,5.0,7.3413677,4.5491962,-4.630918,0.3949901,-0.28602728,0.2043052,2017-06-12 23:50:30,76.6931716371184
7.575254,4.271256,-4.5394063,5.0,7.736357,4.440233,-4.072484,-0.13620347,-0.17706451,-0.43585113,2017-06-12 23:50:31,67.98245596439807
7.632715,3.8786068,-4.606444,5.0,7.600154,4.2086873,-4.535576,0.23154591,-0.31326798,-0.013620348,2017-06-12 23:50:32,62.111749198158996
7.603985,3.8115692,-4.865018,5.0,7.6273947,3.963521,-4.69902,-0.040861044,-0.10896278,-0.13620347,2017-06-12 23:50:33,60.460635685664144
7.52737,3.86903,-4.951209,5.0,7.6273947,3.8545582,-4.7943625,-0.16344418,0.013620348,-0.27240694,2017-06-12 23:50:34,73.33868051547309
8.236053,4.1946416,-3.8307228,5.0,7.572913,3.9499006,-4.807983,0.23154591,0.4086104,1.1713499,2017-06-12 23:50:35,73.87625076383063
7.7189064,4.060566,-4.3478703,5.0,7.7908387,4.195067,-4.2223077,-0.12258312,-0.095342435,-0.16344418,2017-06-12 23:50:36,72.39432733191957
7.517793,3.9743748,-4.7309427,5.0,7.763598,4.072484,-4.372132,-0.23154591,-0.040861044,-0.4086104,2017-06-12 23:50:38,70.32056805357254
7.52737,3.8786068,-4.759673,5.0,7.6546354,3.9907618,-4.6445384,-0.095342435,-0.13620347,-0.28602728,2017-06-12 23:50:39,73.43140793602387
7.441179,3.9360676,-5.0757074,5.0,7.5865335,3.9362803,-4.807983,-0.13620347,0.05448139,-0.05448139,2017-06-12 23:50:40,76.71171177559481
7.3549876,3.9264908,-5.1906295,5.0,7.532052,3.8954194,-4.9169455,-0.16344418,0.013620348,-0.28602728,2017-06-12 23:50:41,76.74438479495704
7.345411,3.9456444,-5.1906295,5.0,7.409469,3.9090397,-5.08039,-0.040861044,0.013620348,-0.12258312,2017-06-12 23:50:42,72.14404323522047
7.2592196,3.9552212,-5.2289367,5.0,7.354988,3.9090397,-5.1621118,0.05448139,-0.013620348,0.013620348,2017-06-12 23:50:43,71.29186647791458
7.3645644,3.916914,-5.2002063,5.0,7.314126,3.9090397,-5.2165933,0.068101734,-0.027240695,0.013620348,2017-06-12 23:50:44,61.61081718129593
7.3166804,3.8786068,-5.315128,5.0,7.314126,3.9090397,-5.2302136,0.05448139,-0.027240695,-0.05448139,2017-06-12 23:50:45,69.9080615281702
7.240066,3.964798,-5.257667,5.0,7.3277473,3.881799,-5.2302136,0.040861044,0.040861044,0.095342435,2017-06-12 23:50:46,73.80382151701342
7.345411,3.916914,-5.209783,5.0,7.3277473,3.881799,-5.2302136,0.10896278,0.0,0.040861044,2017-06-12 23:50:47,79.19811012246808
7.4028716,3.8498764,-5.1810527,5.0,7.3413677,3.881799,-5.202973,0.05448139,-0.068101734,-0.10896278,2017-06-12 23:50:48,71.764849228879
7.374141,3.821146,-5.2480903,5.0,7.354988,3.840938,-5.2165933,0.05448139,0.027240695,0.068101734,2017-06-12 23:50:49,70.58596126252858
7.4507556,3.821146,-5.1523223,5.0,7.354988,3.8136973,-5.2438335,0.040861044,0.027240695,0.08172209,2017-06-12 23:50:50,71.72376611492399
7.441179,3.8307228,-5.142745,5.0,7.3822284,3.800077,-5.202973,0.013620348,0.0,-0.095342435,2017-06-12 23:50:51,73.16546373287784
7.383718,3.8594532,-5.133168,5.0,7.3822284,3.800077,-5.202973,0.05448139,0.013620348,0.040861044,2017-06-12 23:50:52,73.24682101082709
7.441179,3.7541082,-5.2002063,5.0,7.3822284,3.800077,-5.202973,0.040861044,-0.040861044,0.013620348,2017-06-12 23:50:53,68.9526589619947
7.4986396,3.6583402,-5.2002063,5.0,7.409469,3.759216,-5.202973,0.05448139,-0.10896278,-0.12258312,2017-06-12 23:50:54,64.91207282360497
7.469909,3.667917,-5.2959743,5.0,7.43671,3.677494,-5.2165933,0.05448139,0.027240695,0.05448139,2017-06-12 23:50:55,74.33127323825119
7.489063,3.6774938,-5.209783,5.0,7.43671,3.650253,-5.2302136,0.040861044,0.013620348,-0.05448139,2017-06-12 23:50:57,78.1608628671965
7.5082164,3.6391866,-5.2480903,5.0,7.4639506,3.650253,-5.202973,0.068101734,-0.040861044,0.0,2017-06-12 23:50:58,43.72150284890735
7.5465236,3.667917,-5.0757074,5.0,7.477571,3.6366327,-5.1893525,0.05448139,-0.013620348,-0.027240695,2017-06-12 23:50:59,73.6757015967934
7.536947,3.6870706,-5.161899,5.0,7.4911914,3.6230123,-5.1621118,0.040861044,0.05448139,-0.040861044,2017-06-12 23:51:00,79.46129049064847
7.5082164,3.6966474,-5.171476,5.0,7.518432,3.6638737,-5.09401,0.013620348,0.013620348,-0.013620348,2017-06-12 23:51:01,78.0354378048118
7.536947,3.6966474,-5.094861,5.0,7.532052,3.677494,-5.08039,0.027240695,0.0,-0.05448139,2017-06-12 23:51:02,53.619257872861716
7.565677,3.667917,-5.142745,5.0,7.532052,3.6911142,-5.0667696,0.013620348,0.027240695,0.068101734,2017-06-12 23:51:03,73.20250009389528
7.517793,3.7349546,-5.046977,5.0,7.532052,3.7047346,-5.0667696,0.08172209,0.0,0.095342435,2017-06-12 23:51:04,73.53708069766915
7.5082164,3.7253778,-5.104438,5.0,7.532052,3.7047346,-5.0531487,0.027240695,-0.027240695,-0.068101734,2017-06-12 23:51:05,78.84821956647092
7.536947,3.7541082,-4.960786,5.0,7.532052,3.7047346,-5.0667696,0.068101734,-0.013620348,0.068101734,2017-06-12 23:51:06,77.14437460460357
7.565677,3.6870706,-5.00867,5.0,7.5456724,3.7047346,-5.0531487,0.0,-0.013620348,-0.040861044,2017-06-12 23:51:07,73.07652796913041
7.9583263,2.9879637,-4.9799395,5.0,7.5456724,3.6638737,-5.0667696,0.50395286,-0.7763598,-0.095342435,2017-06-12 23:51:08,76.91260376131733
7.73806,3.1124623,-5.142745,5.0,7.7091165,3.2825036,-5.08039,0.040861044,-0.14982383,-0.027240695,2017-06-12 23:51:09,70.2933760575745
7.7189064,3.1411927,-5.133168,5.0,7.7772183,3.1190596,-5.08039,-0.068101734,0.095342435,0.12258312,2017-06-12 23:51:10,73.01636628139374
7.699753,3.1794999,-5.133168,5.0,7.7499776,3.1599207,-5.09401,-0.040861044,0.027240695,-0.013620348,2017-06-12 23:51:11,79.52794303808281
7.6710224,3.2082303,-5.1523223,5.0,7.736357,3.1871612,-5.1076303,-0.05448139,0.040861044,-0.013620348,2017-06-12 23:51:12,78.63818645459371
7.690176,3.217807,-5.1140146,5.0,7.7091165,3.1871612,-5.134871,-0.040861044,0.013620348,-0.040861044,2017-06-12 23:51:13,78.60375420982666
7.651869,3.2561142,-5.2002063,5.0,7.681876,3.2280223,-5.1621118,-0.05448139,0.0,-0.068101734,2017-06-12 23:51:14,75.09566931490288
7.632715,3.265691,-5.1810527,5.0,7.6546354,3.2552629,-5.1893525,0.0,-0.027240695,-0.013620348,2017-06-12 23:51:16,55.34005079328998
7.6231384,3.323152,-5.2002063,5.0,7.641015,3.2688832,-5.1893525,-0.027240695,0.05448139,0.05448139,2017-06-12 23:51:17,55.46395011415785
7.642292,3.3901896,-5.094861,5.0,7.641015,3.3097444,-5.175732,0.068101734,0.013620348,0.10896278,2017-06-12 23:51:18,76.83935159881244
7.699753,3.371036,-5.085284,5.0,7.6273947,3.3369853,-5.1621118,-0.05448139,0.08172209,-0.027240695,2017-06-12 23:51:19,74.15759358311692
7.6135616,3.4093432,-5.085284,5.0,7.6273947,3.3642259,-5.1484914,0.040861044,-0.040861044,0.013620348,2017-06-12 23:51:20,78.14729645587748
7.776367,3.2752678,-5.1140146,5.0,7.641015,3.3642259,-5.134871,-0.027240695,0.0,0.040861044,2017-06-12 23:51:21,75.10238503650233
7.699753,3.3423057,-5.161899,5.0,7.6546354,3.3642259,-5.1212506,-0.013620348,-0.013620348,-0.068101734,2017-06-12 23:51:22,77.86646811127434
7.6135616,3.3806129,-5.1140146,5.0,7.668256,3.3778462,-5.0667696,0.013620348,-0.05448139,-0.05448139,2017-06-12 23:51:23,77.96804235330475
7.73806,3.2944214,-5.1140146,5.0,7.681876,3.3778462,-5.0667696,-0.040861044,0.013620348,0.0,2017-06-12 23:51:24,61.425804345951995
7.7093296,3.3327289,-4.999093,5.0,7.681876,3.3506055,-5.0667696,0.05448139,-0.013620348,0.14982383,2017-06-12 23:51:25,73.20971103413999
7.7667904,3.217807,-5.056554,5.0,7.695496,3.3369853,-5.08039,0.05448139,-0.068101734,0.08172209,2017-06-12 23:51:26,77.36660241209702
7.7093296,3.169923,-5.094861,5.0,7.722737,3.296124,-5.0531487,0.16344418,-0.095342435,0.27240694,2017-06-12 23:51:27,45.290260431151275
7.795521,3.122039,-5.0278234,5.0,7.7908387,3.1871612,-5.0122876,0.027240695,-0.08172209,-0.068101734,2017-06-12 23:51:28,76.35846601962787
7.747637,3.1411927,-5.085284,5.0,7.804459,3.1735408,-4.9986672,-0.013620348,0.013620348,0.08172209,2017-06-12 23:51:29,68.7151063495619
7.843405,3.1028855,-5.0661306,5.0,7.8180795,3.1599207,-4.985047,0.040861044,-0.027240695,0.027240695,2017-06-12 23:51:30,71.48373811379794
7.833828,3.1507695,-4.9703627,5.0,7.8180795,3.1599207,-4.9986672,0.027240695,-0.040861044,0.040861044,2017-06-12 23:51:31,75.24850905821327
7.833828,3.1411927,-4.9224787,5.0,7.804459,3.1463003,-5.025908,0.040861044,0.0,0.13620347,2017-06-12 23:51:32,68.03040792292863
7.843405,3.1507695,-4.912902,5.0,7.8180795,3.1463003,-5.0122876,0.013620348,-0.013620348,0.12258312,2017-06-12 23:51:33,71.60689779230468
7.785944,3.1124623,-5.0278234,5.0,7.8453197,3.13268,-4.971427,-0.040861044,-0.013620348,0.0,2017-06-12 23:51:35,76.30343102808413
7.776367,3.1028855,-5.0278234,5.0,7.8180795,3.13268,-4.9986672,-0.027240695,-0.040861044,-0.013620348,2017-06-12 23:51:36,78.72132090634818
7.8146744,3.1890767,-4.8745947,5.0,7.804459,3.1190596,-5.025908,-0.027240695,0.027240695,0.14982383,2017-06-12 23:51:37,76.13387195989583
8.24563,3.1507695,-4.5202527,5.0,7.804459,3.1190596,-5.0395284,-0.027240695,-0.16344418,-0.16344418,2017-06-12 23:51:38,53.7385985128875
7.3549876,3.7253778,-4.9799395,5.0,7.763598,3.2416425,-5.025908,-0.49033248,0.32688835,-0.29964766,2017-06-12 23:51:39,67.23648525049583
7.881712,3.5625722,-4.606444,5.0,7.7499776,3.3642259,-4.9578066,0.51757324,0.027240695,0.6401563,2017-06-12 23:51:40,72.64066939794569
7.785944,3.4572272,-4.8362875,5.0,7.7772183,3.4731886,-4.835223,0.040861044,-0.027240695,-0.027240695,2017-06-12 23:51:41,78.12802999335784
7.7667904,3.466804,-4.8458643,5.0,7.7908387,3.4731886,-4.835223,-0.095342435,-0.013620348,-0.068101734,2017-06-12 23:51:42,76.50521387064595
7.73806,3.4763808,-4.8267107,5.0,7.7772183,3.445948,-4.862464,0.027240695,0.0,0.095342435,2017-06-12 23:51:43,51.64452247835765
7.920019,3.3997664,-4.76925,5.0,7.804459,3.445948,-4.835223,0.08172209,-0.095342435,0.10896278,2017-06-12 23:51:44,50.05137743441924
7.9104424,3.3614593,-4.7309427,5.0,7.85894,3.3914666,-4.780742,0.05448139,-0.040861044,0.08172209,2017-06-12 23:51:45,74.50945469897951
7.9391727,3.3135753,-4.654328,5.0,7.886181,3.3642259,-4.7535014,0.040861044,-0.040861044,0.095342435,2017-06-12 23:51:46,78.6549552531609
7.9391727,3.2561142,-4.7884035,5.0,7.9134216,3.323365,-4.739881,-0.013620348,-0.027240695,0.027240695,2017-06-12 23:51:47,79.19628558303386
7.9104424,3.2752678,-4.7022123,5.0,7.9134216,3.296124,-4.7535014,-0.027240695,-0.095342435,-0.05448139,2017-06-12 23:51:48,79.71327501052538
7.0581064,3.6583402,-5.6886234,5.0,7.8998013,3.2416425,-4.807983,-1.0760074,0.55843425,-0.61291564,2017-06-12 23:51:49,77.96538088834947
7.28795,3.5338416,-5.659893,5.0,7.4911914,3.4323275,-5.3119354,-0.28602728,0.16344418,-0.19068487,2017-06-12 23:51:50,76.83613501353112
7.2304893,3.5242648,-5.66947,5.0,7.218784,3.52767,-5.611583,0.05448139,-0.027240695,-0.027240695,2017-06-12 23:51:51,64.41682326758732
7.335834,3.4763808,-5.602432,5.0,7.232404,3.4731886,-5.638824,0.095342435,0.0,0.0,2017-06-12 23:51:52,72.32172888541116
7.335834,3.3901896,-5.4683566,5.0,7.2732654,3.445948,-5.597963,0.12258312,0.0,-0.027240695,2017-06-12 23:51:54,69.2160552394865
7.067683,3.572149,-5.7843914,5.0,7.3277473,3.405087,-5.5434813,-0.2043052,0.14982383,-0.19068487,2017-06-12 23:51:55,70.18278066504533
7.479486,3.3135753,-5.5258174,5.0,7.3277473,3.405087,-5.5571017,0.13620347,-0.068101734,0.013620348,2017-06-12 23:51:56,73.50715566404548
7.479486,3.3997664,-5.4204726,5.0,7.3822284,3.3642259,-5.4890003,0.095342435,-0.027240695,-0.068101734,2017-06-12 23:51:57,69.74324454059055
7.517793,3.41892,-5.3438582,5.0,7.43671,3.3506055,-5.4208984,0.05448139,0.040861044,0.095342435,2017-06-12 23:51:58,69.05760744506158
7.4603324,3.371036,-5.45878,5.0,7.477571,3.3642259,-5.366417,0.040861044,-0.05448139,-0.095342435,2017-06-12 23:51:59,77.54812405336162
7.4986396,3.4093432,-5.315128,5.0,7.4639506,3.3778462,-5.3800373,0.08172209,-0.013620348,0.08172209,2017-06-12 23:52:00,79.27490326864724
7.5465236,3.3327289,-5.3342814,5.0,7.4911914,3.3642259,-5.366417,0.040861044,-0.013620348,-0.08172209,2017-06-12 23:52:01,79.17027797174366
7.489063,3.41892,-5.3247046,5.0,7.504812,3.3506055,-5.339176,0.027240695,0.040861044,0.040861044,2017-06-12 23:52:02,63.801670273779735
7.565677,3.4284968,-5.267244,5.0,7.518432,3.3778462,-5.298315,0.05448139,0.040861044,0.08172209,2017-06-12 23:52:03,76.94989067482773
7.603985,3.41892,-5.133168,5.0,7.532052,3.4187074,-5.257454,0.05448139,-0.027240695,0.013620348,2017-06-12 23:52:04,78.8895877209581
7.5561004,3.4380736,-5.2002063,5.0,7.559293,3.4187074,-5.2165933,0.027240695,-0.027240695,0.013620348,2017-06-12 23:52:05,78.17852362947895
7.603985,3.3423057,-5.21936,5.0,7.559293,3.4187074,-5.2165933,0.027240695,-0.013620348,-0.013620348,2017-06-12 23:52:06,74.97435307583858
7.575254,3.323152,-5.2863975,5.0,7.559293,3.3914666,-5.2438335,0.027240695,-0.095342435,-0.05448139,2017-06-12 23:52:07,76.28124771333633
7.5944076,3.2944214,-5.2863975,5.0,7.5456724,3.3642259,-5.2710743,0.068101734,-0.068101734,0.05448139,2017-06-12 23:52:08,67.08203389950417
7.565677,3.2273839,-5.410896,5.0,7.559293,3.3369853,-5.257454,0.0,-0.12258312,-0.095342435,2017-06-12 23:52:09,76.86138313543488
7.565677,3.2369606,-5.3247046,5.0,7.559293,3.2688832,-5.3119354,-0.013620348,-0.068101734,-0.17706451,2017-06-12 23:52:10,43.18284699559497
7.5561004,3.2273839,-5.363012,5.0,7.5456724,3.214402,-5.366417,0.08172209,-0.027240695,0.08172209,2017-06-12 23:52:11,70.85933871646051
7.833828,3.1316159,-4.8745947,5.0,7.572913,3.2007816,-5.339176,0.47671217,-0.19068487,0.5992953,2017-06-12 23:52:13,74.9731234075088
7.699753,3.4380736,-4.807557,5.0,7.695496,3.214402,-5.1484914,0.14982383,0.12258312,0.28602728,2017-06-12 23:52:14,48.25828001060767
7.97748,3.4859576,-4.7788267,5.0,7.7772183,3.3914666,-4.9169455,0.040861044,0.2043052,0.16344418,2017-06-12 23:52:15,70.02922124663134
8.00621,3.5913026,-4.2904096,5.0,7.8317,3.5549107,-4.6853995,0.23154591,-0.013620348,0.38136974,2017-06-12 23:52:16,68.65741099546662
7.699753,4.0222588,-4.912902,5.0,7.9951434,3.5957716,-4.372132,-0.42223078,0.31326798,0.27240694,2017-06-12 23:52:17,64.60150385039516
8.226477,4.2521024,-2.9113493,5.0,7.8180795,4.0861044,-4.276789,0.29964766,0.57205456,1.5527196,2017-06-12 23:52:18,73.39986915756202
8.312668,4.2999864,-2.8538885,5.0,8.022385,4.426613,-3.4731886,0.2043052,-0.14982383,0.43585113,2017-06-12 23:52:19,71.42281011203322
8.130709,4.280833,-3.0550013,5.0,8.444615,4.072484,-2.8466525,-0.51757324,0.25878662,-0.35412902,2017-06-12 23:52:20,71.37057746238098
8.724471,3.8977604,-2.566584,5.0,8.526338,4.004382,-2.73769,0.05448139,-0.12258312,0.0,2017-06-12 23:52:21,78.87066783034827
8.6574335,3.8881836,-2.5761611,5.0,8.553578,3.9499006,-2.7104492,0.040861044,-0.027240695,0.12258312,2017-06-12 23:52:22,77.47385336712065
8.6574335,4.0414124,-2.2409728,5.0,8.580819,3.9499006,-2.6151068,0.05448139,-0.13620347,-0.13620347,2017-06-12 23:52:23,77.16143440356359
9.14585,3.86903,-2.1068976,5.0,8.580819,4.0180025,-2.5333848,0.4086104,0.027240695,0.3949901,2017-06-12 23:52:24,58.001557265312414
6.943185,5.3725886,-4.10845,5.0,8.090487,4.7126403,-2.901134,-1.1441091,0.6537767,-0.98066497,2017-06-12 23:52:25,74.67732991564972
6.1866174,5.497087,-5.0374002,5.0,7.096201,5.257454,-4.263169,-0.91256326,0.23154591,-0.58567494,2017-06-12 23:52:26,76.59044569544915
6.339846,5.094861,-5.315128,5.0,6.5377665,5.2165933,-5.1076303,-0.16344418,-0.17706451,-0.32688835,2017-06-12 23:52:27,74.85964333771298
6.3781533,4.9416323,-5.497087,5.0,6.3334613,5.134871,-5.434519,-0.068101734,-0.12258312,-0.16344418,2017-06-12 23:52:28,67.6002690720204
6.2728086,4.8745947,-5.803545,5.0,6.306221,5.0122876,-5.570722,-0.040861044,-0.13620347,-0.24516624,2017-06-12 23:52:29,76.59762705456897
6.129156,4.8458643,-6.033388,5.0,6.306221,4.903325,-5.6796846,-0.14982383,0.0,-0.23154591,2017-06-12 23:52:30,77.15131366542356
6.2823853,4.7979803,-5.861006,5.0,6.306221,4.835223,-5.7477865,-0.013620348,-0.05448139,-0.10896278,2017-06-12 23:52:32,62.839279808078544
6.5601125,4.596867,-5.793968,5.0,6.3470817,4.7262607,-5.7886477,0.08172209,-0.08172209,-0.027240695,2017-06-12 23:52:33,73.88612573676272
6.694188,4.596867,-5.535394,5.0,6.4424243,4.671779,-5.720546,0.2043052,-0.068101734,0.16344418,2017-06-12 23:52:34,73.85041846133753
6.445191,5.410896,-4.8841715,5.0,6.6058683,4.69902,-5.5162406,-0.17706451,0.5448139,0.38136974,2017-06-12 23:52:35,57.87144330317623
6.991069,4.9416323,-4.9895163,5.0,6.8782754,5.025908,-4.8488436,-0.040861044,-0.068101734,-0.16344418,2017-06-12 23:52:36,73.65041715213152
7.07726,4.7309427,-4.9895163,5.0,7.06896,5.0122876,-4.5764365,0.095342435,-0.21792556,-0.12258312,2017-06-12 23:52:37,78.43845968925304
7.1059904,4.644751,-5.0374002,5.0,6.9872384,4.807983,-4.903325,0.08172209,-0.12258312,-0.10896278,2017-06-12 23:52:38,60.711431838366245
7.029376,4.7884035,-4.9224787,5.0,7.0417194,4.7126403,-4.930566,-0.040861044,0.068101734,-0.12258312,2017-06-12 23:52:39,75.39714228695661
6.9144545,4.912902,-4.8362875,5.0,7.0144787,4.780742,-4.903325,-0.040861044,0.05448139,-0.05448139,2017-06-12 23:52:40,77.35578134446943
6.9240313,4.9895163,-4.721366,5.0,6.9463773,4.8897047,-4.8897047,0.0,0.05448139,0.12258312,2017-06-12 23:52:41,75.83208488222449
6.9527617,4.9703627,-4.6926355,5.0,7.000859,4.930566,-4.780742,0.040861044,0.013620348,0.05448139,2017-06-12 23:52:42,77.23186229580386
7.144298,4.8937483,-4.606444,5.0,7.028099,4.944186,-4.7262607,0.21792556,-0.027240695,0.19068487,2017-06-12 23:52:43,78.95043747759593
7.4603324,4.807557,-4.3478703,5.0,7.1234417,4.8897047,-4.6172976,0.3405087,-0.068101734,0.24516624,2017-06-12 23:52:44,78.055211213845
7.4507556,4.817134,-4.2999864,5.0,7.314126,4.835223,-4.372132,0.16344418,-0.027240695,0.040861044,2017-06-12 23:52:45,73.57637583099103
7.0485296,5.142745,-4.7022123,5.0,7.4230895,4.767122,-4.276789,-1.0079057,0.6537767,0.5992953,2017-06-12 23:52:46,76.43795291261513
7.249643,4.9416323,-4.606444,5.0,7.232404,4.930566,-4.426613,0.068101734,-0.013620348,-0.2043052,2017-06-12 23:52:47,78.7234816524614
6.7803793,5.056554,-4.721366,5.0,7.05534,5.0395284,-4.5764365,-0.08172209,0.0,-0.068101734,2017-06-12 23:52:48,73.03489141411356
7.1155677,4.903325,-4.7979803,5.0,7.05534,4.9986672,-4.6172976,-0.12258312,-0.068101734,-0.14982383,2017-06-12 23:52:50,78.53487014107235
7.144298,4.8841715,-4.596867,5.0,7.05534,4.9578066,-4.658159,-0.095342435,-0.12258312,-0.23154591,2017-06-12 23:52:51,78.05815616361463
7.086837,4.8458643,-4.807557,5.0,7.0825806,4.835223,-4.739881,0.05448139,-0.027240695,0.027240695,2017-06-12 23:52:52,57.28029076276417
6.9623384,4.855441,-4.817134,5.0,7.05534,4.835223,-4.780742,-0.027240695,-0.013620348,-0.08172209,2017-06-12 23:52:53,74.20535179825126
7.393295,4.6255975,-4.654328,5.0,7.1098213,4.7943625,-4.7535014,0.19068487,-0.05448139,0.13620347,2017-06-12 23:52:54,77.32016052913102
7.2592196,4.7788267,-4.596867,5.0,7.218784,4.739881,-4.630918,0.23154591,-0.05448139,0.14982383,2017-06-12 23:52:55,68.88609057546935
7.345411,4.721366,-4.6160207,5.0,7.2732654,4.7126403,-4.5764365,0.12258312,-0.027240695,-0.05448139,2017-06-12 23:52:56,75.71082930728818
7.326257,4.721366,-4.596867,5.0,7.2732654,4.69902,-4.590057,0.095342435,-0.013620348,0.040861044,2017-06-12 23:52:57,78.66285848151634
7.422025,4.6830587,-4.5202527,5.0,7.314126,4.671779,-4.562816,0.10896278,0.027240695,0.027240695,2017-06-12 23:52:58,72.61014229891424
7.393295,4.6926355,-4.596867,5.0,7.3277473,4.671779,-4.535576,0.05448139,0.040861044,-0.08172209,2017-06-12 23:52:59,73.36730463984594
7.4124484,4.663905,-4.606444,5.0,7.3413677,4.658159,-4.535576,0.027240695,-0.013620348,-0.10896278,2017-06-12 23:53:00,75.31542239606411
7.374141,4.6830587,-4.5681367,5.0,7.3277473,4.6445384,-4.562816,0.068101734,0.027240695,-0.013620348,2017-06-12 23:53:01,78.35298440010166
7.4603324,4.6160207,-4.5394063,5.0,7.3413677,4.6445384,-4.5491962,0.05448139,0.027240695,0.027240695,2017-06-12 23:53:02,75.52976508738871
7.5082164,4.5777135,-4.4723687,5.0,7.3686085,4.6172976,-4.5219555,0.12258312,-0.027240695,0.040861044,2017-06-12 23:53:03,74.75219607891071
7.565677,4.5394063,-4.3957543,5.0,7.3958488,4.590057,-4.508335,0.14982383,-0.05448139,0.08172209,2017-06-12 23:53:04,73.29601755007704
7.469909,4.596867,-4.501099,5.0,7.4230895,4.562816,-4.4947147,0.05448139,0.013620348,-0.05448139,2017-06-12 23:53:05,79.65528332542564
7.489063,4.5681367,-4.462792,5.0,7.43671,4.562816,-4.467474,0.095342435,-0.040861044,0.013620348,2017-06-12 23:53:06,79.46718775100813
7.4603324,4.5872903,-4.510676,5.0,7.477571,4.535576,-4.426613,0.05448139,0.013620348,0.0,2017-06-12 23:53:07,77.47458203514499
7.536947,4.5394063,-4.405331,5.0,7.477571,4.535576,-4.4129925,0.05448139,0.013620348,0.068101734,2017-06-12 23:53:09,65.44505713948257
7.536947,4.5394063,-4.3382936,5.0,7.4911914,4.5491962,-4.385752,0.05448139,-0.027240695,0.027240695,2017-06-12 23:53:10,60.47673655775018
7.4986396,4.55856,-4.462792,5.0,7.518432,4.5219555,-4.372132,0.040861044,-0.013620348,0.0,2017-06-12 23:53:11,72.6781411381624
7.536947,4.5394063,-4.4244847,5.0,7.518432,4.508335,-4.372132,0.10896278,-0.027240695,0.10896278,2017-06-12 23:53:12,76.37710521800854
7.517793,4.55856,-4.4244847,5.0,7.532052,4.508335,-4.358511,0.027240695,0.040861044,0.027240695,2017-06-12 23:53:13,76.80781202539258
7.4124484,4.6160207,-4.5872903,5.0,7.532052,4.508335,-4.358511,-0.24516624,0.16344418,-0.29964766,2017-06-12 23:53:14,76.08192087950476
7.6614456,4.596867,-4.4340615,5.0,7.504812,4.535576,-4.385752,-0.040861044,0.08172209,0.013620348,2017-06-12 23:53:15,63.55386233654013
6.789956,4.999093,-4.865018,5.0,7.1506824,4.807983,-4.6853995,-0.27240694,0.17706451,-0.23154591,2017-06-12 23:53:16,63.79650976214431
7.038953,5.0661306,-4.7405195,5.0,6.8237944,5.0395284,-4.930566,0.095342435,-0.14982383,0.027240695,2017-06-12 23:53:17,75.2124680385702
6.8665705,4.9416323,-4.817134,5.0,6.973618,4.971427,-4.767122,-0.068101734,0.08172209,0.0,2017-06-12 23:53:18,78.23345292246253
7.2304893,4.8841715,-4.6160207,5.0,7.05534,4.930566,-4.6853995,0.14982383,-0.068101734,0.013620348,2017-06-12 23:53:19,71.60033484101248
6.8186865,5.085284,-4.711789,5.0,7.06896,4.9169455,-4.671779,-0.08172209,0.095342435,0.027240695,2017-06-12 23:53:20,67.99959420845087
7.0102224,5.056554,-4.4244847,5.0,7.06896,4.944186,-4.658159,0.10896278,-0.08172209,0.027240695,2017-06-12 23:53:21,73.7158183400849
7.1155677,4.912902,-4.5777135,5.0,7.0825806,4.9578066,-4.630918,-0.013620348,-0.027240695,-0.013620348,2017-06-12 23:53:22,71.6525619753853
7.086837,4.960786,-4.5394063,5.0,7.0825806,4.944186,-4.630918,0.17706451,-0.095342435,-0.05448139,2017-06-12 23:53:23,72.11301164295658
7.086837,4.8937483,-4.711789,5.0,7.096201,4.9169455,-4.630918,0.0,-0.013620348,-0.05448139,2017-06-12 23:53:24,74.97162863496128
7.422025,4.76925,-4.644751,5.0,7.1234417,4.903325,-4.6172976,0.040861044,-0.013620348,0.05448139,2017-06-12 23:53:25,51.011431375712974
7.153875,4.8841715,-4.5872903,5.0,7.1234417,4.903325,-4.6172976,0.16344418,-0.05448139,-0.013620348,2017-06-12 23:53:26,51.367450995448074
6.943185,4.7884035,-4.9799395,5.0,7.096201,4.835223,-4.7262607,-0.17706451,-0.05448139,-0.38136974,2017-06-12 23:53:28,72.6944537537826
6.9719152,4.6926355,-5.0182467,5.0,6.973618,4.767122,-4.971427,0.027240695,-0.10896278,-0.08172209,2017-06-12 23:53:29,75.2020510696929
6.981492,4.606444,-5.142745,5.0,6.9599977,4.6853995,-5.0667696,-0.013620348,-0.040861044,-0.08172209,2017-06-12 23:53:30,74.33332568531868
7.029376,4.596867,-5.056554,5.0,6.9872384,4.6445384,-5.08039,-0.013620348,-0.05448139,-0.040861044,2017-06-12 23:53:31,77.55959302083518
7.067683,4.5394063,-5.0278234,5.0,7.000859,4.6172976,-5.08039,0.08172209,-0.08172209,-0.05448139,2017-06-12 23:53:32,65.38639763013347
7.07726,4.4915223,-5.171476,5.0,7.0417194,4.5491962,-5.08039,0.027240695,-0.068101734,-0.12258312,2017-06-12 23:53:33,60.785753701779626
6.981492,4.4244847,-5.257667,5.0,7.0417194,4.508335,-5.1212506,-0.027240695,-0.08172209,-0.12258312,2017-06-12 23:53:34,68.48590071910897
7.0006456,4.357447,-5.3438582,5.0,7.028099,4.440233,-5.202973,0.0,-0.095342435,-0.14982383,2017-06-12 23:53:35,75.71596652002914
6.9623384,4.414908,-5.2959743,5.0,6.9872384,4.385752,-5.298315,0.040861044,0.013620348,0.13620347,2017-06-12 23:53:36,59.294583329572525
6.9623384,4.367024,-5.3438582,5.0,6.9599977,4.372132,-5.325556,-0.013620348,0.0,-0.05448139,2017-06-12 23:53:37,75.88300639487565
7.0006456,4.2904096,-5.439626,5.0,6.9599977,4.358511,-5.3527966,0.0,-0.040861044,-0.08172209,2017-06-12 23:53:38,63.98133165140528
6.8761473,4.3478703,-5.5162406,5.0,6.9463773,4.33127,-5.393657,-0.12258312,0.040861044,-0.23154591,2017-06-12 23:53:39,76.36649289272748
6.895301,4.3766007,-5.439626,5.0,6.891896,4.33127,-5.4617596,0.05448139,0.0,0.040861044,2017-06-12 23:53:40,74.87914533315022
7.1155677,4.232949,-5.2480903,5.0,6.891896,4.33127,-5.4617596,0.27240694,-0.12258312,0.10896278,2017-06-12 23:53:41,46.01586369145562
6.8569937,4.3287168,-5.650316,5.0,6.932757,4.2904096,-5.448139,-0.08172209,0.040861044,-0.14982383,2017-06-12 23:53:42,47.8448264671312
7.0006456,4.280833,-5.363012,5.0,6.9599977,4.2904096,-5.407278,0.2043052,-0.027240695,0.17706451,2017-06-12 23:53:43,72.23788651740105
7.0485296,4.2521024,-5.4779334,5.0,6.973618,4.276789,-5.393657,-0.027240695,0.08172209,0.068101734,2017-06-12 23:53:44,75.48613600588727
7.441179,4.213795,-4.9224787,5.0,7.000859,4.276789,-5.366417,0.3405087,-0.040861044,0.51757324,2017-06-12 23:53:45,73.37199920425273
6.8186865,4.003105,-5.899313,5.0,6.973618,4.276789,-5.407278,-0.5448139,-0.19068487,-0.95342433,2017-06-12 23:53:47,79.33586861781995
6.933608,4.6160207,-5.2768207,5.0,6.905516,4.3040295,-5.4617596,-0.08172209,-0.08172209,-0.10896278,2017-06-12 23:53:48,75.90969609613565
6.2632318,4.453215,-6.205771,5.0,6.782933,4.31765,-5.597963,-0.013620348,0.013620348,-0.17706451,2017-06-12 23:53:49,73.68038447980156
6.943185,4.3382936,-5.257667,5.0,6.7148314,4.31765,-5.693305,0.2043052,0.05448139,0.43585113,2017-06-12 23:53:50,73.78951687915959
7.019799,4.2521024,-5.401319,5.0,6.687591,4.33127,-5.7069254,0.32688835,-0.040861044,0.35412902,2017-06-12 23:53:51,75.80749691601737
6.9144545,4.1946416,-5.5737014,5.0,6.7965536,4.31765,-5.597963,0.0,0.08172209,-0.040861044,2017-06-12 23:53:52,78.08495749467846
7.1634517,4.357447,-5.2002063,5.0,6.9463773,4.3040295,-5.407278,0.13620347,-0.040861044,0.16344418,2017-06-12 23:53:53,56.14474731358945
7.249643,4.2521024,-5.0374002,5.0,7.1506824,4.276789,-5.175732,0.29964766,0.013620348,0.3405087,2017-06-12 23:53:54,53.09733569492981
7.3645644,4.232949,-4.8267107,5.0,7.3686085,4.167826,-4.930566,0.027240695,0.14982383,0.040861044,2017-06-12 23:53:55,53.34332631950638
7.699753,4.2425256,-4.2425256,5.0,7.641015,4.113345,-4.562816,0.05448139,0.13620347,0.38136974,2017-06-12 23:53:56,70.75881967781893
8.015787,4.10845,-4.003105,5.0,7.7908387,4.167826,-4.2495484,-0.05448139,0.013620348,-0.040861044,2017-06-12 23:53:57,79.63628040796996
7.73806,4.261679,-4.3861775,5.0,7.7908387,4.2086873,-4.2086873,0.0,0.040861044,-0.14982383,2017-06-12 23:53:58,76.32273274793542
6.9527617,4.7884035,-5.0661306,5.0,7.6273947,4.3448906,-4.358511,-1.1168685,0.51757324,-0.99428535,2017-06-12 23:53:59,78.45186005149513
6.933608,4.807557,-5.1235914,5.0,7.1779227,4.671779,-4.767122,-0.35412902,0.19068487,-0.12258312,2017-06-12 23:54:00,72.01354662575785
6.7612257,4.7309427,-5.257667,5.0,6.8374147,4.7943625,-5.1212506,0.0,-0.10896278,-0.23154591,2017-06-12 23:54:01,72.47860336150212
6.7803793,4.7309427,-5.3247046,5.0,6.687591,4.739881,-5.3800373,0.068101734,-0.040861044,-0.027240695,2017-06-12 23:54:02,76.42220877180907
6.5026517,4.807557,-5.48751,5.0,6.6603503,4.7262607,-5.4208984,-0.095342435,0.068101734,0.0,2017-06-12 23:54:03,76.65435770394153
6.799533,4.644751,-5.4683566,5.0,6.6603503,4.739881,-5.407278,0.095342435,0.05448139,0.2043052,2017-06-12 23:54:04,68.52744388929293
6.7229185,4.644751,-5.48751,5.0,6.701211,4.7126403,-5.3800373,0.12258312,-0.05448139,0.095342435,2017-06-12 23:54:06,78.19547855463705
6.8091097,4.55856,-5.5641246,5.0,6.701211,4.6853995,-5.393657,0.08172209,-0.068101734,-0.08172209,2017-06-12 23:54:07,77.05085586950646
6.7612257,4.5777135,-5.5258174,5.0,6.742072,4.6036773,-5.407278,0.027240695,-0.040861044,-0.013620348,2017-06-12 23:54:08,73.79765106521093
6.8569937,4.510676,-5.401319,5.0,6.7965536,4.535576,-5.407278,0.05448139,0.0,-0.013620348,2017-06-12 23:54:09,79.06876955618516
6.8282633,4.5777135,-5.401319,5.0,6.810174,4.535576,-5.393657,0.0,0.0,-0.013620348,2017-06-12 23:54:10,75.97524370899376
6.789956,4.5298295,-5.5258174,5.0,6.810174,4.535576,-5.393657,0.040861044,0.0,0.027240695,2017-06-12 23:54:11,76.25015503801322
6.943185,4.548983,-5.2959743,5.0,6.8374147,4.535576,-5.3527966,0.013620348,0.068101734,0.10896278,2017-06-12 23:54:12,65.93659588809732
6.5696893,4.8362875,-5.4683566,5.0,6.810174,4.658159,-5.298315,-0.19068487,0.19068487,-0.068101734,2017-06-12 23:54:13,68.6409563735767
6.6846113,4.807557,-5.3342814,5.0,6.6603503,4.8488436,-5.3119354,0.19068487,-0.068101734,0.17706451,2017-06-12 23:54:14,45.21246541584047
6.703765,4.8937483,-5.2289367,5.0,6.6194887,4.835223,-5.366417,0.095342435,0.040861044,0.2043052,2017-06-12 23:54:15,44.38572086853875
6.655881,4.721366,-5.554548,5.0,6.64673,4.8760843,-5.3119354,-0.05448139,-0.08172209,-0.095342435,2017-06-12 23:54:16,71.25998837073608
6.6079965,4.5872903,-5.6790466,5.0,6.6331096,4.7535014,-5.4208984,-0.040861044,-0.10896278,-0.095342435,2017-06-12 23:54:17,77.03312806636475
6.751649,5.0374002,-6.081272,5.0,6.592248,4.6172976,-5.597963,-0.49033248,0.4086104,-0.42223078,2017-06-12 23:54:18,67.64147975450602
1.3599066,8.360553,-5.1235914,5.0,5.2302136,5.952092,-5.7750273,-4.2904096,2.1792555,0.19068487,2017-06-12 23:54:19,75.38190925873457
2.1260512,9.270349,-2.480393,5.0,2.165635,8.689781,-4.004382,0.25878662,0.46309182,1.7842655,2017-06-12 23:54:20,75.0598034941823
2.0973208,8.590396,-4.185065,5.0,2.5197642,9.125632,-2.5606253,-0.12258312,-0.42223078,-1.1441091,2017-06-12 23:54:21,72.66143899412296
2.5570073,7.479486,-5.6790466,5.0,2.587866,8.349273,-4.440233,-0.2043052,-0.667397,-1.0623871,2017-06-12 23:54:22,75.32350992407858
2.777274,7.5082164,-5.592855,5.0,2.587866,7.559293,-5.693305,0.17706451,-0.08172209,-0.08172209,2017-06-12 23:54:23,64.79632842825558
3.0454245,6.6654577,-6.5218053,5.0,2.860273,7.5456724,-5.5571017,0.28602728,-0.7354987,-0.7899802,2017-06-12 23:54:25,70.25700042745753
3.016694,6.7803793,-6.3781533,5.0,3.0918188,6.8782754,-6.26536,-0.040861044,-0.16344418,-0.21792556,2017-06-12 23:54:26,71.00265425969303
3.1124623,6.5984197,-6.5696893,5.0,3.1463003,6.551387,-6.592248,0.040861044,0.08172209,0.13620347,2017-06-12 23:54:27,75.02028318576349
2.9496565,6.531382,-6.751649,5.0,3.010097,6.6194887,-6.5786276,-0.05448139,-0.040861044,-0.10896278,2017-06-12 23:54:28,77.17702950664935
2.96881,6.1770406,-7.1251445,2.0,2.9147542,6.551387,-6.687591,0.027240695,-0.32688835,-0.35412902,2017-06-12 23:54:29,71.45432355760882
2.9017725,5.90889,-7.393295,2.0,2.901134,6.3334613,-6.891896,0.040861044,-0.32688835,-0.3405087,2017-06-12 23:54:30,64.01395946843643
2.9783869,5.813122,-7.393295,2.0,2.9147542,5.979333,-7.2051635,0.08172209,-0.14982383,-0.16344418,2017-06-12 23:54:31,54.50999009355556
2.9592333,5.7269306,-7.4507556,2.0,2.941995,5.8431287,-7.300506,0.027240695,-0.10896278,-0.13620347,2017-06-12 23:54:32,78.04676047905612
2.9975405,6.081272,-7.1730285,2.0,2.969236,5.7069254,-7.3958488,0.095342435,0.3949901,0.36774936,2017-06-12 23:54:33,78.5233800301367
3.0933087,6.0142345,-7.2113357,2.0,3.010097,5.88399,-7.2460246,0.068101734,0.08172209,-0.013620348,2017-06-12 23:54:34,73.58687065770772
3.2273839,6.033388,-7.1059904,2.0,3.0373375,5.979333,-7.1506824,0.19068487,0.05448139,0.040861044,2017-06-12 23:54:35,58.74562740269698
3.3518825,6.0238113,-7.029376,2.0,3.0781987,5.979333,-7.1234417,0.2043052,0.027240695,0.05448139,2017-06-12 23:54:36,52.853935668446645
3.3614593,6.0238113,-7.029376,2.0,3.2007816,6.0065737,-7.05534,0.19068487,0.0,-0.027240695,2017-06-12 23:54:37,44.28491740065291
3.3806129,5.899313,-7.1634517,2.0,3.323365,5.9929533,-7.0144787,0.08172209,-0.12258312,-0.14982383,2017-06-12 23:54:38,46.895620682341104
3.371036,5.9567738,-7.144298,2.0,3.3369853,5.938472,-7.05534,0.013620348,0.027240695,-0.08172209,2017-06-12 23:54:39,73.57119276342775
3.4859576,5.8801594,-7.1059904,2.0,3.3642259,5.89761,-7.06896,0.14982383,-0.027240695,-0.040861044,2017-06-12 23:54:40,77.42014239832747
3.4572272,5.861006,-7.0964136,2.0,3.3778462,5.89761,-7.06896,-0.027240695,-0.040861044,-0.05448139,2017-06-12 23:54:41,45.502914091064746
3.4380736,5.66947,-7.2687964,2.0,3.3914666,5.7750273,-7.1506824,0.068101734,-0.068101734,-0.05448139,2017-06-12 23:54:42,45.767004198548555
3.4763808,5.535394,-7.383718,2.0,3.405087,5.734166,-7.191543,0.05448139,-0.17706451,-0.14982383,2017-06-12 23:54:44,77.687083634698
3.4093432,5.5162406,-7.2209125,2.0,3.445948,5.597963,-7.2732654,0.13620347,0.068101734,0.013620348,2017-06-12 23:54:45,72.45602829193368
3.572149,5.497087,-7.3645644,2.0,3.486809,5.50262,-7.3277473,0.040861044,0.0,-0.040861044,2017-06-12 23:54:46,73.5327870921899
3.7062242,5.449203,-7.3071036,2.0,3.5549107,5.47538,-7.314126,0.095342435,-0.013620348,-0.05448139,2017-06-12 23:54:47,79.19960880127155
3.6774938,5.353435,-7.517793,2.0,3.5821512,5.448139,-7.314126,0.027240695,0.068101734,0.05448139,2017-06-12 23:54:48,77.2404897429987
3.7541082,5.4683566,-7.297527,2.0,3.609392,5.4208984,-7.3277473,0.13620347,0.10896278,0.095342435,2017-06-12 23:54:49,78.23034855529082
3.7253778,5.2768207,-7.575254,2.0,3.6230123,5.407278,-7.3277473,0.24516624,-0.14982383,-0.25878662,2017-06-12 23:54:50,77.99035228436908
4.55856,6.9527617,-5.305551,5.0,3.8136973,5.693305,-7.000859,0.70825803,1.1713499,1.7297841,2017-06-12 23:54:51,76.84388679826961
4.2904096,7.07726,-5.3821654,5.0,4.195067,6.9599977,-5.4890003,-0.013620348,0.21792556,0.4086104,2017-06-12 23:54:52,47.67132480365072
4.261679,6.9527617,-5.4204726,5.0,4.276789,7.0825806,-5.2710743,0.0,-0.14982383,-0.24516624,2017-06-12 23:54:53,65.69518707977701
4.4819455,6.6846113,-5.659893,5.0,4.31765,6.9191365,-5.448139,0.14982383,-0.24516624,-0.25878662,2017-06-12 23:54:54,73.489753736676
4.3478703,6.6846113,-5.7748146,5.0,4.33127,6.810174,-5.570722,-0.027240695,-0.095342435,-0.24516624,2017-06-12 23:54:55,78.56446461882098
4.3766007,6.531382,-5.947197,5.0,4.33127,6.6603503,-5.7477865,0.068101734,-0.095342435,-0.13620347,2017-06-12 23:54:56,78.11557902518233
4.501099,6.3206925,-6.090849,5.0,4.385752,6.483285,-5.9112306,0.13620347,-0.068101734,0.027240695,2017-06-12 23:54:57,77.43316065616911
4.5872903,6.4164605,-5.841852,5.0,4.440233,6.3334613,-6.020194,0.25878662,-0.040861044,0.040861044,2017-06-12 23:54:58,71.452876873988
4.5202527,6.4547677,-5.8801594,5.0,4.4538536,6.3198414,-6.020194,0.08172209,0.12258312,0.16344418,2017-06-12 23:54:59,67.05592138438614
4.501099,6.4068837,-5.9663506,5.0,4.467474,6.3470817,-5.9929533,0.013620348,0.05448139,0.0,2017-06-12 23:55:00,69.34340317803988
4.4723687,6.3781533,-6.0046577,5.0,4.467474,6.3198414,-6.0065737,0.013620348,0.040861044,-0.013620348,2017-06-12 23:55:02,68.79484014200924
4.4723687,6.38773,-5.9759274,5.0,4.4810944,6.3198414,-6.0065737,0.0,0.08172209,0.068101734,2017-06-12 23:55:03,72.09896412339405
4.453215,6.291962,-6.090849,5.0,4.4810944,6.3334613,-6.0065737,-0.040861044,-0.040861044,-0.08172209,2017-06-12 23:55:04,79.40378187864906
4.5298295,6.081272,-6.2823853,5.0,4.467474,6.3198414,-6.020194,0.027240695,-0.23154591,-0.27240694,2017-06-12 23:55:05,75.19746553341706
4.55856,5.899313,-6.4547677,5.0,4.467474,6.142777,-6.197258,0.095342435,-0.23154591,-0.2043052,2017-06-12 23:55:06,65.56507889881794
4.5777135,5.765238,-6.5122285,5.0,4.4947147,5.9657125,-6.360702,0.12258312,-0.2043052,-0.16344418,2017-06-12 23:55:07,68.70404561183187
4.4436383,5.8322754,-6.5601125,5.0,4.508335,5.8431287,-6.4424243,0.040861044,-0.027240695,-0.040861044,2017-06-12 23:55:08,72.77290400684875
4.5777135,5.6790466,-6.5505357,5.0,4.508335,5.8295083,-6.4560447,-0.040861044,-0.068101734,-0.08172209,2017-06-12 23:55:09,68.65730700952416
4.5681367,5.602432,-6.694188,5.0,4.5491962,5.720546,-6.524146,-0.027240695,-0.068101734,-0.068101734,2017-06-12 23:55:10,63.451934955735005
4.663905,5.9663506,-6.2728086,5.0,4.5491962,5.720546,-6.5377665,0.16344418,0.19068487,0.13620347,2017-06-12 23:55:11,47.05108852016978
4.309563,5.8801594,-6.6654577,5.0,4.5491962,5.734166,-6.524146,-0.16344418,0.08172209,-0.16344418,2017-06-12 23:55:12,73.2894674361707
4.003105,6.301539,-6.349423,5.0,4.5219555,5.89761,-6.401563,-0.46309182,0.46309182,0.21792556,2017-06-12 23:55:13,76.1601241160051
4.5298295,5.9759274,-6.4739213,5.0,4.4129925,6.0882955,-6.2926006,-0.095342435,-0.14982383,-0.32688835,2017-06-12 23:55:14,76.3755600688346
4.3861775,5.947197,-6.579266,5.0,4.2904096,6.074675,-6.3743224,0.13620347,-0.19068487,-0.28602728,2017-06-12 23:55:15,77.8761933803752
4.2425256,5.93762,-6.6175733,5.0,4.31765,6.020194,-6.4151835,0.040861044,-0.095342435,-0.10896278,2017-06-12 23:55:16,74.23219459194614
4.232949,5.746084,-6.83784,5.0,4.33127,5.952092,-6.483285,-0.10896278,-0.095342435,-0.21792556,2017-06-12 23:55:17,76.59005491686881
4.357447,5.6407394,-6.7229185,5.0,4.385752,5.761407,-6.6194887,-0.068101734,-0.095342435,-0.3405087,2017-06-12 23:55:18,78.00942489175378
4.4723687,5.554548,-6.789956,5.0,4.385752,5.720546,-6.64673,-0.10896278,-0.12258312,-0.28602728,2017-06-12 23:55:19,70.60841859736458
4.4723687,5.439626,-6.8761473,5.0,4.4129925,5.5843425,-6.742072,0.027240695,-0.10896278,-0.12258312,2017-06-12 23:55:21,76.77025192921835
4.4819455,5.2863975,-7.0581064,2.0,4.358511,5.4208984,-6.905516,0.040861044,-0.13620347,-0.17706451,2017-06-12 23:55:22,71.93189568238013
4.4436383,5.21936,-7.144298,2.0,4.3448906,5.298315,-7.0144787,0.08172209,-0.05448139,0.0,2017-06-12 23:55:23,74.18349613164759
4.3861775,5.133168,-7.192182,2.0,4.358511,5.2302136,-7.05534,0.0,-0.095342435,-0.16344418,2017-06-12 23:55:24,77.08500755091288
4.4340615,5.0374002,-7.240066,2.0,4.3448906,5.134871,-7.137062,0.027240695,-0.068101734,-0.13620347,2017-06-12 23:55:25,73.02919054308924
4.5202527,4.960786,-7.297527,2.0,4.385752,5.0395284,-7.1779227,0.10896278,-0.095342435,-0.14982383,2017-06-12 23:55:26,75.18184389432403
4.951209,4.999093,-6.981492,2.0,4.467474,4.971427,-7.1779227,0.44947144,0.027240695,0.17706451,2017-06-12 23:55:27,73.44544171980633
4.8745947,4.721366,-7.3071036,2.0,4.7126403,4.930566,-7.0417194,0.19068487,-0.17706451,-0.23154591,2017-06-12 23:55:28,79.14132892299935
4.960786,4.5394063,-7.28795,2.0,4.7943625,4.739881,-7.1098213,0.13620347,-0.2043052,-0.23154591,2017-06-12 23:55:29,77.77776476981552
4.865018,4.4723687,-7.431602,2.0,4.835223,4.535576,-7.218784,0.05448139,-0.027240695,-0.19068487,2017-06-12 23:55:30,78.3023546613664
4.817134,4.501099,-7.393295,2.0,4.835223,4.426613,-7.2868857,0.013620348,0.05448139,-0.10896278,2017-06-12 23:55:31,78.19307881198499
4.7500963,4.3766007,-7.536947,2.0,4.7943625,4.3993726,-7.3277473,0.05448139,-0.040861044,-0.21792556,2017-06-12 23:55:32,77.53182284283808
4.817134,4.3478703,-7.5465236,2.0,4.780742,4.372132,-7.354988,-0.05448139,-0.05448139,-0.23154591,2017-06-12 23:55:33,77.62929712239975
4.817134,4.3478703,-7.489063,2.0,4.658159,4.31765,-7.4639506,0.05448139,0.0,-0.16344418,2017-06-12 23:55:34,66.23646220362392
4.912902,4.5681367,-7.6231384,2.0,4.630918,4.3040295,-7.4911914,0.27240694,0.21792556,-0.19068487,2017-06-12 23:55:35,75.94248446962445
4.4915223,6.646304,-6.253655,5.0,5.1893525,4.9578066,-6.6739707,-0.24516624,1.7978858,0.31326798,2017-06-12 23:55:36,74.70870627904864
5.0182467,6.742072,-5.0278234,5.0,5.2302136,6.2244987,-5.4890003,-0.2043052,0.42223078,0.3949901,2017-06-12 23:55:37,76.91066209398328
4.999093,6.5601125,-5.3821654,5.0,4.8897047,6.592248,-5.366417,0.14982383,-0.08172209,0.013620348,2017-06-12 23:55:38,70.85102739486919
5.257667,6.2249246,-5.410896,5.0,4.930566,6.592248,-5.325556,0.23154591,-0.25878662,0.08172209,2017-06-12 23:55:40,71.52134799209385
4.9895163,6.090849,-5.9567738,5.0,5.025908,6.3470817,-5.529861,-0.05448139,-0.19068487,-0.29964766,2017-06-12 23:55:41,73.33802009891764
5.1523223,6.0621185,-5.7365074,5.0,5.0395284,6.1291566,-5.761407,0.068101734,0.027240695,0.17706451,2017-06-12 23:55:42,73.7101096351304
5.133168,6.1100025,-5.66947,5.0,5.08039,6.0882955,-5.761407,0.027240695,0.013620348,0.10896278,2017-06-12 23:55:43,71.57572748250358
5.1235914,6.129156,-5.6790466,5.0,5.1212506,6.101916,-5.720546,-0.013620348,0.013620348,0.05448139,2017-06-12 23:55:44,75.115811894954
5.1523223,6.0716953,-5.7365074,5.0,5.134871,6.115536,-5.6796846,0.0,-0.05448139,-0.068101734,2017-06-12 23:55:45,46.13641849145338
5.1140146,6.042965,-5.841852,5.0,5.134871,6.0882955,-5.720546,-0.05448139,-0.013620348,-0.027240695,2017-06-12 23:55:46,44.05416614604741
5.133168,6.042965,-5.7365074,5.0,5.1212506,6.074675,-5.7477865,-0.013620348,-0.013620348,0.040861044,2017-06-12 23:55:47,70.41943055299818
5.171476,6.0046577,-5.765238,5.0,5.1076303,6.074675,-5.761407,0.05448139,-0.08172209,-0.013620348,2017-06-12 23:55:48,76.1503533896099
5.2289367,5.947197,-5.7365074,5.0,5.1484914,6.033814,-5.7750273,0.013620348,-0.08172209,-0.12258312,2017-06-12 23:55:49,62.49109420373255
5.1235914,5.861006,-5.9663506,5.0,5.1893525,5.979333,-5.7886477,0.0,0.027240695,-0.095342435,2017-06-12 23:55:50,72.36142382747089
5.094861,5.9567738,-5.9759274,5.0,5.175732,5.952092,-5.815888,-0.12258312,0.05448139,-0.095342435,2017-06-12 23:55:51,71.49840830899399
5.2002063,5.947197,-5.8226986,5.0,5.1484914,5.952092,-5.8431287,0.013620348,-0.040861044,0.027240695,2017-06-12 23:55:52,45.41997133167286
5.056554,5.899313,-6.167464,5.0,5.1621118,5.952092,-5.8431287,0.068101734,-0.095342435,-0.10896278,2017-06-12 23:55:53,46.132697166097714
5.171476,5.7843914,-5.899313,5.0,5.1484914,5.89761,-5.89761,0.08172209,0.013620348,0.13620347,2017-06-12 23:55:54,46.718439062358925
5.257667,5.707777,-5.9280434,5.0,5.202973,5.856749,-5.89761,0.0,-0.16344418,-0.040861044,2017-06-12 23:55:55,73.56609396900075
5.315128,5.7269306,-5.861006,5.0,5.2165933,5.8295083,-5.9112306,-0.013620348,-0.05448139,-0.095342435,2017-06-12 23:55:56,77.66376055306024
5.257667,5.66947,-5.9759274,5.0,5.257454,5.7750273,-5.924851,-0.027240695,-0.095342435,-0.08172209,2017-06-12 23:55:57,71.21665055068166
5.171476,5.4683566,-6.215348,5.0,5.2438335,5.720546,-5.9929533,-0.12258312,-0.21792556,-0.28602728,2017-06-12 23:55:59,74.9824939649065
5.21936,5.4300494,-6.205771,5.0,5.202973,5.570722,-6.1700177,0.0,-0.12258312,-0.12258312,2017-06-12 23:56:00,74.85153915198447
5.209783,5.4204726,-6.291962,5.0,5.1893525,5.50262,-6.238119,-0.013620348,-0.05448139,-0.027240695,2017-06-12 23:56:01,57.49201508859305
5.410896,5.401319,-6.1866174,5.0,5.2165933,5.47538,-6.238119,-0.013620348,-0.027240695,0.13620347,2017-06-12 23:56:02,72.20856996413514
5.2289367,5.4683566,-6.1770406,5.0,5.2846947,5.4617596,-6.197258,0.17706451,-0.027240695,0.14982383,2017-06-12 23:56:03,78.55231943314757
5.21936,5.391742,-6.196194,5.0,5.325556,5.448139,-6.1700177,-0.14982383,-0.013620348,-0.040861044,2017-06-12 23:56:04,71.87304716091927
5.48751,5.4300494,-6.0142345,5.0,5.325556,5.448139,-6.1700177,-0.068101734,-0.12258312,-0.013620348,2017-06-12 23:56:05,66.781999860158
5.391742,5.410896,-6.1100025,5.0,5.325556,5.434519,-6.1700177,0.068101734,-0.095342435,0.0,2017-06-12 23:56:06,76.60431196438128
5.3247046,5.401319,-6.1866174,5.0,5.3527966,5.407278,-6.1700177,0.12258312,-0.013620348,0.068101734,2017-06-12 23:56:07,66.02024377041627
5.3438582,5.3342814,-6.1387334,5.0,5.366417,5.407278,-6.1836376,0.027240695,0.027240695,0.08172209,2017-06-12 23:56:08,67.87046157370382
5.4683566,5.3725886,-6.033388,5.0,5.407278,5.407278,-6.1291566,0.095342435,-0.068101734,0.12258312,2017-06-12 23:56:09,79.83435919748152
5.353435,5.497087,-6.042965,5.0,5.434519,5.393657,-6.115536,0.08172209,0.0,0.027240695,2017-06-12 23:56:10,77.53960135101211
5.9663506,5.1235914,-5.841852,5.0,5.5434813,5.3527966,-6.0474343,0.36774936,-0.21792556,0.21792556,2017-06-12 23:56:11,45.730719744546676
5.813122,5.171476,-5.9184666,5.0,5.7477865,5.2710743,-5.938472,0.040861044,-0.095342435,0.08172209,2017-06-12 23:56:12,71.96433004098787
5.7748146,5.171476,-5.9759274,5.0,5.815888,5.2302136,-5.9112306,-0.068101734,-0.068101734,-0.068101734,2017-06-12 23:56:13,76.23514074219298
5.8705826,5.1140146,-5.9184666,5.0,5.8431287,5.202973,-5.9112306,0.10896278,-0.05448139,0.23154591,2017-06-12 23:56:14,71.04505147965283
5.90889,5.094861,-5.8801594,5.0,5.8703694,5.175732,-5.9112306,0.040861044,-0.068101734,0.027240695,2017-06-12 23:56:15,74.6438906021993
6.0046577,5.1140146,-5.7748146,5.0,5.9112306,5.134871,-5.89761,0.0,-0.027240695,0.05448139,2017-06-12 23:56:16,71.80035706536943
5.985504,5.1140146,-5.8226986,5.0,5.9112306,5.134871,-5.89761,0.08172209,-0.027240695,0.068101734,2017-06-12 23:56:18,77.89613117812667
5.9184666,5.104438,-5.841852,5.0,5.924851,5.1212506,-5.89761,0.05448139,-0.013620348,0.095342435,2017-06-12 23:56:19,79.4358784679152
5.9280434,5.085284,-5.8226986,5.0,5.952092,5.1212506,-5.8703694,-0.068101734,-0.05448139,-0.16344418,2017-06-12 23:56:20,77.92298545836096
5.813122,5.085284,-6.0046577,5.0,5.952092,5.1212506,-5.8703694,-0.17706451,-0.013620348,-0.12258312,2017-06-12 23:56:21,75.17353229997974
6.0525417,5.0757074,-5.7365074,5.0,5.9657125,5.1212506,-5.856749,-0.027240695,-0.08172209,-0.027240695,2017-06-12 23:56:22,55.552746955486
5.9759274,5.0661306,-5.8226986,5.0,5.979333,5.09401,-5.8703694,-0.068101734,-0.013620348,-0.040861044,2017-06-12 23:56:23,68.77233450601807
6.0525417,5.046977,-5.7843914,5.0,5.9929533,5.09401,-5.856749,0.068101734,-0.068101734,-0.05448139,2017-06-12 23:56:24,71.13571799963843
6.0621185,5.00867,-5.899313,5.0,5.9929533,5.08039,-5.856749,-0.013620348,-0.068101734,-0.10896278,2017-06-12 23:56:25,71.02983428425999
6.081272,5.0374002,-5.793968,5.0,6.0065737,5.0667696,-5.856749,0.16344418,-0.040861044,0.17706451,2017-06-12 23:56:26,76.43539895527465
6.0238113,5.046977,-5.8322754,5.0,6.020194,5.0531487,-5.8431287,-0.05448139,0.027240695,0.040861044,2017-06-12 23:56:27,66.23446155665361
5.765238,5.094861,-6.0046577,5.0,6.020194,5.0531487,-5.8431287,0.013620348,0.013620348,0.21792556,2017-06-12 23:56:28,71.43990348125241
5.899313,5.0757074,-5.9759274,5.0,6.020194,5.0667696,-5.856749,-0.08172209,-0.013620348,-0.10896278,2017-06-12 23:56:29,75.97946602698156
5.841852,5.1140146,-5.899313,5.0,6.020194,5.0395284,-5.8703694,0.17706451,-0.040861044,0.17706451,2017-06-12 23:56:30,77.94843346329517
5.803545,5.1810527,-5.899313,5.0,6.020194,5.0395284,-5.8703694,-0.19068487,0.2043052,0.17706451,2017-06-12 23:56:31,76.56513203123156
5.813122,5.161899,-5.889736,5.0,6.0610547,5.09401,-5.7886477,-0.21792556,0.13620347,0.0,2017-06-12 23:56:32,78.79166899611495
5.9280434,5.142745,-5.765238,5.0,6.0610547,5.1484914,-5.734166,-0.24516624,0.040861044,-0.21792556,2017-06-12 23:56:33,76.89655315867186
5.765238,5.209783,-5.899313,5.0,6.074675,5.1621118,-5.7069254,-0.095342435,0.095342435,-0.040861044,2017-06-12 23:56:34,45.89733848382594
6.1770406,5.1810527,-5.5258174,2.0,6.0474343,5.2165933,-5.693305,0.0,0.05448139,0.068101734,2017-06-12 23:56:35,43.25906860132762
5.889736,5.2002063,-5.861006,5.0,6.074675,5.2438335,-5.6252036,-0.16344418,0.013620348,-0.08172209,2017-06-12 23:56:36,65.12625015750737
6.0525417,5.209783,-5.592855,5.0,6.115536,5.2165933,-5.611583,-0.040861044,0.08172209,0.040861044,2017-06-12 23:56:38,61.99733715611724
6.0716953,5.2385135,-5.6120086,5.0,6.142777,5.2302136,-5.5571017,0.027240695,0.027240695,0.068101734,2017-06-12 23:56:39,68.81427839834645
6.2632318,5.1235914,-5.439626,5.0,6.1700177,5.2165933,-5.5434813,0.095342435,-0.10896278,0.08172209,2017-06-12 23:56:40,71.76979629987736
6.1770406,5.161899,-5.5258174,5.0,6.2108784,5.175732,-5.5434813,0.08172209,-0.095342435,0.068101734,2017-06-12 23:56:41,67.70082855593573
6.4260373,4.9703627,-5.401319,5.0,6.2244987,5.175732,-5.529861,0.13620347,-0.16344418,0.068101734,2017-06-12 23:56:42,72.40776848600586
6.5218053,5.104438,-5.554548,5.0,6.306221,5.1076303,-5.50262,0.0,-0.12258312,-0.068101734,2017-06-12 23:56:43,66.72162121689551
7.9487495,5.851429,-2.6910827,5.0,6.8237944,5.134871,-4.807983,0.84446156,0.10896278,1.6208212,2017-06-12 23:56:44,66.04809078334738
6.8091097,5.631162,-4.1659107,5.0,7.409469,5.47538,-3.3642259,-0.62653595,0.095342435,-0.87170225,2017-06-12 23:56:45,60.96956424122243
7.0964136,5.439626,-3.86903,5.0,7.1643023,5.611583,-3.650253,0.08172209,-0.12258312,-0.10896278,2017-06-12 23:56:46,61.59413042937192
7.335834,5.21936,-3.8977604,5.0,7.096201,5.5162406,-3.9090397,0.3949901,-0.24516624,0.095342435,2017-06-12 23:56:47,70.6121200925293
7.441179,4.9224787,-4.3766007,5.0,7.2460246,5.3800373,-3.8136973,0.08172209,-0.13620347,0.040861044,2017-06-12 23:56:48,78.04005831879388
7.8529816,5.1523223,-2.96881,5.0,7.4639506,5.202973,-3.6230123,0.6537767,-0.31326798,0.29964766,2017-06-12 23:56:49,74.78773371942958
7.680599,5.0374002,-3.4284968,5.0,7.641015,5.0395284,-3.5140495,-0.013620348,-0.040861044,0.12258312,2017-06-12 23:56:50,72.43802739254727
7.785944,4.6830587,-3.4763808,5.0,7.736357,4.985047,-3.3914666,-0.05448139,0.0,0.53119355,2017-06-12 23:56:51,70.09151884704409
8.63828,4.1946416,-2.96881,5.0,7.927042,4.835223,-3.1463003,0.3949901,-0.46309182,-0.10896278,2017-06-12 23:56:52,77.18367847054472
8.580819,4.1180267,-2.585738,5.0,8.240311,4.4810944,-2.8466525,0.24516624,-0.31326798,0.28602728,2017-06-12 23:56:53,65.71443877214774
8.6095495,4.012682,-2.6719291,5.0,8.458236,4.195067,-2.6151068,-0.4086104,0.027240695,-0.19068487,2017-06-12 23:56:54,73.72091092989004
8.619126,4.146757,-2.1739352,5.0,8.512717,4.167826,-2.4925234,0.027240695,0.0,0.47671217,2017-06-12 23:56:55,75.71904338783523
7.795521,4.865018,-2.96881,5.0,8.621679,4.072484,-2.2882183,-0.50395286,0.49033248,-1.0760074,2017-06-12 23:56:57,57.54905738987599
6.7612257,5.66947,-3.9073372,5.0,7.967903,4.821603,-3.050958,-0.939804,0.6810174,-0.58567494,2017-06-12 23:56:58,75.98069596862997
7.0006456,5.554548,-4.003105,5.0,7.2051635,5.50262,-3.7319753,-0.17706451,0.068101734,-0.24516624,2017-06-12 23:56:59,74.62706487111049
7.326257,5.267244,-3.916914,5.0,7.06896,5.5843425,-3.8681786,0.12258312,-0.21792556,0.05448139,2017-06-12 23:57:00,74.75221314839446
7.345411,5.056554,-3.9552212,5.0,7.2460246,5.298315,-3.9499006,0.13620347,-0.23154591,-0.05448139,2017-06-12 23:57:01,77.27699269269267
7.326257,4.8841715,-4.4244847,5.0,7.300506,5.0531487,-4.140586,0.068101734,-0.17706451,-0.27240694,2017-06-12 23:57:02,59.21633000496123
7.393295,4.8458643,-4.4915223,5.0,7.2868857,4.8488436,-4.3993726,-0.08172209,0.040861044,-0.12258312,2017-06-12 23:57:03,63.56713744212662
7.536947,4.673482,-4.3287168,5.0,7.354988,4.780742,-4.372132,0.23154591,-0.095342435,0.2043052,2017-06-12 23:57:04,69.42511886355754
7.7667904,4.405331,-4.213795,5.0,7.477571,4.671779,-4.276789,0.3949901,-0.25878662,0.27240694,2017-06-12 23:57:05,78.63128829624819
7.3549876,4.654328,-4.5394063,5.0,7.518432,4.5491962,-4.3448906,-0.027240695,0.0,-0.23154591,2017-06-12 23:57:06,79.02161326709773
7.3645644,4.6255975,-4.6255975,5.0,7.3686085,4.5219555,-4.6172976,0.027240695,0.040861044,-0.08172209,2017-06-12 23:57:07,78.79590117919909
6.2728086,6.129156,-4.060566,5.0,7.2051635,4.7262607,-4.6853995,-1.1304889,1.3620348,0.4086104,2017-06-12 23:57:08,71.78559194987521
6.588843,5.650316,-4.501099,5.0,6.687591,5.6660643,-4.3993726,-0.05448139,-0.027240695,-0.040861044,2017-06-12 23:57:09,57.395175993273796
6.579266,5.3821654,-4.7405195,5.0,6.6194887,5.7477865,-4.385752,-0.068101734,-0.35412902,-0.3949901,2017-06-12 23:57:10,63.046096603441136
6.799533,5.2959743,-4.644751,5.0,6.7148314,5.47538,-4.590057,0.040861044,-0.14982383,-0.08172209,2017-06-12 23:57:11,70.4825412049679
6.694188,5.3247046,-4.7884035,5.0,6.7284517,5.3800373,-4.6853995,-0.10896278,-0.013620348,0.0,2017-06-12 23:57:12,66.96752269303265
6.6654577,5.363012,-4.7309427,5.0,6.7284517,5.366417,-4.69902,-0.05448139,0.013620348,0.0,2017-06-12 23:57:13,45.31947466729439
6.789956,5.391742,-4.510676,5.0,6.742072,5.3800373,-4.671779,0.040861044,0.027240695,0.17706451,2017-06-12 23:57:14,73.34505697913954
7.240066,5.104438,-4.2042184,5.0,6.8374147,5.366417,-4.5219555,0.13620347,-0.13620347,0.25878662,2017-06-12 23:57:16,77.92621298379363
7.2687964,5.1523223,-4.1180267,5.0,6.9872384,5.298315,-4.372132,0.36774936,-0.14982383,0.3405087,2017-06-12 23:57:17,73.34122835815272
7.1155677,5.2863975,-4.10845,5.0,7.137062,5.2302136,-4.2223077,0.05448139,-0.027240695,0.095342435,2017-06-12 23:57:18,77.00189733962877
7.2592196,5.1523223,-4.012682,5.0,7.137062,5.2302136,-4.2223077,0.21792556,-0.13620347,0.16344418,2017-06-12 23:57:19,75.20109775431361
7.1155677,5.056554,-4.3766007,5.0,7.2051635,5.1893525,-4.154206,0.027240695,-0.08172209,0.0,2017-06-12 23:57:20,73.34917285618742
7.2592196,5.0374002,-4.2904096,5.0,7.259645,5.1076303,-4.154206,-0.027240695,-0.068101734,-0.013620348,2017-06-12 23:57:21,80.06866983274492
7.326257,5.00867,-4.1659107,5.0,7.259645,5.0667696,-4.2086873,0.08172209,-0.05448139,0.027240695,2017-06-12 23:57:22,78.50881491806146
7.297527,4.951209,-4.309563,5.0,7.2868857,5.025908,-4.2086873,0.08172209,-0.095342435,-0.10896278,2017-06-12 23:57:23,70.31349881802468
7.335834,4.9799395,-4.2999864,5.0,7.314126,4.971427,-4.2223077,0.05448139,0.0,0.027240695,2017-06-12 23:57:24,77.02456561923134
7.3645644,4.9416323,-4.232949,5.0,7.3413677,4.944186,-4.2223077,0.013620348,0.0,-0.013620348,2017-06-12 23:57:25,71.97979279920757
7.383718,4.8745947,-4.4340615,5.0,7.3413677,4.930566,-4.2223077,-0.040861044,-0.027240695,-0.17706451,2017-06-12 23:57:26,74.68915168545144
7.3166804,4.855441,-4.4340615,5.0,7.314126,4.8760843,-4.33127,0.10896278,-0.05448139,-0.08172209,2017-06-12 23:57:27,72.73575536422713
7.4028716,4.865018,-4.3287168,5.0,7.314126,4.835223,-4.385752,0.10896278,0.013620348,0.013620348,2017-06-12 23:57:28,78.09090032518013
7.2209125,4.912902,-4.4340615,5.0,7.314126,4.8488436,-4.372132,-0.16344418,0.12258312,-0.08172209,2017-06-12 23:57:29,78.40880962367136
7.4603324,4.8267107,-4.3287168,5.0,7.300506,4.862464,-4.372132,0.16344418,-0.05448139,0.040861044,2017-06-12 23:57:30,79.0146907445328
7.297527,4.8841715,-4.357447,5.0,7.354988,4.821603,-4.33127,0.08172209,0.027240695,0.0,2017-06-12 23:57:31,74.41695253319388
7.431602,4.8362875,-4.309563,5.0,7.354988,4.807983,-4.3448906,0.17706451,-0.027240695,0.068101734,2017-06-12 23:57:32,45.28542875933831
7.4507556,4.7788267,-4.405331,5.0,7.354988,4.821603,-4.31765,0.027240695,0.0,-0.027240695,2017-06-12 23:57:34,46.6983139945635
7.517793,4.7979803,-4.2425256,5.0,7.4230895,4.767122,-4.263169,0.16344418,-0.027240695,0.27240694,2017-06-12 23:57:35,60.50790553070523
7.565677,4.76925,-4.1371803,5.0,7.477571,4.780742,-4.167826,0.2043052,-0.095342435,0.068101734,2017-06-12 23:57:36,71.71649098889938
4.3382936,7.067683,-5.1906295,5.0,7.4911914,4.767122,-4.154206,-2.73769,2.0975335,-0.7627395,2017-06-12 23:57:37,61.315384445702136
4.0701427,7.431602,-4.8458643,5.0,5.802268,6.4424243,-4.590057,-1.484618,0.92618364,-0.05448139,2017-06-12 23:57:38,74.5605731294769
4.5872903,7.297527,-4.6351743,5.0,4.33127,7.4639506,-4.658159,0.32688835,-0.13620347,0.14982383,2017-06-12 23:57:39,78.45882285085628
4.912902,7.144298,-4.7022123,5.0,4.630918,7.259645,-4.6853995,0.29964766,-0.14982383,-0.095342435,2017-06-12 23:57:40,45.77064817410119
4.999093,6.981492,-4.759673,5.0,4.835223,7.1098213,-4.7126403,0.17706451,-0.10896278,0.068101734,2017-06-12 23:57:41,71.81070481782383
5.2289367,6.8091097,-4.7405195,5.0,5.0395284,6.9599977,-4.7262607,0.16344418,-0.095342435,0.013620348,2017-06-12 23:57:42,76.46792951044618
5.717354,6.5122285,-4.4723687,5.0,5.202973,6.8374147,-4.7262607,0.44947144,-0.23154591,0.32688835,2017-06-12 23:57:43,44.658026972861215
5.401319,6.5984197,-4.807557,5.0,5.434519,6.6739707,-4.6853995,-0.14982383,-0.068101734,-0.095342435,2017-06-12 23:57:44,73.24402534788008
5.746084,6.3685765,-4.673482,5.0,5.407278,6.6331096,-4.7943625,0.24516624,-0.27240694,0.013620348,2017-06-12 23:57:45,78.66112347507963
5.650316,6.349423,-4.7884035,5.0,5.6660643,6.4424243,-4.739881,0.13620347,-0.10896278,0.13620347,2017-06-12 23:57:46,76.40452313216548
5.544971,6.445191,-4.6351743,5.0,5.7886477,6.360702,-4.7126403,-0.12258312,0.013620348,-0.027240695,2017-06-12 23:57:47,73.66798224211085
5.66947,6.2728086,-4.8458643,5.0,5.6796846,6.4151835,-4.767122,0.068101734,-0.12258312,0.013620348,2017-06-12 23:57:48,69.26632098144174
5.803545,6.205771,-4.721366,5.0,5.7477865,6.360702,-4.7535014,0.05448139,-0.13620347,0.0,2017-06-12 23:57:49,77.75229736640895
6.0621185,6.14831,-4.5394063,5.0,5.8703694,6.2926006,-4.69902,0.040861044,-0.095342435,0.17706451,2017-06-12 23:57:50,66.73963352838021
5.889736,6.244078,-4.6255975,5.0,5.9657125,6.238119,-4.6445384,-0.040861044,-0.040861044,-0.040861044,2017-06-12 23:57:51,56.643080450154386
6.0716953,6.1866174,-4.55856,5.0,6.020194,6.197258,-4.6172976,0.013620348,-0.040861044,0.05448139,2017-06-12 23:57:53,47.17114448357027
6.1770406,6.081272,-4.6160207,5.0,6.0610547,6.1700177,-4.6036773,0.13620347,-0.08172209,0.08172209,2017-06-12 23:57:54,44.24560337855671
6.1100025,6.1195793,-4.5681367,5.0,6.1700177,6.0882955,-4.5764365,0.013620348,0.013620348,-0.040861044,2017-06-12 23:57:55,42.8933238692164
6.253655,5.985504,-4.673482,5.0,6.1836376,6.074675,-4.5764365,0.013620348,-0.068101734,-0.040861044,2017-06-12 23:57:56,68.24213612494225
6.253655,6.0142345,-4.5777135,5.0,6.1700177,6.0610547,-4.6172976,0.027240695,-0.05448139,-0.027240695,2017-06-12 23:57:57,77.5728698737847
6.301539,5.90889,-4.5681367,5.0,6.2108784,6.033814,-4.590057,0.0,-0.013620348,0.027240695,2017-06-12 23:57:58,78.62557173543821
6.6271505,5.6790466,-4.3861775,5.0,6.2926006,5.979333,-4.5491962,0.28602728,-0.25878662,0.14982383,2017-06-12 23:57:59,78.51763746646121
6.588843,5.659893,-4.3957543,5.0,6.4969053,5.8295083,-4.467474,0.13620347,-0.08172209,0.10896278,2017-06-12 23:58:00,79.10759294648717
6.7133417,5.6120086,-4.357447,5.0,6.64673,5.720546,-4.3993726,0.16344418,-0.16344418,-0.040861044,2017-06-12 23:58:01,77.96117296054382
6.8091097,5.544971,-4.3287168,5.0,6.7148314,5.652444,-4.358511,0.12258312,-0.13620347,0.05448139,2017-06-12 23:58:02,73.02884551894496
6.8665705,5.5162406,-4.223372,5.0,6.810174,5.570722,-4.3040295,0.08172209,-0.095342435,0.08172209,2017-06-12 23:58:03,76.4948356526445
6.9719152,5.410896,-4.2042184,5.0,6.905516,5.50262,-4.2495484,0.08172209,-0.10896278,0.040861044,2017-06-12 23:58:04,76.48375827246585
6.991069,5.363012,-4.271256,5.0,6.9872384,5.448139,-4.195067,0.027240695,-0.095342435,-0.027240695,2017-06-12 23:58:05,66.07383298719193
6.7324953,5.506664,-4.4340615,5.0,7.028099,5.407278,-4.1814466,-0.31326798,0.10896278,-0.24516624,2017-06-12 23:58:06,67.58497160731292
6.8569937,5.4300494,-4.3766007,5.0,6.905516,5.448139,-4.33127,-0.13620347,0.013620348,-0.040861044,2017-06-12 23:58:07,61.97704004167921
6.751649,5.5162406,-4.4436383,5.0,6.810174,5.4890003,-4.440233,-0.10896278,0.0,-0.10896278,2017-06-12 23:58:08,76.58233633997929
6.9144545,5.439626,-4.3287168,5.0,6.7965536,5.4890003,-4.440233,0.21792556,-0.12258312,0.08172209,2017-06-12 23:58:09,67.28612203056572
6.799533,5.506664,-4.3478703,5.0,6.782933,5.50262,-4.4538536,0.05448139,-0.027240695,0.08172209,2017-06-12 23:58:10,72.93822263675634
6.3111157,5.8322754,-4.606444,5.0,6.687591,5.5843425,-4.4947147,-0.25878662,0.095342435,-0.17706451,2017-06-12 23:58:12,76.88203360943128
6.3589997,5.717354,-4.7405195,5.0,6.428804,5.7477865,-4.658159,-0.23154591,0.05448139,-0.10896278,2017-06-12 23:58:13,78.64537487729551
6.3111157,5.793968,-4.6926355,5.0,6.3470817,5.802268,-4.7126403,0.013620348,-0.08172209,-0.027240695,2017-06-12 23:58:14,77.6056567889214
6.339846,5.765238,-4.759673,5.0,6.3470817,5.802268,-4.7126403,0.013620348,-0.05448139,0.12258312,2017-06-12 23:58:15,72.54221476530816
6.3685765,5.7269306,-4.673482,5.0,6.3743224,5.7750273,-4.7126403,-0.013620348,-0.027240695,0.13620347,2017-06-12 23:58:16,75.08287041575029
6.244078,5.813122,-4.663905,5.0,6.3743224,5.7750273,-4.69902,-0.08172209,-0.013620348,-0.14982383,2017-06-12 23:58:17,66.25673707229167
6.3781533,5.7269306,-4.7405195,5.0,6.387943,5.7750273,-4.6853995,0.013620348,0.0,0.12258312,2017-06-12 23:58:18,44.591051250053304
6.397307,5.717354,-4.654328,5.0,6.387943,5.7750273,-4.6853995,-0.05448139,-0.05448139,-0.027240695,2017-06-12 23:58:19,44.41472311138699
6.349423,5.8322754,-4.663905,5.0,6.401563,5.761407,-4.6853995,-0.10896278,0.013620348,-0.21792556,2017-06-12 23:58:20,64.437752419793
6.0525417,6.033388,-4.7979803,5.0,6.26536,5.88399,-4.7262607,-0.24516624,0.12258312,-0.12258312,2017-06-12 23:58:21,70.14061955131241
6.1770406,5.985504,-4.6255975,5.0,6.101916,6.0065737,-4.780742,0.08172209,-0.095342435,-0.013620348,2017-06-12 23:58:22,71.02279928436062
6.2632318,5.851429,-4.55856,5.0,6.1563973,5.952092,-4.767122,0.27240694,-0.16344418,0.14982383,2017-06-12 23:58:23,71.08802412689685
6.167464,5.9567738,-4.807557,5.0,6.197258,5.924851,-4.7535014,-0.05448139,0.05448139,-0.05448139,2017-06-12 23:58:24,59.242325702339215
6.2345014,5.889736,-4.663905,5.0,6.1700177,5.938472,-4.767122,0.13620347,-0.095342435,0.08172209,2017-06-12 23:58:25,48.05271884176829
6.253655,5.899313,-4.7500963,5.0,6.2108784,5.924851,-4.739881,0.013620348,0.0,0.05448139,2017-06-12 23:58:26,42.74791250624048
6.253655,5.889736,-4.721366,5.0,6.26536,5.88399,-4.69902,-0.027240695,0.013620348,0.013620348,2017-06-12 23:58:27,66.75644260044116
6.2345014,5.889736,-4.663905,5.0,6.26536,5.88399,-4.7126403,0.013620348,-0.040861044,0.027240695,2017-06-12 23:58:28,77.64242864148378
6.8186865,5.5162406,-4.31914,5.0,6.3198414,5.8295083,-4.69902,0.49033248,-0.29964766,0.23154591,2017-06-12 23:58:29,71.95714228431076
4.7788267,6.4643445,-5.583278,5.0,5.89761,6.0474343,-4.985047,-1.0487667,0.38136974,-0.84446156,2017-06-12 23:58:31,75.82058333625298
4.9703627,6.4547677,-5.5258174,5.0,4.7126403,6.5105257,-5.611583,0.31326798,-0.14982383,0.13620347,2017-06-12 23:58:32,75.71466221940804
5.133168,6.253655,-5.45878,5.0,4.985047,6.401563,-5.5162406,0.12258312,-0.14982383,0.068101734,2017-06-12 23:58:33,69.01437000783825
5.21936,6.196194,-5.506664,5.0,5.1893525,6.2789803,-5.448139,-0.013620348,-0.05448139,0.040861044,2017-06-12 23:58:34,54.464413366895606
5.1810527,6.196194,-5.45878,5.0,5.257454,6.238119,-5.434519,-0.027240695,-0.068101734,-0.10896278,2017-06-12 23:58:35,58.62258155557122
5.3725886,6.1387334,-5.3342814,5.0,5.2846947,6.2244987,-5.434519,0.05448139,-0.08172209,0.068101734,2017-06-12 23:58:36,56.16596093294751
5.4779334,6.1004257,-5.2959743,5.0,5.393657,6.1700177,-5.3800373,0.10896278,-0.08172209,0.068101734,2017-06-12 23:58:37,73.79536428342307
5.5162406,6.090849,-5.257667,5.0,5.47538,6.142777,-5.339176,0.040861044,-0.068101734,0.095342435,2017-06-12 23:58:38,78.67445571427973
5.631162,5.9567738,-5.3247046,5.0,5.5162406,6.115536,-5.3119354,0.19068487,-0.2043052,-0.013620348,2017-06-12 23:58:39,77.96644189058293
5.66947,5.947197,-5.2289367,5.0,5.611583,6.0065737,-5.339176,0.17706451,-0.13620347,0.10896278,2017-06-12 23:58:40,75.8269193560193
5.7748146,5.8705826,-5.257667,5.0,5.652444,5.979333,-5.325556,0.14982383,-0.12258312,0.12258312,2017-06-12 23:58:41,73.0959210820952
5.803545,5.8226986,-5.209783,5.0,5.720546,5.938472,-5.3119354,0.095342435,-0.12258312,0.10896278,2017-06-12 23:58:42,71.63547776247019
5.6886234,5.8705826,-5.439626,5.0,5.7750273,5.88399,-5.3119354,-0.095342435,0.0,0.08172209,2017-06-12 23:58:43,67.05723805037113
5.813122,5.803545,-5.353435,5.0,5.802268,5.856749,-5.298315,-0.05448139,-0.027240695,-0.095342435,2017-06-12 23:58:44,69.13899027483924
5.746084,5.841852,-5.2289367,5.0,5.7886477,5.8703694,-5.3119354,-0.13620347,0.013620348,-0.14982383,2017-06-12 23:58:45,73.6911619627193
5.707777,5.8705826,-5.257667,5.0,5.761407,5.9112306,-5.298315,-0.08172209,-0.027240695,-0.05448139,2017-06-12 23:58:46,64.49930400982494
6.0142345,5.66947,-5.4779334,5.0,5.761407,5.89761,-5.298315,0.27240694,-0.068101734,0.58567494,2017-06-12 23:58:47,72.73502881928886
5.6982,5.841852,-5.3247046,5.0,5.802268,5.9112306,-5.2438335,-0.027240695,-0.10896278,-0.16344418,2017-06-12 23:58:48,72.988629526436
5.8322754,5.7365074,-5.4204726,5.0,5.7886477,5.9112306,-5.2710743,-0.027240695,-0.095342435,-0.13620347,2017-06-12 23:58:50,73.12277363114254
5.746084,5.947197,-5.2002063,5.0,5.802268,5.8431287,-5.3119354,0.068101734,-0.05448139,-0.027240695,2017-06-12 23:58:51,78.37337922763157
5.8801594,5.841852,-5.046977,5.0,5.8703694,5.815888,-5.2710743,0.13620347,-0.068101734,0.040861044,2017-06-12 23:58:52,61.1166448380386
6.167464,5.650316,-5.0661306,5.0,6.020194,5.761407,-5.175732,0.068101734,-0.08172209,0.14982383,2017-06-12 23:58:53,78.24112585464044
6.1770406,5.6215854,-5.1140146,5.0,6.101916,5.7069254,-5.134871,0.12258312,-0.10896278,0.16344418,2017-06-12 23:58:54,71.7566387085006
6.3111157,5.5737014,-4.9799395,5.0,6.2108784,5.652444,-5.0667696,0.08172209,-0.095342435,0.08172209,2017-06-12 23:58:55,72.58930543147083
5.650316,5.9567738,-5.171476,5.0,6.2244987,5.638824,-5.0531487,-0.38136974,0.23154591,-0.05448139,2017-06-12 23:58:56,68.86999283741694
5.90889,5.803545,-5.161899,5.0,5.9929533,5.7750273,-5.175732,-0.10896278,0.05448139,-0.08172209,2017-06-12 23:58:57,73.94465802527742
6.0142345,5.7748146,-5.0278234,5.0,5.979333,5.802268,-5.175732,0.0,0.0,0.095342435,2017-06-12 23:58:58,69.73338953794206
5.9759274,5.7365074,-5.046977,5.0,6.033814,5.7750273,-5.134871,0.17706451,-0.13620347,0.10896278,2017-06-12 23:58:59,77.79027312968852
6.157887,5.6407394,-5.085284,5.0,6.074675,5.7477865,-5.1212506,0.013620348,-0.040861044,0.068101734,2017-06-12 23:59:00,79.2660465609119
6.205771,5.602432,-5.046977,5.0,6.101916,5.7069254,-5.134871,0.24516624,-0.24516624,0.16344418,2017-06-12 23:59:01,76.52143820277519
5.93762,5.793968,-5.1906295,5.0,6.101916,5.7069254,-5.1212506,-0.095342435,0.068101734,0.14982383,2017-06-12 23:59:02,62.92420991619661
5.947197,5.7748146,-5.094861,5.0,6.115536,5.7069254,-5.1212506,-0.16344418,0.10896278,0.14982383,2017-06-12 23:59:03,72.15233435421555
6.0046577,5.851429,-5.1906295,5.0,6.033814,5.7750273,-5.134871,-0.19068487,0.068101734,0.0,2017-06-12 23:59:04,77.78736322414893
4.673482,6.6271505,-5.6982,5.0,5.88399,5.8703694,-5.1893525,-1.1849703,0.70825803,-0.068101734,2017-06-12 23:59:05,73.32848893207752
4.271256,6.7612257,-5.8322754,5.0,5.0395284,6.469665,-5.366417,-1.0079057,0.4086104,-0.28602728,2017-06-12 23:59:06,76.4812998068321
4.951209,6.4164605,-5.6215854,5.0,4.4810944,6.782933,-5.47538,0.28602728,-0.23154591,0.10896278,2017-06-12 23:59:07,70.51782875570336
4.9416323,6.493075,-5.48751,5.0,4.767122,6.565007,-5.50262,0.17706451,-0.12258312,-0.08172209,2017-06-12 23:59:09,61.75766058410697
5.0374002,6.3685765,-5.4779334,5.0,4.903325,6.4560447,-5.5162406,0.068101734,-0.05448139,-0.08172209,2017-06-12 23:59:10,71.8890636307919
5.0278234,6.3685765,-5.497087,5.0,4.985047,6.387943,-5.5162406,0.013620348,-0.027240695,0.17706451,2017-06-12 23:59:11,77.17261926538055
5.1810527,6.1866174,-5.449203,5.0,5.0531487,6.3334613,-5.5162406,0.08172209,-0.12258312,0.040861044,2017-06-12 23:59:12,71.29286955346318
5.2002063,6.1195793,-5.544971,5.0,5.175732,6.238119,-5.50262,-0.013620348,-0.12258312,-0.05448139,2017-06-12 23:59:13,73.65955356331818
5.2385135,6.090849,-5.497087,5.0,5.2438335,6.1563973,-5.5434813,0.05448139,-0.10896278,-0.10896278,2017-06-12 23:59:14,74.08101842529001
5.2768207,6.033388,-5.554548,5.0,5.2846947,6.115536,-5.5434813,0.013620348,0.05448139,0.35412902,2017-06-12 23:59:15,66.51122755963237
5.4300494,6.042965,-5.4779334,5.0,5.393657,6.0882955,-5.47538,0.08172209,-0.05448139,0.040861044,2017-06-12 23:59:16,42.78017391020167
5.449203,6.033388,-5.3438582,5.0,5.448139,6.0610547,-5.434519,-0.027240695,-0.013620348,-0.027240695,2017-06-12 23:59:17,75.46402443074666
5.497087,5.9759274,-5.391742,5.0,5.47538,6.0610547,-5.4208984,0.0,-0.040861044,0.027240695,2017-06-12 23:59:18,77.2210136362452
6.0142345,5.7843914,-5.391742,5.0,5.5162406,6.033814,-5.4208984,0.46309182,-0.2043052,0.57205456,2017-06-12 23:59:19,64.65314000741158
5.142745,6.0238113,-5.7843914,5.0,5.5571017,5.9929533,-5.407278,-0.027240695,-0.05448139,-0.38136974,2017-06-12 23:59:20,45.37339847989532
6.8665705,5.755661,-4.0318356,5.0,5.924851,6.1700177,-4.7943625,0.95342433,-0.43585113,0.84446156,2017-06-12 23:59:21,57.94486228744324
6.339846,5.5641246,-4.807557,5.0,6.7556925,5.856749,-4.0180025,-0.42223078,-0.27240694,-0.8580819,2017-06-12 23:59:22,73.37103764293731
6.042965,5.5737014,-5.2768207,5.0,6.3470817,5.638824,-4.9169455,-0.28602728,-0.08172209,-0.42223078,2017-06-12 23:59:23,78.82859831892361
6.0142345,5.497087,-5.410896,5.0,6.0474343,5.570722,-5.325556,-0.05448139,-0.08172209,-0.095342435,2017-06-12 23:59:24,72.82789362169146
6.0621185,5.3725886,-5.4683566,5.0,6.020194,5.50262,-5.434519,0.027240695,-0.12258312,-0.10896278,2017-06-12 23:59:25,77.95260392694016
6.090849,5.410896,-5.401319,5.0,6.033814,5.448139,-5.47538,0.12258312,-0.08172209,0.05448139,2017-06-12 23:59:26,45.9124211645366
6.1004257,5.391742,-5.439626,5.0,6.1291566,5.4208984,-5.393657,0.013620348,-0.027240695,0.068101734,2017-06-12 23:59:28,54.16425688525055
6.215348,5.3438582,-5.353435,5.0,6.1291566,5.4208984,-5.393657,0.068101734,-0.040861044,0.068101734,2017-06-12 23:59:29,71.53684421266634
6.244078,5.2959743,-5.3247046,5.0,6.1563973,5.407278,-5.393657,0.08172209,-0.068101734,0.13620347,2017-06-12 23:59:30,78.72287253371024
6.1866174,5.3725886,-5.3342814,5.0,6.197258,5.3800373,-5.366417,0.0,-0.05448139,-0.027240695,2017-06-12 23:59:31,43.755894347001984
6.196194,5.3247046,-5.3725886,5.0,6.197258,5.366417,-5.366417,0.040861044,-0.05448139,0.040861044,2017-06-12 23:59:32,70.68645840882387
6.244078,5.3438582,-5.267244,5.0,6.2108784,5.366417,-5.366417,-0.013620348,-0.040861044,0.013620348,2017-06-12 23:59:33,76.82279610655274
6.215348,5.3247046,-5.2863975,5.0,6.2244987,5.3527966,-5.366417,0.0,-0.040861044,0.0,2017-06-12 23:59:34,71.59190951191006
6.1866174,5.3725886,-5.2863975,5.0,6.2517395,5.339176,-5.339176,-0.013620348,0.0,0.040861044,2017-06-12 23:59:35,69.54399337806211
6.253655,5.2480903,-5.535394,5.0,6.26536,5.366417,-5.298315,-0.095342435,0.040861044,0.095342435,2017-06-12 23:59:36,70.38536218631207
6.1100025,5.5258174,-5.2959743,5.0,6.238119,5.366417,-5.325556,-0.08172209,0.14982383,0.19068487,2017-06-12 23:59:37,79.31863232331264
6.703765,5.1906295,-4.9224787,5.0,6.2517395,5.4208984,-5.257454,0.36774936,-0.2043052,0.43585113,2017-06-12 23:59:38,72.91631892991971
6.339846,5.353435,-5.142745,5.0,6.3334613,5.4208984,-5.1484914,0.10896278,-0.095342435,0.12258312,2017-06-12 23:59:39,77.66804737421135
6.339846,5.315128,-5.085284,5.0,6.3470817,5.4208984,-5.134871,0.08172209,-0.13620347,0.10896278,2017-06-12 23:59:40,77.60000111891803
6.493075,5.2002063,-4.9416323,5.0,6.3743224,5.3800373,-5.1484914,0.095342435,-0.16344418,0.13620347,2017-06-12 23:59:41,75.63668650386306
7.7572136,4.7022123,-3.8498764,5.0,6.592248,5.2438335,-5.0122876,0.7763598,-0.47671217,1.0487667,2017-06-12 23:59:42,77.44874370249077
7.2209125,5.142745,-4.003105,5.0,7.2051635,5.025908,-4.358511,0.2043052,-0.013620348,0.28602728,2017-06-12 23:59:43,78.96504391404412
5.889736,6.042965,-4.912902,5.0,7.0825806,5.2302136,-4.3040295,-1.0760074,0.7627395,-0.58567494,2017-06-12 23:59:44,76.344842025846
6.196194,6.349423,-4.2904096,5.0,6.0065737,6.074675,-4.807983,0.4086104,0.28602728,0.99428535,2017-06-12 23:59:46,71.51963854623986
7.680599,6.2249246,-2.566584,5.0,5.7750273,6.4969053,-4.5219555,1.607201,-0.23154591,2.233737,2017-06-12 23:59:47,77.82603535060355
6.7324953,7.0581064,-4.9895163,5.0,6.2926006,6.428804,-3.9090397,1.7297841,0.12258312,0.55843425,2017-06-12 23:59:48,78.3458559155274
8.350976,4.55856,3.5434184,11.0,6.469665,7.3686085,-0.05448139,2.3426998,-2.7649305,3.2552629,2017-06-12 23:59:49,78.17473906526196
2.9592333,7.776367,-2.4133554,8.0,6.7148314,6.1700177,3.6366327,-2.5197642,1.6889231,-5.434519,2017-06-12 23:59:50,73.64519026808797
-5.2289367,7.7093296,1.7238252,11.0,2.7921712,9.329938,-1.1985906,-8.090487,-1.4573771,3.6230123,2017-06-12 23:59:51,70.78236933500236
-4.8267107,5.506664,6.9719152,48.0,-5.2710743,8.253931,0.6810174,0.95342433,-1.334794,7.9134216,2017-06-12 23:59:52,77.02629614507258
0.6512229,3.1986535,9.595961,45.0,-5.1893525,6.469665,5.257454,4.971427,-3.0373375,3.800077,2017-06-12 23:59:53,74.51836641399575
0.32561144,0.89064306,9.864111,8.0,-1.0215261,3.8545582,8.962189,0.2043052,-2.547005,0.58567494,2017-06-12 23:59:54,77.76009772809573
2.7485435,-0.78529817,10.036493,14.0,1.0215261,0.6537767,9.738548,1.375655,-1.375655,-0.16344418,2017-06-12 23:59:55,71.95854412845443
0.6991069,-1.1587936,9.825804,11.0,1.9340893,-0.667397,9.588725,-0.84446156,-0.4086104,1.0079057,2017-06-12 23:59:56,75.57557022478593
-1.1204864,-0.23942018,9.624691,14.0,0.87170225,-0.74911916,9.738548,-1.879608,0.3405087,0.35412902,2017-06-12 23:59:57,73.42183934273612
0.37349546,-2.0494366,10.0269165,17.0,-0.47671217,-0.5448139,9.79303,0.38136974,-1.293933,0.36774936,2017-06-12 23:59:58,72.92713723941345
0.90979666,-2.5570073,9.557653,14.0,0.040861044,-1.4982383,9.697687,0.98066497,-0.8853226,0.24516624,2017-06-12 23:59:59,69.02464337579711
0.90979666,-3.5529952,9.260772,19.0,0.7218784,-2.6423473,9.425281,0.12258312,-0.939804,-0.068101734,2017-06-13 00:00:00,57.30799910953792
1.13964,-3.1316159,9.557653,17.0,0.8853226,-3.296124,9.193734,0.23154591,0.013620348,0.24516624,2017-06-13 00:00:01,62.13415044001071
1.532289,-2.6144683,9.615114,14.0,1.0351465,-3.13268,9.234595,0.013620348,0.13620347,0.31326798,2017-06-13 00:00:02,75.397769274717
0.9959879,-1.8483237,9.969456,11.0,1.1849703,-2.5606253,9.39804,0.068101734,0.47671217,0.16344418,2017-06-13 00:00:03,78.42251436050134
0.4309563,-1.9536686,9.864111,11.0,0.939804,-1.9749503,9.561484,-0.5448139,0.24516624,0.28602728,2017-06-13 00:00:04,76.85852105221124
0.9959879,-0.5267244,9.9790325,11.0,0.8989429,-1.3892754,9.670446,-0.25878662,1.0079057,0.28602728,2017-06-13 00:00:05,77.74471874165971
-0.1340753,-0.047884032,10.113108,11.0,1.2258313,-0.70825803,9.711308,-0.83084124,0.23154591,0.27240694,2017-06-13 00:00:06,52.5967420055872
0.1340753,0.05746084,10.1226845,11.0,0.31326798,-0.35412902,9.80665,-0.14982383,0.35412902,0.31326798,2017-06-13 00:00:08,56.863426442582096
0.12449849,0.05746084,10.103531,14.0,0.027240695,0.05448139,9.80665,0.095342435,-0.013620348,0.31326798,2017-06-13 00:00:09,74.3500817684375
0.12449849,0.076614454,10.103531,11.0,0.095342435,0.05448139,9.80665,0.013620348,0.0,0.31326798,2017-06-13 00:00:10,78.13966736706472
0.12449849,0.05746084,10.103531,11.0,0.095342435,0.05448139,9.80665,0.027240695,0.0,0.31326798,2017-06-13 00:00:11,45.31591467754509
0.12449849,0.06703765,10.113108,14.0,0.095342435,0.05448139,9.80665,0.013620348,0.0,0.29964766,2017-06-13 00:00:12,72.38003589101785
0.12449849,0.06703765,10.093954,14.0,0.095342435,0.05448139,9.80665,0.027240695,0.0,0.29964766,2017-06-13 00:00:13,75.79821029009315
0.12449849,0.076614454,10.113108,14.0,0.095342435,0.05448139,9.80665,0.013620348,0.0,0.31326798,2017-06-13 00:00:14,61.15471382039754
0.12449849,0.05746084,10.1226845,14.0,0.095342435,0.05448139,9.80665,0.013620348,0.0,0.31326798,2017-06-13 00:00:15,73.48376476539339
0.12449849,0.076614454,10.113108,14.0,0.095342435,0.05448139,9.80665,0.013620348,0.0,0.29964766,2017-06-13 00:00:16,75.35857981272821
0.11492168,0.06703765,10.113108,14.0,0.095342435,0.05448139,9.80665,0.027240695,0.013620348,0.29964766,2017-06-13 00:00:17,71.34878547194629
0.12449849,0.08619126,10.103531,14.0,0.10896278,0.05448139,9.80665,0.0,0.013620348,0.28602728,2017-06-13 00:00:18,76.9988766680694
0.12449849,0.06703765,10.093954,14.0,0.10896278,0.05448139,9.80665,0.0,0.013620348,0.29964766,2017-06-13 00:00:19,72.40273214131321
0.12449849,0.06703765,10.093954,14.0,0.10896278,0.05448139,9.80665,0.0,0.0,0.27240694,2017-06-13 00:00:20,66.14649267178243
0.1340753,0.05746084,10.084377,14.0,0.10896278,0.05448139,9.80665,0.013620348,0.0,0.28602728,2017-06-13 00:00:21,76.80980640224807
0.12449849,0.06703765,10.0748005,11.0,0.10896278,0.05448139,9.80665,0.0,0.0,0.27240694,2017-06-13 00:00:22,74.41555960418657
0.12449849,0.05746084,10.0748005,11.0,0.10896278,0.05448139,9.80665,0.013620348,0.0,0.27240694,2017-06-13 00:00:23,70.20504458960134
0.11492168,0.076614454,10.065224,14.0,0.10896278,0.05448139,9.80665,0.0,0.0,0.25878662,2017-06-13 00:00:24,71.60656771850898
0.1340753,0.06703765,10.084377,14.0,0.10896278,0.05448139,9.80665,0.013620348,0.0,0.27240694,2017-06-13 00:00:25,64.05091848479087
0.12449849,0.05746084,10.0748005,14.0,0.095342435,0.05448139,9.80665,0.027240695,-0.013620348,0.25878662,2017-06-13 00:00:26,75.72195417806513
0.11492168,0.06703765,10.084377,14.0,0.095342435,0.068101734,9.80665,0.027240695,-0.013620348,0.27240694,2017-06-13 00:00:28,76.64889897018219
0.11492168,0.06703765,10.084377,14.0,0.095342435,0.068101734,9.80665,0.027240695,-0.013620348,0.27240694,2017-06-13 00:00:29,73.26633670983131
0.12449849,0.06703765,10.084377,14.0,0.095342435,0.068101734,9.80665,0.027240695,-0.013620348,0.27240694,2017-06-13 00:00:30,78.04628767688791
0.1340753,0.05746084,10.0748005,14.0,0.095342435,0.068101734,9.80665,0.027240695,-0.013620348,0.27240694,2017-06-13 00:00:31,72.98735324666539
0.12449849,0.05746084,10.093954,14.0,0.095342435,0.068101734,9.80665,0.013620348,-0.013620348,0.27240694,2017-06-13 00:00:32,75.83627789132991
0.12449849,0.05746084,10.093954,14.0,0.095342435,0.068101734,9.80665,0.013620348,-0.013620348,0.27240694,2017-06-13 00:00:33,75.66054077231038
0.11492168,0.06703765,10.084377,14.0,0.10896278,0.068101734,9.80665,0.013620348,0.013620348,0.28602728,2017-06-13 00:00:34,72.61410305257041
0.11492168,0.076614454,10.084377,14.0,0.10896278,0.068101734,9.80665,0.027240695,-0.013620348,0.28602728,2017-06-13 00:00:35,68.08942441131362
0.11492168,0.05746084,10.103531,14.0,0.095342435,0.068101734,9.80665,0.027240695,-0.013620348,0.28602728,2017-06-13 00:00:36,72.61818371118076
0.12449849,0.06703765,10.103531,14.0,0.095342435,0.05448139,9.80665,0.013620348,0.0,0.28602728,2017-06-13 00:00:37,77.58254357992358
0.11492168,0.05746084,10.084377,14.0,0.095342435,0.068101734,9.80665,0.027240695,-0.013620348,0.28602728,2017-06-13 00:00:38,74.97225202872903
0.12449849,0.05746084,10.0748005,14.0,0.08172209,0.068101734,9.80665,0.027240695,-0.013620348,0.27240694,2017-06-13 00:00:39,65.00283075295756