ACC_X,ACC_Y,ACC_Z,GYRO_X,GYRO_Y,GYRO_Z,LIGH_1,GRAV_X,GRAV_Y,GRAV_Z,LINACC_X,LINACC_Y,LINACC_Z,ROTVEC_X,ROTVEC_Y,ROTVEC_Z,TIME,VOICE
0.0,0.0,0.0,0.0,0.0,0.0,41.0,0.0,0.0,0.0,0.0,0.0,0.0,0.0,0.0,0.0,2017-03-13 12:30:30,34.641419653422226
0.25683594,-0.05343628,9.659836,4.4250488E-4,-1.0681152E-4,-8.087158E-4,40.0,0.24899673,-0.055234235,9.803333,0.0038304888,-0.014373193,0.16012721,-0.012363476,-0.0039811297,-0.8664389,2017-03-13 12:30:31,42.33727770416718
0.24964905,-0.04386902,9.645462,2.4414063E-4,3.0517578E-4,-0.0010070801,41.0,0.24925569,-0.044042554,9.803384,0.0040894453,-0.0031815106,0.16017792,-0.012108293,-0.0044112653,-0.86984414,2017-03-13 12:30:32,62.469172932592215
0.25642395,-0.04826355,9.654236,3.0517578E-5,3.0517578E-4,-0.0012054443,41.0,0.25080714,-0.038345926,9.803368,0.0056408704,-0.011105231,0.16016212,-0.011883071,-0.0048328177,-0.8704739,2017-03-13 12:30:33,72.09301449628536
0.24964905,-0.057434082,9.655838,6.4086914E-4,-3.0517578E-4,-0.0012054443,41.0,0.24913777,-0.045170646,9.803381,0.003971528,0.009310742,0.14655508,-0.012159071,-0.0043491763,-0.86558694,2017-03-13 12:30:34,62.08917266665149
0.2632141,-0.04586792,9.652252,8.544922E-4,-5.0354004E-4,-8.087158E-4,40.0,0.24220975,-0.038693745,9.803583,-0.002956512,0.0021673,0.14675708,-0.012045213,-0.004603054,-0.8684951,2017-03-13 12:30:35,67.95599019901414
0.24765015,-0.05303955,9.662216,4.4250488E-4,3.0517578E-4,1.5258789E-5,41.0,0.25470385,-0.042849403,9.803248,0.009537605,-0.0019883616,0.16004242,-0.012182328,-0.004488112,-0.8687996,2017-03-13 12:30:36,68.56535829459186
0.24765015,-0.05583191,9.663422,3.0517578E-5,3.0517578E-4,-3.9672852E-4,44.0,0.24899669,-0.048240904,9.8033695,0.0038304368,0.0062404824,0.14654343,-0.012270131,-0.004136946,-0.8655771,2017-03-13 12:30:37,53.59820496906715
0.25323486,-0.061416626,9.656235,8.544922E-4,-3.0517578E-4,0.0,45.0,0.2489496,-0.042115465,9.803399,-0.00983701,0.012365924,0.16019288,-0.012387245,-0.004336569,-0.8674748,2017-03-13 12:30:38,65.37992031789302
0.2301178,-0.13000488,9.661026,-0.05168152,0.017822266,0.0010223389,45.0,0.24296074,-0.05985864,9.803458,0.025035176,0.035483792,0.14663155,-0.012756607,-0.0016345079,-0.8683965,2017-03-13 12:30:39,71.37070128943891
0.04866028,-0.27676392,9.585648,-0.0056762695,-0.0031433105,0.27589417,44.0,0.14050448,-0.40668017,9.797207,0.031541698,0.01555062,0.15400037,-0.017075192,0.014441811,-0.8453335,2017-03-13 12:30:40,66.86816620261733
0.9730835,-1.0656128,9.582855,-0.20419312,-0.49508667,0.3123474,44.0,0.46666047,-0.7311153,9.768219,-0.43228248,0.11334623,0.17949446,-0.045514867,0.015098272,-0.8130243,2017-03-13 12:30:41,55.89253174247149
-0.20419312,-2.742981,9.150162,0.6100769,-0.31752014,1.0189056,40.0,0.26098406,-3.5000901,9.157055,0.38356718,-0.6534375,0.017801888,-0.14411223,0.10265992,-0.6101034,2017-03-13 12:30:42,55.772578493657406
0.15592957,-0.013168335,9.663422,0.0022735596,-0.0031433105,-1.9836426E-4,42.0,0.13850206,-0.011200473,9.805667,-0.011321761,0.0024198743,0.14884037,-0.004543419,-0.006081419,-0.5511692,2017-03-13 12:30:43,63.79212176907153
0.14317322,-0.003189087,9.662216,6.4086914E-4,0.0021362305,2.1362305E-4,41.0,0.13654165,1.7226753E-6,9.8057,3.381784E-4,1.7226753E-6,0.14887363,-0.0039720307,-0.0057685,-0.5671277,2017-03-13 12:30:44,71.84407739448955
0.13000488,-0.003189087,9.660217,3.0517578E-5,1.0681152E-4,8.239746E-4,42.0,0.12447525,1.80963E-5,9.805861,0.0018921233,1.80963E-5,0.1490349,-0.0037452292,-0.005123718,-0.59016716,2017-03-13 12:30:45,52.877973016150094
0.11685181,0.0023956299,9.6514435,-3.6621094E-4,5.0354004E-4,6.1035156E-4,45.0,0.113358155,1.2575032E-5,9.805995,0.004395384,1.2575032E-5,0.16278909,-0.0032456568,-0.0047058486,-0.56779367,2017-03-13 12:30:46,67.75084935105593
0.117248535,0.02671814,9.657837,3.0517578E-5,-9.1552734E-5,-3.9672852E-4,16.0,0.11710985,0.005727779,9.80595,-0.0054732813,-0.007892569,0.14912385,-0.0031233057,-0.005125813,-0.58316183,2017-03-13 12:30:47,53.620290498870546
0.12483215,0.0143585205,9.651459,1.5258789E-4,-2.2888184E-4,1.373291E-4,16.0,0.115887664,8.706878E-5,9.805965,-0.0066954647,-0.013533278,0.16275999,-0.0033006486,-0.0048559983,-0.5753433,2017-03-13 12:30:48,63.123495327927486
0.11885071,0.01914978,9.637894,-2.593994E-4,-6.2561035E-4,1.373291E-4,14.0,0.11386934,1.672949E-4,9.805989,0.0049065547,-0.013453051,0.19002397,-0.003261525,-0.0048659514,-0.56568015,2017-03-13 12:30:49,69.16101346196231
0.11405945,0.013961792,9.661026,-4.5776367E-5,-3.0517578E-5,1.373291E-4,13.0,0.10962356,0.0026545653,9.806036,0.014281129,-0.010965781,0.1492103,-0.0030452746,-0.004635206,-0.5686686,2017-03-13 12:30:50,71.19314659281471
0.114852905,0.0135650635,9.662216,-4.5776367E-4,-2.2888184E-4,-4.7302246E-4,13.0,0.11063773,0.010291145,9.806021,0.001674954,0.010291145,0.14919451,-0.0027537746,-0.0049531027,-0.56717867,2017-03-13 12:30:51,70.56583336104059
0.114852905,0.003982544,9.667007,-2.593994E-4,-0.0010375977,5.493164E-4,17.0,0.10974199,0.005889047,9.806035,7.792196E-4,0.005889047,0.1355883,-0.0029436126,-0.0047888793,-0.5614142,2017-03-13 12:30:52,71.12208073782811
0.11047363,0.023925781,9.640686,-2.593994E-4,-8.392334E-4,9.460449E-4,17.0,0.11438373,0.0020396386,9.805984,0.005420947,-0.011580708,0.1491571,-0.0030297907,-0.0048646787,-0.5551331,2017-03-13 12:30:53,75.01055143443372
0.10887146,0.014755249,9.625931,-6.5612793E-4,-6.2561035E-4,-6.1035156E-5,18.0,0.105875194,0.017753521,9.806062,-0.0030875811,0.017753521,0.21733782,-0.0024598767,-0.004847131,-0.56892407,2017-03-13 12:30:54,65.60775998036888
0.119644165,0.020339966,9.668594,2.746582E-4,-8.087158E-4,-1.0681152E-4,31.0,0.14927052,-0.002184297,9.805515,0.053928085,-0.015804645,0.16230859,-0.0036163004,-0.005716767,-0.55329984,2017-03-13 12:30:55,71.71922622757411
0.10647583,0.0071868896,9.653442,-3.3569336E-4,-1.9836426E-4,-7.171631E-4,37.0,0.10023423,0.0010323927,9.806139,0.0048918054,0.0010323927,0.1629329,-0.0027785457,-0.0042077494,-0.55618954,2017-03-13 12:30:56,73.82329803372082
0.107681274,0.008773804,9.654236,-3.3569336E-4,-1.9836426E-4,1.0681152E-4,40.0,0.10324179,0.006292279,9.806106,0.007899352,0.006292279,0.14927931,-0.0027089114,-0.004438477,-0.5616038,2017-03-13 12:30:57,57.292963671650334
0.102890015,0.009170532,9.653046,6.866455E-4,-1.9836426E-4,-1.0681152E-4,21.0,0.10590026,0.0036433572,9.806078,0.010557823,0.0036433572,0.16287223,-0.0028614423,-0.004448502,-0.5583109,2017-03-13 12:30:58,70.29311665433175
0.110076904,0.008377075,9.653046,8.8500977E-4,-4.119873E-4,7.019043E-4,26.0,0.0983348,0.004942932,9.806156,-0.0106279785,-0.008677416,0.16295037,-0.0027517057,-0.004404218,-0.566999,2017-03-13 12:30:59,74.21733496196241
0.11326599,0.018341064,9.653839,4.7302246E-4,3.9672852E-4,-3.0517578E-4,25.0,0.10545989,0.013860578,9.806074,-0.003502884,2.4023038E-4,0.16286807,-0.0023752248,-0.00483123,-0.5551023,2017-03-13 12:31:00,65.54933961521502
0.114852905,0.022338867,9.6414795,-3.0517578E-5,3.0517578E-5,-5.187988E-4,23.0,0.10530148,0.008296601,9.806082,-0.0036613024,-0.0053237467,0.1220145,-0.0024996349,-0.0048091346,-0.5536782,2017-03-13 12:31:01,71.03389005008977
0.108078,0.01675415,9.661026,1.8310547E-4,3.0517578E-5,-5.187988E-4,32.0,0.09736267,0.0043807747,9.806168,0.002020231,0.0043807747,0.14934082,-0.0024957624,-0.004283093,-0.5619842,2017-03-13 12:31:02,68.85595521300607
0.11326599,0.018341064,9.659027,-6.4086914E-4,2.2888184E-4,2.89917E-4,20.0,0.101697594,0.0134551525,9.806113,-0.0072651915,-1.6519483E-4,0.16290797,-0.0024345678,-0.004683257,-0.5740743,2017-03-13 12:31:03,64.57500635076917
0.110076904,0.005584717,9.6466675,-3.0517578E-5,4.272461E-4,-1.0681152E-4,23.0,0.102215186,0.0053283456,9.806116,0.0068727564,0.0053283456,0.16290964,-0.0027223874,-0.0044377386,-0.56449974,2017-03-13 12:31:04,61.42534721131932
0.110076904,0.005584717,9.654648,1.8310547E-4,-7.9345703E-4,3.0517578E-4,43.0,0.100476496,0.0015524568,9.806135,0.0051340703,0.0015524568,0.16292958,-0.002883881,-0.004371966,-0.55777156,2017-03-13 12:31:05,60.413386047254434
0.115249634,0.018753052,9.663422,1.8310547E-4,1.5258789E-5,9.1552734E-5,13.0,0.102041654,0.012944027,9.80611,0.006699225,-6.763211E-4,0.1492843,-0.0024035042,-0.0047070906,-0.5656433,2017-03-13 12:31:06,66.02743784288717
0.104888916,0.018341064,9.66301,-4.272461E-4,6.2561035E-4,-7.171631E-4,40.0,0.105196275,0.01201254,9.806079,0.009853838,-0.0016078078,0.1492527,-0.0024987413,-0.004845816,-0.56323284,2017-03-13 12:31:07,69.0783853864734
0.110076904,0.017150879,9.64946,1.8310547E-4,2.2888184E-4,-5.187988E-4,29.0,0.09732563,0.0010207571,9.806168,0.0019832049,0.0010207571,0.16296117,-0.002727386,-0.004159254,-0.56151265,2017-03-13 12:31:08,70.70582093040971
0.112457275,0.021942139,9.687744,-0.0010375977,-7.9345703E-4,9.1552734E-4,41.0,0.10459898,0.0069534765,9.80609,-0.0071506905,-0.010313591,0.1492951,-0.0027797332,-0.004464055,-0.5689563,2017-03-13 12:31:09,61.315549764198416
0.105285645,0.010375977,9.659424,-8.392334E-4,3.0517578E-5,3.0517578E-4,26.0,0.10132483,0.0020345359,9.806127,0.005982393,0.0020345359,0.16292043,-0.0027645559,-0.0042343293,-0.5769681,2017-03-13 12:31:10,73.84139353482139
0.10449219,0.0011901855,9.658234,-4.272461E-4,3.0517578E-5,2.89917E-4,17.0,0.10324179,4.5441533E-4,9.806107,0.007899352,4.5441533E-4,0.16290049,-0.002845076,-0.0042399536,-0.5590891,2017-03-13 12:31:11,71.15119949059317
0.1060791,0.006378174,9.644669,3.8146973E-4,2.2888184E-4,-1.0681152E-4,17.0,0.1095678,0.013579274,9.806029,0.0142253665,0.013579274,0.16282317,-0.0025895168,-0.0048739244,-0.5577315,2017-03-13 12:31:12,67.10590508640377
0.11166382,0.0071868896,9.655838,-3.0517578E-5,-3.8146973E-4,9.1552734E-4,10.0,0.10761504,0.009111676,9.806056,-0.0013477387,-0.0045086714,0.16284977,-0.0028384486,-0.004638706,-0.5880326,2017-03-13 12:31:13,70.94374450345708
0.10887146,0.007583618,9.65863,-4.272461E-4,-5.79834E-4,9.1552734E-5,9.0,0.104552515,0.009875501,9.8060875,0.009210078,0.009875501,0.1628822,-0.0028369843,-0.004498663,-0.5921438,2017-03-13 12:31:14,57.4731193149381
0.104888916,0.010772705,9.659027,1.8310547E-4,2.2888184E-4,2.89917E-4,13.0,0.10721177,0.012298801,9.806057,0.01186934,0.012298801,0.14923026,-0.002639929,-0.004661029,-0.5836492,2017-03-13 12:31:15,63.02416054359382
0.10409546,0.021133423,9.666214,-4.272461E-4,-7.9345703E-4,9.1552734E-4,26.0,0.107076816,0.013674407,9.806057,0.011734388,5.4060154E-5,0.13560991,-0.002430694,-0.004819806,-0.5622886,2017-03-13 12:31:16,67.51491570307071
0.10409546,0.015151978,9.66301,5.79834E-4,-1.8310547E-4,2.89917E-4,20.0,0.11047999,0.008149352,9.806025,0.015137559,-0.0054709953,0.14919867,-0.0026917513,-0.0048853117,-0.57084465,2017-03-13 12:31:17,71.39894447821672
0.11883545,0.013168335,9.682159,-2.2888184E-4,-1.8310547E-4,9.1552734E-5,25.0,0.10127341,0.013612334,9.806117,-0.0076893726,-8.013633E-6,0.14929095,-0.0023970497,-0.0048343437,-0.55683464,2017-03-13 12:31:18,72.65904481488565
0.11405945,0.006790161,9.654236,3.8146973E-4,1.5258789E-5,-7.171631E-4,22.0,0.11069511,0.010192388,9.806021,0.015352676,0.010192388,0.16281486,-0.0028174226,-0.0048182355,-0.5646836,2017-03-13 12:31:19,61.379160617657924
0.11645508,0.018341064,9.651459,5.79834E-4,3.0517578E-5,9.1552734E-5,16.0,0.110759936,0.008734566,9.806021,0.001797158,-0.0048857816,0.16281486,-0.0028273764,-0.0049259732,-0.585564,2017-03-13 12:31:20,70.51627527143766
0.11764526,0.016357422,9.663422,7.9345703E-4,-7.7819824E-4,7.171631E-4,33.0,0.10708595,0.0059739444,9.806065,-0.0018768349,-0.0076464037,0.14923774,-0.002733984,-0.004948086,-0.5739151,2017-03-13 12:31:21,74.65717126778819
0.11166382,0.015548706,9.652649,3.8146973E-4,-5.79834E-4,-1.0681152E-4,33.0,0.105347075,0.01234713,9.806077,0.010004638,-0.0012732169,0.14925104,-0.002478908,-0.0047821226,-0.57040644,2017-03-13 12:31:22,73.92228703450398
0.107681274,0.019943237,9.644272,-2.2888184E-4,-5.79834E-4,0.0015258789,28.0,0.10268287,0.00598513,9.80611,-0.0062799016,-0.007635217,0.17652498,-0.002684777,-0.0044107977,-0.5811393,2017-03-13 12:31:23,72.36978806067584
0.110076904,0.018341064,9.653442,9.918213E-4,-3.8146973E-4,9.1552734E-5,24.0,0.10084936,0.013383034,9.806123,-0.008113418,-2.3731345E-4,0.16291627,-0.002454401,-0.0046883062,-0.57712674,2017-03-13 12:31:24,73.66288102359961
0.10687256,0.011566162,9.659821,-2.2888184E-4,-9.918213E-4,5.0354004E-4,21.0,0.10673999,0.0070900107,9.806067,-0.0022227874,-0.0065303366,0.14924106,-0.0026094231,-0.004941834,-0.55017835,2017-03-13 12:31:25,71.02115038640714
0.11126709,0.021530151,9.655838,-4.272461E-4,-5.79834E-4,2.89917E-4,24.0,0.10152963,0.0026054976,9.806124,0.0061871964,-0.024635198,0.13567725,-0.0027745115,-0.0043498715,-0.5639151,2017-03-13 12:31:26,74.57865987688137
0.107681274,0.010375977,9.652649,1.8310547E-4,-7.9345703E-4,-3.0517578E-4,17.0,0.102619044,0.004822058,9.806112,0.007276616,-0.008798289,0.14928596,-0.0025809535,-0.004290724,-0.56910986,2017-03-13 12:31:27,43.09799680829503
0.11685181,0.010375977,9.6466675,5.79834E-4,3.0517578E-5,9.1552734E-5,19.0,0.10773242,0.0036608272,9.806058,-0.0012303536,-0.00995952,0.16285227,-0.0026970438,-0.0047261366,-0.57517946,2017-03-13 12:31:28,70.32030818116696
0.10926819,0.0051879883,9.655045,1.8310547E-4,-1.8310547E-4,9.1552734E-5,23.0,0.10107098,0.014816359,9.806119,-0.007891799,0.0011960114,0.1492926,-0.0022187878,-0.00469194,-0.56581277,2017-03-13 12:31:29,76.80530174527107
0.10966492,0.022338867,9.648254,-2.2888184E-4,-3.8146973E-4,2.89917E-4,35.0,0.109568775,0.0113227535,9.806031,6.059933E-4,-0.002297593,0.16282567,-0.0026386678,-0.0050270096,-0.56737494,2017-03-13 12:31:30,74.53803503447772
0.08934021,0.047851563,9.674988,-4.272461E-4,-5.79834E-4,2.89917E-4,39.0,0.11040309,0.009751289,9.806025,0.001440314,0.009751289,0.1628182,-0.0027284515,-0.0048630205,-0.55571187,2017-03-13 12:31:31,70.8528374080379
0.107284546,0.012771606,9.667007,-2.2888184E-4,-3.8146973E-4,-3.0517578E-4,36.0,0.09747592,0.0016725507,9.806166,0.002133492,-0.011947796,0.14933917,-0.0025426378,-0.004345307,-0.5529863,2017-03-13 12:31:32,74.06466531310602
0.10209656,0.0011901855,9.660614,5.79834E-4,-9.918213E-4,-1.0681152E-4,23.0,0.10525207,0.009949084,9.80608,0.00990964,0.009949084,0.14925353,-0.0026679975,-0.0045015137,-0.5607682,2017-03-13 12:31:33,70.9729425271573
0.10688782,0.013961792,9.652649,-4.272461E-4,-7.9345703E-4,7.019043E-4,31.0,0.10111779,0.012740489,9.806121,-0.007844992,0.012740489,0.16291545,-0.0025814008,-0.0045588794,-0.56618804,2017-03-13 12:31:34,71.35357973506835
0.10926819,0.015548706,9.653046,3.8146973E-4,-3.8146973E-4,-1.0681152E-4,32.0,0.09828254,0.0034401622,9.806157,-0.0106802415,-0.010180186,0.1629512,-0.0027170908,-0.004481482,-0.5555852,2017-03-13 12:31:35,66.97342255274081
0.11326599,0.01675415,9.653442,3.8146973E-4,2.2888184E-4,5.0354004E-4,31.0,0.11057442,0.0062284013,9.806025,0.0016116308,-0.0073919464,0.16281901,-0.0029415214,-0.0048293746,-0.5729876,2017-03-13 12:31:36,57.416413669600416
0.10887146,0.0143585205,9.64946,-6.4086914E-4,-5.79834E-4,7.019043E-4,30.0,0.10237156,0.004295386,9.806116,-0.0065912246,-0.009324961,0.16290964,-0.0028018414,-0.0043307436,-0.5726535,2017-03-13 12:31:37,74.8334336091323
0.11166382,0.008377075,9.654648,5.79834E-4,-3.8146973E-4,9.1552734E-5,29.0,0.106352255,0.00844981,9.806069,-0.0026105202,0.00844981,0.14924356,-0.0026712697,-0.0046350397,-0.56077784,2017-03-13 12:31:38,72.29629439188551
0.115249634,0.023529053,9.663818,1.8310547E-4,-1.8310547E-4,7.019043E-4,30.0,0.11036197,0.0064867064,9.806027,0.0013991896,-0.007133641,0.13558081,-0.0027944173,-0.0049131326,-0.5633465,2017-03-13 12:31:39,67.19204148272631
0.112075806,0.015960693,9.663818,-2.2888184E-4,-9.918213E-4,5.0354004E-4,33.0,0.11065662,0.013478963,9.806017,0.0016938405,0.013478963,0.16281153,-0.002992724,-0.0048008068,-0.5807886,2017-03-13 12:31:40,72.37130090605591
0.108078,0.0071868896,9.665009,-8.392334E-4,-5.79834E-4,2.89917E-4,33.0,0.10072911,0.0075664534,9.80613,0.0053866743,0.0075664534,0.1629246,-0.0026981703,-0.0041901534,-0.561784,2017-03-13 12:31:41,75.80066980898843
0.11206055,0.02154541,9.65863,-3.0517578E-5,-7.7819824E-4,3.0517578E-4,34.0,0.110422865,0.010024346,9.806024,0.0014600839,-0.0035960015,0.14919701,-0.0028644167,-0.0048736506,-0.5749133,2017-03-13 12:31:42,65.52682693874243
0.112472534,0.012756348,9.656631,-3.0517578E-5,-0.0011901855,5.0354004E-4,35.0,0.110593826,0.002729512,9.8060255,0.00163105,0.002729512,0.16281985,-0.003137912,-0.0046920334,-0.56675464,2017-03-13 12:31:43,71.69003391197556
0.11166382,0.0135650635,9.652649,-4.272461E-4,-3.8146973E-4,1.0681152E-4,37.0,0.098331474,0.0064106663,9.806156,-0.01063131,-0.007209681,0.16294953,-0.002517158,-0.0044285916,-0.5648021,2017-03-13 12:31:44,67.66908511229923
0.114852905,0.022338867,9.650253,-3.0517578E-5,-1.8310547E-4,5.0354004E-4,36.0,0.11072908,0.007855631,9.806022,0.0017662953,-0.0057647163,0.16281569,-0.0027285654,-0.0049696695,-0.5599497,2017-03-13 12:31:45,68.34034828989836
0.11405945,0.007583618,9.659424,9.918213E-4,-1.8310547E-4,5.0354004E-4,36.0,0.10227218,0.0042375172,9.806116,-0.0066906,0.0042375172,0.14929011,-0.0027872112,-0.0043549417,-0.5581447,2017-03-13 12:31:46,67.25348907680245
0.109680176,0.009979248,9.653046,1.8310547E-4,-7.7819824E-4,0.0011138916,36.0,0.09738677,0.006616646,9.806165,0.0020443392,0.006616646,0.16295868,-0.0025910777,-0.004233681,-0.569197,2017-03-13 12:31:48,72.58408065693537
0.112457275,0.018737793,9.657837,-3.0517578E-5,-3.8146973E-4,9.1552734E-4,37.0,0.10443307,0.008825179,9.80609,-0.004529707,-0.0047951676,0.1628847,-0.0025939855,-0.0047282795,-0.5557436,2017-03-13 12:31:49,75.60641570610815
0.107284546,0.0043945313,9.653442,-3.0517578E-5,3.0517578E-5,-1.0681152E-4,36.0,0.0980788,0.0025263277,9.806159,0.0027363678,0.0025263277,0.16295286,-0.0027405494,-0.0041487226,-0.5626546,2017-03-13 12:31:50,74.35325207228158
0.11166382,0.0047912598,9.651047,5.79834E-4,-7.9345703E-4,7.019043E-4,36.0,0.10619172,0.004621049,9.806075,-0.0027710625,0.004621049,0.16286889,-0.0030212381,-0.004618903,-0.5671302,2017-03-13 12:31:51,69.7464815347515
0.11206055,0.0143585205,9.6466675,5.79834E-4,-1.8310547E-4,9.1552734E-5,31.0,0.11043172,0.009095976,9.806025,0.0014689426,0.009095976,0.1628182,-0.0028875747,-0.0048552738,-0.5652315,2017-03-13 12:31:52,74.93372616654347
0.11286926,0.015151978,9.655838,-2.2888184E-4,-9.918213E-4,-3.0517578E-4,43.0,0.104501046,0.011643913,9.8060875,-0.0044617336,-0.0019764348,0.16288136,-0.0026031549,-0.0045692604,-0.5782863,2017-03-13 12:31:53,70.89956423732562
0.11564636,0.013168335,9.651459,1.8310547E-4,-1.8310547E-4,-7.171631E-4,36.0,0.10243707,0.0040091546,9.806113,-0.0061904117,-0.011550988,0.16290547,-0.002840171,-0.0043051606,-0.5717395,2017-03-13 12:31:54,69.72517273761525
0.108078,0.0067749023,9.650253,3.8146973E-4,3.0517578E-5,0.0011138916,9.0,0.10394319,0.015851429,9.8060875,0.008600758,0.015851429,0.16288136,-0.0023324604,-0.004833132,-0.5673087,2017-03-13 12:31:55,70.75506474717521
0.11843872,0.01675415,9.651855,1.8310547E-4,-3.8146973E-4,0.0011138916,11.0,0.10703252,0.010203713,9.806061,-0.0019302537,-0.0034166353,0.16285476,-0.002713946,-0.0048610913,-0.5633492,2017-03-13 12:31:56,67.42972002793596
0.115249634,0.007583618,9.651047,-2.2888184E-4,-7.9345703E-4,7.019043E-4,45.0,0.10008144,0.005778324,9.806137,-0.008881343,0.005778324,0.16293123,-0.002724874,-0.0045121065,-0.560204,2017-03-13 12:31:57,73.86501983000619
0.10847473,0.012359619,9.651459,-2.2888184E-4,3.0517578E-5,5.0354004E-4,38.0,0.10247349,8.6481145E-5,9.806115,0.0071310634,8.6481145E-5,0.16290879,-0.0030278144,-0.004289182,-0.57707286,2017-03-13 12:31:58,73.23449158035879
0.11126709,0.007980347,9.657837,-8.392334E-4,-0.0011901855,5.0354004E-4,40.0,0.10082444,0.010196743,9.806127,-0.008138344,-0.0034236046,0.16292043,-0.0026254212,-0.0046227495,-0.56744504,2017-03-13 12:31:59,68.94328267524281
0.10847473,0.01675415,9.643875,-3.0517578E-5,-5.79834E-4,-7.171631E-4,40.0,0.10176312,0.011009024,9.806116,0.0064206873,-0.0026113223,0.17653081,-0.002360032,-0.0045143277,-0.5713814,2017-03-13 12:32:00,71.16688001675344
0.109680176,0.012756348,9.642273,-4.5776367E-5,-7.9345703E-4,-7.6293945E-5,20.0,0.10662802,0.011785614,9.806064,-0.0023347493,0.011785614,0.16285726,-0.0027213774,-0.004714916,-0.56573266,2017-03-13 12:32:01,71.52204892186103
0.11685181,0.009567261,9.651855,1.5258789E-4,-3.9672852E-4,3.2043457E-4,12.0,0.10561126,0.0046081296,9.80608,-0.0033515184,0.0046081296,0.16287388,-0.0029404063,-0.004515616,-0.563254,2017-03-13 12:32:02,57.68669934624782
0.112457275,0.01675415,9.655441,3.6621094E-4,-1.8310547E-4,1.2207031E-4,40.0,0.10220867,0.009610633,9.806113,-0.0067541115,-0.004009715,0.16290714,-0.0026188004,-0.00471311,-0.5655303,2017-03-13 12:32:03,69.92639479432854
0.110076904,0.007980347,9.653839,1.5258789E-4,2.1362305E-4,7.324219E-4,15.0,0.11054652,0.006562092,9.806025,0.0015837426,0.006562092,0.16281901,-0.0030293034,-0.0047617806,-0.5671346,2017-03-13 12:32:04,69.8300146380217
0.11445618,0.025115967,9.661819,1.5258789E-4,-1.9836426E-4,1.2207031E-4,41.0,0.11077948,0.014171174,9.806014,0.0018166942,5.5082585E-4,0.14918786,-0.002608447,-0.005059976,-0.56606984,2017-03-13 12:32:05,69.30584728951784
0.11047363,0.013961792,9.65065,0.0011749268,8.239746E-4,-4.8828125E-4,12.0,0.10965382,0.006162974,9.806035,6.9104775E-4,-0.0074573737,0.162829,-0.0028261112,-0.0048802756,-0.56751776,2017-03-13 12:32:06,73.92402467057008
0.112457275,0.02432251,9.659821,3.6621094E-4,-1.8310547E-4,3.2043457E-4,30.0,0.10105868,0.006803205,9.806128,0.005716241,-0.02043749,0.14930092,-0.0022845592,-0.0045440015,-0.5725464,2017-03-13 12:32:07,74.03500111860772
0.11087036,0.026321411,9.65863,3.6621094E-4,-3.9672852E-4,-7.6293945E-5,37.0,0.1059546,0.0050741266,9.806076,0.01061217,-0.00854622,0.14925021,-0.0026781084,-0.0045819613,-0.5529353,2017-03-13 12:32:08,75.71740463184467
0.109680176,0.017150879,9.645462,3.6621094E-4,4.119873E-4,-4.8828125E-4,31.0,0.106458634,0.0053383466,9.806071,-0.0025041439,-0.008282,0.16286558,-0.002982409,-0.0046584597,-0.5762757,2017-03-13 12:32:09,73.13841773406055
0.10847473,0.02192688,9.645874,1.5258789E-4,1.5258789E-5,-7.6293945E-5,37.0,0.11078289,0.0104912575,9.80602,0.0154404575,-0.0031290895,0.1628132,-0.0027275155,-0.0048937392,-0.5573745,2017-03-13 12:32:10,62.192128004792266
0.11166382,0.016357422,9.655045,3.6621094E-4,2.1362305E-4,3.3569336E-4,31.0,0.1095693,0.01010839,9.806033,6.065259E-4,-0.0035119576,0.16282733,-0.0028539374,-0.004855823,-0.57438934,2017-03-13 12:32:11,60.0204177376759
0.112472534,0.017150879,9.662216,1.5258789E-4,-5.950928E-4,3.2043457E-4,17.0,0.09854719,0.008030638,9.806151,-0.010415583,0.008030638,0.14932503,-0.002634059,-0.004334507,-0.5739237,2017-03-13 12:32:12,55.491862785052355
0.10887146,0.025131226,9.665009,3.6621094E-4,4.272461E-4,-2.89917E-4,41.0,0.11053364,0.013404742,9.80602,0.001570857,-2.1560577E-4,0.14919285,-0.0025920242,-0.0050576273,-0.5616311,2017-03-13 12:32:13,70.51039756456183
0.10647583,0.011566162,9.655441,3.6621094E-4,8.239746E-4,1.2207031E-4,14.0,0.10204237,0.0062537016,9.806117,0.0066999397,0.0062537016,0.16291128,-0.0027270264,-0.004442049,-0.5676032,2017-03-13 12:32:14,75.62737668301425
0.104888916,0.0071868896,9.655045,7.6293945E-4,1.5258789E-5,-7.6293945E-5,40.0,0.10206933,0.004391516,9.806118,0.0067268987,0.004391516,0.16291213,-0.0026698804,-0.0045152036,-0.55412006,2017-03-13 12:32:15,74.15897024659733
0.11924744,0.017150879,9.651459,3.6621094E-4,-3.8146973E-4,-2.89917E-4,15.0,0.11080119,0.0030763494,9.806024,0.0018384123,-0.010543998,0.16281734,-0.0029026284,-0.004858962,-0.567228,2017-03-13 12:32:16,70.57357674924478
0.1060791,0.0135650635,9.666611,-2.4414063E-4,0.0010223389,9.460449E-4,41.0,0.10964989,0.008979165,9.806033,0.014307459,0.008979165,0.14920698,-0.00270899,-0.004844715,-0.56651086,2017-03-13 12:32:17,73.6941154922265
0.11087036,0.009170532,9.661026,7.6293945E-4,1.5258789E-5,1.2207031E-4,41.0,0.10021735,2.0290252E-5,9.806139,-0.008745428,2.0290252E-5,0.1629329,-0.0029836209,-0.0043963064,-0.56182915,2017-03-13 12:32:18,64.30891544530014
0.112854004,0.0059814453,9.657837,-2.4414063E-4,1.5258789E-5,1.2207031E-4,41.0,0.10897549,0.0054104584,9.806044,-0.0136076305,-0.00820989,0.16283815,-0.00304863,-0.005108181,-0.57708025,2017-03-13 12:32:19,63.38139106114855
0.110076904,0.017547607,9.653046,1.5258789E-4,6.2561035E-4,1.2207031E-4,40.0,0.107033096,0.0049858126,9.806065,0.011690659,0.0049858126,0.16285892,-0.0029041541,-0.0046660565,-0.56562537,2017-03-13 12:32:20,64.58545108283253
0.13798523,-0.035491943,9.659424,-4.5776367E-5,1.5258789E-5,-2.89917E-4,41.0,0.12164861,0.008234149,9.805893,0.012685827,-0.005386199,0.16268684,-0.0029243627,-0.005017028,-0.5725097,2017-03-13 12:32:21,69.06698818148467
0.110076904,0.010772705,9.6466675,3.6621094E-4,1.5258789E-5,1.2207031E-4,44.0,0.10778448,0.013446865,9.806048,-0.0039567,-0.0077844337,0.1628797,-0.0027415631,-0.0046370565,-0.5675215,2017-03-13 12:32:22,72.12534435818671
0.10887146,0.017150879,9.649063,7.6293945E-4,6.2561035E-4,5.340576E-4,44.0,0.10916725,0.012506908,9.806035,2.0446576E-4,0.012506908,0.162829,-0.0026182472,-0.0049294834,-0.56498575,2017-03-13 12:32:23,72.17177328189085
0.11326599,0.010375977,9.6466675,-6.5612793E-4,-3.8146973E-4,-7.6293945E-5,44.0,0.11074668,0.0036122703,9.806025,0.0017838958,0.0036122703,0.1628182,-0.0031725059,-0.004674428,-0.56723046,2017-03-13 12:32:24,75.55767471402203
0.11326599,0.012359619,9.648666,7.6293945E-4,4.272461E-4,1.2207031E-4,44.0,0.11071307,0.0052195224,9.806025,0.0017502924,-0.008400825,0.1628182,-0.0027073713,-0.0049891565,-0.5627428,2017-03-13 12:32:25,70.36939906273496
0.13360596,-0.009170532,9.719238,5.645752E-4,1.5258789E-5,-4.8828125E-4,44.0,0.10772491,0.009017102,9.806055,-0.001237868,0.009017102,0.16284895,-0.0030049582,-0.0048041856,-0.5707914,2017-03-13 12:32:26,75.02798635487616
0.11845398,0.018341064,9.653442,0.0015869141,2.1362305E-4,1.2207031E-4,44.0,0.11250802,0.009195434,9.806,0.01716559,-0.004424914,0.16279408,-0.00263156,-0.0050025717,-0.5663879,2017-03-13 12:32:27,76.1153788421515
0.11047363,0.022338867,9.687347,7.6293945E-4,-3.8146973E-4,5.340576E-4,43.0,0.114911824,0.026871016,9.80594,0.0059490427,0.01325067,0.14911388,-0.0020863712,-0.0056831986,-0.57350075,2017-03-13 12:32:28,71.94137709517044
0.10409546,0.012756348,9.667007,9.765625E-4,2.1362305E-4,-4.8828125E-4,43.0,0.11070211,0.004737528,9.806025,0.0017393293,0.004737528,0.14919867,-0.0030620156,-0.0047441283,-0.56338763,2017-03-13 12:32:29,62.17584456537618
0.11126709,0.008377075,9.656235,-2.4414063E-4,1.5258789E-5,9.460449E-4,43.0,0.110701844,0.0038767864,9.806025,0.0017390695,0.0038767864,0.16281901,-0.0030203625,-0.004773065,-0.56847805,2017-03-13 12:32:30,59.578234303373215
0.11645508,0.011566162,9.644272,-2.4414063E-4,-7.9345703E-4,-2.89917E-4,43.0,0.106262214,0.009405353,9.806069,-0.0027005626,-0.0042149946,0.16286391,-0.0025404373,-0.005034114,-0.55175376,2017-03-13 12:32:31,70.68388053455993
0.11924744,0.017944336,9.644272,-9.1552734E-5,-3.3569336E-4,-5.0354004E-4,43.0,0.11080365,0.011904406,9.806017,0.0018408672,-0.0017159412,0.16281153,-0.0026476788,-0.005024697,-0.55465513,2017-03-13 12:32:32,75.76559343049423
0.11366272,0.010772705,9.619553,0.005203247,0.0031280518,-9.1552734E-5,12.0,0.11453435,0.0053955233,9.80598,-0.008048776,0.0053955233,0.12191308,-0.003367365,-0.0052081626,-0.55572075,2017-03-13 12:32:33,75.64167076802394
-0.44306946,-0.2141571,9.663818,-0.0063934326,-9.460449E-4,-0.1043396,9.0,0.488979,0.114497006,9.793783,1.3470609,0.48224637,0.150577,0.001173785,0.009320432,-0.5761832,2017-03-13 12:32:34,63.335021425891654
0.12322998,0.017547607,9.671402,1.2207031E-4,-1.373291E-4,-2.89917E-4,44.0,0.11181246,0.0017252442,9.806013,0.0028496743,0.0017252442,0.1491862,-0.003259727,-0.00462141,-0.58229965,2017-03-13 12:32:35,73.07453616582548
0.12004089,-3.9672852E-4,9.65065,-7.019043E-4,-1.373291E-4,-7.019043E-4,43.0,0.11096734,1.4384128E-6,9.806024,0.0020045594,1.4384128E-6,0.16281734,-0.0032413383,-0.0046289307,-0.5735884,2017-03-13 12:32:36,75.40579442979055
0.11445618,8.087158E-4,9.661819,1.2207031E-4,-3.3569336E-4,-5.0354004E-4,43.0,0.11395964,0.004533259,9.805986,0.004996857,0.004533259,0.16278078,-0.0033568002,-0.0048835245,-0.57487696,2017-03-13 12:32:37,71.41479303882281
0.114852905,0.003189087,9.655838,1.2207031E-4,6.1035156E-5,1.2207031E-4,33.0,0.11764695,3.804661E-5,9.805944,0.008684164,-0.013582301,0.14911804,-0.003521001,-0.004955168,-0.58554065,2017-03-13 12:32:38,65.00517451128938
0.11924744,0.011962891,9.655838,5.187988E-4,-1.373291E-4,-3.0517578E-4,37.0,0.11070833,-3.2231963E-8,9.8060255,-0.011454941,-2.3289745E-6,0.16281486,-0.003158882,-0.004679712,-0.559473,2017-03-13 12:32:39,72.12843165892463
0.122024536,0.0,9.645874,-7.6293945E-5,-1.2207031E-4,-1.0681152E-4,39.0,0.110789254,5.2524847E-6,9.806025,0.001826475,5.2524847E-6,0.1628182,-0.003255391,-0.0046168203,-0.5762742,2017-03-13 12:32:40,71.68942660142545
0.112854004,0.008773804,9.657425,-2.746582E-4,-7.324219E-4,9.1552734E-5,17.0,0.107572876,-5.483897E-6,9.806061,-0.0013899022,-5.483897E-6,0.16285476,-0.0032153402,-0.004535741,-0.57824945,2017-03-13 12:32:41,73.64857187028892
0.112457275,-0.0047912598,9.66301,3.3569336E-4,2.89917E-4,-1.0681152E-4,25.0,0.11080814,0.0032024563,9.806025,0.0018453617,0.0032024563,0.14919783,-0.0031189776,-0.0047101183,-0.56500405,2017-03-13 12:32:42,55.42988435676142
0.11804199,0.013168335,9.659027,-2.746582E-4,2.89917E-4,9.1552734E-5,14.0,0.11520903,0.0040981756,9.805973,0.006246253,0.0040981756,0.16276747,-0.0032926851,-0.0048336517,-0.57572955,2017-03-13 12:32:43,70.21765721676618
0.12762451,0.011962891,9.669403,0.0017547607,-0.0031738281,-1.0681152E-4,10.0,0.12182653,0.005103092,9.805892,-7.5659214E-4,0.005103092,0.14906566,-0.0034966231,-0.0052256733,-0.59144735,2017-03-13 12:32:44,75.42469446054457
0.13200378,0.009170532,9.668594,0.006439209,-0.010299683,0.0011138916,10.0,0.12731074,0.0057421667,9.805822,0.0047276,0.0057421667,0.14899582,-0.003583419,-0.005434436,-0.58029103,2017-03-13 12:32:45,71.58543953647585
0.14038086,0.017944336,9.672592,-0.008422852,0.010055542,-3.2043457E-4,10.0,0.13684508,0.012461875,9.805688,-0.012978738,-0.0011584728,0.14886115,-0.003643576,-0.0062401583,-0.5836372,2017-03-13 12:32:46,72.18993890768435
0.13439941,0.021942139,9.671783,-0.0041503906,0.0063934326,3.0517578E-4,10.0,0.1378559,0.0086258,9.805677,0.0152727775,-0.0049945475,0.13523082,-0.003596938,-0.0059677125,-0.5685344,2017-03-13 12:32:47,74.89573636667637
0.114852905,0.051452637,9.67897,0.004196167,-0.0037841797,-1.0681152E-4,10.0,0.12778038,0.013879112,9.805809,0.018817605,-0.040602278,0.12174184,-0.0029746923,-0.0056831418,-0.58841425,2017-03-13 12:32:48,69.20753171755572
0.13719177,0.010360718,9.667007,-8.8500977E-4,0.0017089844,0.0011138916,10.0,0.12654166,0.0019167693,9.805834,0.003958525,0.0019167693,0.14900747,-0.0036946463,-0.0055934675,-0.59442914,2017-03-13 12:32:49,71.28895953981912
0.13639832,0.022338867,9.681366,1.373291E-4,0.0010986328,9.1552734E-5,10.0,0.13955499,0.0075185923,9.805655,0.0033515184,-0.0061017554,0.13520756,-0.0037494495,-0.0060186316,-0.5718292,2017-03-13 12:32:50,57.39751024020829
0.14038086,0.014755249,9.686951,3.3569336E-4,-1.2207031E-4,3.0517578E-4,10.0,0.1281581,0.018604489,9.805795,-0.008045373,0.0049841423,0.1217277,-0.0030484973,-0.0060029165,-0.5739773,2017-03-13 12:32:51,72.68763759311666
0.13320923,0.017547607,9.692123,-4.7302246E-4,4.8828125E-4,3.0517578E-4,10.0,0.1333402,0.013684194,9.805734,0.01075706,6.3846026E-5,0.12166701,-0.0033728573,-0.005948543,-0.57975054,2017-03-13 12:32:52,66.5629348725639
0.15034485,0.020736694,9.68335,-0.0074005127,0.013320923,-5.187988E-4,10.0,0.15048939,0.0129341055,9.805487,0.014285923,-6.8624166E-4,0.13504045,-0.00384086,-0.0066571482,-0.57403857,2017-03-13 12:32:53,75.52641058039137
0.13877869,0.021530151,9.678574,3.3569336E-4,2.89917E-4,3.0517578E-4,10.0,0.13806634,0.013786062,9.80567,0.0018628582,1.6571357E-4,0.12160216,-0.0034844957,-0.0061547807,-0.5767461,2017-03-13 12:32:54,76.04316755606078
0.14915466,0.019134521,9.679764,3.3569336E-4,4.8828125E-4,-1.0681152E-4,17.0,0.13809355,0.022115426,9.805653,0.0018900711,0.0084950775,0.12158554,-0.003279492,-0.0063044704,-0.5781117,2017-03-13 12:32:55,75.68633726925401
0.14237976,0.0315094,9.68335,1.373291E-4,0.0010986328,-3.0517578E-4,31.0,0.1331768,0.018205522,9.80573,-0.0030266673,0.0045851734,0.1352832,-0.0033931583,-0.006142419,-0.5756142,2017-03-13 12:32:56,72.24233738034974
0.14077759,0.017944336,9.669403,5.340576E-4,2.89917E-4,-3.2043457E-4,27.0,0.14212759,0.013394915,9.805612,0.0059241164,0.013394915,0.13516515,-0.0035901028,-0.0062091784,-0.57330805,2017-03-13 12:32:57,73.50764473883103
0.13320923,0.019546509,9.665405,-4.7302246E-4,8.8500977E-4,-9.1552734E-4,9.0,0.13805209,0.013827993,9.80567,0.01546897,2.076449E-4,0.14884287,-0.0034787073,-0.006081738,-0.5813292,2017-03-13 12:32:58,75.02057078218506
0.13519287,0.023925781,9.6698,-2.746582E-4,2.89917E-4,5.0354004E-4,9.0,0.13469335,0.009492449,9.805721,0.012110217,-0.004127898,0.14889525,-0.0036485714,-0.005672206,-0.59965193,2017-03-13 12:32:59,74.33663143139742
0.14277649,0.020339966,9.671387,-7.6293945E-5,2.89917E-4,9.1552734E-5,44.0,0.13823982,0.009351922,9.805672,0.002004988,-0.006693282,0.14884785,-0.0036956659,-0.006014598,-0.5717304,2017-03-13 12:33:00,57.42825181021915
0.1443634,0.020736694,9.678162,-6.866455E-4,-7.324219E-4,5.0354004E-4,46.0,0.13821438,0.008416269,9.805673,0.0020108982,-0.0052040787,0.1488462,-0.0037687204,-0.0059725204,-0.58662915,2017-03-13 12:33:01,74.38223145578408
0.13319397,0.021530151,9.661819,-7.6293945E-5,0.0010986328,-1.0681152E-4,45.0,0.13834596,0.021044312,9.805653,0.0021424806,0.0074239657,0.14882624,-0.0031805423,-0.0064279647,-0.5922198,2017-03-13 12:33:02,72.5631149177361
0.14476013,0.026321411,9.667007,3.3569336E-4,-3.2043457E-4,9.1552734E-5,44.0,0.1313936,0.017362565,9.805755,-0.004809875,0.0037422164,0.1489285,-0.0029782027,-0.0059588193,-0.56799304,2017-03-13 12:33:03,74.97317333041633
0.14277649,0.0143585205,9.6698,5.340576E-4,-1.2207031E-4,-1.0681152E-4,44.0,0.13318348,0.016669877,9.805732,0.011869951,0.0010376854,0.14889191,-0.0034088977,-0.0059801233,-0.5837756,2017-03-13 12:33:04,48.222361471591064
1.5010986,0.50527954,9.643875,-0.004348755,0.0033416748,-0.18029785,2.0,0.1515227,0.022003472,9.805456,-1.564641,-0.72711563,0.24397166,-0.005230462,-0.014968763,-0.57565504,2017-03-13 12:33:05,69.62343062012754
0.11564636,-0.007583618,9.647858,-4.7302246E-4,0.0027313232,3.0517578E-4,1.0,0.1072979,-2.863791E-4,9.806064,-0.0016648872,-2.863791E-4,0.16285726,-0.0031971622,-0.004538141,-0.57464963,2017-03-13 12:33:06,68.9095893157478
0.09651184,-0.0059814453,9.6514435,3.3569336E-4,0.0017089844,7.171631E-4,1.0,0.061128024,-3.4734813E-4,9.806459,-0.03421441,-3.4734813E-4,0.1632538,-0.0022185184,-0.00316501,-0.57238305,2017-03-13 12:33:07,64.02504816091252
0.102890015,-0.009170532,9.662216,-7.6293945E-5,-0.0011444092,-1.0681152E-4,1.0,0.09734324,6.3484805E-7,9.806168,0.002000812,6.3484805E-7,0.17658152,-0.0028387744,-0.0040530674,-0.5736714,2017-03-13 12:33:08,75.6806214143677
0.10847473,0.0047912598,9.65744,0.0017547607,6.866455E-4,-5.187988E-4,25.0,0.110778585,-2.3891735E-6,9.806025,0.0018158108,-2.3891735E-6,0.14919867,-0.0033392203,-0.0045507033,-0.59158057,2017-03-13 12:33:09,72.55497467504233
0.11445618,0.015548706,9.659424,1.373291E-4,7.6293945E-5,7.019043E-4,43.0,0.109617405,3.1358562E-5,9.806038,0.014274973,-0.013588989,0.14921114,-0.003039496,-0.0045947237,-0.568972,2017-03-13 12:33:10,73.42610704677637
0.11564636,0.015548706,9.656631,3.3569336E-4,2.89917E-4,9.1552734E-5,44.0,0.10503415,0.0027909637,9.8060875,-0.00392863,-0.0108293835,0.16288136,-0.0029612463,-0.0044798907,-0.5663171,2017-03-13 12:33:11,70.08436461253916
0.117248535,0.0043945313,9.65065,-5.950928E-4,8.087158E-4,-8.392334E-4,43.0,0.11075565,0.008423814,9.806021,0.0017928716,0.008423814,0.16281486,-0.003176437,-0.004675365,-0.58247685,2017-03-13 12:33:12,76.70617797346301
0.11645508,0.0011901855,9.654251,-5.950928E-4,3.9672852E-4,-6.2561035E-4,43.0,0.12052784,4.0270935E-4,9.805909,0.011565064,4.0270935E-4,0.14908312,-0.0033920738,-0.0047247233,-0.5838317,2017-03-13 12:33:13,71.10457125038931
0.11685181,0.008377075,9.648254,-5.950928E-4,1.9836426E-4,-2.2888184E-4,43.0,0.110837184,0.0013678086,9.806024,0.0018744058,0.0013678086,0.16281734,-0.003214914,-0.004646002,-0.57090163,2017-03-13 12:33:14,67.2806691874858
0.115249634,0.010772705,9.644272,-1.8310547E-4,-1.5258789E-5,1.8310547E-4,41.0,0.12321035,6.4332434E-4,9.805877,0.0142475655,6.4332434E-4,0.16267021,-0.0036602386,-0.004985789,-0.5932271,2017-03-13 12:33:15,67.83669818351086
0.11566162,0.007980347,9.6514435,-5.950928E-4,8.087158E-4,1.8310547E-4,43.0,0.10533849,0.0077223186,9.806083,-0.0036242888,0.0077223186,0.16287637,-0.0029523878,-0.004659743,-0.57492197,2017-03-13 12:33:16,76.07847320149462
0.107284546,-0.003189087,9.663422,-3.8146973E-4,8.087158E-4,-8.392334E-4,43.0,0.11069803,5.4822394E-6,9.8060255,0.0017352507,5.4822394E-6,0.1491995,-0.003229986,-0.0045885807,-0.57561225,2017-03-13 12:33:17,60.9289157393321
0.11366272,0.01675415,9.644669,-5.950928E-4,1.9836426E-4,-4.4250488E-4,10.0,0.11070425,2.8581964E-4,9.806025,0.0017414725,2.8581964E-4,0.16281901,-0.0032506234,-0.004619298,-0.57592744,2017-03-13 12:33:18,43.47370576039455
0.11166382,0.008377075,9.657028,-1.8310547E-4,0.0012054443,3.8146973E-4,8.0,0.11643058,1.9685757E-4,9.805959,-0.006152548,-0.01342349,0.16275334,-0.0033361604,-0.00487893,-0.5931137,2017-03-13 12:33:19,57.57762939672618
0.11206055,-0.0011901855,9.6514435,-1.8310547E-4,0.0012207031,-3.0517578E-5,45.0,0.11441908,5.762983E-4,9.805984,0.019076653,-0.01304405,0.1491571,-0.0029315285,-0.004603693,-0.57606894,2017-03-13 12:33:20,52.8836357761807
0.114852905,0.003189087,9.654251,-1.8310547E-4,1.9836426E-4,-4.4250488E-4,45.0,0.120768346,0.005004294,9.805905,-0.0018147846,0.005004294,0.14907897,-0.0035620562,-0.005066817,-0.5841228,2017-03-13 12:33:21,60.61815906650159
0.11405945,0.010772705,9.653442,1.5258789E-5,3.9672852E-4,-2.2888184E-4,20.0,0.11076779,2.0188553E-4,9.806025,0.0018050036,2.0188553E-4,0.14919867,-0.0032359185,-0.00462424,-0.57369685,2017-03-13 12:33:22,71.61192987997319
0.11405945,0.009170532,9.655838,4.272461E-4,-1.5258789E-5,1.8310547E-4,19.0,0.11185448,9.791066E-6,9.806013,0.002891695,9.791066E-6,0.14918703,-0.0032366072,-0.0046410663,-0.57202566,2017-03-13 12:33:23,76.3832447770912
0.11885071,0.010772705,9.656235,2.2888184E-4,6.1035156E-4,5.950928E-4,44.0,0.110773064,4.041682E-5,9.806025,0.0018102903,4.041682E-5,0.16281901,-0.0032702254,-0.0046063275,-0.5789445,2017-03-13 12:33:24,76.99588345179836
0.12602234,3.9672852E-4,9.659027,-1.8310547E-4,1.9836426E-4,-2.2888184E-4,41.0,0.110749654,2.000698E-4,9.806025,0.0017868835,2.000698E-4,0.14919867,-0.003328322,-0.0046362104,-0.58352256,2017-03-13 12:33:25,76.8427972309513
0.11087036,0.0071868896,9.657425,-0.0012054443,1.9836426E-4,9.918213E-4,39.0,0.110730045,3.571681E-4,9.806025,0.0017672695,3.571681E-4,0.14919867,-0.0032188408,-0.0046360004,-0.5708668,2017-03-13 12:33:26,73.63534591908493
0.11405945,0.012756348,9.655045,4.272461E-4,1.9836426E-4,-3.0517578E-5,40.0,0.11075183,-3.8414097E-8,9.806025,0.0017890526,-3.8414097E-8,0.16281901,-0.0032807055,-0.004596618,-0.5809245,2017-03-13 12:33:27,71.90195196483982
0.11326599,0.0016021729,9.653839,-7.9345703E-4,0.0,1.8310547E-4,41.0,0.1120961,0.0012471196,9.806009,0.003133323,0.0012471196,0.16280323,-0.0032336873,-0.004685144,-0.5740648,2017-03-13 12:33:28,71.55968256482541
0.108078,0.008773804,9.655045,-1.8310547E-4,3.9672852E-4,5.950928E-4,41.0,0.11079159,9.676931E-4,9.806025,0.0018288132,9.676931E-4,0.14919867,-0.0033092413,-0.004571041,-0.5877723,2017-03-13 12:33:29,76.35768407787691
0.11605835,0.009170532,9.659027,-0.0012054443,1.9836426E-4,-3.0517578E-5,42.0,0.11073334,2.191188E-6,9.806025,0.0017705559,2.191188E-6,0.14919867,-0.0032712307,-0.004602658,-0.57931614,2017-03-13 12:33:30,70.65006551664176
0.115249634,0.0135650635,9.653442,-3.8146973E-4,-1.5258789E-5,-2.2888184E-4,41.0,0.11071243,0.006038915,9.806024,0.0017496559,0.006038915,0.16281734,-0.0030916792,-0.004725586,-0.5587784,2017-03-13 12:33:31,74.67195660246331
0.119644165,0.007583618,9.656631,-5.950928E-4,1.9836426E-4,-2.2888184E-4,43.0,0.11079823,1.4204431E-5,9.806025,0.0018354506,1.4204431E-5,0.14919867,-0.0032970165,-0.0045861215,-0.5837753,2017-03-13 12:33:32,75.99007813989276
0.11326599,0.0011901855,9.651047,-5.950928E-4,1.9836426E-4,3.8146973E-4,43.0,0.11080253,-3.732052E-9,9.806025,0.0018397502,-3.732052E-9,0.16281901,-0.0032275654,-0.004636709,-0.5712973,2017-03-13 12:33:33,72.59420025744097
0.11286926,0.010375977,9.653046,1.5258789E-5,1.9836426E-4,7.9345703E-4,43.0,0.11664381,0.007217305,9.805954,0.0076810336,0.007217305,0.16274835,-0.0031324197,-0.0050462577,-0.57246023,2017-03-13 12:33:34,71.41269635879121
0.12283325,0.017547607,9.653046,-7.9345703E-4,8.087158E-4,1.8310547E-4,43.0,0.11083992,0.005055465,9.806024,0.0018771335,-0.008564883,0.16281734,-0.0030241404,-0.0047902125,-0.59213686,2017-03-13 12:33:35,73.06763314210824
0.12243652,0.019546509,9.665009,-1.8310547E-4,8.087158E-4,-3.0517578E-5,44.0,0.11385719,0.002923592,9.805989,0.00489441,0.002923592,0.14916292,-0.003198045,-0.0049399836,-0.57569104,2017-03-13 12:33:36,75.53879992068818
0.115249634,0.014755249,9.656235,1.5258789E-5,1.9836426E-4,5.950928E-4,45.0,0.110796206,1.8730594E-4,9.806025,0.0018334243,1.8730594E-4,0.1628182,-0.0032460408,-0.004623694,-0.5749716,2017-03-13 12:33:37,76.68409767428601
0.10926819,3.9672852E-4,9.65065,-7.9345703E-4,1.9836426E-4,5.950928E-4,45.0,0.11115292,0.00243343,9.80602,0.0021901387,0.00243343,0.16281402,-0.0032166678,-0.0046582045,-0.58001465,2017-03-13 12:33:38,73.0466217665965
0.10568237,0.0016021729,9.656631,2.2888184E-4,8.087158E-4,-4.4250488E-4,45.0,0.10705004,3.2489565E-6,9.806066,-0.001912744,3.2489565E-6,0.16285975,-0.003215371,-0.0045301346,-0.5788352,2017-03-13 12:33:39,63.786474815402045
0.110076904,0.008773804,9.657028,-3.8146973E-4,6.1035156E-4,-3.0517578E-5,45.0,0.10841319,1.30526E-4,9.806051,-5.49587E-4,1.30526E-4,0.16284563,-0.0032581526,-0.0045240102,-0.5850687,2017-03-13 12:33:40,56.63020423730601
0.11405945,0.0043792725,9.6466675,-7.9345703E-4,1.9836426E-4,1.8310547E-4,44.0,0.113873,3.9053176E-4,9.805989,0.0049102176,3.9053176E-4,0.16278328,-0.0032617268,-0.0046671852,-0.57362574,2017-03-13 12:33:41,59.25542074176762
0.117248535,0.0051879883,9.659424,-0.0014038086,0.0,1.8310547E-4,9.0,0.11323499,0.003266179,9.805997,0.0042722058,0.003266179,0.16279076,-0.0031938527,-0.004955534,-0.578402,2017-03-13 12:33:42,69.1931112195754
0.11645508,0.012359619,9.653839,4.272461E-4,6.1035156E-4,-2.2888184E-4,43.0,0.11488586,1.9484613E-4,9.805978,0.005923077,-0.013425501,0.16277163,-0.0032426035,-0.004739275,-0.58204126,2017-03-13 12:33:43,70.64224224765732
0.12162781,0.0135650635,9.656631,2.2888184E-4,3.9672852E-4,5.950928E-4,47.0,0.11080283,0.0034793837,9.806025,0.001840049,0.0034793837,0.1628182,-0.0031845171,-0.0046673156,-0.5766662,2017-03-13 12:33:44,68.53873292595833
0.11924744,0.007171631,9.662613,6.2561035E-4,-2.1362305E-4,3.8146973E-4,47.0,0.110800765,-1.8813381E-7,9.806025,0.0018379837,-1.8813381E-7,0.14919867,-0.0032407667,-0.004624181,-0.57390946,2017-03-13 12:33:45,55.42808292832801
0.11645508,0.014755249,9.65863,-7.9345703E-4,1.9836426E-4,1.8310547E-4,47.0,0.11866675,5.2520107E-5,9.805933,0.009703972,5.2520107E-5,0.1491064,-0.0034121962,-0.004805364,-0.5791392,2017-03-13 12:33:46,64.0674043688616
0.11645508,0.003189087,9.648666,-5.950928E-4,-2.1362305E-4,1.8310547E-4,47.0,0.11078727,1.2162147E-6,9.806025,0.0018245006,1.2162147E-6,0.1628182,-0.0033069008,-0.004579954,-0.5853877,2017-03-13 12:33:47,71.48320080583902
0.114852905,0.005584717,9.655045,-3.8146973E-4,-1.9836426E-4,1.8310547E-4,47.0,0.11128646,8.092566E-4,9.80602,0.0023236824,8.092566E-4,0.1628132,-0.0032368891,-0.004644067,-0.5749793,2017-03-13 12:33:48,47.98953831542502
0.119644165,0.0143585205,9.655838,-1.8310547E-4,6.1035156E-4,1.8310547E-4,47.0,0.11166438,1.3538386E-6,9.806014,0.0027015952,1.3538386E-6,0.14918786,-0.0032932227,-0.0046110516,-0.581167,2017-03-13 12:33:49,70.70359819164318
0.11764526,0.0071868896,9.647858,-3.8146973E-4,1.9836426E-4,3.8146973E-4,47.0,0.117699675,1.8456562E-5,9.805944,0.0087369,1.8456562E-5,0.16273838,-0.0035201975,-0.0050088824,-0.5751593,2017-03-13 12:33:50,76.25853218959561
0.11405945,-3.9672852E-4,9.642685,-0.0014038086,0.0,-4.4250488E-4,47.0,0.11596315,5.6585613E-6,9.805964,0.0070003774,5.6585613E-6,0.17637867,-0.0033766194,-0.004858475,-0.5707093,2017-03-13 12:33:51,72.5066512727451
0.11405945,0.0035858154,9.645477,-3.8146973E-4,-2.1362305E-4,3.8146973E-4,47.0,0.11084323,-3.2939333E-8,9.806025,0.0018804459,-3.2939333E-8,0.17643936,-0.0031785495,-0.004672719,-0.5624341,2017-03-13 12:33:52,70.82048605190445
0.11885071,0.005584717,9.648254,-3.8146973E-4,6.1035156E-4,5.950928E-4,47.0,0.10784242,2.6238651E-4,9.806057,-0.0011203596,-0.013357962,0.14923109,-0.003063386,-0.004473625,-0.5915936,2017-03-13 12:33:53,68.17317301475794
0.11685181,0.0143585205,9.654648,1.5258789E-5,0.0012054443,-3.0517578E-5,47.0,0.11063144,1.5007104E-6,9.8060255,0.0016686672,1.5007104E-6,0.16281985,-0.0032537675,-0.0046111313,-0.57654166,2017-03-13 12:33:54,72.38997190956076
0.12283325,0.007583618,9.656631,-5.950928E-4,-2.1362305E-4,3.8146973E-4,47.0,0.11207081,0.0015988606,9.80601,0.00310802,0.0015988606,0.16280405,-0.003320405,-0.0046054074,-0.58980644,2017-03-13 12:33:55,66.19393418957677
0.12043762,-7.9345703E-4,9.640289,4.272461E-4,1.9836426E-4,1.8310547E-4,47.0,0.110771656,3.5568636E-8,9.806025,0.0018088744,3.5568636E-8,0.17643936,-0.0031673822,-0.0046790214,-0.56056565,2017-03-13 12:33:56,43.27191187684114
0.12043762,0.007583618,9.644272,1.5258789E-5,3.9672852E-4,-3.0517578E-5,47.0,0.11083754,0.0070500625,9.806021,0.0018747696,0.0070500625,0.16281486,-0.0030654238,-0.004753926,-0.57764983,2017-03-13 12:33:57,60.40360677425919
0.12562561,0.008773804,9.65065,-3.8146973E-4,3.9672852E-4,-3.0517578E-5,47.0,0.11381383,0.0037578056,9.805989,0.004851051,0.0037578056,0.17640361,-0.003223629,-0.0049115904,-0.5780114,2017-03-13 12:33:58,73.73869318185237
0.119644165,0.018341064,9.659821,4.272461E-4,8.087158E-4,3.8146973E-4,47.0,0.11297421,0.0032572441,9.805999,0.004011431,-0.010363103,0.1491729,-0.0031471266,-0.0049367817,-0.58340853,2017-03-13 12:33:59,76.56017356724394
0.12721252,0.006378174,9.664215,1.5258789E-5,-1.9836426E-4,3.8146973E-4,47.0,0.11112458,3.7914817E-4,9.806021,-0.0114585515,3.7914817E-4,0.14919451,-0.0034025286,-0.004628028,-0.5934614,2017-03-13 12:34:00,72.27954003118361
0.11566162,0.010772705,9.661819,-7.9345703E-4,0.0,7.9345703E-4,47.0,0.11066881,1.2052666E-7,9.806026,0.0017060245,1.2052666E-7,0.16282068,-0.0032584062,-0.0046117133,-0.5770394,2017-03-13 12:34:01,47.27228830319823
0.11166382,0.012756348,9.655838,-5.950928E-4,0.0,-2.2888184E-4,47.0,0.11751572,0.0069319075,9.8059435,0.008552945,-0.0066884398,0.16273755,-0.0030171552,-0.004932156,-0.56042314,2017-03-13 12:34:02,70.77103494949229
0.11445618,0.005584717,9.655838,-3.8146973E-4,-2.1362305E-4,-3.0517578E-5,47.0,0.11087901,1.1960094E-6,9.806024,0.0019162317,1.1960094E-6,0.14919701,-0.0033229734,-0.0045700064,-0.58808976,2017-03-13 12:34:03,76.86296747898986
0.12962341,0.009170532,9.656631,-3.8146973E-4,0.0010070801,3.8146973E-4,47.0,0.11285307,5.5138084E-5,9.806001,0.0038902918,-0.013565209,0.1627949,-0.0032300036,-0.004878501,-0.56974274,2017-03-13 12:34:04,75.5209711989608
0.12522888,0.01914978,9.656631,-3.8146973E-4,3.9672852E-4,3.8146973E-4,47.0,0.120645255,5.4100233E-6,9.805907,0.011682476,5.4100233E-6,0.1627018,-0.003326317,-0.0049035456,-0.57682925,2017-03-13 12:34:05,75.1269786894493
0.122039795,0.015548706,9.65863,-1.8310547E-4,3.9672852E-4,1.8310547E-4,47.0,0.110766456,3.9359875E-4,9.806025,0.0018036788,3.9359875E-4,0.14919867,-0.003277846,-0.0045981584,-0.5811237,2017-03-13 12:34:06,71.8932310270255
0.12362671,0.0051879883,9.659821,-1.8310547E-4,3.9672852E-4,3.8146973E-4,47.0,0.115268536,7.699858E-5,9.805973,-0.00731459,7.699858E-5,0.14914629,-0.0034774237,-0.0049256315,-0.577005,2017-03-13 12:34:07,74.74148162446185
0.11764526,-0.0039978027,9.64946,-3.8146973E-4,6.1035156E-4,5.79834E-4,34.0,0.1192004,0.0029813754,9.805925,0.010237615,-0.010638972,0.16271926,-0.0031041752,-0.0049361414,-0.5770537,2017-03-13 12:34:08,71.5845928373888
0.08494568,-0.01675415,9.639877,-5.950928E-4,-0.0071258545,3.8146973E-4,17.0,0.12479225,0.0058587487,9.805855,0.002209116,0.0058587487,0.16264859,-0.003643852,-0.005206823,-0.58659524,2017-03-13 12:34:09,59.995068793774934
0.13598633,0.010375977,9.658234,2.2888184E-4,3.9672852E-4,-2.2888184E-4,46.0,0.12974815,2.2001319E-4,9.805793,0.0071650306,-0.013400335,0.14896673,-0.003635387,-0.005348494,-0.5750312,2017-03-13 12:34:10,57.28266296611071
0.14077759,0.019943237,9.673386,-1.8310547E-4,8.087158E-4,1.8310547E-4,47.0,0.13301851,0.00790561,9.805745,0.010435392,-0.005714738,0.14891934,-0.0032684696,-0.0057296357,-0.5794072,2017-03-13 12:34:11,53.12142311328959
0.13838196,0.023529053,9.669403,-5.950928E-4,3.9672852E-4,7.9345703E-4,47.0,0.13156088,0.01132795,9.805761,0.008977749,-0.0022923967,0.13531479,-0.0035686044,-0.005735962,-0.5865393,2017-03-13 12:34:12,75.48790785078941
0.13200378,0.016357422,9.667007,-5.950928E-4,3.9672852E-4,5.950928E-4,48.0,0.13077444,0.0016861835,9.8057785,0.008191321,-0.011934164,0.1489526,-0.0034545069,-0.0054631666,-0.57680863,2017-03-13 12:34:13,73.77537969924573
0.13519287,0.008773804,9.658234,-3.8146973E-4,6.1035156E-4,-6.4086914E-4,47.0,0.12449681,0.008780797,9.805858,-0.011706662,0.008780797,0.14903075,-0.003526518,-0.0055604265,-0.5827048,2017-03-13 12:34:14,68.63421493723729
0.13240051,0.011962891,9.654236,2.2888184E-4,-6.1035156E-4,-6.4086914E-4,48.0,0.1259245,0.008145526,9.805839,0.003341361,-0.005474821,0.16263281,-0.0032382193,-0.00550833,-0.57644606,2017-03-13 12:34:15,73.80222791783754
0.13400269,0.023529053,9.668198,-7.9345703E-4,1.9836426E-4,3.8146973E-4,48.0,0.13664842,0.012010911,9.805691,0.014065285,-0.015229783,0.14886448,-0.003322251,-0.006077148,-0.57496715,2017-03-13 12:34:16,70.2780362507121
0.13160706,0.016357422,9.666214,1.5258789E-5,1.9836426E-4,5.79834E-4,48.0,0.12651695,0.0026330876,9.805834,0.0039338195,-0.01098726,0.14900747,-0.0032168233,-0.0055179945,-0.5758177,2017-03-13 12:34:17,72.05787571680008
0.13519287,0.012756348,9.670593,-1.8310547E-4,8.087158E-4,1.8310547E-4,48.0,0.13722159,0.013700288,9.805681,0.0010181202,0.013700288,0.13523415,-0.0036961013,-0.00590657,-0.5734621,2017-03-13 12:34:18,59.23086863732113
0.13320923,0.017150879,9.668198,-5.950928E-4,8.087158E-4,1.8310547E-4,48.0,0.12683779,0.010119068,9.805825,0.00425467,0.010119068,0.14899832,-0.0033417586,-0.0055101416,-0.5891517,2017-03-13 12:34:19,46.60827220711867
0.13240051,0.013168335,9.666214,-5.950928E-4,6.1035156E-4,1.8310547E-4,48.0,0.12622096,0.010768811,9.805832,0.0036378305,0.010768811,0.1490058,-0.003244535,-0.005545718,-0.5801377,2017-03-13 12:34:20,42.66610891798508
0.1395874,0.009963989,9.654648,-0.0012054443,3.9672852E-4,1.8310547E-4,48.0,0.1336112,0.010370813,9.805734,0.011028071,0.010370813,0.16252805,-0.0036153,-0.005839922,-0.57612723,2017-03-13 12:34:21,48.97414573439596
0.14077759,0.015548706,9.660217,-1.8310547E-4,0.0,5.79834E-4,48.0,0.1257678,0.012800782,9.805836,-0.010435677,-8.195646E-4,0.14900914,-0.0031971212,-0.0056365626,-0.5811103,2017-03-13 12:34:22,74.38954233213934
0.1395874,0.020736694,9.661819,-7.9345703E-4,6.1035156E-4,3.8146973E-4,48.0,0.1263331,0.013805136,9.805827,-0.009870367,1.8478847E-4,0.14900081,-0.0032355,-0.005672112,-0.586299,2017-03-13 12:34:23,76.5473390733238
0.1375885,0.0035858154,9.667801,1.5258789E-5,0.0,5.950928E-4,48.0,0.1310606,0.008754224,9.805771,0.008477477,0.008754224,0.16256464,-0.0036595343,-0.005302569,-0.58189464,2017-03-13 12:34:24,75.9080803479146
0.14038086,0.021133423,9.662216,-1.8310547E-4,1.9836426E-4,-2.2888184E-4,47.0,0.13353673,0.009439364,9.805737,-0.0026667449,-0.0041809836,0.14891021,-0.0034658734,-0.005836623,-0.56920105,2017-03-13 12:34:25,72.03973010434858
0.1375885,0.012359619,9.657043,1.5258789E-5,-2.1362305E-4,-4.272461E-4,47.0,0.13445447,0.0041471096,9.805727,-0.0017490064,-0.009473238,0.14890106,-0.0038861795,-0.005745024,-0.5802808,2017-03-13 12:34:26,72.1560424784022
0.14038086,0.0071868896,9.661819,-3.8146973E-4,8.087158E-4,5.950928E-4,47.0,0.1252381,0.012134059,9.805843,0.0026549764,-0.0014862882,0.16263779,-0.003226119,-0.0055202795,-0.5772031,2017-03-13 12:34:27,71.87197360292691
0.13160706,0.0135650635,9.655045,-3.8146973E-4,3.9672852E-4,-2.2888184E-4,48.0,0.13344826,0.008375568,9.805739,-0.0027552154,0.008375568,0.16253304,-0.0036965206,-0.0057327305,-0.58217674,2017-03-13 12:34:28,73.00951583231384
0.14117432,0.012771606,9.652252,-5.950928E-4,1.9836426E-4,3.8146973E-4,47.0,0.12592699,0.0037919555,9.805841,0.0033438678,0.0037919555,0.1626353,-0.0035535668,-0.005317361,-0.5704137,2017-03-13 12:34:29,61.761024220899586
0.13719177,0.01914978,9.656631,-1.8310547E-4,7.9345703E-4,9.918213E-4,47.0,0.124792546,0.010664762,9.805851,0.002209415,-0.0029555855,0.16264527,-0.0033108343,-0.0054486715,-0.58085984,2017-03-13 12:34:30,65.82572237107327
0.13838196,0.0143585205,9.665009,1.5258789E-5,6.1035156E-4,7.9345703E-4,47.0,0.13406067,0.009259472,9.80573,-0.0021428054,0.009259472,0.14890355,-0.0035909151,-0.005941059,-0.57797956,2017-03-13 12:34:31,68.40464704509445
0.13798523,0.017547607,9.663422,-1.8310547E-4,-1.9836426E-4,7.9345703E-4,47.0,0.13524915,0.0016350212,9.805717,-9.543164E-4,-0.011985326,0.14889108,-0.003875164,-0.005796817,-0.57646537,2017-03-13 12:34:32,64.47516800116283
0.13400269,0.0135650635,9.656631,2.2888184E-4,1.9836426E-4,9.918213E-4,47.0,0.12470976,0.0050131157,9.805856,0.0021266337,-0.008607232,0.16264942,-0.003507345,-0.0053103426,-0.58833945,2017-03-13 12:34:33,74.89369669430434
0.1375885,0.0135650635,9.660217,-7.9345703E-4,1.9836426E-4,0.0011901855,47.0,0.12791358,0.0042001107,9.805815,0.00533045,-0.009420237,0.14898834,-0.003445385,-0.0056222044,-0.5683764,2017-03-13 12:34:34,70.81437678625286
0.13320923,0.01914978,9.657837,-1.8310547E-4,-2.1362305E-4,1.8310547E-4,46.0,0.12459007,0.013830988,9.805848,0.0020069364,2.1064057E-4,0.16264278,-0.003066386,-0.0056066606,-0.5737403,2017-03-13 12:34:35,70.80356575581072
0.13200378,0.0071868896,9.643082,1.5258789E-5,3.9672852E-4,5.950928E-4,10.0,0.13074762,0.0045428295,9.805778,0.008164485,0.0045428295,0.16257212,-0.0037569564,-0.005533375,-0.578552,2017-03-13 12:34:36,68.7536489916543
0.13002014,0.023925781,9.652252,-0.0012054443,-2.1362305E-4,7.9345703E-4,20.0,0.12222464,0.022811187,9.805861,-3.584938E-4,0.009190841,0.1490349,-0.0027202733,-0.0058023767,-0.59112465,2017-03-13 12:34:37,76.22706162165237
0.14077759,0.015945435,9.657425,-9.918213E-4,-1.9836426E-4,5.950928E-4,5.0,0.12526284,0.008244781,9.805847,-0.010940626,-0.005375567,0.16264111,-0.0032529735,-0.0056562363,-0.57352084,2017-03-13 12:34:38,75.8460000884917
0.13320923,0.025527954,9.647461,6.2561035E-4,0.0014190674,7.9345703E-4,5.0,0.12982975,0.005972098,9.80579,-0.0063737305,-0.00764825,0.16258375,-0.003357805,-0.005757452,-0.56011784,2017-03-13 12:34:39,73.61245325862039
0.13719177,0.018753052,9.656235,-0.0024261475,-0.0010223389,3.8146973E-4,17.0,0.12460184,0.012668366,9.805851,0.0020187178,-9.5198164E-4,0.16264445,-0.003202665,-0.005526525,-0.5906066,2017-03-13 12:34:40,73.33473089060101
0.13798523,0.0143585205,9.664215,-1.8310547E-4,1.9836426E-4,9.918213E-4,29.0,0.13828078,0.01001377,9.805671,0.002077313,0.01001377,0.14884453,-0.0037361258,-0.0059898174,-0.5722968,2017-03-13 12:34:41,72.77998791172779
0.1375885,0.011962891,9.655441,-5.950928E-4,3.9672852E-4,1.8310547E-4,35.0,0.12891477,0.008093531,9.8058,-0.0072887023,0.008093531,0.14897421,-0.0034553255,-0.0055525843,-0.5779455,2017-03-13 12:34:42,74.25854486592965
0.13240051,0.010772705,9.654236,-1.8310547E-4,3.9672852E-4,1.8310547E-4,3.0,0.13387074,0.011268845,9.80573,0.011287599,0.011268845,0.1625239,-0.0036088491,-0.005732213,-0.5828355,2017-03-13 12:34:43,73.94404201679204
0.13279724,0.0143585205,9.657028,-3.8146973E-4,3.9672852E-4,3.8146973E-4,47.0,0.12864126,0.013181695,9.805797,-0.0075622196,-4.3865363E-4,0.14897089,-0.0033042515,-0.0056659365,-0.59179103,2017-03-13 12:34:44,74.89849478014028
0.13279724,0.012756348,9.655045,-1.8310547E-4,-1.5258789E-5,3.8146973E-4,47.0,0.13243139,7.5515104E-4,9.805757,0.009848258,-0.012865196,0.16255051,-0.0037743796,-0.005533103,-0.5816636,2017-03-13 12:34:45,73.13306690231141
0.12562561,0.03111267,9.646271,2.2888184E-4,0.0010070801,-3.0517578E-5,48.0,0.12915356,0.013393148,9.805791,0.0065704416,-0.0138475485,0.16258457,-0.0033004512,-0.005801289,-0.5916499,2017-03-13 12:34:46,50.73468358655844
0.13279724,0.015960693,9.657837,-1.8310547E-4,0.0014190674,-3.0517578E-5,48.0,0.12893465,0.009825176,9.805799,0.0063515184,-0.0037951714,0.14897172,-0.003349129,-0.00554291,-0.57598674,2017-03-13 12:34:47,64.95310863413353
0.13519287,0.024734497,9.663025,-0.0016021729,0.0,9.918213E-4,48.0,0.13520208,0.0042399163,9.805717,-0.0010013899,-0.009380431,0.16251144,-0.0035935692,-0.005805057,-0.5679277,2017-03-13 12:34:48,68.8020761150084
0.13919067,0.021942139,9.660629,-0.0012054443,6.1035156E-4,3.8146973E-4,48.0,0.12940688,0.0069377427,9.805794,-0.0067965863,-0.0066826046,0.14896756,-0.003689372,-0.00560681,-0.5928115,2017-03-13 12:34:49,75.18927949093688
0.14117432,0.013961792,9.633102,-7.9345703E-4,6.1035156E-4,-1.5258789E-5,48.0,0.13021106,0.008478929,9.805783,-0.0059924144,-0.005141418,0.17619745,-0.0035737485,-0.0058152527,-0.57108116,2017-03-13 12:34:50,70.62895223166724
0.13798523,0.013961792,9.650253,1.5258789E-5,8.087158E-4,5.950928E-4,48.0,0.13363631,0.009746566,9.805735,0.011053179,0.009746566,0.16252889,-0.0035253738,-0.0057821334,-0.5860959,2017-03-13 12:34:51,72.81437521474851
0.1308136,0.009963989,9.652649,-3.8146973E-4,6.1035156E-4,7.9345703E-4,48.0,0.13359001,0.0033872018,9.80574,0.011006885,0.0033872018,0.16253388,-0.0037838893,-0.005727821,-0.57867205,2017-03-13 12:34:52,75.55545813461804
0.13479614,0.009963989,9.661423,2.2888184E-4,5.950928E-4,3.8146973E-4,48.0,0.1339116,0.0014814001,9.805737,0.011328476,0.0014814001,0.14891021,-0.0037706734,-0.005404186,-0.5746295,2017-03-13 12:34:53,48.66187275489046
0.14117432,0.010375977,9.660629,-1.8310547E-4,6.1035156E-4,3.8146973E-4,48.0,0.1314871,0.011057433,9.805763,-0.0047163772,0.011057433,0.14893681,-0.003715385,-0.005835218,-0.580513,2017-03-13 12:34:54,71.04895913468648
0.14237976,0.020339966,9.652649,-3.8146973E-4,3.9672852E-4,5.950928E-4,48.0,0.13039656,0.0047998917,9.805783,0.007813434,-0.0088204555,0.1625771,-0.0033343432,-0.005562002,-0.58275646,2017-03-13 12:34:55,75.2683093134171
0.13877869,0.017547607,9.665009,-1.8310547E-4,1.9836426E-4,0.0011901855,48.0,0.13391533,0.009595194,9.805732,0.011332205,-0.0040251543,0.14890522,-0.0034286885,-0.005984158,-0.5707348,2017-03-13 12:34:56,74.08051982689639
0.13400269,0.01675415,9.659424,1.5258789E-5,6.1035156E-4,1.8310547E-4,47.0,0.13481411,0.004171067,9.805722,-0.0013893566,0.004171067,0.16251642,-0.0037852093,-0.005657508,-0.5885019,2017-03-13 12:34:57,67.63029320407554
0.13719177,0.0143585205,9.655045,1.5258789E-5,3.9672852E-4,-4.4250488E-4,47.0,0.13236953,0.009720177,9.805752,0.010845518,-0.010348423,0.16253553,-0.0034508645,-0.005856748,-0.57204616,2017-03-13 12:34:58,70.33477876064438
0.14237976,0.017150879,9.645859,-5.950928E-4,1.9836426E-4,5.79834E-4,48.0,0.13645013,0.004529525,9.8057,2.4665525E-4,-0.009090822,0.16249397,-0.0037643714,-0.005931718,-0.57867825,2017-03-13 12:34:59,73.97648182014372
0.13639832,0.015563965,9.662613,1.5258789E-5,4.119873E-4,7.9345703E-4,48.0,0.12811269,4.929144E-4,9.805814,-0.008090784,-0.013127433,0.14898752,-0.003834731,-0.005489123,-0.5847371,2017-03-13 12:35:00,53.34068659338997
0.13160706,0.010375977,9.654236,1.5258789E-5,6.1035156E-4,5.950928E-4,48.0,0.13827895,0.005688823,9.805675,0.0020754684,0.005688823,0.1624682,-0.0040253587,-0.0057931603,-0.58375466,2017-03-13 12:35:01,68.09611466450353
0.13879395,0.023925781,9.659836,-3.8146973E-4,0.0,5.79834E-4,48.0,0.13773882,0.013305757,9.805675,0.0015353442,-3.145913E-4,0.1624682,-0.0035179402,-0.006106114,-0.5795586,2017-03-13 12:35:02,69.53660152419897
0.13719177,0.0135650635,9.657043,4.272461E-4,6.1035156E-4,-4.4250488E-4,48.0,0.13700235,0.0086670825,9.80569,7.988726E-4,-0.0049532657,0.14886364,-0.003660737,-0.005975669,-0.5651277,2017-03-13 12:35:03,72.82478659796875
0.13838196,0.010375977,9.66301,-1.8310547E-4,0.0010070801,-1.5258789E-5,48.0,0.1320958,0.0071746083,9.8057575,0.009512678,0.0071746083,0.16255133,-0.0037645139,-0.00545618,-0.5827684,2017-03-13 12:35:04,67.39995429938384
0.13600159,0.011566162,9.661026,-1.8310547E-4,1.9836426E-4,-3.0517578E-5,48.0,0.13619028,0.013835961,9.805696,0.013607163,2.1561388E-4,0.14886864,-0.0033362582,-0.0058755567,-0.5764597,2017-03-13 12:35:05,72.60603282977986
0.13121033,0.011962891,9.645065,1.5258789E-5,3.9672852E-4,-3.0517578E-5,48.0,0.12465405,0.004694655,9.805858,0.0020709222,0.004694655,0.16265193,-0.0034307952,-0.005357536,-0.5762785,2017-03-13 12:35:06,69.8971305949191
0.13000488,0.018737793,9.653839,1.5258789E-5,0.0,5.950928E-4,47.0,0.13834074,0.013778465,9.805665,0.015757618,0.013778465,0.16245906,-0.0034187562,-0.0058899336,-0.5655332,2017-03-13 12:35:07,69.54927751438305
0.12762451,0.007980347,9.645065,4.272461E-4,1.9836426E-4,1.8310547E-4,47.0,0.12810063,0.009836298,9.805809,0.0055175098,-0.0037840495,0.16260287,-0.0031770242,-0.005574239,-0.57617867,2017-03-13 12:35:08,71.38841572732274
0.1375885,0.011566162,9.660233,2.2888184E-4,5.950928E-4,3.8146973E-4,47.0,0.12768523,0.0050143274,9.805818,0.00510211,0.0050143274,0.16261202,-0.0036243931,-0.005338242,-0.58162546,2017-03-13 12:35:09,70.08182510146155
0.14117432,0.003189087,9.661819,-5.950928E-4,0.0,3.8146973E-4,47.0,0.124787934,0.00469656,9.805856,-0.011415544,-0.008923787,0.14902908,-0.003497239,-0.005602075,-0.5902076,2017-03-13 12:35:10,68.97293508625937
0.13320923,0.013168335,9.65863,-0.0012054443,-4.119873E-4,9.918213E-4,47.0,0.13119817,0.004527253,9.805771,-0.005005313,-0.009093095,0.14894512,-0.0033650012,-0.005786153,-0.57616234,2017-03-13 12:35:11,70.59235661109065
0.13838196,0.023132324,9.665009,-2.89917E-4,6.5612793E-4,-2.746582E-4,47.0,0.13130556,0.0016185241,9.805771,-0.0048979037,-0.012001823,0.14894512,-0.0037393018,-0.0058067306,-0.5818091,2017-03-13 12:35:12,76.1902166769097
0.13279724,0.017944336,9.667404,5.340576E-4,-5.493164E-4,5.340576E-4,48.0,0.1328449,0.004825968,9.805749,0.010261763,-0.00879438,0.14892267,-0.0032855729,-0.0055939974,-0.5822,2017-03-13 12:35:13,73.14341428068894
0.13240051,0.016357422,9.652252,-0.0010986328,2.593994E-4,-2.746582E-4,48.0,0.12593262,0.00469865,9.805841,0.0033494923,-0.008921698,0.1626353,-0.0034295563,-0.0053827465,-0.5773834,2017-03-13 12:35:14,56.14648860288853
0.13439941,0.017547607,9.65065,-4.8828125E-4,8.544922E-4,1.373291E-4,48.0,0.13337152,0.00404701,9.805742,0.010788391,-0.009573337,0.16253637,-0.0034207816,-0.005758551,-0.5807374,2017-03-13 12:35:15,69.90674892143832
0.13798523,0.01914978,9.653839,5.340576E-4,4.5776367E-5,5.340576E-4,48.0,0.13077524,0.011894832,9.805771,-0.005428234,-0.0017255151,0.16256547,-0.003381815,-0.005704483,-0.5786747,2017-03-13 12:35:16,66.80916899206717
0.13877869,0.018737793,9.655838,3.2043457E-4,4.5776367E-5,3.3569336E-4,48.0,0.13329156,0.0071868175,9.805741,0.010708428,-0.00643353,0.14891519,-0.0036429493,-0.005719237,-0.58082837,2017-03-13 12:35:17,72.09459130718648
0.13519287,0.020339966,9.66301,3.2043457E-4,4.5776367E-4,5.340576E-4,48.0,0.1313755,0.010204702,9.805766,-0.004827969,-0.0034156456,0.1489393,-0.0035171036,-0.006035655,-0.5837077,2017-03-13 12:35:18,69.78821966189417
0.14356995,0.011962891,9.654648,-0.0010986328,2.4414063E-4,-2.746582E-4,48.0,0.13362119,0.0035050276,9.80574,0.011038059,0.0035050276,0.14891352,-0.0037605788,-0.005496468,-0.5765039,2017-03-13 12:35:19,62.46995045469169
0.13719177,0.016357422,9.656631,-7.6293945E-5,4.5776367E-4,5.340576E-4,48.0,0.13765681,0.006104996,9.805682,0.015073677,-0.007515352,0.14885616,-0.0037308708,-0.005887523,-0.5788771,2017-03-13 12:35:20,70.13195925523938
0.13121033,0.015151978,9.653046,5.340576E-4,4.5776367E-5,5.340576E-4,48.0,0.12578925,9.065578E-4,9.805843,0.0032061285,-0.01271379,0.16263779,-0.0035585624,-0.005302347,-0.5756315,2017-03-13 12:35:21,71.56941889489022
0.14237976,0.0143585205,9.653046,-6.866455E-4,4.5776367E-5,-6.1035156E-5,48.0,0.13736165,0.01260449,9.805681,0.0011581717,-0.0010158585,0.16247486,-0.0036367918,-0.006050024,-0.594076,2017-03-13 12:35:22,62.175149573257464
0.14196777,0.016357422,9.655045,5.340576E-4,2.593994E-4,-6.866455E-4,48.0,0.13566254,0.012294241,9.805704,-5.4092956E-4,0.012294241,0.16249813,-0.0035338642,-0.006051988,-0.5724411,2017-03-13 12:35:23,72.18428972173885
0.1443634,0.020339966,9.663025,5.340576E-4,-3.5095215E-4,-7.6293945E-5,47.0,0.13498792,0.012393839,9.805715,-0.0012155587,-0.001226508,0.14888775,-0.003525498,-0.0060282135,-0.58430094,2017-03-13 12:35:24,72.3054729685623
0.14515686,0.015960693,9.655441,5.340576E-4,6.5612793E-4,-7.6293945E-5,20.0,0.12992454,0.010137409,9.805785,-0.019899294,-0.0034829387,0.14895841,-0.003363794,-0.0057547973,-0.5793971,2017-03-13 12:35:25,76.73512081382995
0.12641907,0.003189087,9.653046,-7.6293945E-5,4.5776367E-5,1.373291E-4,2.0,0.12957028,0.0012890344,9.805795,0.006987154,0.0012890344,0.14896838,-0.0037008533,-0.0053290557,-0.5749391,2017-03-13 12:35:26,74.79156979834413
0.14396667,0.019943237,9.661423,-4.8828125E-4,-1.5258789E-4,9.460449E-4,46.0,0.13791578,0.005450744,9.805679,0.0017122984,-0.008169603,0.14885284,-0.0038790205,-0.005887992,-0.57811743,2017-03-13 12:35:27,70.61457991613894
0.1308136,0.011169434,9.657837,-7.6293945E-5,4.5776367E-5,3.3569336E-4,46.0,0.13059929,0.0040540094,9.80578,-0.0056041884,-0.009566338,0.14895342,-0.0036726976,-0.0054460755,-0.5803475,2017-03-13 12:35:28,73.90323354881684
0.12921143,0.06539917,9.653839,3.2043457E-4,-9.613037E-4,-4.7302246E-4,9.0,0.3763707,-0.0052792626,9.799424,0.25378758,-0.059760656,0.15621834,-0.0046232142,-0.0109746605,-0.50361663,2017-03-13 12:35:29,75.58074731487088
0.17028809,0.0717926,9.655441,-0.015350342,0.036697388,-0.0012817383,3.0,0.18546309,0.07012711,9.8046465,0.035639264,0.0020253684,0.17506021,-0.0016420328,-0.010022095,-0.49733222,2017-03-13 12:35:30,71.1826983105591
0.14715576,0.06700134,9.6414795,-0.003753662,0.005340576,-2.746582E-4,3.0,0.14627525,0.071761504,9.805297,-0.0035485805,0.017280111,0.17571113,-3.7005052E-4,-0.00857398,-0.50154454,2017-03-13 12:35:31,75.66866288607058
0.16151428,0.0765686,9.660629,-2.89917E-4,4.5776367E-4,-6.1035156E-5,3.0,0.1521554,0.0690728,9.805226,0.0023315798,9.710597E-4,0.14839977,-7.8058144E-4,-0.008484952,-0.4952145,2017-03-13 12:35:32,73.16271882757461
0.16351318,0.04107666,9.67099,0.0027770996,-7.6293945E-4,1.373291E-4,2.0,0.16547915,0.040487595,9.80517,0.015655328,-3.734478E-4,0.14834407,-0.0022797543,-0.008273402,-0.49218282,2017-03-13 12:35:33,66.01759656675296
0.16111755,0.034698486,9.64946,0.004196167,0.0037078857,-0.0012969971,2.0,0.16967177,0.02148054,9.805159,0.0062276,-0.0057601565,0.16195278,-0.0030765315,-0.007883777,-0.48629585,2017-03-13 12:35:34,70.87800431636889
0.17108154,0.034301758,9.649063,0.0035858154,0.0035095215,1.373291E-4,2.0,0.17956178,0.028674427,9.804965,0.016117621,0.0014337316,0.16175908,-0.0028772152,-0.008432014,-0.49391556,2017-03-13 12:35:35,72.52482261176313
0.15394592,0.050247192,9.651855,0.0037994385,0.004119873,-8.8500977E-4,2.0,0.15321085,0.036869705,9.805384,0.0033870316,-0.00399134,0.16217807,-0.0018853869,-0.0077027595,-0.49426895,2017-03-13 12:35:36,43.20474707494413
0.14556885,0.054244995,9.644669,0.0025634766,6.5612793E-4,5.340576E-4,3.0,0.14528497,0.043946136,9.805476,0.009081496,0.0030850938,0.16227034,-0.0015394781,-0.007436286,-0.49829248,2017-03-13 12:35:37,55.79410253656033
0.15553284,0.06341553,9.651047,3.2043457E-4,4.5776367E-5,1.373291E-4,7.0,0.15537703,0.0417589,9.805329,0.005553205,-0.012722492,0.16212402,-0.0018920952,-0.0080499025,-0.47131425,2017-03-13 12:35:38,62.856451744316956
0.16789246,0.039886475,9.749161,0.0135650635,0.0012664795,9.460449E-4,3.0,0.1480072,0.048000917,9.805416,-0.0018166162,0.007139877,0.2303114,-0.0017831797,-0.007860933,-0.501237,2017-03-13 12:35:39,70.22472265434055