ACC_X,ACC_Y,ACC_Z,GYRO_X,GYRO_Y,GYRO_Z,LIGH_1,GRAV_X,GRAV_Y,GRAV_Z,LINACC_X,LINACC_Y,LINACC_Z,ROTVEC_X,ROTVEC_Y,ROTVEC_Z,TIME,VOICE
2.0132244,-0.41689038,10.29387,-0.034587804,-0.13112739,0.0016644757,16.0,1.7893665,-0.3250129,9.636512,0.22385786,-0.09187749,0.657358,0.008962042,-0.09269999,0.2713147,2017-10-30 02:17:47,-Infinity
1.8121114,-0.32351652,9.690532,-4.993427E-4,9.653959E-4,-0.002596582,16.0,1.7905636,-0.34132338,9.635614,0.021547815,0.017806875,0.054917,0.007973922,-0.093007654,0.2692583,2017-10-30 02:17:49,-Infinity
1.8145056,-0.3498527,9.764751,0.0031880701,5.0653325E-4,0.002037851,15.0,1.7838299,-0.34835634,9.636662,0.03067571,-0.001496376,0.12808979,0.0073717786,-0.09278512,0.26757863,2017-10-30 02:17:50,-Infinity
1.7618332,-0.35942954,9.817424,0.015769908,0.014263891,0.035931367,18.0,1.7473184,-0.32366616,9.644144,0.014514848,-0.035763387,0.17328034,0.011758342,-0.09022313,0.306349,2017-10-30 02:17:51,-Infinity
1.819294,-0.3163339,9.7479925,0.0017406421,0.0024639566,-4.628574E-4,40.0,1.7328035,-0.32202014,9.646837,0.086490534,0.005686229,0.10115502,0.0121066775,-0.089412615,0.31165478,2017-10-30 02:17:52,-Infinity
1.8001404,-0.3474585,9.7958765,5.4168695E-4,0.0024032365,4.732437E-4,40.0,1.7229275,-0.30705637,9.649082,0.077213004,-0.040402155,0.1467945,0.012730728,-0.0886838,0.3122863,2017-10-30 02:17:54,-Infinity
1.77141,-0.3378817,9.7958765,0.0014647386,-0.0014647386,-9.986854E-5,40.0,1.7378912,-0.30825347,9.646388,0.033518825,-0.029628245,0.14948797,0.012896859,-0.0894372,0.31207255,2017-10-30 02:17:55,-Infinity
1.7857752,-0.33309332,9.762358,-0.0011318434,0.0,2.663161E-4,40.0,1.7537527,-0.31004912,9.643545,0.032022446,-0.023044191,0.11881226,0.0130436905,-0.0902466,0.3118283,2017-10-30 02:17:56,-Infinity
1.8097172,-0.3019687,9.779117,-6.657903E-5,0.0,0.0013315806,40.0,1.7571944,-0.3187281,9.642648,0.0525228,0.016759412,0.1364695,0.012686326,-0.09055546,0.3119193,2017-10-30 02:17:57,-Infinity
1.8001404,-0.3450643,9.736021,0.0018642128,9.321064E-4,-7.656588E-4,40.0,1.7618332,-0.319177,9.641749,0.038307227,-0.025887307,0.09427169,0.0127265435,-0.09079331,0.31179276,2017-10-30 02:17:59,-Infinity
1.8025346,-0.3522469,9.836577,-0.0013315806,-0.0022636869,-7.656588E-4,40.0,1.769764,-0.31932664,9.640253,0.032770637,-0.032920275,0.19632454,0.012815749,-0.09119114,0.31140015,2017-10-30 02:18:00,-Infinity
1.7738042,-0.3522469,9.7863,2.330266E-4,0.0035286883,-0.0012317119,40.0,1.7711107,-0.3242647,9.639804,0.0026934769,-0.027982233,0.14649522,0.012579361,-0.09133831,0.31120983,2017-10-30 02:18:01,-Infinity
1.8145056,-0.3402759,9.807847,2.330266E-4,0.0013981595,8.9881686E-4,40.0,1.7673697,-0.320823,9.640702,0.047135845,-0.019452889,0.16714521,0.012726147,-0.09108865,0.3116257,2017-10-30 02:18:02,-Infinity
1.795352,-0.35942954,9.7240505,0.0029627667,-0.001298291,-5.326322E-4,40.0,1.7669208,-0.32202014,9.640702,0.028431145,-0.037409402,0.08334815,0.012678811,-0.091085345,0.31187078,2017-10-30 02:18:03,-Infinity
1.7929578,-0.3474585,9.762358,8.322378E-4,-0.0023635554,-0.0015978967,40.0,1.778443,-0.32845455,9.638308,0.014514848,-0.019003976,0.124049574,0.012519188,-0.091759294,0.31151918,2017-10-30 02:18:05,-Infinity
1.8025346,-0.3019687,9.716867,0.0010319749,-9.653959E-4,7.9894834E-4,39.0,1.7790415,-0.32591072,9.638308,0.023493104,0.023942016,0.07855974,0.012637437,-0.09174842,0.3113589,2017-10-30 02:18:06,-Infinity
1.8025346,-0.3450643,9.709685,-5.326322E-4,-8.9881686E-4,9.653959E-4,40.0,1.7753005,-0.3298013,9.6389065,0.027234044,-0.015263036,0.070778586,0.012404728,-0.091625735,0.31149027,2017-10-30 02:18:08,-Infinity
1.8145056,-0.3402759,9.743204,-5.326322E-4,1.6644757E-4,9.653959E-4,39.0,1.7726071,-0.3345897,9.639206,0.04189853,-0.005686229,0.10399814,0.012142076,-0.09157275,0.3116341,2017-10-30 02:18:09,-Infinity
1.783381,-0.3067571,9.776723,-0.0016311861,4.993427E-4,0.0020972393,39.0,1.7729063,-0.3378817,9.639056,0.0104746325,0.031124622,0.1376666,0.011980272,-0.091637224,0.31157586,2017-10-30 02:18:11,-Infinity
1.7498622,-0.35464114,9.7719345,-0.002596582,3.3289514E-4,-1.6644757E-4,39.0,1.7727567,-0.33638534,9.639206,-0.022894554,-0.018255789,0.13272856,0.012042908,-0.09160611,0.31151965,2017-10-30 02:18:12,-Infinity
1.8097172,-0.33069912,9.817424,-4.660532E-4,-7.323693E-4,-1.6644757E-4,39.0,1.7706618,-0.33683425,9.639505,0.039055414,0.006135142,0.17791912,0.011980911,-0.091510385,0.3114811,2017-10-30 02:18:13,-Infinity
1.8001404,-0.33309332,9.740809,7.323693E-4,-0.0017643442,-1.3315806E-4,39.0,1.773056,-0.33848026,9.639056,0.027084406,0.0053869537,0.10175357,0.011937459,-0.09165768,0.31142727,2017-10-30 02:18:14,-Infinity
1.8049288,-0.35703534,9.736021,7.323693E-4,3.6618466E-4,-0.0011984225,40.0,1.7760488,-0.33444005,9.638607,0.028880058,-0.022595279,0.097414084,0.012165475,-0.09173885,0.3112851,2017-10-30 02:18:15,-Infinity
1.7690158,-0.3474585,9.817424,5.9921126E-4,-0.0020972393,3.3289514E-4,40.0,1.776348,-0.33399114,9.638607,-0.0073322426,-0.0134673845,0.17881694,0.012182413,-0.091746956,0.31115726,2017-10-30 02:18:17,-Infinity
1.7977462,-0.36421794,9.764751,0.0037950044,3.3289514E-5,0.0013981595,40.0,1.7796401,-0.33608606,9.637859,0.01810615,-0.02813187,0.12689269,0.012139938,-0.091942996,0.3111848,2017-10-30 02:18:18,-Infinity
1.783381,-0.3426701,9.774328,-1.6644757E-4,-6.3250074E-4,0.0012650015,39.0,1.7781436,-0.33713353,9.638158,0.0052373162,-0.0055365916,0.13617022,0.012053291,-0.09188734,0.3111013,2017-10-30 02:18:19,-Infinity
1.8145056,-0.33309332,9.743204,0.0030293458,-0.0016977652,-8.6552737E-4,40.0,1.7757494,-0.3350386,9.638607,0.03875614,0.0019452889,0.10459669,0.012104926,-0.09174195,0.31097528,2017-10-30 02:18:20,-Infinity
1.7905636,-0.3354875,9.719262,-8.9881686E-4,-0.0012317119,-7.656588E-4,39.0,1.7711107,-0.3369839,9.639356,0.019452889,0.001496376,0.07990648,0.011928327,-0.09154658,0.31092408,2017-10-30 02:18:21,-Infinity
1.8049288,-0.36900634,9.76954,0.0022969765,8.9881686E-4,-0.0018309233,39.0,1.7667712,-0.3429694,9.639954,0.03815759,-0.026036944,0.12958616,0.0115506,-0.091430455,0.31076416,2017-10-30 02:18:23,-Infinity
1.7905636,-0.3043629,9.762358,4.3276369E-4,-3.6618466E-4,3.3289514E-4,39.0,1.7666216,-0.34730887,9.639954,0.023942016,0.042945992,0.12240356,0.011323035,-0.09149061,0.31059113,2017-10-30 02:18:24,-Infinity
1.8025346,-0.3163339,9.714474,-6.3250074E-4,6.9907977E-4,-7.323693E-4,39.0,1.769315,-0.3474585,9.639356,0.03321955,0.031124622,0.07511808,0.011337654,-0.09162909,0.3103685,2017-10-30 02:18:25,-Infinity
1.8168998,-0.38576576,9.719262,-0.001165133,-3.9947417E-4,-0.0016644757,40.0,1.7696143,-0.34491467,9.639356,0.047285482,-0.040851068,0.07990648,0.011453837,-0.091603816,0.31022194,2017-10-30 02:18:26,-Infinity
1.7977462,-0.3402759,9.781511,-9.986854E-5,0.0017310547,-5.9921126E-4,39.0,1.7696143,-0.3422212,9.639505,0.02813187,0.0019452889,0.14200608,0.011573373,-0.09156561,0.3100755,2017-10-30 02:18:27,-Infinity
1.7522564,-0.3402759,9.707291,3.3289514E-5,-9.986854E-4,-0.0016311861,39.0,1.7751509,-0.339827,9.638607,-0.022894554,-4.4891282E-4,0.06868366,0.01176081,-0.09179713,0.30990627,2017-10-30 02:18:29,-Infinity
1.7690158,-0.3378817,9.783905,-0.001165133,-9.653959E-4,-3.9947417E-4,39.0,1.7788919,-0.3366846,9.638008,-0.009876082,-0.0011971008,0.14589667,0.011974843,-0.09193669,0.3099489,2017-10-30 02:18:30,-Infinity
1.8025346,-0.32830492,9.793482,9.653959E-4,-0.0020306604,-3.9947417E-4,40.0,1.7818847,-0.33444005,9.63756,0.02064999,0.006135142,0.15592238,0.0121397935,-0.09204139,0.31004086,2017-10-30 02:18:31,-Infinity
1.819294,-0.3426701,9.834184,0.0023635554,0.0024301345,0.0016644757,39.0,1.7802386,-0.33249477,9.637859,0.039055414,-0.010175358,0.19632454,0.012220372,-0.09193054,0.3101429,2017-10-30 02:18:33,-Infinity
1.8432361,-0.32591072,9.7719345,-0.0029627667,-7.656588E-4,0.0016644757,39.0,1.7781436,-0.33518824,9.638158,0.065092355,0.009277532,0.13377602,0.01204462,-0.09186879,0.31004974,2017-10-30 02:18:34,-Infinity
1.7809868,-0.36182374,9.7479925,9.321064E-4,-6.9907977E-4,-0.001298291,39.0,1.7790415,-0.33713353,9.638008,0.0019452889,-0.024690205,0.10998364,0.011953177,-0.091952324,0.30991688,2017-10-30 02:18:35,-Infinity
1.7977462,-0.36900634,9.767146,-0.0022636869,-6.9907977E-4,-2.330266E-4,39.0,1.7823335,-0.3386299,9.63726,0.015412673,-0.030376434,0.12988544,0.011943043,-0.09212926,0.30998448,2017-10-30 02:18:36,-Infinity
1.7905636,-0.3522469,9.752781,0.0022636869,-0.0016644757,7.656588E-4,40.0,1.7826328,-0.33608606,9.63726,0.007930793,-0.01616086,0.11552023,0.012078043,-0.09210986,0.31006154,2017-10-30 02:18:37,-Infinity
1.795352,-0.28520927,9.7958765,1.3315806E-4,0.002596582,7.656588E-4,39.0,1.7790415,-0.3314473,9.638158,0.0163105,0.04623802,0.15771803,0.0122620445,-0.0918566,0.31022373,2017-10-30 02:18:39,-Infinity
1.7929578,-0.3426701,9.738416,0.0011318434,-7.323693E-4,0.0015646071,40.0,1.7739538,-0.32710782,9.639206,0.019003976,-0.015562311,0.09920973,0.012387004,-0.09153308,0.31021717,2017-10-30 02:18:40,-Infinity
1.7785926,-0.3522469,9.716867,-0.0011984225,0.002330266,-5.659217E-4,39.0,1.7715596,-0.32291797,9.639804,0.0070329676,-0.02932897,0.07706337,0.012545155,-0.09135218,0.31013367,2017-10-30 02:18:41,-Infinity
1.8097172,-0.37140054,9.788693,-0.0011984225,0.0012650015,-5.659217E-4,40.0,1.7699136,-0.32411507,9.640103,0.0398036,-0.047285482,0.14859015,0.012437883,-0.09129606,0.3099226,2017-10-30 02:18:42,-Infinity
1.8240824,-0.36182374,9.716867,9.986854E-5,-0.0030959249,0.0019640813,39.0,1.7733552,-0.3238158,9.639505,0.050727148,-0.038007952,0.07736264,0.01250421,-0.091453835,0.30984625,2017-10-30 02:18:43,-Infinity
1.7977462,-0.33309332,9.726444,0.001165133,-9.653959E-4,-0.0012317119,39.0,1.7766473,-0.32695818,9.638757,0.021098902,-0.006135142,0.087687634,0.012410588,-0.09167202,0.3099049,2017-10-30 02:18:45,-Infinity
1.8049288,-0.33069912,9.7719345,-3.3289514E-5,2.9960563E-4,-9.986854E-4,39.0,1.781735,-0.32516253,9.637859,0.023193829,-0.0055365916,0.1340753,0.0125837205,-0.091892585,0.3099484,2017-10-30 02:18:46,-Infinity
1.795352,-0.32830492,9.752781,0.0020972393,2.9960563E-4,0.0011318434,39.0,1.7794905,-0.32456398,9.638308,0.015861586,-0.0037409402,0.11447277,0.012593075,-0.09176786,0.31009188,2017-10-30 02:18:47,-Infinity
1.8025346,-0.37379473,9.709685,-1.6644757E-4,3.9947417E-4,-1.9973709E-4,39.0,1.7764976,-0.32845455,9.638757,0.026036944,-0.045340195,0.07092822,0.012369623,-0.091682866,0.31023356,2017-10-30 02:18:48,-Infinity
1.8145056,-0.36182374,9.726444,8.9881686E-4,-6.657903E-4,-0.0012650015,39.0,1.7720085,-0.327856,9.639505,0.04249708,-0.033967737,0.08693945,0.012331557,-0.0914492,0.31034085,2017-10-30 02:18:49,-Infinity
1.8121114,-0.35464114,9.738416,-0.0011318434,-0.0012317119,8.9881686E-4,39.0,1.7739538,-0.33174658,9.639056,0.03815759,-0.022894554,0.09935937,0.012179047,-0.09160553,0.31042388,2017-10-30 02:18:51,-Infinity
1.7905636,-0.32351652,9.762358,-0.0011318434,-0.0022969765,-1.6644757E-4,39.0,1.7799393,-0.33414078,9.637859,0.01062427,0.01062427,0.12449849,0.012176134,-0.09193595,0.3105314,2017-10-30 02:18:52,-Infinity
1.8025346,-0.3378817,9.774328,9.986854E-4,3.9947417E-4,-0.0014314491,39.0,1.7790415,-0.3357868,9.638008,0.023493104,-0.0020949265,0.13631986,0.012074653,-0.09191877,0.31046852,2017-10-30 02:18:53,-Infinity
1.8025346,-0.35942954,9.788693,-6.657903E-5,-6.657903E-4,-3.6618466E-4,39.0,1.7790415,-0.33758244,9.638008,0.023493104,-0.02184709,0.15068507,0.011977434,-0.09194839,0.3103926,2017-10-30 02:18:54,-Infinity
1.8145056,-0.36661214,9.791088,5.9921126E-4,4.3276369E-4,5.326322E-4,39.0,1.775899,-0.34072483,9.638457,0.038606502,-0.025887307,0.15263036,0.0117693,-0.09184772,0.3103164,2017-10-30 02:18:55,-Infinity
1.8408419,-0.35703534,9.719262,0.0018975022,1.3315806E-4,-0.0015646071,39.0,1.7739538,-0.3470096,9.638607,0.06688801,-0.010025719,0.08065467,0.011433137,-0.09184845,0.31031594,2017-10-30 02:18:57,-Infinity
1.8240824,-0.37618893,9.707291,8.322378E-4,0.0011984225,5.659217E-4,39.0,1.776348,-0.34371758,9.638158,0.047734395,-0.03247136,0.069132574,0.011625217,-0.09191704,0.31028476,2017-10-30 02:18:58,-Infinity
1.831265,-0.3354875,9.779117,-6.9907977E-4,-6.9907977E-4,5.9921126E-4,39.0,1.7787422,-0.34237084,9.637859,0.0525228,0.0068833297,0.1412579,0.011725267,-0.09201524,0.31021795,2017-10-30 02:18:59,-Infinity
1.7977462,-0.39055416,9.7863,-6.9907977E-4,0.0014314491,0.00272974,39.0,1.778443,-0.34611177,9.63771,0.019303251,-0.04444237,0.14859015,0.011523155,-0.09206419,0.31008455,2017-10-30 02:19:00,-Infinity
1.8168998,-0.32830492,9.726444,0.002130529,-4.660532E-4,-1.6644757E-4,39.0,1.780089,-0.3465607,9.63741,0.036810853,0.018255789,0.08903438,0.011517815,-0.09214869,0.30995902,2017-10-30 02:19:01,-Infinity
1.7618332,-0.33069912,9.764751,-0.0010652645,5.9921126E-4,-1.6644757E-4,39.0,1.7735049,-0.3393781,9.6389065,-0.011671733,0.008678981,0.12584522,0.011763668,-0.09171556,0.3100023,2017-10-30 02:19:03,-Infinity
1.7809868,-0.3354875,9.731233,-0.0011318434,3.6618466E-4,-1.9973709E-4,39.0,1.7694647,-0.33533788,9.639804,0.011522096,-1.496376E-4,0.09142858,0.011908374,-0.09145014,0.31012085,2017-10-30 02:19:04,-Infinity
1.77141,-0.3043629,9.759963,-0.002197108,-6.9907977E-4,0.0019307918,39.0,1.7700633,-0.3362357,9.639654,0.0013467384,0.03187281,0.12030864,0.011878478,-0.091487944,0.31016055,2017-10-30 02:19:05,-Infinity
1.8288708,-0.33069912,9.803059,-8.9881686E-4,-6.657903E-4,-4.3276369E-4,39.0,1.7706618,-0.32755673,9.639804,0.058209028,-0.0031423897,0.16325463,0.012291578,-0.0913849,0.3099881,2017-10-30 02:19:06,-Infinity
1.7881694,-0.3522469,9.79827,0.0033622407,-0.0017310547,-0.001498028,39.0,1.7723078,-0.32456398,9.639654,0.015861586,-0.027682956,0.15861586,0.012455114,-0.09141967,0.30985478,2017-10-30 02:19:07,-Infinity
1.7857752,-0.36182374,9.728839,-6.657903E-4,4.660532E-4,0.0010319749,39.0,1.7711107,-0.3321955,9.639654,0.014664485,-0.029628245,0.089184016,0.012072075,-0.091478616,0.30995706,2017-10-30 02:19:09,-Infinity
1.8216882,-0.33309332,9.671378,3.9947417E-4,-5.9921126E-4,-3.3289514E-5,39.0,1.7718589,-0.33653498,9.639356,0.049829323,0.0034416649,0.032022446,0.011892916,-0.09158534,0.31019714,2017-10-30 02:19:10,-Infinity
1.8001404,-0.36900634,9.759963,0.0018975022,-6.657903E-4,4.3276369E-4,39.0,1.7772459,-0.33638534,9.638308,0.022894554,-0.032621,0.121655375,0.011968887,-0.09184563,0.31000987,2017-10-30 02:19:11,-Infinity
1.8384476,-0.35464114,9.757569,-2.330266E-4,6.657903E-4,-0.0014314491,39.0,1.7764976,-0.3366846,9.638457,0.06194997,-0.017956512,0.11911154,0.011928667,-0.09181437,0.30987945,2017-10-30 02:19:12,-Infinity
1.8001404,-0.32830492,9.810242,8.322378E-4,-3.9947417E-4,6.9907977E-4,39.0,1.7718589,-0.33444005,9.639356,0.028281508,0.006135142,0.17088614,0.011957331,-0.091555566,0.30981687,2017-10-30 02:19:13,-Infinity
1.8001404,-0.3450643,9.764751,4.993427E-4,6.657903E-5,-1.9973709E-4,39.0,1.7687165,-0.33354223,9.639954,0.031423897,-0.011522096,0.12479776,0.01194868,-0.091389924,0.30975184,2017-10-30 02:19:15,-Infinity
1.795352,-0.3522469,9.700109,-5.659217E-4,0.002197108,8.6552737E-4,39.0,1.7745523,-0.3350386,9.6389065,0.020799628,-0.017208325,0.06120178,0.011971648,-0.09169693,0.3098102,2017-10-30 02:19:16,-Infinity
1.795352,-0.3378817,9.69532,-2.330266E-4,-8.9881686E-4,7.323693E-4,39.0,1.777994,-0.338181,9.638158,0.017357962,2.992752E-4,0.057161566,0.01187195,-0.09191531,0.3097987,2017-10-30 02:19:17,-Infinity
1.8145056,-0.36421794,9.731233,0.0018975022,-8.9881686E-4,-0.0024634239,39.0,1.7805378,-0.338181,9.63771,0.033967737,-0.026036944,0.0935235,0.011901824,-0.09204213,0.3096948,2017-10-30 02:19:19,-Infinity
1.7809868,-0.3067571,9.810242,-1.9973709E-4,7.323693E-4,-0.0022303974,39.0,1.7767969,-0.33399114,9.638457,0.004189853,0.027234044,0.17178397,0.012039681,-0.091792494,0.309558,2017-10-30 02:19:20,-Infinity
1.8049288,-0.3067571,9.755175,-0.0012650015,-3.3289514E-4,-0.001165133,39.0,1.7733552,-0.33414078,9.639056,0.031573534,0.027383681,0.11611878,0.011974147,-0.09162295,0.30954018,2017-10-30 02:19:21,-Infinity
1.8240824,-0.3402759,9.704897,-1.9973709E-4,0.0025632926,-1.9973709E-4,39.0,1.7755998,-0.3309984,9.638757,0.048482586,-0.009277532,0.066139825,0.01215743,-0.09168902,0.30954102,2017-10-30 02:19:23,-Infinity
1.7905636,-0.35703534,9.745598,2.9960563E-4,-9.653959E-4,0.0018975022,39.0,1.7760488,-0.32606035,9.6389065,0.014514848,-0.030974984,0.106691614,0.01241775,-0.09163101,0.3096417,2017-10-30 02:19:24,-Infinity
1.795352,-0.3522469,9.764751,-0.0028961876,9.986854E-5,-0.001298291,39.0,1.7788919,-0.33444005,9.638158,0.016460137,-0.017806875,0.12659341,0.012049948,-0.09189941,0.30960795,2017-10-30 02:19:25,-Infinity
1.819294,-0.35464114,9.762358,-1.9973709E-4,-9.986854E-5,7.323693E-4,39.0,1.7797897,-0.3350386,9.637859,0.039504327,-0.019602526,0.12449849,0.012025102,-0.09195541,0.30951366,2017-10-30 02:19:26,-Infinity
1.7809868,-0.3378817,9.743204,-1.9973709E-4,-0.001165133,7.323693E-4,39.0,1.7845781,-0.33054948,9.637111,-0.0035913025,-0.0073322426,0.106093064,0.012322026,-0.09211658,0.30948684,2017-10-30 02:19:27,-Infinity
1.8240824,-0.3426701,9.7958765,-0.0011318434,0.0,-0.0013315806,39.0,1.7874212,-0.3309984,9.636662,0.036661215,-0.011671733,0.1592144,0.012348129,-0.09226662,0.3094863,2017-10-30 02:19:29,-Infinity
1.7809868,-0.32351652,9.740809,9.986854E-4,0.0,-2.663161E-4,39.0,1.7851766,-0.32531217,9.63726,-0.004189853,0.0017956513,0.10354923,0.012579015,-0.09207173,0.30944,2017-10-30 02:19:30,-Infinity
1.7977462,-0.36900634,9.731233,-1.9973709E-4,0.001165133,-0.0010652645,39.0,1.7863737,-0.3238158,9.637111,0.011372458,-0.045190558,0.09412205,0.012672933,-0.09210238,0.30946895,2017-10-30 02:19:31,-Infinity
1.819294,-0.3474585,9.714474,8.6552737E-4,0.0022303974,-0.002130529,39.0,1.7868227,-0.32635963,9.636961,0.03247136,-0.021098902,0.07751228,0.012578746,-0.0921593,0.30969015,2017-10-30 02:19:32,-Infinity
1.807323,-0.3474585,9.733627,0.0026964506,2.663161E-4,-0.0010652645,39.0,1.7853262,-0.32725745,9.637111,0.021996727,-0.020201078,0.09651626,0.012517607,-0.09210086,0.3097131,2017-10-30 02:19:33,-Infinity
1.7977462,-0.2923919,9.690532,0.0017310547,-0.002996056,0.0,39.0,1.7836803,-0.33234513,9.63726,0.014065935,0.03995324,0.05327099,0.01224902,-0.09210032,0.30980363,2017-10-30 02:19:35,-Infinity
1.7785926,-0.3115455,9.762358,0.0017310547,-8.6552737E-4,0.0010652645,39.0,1.7830818,-0.33279404,9.63741,-0.004489128,0.02124854,0.1249474,0.012213032,-0.09208082,0.30974743,2017-10-30 02:19:36,-Infinity
1.8216882,-0.3402759,9.805453,7.323693E-4,0.001498028,-0.0013981595,39.0,1.7803882,-0.3298013,9.638008,0.04129998,-0.0104746325,0.16744448,0.012292867,-0.09190704,0.3095245,2017-10-30 02:19:38,-Infinity
1.7857752,-0.3354875,9.752781,-0.0013981595,-6.3250074E-4,7.323693E-4,39.0,1.7809868,-0.33354223,9.63771,0.0047884034,-0.0019452889,0.11507132,0.0121044535,-0.09199664,0.30936393,2017-10-30 02:19:39,-Infinity
1.7785926,-0.3139397,9.688137,-0.002530003,5.326322E-4,-3.6618466E-4,39.0,1.7781436,-0.3362357,9.638158,4.4891282E-4,0.022296004,0.04997896,0.011906069,-0.09189755,0.3091288,2017-10-30 02:19:40,-Infinity
1.8121114,-0.3474585,9.781511,7.323693E-4,-5.326322E-4,-0.002130529,39.0,1.7761984,-0.33683425,9.638457,0.035913024,-0.01062427,0.14305355,0.011828153,-0.09181444,0.30894217,2017-10-30 02:19:41,-Infinity
1.7905636,-0.3378817,9.791088,0.0017976337,0.0026631611,0.0,39.0,1.7750013,-0.3333926,9.6389065,0.015562311,-0.004489128,0.15218145,0.01198307,-0.09169836,0.30900225,2017-10-30 02:19:43,-Infinity
1.8025346,-0.3378817,9.731233,-0.0018309233,3.9947417E-4,-6.657903E-5,39.0,1.7790415,-0.3298013,9.638158,0.023493104,-0.00808043,0.09307459,0.012216344,-0.09184313,0.30894318,2017-10-30 02:19:44,-Infinity
1.8216882,-0.32591072,9.774328,2.9960563E-4,-6.657903E-4,9.986854E-4,39.0,1.7806876,-0.33713353,9.63771,0.041000705,0.011222821,0.13661914,0.011879614,-0.09204604,0.3088931,2017-10-30 02:19:45,-Infinity
1.8001404,-0.36900634,9.803059,6.3250074E-4,6.657903E-4,0.0021638183,39.0,1.7827824,-0.33773208,9.63726,0.017357962,-0.03127426,0.16579847,0.011882356,-0.092152745,0.30888543,2017-10-30 02:19:46,-Infinity
1.8121114,-0.37140054,9.759963,6.3250074E-4,-0.0014647386,-0.0010319749,39.0,1.7809868,-0.33997664,9.63756,0.031124622,-0.031423897,0.12240356,0.011768151,-0.09209594,0.30909213,2017-10-30 02:19:48,-Infinity
1.7857752,-0.3211223,9.7479925,2.330266E-4,-3.6618466E-4,0.0022636869,39.0,1.7788919,-0.33922845,9.637859,0.0068833297,0.01810615,0.110133275,0.01177397,-0.091982365,0.30915174,2017-10-30 02:19:49,-Infinity
1.8264766,-0.33309332,9.7863,0.001298291,0.0017643442,1.3315806E-4,39.0,1.7735049,-0.338181,9.6389065,0.052971713,0.005087679,0.14739305,0.011747699,-0.091703266,0.3092378,2017-10-30 02:19:50,-Infinity
1.7881694,-0.35464114,9.764751,0.0016311861,-7.323693E-4,-1.6644757E-4,39.0,1.7741034,-0.33758244,9.638757,0.014065935,-0.017058687,0.12599486,0.011787665,-0.091725826,0.30925712,2017-10-30 02:19:51,-Infinity
1.783381,-0.3211223,9.736021,-0.0020972393,2.330266E-4,-0.0019307918,39.0,1.7726071,-0.33967736,9.639056,0.010773907,0.018555064,0.09696517,0.011658013,-0.09168473,0.3092129,2017-10-30 02:19:53,-Infinity
1.8001404,-0.38815996,9.76954,-0.0020972393,-8.322378E-4,0.0012650015,40.0,1.7726071,-0.34281975,9.6389065,0.027533319,-0.045340195,0.13063364,0.011511962,-0.09173046,0.3093051,2017-10-30 02:19:54,-Infinity
1.795352,-0.3354875,9.788693,0.0019307918,3.9947417E-4,7.9894834E-4,39.0,1.774702,-0.3462614,9.638457,0.02064999,0.010773907,0.15023616,0.011385185,-0.0918913,0.30932644,2017-10-30 02:19:55,-Infinity
1.7977462,-0.35464114,9.731233,8.6552737E-4,3.9947417E-4,-0.0013315806,39.0,1.7729063,-0.34252048,9.6389065,0.024839843,-0.012120646,0.0923264,0.011532285,-0.091742516,0.30929455,2017-10-30 02:19:56,-Infinity
1.7283144,-0.35942954,9.757569,0.0014314491,5.659217E-4,5.9921126E-4,39.0,1.7733552,-0.33773208,9.639056,-0.04504092,-0.021697452,0.11851298,0.011775714,-0.09168346,0.3093368,2017-10-30 02:19:58,-Infinity
1.8288708,-0.35464114,9.788693,3.6618466E-4,0.0026964506,-0.0015313176,39.0,1.7732056,-0.3374328,9.639056,0.05566519,-0.017208325,0.14963761,0.011765236,-0.091677725,0.30907997,2017-10-30 02:19:59,-Infinity
1.807323,-0.3378817,9.781511,-3.3289514E-4,-0.0010319749,-0.0015646071,39.0,1.7778444,-0.33773208,9.638158,0.029478608,-1.496376E-4,0.14335282,0.011789558,-0.09191783,0.30870613,2017-10-30 02:20:01,-Infinity
1.8097172,-0.35942954,9.745598,-4.660532E-4,5.9921126E-4,-5.659217E-4,39.0,1.7790415,-0.3362357,9.638008,0.03067571,-0.023193829,0.10758944,0.011856833,-0.09195575,0.30842784,2017-10-30 02:20:02,-Infinity
1.7761984,-0.36182374,9.716867,-0.002596582,-4.660532E-4,-5.659217E-4,39.0,1.776348,-0.33488896,9.638457,-1.496376E-4,-0.026934769,0.078410104,0.011899309,-0.091796264,0.30866995,2017-10-30 02:20:03,-Infinity
1.8384476,-0.2947861,9.76954,-1.3315806E-4,3.3289514E-4,-7.9894834E-4,39.0,1.774702,-0.33309332,9.6389065,0.06374562,0.038307227,0.13063364,0.011989217,-0.09168607,0.3089315,2017-10-30 02:20:04,-Infinity
1.7905636,-0.3426701,9.774328,9.986854E-5,-5.9921126E-4,9.986854E-4,39.0,1.7705121,-0.32216978,9.640103,0.020051438,-0.020500353,0.13422494,0.012474813,-0.09129736,0.30921504,2017-10-30 02:20:06,-Infinity
1.8049288,-0.32351652,9.743204,-9.653959E-4,4.660532E-4,-0.0011318434,39.0,1.773056,-0.33039984,9.639356,0.03187281,0.0068833297,0.1038485,0.012106901,-0.09155819,0.30911312,2017-10-30 02:20:07,-Infinity
1.8121114,-0.2947861,9.709685,-0.0015313176,6.657903E-5,9.321064E-4,39.0,1.7753005,-0.33354223,9.638757,0.036810853,0.03875614,0.07092822,0.011985706,-0.09171748,0.30903092,2017-10-30 02:20:09,-Infinity
1.8001404,-0.32830492,9.750386,-0.0015313176,6.657903E-5,0.0019973707,39.0,1.7787422,-0.33010057,9.638308,0.021398177,0.0017956513,0.11207857,0.012198275,-0.09183499,0.30897865,2017-10-30 02:20:10,-Infinity
1.7881694,-0.33309332,9.767146,-4.993427E-4,6.3250074E-4,6.657903E-4,39.0,1.7775451,-0.3321955,9.638457,0.01062427,-8.9782564E-4,0.12868834,0.012074919,-0.091809615,0.30892858,2017-10-30 02:20:11,-Infinity
1.8432361,-0.3498527,9.743204,5.659217E-4,-4.3276369E-4,-3.9947417E-4,39.0,1.7742531,-0.33054948,9.639056,0.06898294,-0.019303251,0.10414778,0.0120747555,-0.09162162,0.30867597,2017-10-30 02:20:12,-Infinity
1.7761984,-0.33069912,9.736021,-4.660532E-4,0.0013981595,-0.0012650015,39.0,1.7766473,-0.32995093,9.638607,-4.4891282E-4,-7.48188E-4,0.097414084,0.012132174,-0.091737494,0.30853662,2017-10-30 02:20:13,-Infinity
1.783381,-0.38576576,9.779117,-4.660532E-4,0.0013981595,-1.9973709E-4,39.0,1.7751509,-0.32995093,9.6389065,0.008230069,-0.05581483,0.14021043,0.0120960865,-0.09166509,0.30843285,2017-10-30 02:20:15,-Infinity
1.7283144,-0.35942954,9.743204,0.002596582,-9.653959E-4,0.001298291,39.0,1.7744027,-0.33204585,9.6389065,-0.046088383,-0.027383681,0.104297414,0.011993793,-0.0916595,0.30852267,2017-10-30 02:20:16,-Infinity
1.7857752,-0.3402759,9.7479925,-5.9921126E-4,-0.0030959249,-8.322378E-4,39.0,1.7745523,-0.33473933,9.6389065,0.011222821,-0.0055365916,0.10908581,0.011879083,-0.091702715,0.30870572,2017-10-30 02:20:17,-Infinity
1.807323,-0.3426701,9.831789,-6.3250074E-4,-4.993427E-4,-2.9960563E-4,39.0,1.7717092,-0.33309332,9.639505,0.03561375,-0.009576807,0.19228433,0.011896062,-0.09154461,0.3085046,2017-10-30 02:20:18,-Infinity
1.819294,-0.3187281,9.783905,-3.9947417E-4,-0.0019973707,0.0022969765,39.0,1.7706618,-0.33518824,9.639505,0.048632223,0.016460137,0.14440028,0.011757629,-0.09152399,0.3082854,2017-10-30 02:20:19,-Infinity
1.783381,-0.3354875,9.810242,0.0017310547,-9.321064E-4,-8.9881686E-4,39.0,1.770961,-0.3354875,9.639505,0.012419921,0.0,0.1707365,0.011754406,-0.091546714,0.30838504,2017-10-30 02:20:21,-Infinity
1.7929578,-0.3402759,9.791088,0.0018309233,0.0023635554,0.0,39.0,1.7736546,-0.3326444,9.639056,0.019303251,-0.007631518,0.15203181,0.011950727,-0.0916325,0.3085452,2017-10-30 02:20:22,-Infinity
1.8001404,-0.32351652,9.759963,-0.0024301345,0.001298291,0.0,39.0,1.7721581,-0.33399114,9.639356,0.027982233,0.0104746325,0.12060791,0.011871507,-0.091575965,0.3085983,2017-10-30 02:20:23,-Infinity
1.8240824,-0.3187281,9.745598,-9.986854E-5,-0.0031957934,-9.986854E-5,39.0,1.7732056,-0.32755673,9.639356,0.050876785,0.008828619,0.1062427,0.012187907,-0.09152776,0.30853167,2017-10-30 02:20:24,-Infinity
1.7618332,-0.32830492,9.743204,-9.986854E-5,0.0010652645,9.653959E-4,39.0,1.7757494,-0.32097265,9.639056,-0.013916298,-0.0073322426,0.10414778,0.01255191,-0.09154524,0.30850723,2017-10-30 02:20:26,-Infinity
1.807323,-0.3474585,9.81503,-0.0014647386,6.3250074E-4,3.3289514E-4,39.0,1.7700633,-0.32441434,9.640103,0.037259765,-0.023044191,0.17492636,0.012301167,-0.09132227,0.30861822,2017-10-30 02:20:27,-Infinity
1.831265,-0.33309332,9.726444,0.0017310547,-0.001498028,3.3289514E-4,39.0,1.7681179,-0.32621,9.640403,0.06314707,-0.0068833297,0.08604162,0.012201131,-0.091252536,0.3088244,2017-10-30 02:20:28,-Infinity
1.8001404,-0.3211223,9.764751,-0.0020306604,6.657903E-4,2.9960563E-4,39.0,1.7681179,-0.3333926,9.640103,0.032022446,0.012270284,0.124648124,0.011873626,-0.09136543,0.30901578,2017-10-30 02:20:29,-Infinity
1.7785926,-0.3115455,9.733627,0.0019640813,-0.0017310547,-8.9881686E-4,39.0,1.7675194,-0.33728316,9.640103,0.011073183,0.025737667,0.0935235,0.011688372,-0.09139182,0.30916134,2017-10-30 02:20:31,-Infinity
1.7498622,-0.3402759,9.793482,8.9881686E-4,-6.657903E-4,0.0012317119,39.0,1.7696143,-0.33129767,9.639954,-0.019752163,-0.008978256,0.15352818,0.012030602,-0.09139669,0.30936977,2017-10-30 02:20:32,-Infinity
1.8264766,-0.3115455,9.755175,4.660532E-4,-2.663161E-4,8.9881686E-4,39.0,1.7676691,-0.32650927,9.640403,0.058807578,0.014963761,0.114772044,0.012242899,-0.09122482,0.30946025,2017-10-30 02:20:33,-Infinity
1.8049288,-0.3378817,9.860519,0.0036618465,0.0018642128,-1.6644757E-4,39.0,1.7670705,-0.32725745,9.6405525,0.037858315,-0.01062427,0.21996728,0.012186476,-0.09121308,0.3093361,2017-10-30 02:20:34,-Infinity
1.7857752,-0.32830492,9.774328,-3.9947417E-4,6.657903E-4,-0.0023635554,39.0,1.7679683,-0.32606035,9.640403,0.017806875,-0.002244564,0.13392566,0.012244639,-0.09123418,0.3092192,2017-10-30 02:20:36,-Infinity
1.8432361,-0.3474585,9.697714,6.657903E-4,-3.9947417E-4,-0.001298291,39.0,1.7655741,-0.3238158,9.640852,0.07766192,-0.023642741,0.05686229,0.012313647,-0.091080874,0.30919656,2017-10-30 02:20:37,-Infinity
1.8264766,-0.3402759,9.76954,-7.9894834E-4,-0.0018309233,9.321064E-4,39.0,1.7663223,-0.3242647,9.640702,0.06015432,-0.016011223,0.12883797,0.012292867,-0.09113239,0.30909547,2017-10-30 02:20:38,-Infinity
1.7905636,-0.32591072,9.721656,-7.9894834E-4,2.9960563E-4,-0.0011984225,39.0,1.7727567,-0.327856,9.639505,0.017806875,0.0019452889,0.08215105,0.012209114,-0.09150277,0.3089578,2017-10-30 02:20:39,-Infinity
1.795352,-0.3019687,9.781511,0.002330266,0.001498028,9.986854E-5,39.0,1.773056,-0.33039984,9.639356,0.022296004,0.028431145,0.14215572,0.012086517,-0.091561645,0.30887744,2017-10-30 02:20:40,-Infinity
1.8001404,-0.36421794,9.721656,0.002330266,4.3276369E-4,0.001165133,39.0,1.7733552,-0.32935238,9.639206,0.026785132,-0.034865562,0.08245032,0.0121414075,-0.091560096,0.30886915,2017-10-30 02:20:42,-Infinity
1.8121114,-0.37379473,9.774328,1.9973709E-4,4.660532E-4,-0.001098554,39.0,1.7726071,-0.33204585,9.639356,0.039504327,-0.041748893,0.13497312,0.011992851,-0.09156568,0.30883023,2017-10-30 02:20:43,-Infinity
1.795352,-0.3187281,9.779117,1.9973709E-4,-0.0016644757,0.0010319749,39.0,1.7760488,-0.33294368,9.638607,0.019303251,0.014215573,0.14050971,0.011996772,-0.0917473,0.30873105,2017-10-30 02:20:44,-Infinity
1.807323,-0.3354875,9.759963,0.0016977652,-7.323693E-4,9.653959E-4,39.0,1.7766473,-0.33189622,9.638607,0.03067571,-0.0035913025,0.1213561,0.012050892,-0.0917594,0.3086833,2017-10-30 02:20:45,-Infinity
1.759439,-0.32351652,9.767146,9.986854E-4,0.0015313176,-8.6552737E-4,39.0,1.7799393,-0.33039984,9.638008,-0.020500353,0.0068833297,0.12913725,0.012162153,-0.09190646,0.30856445,2017-10-30 02:20:46,-Infinity
1.8025346,-0.3498527,9.788693,-0.0011318434,-0.0016644757,1.9973709E-4,39.0,1.7802386,-0.3374328,9.63771,0.022296004,-0.012419921,0.15098435,0.011843585,-0.09202966,0.30870745,2017-10-30 02:20:48,-Infinity
1.8049288,-0.3426701,9.714474,5.659217E-4,-3.3289514E-5,-3.3289514E-5,39.0,1.7826328,-0.3369839,9.63726,0.022296004,-0.005686229,0.077213004,0.011899645,-0.09213556,0.30869266,2017-10-30 02:20:49,-Infinity
1.7905636,-0.3115455,9.750386,-0.0015646071,0.0010319749,-3.3289514E-5,39.0,1.7863737,-0.33354223,9.636662,0.004189853,0.021996727,0.11372458,0.012124941,-0.09226628,0.3086438,2017-10-30 02:20:50,-Infinity
1.7977462,-0.3426701,9.733627,-7.323693E-4,0.0024634239,0.0011318434,39.0,1.7847277,-0.32935238,9.637111,0.013018472,-0.013317747,0.09651626,0.012304132,-0.092123,0.30870083,2017-10-30 02:20:52,-Infinity
1.7809868,-0.35464114,9.767146,-7.323693E-4,3.3289514E-4,0.0011318434,39.0,1.7832314,-0.32875383,9.63741,-0.002244564,-0.025887307,0.1297358,0.012328652,-0.09203321,0.30886754,2017-10-30 02:20:53,-Infinity
1.7977462,-0.3450643,9.759963,-8.9881686E-4,-7.656588E-4,-1.3315806E-4,39.0,1.7859248,-0.33354223,9.636811,0.011821371,-0.011522096,0.12315175,0.01213788,-0.09224309,0.30889663,2017-10-30 02:20:54,-Infinity
1.7857752,-0.37379473,9.827001,0.0012317119,-7.656588E-4,-0.0022636869,39.0,1.7856256,-0.33803135,9.636662,1.496376E-4,-0.035763387,0.19033903,0.011920476,-0.092298776,0.3089266,2017-10-30 02:20:55,-Infinity
1.8240824,-0.33069912,9.762358,0.0013315806,0.0017310547,0.0,39.0,1.7799393,-0.33922845,9.63771,0.044143096,0.008529344,0.124648124,0.011785553,-0.092037216,0.30909112,2017-10-30 02:20:56,-Infinity
1.795352,-0.32830492,9.7863,2.9960563E-4,-6.3250074E-4,-4.993427E-4,39.0,1.7735049,-0.34087446,9.638757,0.02184709,0.012569559,0.14754269,0.01162015,-0.091748014,0.3092833,2017-10-30 02:20:58,-Infinity
1.7546506,-0.32830492,9.788693,-0.0028961876,0.0025632926,0.0016311861,39.0,1.7764976,-0.3357868,9.638457,-0.02184709,0.0074818805,0.15023616,0.011898288,-0.09181079,0.30911437,2017-10-30 02:20:59,-Infinity
1.8145056,-0.3474585,9.712079,9.986854E-4,5.659217E-4,0.0020306604,39.0,1.7738042,-0.3366846,9.6389065,0.04070143,-0.010773907,0.07317279,0.011792953,-0.09169388,0.30888537,2017-10-30 02:21:00,-Infinity
1.7738042,-0.33069912,9.774328,-6.657903E-5,5.659217E-4,9.653959E-4,39.0,1.7720085,-0.34042555,9.639206,0.0017956513,0.009726444,0.13512276,0.011576354,-0.09166737,0.30883428,2017-10-30 02:21:01,-Infinity
1.8097172,-0.3187281,9.750386,3.9947417E-4,0.00272974,-3.9947417E-4,39.0,1.7729063,-0.33922845,9.639056,0.036810853,0.020500353,0.11133038,0.011623771,-0.09169443,0.3085862,2017-10-30 02:21:03,-Infinity
1.795352,-0.3091513,9.805453,0.0026964506,-6.657903E-4,-0.0011318434,39.0,1.7733552,-0.33638534,9.639056,0.021996727,0.027234044,0.16639702,0.011738973,-0.091675535,0.30830696,2017-10-30 02:21:04,-Infinity
1.783381,-0.3378817,9.7719345,0.0016311861,3.9947417E-4,-0.0011318434,39.0,1.7727567,-0.3298013,9.639356,0.01062427,-0.00808043,0.13257892,0.012041395,-0.091544434,0.308216,2017-10-30 02:21:06,-Infinity
1.7809868,-0.3402759,9.733627,-0.0014314491,-5.326322E-4,-0.0011318434,39.0,1.7748517,-0.33084875,9.6389065,0.006135142,-0.009427169,0.0947206,0.012025927,-0.09166783,0.3081822,2017-10-30 02:21:07,-Infinity
1.7666216,-0.3450643,9.719262,0.0028296087,5.326322E-4,9.986854E-4,39.0,1.770961,-0.32845455,9.639804,-0.0043394906,-0.016609775,0.079457566,0.012076706,-0.091434434,0.30818996,2017-10-30 02:21:08,-Infinity
1.783381,-0.33069912,9.779117,0.0022969765,0.00136487,6.657903E-4,39.0,1.7705121,-0.33054948,9.639804,0.012868834,-1.496376E-4,0.13931261,0.011982366,-0.0914478,0.3083081,2017-10-30 02:21:09,-Infinity
1.7666216,-0.3402759,9.757569,0.0012317119,-7.656588E-4,-0.0014647386,39.0,1.773056,-0.33204585,9.639206,-0.006434417,-0.008230069,0.11836334,0.011949768,-0.091594934,0.30830285,2017-10-30 02:21:10,-Infinity
1.7690158,-0.32351652,9.767146,3.3289514E-5,-0.0018309233,7.9894834E-4,39.0,1.7735049,-0.33354223,9.639056,-0.004489128,0.010025719,0.12808979,0.01189283,-0.09164095,0.30839583,2017-10-30 02:21:12,-Infinity
1.8145056,-0.37618893,9.803059,0.0021638183,-0.0028961876,7.9894834E-4,39.0,1.7744027,-0.33638534,9.6389065,0.040102877,-0.0398036,0.16415246,0.011770431,-0.09172572,0.30842075,2017-10-30 02:21:13,-Infinity
1.7618332,-0.3043629,9.791088,-0.001098554,-2.663161E-4,0.0018975022,39.0,1.7700633,-0.3393781,9.639505,-0.008230069,0.0350152,0.1515829,0.0115609905,-0.091564775,0.3084542,2017-10-30 02:21:14,-Infinity
1.783381,-0.3139397,9.752781,0.0010319749,-2.663161E-4,8.322378E-4,39.0,1.7657237,-0.341473,9.640253,0.017657237,0.027533319,0.11252748,0.011387156,-0.091382906,0.30841604,2017-10-30 02:21:15,-Infinity
1.795352,-0.3402759,9.774328,0.0,-9.986854E-5,6.657903E-4,39.0,1.7712604,-0.339827,9.639356,0.024091655,-4.4891282E-4,0.13497312,0.011529086,-0.09163387,0.30816653,2017-10-30 02:21:16,-Infinity
1.8025346,-0.36421794,9.69532,-8.9881686E-4,-6.657903E-4,-2.330266E-4,39.0,1.7794905,-0.33952773,9.63771,0.023044191,-0.024690205,0.05761048,0.011658087,-0.09203693,0.30801007,2017-10-30 02:21:18,-Infinity
1.807323,-0.3187281,9.800665,-8.9881686E-4,-6.657903E-4,-2.330266E-4,39.0,1.7773955,-0.33967736,9.638158,0.029927522,0.020949265,0.16250645,0.011616931,-0.091929525,0.3080192,2017-10-30 02:21:19,-Infinity
1.7977462,-0.3115455,9.783905,0.0015978967,-0.0016311861,-2.663161E-4,39.0,1.7806876,-0.33683425,9.63771,0.017058687,0.025288755,0.14619595,0.01181278,-0.09204744,0.30805853,2017-10-30 02:21:20,-Infinity
1.8288708,-0.3426701,9.740809,5.326322E-4,-5.659217E-4,-0.0013315806,39.0,1.7787422,-0.3362357,9.638008,0.050128598,-0.006434417,0.10280103,0.01181815,-0.091942325,0.30808333,2017-10-30 02:21:21,-Infinity
1.77141,-0.35703534,9.733627,-0.0017643442,-0.0017976337,-3.6618466E-4,39.0,1.7787422,-0.33159694,9.638158,-0.0073322426,-0.025438393,0.09546879,0.0120379655,-0.09186588,0.30808273,2017-10-30 02:21:22,-Infinity
1.7570448,-0.3115455,9.7479925,-0.0017643442,3.3289514E-4,-3.6618466E-4,39.0,1.7799393,-0.32890347,9.638008,-0.022894554,0.017357962,0.10998364,0.01217789,-0.09188415,0.30792937,2017-10-30 02:21:24,-Infinity
1.7857752,-0.35464114,9.791088,-0.0020639498,-2.9960563E-4,-3.9947417E-4,39.0,1.7793407,-0.32396543,9.638308,0.006434417,-0.03067571,0.15278,0.012411739,-0.09177838,0.30795386,2017-10-30 02:21:25,-Infinity
1.8049288,-0.3450643,9.712079,-9.986854E-4,0.0018309233,6.657903E-4,39.0,1.7748517,-0.32875383,9.639056,0.03007716,-0.0163105,0.073023155,0.012102181,-0.09163572,0.3079014,2017-10-30 02:21:26,-Infinity
1.8240824,-0.3426701,9.810242,0.001298291,2.9960563E-4,0.0027630297,39.0,1.7761984,-0.33069912,9.638757,0.047884032,-0.011971008,0.1714847,0.012002162,-0.091738164,0.3076723,2017-10-30 02:21:27,-Infinity
1.7570448,-0.32591072,9.829395,0.001298291,2.9960563E-4,-0.001498028,39.0,1.7796401,-0.3309984,9.638008,-0.022595279,0.005087679,0.19138649,0.0120290555,-0.09191054,0.3075461,2017-10-30 02:21:28,-Infinity
1.8168998,-0.33309332,9.726444,0.0022969765,-0.0015646071,-9.986854E-5,39.0,1.7776948,-0.33324295,9.638308,0.039205052,1.496376E-4,0.088136554,0.011899839,-0.09184651,0.30761,2017-10-30 02:21:30,-Infinity
1.7977462,-0.3450643,9.709685,-0.0019640813,5.659217E-4,9.653959E-4,39.0,1.7764976,-0.33488896,9.638457,0.02124854,-0.010175358,0.0712275,0.01181389,-0.091816425,0.3077509,2017-10-30 02:21:31,-Infinity
1.8264766,-0.33069912,9.7719345,-8.6552737E-4,-7.9894834E-4,6.9907977E-4,39.0,1.7751509,-0.33399114,9.638757,0.051325697,0.0032920274,0.13317747,0.011828956,-0.09173547,0.3077052,2017-10-30 02:21:32,-Infinity
1.795352,-0.3115455,9.781511,1.9973709E-4,2.663161E-4,-0.0014314491,39.0,1.7772459,-0.3345897,9.638308,0.01810615,0.023044191,0.14320318,0.011825629,-0.09184806,0.30761704,2017-10-30 02:21:33,-Infinity
1.783381,-0.3450643,9.726444,5.659217E-4,-0.0015646071,-0.00136487,39.0,1.7754502,-0.33129767,9.638757,0.007930793,-0.013766659,0.087687634,0.01196097,-0.091706425,0.30763605,2017-10-30 02:21:34,-Infinity
1.8025346,-0.36661214,9.752781,9.986854E-5,-4.3276369E-4,-5.659217E-4,39.0,1.7751509,-0.32710782,9.639056,0.027383681,-0.039504327,0.11372458,0.012149361,-0.091625646,0.3075315,2017-10-30 02:21:36,-Infinity
1.7929578,-0.3091513,9.731233,-9.653959E-4,-0.001498028,-5.659217E-4,39.0,1.7727567,-0.33069912,9.639356,0.020201078,0.021547815,0.09187749,0.011905161,-0.091569886,0.30721864,2017-10-30 02:21:37,-Infinity
1.8216882,-0.3474585,9.757569,-0.0031625037,4.660532E-4,8.9881686E-4,39.0,1.7700633,-0.3350386,9.639654,0.051624972,-0.012419921,0.11791443,0.011640054,-0.091512874,0.30712005,2017-10-30 02:21:38,-Infinity
1.7905636,-0.3450643,9.752781,-0.001498028,5.659217E-4,-0.0012650015,39.0,1.7676691,-0.33608606,9.640103,0.022894554,-0.008978256,0.11267712,0.011559253,-0.091404796,0.30719873,2017-10-30 02:21:40,-Infinity
1.7857752,-0.3450643,9.757569,0.003828294,5.659217E-4,-1.9973709E-4,39.0,1.7682676,-0.3333926,9.640103,0.0175076,-0.011671733,0.11746552,0.01169034,-0.09139186,0.3070837,2017-10-30 02:21:42,-Infinity
1.8623897,-0.3378817,9.779117,0.0012650015,-0.0017643442,-6.657903E-5,39.0,1.7769465,-0.32890347,9.638607,0.08544307,-0.008978256,0.14050971,0.012041576,-0.09175259,0.3070192,2017-10-30 02:21:44,-Infinity
1.7977462,-0.3402759,9.745598,-0.0022303974,-1.3315806E-4,-6.657903E-5,39.0,1.7764976,-0.33069912,9.638607,0.02124854,-0.009576807,0.10699089,0.011945814,-0.09175418,0.30703238,2017-10-30 02:21:45,-Infinity
1.8288708,-0.3211223,9.757569,-5.9921126E-4,-5.659217E-4,-2.663161E-4,39.0,1.7715596,-0.3405752,9.639206,0.057311203,0.019452889,0.11836334,0.011375703,-0.0916698,0.30689862,2017-10-30 02:21:47,-Infinity
1.7905636,-0.32591072,9.719262,4.660532E-4,-5.659217E-4,7.9894834E-4,39.0,1.7706618,-0.33593643,9.639505,0.0199018,0.010025719,0.07975684,0.011579959,-0.09155506,0.30686173,2017-10-30 02:21:48,-Infinity
1.7618332,-0.32591072,9.774328,0.0012650015,-3.3289514E-4,0.0010319749,39.0,1.7720085,-0.33444005,9.639356,-0.010175358,0.008529344,0.13497312,0.011680138,-0.091598466,0.30686918,2017-10-30 02:21:50,-Infinity
1.8001404,-0.3139397,9.7863,1.9973709E-4,-3.3289514E-4,0.0010319749,39.0,1.7676691,-0.3326444,9.640253,0.03247136,0.018704701,0.14604631,0.011709829,-0.09135321,0.3070114,2017-10-30 02:21:51,-Infinity
1.759439,-0.3378817,9.781511,2.330266E-4,-0.0041611893,-0.0015646071,39.0,1.7700633,-0.3309984,9.639804,-0.01062427,-0.0068833297,0.14170681,0.011808527,-0.09144591,0.30686268,2017-10-30 02:21:52,-Infinity
1.8168998,-0.3450643,9.740809,-8.322378E-4,-0.0020306604,-4.993427E-4,39.0,1.7739538,-0.3302502,9.639056,0.042945992,-0.014814123,0.10175357,0.0118933385,-0.091633365,0.30665532,2017-10-30 02:21:53,-Infinity
1.8097172,-0.36182374,9.736021,0.00136487,4.3276369E-4,0.0,39.0,1.774702,-0.33204585,9.6389065,0.0350152,-0.029777884,0.09711481,0.01180788,-0.09169379,0.30655393,2017-10-30 02:21:54,-Infinity
1.819294,-0.3426701,9.736021,0.0015646071,-5.9921126E-4,-9.653959E-4,39.0,1.7732056,-0.33444005,9.639056,0.046088383,-0.008230069,0.09696517,0.011657227,-0.09166157,0.3064647,2017-10-30 02:21:56,-Infinity
1.7905636,-0.3426701,9.728839,4.993427E-4,4.660532E-4,9.986854E-5,39.0,1.7708114,-0.33294368,9.639654,0.019752163,-0.009726444,0.089184016,0.0117221875,-0.09151968,0.3067529,2017-10-30 02:21:57,-Infinity
1.8145056,-0.33069912,9.721656,0.00136487,-0.0020306604,0.0016311861,39.0,1.7694647,-0.3333926,9.639804,0.04504092,0.0026934769,0.08185177,0.011716221,-0.09145115,0.30714092,2017-10-30 02:21:58,-Infinity
1.7809868,-0.3474585,9.66659,-7.656588E-4,-0.0020306604,-0.0015646071,39.0,1.770961,-0.3345897,9.639505,0.010025719,-0.012868834,0.027084406,0.011679327,-0.09154779,0.3071746,2017-10-30 02:21:59,-Infinity
1.8216882,-0.2947861,9.752781,-0.002796319,5.326322E-4,4.993427E-4,39.0,1.776348,-0.3333926,9.638607,0.045340195,0.038606502,0.114173494,0.01183825,-0.09179391,0.30731723,2017-10-30 02:22:00,-Infinity
1.7857752,-0.3498527,9.822212,-0.0017310547,5.326322E-4,4.993427E-4,39.0,1.7738042,-0.3314473,9.639056,0.011971008,-0.018405426,0.18315643,0.011917633,-0.0916318,0.30756804,2017-10-30 02:22:02,-Infinity
1.783381,-0.32591072,9.762358,-3.3289514E-4,-0.0019307918,0.0023635554,39.0,1.7718589,-0.33294368,9.639356,0.011522096,0.0070329676,0.12300211,0.011828331,-0.09155807,0.30771884,2017-10-30 02:22:03,-Infinity
1.8001404,-0.36421794,9.7240505,-0.0024634239,0.002330266,-8.322378E-4,39.0,1.7757494,-0.33653498,9.638607,0.02439093,-0.027682956,0.08544307,0.011720241,-0.091808155,0.30773076,2017-10-30 02:22:04,-Infinity
1.7881694,-0.36421794,9.76954,-6.657903E-5,0.001298291,-0.0019307918,39.0,1.7764976,-0.33593643,9.638457,0.011671733,-0.028281508,0.13108255,0.011744982,-0.09183228,0.30760053,2017-10-30 02:22:05,-Infinity
1.8025346,-0.37379473,9.740809,-6.657903E-5,2.330266E-4,-8.6552737E-4,39.0,1.7776948,-0.33324295,9.638308,0.024839843,-0.040551793,0.10250176,0.011865589,-0.09185298,0.30730334,2017-10-30 02:22:06,-Infinity
1.7785926,-0.3474585,9.736021,-0.002130529,1.3315806E-4,-7.323693E-4,39.0,1.7772459,-0.3302502,9.638457,0.0013467384,-0.017208325,0.09756372,0.011994471,-0.0917819,0.3071992,2017-10-30 02:22:08,-Infinity
1.8001404,-0.28042087,9.731233,0.0024634239,-7.323693E-4,6.3250074E-4,39.0,1.7818847,-0.33114803,9.63756,0.018255789,0.050727148,0.09367314,0.011996124,-0.092032686,0.3068954,2017-10-30 02:22:09,-Infinity
1.795352,-0.37618893,9.79827,-7.323693E-4,-0.0017976337,6.3250074E-4,39.0,1.7794905,-0.32680854,9.638158,0.015861586,-0.04938041,0.16011223,0.012193834,-0.09184334,0.3071303,2017-10-30 02:22:11,-Infinity
1.77141,-0.3498527,9.716867,0.0,-6.3250074E-4,-8.9881686E-4,39.0,1.7775451,-0.3250129,9.638607,-0.006135142,-0.024839843,0.07826047,0.01223613,-0.09172177,0.30699232,2017-10-30 02:22:12,-Infinity
1.8049288,-0.3378817,9.759963,-0.0010652645,4.3276369E-4,1.6644757E-4,39.0,1.7778444,-0.32366616,9.638607,0.027084406,-0.014215573,0.1213561,0.012268582,-0.091721416,0.3066161,2017-10-30 02:22:13,-Infinity
1.7977462,-0.32351652,9.707291,8.9881686E-4,0.0016311861,-0.0016977652,39.0,1.7782934,-0.32935238,9.638308,0.019452889,0.0058358666,0.06898294,0.011971519,-0.091836125,0.30627933,2017-10-30 02:22:14,-Infinity
1.819294,-0.38097733,9.829395,0.0019640813,-0.0015646071,4.3276369E-4,39.0,1.775899,-0.32830492,9.6389065,0.043394905,-0.05267244,0.19048867,0.011945716,-0.091701895,0.30593356,2017-10-30 02:22:16,-Infinity
1.8168998,-0.3378817,9.7479925,0.0019307918,0.001498028,0.0020972393,39.0,1.7718589,-0.3338415,9.639356,0.04504092,-0.004040215,0.1086369,0.011608218,-0.091591865,0.30590323,2017-10-30 02:22:17,-Infinity
1.783381,-0.3211223,9.755175,1.9973709E-4,8.6552737E-4,-0.00136487,39.0,1.7700633,-0.33473933,9.639654,0.013317747,0.013617022,0.11552023,0.011549539,-0.09151688,0.3060479,2017-10-30 02:22:18,-Infinity
1.8121114,-0.33069912,9.726444,0.002330266,8.6552737E-4,-2.9960563E-4,39.0,1.7742531,-0.33429042,9.6389065,0.037858315,0.0035913025,0.087538,0.011649112,-0.09171663,0.3061348,2017-10-30 02:22:20,-Infinity
1.8121114,-0.3378817,9.79827,2.9960563E-4,0.0010652645,-5.326322E-4,39.0,1.7775451,-0.3345897,9.638308,0.034566287,-0.0032920274,0.1599626,0.01168707,-0.09188017,0.30610833,2017-10-30 02:22:21,-Infinity
1.8097172,-0.35464114,9.767146,0.0024301345,-0.0010652645,5.326322E-4,39.0,1.7821839,-0.3274071,9.63771,0.027533319,-0.027234044,0.12943652,0.01209295,-0.09200005,0.30598637,2017-10-30 02:22:22,-Infinity
1.7977462,-0.37140054,9.800665,-2.663161E-4,0.0014647386,-3.9947417E-4,39.0,1.7794905,-0.32815528,9.638158,0.018255789,-0.043245267,0.16250645,0.012008959,-0.09187916,0.30586794,2017-10-30 02:22:23,-Infinity
1.7618332,-0.3043629,9.709685,7.9894834E-4,-0.0017310547,-3.9947417E-4,39.0,1.778443,-0.33294368,9.638158,-0.016609775,0.028580783,0.07152677,0.011746101,-0.09190217,0.30575654,2017-10-30 02:22:24,-Infinity
1.7977462,-0.33309332,9.745598,-0.0020639498,-6.3250074E-4,9.986854E-4,39.0,1.7769465,-0.33429042,9.638457,0.020799628,0.0011971008,0.107140526,0.011640021,-0.09185149,0.305626,2017-10-30 02:22:26,-Infinity
1.7905636,-0.33069912,9.817424,0.002197108,-0.0016977652,9.986854E-4,39.0,1.7769465,-0.3302502,9.638607,0.013617022,-4.4891282E-4,0.17881694,0.0118276905,-0.09179281,0.30553523,2017-10-30 02:22:27,-Infinity
1.7546506,-0.37618893,9.731233,-8.9881686E-4,-0.0016311861,-6.657903E-5,39.0,1.7772459,-0.3286042,9.638607,-0.022595279,-0.047584757,0.09262568,0.011916955,-0.09178287,0.30553928,2017-10-30 02:22:28,-Infinity
1.7809868,-0.35464114,9.755175,-0.0013315806,6.9907977E-4,7.9894834E-4,39.0,1.7751509,-0.33294368,9.638757,0.0058358666,-0.021697452,0.116418056,0.011670135,-0.0917422,0.30550298,2017-10-30 02:22:30,-Infinity
1.7857752,-0.32591072,9.728839,2.9960563E-4,6.657903E-4,-0.0020972393,39.0,1.7684172,-0.33638534,9.639954,0.017357962,0.0104746325,0.08888474,0.011373731,-0.09147081,0.30532393,2017-10-30 02:22:32,-Infinity
1.7642274,-0.3139397,9.8198185,0.00136487,-3.9947417E-4,0.0021638183,39.0,1.7642274,-0.33084875,9.640852,0.0,0.01690905,0.17896658,0.011599107,-0.09117898,0.3055111,2017-10-30 02:22:33,-Infinity
1.7738042,-0.3450643,9.824607,-0.0022636869,0.0012317119,-4.660532E-4,39.0,1.7673697,-0.3290531,9.640403,0.006434417,-0.016011223,0.1842039,0.0117425015,-0.09130408,0.30561706,2017-10-30 02:22:34,-Infinity
1.759439,-0.3450643,9.762358,-1.3315806E-4,-0.0019640813,-0.0015313176,39.0,1.7735049,-0.33414078,9.639056,-0.014065935,-0.010923545,0.12330139,0.011577864,-0.09168661,0.3054591,2017-10-30 02:22:35,-Infinity
1.8336592,-0.3354875,9.776723,-0.0016977652,0.0010652645,8.322378E-4,39.0,1.7732056,-0.32935238,9.639356,0.060453594,-0.006135142,0.13736732,0.011781268,-0.09159863,0.3051795,2017-10-30 02:22:36,-Infinity
1.8121114,-0.3091513,9.79827,4.3276369E-4,0.0010652645,8.322378E-4,39.0,1.766472,-0.32635963,9.6405525,0.04563947,0.017208325,0.15771803,0.011816608,-0.0912227,0.3051282,2017-10-30 02:22:38,-Infinity
1.7929578,-0.32591072,9.733627,4.660532E-4,0.0016977652,1.6644757E-4,39.0,1.7645266,-0.3230676,9.641151,0.028431145,-0.0028431145,0.09247604,0.011951298,-0.09107418,0.30524018,2017-10-30 02:22:39,-Infinity
1.8432361,-0.3378817,9.793482,4.660532E-4,6.3250074E-4,0.0012317119,39.0,1.7657237,-0.3203741,9.641002,0.07751228,-0.0175076,0.15248072,0.012131711,-0.09108074,0.30553553,2017-10-30 02:22:40,-Infinity
1.7785926,-0.33309332,9.757569,-0.001498028,0.0014314491,0.0014647386,39.0,1.766023,-0.32576108,9.640702,0.012569559,-0.0073322426,0.11686697,0.0118925255,-0.09118155,0.30567905,2017-10-30 02:22:41,-Infinity
1.7738042,-0.3354875,9.7863,-0.002197108,3.3289514E-4,0.00136487,39.0,1.7663223,-0.33189622,9.640403,0.0074818805,-0.0035913025,0.14589667,0.011576276,-0.091299,0.30544934,2017-10-30 02:22:43,-Infinity
1.7666216,-0.27084407,9.731233,-6.657903E-5,-7.323693E-4,2.9960563E-4,39.0,1.7699136,-0.32965165,9.639954,-0.0032920274,0.058807578,0.09127894,0.011722989,-0.09143847,0.30527583,2017-10-30 02:22:44,-Infinity
1.8168998,-0.3426701,9.822212,-1.9973709E-4,1.9973709E-4,-3.6618466E-4,39.0,1.7708114,-0.3298013,9.639654,0.046088383,-0.012868834,0.18255788,0.0117099285,-0.09149197,0.3050634,2017-10-30 02:22:45,-Infinity
1.8264766,-0.3043629,9.736021,-1.9973709E-4,-8.6552737E-4,-3.6618466E-4,39.0,1.7729063,-0.33204585,9.639206,0.053570263,0.027682956,0.096815534,0.01162368,-0.091628015,0.30496714,2017-10-30 02:22:46,-Infinity
1.8168998,-0.3211223,9.733627,-3.3289514E-4,3.3289514E-5,-0.0016644757,39.0,1.7772459,-0.33608606,9.638308,0.039653964,0.014963761,0.09531915,0.011477713,-0.09191078,0.30474332,2017-10-30 02:22:48,-Infinity
1.8001404,-0.3450643,9.827001,-3.3289514E-4,0.001098554,-5.9921126E-4,39.0,1.7796401,-0.33713353,9.637859,0.020500353,-0.007930793,0.18914193,0.011440552,-0.09204285,0.30450436,2017-10-30 02:22:49,-Infinity
1.759439,-0.35464114,9.76954,-6.657903E-4,1.6644757E-4,-1.6644757E-4,39.0,1.7823335,-0.33279404,9.63756,-0.022894554,-0.02184709,0.13198037,0.011687397,-0.0921081,0.30443433,2017-10-30 02:22:50,-Infinity
1.7881694,-0.37140054,9.7479925,3.9947417E-4,0.0022969765,8.9881686E-4,39.0,1.7776948,-0.32995093,9.638457,0.0104746325,-0.041449618,0.109534726,0.011741602,-0.09183541,0.30439118,2017-10-30 02:22:51,-Infinity
1.7929578,-0.32830492,9.731233,2.330266E-4,0.0012317119,-0.0016311861,39.0,1.7773955,-0.32800564,9.638607,0.015562311,-2.992752E-4,0.09262568,0.011834239,-0.09179489,0.30433902,2017-10-30 02:22:52,-Infinity
1.807323,-0.2995745,9.726444,0.0023635554,-8.9881686E-4,-0.0016311861,39.0,1.7820343,-0.32725745,9.63771,0.025288755,0.027682956,0.0887351,0.011917782,-0.092014,0.3040733,2017-10-30 02:22:54,-Infinity
1.8001404,-0.32830492,9.76954,-8.322378E-4,5.326322E-4,-1.3315806E-4,39.0,1.7814357,-0.3226187,9.638008,0.018704701,-0.005686229,0.13153146,0.012118524,-0.09191175,0.30391243,2017-10-30 02:22:55,-Infinity
1.8049288,-0.3091513,9.757569,0.0023635554,5.326322E-4,-0.0011984225,39.0,1.7794905,-0.32366616,9.638308,0.025438393,0.014514848,0.119261175,0.012023886,-0.09183815,0.30381325,2017-10-30 02:22:56,-Infinity
1.7738042,-0.35464114,9.8198185,6.657903E-5,4.993427E-4,-0.0018309233,39.0,1.7757494,-0.32845455,9.6389065,-0.0019452889,-0.026186582,0.18091187,0.01174974,-0.09172028,0.3040279,2017-10-30 02:22:57,-Infinity
1.7738042,-0.3187281,9.743204,3.3289514E-4,0.001498028,-0.002330266,39.0,1.7735049,-0.3298013,9.639206,2.992752E-4,0.011073183,0.10399814,0.011684031,-0.09162752,0.30437657,2017-10-30 02:22:58,-Infinity
1.807323,-0.32351652,9.697714,3.3289514E-4,4.3276369E-4,-1.9973709E-4,39.0,1.7723078,-0.3266589,9.639505,0.0350152,0.0031423897,0.058209028,0.011819904,-0.091523975,0.304401,2017-10-30 02:23:00,-Infinity
1.8240824,-0.3139397,9.76954,0.0012317119,2.663161E-4,0.0012650015,39.0,1.7735049,-0.32216978,9.639505,0.05057751,0.008230069,0.13003507,0.01205628,-0.091506466,0.3043631,2017-10-30 02:23:01,-Infinity
1.7977462,-0.32591072,9.750386,-8.9881686E-4,2.663161E-4,0.002330266,39.0,1.7755998,-0.32411507,9.639056,0.022146367,-0.0017956513,0.11133038,0.012010631,-0.09163919,0.30449966,2017-10-30 02:23:02,-Infinity
1.8216882,-0.3378817,9.731233,0.0023635554,-0.0014314491,1.9973709E-4,39.0,1.7773955,-0.32456398,9.638757,0.044292733,-0.013317747,0.09247604,0.01203137,-0.09173347,0.3046604,2017-10-30 02:23:03,-Infinity
1.7618332,-0.33069912,9.76954,2.330266E-4,0.0017643442,-0.0019307918,39.0,1.774702,-0.32097265,9.639356,-0.012868834,-0.009726444,0.13018471,0.012172962,-0.0915419,0.30477086,2017-10-30 02:23:04,-Infinity
1.7905636,-0.3163339,9.783905,-2.663161E-4,7.656588E-4,0.001098554,39.0,1.7702129,-0.32216978,9.640103,0.020350715,0.0058358666,0.14380173,0.012052585,-0.091343075,0.30483565,2017-10-30 02:23:06,-Infinity
1.8049288,-0.3067571,9.76954,-2.663161E-4,-2.9960563E-4,-0.0010319749,39.0,1.7685668,-0.32471362,9.640253,0.036361936,0.017956512,0.12928689,0.0118935015,-0.091302335,0.30478057,2017-10-30 02:23:07,-Infinity
1.7761984,-0.3211223,9.745598,0.0,5.326322E-4,7.9894834E-4,39.0,1.7711107,-0.32650927,9.639804,0.005087679,0.0053869537,0.10579379,0.011825297,-0.09145838,0.3045906,2017-10-30 02:23:08,-Infinity
1.8216882,-0.27802667,9.793482,0.0,-5.326322E-4,7.9894834E-4,39.0,1.7729063,-0.32830492,9.639356,0.04878186,0.050278235,0.15412673,0.011750226,-0.09157318,0.3044056,2017-10-30 02:23:09,-Infinity
1.7618332,-0.3378817,9.759963,-0.0019973707,-0.001498028,6.657903E-5,39.0,1.7696143,-0.32606035,9.640103,-0.0077811554,-0.011821371,0.119859725,0.011819102,-0.09138028,0.30450985,2017-10-30 02:23:10,-Infinity
1.7738042,-0.33309332,9.755175,0.0022636869,-4.3276369E-4,0.0011318434,39.0,1.769764,-0.3254618,9.640103,0.004040215,-0.007631518,0.11507132,0.0118737435,-0.09137143,0.304759,2017-10-30 02:23:12,-Infinity
1.7761984,-0.3091513,9.731233,0.0010652645,-7.656588E-4,-0.0027630297,39.0,1.7720085,-0.32591072,9.639654,0.004189853,0.016759412,0.091578215,0.011869629,-0.09149258,0.30454692,2017-10-30 02:23:13,-Infinity
1.8145056,-0.32830492,9.7479925,0.0019307918,0.0014314491,-0.0022636869,39.0,1.7764976,-0.32486326,9.6389065,0.038007952,-0.0034416649,0.10908581,0.011960399,-0.091701284,0.3042411,2017-10-30 02:23:15,-Infinity
1.7905636,-0.38337156,9.767146,0.0019307918,-6.9907977E-4,9.321064E-4,39.0,1.778443,-0.32710782,9.638457,0.012120646,-0.05626374,0.12868834,0.011867382,-0.09183085,0.30409208,2017-10-30 02:23:16,-Infinity
1.8336592,-0.3115455,9.757569,-3.3289514E-5,-0.001498028,0.002396845,39.0,1.7757494,-0.32591072,9.6389065,0.057909753,0.01436521,0.11866262,0.011893184,-0.09168035,0.30419013,2017-10-30 02:23:17,-Infinity
1.7905636,-0.33069912,9.7479925,-0.001165133,2.9960563E-4,9.986854E-5,39.0,1.776348,-0.32621,9.638757,0.014215573,-0.004489128,0.10923545,0.011902437,-0.09171115,0.3043826,2017-10-30 02:23:18,-Infinity
1.7977462,-0.36900634,9.714474,0.0030959249,-0.0018309233,9.986854E-5,39.0,1.7755998,-0.33039984,9.638757,0.022146367,-0.038606502,0.07571663,0.011690144,-0.091742024,0.30440637,2017-10-30 02:23:20,-Infinity
1.8097172,-0.33309332,9.728839,0.0011984225,-5.9921126E-4,-1.6644757E-4,39.0,1.777994,-0.33084875,9.638308,0.03172317,-0.002244564,0.09053075,0.011708034,-0.09186725,0.3043783,2017-10-30 02:23:21,-Infinity
1.819294,-0.3450643,9.726444,-9.321064E-4,-5.9921126E-4,-0.0022969765,39.0,1.7790415,-0.32755673,9.638308,0.040252518,-0.0175076,0.088136554,0.011871405,-0.091863975,0.3042597,2017-10-30 02:23:22,-Infinity
1.807323,-0.3043629,9.805453,-7.656588E-4,-2.663161E-4,0.0022303974,39.0,1.7772459,-0.32531217,9.638757,0.03007716,0.020949265,0.1666963,0.011946008,-0.09174363,0.30418906,2017-10-30 02:23:23,-Infinity
1.7785926,-0.35703534,9.822212,2.9960563E-4,7.9894834E-4,0.001165133,39.0,1.7753005,-0.32351652,9.639056,0.0032920274,-0.033518825,0.18315643,0.012016293,-0.0916194,0.3043374,2017-10-30 02:23:24,-Infinity
1.8145056,-0.3163339,9.738416,9.986854E-5,0.0024634239,-0.0024301345,39.0,1.7741034,-0.3230676,9.639356,0.040402155,0.0067336923,0.099060096,0.01202103,-0.091555804,0.30431256,2017-10-30 02:23:26,-Infinity
1.8145056,-0.3498527,9.714474,9.986854E-5,-7.323693E-4,7.656588E-4,39.0,1.7751509,-0.3242647,9.639056,0.03935469,-0.02558803,0.075417355,0.011959397,-0.091629595,0.3041639,2017-10-30 02:23:27,-Infinity
1.7905636,-0.3187281,9.755175,-0.0018642128,-6.9907977E-4,-5.9921126E-4,39.0,1.7790415,-0.32531217,9.638308,0.011522096,0.006584055,0.11686697,0.011969559,-0.09183179,0.30418804,2017-10-30 02:23:28,-Infinity
1.8145056,-0.3187281,9.750386,0.0013315806,-6.9907977E-4,-5.9921126E-4,39.0,1.7797897,-0.3250129,9.638308,0.034715924,0.0062847794,0.11207857,0.012038465,-0.091859534,0.3045713,2017-10-30 02:23:29,-Infinity
1.8264766,-0.28281507,9.757569,0.0022636869,-3.3289514E-5,6.657903E-5,39.0,1.7723078,-0.32890347,9.639505,0.054168813,0.046088383,0.11806407,0.011764418,-0.09155415,0.3049595,2017-10-30 02:23:30,-Infinity
1.8145056,-0.28520927,9.7719345,1.3315806E-4,0.0010319749,0.0011318434,39.0,1.7654245,-0.32965165,9.640702,0.049081136,0.04444237,0.13123219,0.011643588,-0.091220915,0.3051937,2017-10-30 02:23:32,-Infinity
1.8097172,-0.36421794,9.824607,-0.001165133,-0.001498028,-0.0015646071,39.0,1.7628807,-0.32920274,9.641151,0.04683657,-0.0350152,0.1834557,0.01162954,-0.09108463,0.30523494,2017-10-30 02:23:33,-Infinity
1.7929578,-0.33069912,9.791088,-9.986854E-5,0.0016977652,5.659217E-4,39.0,1.766023,-0.3298013,9.6405525,0.026934769,-8.9782564E-4,0.15053543,0.011641136,-0.091248676,0.3051276,2017-10-30 02:23:34,-Infinity
1.7857752,-0.28042087,9.726444,-0.0019307918,-4.993427E-4,-3.3289514E-4,39.0,1.7708114,-0.3290531,9.639804,0.014963761,0.048632223,0.08664017,0.011746975,-0.09147419,0.30510226,2017-10-30 02:23:36,-Infinity
1.7809868,-0.32591072,9.817424,3.3289514E-4,-4.993427E-4,-4.3276369E-4,39.0,1.766472,-0.32441434,9.640702,0.014514848,-0.001496376,0.17672202,0.011916465,-0.09119107,0.30517504,2017-10-30 02:23:37,-Infinity
1.8336592,-0.3450643,9.779117,0.0013981595,5.659217E-4,0.0016977652,39.0,1.7670705,-0.32052374,9.640702,0.06658874,-0.024540568,0.13841479,0.012119515,-0.09115471,0.30528757,2017-10-30 02:23:38,-Infinity
1.819294,-0.3498527,9.762358,8.322378E-4,0.0016644757,0.0026964506,39.0,1.7672201,-0.320823,9.640702,0.05207389,-0.029029695,0.121655375,0.012114053,-0.091171116,0.30531433,2017-10-30 02:23:40,-Infinity
1.8121114,-0.33309332,9.752781,6.657903E-5,5.659217E-4,0.0013981595,39.0,1.7666216,-0.32411507,9.640702,0.045489833,-0.008978256,0.11207857,0.011939285,-0.09118797,0.30525354,2017-10-30 02:23:41,-Infinity
1.7809868,-0.2947861,9.750386,0.0011318434,-0.0015646071,3.3289514E-4,39.0,1.7678187,-0.32471362,9.640403,0.01316811,0.029927522,0.10998364,0.01191457,-0.091258034,0.30509904,2017-10-30 02:23:42,-Infinity
1.7738042,-0.3426701,9.7240505,8.6552737E-4,0.002596582,4.993427E-4,39.0,1.7675194,-0.3196259,9.640702,0.0062847794,-0.023044191,0.08334815,0.012133136,-0.09116931,0.3048229,2017-10-30 02:23:43,-Infinity
1.8001404,-0.33069912,9.759963,8.6552737E-4,4.660532E-4,0.0015646071,39.0,1.7666216,-0.32396543,9.640702,0.033518825,-0.0067336923,0.119261175,0.011875676,-0.0911991,0.30456212,2017-10-30 02:23:45,-Infinity
1.7618332,-0.33069912,9.740809,-0.0031625037,2.9960563E-4,-0.0014314491,39.0,1.7694647,-0.32471362,9.640103,-0.007631518,-0.005985504,0.10070611,0.011881937,-0.091351226,0.30453315,2017-10-30 02:23:46,-Infinity
1.7618332,-0.3474585,9.8198185,-0.0010319749,-7.656588E-4,-3.6618466E-4,39.0,1.7733552,-0.3250129,9.639356,-0.011522096,-0.022445641,0.18046296,0.011925893,-0.0915436,0.30448464,2017-10-30 02:23:47,-Infinity
1.77141,-0.32351652,9.79827,-0.001298291,5.326322E-4,-4.660532E-4,39.0,1.7738042,-0.32635963,9.639356,-0.0023942017,0.0028431145,0.15891513,0.0118652135,-0.091588005,0.30446365,2017-10-30 02:23:48,-Infinity
1.795352,-0.3163339,9.793482,-2.330266E-4,0.0026631611,0.0016644757,39.0,1.7711107,-0.32845455,9.639654,0.024241293,0.012120646,0.15382746,0.011716331,-0.0914918,0.30439368,2017-10-30 02:23:50,-Infinity
1.7905636,-0.35703534,9.757569,-0.0024301345,4.993427E-4,-2.663161E-4,39.0,1.7729063,-0.33114803,9.639356,0.017657237,-0.025887307,0.118213706,0.011591912,-0.09162372,0.30416563,2017-10-30 02:23:52,-Infinity
1.77141,-0.3426701,9.7863,0.001098554,-0.0028296087,8.322378E-4,39.0,1.7723078,-0.3298013,9.639505,-8.9782564E-4,-0.012868834,0.1467945,0.011646098,-0.09157191,0.3041381,2017-10-30 02:23:53,-Infinity
1.759439,-0.32591072,9.812635,3.3289514E-5,-6.9907977E-4,8.322378E-4,39.0,1.7729063,-0.33189622,9.639206,-0.0134673845,0.005985504,0.17342998,0.011553852,-0.09163551,0.30418745,2017-10-30 02:23:54,-Infinity
1.8264766,-0.36421794,9.7958765,-8.6552737E-4,-7.323693E-4,-0.0026964506,39.0,1.776348,-0.33039984,9.638757,0.050128598,-0.0338181,0.15711948,0.011670074,-0.09178156,0.30408958,2017-10-30 02:23:55,-Infinity
1.8049288,-0.3354875,9.745598,0.0033622407,-4.3276369E-4,-0.0012317119,39.0,1.7760488,-0.3266589,9.6389065,0.028880058,-0.008828619,0.106691614,0.011825351,-0.09171155,0.30379632,2017-10-30 02:23:56,-Infinity
1.7881694,-0.2923919,9.738416,1.6644757E-4,0.0016977652,-1.6644757E-4,39.0,1.7745523,-0.3238158,9.639206,0.013617022,0.031423897,0.09920973,0.011936821,-0.09159461,0.30381122,2017-10-30 02:23:58,-Infinity
1.7666216,-0.39773676,9.79827,-1.6644757E-4,2.663161E-4,-0.0014314491,39.0,1.769315,-0.32052374,9.640253,-0.0026934769,-0.077213004,0.15801731,0.012032401,-0.091285735,0.3039312,2017-10-30 02:23:59,-Infinity
1.8025346,-0.3163339,9.781511,-1.6644757E-4,0.0013315806,-3.6618466E-4,39.0,1.7723078,-0.32486326,9.639654,0.030226797,0.008529344,0.14185645,0.011868847,-0.09149884,0.30397663,2017-10-30 02:24:00,-Infinity
1.8049288,-0.32351652,9.752781,1.3315806E-4,2.9960563E-4,-2.330266E-4,39.0,1.7739538,-0.32635963,9.639206,0.030974984,0.0028431145,0.113574944,0.011822088,-0.09160027,0.30396113,2017-10-30 02:24:01,-Infinity
1.7905636,-0.32591072,9.779117,-0.0019973707,0.00136487,-2.330266E-4,40.0,1.7761984,-0.32561144,9.6389065,0.01436521,-2.992752E-4,0.14021043,0.011889307,-0.09169984,0.3039492,2017-10-30 02:24:02,-Infinity
1.8168998,-0.35942954,9.757569,3.3289514E-5,6.9907977E-4,7.9894834E-4,39.0,1.7761984,-0.3242647,9.6389065,0.04070143,-0.035164837,0.11866262,0.011948552,-0.091681525,0.30385992,2017-10-30 02:24:04,-Infinity
1.795352,-0.3426701,9.745598,3.3289514E-5,-3.6618466E-4,7.9894834E-4,39.0,1.7727567,-0.32815528,9.639356,0.022595279,-0.014514848,0.1062427,0.011699283,-0.091574416,0.30380026,2017-10-30 02:24:05,-Infinity
1.8145056,-0.3498527,9.690532,-3.3289514E-5,4.3276369E-4,1.6644757E-4,40.0,1.7721581,-0.327856,9.639505,0.042347442,-0.021996727,0.051026423,0.011710591,-0.09153797,0.30389467,2017-10-30 02:24:07,-Infinity
1.7977462,-0.32351652,9.750386,0.002330266,-0.0017643442,0.001165133,39.0,1.774702,-0.32635963,9.639056,0.023044191,0.0028431145,0.11133038,0.011834294,-0.091642395,0.30400833,2017-10-30 02:24:08,-Infinity
1.7738042,-0.3211223,9.812635,0.0012650015,-6.9907977E-4,-9.653959E-4,39.0,1.7773955,-0.32441434,9.638757,-0.0035913025,0.0032920274,0.1738789,0.011985202,-0.09174107,0.30413172,2017-10-30 02:24:09,-Infinity
1.7666216,-0.35703534,9.776723,-3.9947417E-4,-0.001298291,0.0,40.0,1.7782934,-0.32680854,9.638457,-0.011671733,-0.030226797,0.13826515,0.011899251,-0.09181708,0.30426237,2017-10-30 02:24:10,-Infinity
1.7785926,-0.3091513,9.767146,-0.0014647386,8.322378E-4,0.0010652645,39.0,1.7723078,-0.32935238,9.639505,0.0062847794,0.020201078,0.12764087,0.011684193,-0.09156749,0.30431625,2017-10-30 02:24:12,-Infinity
1.7690158,-0.3498527,9.7863,-0.001498028,-0.0017310547,-3.6618466E-4,39.0,1.7688662,-0.33369187,9.639954,1.496376E-4,-0.01616086,0.14634559,0.011422558,-0.09146358,0.3043628,2017-10-30 02:24:13,-Infinity
1.7761984,-0.2995745,9.755175,-4.3276369E-4,0.0014647386,6.9907977E-4,40.0,1.7699136,-0.33069912,9.639804,0.0062847794,0.031124622,0.115370594,0.011565354,-0.09147018,0.304141,2017-10-30 02:24:14,-Infinity
1.7929578,-0.32351652,9.733627,0.0010652645,0.0012650015,9.986854E-4,40.0,1.7741034,-0.32890347,9.639206,0.018854339,0.0053869537,0.09442133,0.011720034,-0.091647446,0.3041869,2017-10-30 02:24:15,-Infinity
1.7690158,-0.36900634,9.838972,0.0,0.0012650015,-0.002197108,40.0,1.7788919,-0.32815528,9.638308,-0.009876082,-0.040851068,0.20066403,0.011829505,-0.09187125,0.30419156,2017-10-30 02:24:16,-Infinity
1.783381,-0.3450643,9.767146,-3.3289514E-4,-5.9921126E-4,0.0011318434,40.0,1.7785926,-0.32890347,9.638308,0.0047884034,-0.01616086,0.12883797,0.011787498,-0.09186801,0.30413696,2017-10-30 02:24:18,-Infinity
1.7857752,-0.32351652,9.81503,8.9881686E-4,-5.9921126E-4,-9.653959E-4,40.0,1.7748517,-0.3326444,9.6389065,0.010923545,0.009127894,0.17612346,0.011547981,-0.09174429,0.30418006,2017-10-30 02:24:19,-Infinity
1.7929578,-0.3139397,9.740809,8.9881686E-4,-5.9921126E-4,9.986854E-5,40.0,1.7733552,-0.3326444,9.639206,0.019602526,0.018704701,0.10160393,0.011529589,-0.09166604,0.3042088,2017-10-30 02:24:20,-Infinity
1.8049288,-0.33069912,9.783905,0.0031625037,-0.0017643442,-9.986854E-5,40.0,1.7717092,-0.33354223,9.639356,0.03321955,0.0028431145,0.14454992,0.011461481,-0.0916035,0.3042498,2017-10-30 02:24:21,-Infinity
1.7690158,-0.3426701,9.731233,0.0020972393,3.6618466E-4,-9.986854E-5,40.0,1.7742531,-0.33354223,9.6389065,-0.0052373162,-0.009127894,0.0923264,0.011498045,-0.09173015,0.30419758,2017-10-30 02:24:22,-Infinity
1.7857752,-0.33069912,9.755175,-0.0013315806,0.0030959249,-9.321064E-4,40.0,1.77141,-0.33429042,9.639505,0.01436521,0.0035913025,0.11566987,0.011414957,-0.09159908,0.30417815,2017-10-30 02:24:24,-Infinity
1.7666216,-0.3378817,9.779117,-0.002396845,9.653959E-4,1.3315806E-4,40.0,1.7658734,-0.33399114,9.640403,7.48188E-4,-0.0038905777,0.13871406,0.011346864,-0.091324925,0.3042077,2017-10-30 02:24:25,-Infinity
1.7785926,-0.3043629,9.736021,3.3289514E-5,2.330266E-4,-0.0012650015,39.0,1.7679683,-0.33084875,9.640253,0.01062427,0.026485857,0.095768064,0.01151763,-0.09137696,0.304094,2017-10-30 02:24:27,-Infinity
1.8025346,-0.3091513,9.697714,-3.3289514E-5,-0.0026964506,1.3315806E-4,40.0,1.7726071,-0.3302502,9.639356,0.029927522,0.021098902,0.058358666,0.011610515,-0.09159814,0.3039511,2017-10-30 02:24:28,-Infinity
1.7809868,-0.35464114,9.759963,-3.3289514E-5,0.0015646071,-9.321064E-4,39.0,1.7727567,-0.32965165,9.639356,0.008230069,-0.02498948,0.12060791,0.0116413785,-0.09159747,0.303988,2017-10-30 02:24:29,-Infinity
1.7785926,-0.3115455,9.755175,-1.3315806E-4,-0.001498028,7.656588E-4,40.0,1.7705121,-0.33054948,9.639804,0.00808043,0.019003976,0.115370594,0.011579112,-0.0914965,0.30416438,2017-10-30 02:24:30,-Infinity
1.783381,-0.32830492,9.692925,9.321064E-4,6.3250074E-4,7.656588E-4,39.0,1.7699136,-0.33084875,9.639804,0.0134673845,0.0025438394,0.05312135,0.011550706,-0.09147477,0.30406442,2017-10-30 02:24:32,-Infinity
1.807323,-0.3378817,9.704897,1.3315806E-4,-0.001098554,-6.657903E-5,39.0,1.766023,-0.32695818,9.640702,0.04129998,-0.010923545,0.06419453,0.011673069,-0.09121919,0.30404827,2017-10-30 02:24:33,-Infinity
1.7785926,-0.3139397,9.7958765,-0.0019973707,0.0010319749,9.986854E-4,39.0,1.7622821,-0.32441434,9.64145,0.0163105,0.0104746325,0.15442601,0.011746348,-0.09099765,0.30409506,2017-10-30 02:24:34,-Infinity
1.7881694,-0.35942954,9.829395,-6.657903E-5,-7.323693E-4,-0.001298291,39.0,1.7622821,-0.3215712,9.6416,0.025887307,-0.037858315,0.18779519,0.011859544,-0.090954125,0.30389497,2017-10-30 02:24:36,-Infinity
1.795352,-0.32830492,9.812635,-2.663161E-4,0.002596582,0.0013315806,39.0,1.769315,-0.3226187,9.640253,0.026036944,-0.005686229,0.17238252,0.011915579,-0.09132038,0.30382922,2017-10-30 02:24:37,-Infinity
1.8528129,-0.3450643,9.7479925,-0.0013315806,4.660532E-4,0.0013315806,39.0,1.7702129,-0.32770637,9.639954,0.08259996,-0.017357962,0.10803835,0.011702709,-0.091439694,0.3039985,2017-10-30 02:24:38,-Infinity
1.7857752,-0.32830492,9.764751,-7.656588E-4,3.3289514E-4,0.0,39.0,1.7723078,-0.32591072,9.639505,0.0134673845,-0.0023942017,0.12524667,0.01183276,-0.09151538,0.30414817,2017-10-30 02:24:39,-Infinity
1.7785926,-0.3211223,9.731233,0.00136487,-7.323693E-4,0.0010652645,39.0,1.7772459,-0.32486326,9.638757,0.0013467384,0.0037409402,0.09247604,0.011956428,-0.09173873,0.30411455,2017-10-30 02:24:41,-Infinity
1.819294,-0.33069912,9.767146,-0.0011318434,-0.0016977652,-0.002197108,40.0,1.7770962,-0.32127193,9.6389065,0.042197805,-0.009427169,0.12823942,0.01213762,-0.09167297,0.30420598,2017-10-30 02:24:42,-Infinity
1.8025346,-0.33309332,9.707291,-0.002197108,0.001498028,-0.0011318434,39.0,1.7769465,-0.32067338,9.6389065,0.02558803,-0.012419921,0.06838439,0.012173826,-0.091652825,0.30426517,2017-10-30 02:24:43,-Infinity
1.8097172,-0.33069912,9.726444,-0.0020972393,6.657903E-4,6.657903E-5,39.0,1.7736546,-0.32216978,9.639505,0.03606266,-0.008529344,0.08693945,0.012058823,-0.09151602,0.30436966,2017-10-30 02:24:44,-Infinity
1.8001404,-0.3067571,9.779117,0.001098554,-3.9947417E-4,6.657903E-5,39.0,1.7642274,-0.32246906,9.641151,0.035913024,0.015711948,0.13796587,0.011910422,-0.09105374,0.30457237,2017-10-30 02:24:46,-Infinity
1.7522564,-0.3426701,9.752781,-9.986854E-4,-0.0029627667,-0.0010319749,39.0,1.7651252,-0.32276833,9.641002,-0.012868834,-0.0199018,0.111779295,0.011926002,-0.09110083,0.30466333,2017-10-30 02:24:47,-Infinity
1.7881694,-0.33309332,9.745598,5.9921126E-4,3.3289514E-4,-0.0012650015,39.0,1.7706618,-0.31947628,9.640103,0.0175076,-0.013617022,0.105494514,0.012171013,-0.09132463,0.3046464,2017-10-30 02:24:48,-Infinity
1.7738042,-0.33069912,9.745598,-0.0036618465,0.0024634239,-1.9973709E-4,39.0,1.7726071,-0.32591072,9.639505,0.0011971008,-0.0047884034,0.106093064,0.011873661,-0.09152396,0.30449763,2017-10-30 02:24:49,-Infinity
1.7546506,-0.28999767,9.752781,-6.657903E-4,5.659217E-4,3.3289514E-5,39.0,1.7706618,-0.32561144,9.639954,-0.016011223,0.03561375,0.11282676,0.011850879,-0.09142272,0.3044137,2017-10-30 02:24:51,-Infinity
1.7618332,-0.36182374,9.762358,3.9947417E-4,5.659217E-4,3.3289514E-5,40.0,1.7699136,-0.32007483,9.640253,-0.00808043,-0.041748893,0.12210429,0.012122632,-0.091295585,0.30460575,2017-10-30 02:24:52,-Infinity
1.7905636,-0.2971803,9.762358,9.653959E-4,0.002530003,-2.9960563E-4,39.0,1.769764,-0.31857845,9.640253,0.020799628,0.021398177,0.12210429,0.012197559,-0.09126577,0.30466738,2017-10-30 02:24:53,-Infinity
1.7809868,-0.3354875,9.764751,9.653959E-4,-0.0017310547,-2.9960563E-4,40.0,1.7699136,-0.31947628,9.640253,0.011073183,-0.016011223,0.12449849,0.01215455,-0.09128855,0.30463573,2017-10-30 02:24:54,-Infinity
1.7761984,-0.3402759,9.834184,-3.3289514E-5,0.00272974,0.001098554,39.0,1.7751509,-0.3230676,9.639206,0.0010474633,-0.017208325,0.1949778,0.012063387,-0.09160264,0.30461618,2017-10-30 02:24:55,-Infinity
1.8336592,-0.36900634,9.7479925,0.0020972393,-4.660532E-4,3.3289514E-5,39.0,1.7736546,-0.32321724,9.639356,0.06000468,-0.045789108,0.1086369,0.0120356325,-0.09153266,0.30466208,2017-10-30 02:24:57,-Infinity
1.7618332,-0.33309332,9.779117,0.0,-3.6618466E-4,-6.657903E-5,39.0,1.7729063,-0.32291797,9.639505,-0.011073183,-0.010175358,0.13961188,0.012039743,-0.091491625,0.30466887,2017-10-30 02:24:58,-Infinity
1.7905636,-0.32351652,9.745598,0.0010652645,6.9907977E-4,9.986854E-4,40.0,1.766472,-0.32591072,9.640702,0.024091655,0.0023942017,0.104895964,0.011799536,-0.091221824,0.30475828,2017-10-30 02:24:59,-Infinity
1.7642274,-0.28281507,9.7719345,0.0020639498,3.3289514E-4,0.0,39.0,1.7691654,-0.32650927,9.640103,-0.004938041,0.04369418,0.13183074,0.011816422,-0.09136249,0.30479583,2017-10-30 02:25:00,-Infinity
1.7809868,-0.3426701,9.697714,0.0020639498,3.3289514E-4,0.0,39.0,1.7696143,-0.32650927,9.640103,0.011372458,-0.01616086,0.05761048,0.0118406005,-0.09137651,0.30494776,2017-10-30 02:25:01,-Infinity
1.8121114,-0.3378817,9.750386,-0.0012650015,-0.001298291,-2.330266E-4,39.0,1.7637784,-0.32471362,9.641151,0.04833295,-0.01316811,0.10923545,0.011824065,-0.09106588,0.3048291,2017-10-30 02:25:03,-Infinity
1.795352,-0.3211223,9.7863,8.322378E-4,-2.9960563E-4,-1.9973709E-4,39.0,1.766472,-0.32246906,9.640702,0.028880058,0.0013467384,0.1455974,0.011957171,-0.09116927,0.3046536,2017-10-30 02:25:04,-Infinity
1.7761984,-0.3498527,9.726444,-2.330266E-4,0.0018309233,-1.9973709E-4,40.0,1.7682676,-0.3203741,9.6405525,0.007930793,-0.029478608,0.085891984,0.012085439,-0.09122312,0.3046132,2017-10-30 02:25:05,-Infinity
1.7642274,-0.3019687,9.757569,-4.3276369E-4,-2.663161E-4,-8.6552737E-4,39.0,1.769315,-0.32411507,9.640253,-0.005087679,0.022146367,0.11731588,0.011898547,-0.091331765,0.30441305,2017-10-30 02:25:06,-Infinity
1.7929578,-0.3187281,9.731233,0.0016977652,-2.663161E-4,1.9973709E-4,39.0,1.7679683,-0.32770637,9.640253,0.02498948,0.008978256,0.090979666,0.011713318,-0.091323,0.30448118,2017-10-30 02:25:07,-Infinity
1.8049288,-0.32830492,9.736021,9.986854E-4,-9.986854E-5,1.9973709E-4,39.0,1.7685668,-0.32800564,9.640253,0.036361936,-2.992752E-4,0.095768064,0.011706811,-0.09135546,0.30451533,2017-10-30 02:25:09,-Infinity
1.8145056,-0.2923919,9.728839,0.0016977652,2.330266E-4,0.001165133,39.0,1.775899,-0.32606035,9.6389065,0.038606502,0.033668462,0.0899322,0.011929513,-0.09168443,0.30461338,2017-10-30 02:25:11,-Infinity
1.7785926,-0.37140054,9.76954,6.3250074E-4,-8.322378E-4,-9.653959E-4,39.0,1.7764976,-0.32800564,9.638757,0.0020949265,-0.043394905,0.13078327,0.011858085,-0.09174055,0.3047836,2017-10-30 02:25:12,-Infinity
1.7785926,-0.2995745,9.810242,4.993427E-4,0.0015978967,6.3250074E-4,40.0,1.7802386,-0.3302502,9.638008,-0.0016460137,0.03067571,0.17223288,0.011805737,-0.09196046,0.3047401,2017-10-30 02:25:13,-Infinity
1.7905636,-0.2995745,9.805453,0.0019973707,-7.656588E-4,9.653959E-4,40.0,1.7753005,-0.3333926,9.638757,0.015263036,0.0338181,0.1666963,0.011551084,-0.091769844,0.3045477,2017-10-30 02:25:15,-Infinity
1.807323,-0.32591072,9.740809,9.321064E-4,0.00136487,-9.986854E-5,40.0,1.7738042,-0.3314473,9.639056,0.033518825,0.0055365916,0.10175357,0.011619706,-0.091667265,0.30445907,2017-10-30 02:25:16,-Infinity
1.7977462,-0.3115455,9.752781,-2.663161E-4,3.9947417E-4,0.0010652645,39.0,1.7788919,-0.32695818,9.638308,0.018854339,0.015412673,0.11447277,0.011920927,-0.09184864,0.30453113,2017-10-30 02:25:17,-Infinity
1.8168998,-0.3450643,9.733627,7.9894834E-4,0.0014647386,0.0,39.0,1.7815853,-0.32576108,9.637859,0.035314474,-0.019303251,0.095768064,0.0120307645,-0.091961,0.30457327,2017-10-30 02:25:19,-Infinity
1.7761984,-0.3354875,9.750386,0.0019307918,7.656588E-4,-0.0010652645,40.0,1.7824832,-0.32770637,9.63756,-0.0062847794,-0.0077811554,0.11282676,0.011950715,-0.09203762,0.30456027,2017-10-30 02:25:20,-Infinity
1.8145056,-0.3211223,9.764751,-1.9973709E-4,0.0018309233,0.0,40.0,1.7744027,-0.32606035,9.639206,0.040102877,0.004938041,0.12554595,0.011895317,-0.09161013,0.3045616,2017-10-30 02:25:21,-Infinity
1.8145056,-0.3378817,9.755175,-0.0015313176,4.660532E-4,9.986854E-4,40.0,1.7741034,-0.3266589,9.639206,0.040402155,-0.011222821,0.115969144,0.011855558,-0.09160577,0.30450353,2017-10-30 02:25:23,-Infinity
1.8336592,-0.32591072,9.764751,-0.0015313176,4.660532E-4,-0.002197108,40.0,1.7757494,-0.33084875,9.638757,0.057909753,0.004938041,0.12599486,0.011683885,-0.09175393,0.30449054,2017-10-30 02:25:24,-Infinity
1.8025346,-0.3426701,9.76954,-1.3315806E-4,-0.0015978967,-0.0018975022,39.0,1.7772459,-0.32965165,9.638457,0.025288755,-0.013018472,0.13108255,0.011759444,-0.09181361,0.30445477,2017-10-30 02:25:25,-Infinity
1.7738042,-0.28042087,9.788693,-2.9960563E-4,-3.9947417E-4,-9.986854E-4,39.0,1.7757494,-0.3290531,9.6389065,-0.0019452889,0.048632223,0.14978725,0.011771719,-0.09172833,0.30453476,2017-10-30 02:25:26,-Infinity
1.8025346,-0.3091513,9.803059,-2.9960563E-4,-3.9947417E-4,0.0011318434,40.0,1.7748517,-0.32725745,9.639056,0.027682956,0.01810615,0.16400282,0.011846706,-0.091656655,0.3045008,2017-10-30 02:25:27,-Infinity
1.8145056,-0.3019687,9.733627,0.001098554,4.660532E-4,0.002396845,40.0,1.7718589,-0.3242647,9.639654,0.042646717,0.022296004,0.093972415,0.011946094,-0.09146012,0.3045843,2017-10-30 02:25:29,-Infinity
1.7785926,-0.3067571,9.712079,0.0021638183,4.660532E-4,-7.9894834E-4,39.0,1.7721581,-0.32396543,9.639654,0.006434417,0.017208325,0.0724246,0.0119827315,-0.09146522,0.3047624,2017-10-30 02:25:30,-Infinity
1.819294,-0.3043629,9.7240505,-2.663161E-4,0.0015646071,-0.001298291,39.0,1.7712604,-0.32336688,9.639804,0.048033673,0.019003976,0.08424597,0.012015256,-0.09141046,0.30489835,2017-10-30 02:25:31,-Infinity
1.807323,-0.3426701,9.800665,-2.663161E-4,-0.0016311861,8.322378E-4,39.0,1.7708114,-0.32606035,9.639804,0.036511578,-0.016609775,0.16086042,0.011866928,-0.09143582,0.304781,2017-10-30 02:25:32,-Infinity
1.7905636,-0.35464114,9.831789,-2.330266E-4,-0.0016311861,1.6644757E-4,40.0,1.7718589,-0.32800564,9.639505,0.018704701,-0.026635494,0.19228433,0.0117771095,-0.0915187,0.304669,2017-10-30 02:25:33,-Infinity
1.7905636,-0.3426701,9.712079,8.322378E-4,-0.0016311861,-0.0019640813,40.0,1.7684172,-0.32950202,9.640103,0.022146367,-0.01316811,0.071975686,0.011652441,-0.091374084,0.30473045,2017-10-30 02:25:35,-Infinity
1.8336592,-0.3450643,9.831789,9.653959E-4,-0.0026631611,8.322378E-4,40.0,1.7663223,-0.32531217,9.640702,0.067336924,-0.019752163,0.19108722,0.011810503,-0.09120202,0.30461833,2017-10-30 02:25:36,-Infinity
1.8097172,-0.37379473,9.740809,-0.001165133,0.0026631611,8.322378E-4,40.0,1.7633295,-0.32606035,9.6413,0.046387658,-0.047734395,0.09950901,0.011713539,-0.09106794,0.30447397,2017-10-30 02:25:37,-Infinity
1.7977462,-0.3450643,9.762358,0.0017643442,5.326322E-4,-3.3289514E-5,39.0,1.7685668,-0.3274071,9.640253,0.029179333,-0.017657237,0.12210429,0.011724782,-0.091350675,0.3044031,2017-10-30 02:25:38,-Infinity
1.7761984,-0.36421794,9.716867,0.0017643442,0.0015978967,-0.001098554,39.0,1.7690158,-0.33114803,9.639954,0.007182605,-0.033069912,0.07691373,0.011535852,-0.09143342,0.3042436,2017-10-30 02:25:39,-Infinity
1.8408419,-0.32351652,9.76954,-0.0012317119,3.3289514E-5,-0.0019640813,39.0,1.7723078,-0.33159694,9.639356,0.068534024,0.00808043,0.13018471,0.011566676,-0.09160283,0.3042691,2017-10-30 02:25:41,-Infinity
1.7929578,-0.3378817,9.788693,-7.656588E-4,-0.0014647386,3.6618466E-4,40.0,1.7732056,-0.33279404,9.639206,0.019752163,-0.005087679,0.14948797,0.011523215,-0.09166448,0.30421653,2017-10-30 02:25:42,-Infinity
1.8264766,-0.3019687,9.764751,-7.656588E-4,0.0017310547,0.0014314491,39.0,1.7678187,-0.32531217,9.640403,0.05865794,0.023343466,0.12434885,0.011813813,-0.091282666,0.3043584,2017-10-30 02:25:43,-Infinity
1.7618332,-0.3139397,9.721656,-0.0016311861,-7.9894834E-4,-0.0011318434,39.0,1.7637784,-0.32606035,9.641151,-0.0019452889,0.012120646,0.080505036,0.011735804,-0.091090366,0.30462578,2017-10-30 02:25:44,-Infinity
1.7522564,-0.3450643,9.755175,-0.0026964506,-7.9894834E-4,-6.657903E-5,39.0,1.7676691,-0.3314473,9.640253,-0.015412673,-0.013617022,0.11492168,0.0115268435,-0.09136434,0.30450717,2017-10-30 02:25:45,-Infinity
1.7929578,-0.3354875,9.803059,0.0019973707,5.9921126E-4,0.00136487,39.0,1.7699136,-0.33069912,9.639804,0.023044191,-0.0047884034,0.16325463,0.011587198,-0.09146868,0.30442747,2017-10-30 02:25:47,-Infinity
1.7881694,-0.3474585,9.827001,-0.0011984225,5.9921126E-4,0.00136487,39.0,1.7681179,-0.3298013,9.640253,0.020051438,-0.017657237,0.18674773,0.011620218,-0.0913616,0.30457452,2017-10-30 02:25:48,-Infinity
1.8097172,-0.32351652,9.774328,4.993427E-4,6.657903E-4,-0.001098554,39.0,1.7666216,-0.33234513,9.640403,0.04309563,0.008828619,0.13392566,0.011486235,-0.09132706,0.30472144,2017-10-30 02:25:49,-Infinity
1.7642274,-0.32351652,9.834184,-0.0026964506,-0.002530003,0.0010319749,39.0,1.7613842,-0.33324295,9.6413,0.0028431145,0.009726444,0.19288288,0.011354808,-0.0910864,0.30469576,2017-10-30 02:25:50,-Infinity
1.759439,-0.33309332,9.783905,0.0,0.0026964506,-1.6644757E-4,39.0,1.7628807,-0.33473933,9.641002,-0.0034416649,0.0016460137,0.14290391,0.0113051925,-0.09118067,0.3046566,2017-10-30 02:25:51,-Infinity
1.7642274,-0.3474585,9.759963,0.0010652645,5.659217E-4,8.9881686E-4,39.0,1.7646763,-0.33204585,9.640702,-4.4891282E-4,-0.015412673,0.119261175,0.011459204,-0.09123097,0.30460468,2017-10-30 02:25:53,-Infinity
1.7929578,-0.3426701,9.740809,-0.00136487,-4.993427E-4,-9.986854E-4,39.0,1.7630303,-0.33414078,9.641002,0.029927522,-0.008529344,0.09980828,0.011342179,-0.09117785,0.30469766,2017-10-30 02:25:54,-Infinity
1.7738042,-0.33309332,9.716867,-0.0018642128,-7.9894834E-4,-1.6644757E-4,39.0,1.7658734,-0.33593643,9.640403,0.007930793,0.0028431145,0.07646482,0.011300453,-0.09134549,0.3047578,2017-10-30 02:25:55,-Infinity
1.783381,-0.32591072,9.759963,0.002396845,-0.0018642128,8.9881686E-4,39.0,1.7690158,-0.32965165,9.640103,0.01436521,0.0037409402,0.119859725,0.011652453,-0.09140241,0.30466077,2017-10-30 02:25:57,-Infinity
1.7738042,-0.3378817,9.752781,-0.0013981595,-7.323693E-4,-9.986854E-5,39.0,1.7691654,-0.32606035,9.640103,0.004638766,-0.011821371,0.11267712,0.011825267,-0.09135257,0.30464897,2017-10-30 02:25:58,-Infinity
1.7761984,-0.3450643,9.810242,7.323693E-4,-0.0017976337,-0.001165133,39.0,1.7718589,-0.33010057,9.639505,0.0043394906,-0.014963761,0.1707365,0.011660934,-0.09155394,0.3045341,2017-10-30 02:25:59,-Infinity
1.7666216,-0.32591072,9.767146,-0.0018642128,6.3250074E-4,7.656588E-4,39.0,1.77141,-0.33473933,9.639505,-0.0047884034,0.008828619,0.12764087,0.011434057,-0.091597855,0.30459014,2017-10-30 02:26:00,-Infinity
1.7570448,-0.3450643,9.829395,-7.9894834E-4,-0.0025632926,-0.00136487,39.0,1.7670705,-0.341473,9.639954,-0.010025719,-0.0035913025,0.1894412,0.011014977,-0.091496736,0.30440822,2017-10-30 02:26:01,-Infinity
1.8336592,-0.32351652,9.762358,0.0012650015,-5.659217E-4,-0.001498028,39.0,1.766023,-0.3393781,9.640253,0.0676362,0.015861586,0.12210429,0.011075582,-0.09141329,0.30416343,2017-10-30 02:26:03,-Infinity
1.8097172,-0.33069912,9.7240505,1.9973709E-4,-0.0016311861,-0.001498028,39.0,1.7687165,-0.33429042,9.639954,0.041000705,0.0035913025,0.084096335,0.011344377,-0.09147145,0.30387244,2017-10-30 02:26:04,-Infinity
1.7546506,-0.3402759,9.779117,-8.9881686E-4,3.3289514E-5,-9.321064E-4,39.0,1.7687165,-0.3298013,9.640103,-0.014065935,-0.0104746325,0.13901334,0.011559357,-0.09140481,0.30388,2017-10-30 02:26:05,-Infinity
1.8025346,-0.3474585,9.774328,0.0012317119,0.001098554,1.3315806E-4,39.0,1.7648259,-0.32606035,9.641002,0.037708677,-0.021398177,0.13332711,0.011694906,-0.09114748,0.30398563,2017-10-30 02:26:06,-Infinity
1.7785926,-0.3378817,9.733627,3.3289514E-5,-0.0011318434,-0.001165133,39.0,1.7586908,-0.3238158,9.642199,0.0199018,-0.014065935,0.09142858,0.011708756,-0.09081137,0.3039877,2017-10-30 02:26:07,-Infinity
1.7618332,-0.35464114,9.721656,-2.663161E-4,5.659217E-4,0.0011984225,39.0,1.7615339,-0.32246906,9.6416,2.992752E-4,-0.032172084,0.080056116,0.011807321,-0.09093116,0.3038679,2017-10-30 02:26:09,-Infinity
1.7450738,-0.3091513,9.781511,-2.663161E-4,5.659217E-4,1.3315806E-4,40.0,1.7651252,-0.32411507,9.641002,-0.020051438,0.014963761,0.14050971,0.011784776,-0.09113382,0.30389687,2017-10-30 02:26:10,-Infinity
1.807323,-0.3426701,9.733627,5.326322E-4,7.9894834E-4,-9.986854E-4,39.0,1.7621324,-0.3226187,9.6416,0.045190558,-0.020051438,0.09202713,0.011803785,-0.09096053,0.30385962,2017-10-30 02:26:12,-Infinity
1.7905636,-0.3378817,9.79827,5.326322E-4,-0.0013315806,0.0011318434,40.0,1.7654245,-0.32635963,9.640852,0.025139118,-0.011522096,0.15741876,0.011673679,-0.09118685,0.30382404,2017-10-30 02:26:13,-Infinity
1.807323,-0.3450643,9.745598,-2.330266E-4,-0.0017310547,0.0011984225,39.0,1.7690158,-0.32441434,9.640253,0.038307227,-0.02064999,0.10534488,0.011817361,-0.09133436,0.30377272,2017-10-30 02:26:14,-Infinity
1.8025346,-0.3043629,9.745598,7.9894834E-4,-4.3276369E-4,0.0014647386,39.0,1.7739538,-0.32606035,9.639206,0.028580783,0.021697452,0.10639234,0.011819353,-0.091603115,0.30381063,2017-10-30 02:26:15,-Infinity
1.7977462,-0.3354875,9.733627,-2.663161E-4,-4.3276369E-4,0.0014647386,40.0,1.7727567,-0.32725745,9.639505,0.02498948,-0.008230069,0.09412205,0.011757675,-0.09156123,0.30396947,2017-10-30 02:26:17,-Infinity
1.7570448,-0.32351652,9.743204,9.321064E-4,2.9960563E-4,-9.653959E-4,40.0,1.773056,-0.32680854,9.639356,-0.016011223,0.0032920274,0.1038485,0.011798701,-0.09156382,0.3040956,2017-10-30 02:26:18,-Infinity
1.8121114,-0.3450643,9.774328,-0.0022636869,2.9960563E-4,-0.0020306604,39.0,1.7773955,-0.32486326,9.638607,0.034715924,-0.020201078,0.13572131,0.011958449,-0.091750935,0.30407646,2017-10-30 02:26:19,-Infinity
1.8025346,-0.3354875,9.700109,9.653959E-4,-5.326322E-4,6.657903E-5,40.0,1.7766473,-0.3211223,9.6389065,0.025887307,-0.01436521,0.06120178,0.012124249,-0.0916487,0.30402687,2017-10-30 02:26:21,-Infinity
1.7929578,-0.3378817,9.745598,0.0020306604,-5.326322E-4,-9.986854E-4,39.0,1.7770962,-0.32022446,9.6389065,0.015861586,-0.017657237,0.106691614,0.012164623,-0.09165987,0.30395457,2017-10-30 02:26:22,-Infinity
1.783381,-0.3474585,9.752781,7.323693E-4,-0.0015978967,-9.986854E-4,39.0,1.7753005,-0.32606035,9.639056,0.00808043,-0.021398177,0.11372458,0.011855918,-0.091665626,0.30398753,2017-10-30 02:26:23,-Infinity
1.7738042,-0.36661214,9.774328,7.323693E-4,-5.326322E-4,-0.0020639498,40.0,1.7736546,-0.32710782,9.639206,1.496376E-4,-0.039504327,0.13512276,0.011766022,-0.09160334,0.3038498,2017-10-30 02:26:24,-Infinity
1.8049288,-0.35703534,9.752781,-1.3315806E-4,8.322378E-4,4.993427E-4,39.0,1.770961,-0.3254618,9.639804,0.033967737,-0.031573534,0.112976395,0.0118245045,-0.09143746,0.30401394,2017-10-30 02:26:25,-Infinity
1.8121114,-0.3378817,9.810242,2.330266E-4,-0.0015978967,-0.0019307918,40.0,1.7687165,-0.32606035,9.640253,0.043394905,-0.011821371,0.16998832,0.011775312,-0.09133564,0.3042167,2017-10-30 02:26:27,-Infinity
1.7570448,-0.32351652,9.7240505,-8.322378E-4,5.326322E-4,0.002330266,39.0,1.770961,-0.33638534,9.639505,-0.013916298,0.012868834,0.08454525,0.011300096,-0.091608435,0.3041658,2017-10-30 02:26:29,-Infinity
1.7881694,-0.3163339,9.738416,8.6552737E-4,7.323693E-4,0.001165133,40.0,1.7682676,-0.33069912,9.640103,0.0199018,0.01436521,0.09831191,0.011556095,-0.091382965,0.304356,2017-10-30 02:26:30,-Infinity
1.7881694,-0.32830492,9.774328,-7.9894834E-4,0.0020972393,3.3289514E-5,40.0,1.763928,-0.33069912,9.641002,0.024241293,0.0023942017,0.13332711,0.011496093,-0.091170445,0.30446008,2017-10-30 02:26:31,-Infinity
1.7785926,-0.3187281,9.750386,-0.0018642128,-3.3289514E-5,0.0021638183,39.0,1.7603368,-0.3302502,9.6416,0.018255789,0.011522096,0.10878654,0.01147385,-0.09098692,0.3045915,2017-10-30 02:26:32,-Infinity
1.7857752,-0.2971803,9.731233,-6.9907977E-4,-4.3276369E-4,7.656588E-4,40.0,1.7567455,-0.3366846,9.642049,0.029029695,0.039504327,0.089184016,0.011124547,-0.09091091,0.3047606,2017-10-30 02:26:33,-Infinity
1.7905636,-0.3211223,9.7240505,3.6618466E-4,-4.3276369E-4,-2.9960563E-4,39.0,1.7568952,-0.33638534,9.642049,0.033668462,0.015263036,0.08200141,0.011140873,-0.090909466,0.30480257,2017-10-30 02:26:35,-Infinity
1.7881694,-0.3091513,9.680955,-6.3250074E-4,-3.6618466E-4,-4.660532E-4,39.0,1.7592894,-0.33758244,9.6416,0.028880058,0.028431145,0.03935469,0.011105956,-0.09104842,0.30465356,2017-10-30 02:26:36,-Infinity
1.7809868,-0.33309332,9.752781,-6.3250074E-4,6.9907977E-4,-4.660532E-4,39.0,1.7609353,-0.33877954,9.641151,0.020051438,0.005686229,0.11162966,0.011041787,-0.09115456,0.3043317,2017-10-30 02:26:37,-Infinity
1.7785926,-0.36661214,9.800665,4.3276369E-4,-0.0016977652,-1.9973709E-4,39.0,1.7649755,-0.33518824,9.6405525,0.013617022,-0.031423897,0.16011223,0.011263035,-0.09129611,0.30411646,2017-10-30 02:26:39,-Infinity
1.819294,-0.38576576,9.733627,4.3276369E-4,4.3276369E-4,-1.9973709E-4,39.0,1.7694647,-0.3354875,9.639804,0.049829323,-0.050278235,0.09382278,0.011303805,-0.09152378,0.30399832,2017-10-30 02:26:40,-Infinity
1.8001404,-0.2947861,9.783905,-0.0015646071,5.326322E-4,1.3315806E-4,39.0,1.7700633,-0.3369839,9.639654,0.03007716,0.042197805,0.14425065,0.011242892,-0.09157942,0.3039917,2017-10-30 02:26:41,-Infinity
1.7666216,-0.3522469,9.764751,-6.3250074E-4,-0.0015978967,-1.6644757E-4,40.0,1.7687165,-0.33488896,9.639954,-0.0020949265,-0.017357962,0.12479776,0.01132247,-0.09148149,0.30396256,2017-10-30 02:26:43,-Infinity
1.7809868,-0.32830492,9.752781,0.001498028,5.326322E-4,-0.0012317119,40.0,1.7681179,-0.33369187,9.640103,0.012868834,0.0053869537,0.11267712,0.011349516,-0.09143445,0.3037732,2017-10-30 02:26:44,-Infinity
1.8121114,-0.3450643,9.783905,0.0019973707,-0.0011984225,2.663161E-4,40.0,1.7673697,-0.3350386,9.640253,0.044741645,-0.010025719,0.1436521,0.011274328,-0.09141433,0.30377784,2017-10-30 02:26:45,-Infinity
1.8025346,-0.3211223,9.736021,-1.3315806E-4,-1.3315806E-4,2.663161E-4,40.0,1.762731,-0.33234513,9.641151,0.0398036,0.011222821,0.09487024,0.011339249,-0.09114936,0.30386904,2017-10-30 02:26:46,-Infinity
1.783381,-0.36421794,9.774328,0.0019973707,-0.0011984225,8.9881686E-4,39.0,1.7607857,-0.33054948,9.64145,0.022595279,-0.033668462,0.1328782,0.011396843,-0.091022685,0.30380794,2017-10-30 02:26:47,-Infinity
1.8145056,-0.35464114,9.707291,-1.3315806E-4,-1.3315806E-4,-1.6644757E-4,39.0,1.7652749,-0.32815528,9.640852,0.049230773,-0.026485857,0.0664391,0.011568558,-0.09120771,0.30368158,2017-10-30 02:26:49,-Infinity
1.7809868,-0.3450643,9.767146,8.322378E-4,-4.3276369E-4,3.3289514E-5,40.0,1.7652749,-0.3302502,9.640702,0.015711948,-0.014814123,0.12644377,0.011457073,-0.09124181,0.30359688,2017-10-30 02:26:50,-Infinity
1.807323,-0.33309332,9.721656,-0.0012317119,-5.326322E-4,-3.3289514E-5,40.0,1.7645266,-0.32695818,9.641002,0.042796355,-0.006135142,0.08065467,0.011620625,-0.09115085,0.30371156,2017-10-30 02:26:51,-Infinity
1.795352,-0.3426701,9.755175,8.9881686E-4,5.326322E-4,0.0010319749,40.0,1.7642274,-0.32635963,9.641002,0.031124622,-0.0163105,0.114173494,0.011645518,-0.09113036,0.3037115,2017-10-30 02:26:53,-Infinity
1.7618332,-0.3378817,9.755175,-0.0014647386,6.9907977E-4,6.657903E-4,40.0,1.7687165,-0.3230676,9.640403,-0.0068833297,-0.014814123,0.114772044,0.0118796015,-0.091296256,0.303749,2017-10-30 02:26:54,-Infinity
1.807323,-0.3378817,9.788693,-3.9947417E-4,-3.6618466E-4,0.0017310547,40.0,1.7670705,-0.32276833,9.640702,0.040252518,-0.015113398,0.1479916,0.011843212,-0.09121783,0.30353186,2017-10-30 02:26:55,-Infinity
1.795352,-0.3139397,9.788693,0.0017976337,-1.6644757E-4,8.322378E-4,40.0,1.7681179,-0.32606035,9.640403,0.027234044,0.012120646,0.14829087,0.011685247,-0.091315806,0.30338123,2017-10-30 02:26:56,-Infinity
1.7929578,-0.32351652,9.755175,0.0017976337,8.9881686E-4,-2.330266E-4,39.0,1.7622821,-0.32396543,9.64145,0.03067571,4.4891282E-4,0.11372458,0.011691694,-0.091000274,0.3032919,2017-10-30 02:26:57,-Infinity
1.7761984,-0.36421794,9.7240505,9.653959E-4,-0.0028296087,0.0011984225,39.0,1.7633295,-0.32531217,9.6413,0.012868834,-0.038905777,0.0827496,0.011636069,-0.09107372,0.30322132,2017-10-30 02:26:59,-Infinity
1.8168998,-0.3426701,9.812635,-0.001165133,-6.9907977E-4,1.3315806E-4,39.0,1.766472,-0.32606035,9.640702,0.050427873,-0.016609775,0.1719336,0.0116628725,-0.091240704,0.30341116,2017-10-30 02:27:00,-Infinity
1.7809868,-0.3354875,9.7719345,3.3289514E-5,0.0020639498,-0.001098554,39.0,1.7633295,-0.32531217,9.6413,0.017657237,-0.010175358,0.13063364,0.0116639575,-0.09106816,0.30355826,2017-10-30 02:27:01,-Infinity
1.7809868,-0.3211223,9.755175,8.9881686E-4,6.9907977E-4,-0.001165133,39.0,1.7603368,-0.32172084,9.641899,0.02064999,5.985504E-4,0.11327567,0.01180574,-0.09086445,0.30367956,2017-10-30 02:27:03,-Infinity
1.8025346,-0.27563247,9.757569,-0.0012317119,6.9907977E-4,0.0020306604,39.0,1.7609353,-0.32396543,9.641749,0.041599255,0.04833295,0.11581951,0.011705424,-0.09092957,0.30371472,2017-10-30 02:27:04,-Infinity
1.783381,-0.3498527,9.671378,3.3289514E-5,2.663161E-4,0.0019307918,40.0,1.7600375,-0.32635963,9.641749,0.023343466,-0.023493104,0.029628245,0.011573684,-0.09092201,0.30366877,2017-10-30 02:27:05,-Infinity
1.8216882,-0.2995745,9.7863,-0.0031625037,-0.0018642128,-1.9973709E-4,39.0,1.7636288,-0.32531217,9.641151,0.05805939,0.025737667,0.14514847,0.011680668,-0.091082245,0.3036494,2017-10-30 02:27:06,-Infinity
1.7522564,-0.3043629,9.779117,9.986854E-5,0.0016311861,5.9921126E-4,40.0,1.7679683,-0.3215712,9.6405525,-0.015711948,0.017208325,0.13856442,0.0119191585,-0.09123796,0.3035759,2017-10-30 02:27:07,-Infinity
1.7977462,-0.3115455,9.7863,9.986854E-5,5.659217E-4,-0.0015313176,40.0,1.766472,-0.3196259,9.640852,0.03127426,0.00808043,0.14544775,0.011965821,-0.09113534,0.3033233,2017-10-30 02:27:09,-Infinity
1.7881694,-0.3474585,9.831789,-0.0011984225,-7.9894834E-4,-0.0011984225,40.0,1.7748517,-0.320823,9.639356,0.013317747,-0.026635494,0.19243397,0.012028223,-0.09157008,0.30316934,2017-10-30 02:27:11,-Infinity
1.77141,-0.3163339,9.803059,-3.6618466E-4,-6.657903E-4,-0.0018309233,40.0,1.7741034,-0.32276833,9.639356,-0.0026934769,0.006434417,0.16370355,0.011930352,-0.091560334,0.30330697,2017-10-30 02:27:12,-Infinity
1.8264766,-0.32591072,9.774328,-0.0014314491,0.0014647386,2.9960563E-4,40.0,1.7715596,-0.32875383,9.639654,0.054917,0.0028431145,0.13467385,0.011648162,-0.09152348,0.30376682,2017-10-30 02:27:13,-Infinity
1.8025346,-0.35464114,9.726444,-0.0024634239,7.323693E-4,-0.0013981595,39.0,1.7690158,-0.3286042,9.640103,0.033518825,-0.026036944,0.0863409,0.011609707,-0.09139395,0.30370894,2017-10-30 02:27:15,-Infinity
1.8001404,-0.3115455,9.762358,0.0018642128,-0.0031625037,0.0012317119,39.0,1.7624317,-0.32755673,9.6413,0.037708677,0.016011223,0.121056825,0.011538883,-0.091058135,0.3035424,2017-10-30 02:27:16,-Infinity
1.7905636,-0.3426701,9.779117,-0.0013315806,-0.0010319749,0.0012317119,40.0,1.7699136,-0.32576108,9.639954,0.02064999,-0.01690905,0.13916297,0.011758467,-0.09139985,0.30369273,2017-10-30 02:27:17,-Infinity
1.7498622,-0.3474585,9.759963,4.660532E-4,-0.003561978,-1.6644757E-4,39.0,1.7708114,-0.32920274,9.639654,-0.020949265,-0.018255789,0.12030864,0.011625184,-0.09149666,0.30385092,2017-10-30 02:27:19,-Infinity
1.77141,-0.33309332,9.7479925,-5.9921126E-4,0.0017643442,8.9881686E-4,40.0,1.7666216,-0.33713353,9.640253,0.0047884034,0.004040215,0.107739076,0.011158962,-0.091411784,0.30373058,2017-10-30 02:27:20,-Infinity
1.8097172,-0.3187281,9.736021,-2.663161E-4,-2.9960563E-4,1.3315806E-4,40.0,1.7646763,-0.33713353,9.6405525,0.04504092,0.018405426,0.09546879,0.011119638,-0.09131658,0.30363193,2017-10-30 02:27:22,-Infinity
1.819294,-0.33069912,9.736021,-4.3276369E-4,-4.660532E-4,0.0010319749,40.0,1.7652749,-0.33309332,9.6405525,0.054019175,0.0023942017,0.09546879,0.0113332365,-0.09128611,0.30373904,2017-10-30 02:27:23,-Infinity
1.8145056,-0.3450643,9.685743,-0.001498028,0.0016644757,-3.3289514E-5,39.0,1.7661726,-0.33563715,9.640403,0.04833295,-0.009427169,0.045340195,0.011221526,-0.09136951,0.30374905,2017-10-30 02:27:25,-Infinity
1.8168998,-0.3522469,9.7863,-9.321064E-4,0.0012317119,0.0018642128,40.0,1.7699136,-0.32815528,9.639954,0.046986207,-0.024091655,0.14634559,0.0116472915,-0.09143682,0.30375615,2017-10-30 02:27:26,-Infinity
1.783381,-0.3378817,9.860519,2.663161E-4,-0.0015646071,8.9881686E-4,40.0,1.7751509,-0.3254618,9.639056,0.008230069,-0.012419921,0.22146365,0.011843565,-0.09164968,0.3035935,2017-10-30 02:27:27,-Infinity
1.7761984,-0.3378817,9.7479925,-0.0018642128,-0.0026298715,-1.6644757E-4,39.0,1.77141,-0.33069912,9.639505,0.0047884034,-0.007182605,0.10848726,0.011510117,-0.0915564,0.30334488,2017-10-30 02:27:29,-Infinity
1.7881694,-0.35464114,9.774328,0.001098554,-0.0015646071,-0.0017643442,40.0,1.7720085,-0.3298013,9.639505,0.01616086,-0.024839843,0.13482349,0.011548334,-0.09156984,0.3032134,2017-10-30 02:27:30,-Infinity
1.7642274,-0.33069912,9.745598,3.3289514E-5,-4.993427E-4,0.0024967135,40.0,1.7726071,-0.32531217,9.639505,-0.008379706,-0.0053869537,0.106093064,0.011801433,-0.09152496,0.30347982,2017-10-30 02:27:31,-Infinity
1.7857752,-0.36661214,9.690532,-6.9907977E-4,-0.0014314491,-3.3289514E-5,39.0,1.7694647,-0.32845455,9.639954,0.0163105,-0.03815759,0.05057751,0.011618944,-0.09141795,0.30367634,2017-10-30 02:27:32,-Infinity
1.7785926,-0.39055416,9.719262,-0.0028296087,-0.0014314491,-3.3289514E-5,39.0,1.7666216,-0.3309984,9.640403,0.011971008,-0.05955577,0.07885902,0.0114575215,-0.09131345,0.30373773,2017-10-30 02:27:33,-Infinity
1.7331028,-0.2995745,9.733627,-1.3315806E-4,4.993427E-4,0.002130529,39.0,1.766472,-0.3321955,9.640403,-0.033369187,0.032621,0.09322423,0.011398479,-0.091325745,0.3037456,2017-10-30 02:27:35,-Infinity
1.7785926,-0.3163339,9.76954,9.321064E-4,0.0015646071,0.0,39.0,1.7684172,-0.33010057,9.640103,0.010175358,0.013766659,0.12943652,0.011530882,-0.09139277,0.303732,2017-10-30 02:27:36,-Infinity
1.7857752,-0.3498527,9.709685,0.0017976337,0.0015313176,0.0010652645,39.0,1.7702129,-0.32621,9.639954,0.015562311,-0.023642741,0.069731124,0.011730988,-0.09141925,0.30361888,2017-10-30 02:27:37,-Infinity
1.8384476,-0.35464114,9.743204,9.321064E-4,3.3289514E-4,0.001498028,40.0,1.7705121,-0.32815528,9.639804,0.067935474,-0.026485857,0.10339958,0.01163218,-0.09146933,0.30351296,2017-10-30 02:27:38,-Infinity
1.7785926,-0.3426701,9.767146,9.321064E-4,-0.0017976337,0.001498028,40.0,1.7715596,-0.32965165,9.639654,0.0070329676,-0.013018472,0.12749124,0.011601789,-0.091539115,0.30372497,2017-10-30 02:27:39,-Infinity
1.7761984,-0.3163339,9.759963,-0.001298291,5.659217E-4,-9.986854E-4,40.0,1.7738042,-0.32920274,9.639206,0.0023942017,0.012868834,0.12075755,0.011681291,-0.091642186,0.3039386,2017-10-30 02:27:41,-Infinity
1.8145056,-0.3211223,9.745598,8.322378E-4,0.0016311861,0.0011318434,40.0,1.7729063,-0.3274071,9.639356,0.041599255,0.0062847794,0.1062427,0.011752673,-0.09156866,0.30399117,2017-10-30 02:27:42,-Infinity
1.7785926,-0.3402759,9.736021,-0.0012650015,2.663161E-4,1.9973709E-4,40.0,1.7711107,-0.32621,9.639804,0.0074818805,-0.014065935,0.096216984,0.011785906,-0.09146045,0.30403337,2017-10-30 02:27:43,-Infinity
1.7761984,-0.36182374,9.757569,8.6552737E-4,-0.0029294773,0.002330266,40.0,1.774702,-0.32875383,9.639056,0.001496376,-0.033069912,0.11851298,0.011729498,-0.09167394,0.30411586,2017-10-30 02:27:44,-Infinity
1.8216882,-0.3019687,9.685743,-1.9973709E-4,-5.9921126E-4,-0.001298291,40.0,1.7796401,-0.32800564,9.638158,0.042048167,0.026036944,0.047584757,0.011861905,-0.09190689,0.30428502,2017-10-30 02:27:45,-Infinity
1.8097172,-0.32351652,9.680955,8.6552737E-4,0.0015313176,-0.001298291,40.0,1.776348,-0.32890347,9.638757,0.033369187,0.0053869537,0.042197805,0.011765308,-0.09175752,0.30425605,2017-10-30 02:27:47,-Infinity
1.7642274,-0.33309332,9.767146,0.0018642128,-0.001498028,-6.657903E-5,40.0,1.7760488,-0.32755673,9.638757,-0.011821371,-0.0055365916,0.12838906,0.011820223,-0.09172332,0.3042266,2017-10-30 02:27:48,-Infinity
1.7690158,-0.32351652,9.76954,0.0018642128,6.3250074E-4,9.986854E-4,40.0,1.7760488,-0.32606035,9.6389065,-0.0070329676,0.0025438394,0.13063364,0.011897649,-0.09169887,0.30424783,2017-10-30 02:27:49,-Infinity
1.7618332,-0.3498527,9.7719345,0.0015646071,-0.0028628982,0.0020306604,40.0,1.7772459,-0.3286042,9.638607,-0.015412673,-0.02124854,0.13332711,0.011798926,-0.091798425,0.3042995,2017-10-30 02:27:50,-Infinity
1.8049288,-0.3211223,9.762358,-0.0026964506,0.0013981595,-9.986854E-5,40.0,1.7781436,-0.32920274,9.638457,0.026785132,0.00808043,0.12389994,0.011780024,-0.09184855,0.3042967,2017-10-30 02:27:51,-Infinity
1.7809868,-0.3402759,9.779117,-0.001298291,0.0010652645,-0.0027630297,40.0,1.7739538,-0.32621,9.639206,0.0070329676,-0.014065935,0.13991116,0.011831083,-0.09159888,0.30402252,2017-10-30 02:27:53,-Infinity
1.7905636,-0.35942954,9.7719345,-1.6644757E-4,3.9947417E-4,-0.0012650015,40.0,1.7657237,-0.3286042,9.640702,0.024839843,-0.030825347,0.13123219,0.011573829,-0.09123443,0.30387053,2017-10-30 02:27:54,-Infinity
1.8288708,-0.3163339,9.831789,-0.0012317119,0.0014647386,-1.9973709E-4,40.0,1.7670705,-0.32830492,9.640403,0.06180033,0.011971008,0.19138649,0.011600605,-0.09129742,0.3038126,2017-10-30 02:27:55,-Infinity
1.7809868,-0.39534256,9.743204,-0.0012317119,1.9973709E-4,6.657903E-5,40.0,1.7715596,-0.3230676,9.639804,0.009427169,-0.07227496,0.10339958,0.0119204875,-0.09143731,0.30371705,2017-10-30 02:27:57,-Infinity
1.8456303,-0.3187281,9.88925,-0.0012317119,-0.0019307918,0.002197108,40.0,1.7744027,-0.32411507,9.639206,0.0712275,0.0053869537,0.25004444,0.011933924,-0.09159149,0.30393812,2017-10-30 02:27:58,-Infinity
1.8168998,-0.3378817,9.7719345,8.6552737E-4,-0.0014647386,0.0010319749,39.0,1.7723078,-0.3254618,9.639654,0.044592008,-0.012419921,0.13227965,0.011853053,-0.09150264,0.30411622,2017-10-30 02:27:59,-Infinity
1.7450738,-0.3402759,9.7719345,-1.9973709E-4,-3.9947417E-4,0.0010319749,40.0,1.7679683,-0.32396543,9.640403,-0.022894554,-0.0163105,0.13153146,0.011862107,-0.091269925,0.30420086,2017-10-30 02:28:00,-Infinity
1.7785926,-0.3522469,9.750386,-0.0047604004,-0.0015646071,9.321064E-4,40.0,1.7645266,-0.32621,9.641002,0.014065935,-0.026036944,0.10938509,0.011715461,-0.09113237,0.3043708,2017-10-30 02:28:01,-Infinity
1.759439,-0.3450643,9.716867,5.659217E-4,0.0016311861,9.321064E-4,40.0,1.7622821,-0.32770637,9.6413,-0.0028431145,-0.017357962,0.07556699,0.011620097,-0.09104136,0.30450693,2017-10-30 02:28:03,-Infinity
1.8001404,-0.3115455,9.759963,4.993427E-4,0.0015978967,-5.659217E-4,40.0,1.7606361,-0.32770637,9.6416,0.039504327,0.01616086,0.11836334,0.011576501,-0.09096439,0.3042868,2017-10-30 02:28:04,-Infinity
1.7690158,-0.32830492,9.7240505,9.321064E-4,3.9947417E-4,-0.002197108,40.0,1.762731,-0.3298013,9.641151,0.0062847794,0.001496376,0.082899235,0.011472717,-0.091104865,0.30397686,2017-10-30 02:28:05,-Infinity
1.8288708,-0.33069912,9.719262,9.321064E-4,-0.0017310547,-6.657903E-5,40.0,1.7681179,-0.327856,9.640253,0.06075287,-0.0028431145,0.079008654,0.011650882,-0.09133932,0.30393186,2017-10-30 02:28:06,-Infinity
1.759439,-0.3498527,9.805453,-0.0012317119,-4.660532E-4,-2.330266E-4,40.0,1.7703625,-0.32770637,9.639804,-0.010923545,-0.022146367,0.16564883,0.011689602,-0.091447175,0.30391988,2017-10-30 02:28:07,-Infinity
1.8264766,-0.33069912,9.81503,0.0019640813,-0.0015313176,-2.330266E-4,40.0,1.7667712,-0.32680854,9.6405525,0.059705406,-0.0038905777,0.17447744,0.011702333,-0.09125194,0.304148,2017-10-30 02:28:09,-Infinity
1.77141,-0.3163339,9.707291,-1.9973709E-4,4.993427E-4,-6.3250074E-4,40.0,1.7646763,-0.32142156,9.641151,0.0067336923,0.005087679,0.066139825,0.011924989,-0.09107047,0.3040959,2017-10-30 02:28:10,-Infinity
1.8001404,-0.3067571,9.731233,-1.9973709E-4,0.0026298715,-0.0016977652,40.0,1.7625813,-0.32351652,9.64145,0.03755904,0.016759412,0.089782566,0.011770182,-0.09099649,0.30390164,2017-10-30 02:28:11,-Infinity
1.783381,-0.35942954,9.709685,0.0021638183,-6.657903E-4,0.0010319749,40.0,1.7618332,-0.3218705,9.6416,0.021547815,-0.03755904,0.06808511,0.011849558,-0.090932995,0.30396935,2017-10-30 02:28:13,-Infinity
1.795352,-0.37140054,9.726444,-0.0020972393,-6.657903E-4,-3.3289514E-5,40.0,1.7628807,-0.31902736,9.6416,0.03247136,-0.052373163,0.08484452,0.012002456,-0.09094256,0.3039892,2017-10-30 02:28:14,-Infinity
1.8025346,-0.35464114,9.7719345,-3.3289514E-4,-5.326322E-4,-3.3289514E-4,39.0,1.7634792,-0.32097265,9.6413,0.039055414,-0.033668462,0.13063364,0.011904302,-0.091007784,0.30380747,2017-10-30 02:28:15,-Infinity
1.7809868,-0.3163339,9.738416,-0.0024301345,-2.663161E-4,0.0011318434,39.0,1.7673697,-0.32396543,9.6405525,0.013617022,0.007631518,0.097862996,0.011789255,-0.0912507,0.30353895,2017-10-30 02:28:16,-Infinity
1.7881694,-0.3378817,9.7479925,-0.00136487,-2.663161E-4,0.0011318434,40.0,1.7648259,-0.32680854,9.641002,0.023343466,-0.011073183,0.10699089,0.011608196,-0.09116459,0.30352464,2017-10-30 02:28:17,-Infinity
1.7738042,-0.35942954,9.805453,-3.3289514E-4,4.993427E-4,-8.6552737E-4,40.0,1.7624317,-0.32576108,9.64145,0.011372458,-0.033668462,0.16400282,0.011627067,-0.09103049,0.3035517,2017-10-30 02:28:19,-Infinity
1.7761984,-0.3019687,9.776723,7.323693E-4,-5.659217E-4,-0.0019307918,40.0,1.7618332,-0.3274071,9.64145,0.01436521,0.025438393,0.1352724,0.0115598915,-0.09102155,0.30376574,2017-10-30 02:28:20,-Infinity
1.7690158,-0.35942954,9.836577,5.9921126E-4,0.0015978967,-0.0020972393,40.0,1.7622821,-0.32950202,9.6413,0.0067336923,-0.029927522,0.19527708,0.011460376,-0.09108399,0.30375168,2017-10-30 02:28:21,-Infinity
1.7857752,-0.32351652,9.783905,-2.330266E-4,-6.657903E-4,0.002130529,40.0,1.7654245,-0.33324295,9.6405525,0.020350715,0.009726444,0.14335282,0.011316433,-0.09129387,0.30362514,2017-10-30 02:28:23,-Infinity
1.7881694,-0.3378817,9.692925,-0.001298291,-0.0017310547,0.0010652645,39.0,1.766023,-0.32935238,9.6405525,0.022146367,-0.008529344,0.052373163,0.011515659,-0.091264024,0.30362096,2017-10-30 02:28:24,-Infinity
1.7738042,-0.3163339,9.740809,0.0029627667,-6.657903E-4,0.0,21.0,1.7682676,-0.3326444,9.640103,0.0055365916,0.0163105,0.10070611,0.011393103,-0.09142397,0.30361256,2017-10-30 02:28:25,-Infinity
1.7905636,-0.32830492,9.759963,-0.001298291,-0.0017310547,0.0,22.0,1.8004397,-0.34371758,9.633819,-0.009876082,0.015412673,0.1261445,0.011339353,-0.09318265,0.3034515,2017-10-30 02:28:27,-Infinity
1.7857752,-0.39055416,9.764751,8.2877575E-4,0.002528405,-3.4621094E-6,39.0,1.7937059,-0.34192193,9.6350155,-0.007930793,-0.048632223,0.1297358,0.011322887,-0.092828795,0.3034409,2017-10-30 02:28:28,-Infinity
1.7618332,-0.3450643,9.76954,-2.482066E-4,0.0025228125,-1.5446334E-5,39.0,1.7871219,-0.33892918,9.636363,-0.025288755,-0.006135142,0.13317747,0.011356589,-0.092455044,0.30332652,2017-10-30 02:28:29,-Infinity
1.8097172,-0.3426701,9.76954,-3.3289514E-4,-0.001098554,0.0011318434,40.0,1.7830818,-0.33444005,9.63726,0.026635494,-0.008230069,0.13227965,0.011496741,-0.092186615,0.3031967,2017-10-30 02:28:30,-Infinity
1.759439,-0.3498527,9.726444,-0.0013981595,-3.3289514E-5,-9.986854E-4,39.0,1.7838299,-0.3350386,9.637111,-0.02439093,-0.014814123,0.08933365,0.0114773875,-0.09223336,0.3031719,2017-10-30 02:28:31,-Infinity
1.7785926,-0.3402759,9.76954,-0.0013315806,-0.0016977652,-1.9973709E-4,39.0,1.7826328,-0.3338415,9.63741,-0.004040215,-0.006434417,0.13213001,0.011515854,-0.09215617,0.30315432,2017-10-30 02:28:33,-Infinity
1.7881694,-0.33309332,9.79827,-2.663161E-4,0.0025632926,-1.9973709E-4,40.0,1.7764976,-0.33114803,9.638607,0.011671733,-0.0019452889,0.15966332,0.011554579,-0.09181234,0.30318984,2017-10-30 02:28:34,-Infinity
1.7690158,-0.36182374,9.714474,-2.9960563E-4,-0.0017976337,8.322378E-4,25.0,1.7721581,-0.3302502,9.639505,-0.0031423897,-0.031573534,0.07496844,0.01152742,-0.091582924,0.3031868,2017-10-30 02:28:35,-Infinity
1.7809868,-0.3474585,9.7958765,-2.9960563E-4,-7.323693E-4,-0.0023635554,17.0,1.77141,-0.32965165,9.639654,0.009576807,-0.017806875,0.15622166,0.011530133,-0.09153971,0.3030294,2017-10-30 02:28:36,-Infinity
1.7761984,-0.3522469,9.822212,-0.00135475,0.0014026869,-2.2290659E-4,19.0,1.769764,-0.3326444,9.639804,0.006434417,-0.019602526,0.18240824,0.011345059,-0.09150916,0.30285743,2017-10-30 02:28:37,-Infinity
1.8001404,-0.3354875,9.7240505,0.0018477011,-7.2464615E-4,8.490158E-4,19.0,1.7706618,-0.32950202,9.639804,0.029478608,-0.005985504,0.08424597,0.011484422,-0.0915031,0.30261275,2017-10-30 02:28:39,-Infinity
1.7857752,-0.3067571,9.736021,7.8749674E-4,3.4301516E-4,8.5407577E-4,22.0,1.7702129,-0.3314473,9.639804,0.015562311,0.024690205,0.096216984,0.011384056,-0.09151068,0.30261496,2017-10-30 02:28:40,-Infinity
1.8025346,-0.3019687,9.702502,-0.0013981595,-0.001498028,-1.6644757E-4,22.0,1.7745523,-0.33369187,9.6389065,0.027982233,0.03172317,0.06359598,0.01133495,-0.09176421,0.30252442,2017-10-30 02:28:41,-Infinity
1.7666216,-0.35464114,9.759963,-3.3289514E-4,-0.001498028,-1.6644757E-4,21.0,1.7717092,-0.33429042,9.639356,-0.005087679,-0.020350715,0.12060791,0.011260991,-0.091634244,0.30254444,2017-10-30 02:28:42,-Infinity
1.8097172,-0.3522469,9.733627,1.9973709E-4,-0.0013981595,-0.0011984225,22.0,1.7652749,-0.3302502,9.640702,0.04444237,-0.021996727,0.09292495,0.0113479905,-0.09125398,0.30242094,2017-10-30 02:28:43,-Infinity
1.7857752,-0.3211223,9.822212,0.002330266,7.323693E-4,9.321064E-4,23.0,1.7655741,-0.32770637,9.640702,0.020201078,0.006584055,0.18151042,0.01147005,-0.091229066,0.30240247,2017-10-30 02:28:45,-Infinity
1.7809868,-0.3187281,9.779117,8.9881686E-4,-0.0039947415,6.657903E-5,23.0,1.7676691,-0.32127193,9.6405525,0.013317747,0.0025438394,0.13856442,0.011824095,-0.09123364,0.3024436,2017-10-30 02:28:46,-Infinity
1.7977462,-0.3019687,9.803059,8.9881686E-4,-7.9894834E-4,6.657903E-5,23.0,1.7726071,-0.3242647,9.639654,0.025139118,0.022296004,0.16340427,0.011761656,-0.09151901,0.30249837,2017-10-30 02:28:47,-Infinity
1.8001404,-0.3211223,9.733627,-4.660532E-4,0.0020972393,3.3289514E-5,21.0,1.7736546,-0.32650927,9.639356,0.026485857,0.0053869537,0.09427169,0.011665324,-0.09160544,0.30249032,2017-10-30 02:28:48,-Infinity
1.8001404,-0.3163339,9.755175,-0.0036618465,-3.3289514E-5,0.001098554,21.0,1.7658734,-0.32770637,9.640702,0.034267012,0.011372458,0.11447277,0.011485115,-0.09124488,0.3024815,2017-10-30 02:28:49,-Infinity
1.8336592,-0.32830492,9.736021,-0.0025632926,0.0018975022,-0.0024634239,21.0,1.7634792,-0.32935238,9.641151,0.070180036,0.0010474633,0.09487024,0.011336722,-0.09115532,0.30217984,2017-10-30 02:28:51,-Infinity
1.7785926,-0.3378817,9.7863,-4.3276369E-4,-2.330266E-4,7.323693E-4,22.0,1.7679683,-0.3321955,9.640103,0.01062427,-0.005686229,0.14619595,0.011241693,-0.09142274,0.301922,2017-10-30 02:28:52,-Infinity
1.807323,-0.3426701,9.767146,-0.0014647386,7.9894834E-4,3.3289514E-5,22.0,1.7679683,-0.33414078,9.640103,0.03935469,-0.008529344,0.12704232,0.011130997,-0.091456845,0.30173722,2017-10-30 02:28:53,-Infinity
1.7809868,-0.3426701,9.743204,-2.330266E-4,-5.9921126E-4,-8.9881686E-4,22.0,1.7678187,-0.3321955,9.640253,0.01316811,-0.0104746325,0.10295067,0.011224976,-0.091420636,0.30175504,2017-10-30 02:28:55,-Infinity
1.7881694,-0.3426701,9.740809,8.322378E-4,4.660532E-4,0.0012317119,21.0,1.7705121,-0.33249477,9.639654,0.017657237,-0.010175358,0.10115502,0.011258137,-0.091555506,0.301779,2017-10-30 02:28:56,-Infinity
1.7977462,-0.3067571,9.716867,-0.0021638183,0.0015646071,0.001098554,21.0,1.769764,-0.3274071,9.639954,0.027982233,0.02064999,0.07691373,0.011492416,-0.09143932,0.30177626,2017-10-30 02:28:57,-Infinity
1.77141,-0.35703534,9.736021,0.0010319749,4.993427E-4,0.0032290828,22.0,1.7688662,-0.32815528,9.640103,0.0025438394,-0.028880058,0.09591771,0.011446442,-0.09140967,0.30180869,2017-10-30 02:28:58,-Infinity
1.7690158,-0.33309332,9.829395,0.002110555,-0.0016250609,0.0011118697,29.0,1.7211318,-0.36317047,9.647585,0.047884032,0.03007716,0.1818097,0.009022258,-0.08960186,0.30214188,2017-10-30 02:28:59,-Infinity
1.7929578,-0.33309332,9.76954,-3.1691616E-5,-0.0016303872,0.0011001518,40.0,1.7351977,-0.3506009,9.645491,0.057760116,0.0175076,0.124049574,0.009855945,-0.090095475,0.30220303,2017-10-30 02:29:01,-Infinity
1.8025346,-0.32351652,9.733627,0.0010234528,4.9534795E-4,0.0010897655,40.0,1.7464205,-0.34132338,9.643845,0.056114104,0.017806875,0.089782566,0.010487184,-0.09050004,0.30221334,2017-10-30 02:29:02,-Infinity
1.8025346,-0.35464114,9.733627,0.002017877,-6.03206E-4,-0.0011118697,40.0,1.7527053,-0.33473933,9.6427965,0.049829323,-0.0199018,0.09083003,0.010905114,-0.09071371,0.30219564,2017-10-30 02:29:03,-Infinity
1.8097172,-0.36421794,9.755175,7.9894834E-4,4.660532E-4,0.002330266,40.0,1.7591397,-0.33294368,9.641749,0.05057751,-0.03127426,0.11342531,0.01110415,-0.09100023,0.30230024,2017-10-30 02:29:04,-Infinity
1.8049288,-0.33069912,9.738416,-2.330266E-4,-0.002530003,-2.9960563E-4,40.0,1.7646763,-0.3314473,9.640852,0.040252518,7.48188E-4,0.09756372,0.0112673035,-0.091245726,0.30231217,2017-10-30 02:29:05,-Infinity
1.8264766,-0.32351652,9.743204,-2.330266E-4,6.657903E-4,-2.9960563E-4,40.0,1.764377,-0.33039984,9.640852,0.062099606,0.0068833297,0.10235212,0.0112983445,-0.09121998,0.30215004,2017-10-30 02:29:07,-Infinity
1.807323,-0.3498527,9.721656,0.0016311861,0.0041944785,-0.0020639498,40.0,1.7637784,-0.3266589,9.641151,0.043544542,-0.023193829,0.080505036,0.011448691,-0.091133535,0.3019512,2017-10-30 02:29:08,-Infinity
1.7977462,-0.32591072,9.733627,-4.993427E-4,9.986854E-4,0.0011318434,40.0,1.7619828,-0.33129767,9.6413,0.035763387,0.0053869537,0.0923264,0.011197042,-0.09111442,0.3019671,2017-10-30 02:29:09,-Infinity
1.807323,-0.3091513,9.740809,-0.002530003,-0.0027630297,0.0013981595,40.0,1.7657237,-0.3326444,9.6405525,0.041599255,0.023493104,0.100257196,0.011201247,-0.091322094,0.3020753,2017-10-30 02:29:11,-Infinity
1.7881694,-0.3402759,9.812635,-0.0014647386,-6.3250074E-4,-7.323693E-4,40.0,1.7688662,-0.33414078,9.639954,0.019303251,-0.006135142,0.1726818,0.0111909425,-0.09149854,0.3022233,2017-10-30 02:29:12,-Infinity
1.819294,-0.3522469,9.788693,-2.330266E-4,0.0017976337,-0.001098554,40.0,1.7685668,-0.3309984,9.640103,0.050727148,-0.02124854,0.14859015,0.0113372365,-0.091432765,0.30216947,2017-10-30 02:29:13,-Infinity
1.8025346,-0.3474585,9.690532,-2.330266E-4,-3.3289514E-4,0.0010319749,40.0,1.7696143,-0.32815528,9.639954,0.032920275,-0.019303251,0.05057751,0.011477561,-0.09143983,0.3020127,2017-10-30 02:29:14,-Infinity
1.8168998,-0.3354875,9.762358,6.9907977E-4,-6.3250074E-4,1.9973709E-4,40.0,1.7723078,-0.32935238,9.639505,0.044592008,-0.006135142,0.122852474,0.011461398,-0.091591015,0.30201492,2017-10-30 02:29:15,-Infinity
1.7977462,-0.36421794,9.764751,-0.0013981595,7.656588E-4,0.0020639498,40.0,1.7766473,-0.32965165,9.638607,0.021098902,-0.034566287,0.1261445,0.011513575,-0.0918148,0.30203304,2017-10-30 02:29:17,-Infinity
1.7498622,-0.3378817,9.800665,-0.0013981595,7.656588E-4,-6.657903E-5,40.0,1.7718589,-0.33010057,9.639505,-0.021996727,-0.0077811554,0.16115971,0.011426462,-0.09157927,0.3020942,2017-10-30 02:29:18,-Infinity
1.8121114,-0.3426701,9.7958765,7.9894834E-4,-4.993427E-4,6.3250074E-4,40.0,1.7721581,-0.32875383,9.639505,0.03995324,-0.013916298,0.1563713,0.011482201,-0.091574445,0.30197892,2017-10-30 02:29:19,-Infinity
1.8432361,-0.32351652,9.743204,7.9894834E-4,-4.993427E-4,6.3250074E-4,40.0,1.77141,-0.3290531,9.639654,0.07182605,0.0055365916,0.10354923,0.011440398,-0.091546685,0.30176398,2017-10-30 02:29:21,-Infinity
1.8264766,-0.3426701,9.664195,-4.660532E-4,7.323693E-4,-0.0013315806,40.0,1.7717092,-0.327856,9.639654,0.054767363,-0.014814123,0.024540568,0.0114812385,-0.09154254,0.30156335,2017-10-30 02:29:22,-Infinity
1.8097172,-0.32830492,9.764751,-4.660532E-4,7.323693E-4,-2.663161E-4,40.0,1.7688662,-0.33039984,9.640103,0.040851068,0.0020949265,0.124648124,0.011291921,-0.09144941,0.30136546,2017-10-30 02:29:23,-Infinity
1.7881694,-0.3211223,9.671378,7.9894834E-4,-4.660532E-4,0.0014647386,40.0,1.7669208,-0.33114803,9.640403,0.02124854,0.010025719,0.030974984,0.011235593,-0.09136109,0.30148658,2017-10-30 02:29:24,-Infinity
1.8168998,-0.3522469,9.7719345,0.0018642128,5.9921126E-4,-6.657903E-4,40.0,1.7691654,-0.33084875,9.639954,0.047734395,-0.021398177,0.13198037,0.011306573,-0.09146196,0.30167928,2017-10-30 02:29:25,-Infinity
1.8001404,-0.3474585,9.707291,-4.3276369E-4,-5.659217E-4,0.0018642128,40.0,1.7679683,-0.32995093,9.640253,0.032172084,-0.0175076,0.06703765,0.01132678,-0.09139176,0.30163142,2017-10-30 02:29:27,-Infinity
1.7977462,-0.3139397,9.791088,-0.001098554,-0.0013981595,-5.326322E-4,40.0,1.7687165,-0.3333926,9.639954,0.029029695,0.019452889,0.15113398,0.011151983,-0.09148879,0.30146852,2017-10-30 02:29:28,-Infinity
1.7618332,-0.33309332,9.793482,-0.001098554,-3.3289514E-4,-0.0026631611,40.0,1.7675194,-0.32950202,9.640403,-0.005686229,-0.0035913025,0.15307927,0.01129288,-0.09137058,0.30112413,2017-10-30 02:29:29,-Infinity
1.8360534,-0.3115455,9.745598,0.0010319749,4.660532E-4,0.0020639498,40.0,1.766023,-0.32965165,9.6405525,0.0700304,0.01810615,0.1050456,0.011237751,-0.09129922,0.30087504,2017-10-30 02:29:30,-Infinity
1.8145056,-0.3498527,9.733627,-3.3289514E-5,-5.9921126E-4,9.986854E-4,40.0,1.7673697,-0.32695818,9.640403,0.047135845,-0.022894554,0.09322423,0.011397773,-0.09132849,0.300952,2017-10-30 02:29:31,-Infinity
1.7761984,-0.38337156,9.79827,4.3276369E-4,3.3289514E-4,6.9907977E-4,40.0,1.7663223,-0.3290531,9.6405525,0.009876082,-0.05431845,0.15771803,0.011298392,-0.09130581,0.30111977,2017-10-30 02:29:33,-Infinity
1.8336592,-0.3354875,9.759963,-6.3250074E-4,3.3289514E-4,6.9907977E-4,40.0,1.77141,-0.3290531,9.639654,0.062249243,-0.006434417,0.12030864,0.011364861,-0.0915585,0.30099085,2017-10-30 02:29:34,-Infinity
1.8001404,-0.32830492,9.752781,-0.00136487,0.0013981595,6.3250074E-4,40.0,1.773056,-0.32875383,9.639356,0.027084406,4.4891282E-4,0.11342531,0.0113766445,-0.09163253,0.3007681,2017-10-30 02:29:35,-Infinity
1.7642274,-0.3019687,9.692925,7.656588E-4,3.3289514E-4,-4.3276369E-4,40.0,1.7745523,-0.33054948,9.639056,-0.010324995,0.028580783,0.053869538,0.0112924585,-0.09174313,0.30052975,2017-10-30 02:29:37,-Infinity
1.7905636,-0.37858313,9.740809,-0.003495399,5.9921126E-4,3.3289514E-5,40.0,1.773056,-0.32995093,9.639356,0.0175076,-0.048632223,0.101454295,0.01129804,-0.09166047,0.30050853,2017-10-30 02:29:38,-Infinity
1.7977462,-0.3115455,9.745598,0.0010652645,-9.653959E-4,-3.3289514E-5,40.0,1.7721581,-0.32965165,9.639505,0.02558803,0.01810615,0.106093064,0.011296894,-0.09160896,0.3004724,2017-10-30 02:29:39,-Infinity
1.7785926,-0.33309332,9.791088,0.0,0.0022303974,-3.3289514E-5,40.0,1.7636288,-0.32456398,9.641151,0.014963761,-0.008529344,0.14993688,0.011411394,-0.091111764,0.300513,2017-10-30 02:29:40,-Infinity
1.7977462,-0.3450643,9.834184,-3.3289514E-4,-0.0011318434,-9.653959E-4,40.0,1.7615339,-0.3230676,9.6416,0.0362123,-0.021996727,0.1925836,0.011460609,-0.09098317,0.30060056,2017-10-30 02:29:41,-Infinity
1.8001404,-0.36421794,9.788693,0.0017976337,-0.0032623722,-9.653959E-4,40.0,1.7688662,-0.32710782,9.640103,0.03127426,-0.037110128,0.14859015,0.011410508,-0.09140454,0.3008797,2017-10-30 02:29:43,-Infinity
1.7809868,-0.32830492,9.707291,3.9947417E-4,7.656588E-4,3.9947417E-4,40.0,1.770961,-0.32800564,9.639804,0.010025719,-2.992752E-4,0.06748656,0.011410339,-0.09151867,0.3010063,2017-10-30 02:29:44,-Infinity
1.7666216,-0.35464114,9.731233,-0.0017310547,7.656588E-4,-0.002796319,40.0,1.7666216,-0.3314473,9.640403,0.0,-0.023193829,0.09083003,0.011131895,-0.09135899,0.30062404,2017-10-30 02:29:45,-Infinity
1.7498622,-0.3187281,9.788693,0.001165133,-6.3250074E-4,2.663161E-4,40.0,1.764377,-0.3286042,9.641002,-0.014514848,0.009876082,0.14769232,0.011224026,-0.09121165,0.3004873,2017-10-30 02:29:47,-Infinity
1.795352,-0.33309332,9.721656,0.0022303974,-6.3250074E-4,2.663161E-4,40.0,1.7669208,-0.32291797,9.640702,0.028431145,-0.010175358,0.08095395,0.011543551,-0.091249555,0.30051294,2017-10-30 02:29:48,-Infinity
1.8049288,-0.3378817,9.752781,0.001498028,-6.657903E-4,0.0013315806,40.0,1.7724575,-0.32606035,9.639505,0.03247136,-0.011821371,0.11327567,0.011485849,-0.09156382,0.30063203,2017-10-30 02:29:49,-Infinity
1.7977462,-0.3450643,9.7958765,-6.657903E-5,-3.6618466E-4,-0.001165133,40.0,1.7741034,-0.33204585,9.639056,0.023642741,-0.013018472,0.15682021,0.011233178,-0.091739014,0.30073842,2017-10-30 02:29:50,-Infinity
1.7929578,-0.3378817,9.755175,0.0020639498,6.9907977E-4,-9.986854E-5,40.0,1.7720085,-0.3333926,9.639356,0.020949265,-0.004489128,0.11581951,0.011131943,-0.09165895,0.30073187,2017-10-30 02:29:51,-Infinity
1.8049288,-0.3354875,9.738416,-3.3289514E-4,6.3250074E-4,-0.0011984225,40.0,1.7696143,-0.327856,9.639954,0.035314474,-0.007631518,0.098461546,0.011357084,-0.09145059,0.30065617,2017-10-30 02:29:53,-Infinity
1.8168998,-0.32351652,9.76954,7.323693E-4,6.3250074E-4,-1.3315806E-4,40.0,1.7678187,-0.32680854,9.640403,0.049081136,0.0032920274,0.12913725,0.011375224,-0.091349125,0.3005934,2017-10-30 02:29:54,-Infinity
1.8097172,-0.35464114,9.740809,-1.9973709E-4,2.330266E-4,-0.0011984225,40.0,1.7744027,-0.32845455,9.639056,0.035314474,-0.026186582,0.10175357,0.011390327,-0.091699794,0.30051777,2017-10-30 02:29:55,-Infinity
1.7785926,-0.2923919,9.673772,-2.663161E-4,9.653959E-4,1.3315806E-4,40.0,1.7761984,-0.32965165,9.638757,0.0023942017,0.037259765,0.0350152,0.011347474,-0.09181191,0.3003368,2017-10-30 02:29:57,-Infinity
1.7857752,-0.3378817,9.716867,0.0018642128,9.653959E-4,1.3315806E-4,40.0,1.7715596,-0.3254618,9.639654,0.014215573,-0.012419921,0.077213004,0.011489783,-0.09151745,0.30047283,2017-10-30 02:29:58,-Infinity
1.819294,-0.35942954,9.764751,0.0017643442,0.0017976337,0.0010652645,40.0,1.7669208,-0.3254618,9.6405525,0.052373163,-0.033967737,0.12419921,0.011428565,-0.09128377,0.30058822,2017-10-30 02:30:00,-Infinity
