ACC_X,ACC_Y,ACC_Z,GYRO_X,GYRO_Y,GYRO_Z,LIGH_1,GRAV_X,GRAV_Y,GRAV_Z,LINACC_X,LINACC_Y,LINACC_Z,ROTVEC_X,ROTVEC_Y,ROTVEC_Z,TIME,VOICE
3.2728736,4.546589,7.967903,0.86875165,0.20240983,0.414321,20.0,2.4257753,3.702633,8.750658,0.84709847,0.8439561,-0.7827543,0.23074584,0.024335623,0.6154559,2017-09-30 13:53:27,40.48524570302544
1.6424223,2.944868,9.160215,-0.25827336,0.10116097,-0.07037456,19.0,1.6027684,2.9288568,9.22067,0.039653964,0.016011223,-0.060453594,0.16931388,0.034697585,0.6366808,2017-09-30 13:53:28,55.615675784725184
1.091756,1.8267759,9.682152,-0.40314132,0.17358324,-0.13002937,21.0,1.2198458,1.8939632,9.544335,-0.12808979,-0.06718729,0.13781624,0.11488451,0.013202559,0.62970275,2017-09-30 13:53:29,43.30697877561433
1.5370775,2.0350714,9.55047,0.4224442,-0.33136302,0.048935052,21.0,1.4591163,1.7989433,9.529073,0.07796119,0.23612814,0.021398177,0.11894546,9.915065E-4,0.6318663,2017-09-30 13:53:30,41.108024229106064
1.292869,1.436521,9.548077,0.0027425233,-0.015004516,0.002063417,21.0,1.2693758,1.4258968,9.619004,0.023493104,0.01062427,-0.07092822,0.09768514,-0.004920843,0.62347394,2017-09-30 13:53:31,40.44669903837841
1.3383588,1.910573,9.768343,6.3250074E-4,0.008390555,-0.0043281694,21.0,1.4475942,1.8992004,9.5114155,-0.10923545,0.011372458,0.25692776,0.12263228,0.0036184043,0.6246365,2017-09-30 13:53:32,43.628870829362825
2.0231004,2.5785553,9.263166,0.0080930805,-0.009725864,-0.003262905,15.0,2.0606594,2.6834512,9.204359,-0.03755904,-0.104895964,0.058807578,0.17509082,0.006651568,0.62885207,2017-09-30 13:53:33,48.119359334329815
1.7477672,2.2768857,9.291897,-0.012149607,0.06271691,-0.013915815,17.0,1.8260278,2.445228,9.31958,-0.07826047,-0.1683423,-0.027682956,0.1573944,0.0074849483,0.6278083,2017-09-30 13:53:34,45.95811164214706
1.9776106,3.3039982,8.607155,0.13486753,-0.11520302,0.007389473,15.0,1.8917186,2.934244,9.164106,0.085891984,0.36975452,-0.55695117,0.17992984,0.01963088,0.61943203,2017-09-30 13:53:35,41.96682399060593
1.4293385,2.7629087,9.150639,0.010232664,0.04138872,-0.0021979068,15.0,1.3943232,2.7956793,9.295638,0.0350152,-0.032770637,-0.14499883,0.15756187,0.035013556,0.62155753,2017-09-30 13:53:36,44.66298041761863
1.2976574,2.8658595,8.990228,-0.002540123,-0.02254792,0.002063151,16.0,1.2687773,2.915988,9.276634,0.028880058,-0.050128598,-0.28640637,0.15835102,0.04412262,0.62190014,2017-09-30 13:53:37,56.22655763237377
1.328782,2.9352913,9.196129,-0.005744971,-0.008681639,-0.050134808,13.0,1.3301287,2.8960862,9.27424,-0.0013467384,0.039205052,-0.07811083,0.1594646,0.041382298,0.6236041,2017-09-30 13:53:38,50.6613182994828
1.3838485,2.9257145,9.11712,-0.054752994,0.021157749,-0.012850551,12.0,1.4769232,3.0359974,9.207052,-0.09307459,-0.11028291,-0.0899322,0.17034617,0.039374568,0.6190501,2017-09-30 13:53:39,64.98416201961066
1.292869,2.837129,9.0429,0.009175922,0.032849826,0.002063151,12.0,1.3884873,3.0062196,9.230545,-0.09561843,-0.1690905,-0.18764555,0.16630228,0.04139573,0.61691946,2017-09-30 13:53:40,66.75272092437615
1.328782,2.8323407,9.040505,-0.014260429,0.047764327,-0.010720022,13.0,1.2823943,2.9679122,9.258228,0.046387658,-0.13557167,-0.21772271,0.16128196,0.04408879,0.61587065,2017-09-30 13:53:42,72.38150245785069
1.3120226,2.873042,9.129091,-0.0046762447,-0.011884356,-0.0117852865,12.0,1.2716204,2.897433,9.282021,0.040402155,-0.02439093,-0.15292963,0.15807503,0.041910663,0.61473817,2017-09-30 13:53:43,70.20418717754194
1.2737153,2.825158,9.186552,-0.008939167,0.020077571,0.0031284152,12.0,1.2825439,2.866009,9.290251,-0.008828619,-0.040851068,-0.103698865,0.15713127,0.040413126,0.6146874,2017-09-30 13:53:44,69.73607287329398
1.1851299,2.8299465,9.260772,-0.0068152957,9.1559475E-4,-0.0011326424,12.0,1.2506711,2.830994,9.305365,-0.065541275,-0.0010474633,-0.044592008,0.15471414,0.040217064,0.61324435,2017-09-30 13:53:45,69.41891914445198
1.2042835,2.825158,9.090784,0.007016364,9.4835163E-4,-0.0011326424,12.0,1.261894,2.8335378,9.30312,-0.05761048,-0.008379706,-0.21233577,0.15520296,0.03978377,0.61288875,2017-09-30 13:53:46,70.26903362965004
1.4796166,2.4420857,9.260772,0.05708486,-0.038468298,-6.737797E-5,14.0,1.158644,2.794183,9.328408,0.32097265,-0.35209727,-0.0676362,0.15025492,0.042492464,0.6123759,2017-09-30 13:53:47,68.38262877470041
2.0087352,3.2034419,9.0716305,0.12526019,-0.327152,0.2609224,20.0,1.5547347,2.4420857,9.369558,0.4540005,0.7613561,-0.29792848,0.14731881,0.024120167,0.6588364,2017-09-30 13:53:48,70.66838113240509
2.4851813,3.0142999,8.956709,-0.4372029,1.4230844,-0.11405067,19.0,3.4142814,3.2345665,8.605209,-0.9290999,-0.22026655,0.35149872,0.245917,-0.027908549,0.6237436,2017-09-30 13:53:49,67.80918169142252
1.5011644,1.8483237,9.198523,0.04642103,-0.36335212,-0.18755391,19.0,1.2306197,1.6871641,9.581595,0.2705448,0.16115971,-0.38307226,0.1065732,0.010578191,0.66239303,2017-09-30 13:53:50,65.26366611607276
0.6440403,1.6400281,10.024523,-0.18153039,0.4142611,-6.737797E-5,18.0,1.0812813,1.9396026,9.551817,-0.43724108,-0.2995745,0.4727052,0.11116474,0.025118142,0.6631468,2017-09-30 13:53:51,69.27958340554815
1.1827357,1.7405846,9.591172,-0.045166947,-0.009733055,-0.009655024,19.0,1.183783,1.7509097,9.576058,-0.0010474633,-0.010324995,0.015113398,0.107420444,0.014577692,0.66246027,2017-09-30 13:53:52,67.26379544325304
1.8171991,1.9847932,9.093178,-0.09414301,-0.17063965,-0.04480875,21.0,1.7392379,1.8451813,9.472959,0.07796119,0.13961188,-0.37978023,0.13034846,-0.003905762,0.65813714,2017-09-30 13:53:53,71.16090540212204
1.496376,1.7908629,9.284714,-0.07177193,0.040281642,0.005258678,20.0,1.5264533,1.819294,9.514708,-0.03007716,-0.028431145,-0.229993,0.12196848,0.002909528,0.65592295,2017-09-30 13:53:54,59.48712988222422
1.4173675,1.8459295,9.445126,0.019835757,0.0019419771,0.005258678,19.0,1.460463,1.8885763,9.511565,-0.04309563,-0.042646717,-0.0664391,0.122408666,0.007768821,0.65562326,2017-09-30 13:53:55,62.1521898454764
1.42455,1.8435353,9.279925,-0.020650417,-0.010829212,-0.0021981732,19.0,1.4413095,1.8866309,9.514857,-0.016759412,-0.04309563,-0.23493104,0.12167872,0.008356933,0.655158,2017-09-30 13:53:56,63.79806342113704
1.4389153,1.8243817,9.368511,-0.00787257,-0.004426706,-0.0032634377,19.0,1.4469956,1.8924668,9.512762,-0.00808043,-0.06808511,-0.14425065,0.122106075,0.008262146,0.6546975,2017-09-30 13:53:57,56.35379146992116
1.4173675,1.8100165,9.43076,0.0070395335,-0.0012279836,-0.0011329087,19.0,1.4498388,1.881244,9.514558,-0.03247136,-0.0712275,-0.08379706,0.121768326,0.0077898065,0.65483063,2017-09-30 13:53:58,58.84858125773335
0.89303726,1.6304513,9.749189,-0.2401074,0.3684297,0.046803992,20.0,1.2327147,1.6626234,9.585635,-0.33967736,-0.032172084,0.16355391,0.10574478,0.009022929,0.65798146,2017-09-30 13:53:59,69.63177402939321
0.8331822,1.3670892,9.469068,0.016618658,0.0019835224,-0.022438196,20.0,0.89603,1.3931261,9.665691,-0.06284779,-0.026036944,-0.19662382,0.0836055,0.01397755,0.6698126,2017-09-30 13:54:00,67.57219040094773
0.7757214,1.4532804,9.500193,-0.006825149,0.020108996,-0.010720288,20.0,0.8575731,1.421258,9.665093,-0.08185177,0.032022446,-0.16490065,0.083403975,0.01612182,0.66730326,2017-09-30 13:54:01,71.04858152219231
0.81402856,1.472434,9.595961,-0.0025640915,0.0073258234,-0.0032634377,19.0,0.81791914,1.479467,9.659706,-0.0038905777,-0.0070329676,-0.06374562,0.08427328,0.019575264,0.66679305,2017-09-30 13:54:02,69.91861282627816
0.8475474,1.4652514,9.516952,0.010220147,-0.009720538,-0.004328702,20.0,0.85682493,1.4456489,9.661502,-0.009277532,0.019602526,-0.14454992,0.08433728,0.0168747,0.6662777,2017-09-30 13:54:03,66.85953533619293
0.830788,1.5011644,9.55047,-0.004696751,-0.0043880907,0.003128149,19.0,0.88869774,1.5007155,9.650279,-0.057909753,4.4891282E-4,-0.09980828,0.087539084,0.017560728,0.6661683,2017-09-30 13:54:04,68.58725919474887
1.3670892,1.8626889,9.3182335,0.074132815,-0.13754614,0.003128149,19.0,1.1498153,1.8170495,9.567828,0.2172738,0.04563947,-0.24959552,0.10881647,0.018110141,0.66211647,2017-09-30 13:54:05,70.83126397548267
1.1851299,1.8507179,9.564836,-0.007892544,0.019047728,-0.0075244955,19.0,1.261894,1.8587984,9.545682,-0.07676409,-0.00808043,0.019153614,0.11432937,0.015130369,0.660937,2017-09-30 13:54:06,69.11519826502038
1.2473791,1.8052281,9.445126,0.013411679,0.008396947,0.0020628846,19.0,1.2445359,1.8408419,9.551518,0.0028431145,-0.03561375,-0.10639234,0.11303674,0.015128959,0.6606898,2017-09-30 13:54:07,65.52007762218676
3.2824504,3.1890767,7.7572136,0.15508732,-0.75112754,0.13415568,19.0,2.9517515,3.1054292,8.821136,0.33069912,0.08364742,-1.0639234,0.22379388,-0.012672897,0.6304031,2017-09-30 13:54:08,65.39830838207966
1.3335704,1.7884687,9.52174,-0.010021475,-0.040610276,-0.03522137,20.0,1.349432,1.7702129,9.55062,-0.015861586,0.018255789,-0.028880058,0.11397903,0.007797436,0.65481144,2017-09-30 13:54:09,68.88921667195662
1.2066777,1.9895816,9.813833,-0.22413003,0.45258823,0.06491322,18.0,1.5857097,2.1704934,9.43091,-0.37903205,-0.18091187,0.38292262,0.13789958,0.011585981,0.6491373,2017-09-30 13:54:10,53.592684687710054
1.3311762,1.721431,9.404425,-0.07392083,-0.03744724,-0.0043289685,20.0,1.314267,1.8722657,9.536105,0.01690905,-0.15083471,-0.1316811,0.11683078,0.012012392,0.65070003,2017-09-30 13:54:11,62.22485591545901
1.13964,1.3982137,9.368511,-0.093078814,0.03176219,-0.07250589,21.0,1.2782044,1.5882535,9.592369,-0.13856442,-0.19003975,-0.22385786,0.10445359,0.0038254866,0.6515066,2017-09-30 13:54:12,64.93127026122363
1.3000516,1.685518,9.382876,0.023054186,-0.01727779,0.006323676,20.0,1.3211504,1.7061679,9.566182,-0.021098902,-0.02064999,-0.18330607,0.11054576,0.006033675,0.650415,2017-09-30 13:54:13,71.72557161540392
2.066196,2.2098482,9.193734,0.03371136,0.0050839745,0.014845525,20.0,2.1767783,2.2456117,9.29444,-0.11058219,-0.035763387,-0.10070611,0.16136795,-0.00833714,0.6493967,2017-09-30 13:54:15,72.77460190099139
1.7932571,2.0638018,9.220071,-0.037664287,0.008285627,-0.0011334413,19.0,1.8439842,2.1794717,9.381829,-0.050727148,-0.11566987,-0.16175826,0.14715113,0.0019263895,0.64871067,2017-09-30 13:54:16,69.10117265965555
1.7357962,2.1045034,9.275137,-0.006772685,-0.0055609467,0.0031276164,19.0,1.7631799,2.1425111,9.405771,-0.027383681,-0.038007952,-0.13063364,0.14290151,0.0036221799,0.64807683,2017-09-30 13:54:17,50.159743127179944
1.7262194,2.135628,9.234436,0.0049380334,0.008301339,-0.0021987057,19.0,1.6982372,2.180519,9.409063,0.027982233,-0.044891283,-0.17462708,0.14218265,0.0073193666,0.6475319,2017-09-30 13:54:18,51.03406261273367
1.6136919,2.1092918,9.303867,-0.009974604,0.013625797,9.970875E-4,19.0,1.690456,2.1371243,9.420436,-0.07676409,-0.027832596,-0.11656769,0.14019331,0.0060634185,0.64723986,2017-09-30 13:54:19,69.76594759304332
1.5849615,2.0709844,9.387665,-0.0025204157,0.0040434776,-0.0011334413,19.0,1.6819267,2.1363761,9.422082,-0.09696517,-0.06539164,-0.03441665,0.1398714,0.0063272594,0.6470316,2017-09-30 13:54:20,65.07651957800262
1.6160861,2.0398598,9.188946,0.01132456,-0.012993829,0.0031276164,19.0,1.6241666,2.124854,9.434801,-0.00808043,-0.08499416,-0.24585459,0.13743834,0.008157738,0.6470539,2017-09-30 13:54:21,71.93748591415914
2.0015526,3.0789435,8.1163435,0.91253984,-0.34429425,0.32483748,24.0,1.7262194,2.7766755,9.245509,0.2753332,0.30226797,-1.1291654,0.16679575,0.028092984,0.6521701,2017-09-30 13:54:22,64.2645104332301
1.8818425,2.8658595,9.514558,0.22224292,-0.26332298,0.056390837,20.0,1.4686931,2.2146366,9.4395895,0.41314942,0.6512229,0.07496844,0.1346008,0.024310596,0.6855263,2017-09-30 13:54:23,68.21517469464489
1.7956513,1.661576,9.176975,0.103999905,-0.03749012,-0.2152516,18.0,1.6704046,1.5075989,9.544934,0.12524667,0.1539771,-0.36795887,0.11503431,-0.010407338,0.67439705,2017-09-30 13:54:24,68.51174604405486
1.6256629,1.9776106,9.370906,-0.015317704,-0.040669933,0.012714996,19.0,1.6276083,2.024148,9.456348,-0.0019452889,-0.046537295,-0.08544307,0.13353726,0.005095967,0.6500034,2017-09-30 13:54:25,76.53905099422703
1.5011644,1.9201498,9.28232,0.007052317,0.007268033,-0.0075250277,19.0,1.5547347,1.963395,9.481338,-0.053570263,-0.043245267,-0.19901802,0.1286335,0.0058515957,0.6503466,2017-09-30 13:54:26,73.1628718230925
1.0486604,1.8339585,9.497798,-0.03130546,0.038176414,-6.817692E-5,19.0,1.1200374,1.788319,9.576807,-0.071377136,0.04563947,-0.079008654,0.106836826,0.01730419,0.6555957,2017-09-30 13:54:27,64.6910444878511
0.94092125,1.6783354,9.794679,0.037947915,-0.01617391,-0.0011334413,18.0,0.9591771,1.6313492,9.622296,-0.018255789,0.046986207,0.17238252,0.09507843,0.018937916,0.66235965,2017-09-30 13:54:28,71.15598069582505
0.8762778,1.6663644,9.557653,-0.0035856802,0.011500062,-0.0064597633,18.0,0.89932203,1.7001824,9.616161,-0.023044191,-0.0338181,-0.058508303,0.09573504,0.02338174,0.6607401,2017-09-30 13:54:29,64.10752869264189
1.0103531,1.7956513,9.097966,0.36394253,-0.4114336,-0.008590292,23.0,0.8195652,1.7145476,9.62065,0.19078794,0.081103586,-0.52268416,0.09249085,0.030388694,0.6880694,2017-09-30 13:54:30,71.31356897441034
1.0606314,2.030283,9.306262,-0.006766826,-0.04179192,-0.027765052,25.0,0.8572738,2.1151276,9.537302,0.2033575,-0.08484452,-0.23104046,0.10989645,0.040653244,0.66921026,2017-09-30 13:54:31,69.37830215466298
1.0031705,2.4157495,9.392453,0.0028213528,-0.0034445326,-0.03202611,18.0,0.92401224,2.3162405,9.484181,0.07915829,0.09950901,-0.09172785,0.119603276,0.046168298,0.67455,2017-09-30 13:54:32,66.34056723615471
0.91697925,2.147599,9.583989,-0.007831291,0.019991284,0.05426031,21.0,0.8536825,2.228852,9.511714,0.063296705,-0.08125322,0.07227496,0.113238126,0.047042713,0.6833723,2017-09-30 13:54:33,64.92140797655631
1.352724,0.46926352,9.959879,0.12638643,-0.014086258,-0.063984044,24.0,1.3977649,0.37948096,9.69906,-0.04504092,0.089782566,0.26081836,0.0655473,-0.034466162,0.73022026,2017-09-30 13:54:34,65.52562045608522
3.040636,1.9488802,8.707711,-0.033402164,-0.46682552,-0.045874547,22.0,2.907309,2.0409074,9.140614,0.13332711,-0.09202713,-0.4329016,0.18018045,-0.03860665,0.66829413,2017-09-30 13:54:35,55.92055814431273
1.8171991,1.8052281,9.313444,0.015597069,-0.0055601476,0.0063234097,20.0,1.8267759,1.776348,9.469816,-0.009576807,0.028880058,-0.1563713,0.1309354,-0.005438246,0.6814602,2017-09-30 13:54:36,60.81178888732747
1.7405846,1.7118542,9.32781,-0.0067633637,-0.002384328,0.007388408,20.0,1.7962499,1.7598879,9.478644,-0.05566519,-0.048033673,-0.15083471,0.12920763,-0.004933198,0.68132323,2017-09-30 13:54:37,73.29542331879398
1.7262194,1.7238252,9.346964,-0.0078099864,0.001839978,0.0020620856,20.0,1.7401357,1.7877204,9.483882,-0.013916298,-0.063895255,-0.13691841,0.12825698,-0.0017630327,0.6819119,2017-09-30 13:54:38,71.23714071809003
1.6927006,1.7381904,9.404425,-0.013132846,-0.0056237974,-0.0011337077,20.0,1.7446249,1.7390883,9.492112,-0.05192425,-8.9782564E-4,-0.087687634,0.12656668,-0.0036646314,0.681963,2017-09-30 13:54:39,74.97815145534653
1.6879122,1.7046716,9.284714,-0.011000187,-0.0013667343,-6.844324E-5,20.0,1.7720085,1.7548002,9.484181,-0.084096335,-0.050128598,-0.19946693,0.12814529,-0.0042001493,0.6814664,2017-09-30 13:54:40,75.4280006549096
1.7788919,1.7501614,9.294291,0.0028466529,0.006093046,-0.005394765,20.0,1.774702,1.7687165,9.481039,0.004189853,-0.018555064,-0.18674773,0.12876837,-0.0038482556,0.68117124,2017-09-30 13:54:41,69.96633048072691
1.7286136,1.7597382,9.330204,-0.0014125407,0.010350109,-0.002198972,20.0,1.7548002,1.7896658,9.480889,-0.026186582,-0.029927522,-0.15068507,0.12885109,-0.0022822078,0.6816142,2017-09-30 13:54:42,66.02851850737926
1.2761095,1.9776106,9.31105,0.045454033,0.068949774,0.00312735,18.0,1.3220483,1.9997569,9.509021,-0.045938745,-0.022146367,-0.19797055,0.12103259,0.02284497,0.691351,2017-09-30 13:54:43,66.94080663891076
1.30484,2.3630772,9.358934,0.011365573,0.013556022,0.015910523,19.0,1.3988123,2.3786395,9.41026,-0.093972415,-0.015562311,-0.051325697,0.1380959,0.033683695,0.689663,2017-09-30 13:54:44,64.90269765119287
1.5298948,1.8148049,9.41879,-0.24004269,-0.10467661,0.023367373,20.0,1.4900913,2.0413563,9.475352,0.0398036,-0.22655134,-0.056563016,0.12870817,0.018033948,0.690087,2017-09-30 13:54:45,62.878860698279844
1.6400281,1.412579,9.533711,-0.023793213,0.044458546,-0.060788516,21.0,1.7329531,1.4203602,9.547178,-0.09292495,-0.0077811554,-0.0134673845,0.11401593,-0.015083186,0.6790796,2017-09-30 13:54:46,67.38064234495852
1.7310078,1.5370775,9.414001,0.015621037,-0.016260462,-0.0011337077,21.0,1.7546506,1.567005,9.520244,-0.023642741,-0.029927522,-0.1062427,0.120306276,-0.011329547,0.6751489,2017-09-30 13:54:47,68.3609860591494
1.7932571,1.5490485,9.260772,-0.0024919198,-0.007731423,-0.0011337077,20.0,1.8411411,1.6059108,9.497349,-0.047884032,-0.05686229,-0.23657705,0.124865495,-0.013199013,0.67495066,2017-09-30 13:54:48,63.199322826455635
1.8004397,1.5801731,9.409213,0.013485981,-0.011990616,-0.005394765,20.0,1.8168998,1.6213235,9.499444,-0.016460137,-0.041150343,-0.09023148,0.12458923,-0.011759572,0.6749045,2017-09-30 13:54:49,70.4688751307438
1.7812861,1.6352397,9.325416,7.0174295E-4,-0.006662164,-0.002198972,20.0,1.8157027,1.6732477,9.490616,-0.03441665,-0.038007952,-0.16519992,0.12653337,-0.009887047,0.6748217,2017-09-30 13:54:51,63.09178259766937
1.7525556,1.5825673,9.387665,-0.0056887786,0.0029230856,0.00312735,20.0,1.8056769,1.6059108,9.504232,-0.05312135,-0.023343466,-0.11656769,0.12360881,-0.011810591,0.67537147,2017-09-30 13:54:52,70.20698057817222
1.769315,1.6089035,9.437943,0.012418587,0.0029270803,-6.844324E-5,21.0,1.806874,1.5945383,9.505878,-0.03755904,0.01436521,-0.067935474,0.123231806,-0.0121014435,0.67629534,2017-09-30 13:54:53,66.59214741108535
1.7980455,3.6846764,8.013393,0.0038986015,-0.114256,0.065977685,21.0,1.6506524,3.6156936,8.964938,0.14739305,0.06898294,-0.95154554,0.1940516,0.0724981,0.69207054,2017-09-30 13:54:54,73.81208873380221
2.9640217,4.220978,8.190564,0.17966351,0.038083736,0.03615028,23.0,2.9297547,4.1666594,8.379855,0.034267012,0.05431845,-0.18929157,0.2648885,0.050731435,0.69215125,2017-09-30 13:54:55,77.69244301722149
0.60812724,1.2904748,9.7803135,0.24358097,0.22024103,0.25452948,19.0,0.96561146,1.5705963,9.631723,-0.35748425,-0.2801216,0.14859015,0.092707396,0.01797222,0.6732804,2017-09-30 13:54:56,75.24098454603353
1.3263878,2.078167,9.291897,0.08911363,0.037023265,-0.029896114,18.0,1.3552678,1.9999067,9.504382,-0.028880058,0.07826047,-0.2124854,0.12299882,0.016788881,0.66261977,2017-09-30 13:54:57,73.5073545285629
1.1611878,2.4899697,9.26556,-0.29225424,0.60161954,-0.13003097,24.0,1.5216649,2.6134207,9.328558,-0.360477,-0.123451024,-0.06299743,0.15254003,0.03318172,0.6670887,2017-09-30 13:54:58,70.4909738381222
0.9768343,2.2218192,9.334992,0.0017710021,0.0018516959,-0.0053950315,24.0,0.9600749,2.2550387,9.495404,0.016759412,-0.03321955,-0.1604115,0.119289845,0.04047569,0.6612987,2017-09-30 13:54:59,54.47041420222072
0.93373865,2.2002714,9.370906,0.008159925,-0.0056000953,0.004192348,24.0,0.97384155,2.2704513,9.490316,-0.040102877,-0.070180036,-0.11941081,0.12039384,0.040402345,0.66070205,2017-09-30 13:55:00,53.693041659957
0.93613285,2.2577322,9.217676,-0.013146162,0.026359702,0.0031270836,24.0,0.9591771,2.323872,9.478794,-0.023044191,-0.066139825,-0.26111764,0.1219621,0.042847678,0.6607583,2017-09-30 13:55:01,72.56137121121068
1.1180922,2.3630772,9.248801,0.065684736,-0.10573602,0.032954488,24.0,1.0675147,2.346617,9.461586,0.05057751,0.016460137,-0.21278468,0.12658058,0.03955996,0.6608942,2017-09-30 13:55:02,72.16011816355764
1.1324574,2.4301147,9.291897,-0.009949037,0.0018556906,-0.006460296,24.0,1.1562498,2.4197898,9.432706,-0.023792379,0.010324995,-0.14080898,0.13251404,0.03875695,0.6606973,2017-09-30 13:55:03,66.17285501301981
1.0007763,2.207454,9.28232,-0.07385771,0.050844006,-0.001133974,24.0,1.0597335,2.3380876,9.464579,-0.058957215,-0.13063364,-0.1822586,0.12591714,0.03975244,0.66205066,2017-09-30 13:55:04,73.26115906937417
1.1133038,2.3989902,9.114726,0.041186586,-0.008802813,-0.011786618,24.0,1.0254666,2.305317,9.4764,0.08783727,0.09367314,-0.3616741,0.123416096,0.04001639,0.6627881,2017-09-30 13:55:05,53.13799030181204
0.9504981,2.1571758,9.437943,0.042251848,-0.050348125,0.0020618192,25.0,1.018284,2.232144,9.494656,-0.06778584,-0.07496844,-0.056712653,0.12032354,0.03772685,0.6629116,2017-09-30 13:55:06,71.58324572551975
1.4437037,2.837129,9.155427,-0.44563368,0.3714854,-0.095942505,23.0,1.8547581,3.3439517,9.030331,-0.4110545,-0.5068226,0.12509704,0.1931503,0.04767564,0.6668672,2017-09-30 13:55:07,65.66856190359323
0.91697925,2.111686,9.411607,-0.022720492,-0.0034935346,-0.0021992384,25.0,0.9717466,2.150891,9.518298,-0.054767363,-0.039205052,-0.106691614,0.115210935,0.037756845,0.6700923,2017-09-30 13:55:08,71.21913373596587
0.89303726,2.054225,9.3421755,-0.026981283,0.00609278,-0.0053950315,26.0,0.9780314,2.110489,9.526678,-0.08499416,-0.05626374,-0.18450317,0.11397796,0.035775416,0.6680644,2017-09-30 13:55:09,67.90481786025279
0.92416185,2.0638018,9.414001,-0.0035444011,0.009286709,-0.009656356,26.0,0.93837744,2.0771196,9.538051,-0.014215573,-0.013317747,-0.124049574,0.11136001,0.035954818,0.66716605,2017-09-30 13:55:10,73.39633979354761
0.90500826,2.042254,9.390059,-0.0035438684,0.0018287927,0.002061553,26.0,0.9394249,2.1266496,9.526978,-0.03441665,-0.08439561,-0.13691841,0.11332681,0.037573323,0.6666272,2017-09-30 13:55:11,71.31704423541055
1.067814,2.135628,9.548077,-0.0035444011,-0.02480202,-0.007525827,26.0,1.041777,2.1495442,9.511116,0.026036944,-0.013916298,0.03696049,0.117839366,0.03427303,0.6650538,2017-09-30 13:55:12,67.22017724412702
1.1252748,2.1164744,9.284714,-0.065325744,0.14030625,-0.0032647692,18.0,1.2909236,2.0991163,9.491813,-0.16564883,0.017357962,-0.20709845,0.124740124,0.022021208,0.65860385,2017-09-30 13:55:13,68.70385571376109
0.7086837,1.127669,9.382876,-0.0024639566,-0.083421126,0.016975256,19.0,0.7067384,1.4550761,9.672276,0.0019452889,-0.3274071,-0.28939912,0.079248354,0.023872852,0.6755037,2017-09-30 13:55:14,67.80399809789938
1.4628572,1.7764976,9.378088,0.022058431,-0.08346294,-0.0032647692,20.0,1.3154641,1.6647184,9.574263,0.14739305,0.111779295,-0.1961749,0.10854801,0.007856188,0.67101866,2017-09-30 13:55:15,74.82247353325057
3.2800562,3.074155,8.719683,0.31501254,-0.305051,0.03934581,18.0,3.134459,2.837129,8.848371,0.1455974,0.23702596,-0.12868834,0.22021084,-0.018951904,0.6642745,2017-09-30 13:55:16,69.9240664073499
1.3742718,1.4389153,9.363723,0.0071583106,-0.0025297366,0.00525708,20.0,1.4314333,1.5010148,9.584738,-0.057161566,-0.062099606,-0.22101474,0.10634578,-0.0015954142,0.6753507,2017-09-30 13:55:17,69.69337089418153
1.1923125,1.6783354,9.576807,-0.0024311997,0.057129066,-0.026700852,19.0,1.2404958,1.6464626,9.587431,-0.04818331,0.03187281,-0.01062427,0.10519534,0.010377482,0.6734615,2017-09-30 13:55:18,73.53291830373765
1.1827357,1.7310078,9.380483,0.011417238,-0.031287882,-0.0032650356,19.0,1.2264298,1.7407342,9.572617,-0.04369418,-0.009726444,-0.1921347,0.10833215,0.013938064,0.67154294,2017-09-30 13:55:20,67.99149998651953
1.2186487,1.7310078,9.442732,0.0028911277,0.009200157,-0.0032650356,18.0,1.2454338,1.7744027,9.563938,-0.026785132,-0.043394905,-0.12120646,0.11030621,0.0142527465,0.6704622,2017-09-30 13:55:21,69.23978576618427
1.1659763,1.7908629,9.440337,-0.015213841,-0.009983658,9.960223E-4,18.0,1.2276269,1.7926586,9.56289,-0.061650693,-0.0017956513,-0.1225532,0.11038609,0.015552994,0.67043763,2017-09-30 13:55:22,70.44056122529615
1.2378023,1.7597382,9.409213,-0.0034999263,-0.00784514,0.0020612867,18.0,1.2144588,1.762731,9.570073,0.023343466,-0.002992752,-0.16086042,0.108802356,0.014815785,0.6691975,2017-09-30 13:55:23,64.61663324548798
1.364695,-1.079785,9.737218,-1.0453312,-0.0014487596,-1.8877178,71.0,1.6234183,-1.2279263,9.592968,-0.2587234,0.14814124,0.14425065,-0.0045660324,-0.104250774,0.56466407,2017-09-30 13:55:24,69.99936584749763
3.3327289,2.4947581,9.358934,-0.41682705,0.63664865,-0.2674506,31.0,3.469797,3.303699,8.556428,-0.13706805,-0.8089409,0.8025065,0.23878804,-0.08195369,0.44621637,2017-09-30 13:55:25,68.12633838274584
4.0797195,1.0893618,8.7532015,-0.28047082,0.16686222,-0.041614555,107.0,4.1458597,1.5770308,8.746018,-0.066139825,-0.48766896,0.007182605,0.16129352,-0.16750371,0.38143465,2017-09-30 13:55:26,68.95900391689834
3.2561142,0.28491,9.030929,-0.2367955,-0.38707447,-0.14920627,101.0,3.0141504,0.38187516,9.324069,0.24196401,-0.09696517,-0.29314008,0.08064234,-0.1345331,0.39726278,2017-09-30 13:55:27,70.56605016044014
3.4835634,1.0342951,9.23683,-0.059963733,0.03370896,0.010583402,113.0,3.355324,0.91099375,9.169494,0.12823942,0.12330139,0.067336924,0.11060508,-0.14229077,0.3790712,2017-09-30 13:55:28,67.7577420652541
2.6599581,0.9624691,9.397242,-0.14838149,-0.051510062,-0.0032650356,88.0,2.719514,1.0535984,9.362825,-0.05955577,-0.0911293,0.03441665,0.10625422,-0.1064679,0.39837363,2017-09-30 13:55:29,66.43419687465567
2.4229321,1.2378023,9.126697,0.2745269,0.2318532,-0.007526093,83.0,2.6819549,1.0051157,9.378986,-0.25902268,0.23268647,-0.252289,0.10405094,-0.10475421,0.4064043,2017-09-30 13:55:30,66.38864737966544
2.5091233,1.2473791,9.13388,0.02419322,0.0017491642,0.008452874,78.0,2.5611973,1.1113585,9.400683,-0.05207389,0.13602059,-0.26680386,0.10721215,-0.09590843,0.41397372,2017-09-30 13:55:31,61.242182227276004
2.552219,1.1899183,8.918402,0.24684253,0.08375642,0.030823426,75.0,2.8097453,1.09011,9.332,-0.2575263,0.09980828,-0.41359833,0.11684637,-0.10268794,0.45590308,2017-09-30 13:55:32,69.16051456582086
2.6527755,0.7661445,8.858546,-0.08338224,-0.01426176,-0.024570324,95.0,2.473809,0.6919243,9.464129,0.17896658,0.074220255,-0.60558337,0.086408995,-0.09996033,0.42226818,2017-09-30 13:55:33,74.0044267903083
3.4237084,0.17956513,8.978256,0.009299226,-0.0046813046,-0.033092707,122.0,3.4289458,0.047584757,9.187449,-0.0052373162,0.13198037,-0.20919338,0.081800036,-0.15772712,0.44088528,2017-09-30 13:55:34,54.93250456997819
3.4763808,-0.009576807,9.131485,0.010367952,0.011290737,0.0031262848,125.0,3.4798226,0.018704701,9.168446,-0.0034416649,-0.028281508,-0.03696049,0.08116187,-0.16109312,0.43779394,2017-09-30 13:55:35,66.78082770446741
3.4213142,0.04070143,8.992621,0.033803236,-0.018535867,0.009517872,125.0,3.455731,0.03232172,9.177424,-0.03441665,0.008379706,-0.18480244,0.08171643,-0.1593695,0.44065538,2017-09-30 13:55:36,67.72417508156083
3.2632968,0.39504328,9.109938,-0.016266588,0.06562508,0.006322078,113.0,3.3252468,0.25797522,9.222016,-0.06194997,0.13706805,-0.11207857,0.08963408,-0.14755595,0.4447023,2017-09-30 13:55:37,68.40162694647701
2.6144683,0.4237737,9.23683,0.0018407769,-0.06859424,0.025496839,81.0,2.518401,0.52178633,9.463232,0.09606735,-0.09801263,-0.2264017,0.08306698,-0.102972865,0.45285824,2017-09-30 13:55:38,47.727649321317536
2.7485435,0.7015011,9.153033,0.0018474348,0.0123528065,0.09793482,86.0,2.6868927,0.7691373,9.399785,0.061650693,-0.0676362,-0.24675241,0.099531904,-0.104069784,0.46071467,2017-09-30 13:55:39,67.50747539030627
3.0190883,0.81642276,8.516175,0.011439875,0.012342952,0.18102545,88.0,3.0285156,0.9501988,9.2787285,-0.009427169,-0.13377602,-0.7625532,0.11680391,-0.11520928,0.46272483,2017-09-30 13:55:40,67.52916838714752
2.932897,0.94810385,9.169792,7.890946E-4,0.030448454,0.0116484,82.0,2.9162874,0.9274539,9.316886,0.016609775,0.02064999,-0.14709377,0.1130853,-0.11036648,0.46441308,2017-09-30 13:55:41,67.23554650924241
2.9903579,0.6967127,9.172187,-0.0066587017,-0.0057883807,-0.0022000375,93.0,3.0377932,0.6830957,9.299079,-0.04743512,0.013617022,-0.12689269,0.10538289,-0.121523306,0.46727726,2017-09-30 13:55:42,69.59122666723614
3.016694,0.5770026,9.196129,-0.016248478,-4.5726474E-4,-0.0011347729,98.0,3.0958524,0.57730186,9.287108,-0.07915829,-2.992752E-4,-0.090979666,0.10231221,-0.1265547,0.46912178,2017-09-30 13:55:43,66.9577863789189
3.1531637,0.5410896,8.9519205,0.02103418,0.0016764599,0.004191549,102.0,3.1714194,0.5101146,9.26556,-0.018255789,0.030974984,-0.31364042,0.10137491,-0.13156018,0.4701849,2017-09-30 13:55:44,69.16752586910664
3.110068,0.4213795,9.124303,7.952199E-4,-0.005782522,-0.0053958306,103.0,3.160047,0.45609543,9.272294,-0.04997896,-0.034715924,-0.1479916,0.09867692,-0.13230833,0.47065863,2017-09-30 13:55:45,69.018689252251
3.1651347,0.4381389,9.138668,0.0029220204,0.0048770467,-0.0053958306,105.0,3.2267854,0.47255555,9.248352,-0.061650693,-0.03441665,-0.10968436,0.10107586,-0.13506448,0.46995023,2017-09-30 13:55:46,70.41900999766632
3.1747115,0.39025488,9.174581,0.016766462,0.0048850365,0.0073873424,105.0,3.2206502,0.47839144,9.250298,-0.045938745,-0.088136554,-0.07571663,0.10117833,-0.13464159,0.4699296,2017-09-30 13:55:47,65.58465326197093
3.13401,0.45010993,9.100361,-2.806972E-4,-0.010022807,0.004191549,103.0,3.1440358,0.44487262,9.278279,-0.010025719,0.0052373162,-0.17791912,0.09770101,-0.1318827,0.47033462,2017-09-30 13:55:49,68.14706661775769
3.1244333,0.44532153,9.16261,-0.004538293,6.2291336E-4,-0.006461095,104.0,3.1794999,0.46582186,9.265112,-0.055066638,-0.020500353,-0.10250176,0.09950308,-0.13306755,0.4697838,2017-09-30 13:55:50,65.9412251614859
3.1196449,0.40940848,9.105149,-2.793656E-4,0.009149023,-0.0032653017,104.0,3.1962593,0.4643255,9.259425,-0.076614454,-0.054917,-0.15427637,0.09985898,-0.13388169,0.46971813,2017-09-30 13:55:51,54.95129272128636
3.1531637,0.38067806,8.99741,0.010371414,-0.004695419,0.0031262848,102.0,3.1350574,0.4504092,9.280973,0.01810615,-0.069731124,-0.28356326,0.097675696,-0.13136771,0.47003856,2017-09-30 13:55:52,66.5851100186911
3.1268275,0.4357447,9.155427,-0.0013502226,-4.2743736E-4,0.004191549,104.0,3.1860838,0.44547117,9.263914,-0.05925649,-0.009726444,-0.10848726,0.09872862,-0.13387927,0.46970263,2017-09-30 13:55:53,71.00973400094394
3.1387985,0.4261679,9.030929,0.001845038,0.008095477,-0.004330566,104.0,3.1896753,0.44711718,9.2625675,-0.050876785,-0.020949265,-0.23163901,0.09887913,-0.13401842,0.46958312,2017-09-30 13:55:54,68.83243728826898
3.0693667,0.40462008,9.126697,-0.0024173514,0.011294466,0.004191549,104.0,3.1646857,0.43903673,9.271546,-0.09531915,-0.03441665,-0.1448492,0.097885214,-0.13304323,0.46973845,2017-09-30 13:55:55,70.58293799253495
3.1196449,0.49799395,9.105149,-0.013069729,0.0027712854,-0.005396097,103.0,3.1489737,0.45085812,9.276335,-0.02932897,0.047135845,-0.17118542,0.09796096,-0.13206369,0.46943668,2017-09-30 13:55:56,68.88771767349562
3.1890767,0.46926352,9.215282,-0.002417085,0.0038365498,-0.0064613614,104.0,3.1679778,0.46582186,9.269002,0.021098902,0.0034416649,-0.0537199,0.09913272,-0.13258517,0.46935925,2017-09-30 13:55:57,44.64218881945655
3.1196449,0.47405192,9.052477,0.0061050304,0.0049018143,-0.0022003036,104.0,3.1756094,0.4607342,9.266608,-0.055964466,0.013317747,-0.21413141,0.09909922,-0.13306487,0.46934202,2017-09-30 13:55:58,67.29490599459523
3.0573955,0.4381389,9.203311,-0.0088086715,6.4075657E-4,0.002060754,103.0,3.125331,0.4492121,9.2842655,-0.067935474,-0.011073183,-0.08095395,0.09728036,-0.13101062,0.4694883,2017-09-30 13:55:59,66.83078608589989
3.1028855,0.49799395,9.114726,-0.0120012695,0.0016998957,-0.005396097,103.0,3.144784,0.4777929,9.276335,-0.04189853,0.020201078,-0.16160862,0.09903789,-0.13124955,0.46913037,2017-09-30 13:56:00,71.22482144575724
3.1028855,0.49799395,9.121908,0.0061247377,0.004862932,9.954897E-4,103.0,3.1519666,0.4834791,9.273641,-0.049081136,0.014514848,-0.15173253,0.099454,-0.13146555,0.46890453,2017-09-30 13:56:01,67.62955947808287
3.0885203,0.41180268,9.169792,-0.009855294,0.010191385,-0.0022003036,103.0,3.1392474,0.4683657,9.2787285,-0.050727148,-0.056563016,-0.108936176,0.09846624,-0.1312209,0.4691232,2017-09-30 13:56:02,69.76123992818314
3.1364043,0.45489833,9.121908,7.9894834E-4,-0.014312893,0.007387076,102.0,3.1007905,0.4954501,9.290251,0.03561375,-0.040551793,-0.1683423,0.098593995,-0.12886816,0.46839687,2017-09-30 13:56:03,66.86784878803708
3.086126,0.48123455,9.126697,0.002937733,-0.0015454324,-0.0011350393,103.0,3.1313167,0.49395373,9.280075,-0.045190558,-0.012719196,-0.15337855,0.09934022,-0.1302959,0.46856847,2017-09-30 13:56:04,51.40300020018561
3.0430303,0.4165911,9.186552,-0.008784969,-0.001536644,-0.0022003036,103.0,3.1097686,0.45669398,9.289204,-0.066738375,-0.040102877,-0.102651395,0.09718229,-0.1301325,0.4692432,2017-09-30 13:56:05,62.78855975327741
3.1124623,0.45489833,9.13388,0.021036044,-0.0015238607,9.954897E-4,104.0,3.115006,0.46537295,9.286959,-0.0025438394,-0.0104746325,-0.15307927,0.09771087,-0.13016865,0.46919915,2017-09-30 13:56:06,65.38996057412942
3.157952,0.4285621,9.176975,0.016778447,0.0069913305,0.0063218116,105.0,3.1379006,0.47165772,9.279028,0.020051438,-0.04309563,-0.102052845,0.09853543,-0.13111347,0.46884516,2017-09-30 13:56:07,48.80502777268396
3.0358477,0.47165772,9.217676,-0.005593171,0.0059281965,0.0031260184,106.0,3.140594,0.4575918,9.278878,-0.10474633,0.014065935,-0.06120178,0.09799509,-0.13155141,0.4690697,2017-09-30 13:56:08,69.3783827756019
3.0502129,0.4381389,9.198523,-0.0024008397,-0.007913317,-0.003265568,106.0,3.1308677,0.44741645,9.282619,-0.08065467,-0.009277532,-0.084096335,0.09727254,-0.131356,0.46902576,2017-09-30 13:56:09,70.90659416455156
3.0214825,0.47165772,9.210494,-0.004528439,0.0027332022,-0.0011350393,106.0,3.1482255,0.4499603,9.2764845,-0.12674305,0.021697452,-0.06599019,0.09790334,-0.13205525,0.4694123,2017-09-30 13:56:10,71.28372088724757
3.098097,0.45010993,9.210494,-0.0119887525,-0.0015209313,0.0031260184,106.0,3.1370027,0.4511574,9.280375,-0.038905777,-0.0010474633,-0.06988076,0.097662665,-0.13150775,0.46941087,2017-09-30 13:56:11,66.35544320990181
3.0813377,0.45729253,9.220071,0.007185475,-0.006846188,-0.005396097,106.0,3.0955532,0.4329016,9.295039,-0.014215573,0.02439093,-0.07496844,0.09576087,-0.13003004,0.46949098,2017-09-30 13:56:12,66.79174474642294
3.0765493,0.40701428,9.0476885,0.008244614,-0.0036384107,-6.977482E-5,107.0,3.1396964,0.448015,9.279477,-0.06314707,-0.041000705,-0.23178865,0.0975499,-0.13173762,0.46915933,2017-09-30 13:56:14,70.59463594958595
3.1172507,0.45489833,9.203311,0.009314406,0.0016788568,0.0073868097,107.0,3.1305683,0.43275195,9.283367,-0.013317747,0.022146367,-0.080056116,0.09668207,-0.13164085,0.4695752,2017-09-30 13:56:15,69.25680853705093
3.0430303,0.4405331,9.224859,7.9282303E-4,-0.010040117,-0.0011353056,107.0,3.116652,0.4345476,9.288006,-0.073621705,0.005985504,-0.06314707,0.096365675,-0.13098013,0.46934125,2017-09-30 13:56:16,70.45487395143284
3.0813377,0.40462008,9.167398,0.0061135525,-0.0047028763,9.952233E-4,108.0,3.154211,0.43828854,9.275137,-0.07287352,-0.033668462,-0.107739076,0.097542286,-0.13260037,0.4695486,2017-09-30 13:56:17,67.90117937422853
3.0813377,0.40940848,9.224859,-0.008797753,0.00487971,9.952233E-4,108.0,3.1428387,0.43634325,9.279028,-0.061501056,-0.026934769,-0.054168813,0.09713042,-0.13214329,0.46937624,2017-09-30 13:56:18,67.6853088731538
3.0597897,0.38307226,9.153033,-0.0077359504,6.2557653E-4,-0.0011353056,107.0,3.1009402,0.41165304,9.294291,-0.041150343,-0.028580783,-0.1412579,0.09494773,-0.13079345,0.46960798,2017-09-30 13:56:19,63.2529204351004
3.083732,0.40462008,9.064447,-0.0013459616,-0.010024139,-7.004113E-5,108.0,3.144784,0.4201824,9.279178,-0.061052144,-0.015562311,-0.21472996,0.09643335,-0.13263798,0.4693071,2017-09-30 13:56:20,56.49425902340957
3.1004913,0.45489833,9.057265,-0.007732488,0.0016836504,-7.004113E-5,108.0,3.1293712,0.43843818,9.283517,-0.028880058,0.016460137,-0.22625206,0.09683,-0.13150185,0.4690847,2017-09-30 13:56:21,65.9580335854307
3.0238767,0.4141969,9.188946,-0.0024077639,0.009143697,-0.0032658344,107.0,3.106776,0.42437226,9.291747,-0.082899235,-0.010175358,-0.10280103,0.09565725,-0.13076791,0.46943155,2017-09-30 13:56:22,65.29945026389318
3.107674,0.4285621,9.289502,0.0050445595,0.005956692,-7.004113E-5,108.0,3.1205425,0.41988313,9.287408,-0.012868834,0.008678981,0.0020949265,0.09579361,-0.13151893,0.46932498,2017-09-30 13:56:23,70.17521478774981
3.1387985,0.4261679,9.224859,0.006115417,0.0027499802,0.0073868097,109.0,3.1313167,0.42676646,9.283367,0.0074818805,-5.985504E-4,-0.058508303,0.0964039,-0.13183555,0.46945658,2017-09-30 13:56:24,67.5517590457973
3.0502129,0.39025488,9.112331,7.869641E-4,0.0059497682,0.006321545,108.0,3.0928597,0.38606504,9.298032,-0.042646717,0.004189853,-0.18570027,0.09367901,-0.13096553,0.4703044,2017-09-30 13:56:25,68.56010358525924
3.040636,0.39025488,9.150639,0.013569338,0.01021269,-0.0053963633,109.0,3.0976481,0.37499183,9.296985,-0.05701193,0.015263036,-0.14634559,0.0933222,-0.13143978,0.47046468,2017-09-30 13:56:26,68.41136767958585
3.1124623,0.37828386,9.193734,0.015701199,-0.0025734126,0.0020604876,110.0,3.1215901,0.3748422,9.288904,-0.009127894,0.0034416649,-0.095169514,0.093906,-0.13257435,0.47025302,2017-09-30 13:56:27,65.84044576455771
3.074155,0.35913026,9.181764,-0.0024096281,6.2531023E-4,0.003125752,109.0,3.0918121,0.3648165,9.299229,-0.017657237,-0.005686229,-0.11746552,0.09272262,-0.13141021,0.47056732,2017-09-30 13:56:28,64.18996527274322
3.0693667,0.39743748,9.217676,0.003985953,6.173207E-4,-0.0011353056,109.0,3.0940568,0.36780924,9.298331,-0.024690205,0.029628245,-0.08065467,0.092880115,-0.13146973,0.47032782,2017-09-30 13:56:29,68.34487983743355
3.0693667,0.36152446,9.050082,7.8802934E-4,0.0027518442,-0.004331099,109.0,3.1000423,0.36780924,9.296386,-0.03067571,-0.0062847794,-0.2463035,0.093027085,-0.13174564,0.47029862,2017-09-30 13:56:30,69.05592723610161
3.0430303,0.33997664,9.251195,-0.0013424995,0.005947638,-0.0011353056,109.0,3.0886698,0.37274727,9.299977,-0.04563947,-0.032770637,-0.04878186,0.09296572,-0.13109416,0.47033373,2017-09-30 13:56:31,66.9178924142326
3.052607,0.33758244,9.109938,0.021029118,-0.007902664,0.0020602215,109.0,3.0879216,0.3842694,9.299828,-0.035314474,-0.046686932,-0.18989012,0.093458936,-0.13078603,0.47025988,2017-09-30 13:56:32,69.88216102649714
3.1028855,0.37588966,9.143456,0.002917493,0.009145295,-0.006461894,109.0,3.1103673,0.3878607,9.292196,-0.0074818805,-0.011971008,-0.14873978,0.094153404,-0.13177219,0.46990082,2017-09-30 13:56:33,71.11578412342823
6.2752028,1.1228806,7.9391727,-0.04075675,0.70476,-0.06079038,30.0,7.2388687,0.28745383,6.6093435,-0.9636662,0.83542675,1.3298295,0.217453,-0.34018546,0.46175095,2017-09-30 13:56:34,66.43022120637346
8.24563,-0.0047884034,5.1355624,0.00398329,0.018731609,0.027626568,7.0,8.319402,-0.02932897,5.1916766,-0.07377134,0.024540568,-0.056114104,0.23692805,-0.42326772,0.42980888,2017-09-30 13:56:35,68.90208741396411
8.111555,0.47165772,6.9048777,0.26710707,0.27651867,-0.18755685,261.0,7.6795516,0.2335843,6.094141,0.43200377,0.23807344,0.81073654,0.23102617,-0.36866218,0.4546899,2017-09-30 13:56:36,70.0511938642382
7.314286,0.45250413,6.8162923,-0.0844262,-0.1400077,0.04254027,215.0,7.3883567,0.39698857,6.4360633,-0.07407062,0.05551555,0.38022915,0.2267316,-0.34704292,0.4561257,2017-09-30 13:56:37,74.87748184946001
7.6015906,0.3184288,6.009446,-0.019438945,0.0048565404,0.012712866,219.0,7.697209,0.3883096,6.0639143,-0.09561843,-0.06988076,-0.054468088,0.24146461,-0.36403424,0.4588137,2017-09-30 13:56:38,63.159199720344155
7.848193,0.33039984,5.899313,0.011454788,-0.02603826,0.005256015,226.0,7.842956,0.37424365,5.8750715,0.0052373162,-0.043843817,0.024241293,0.24810915,-0.37268186,0.4594762,2017-09-30 13:56:39,64.63980441219014
7.848193,0.31364042,5.7628436,-0.0045228465,-0.006866428,0.005256015,209.0,7.8402624,0.32336688,5.8816557,0.007930793,-0.009726444,-0.11881226,0.24727468,-0.372786,0.46323565,2017-09-30 13:56:40,63.87821267195485
7.872135,0.31124622,5.8226986,0.0050605386,0.0133815855,-0.004331365,203.0,7.8649526,0.33069912,5.848137,0.007182605,-0.019452889,-0.025438393,0.24874803,-0.37409908,0.4629815,2017-09-30 13:56:41,64.54503410891118
7.848193,0.37828386,5.7269306,0.0029329392,0.010179667,-0.0022008363,203.0,7.893683,0.3362357,5.8090816,-0.045489833,0.042048167,-0.08215105,0.2500872,-0.3758613,0.46222445,2017-09-30 13:56:42,41.44547498139787
7.8266454,0.36152446,5.815516,-0.0013249227,0.013369601,0.005256015,204.0,7.9013147,0.33608606,5.798607,-0.07466917,0.025438393,0.01690905,0.25034666,-0.37639827,0.46197203,2017-09-30 13:56:43,59.04857411783574
7.7907324,0.320823,5.8107276,0.006129798,0.005916745,-0.0022008363,214.0,7.8745294,0.3405752,5.8346696,-0.08379706,-0.019752163,-0.023942016,0.24978852,-0.37432122,0.46313044,2017-09-30 13:56:44,68.19085787425428
7.843405,0.31124622,5.825093,-0.002390187,-0.0036746296,-0.0011358382,213.0,7.901913,0.34596214,5.7972603,-0.058508303,-0.034715924,0.027832596,0.25118414,-0.3759334,0.4626123,2017-09-30 13:56:45,63.01120806412173
7.7907324,0.36631286,5.947197,-0.014105166,5.803028E-4,-0.0011358382,211.0,7.9093947,0.3645172,5.7858877,-0.11866262,0.0017956513,0.16130935,0.25229633,-0.37596065,0.462225,2017-09-30 13:56:46,64.11650183689461
7.750031,0.33758244,5.485116,0.019986758,-0.06653828,0.011647335,209.0,7.8667483,0.3600281,5.843947,-0.11671733,-0.022445641,-0.358831,0.2508885,-0.37294823,0.46419767,2017-09-30 13:56:48,61.00245061447757
7.8266454,0.320823,5.8705826,-0.005577991,5.704491E-4,0.006321013,211.0,7.8787193,0.3462614,5.828684,-0.05207389,-0.025438393,0.04189853,0.25076076,-0.3740778,0.46410015,2017-09-30 13:56:49,65.7604905684552
7.8410106,0.36152446,5.753267,8.1306306E-4,-0.0036898097,0.0020599551,211.0,7.8853035,0.35314476,5.819556,-0.044292733,0.008379706,-0.06628946,0.251451,-0.37424183,0.46414676,2017-09-30 13:56:50,61.07087074178878
7.821857,0.30406362,5.7628436,-0.003444,5.635249E-4,-7.057377E-5,213.0,7.9001174,0.3477578,5.7996545,-0.07826047,-0.04369418,-0.036810853,0.25173903,-0.3754012,0.463751,2017-09-30 13:56:51,64.12224246195886
7.833828,0.3854665,5.767632,0.0040133838,5.6245964E-4,9.946907E-4,214.0,7.8760257,0.35778353,5.831677,-0.042197805,0.027682956,-0.06404489,0.2517291,-0.37322462,0.46519265,2017-09-30 13:56:52,63.03545615823532
7.833828,0.33279404,5.7963624,6.3250074E-4,0.0048269792,-0.0014314491,215.0,7.8932343,0.3576339,5.8083334,-0.05940613,-0.024839843,-0.011971008,0.2523901,-0.374371,0.46476755,2017-09-30 13:56:53,57.87423602561657
7.917625,0.39025488,5.60722,-0.0025632926,0.008022773,-3.6618466E-4,212.0,7.966257,0.37319618,5.706879,-0.048632223,0.017058687,-0.099658646,0.25593224,-0.37884688,0.4628257,2017-09-30 13:56:54,56.366533683887106
7.97748,0.38067806,5.592855,0.0027630297,0.013349094,0.0049601374,204.0,8.057536,0.40596682,5.5748987,-0.080056116,-0.025288755,0.017956512,0.26106408,-0.38418818,0.46023622,2017-09-30 13:56:55,61.72604089260809
7.9511437,0.4141969,5.5617304,-0.0025558358,-0.0015797871,-0.0014317154,206.0,8.038083,0.40491936,5.6030307,-0.08693945,0.009277532,-0.04129998,0.26011553,-0.3829599,0.46050766,2017-09-30 13:56:56,65.34140233058528
7.9942393,0.39025488,5.5521536,0.0027846012,-0.015455921,0.0017640779,207.0,8.080581,0.4086603,5.54138,-0.0863409,-0.018405426,0.010773907,0.26197863,-0.38578832,0.45935246,2017-09-30 13:56:57,60.41434313589538
8.02297,0.37349546,5.8681884,-0.008929313,0.080409884,-0.005692773,207.0,8.068609,0.4007295,5.559187,-0.04563947,-0.027234044,0.30900165,0.26092362,-0.38532215,0.4593123,2017-09-30 13:56:58,56.17427906077658
7.920019,0.4165911,5.896919,-0.011050787,0.042042524,-0.0035622444,205.0,8.055591,0.40402153,5.5778913,-0.13557167,0.012569559,0.31902736,0.26045272,-0.3844067,0.4594201,2017-09-30 13:56:59,57.35350498793121
7.9104424,0.35194764,5.741296,-0.007857391,-0.023999076,0.0028293424,212.0,7.914034,0.37933132,5.7785554,-0.0035913025,-0.027383681,-0.037259765,0.25351685,-0.37563324,0.46272585,2017-09-30 13:57:00,65.95145000685436
7.920019,0.4141969,5.6527104,0.002796319,0.0026306706,-0.0067580375,210.0,7.983316,0.40641573,5.680543,-0.063296705,0.0077811554,-0.027832596,0.25722435,-0.3797391,0.46028957,2017-09-30 13:57:01,64.20221235115687
7.893683,0.33518824,5.731719,0.015581356,0.10808785,-0.0014317154,9.0,8.001422,0.3616741,5.6580973,-0.107739076,-0.026485857,0.073621705,0.25737178,-0.38114285,0.4631839,2017-09-30 13:57:02,62.218931490377585
7.3406224,0.02633622,6.8450227,0.14554575,0.4393811,-0.017410683,93.0,7.650821,0.25169045,6.1294556,-0.31019875,-0.22535424,0.71556705,0.24242295,-0.35876656,0.47983113,2017-09-30 13:57:03,69.28153465896433
8.219295,-0.6679823,5.2026005,-0.038744465,0.040971134,0.018808043,138.0,8.404396,-0.6664859,5.009119,-0.18510172,-0.001496376,0.19348143,0.20711792,-0.44911748,0.4252186,2017-09-30 13:57:04,66.06867047675537
8.432379,-0.60094464,4.915296,0.020913804,-0.003776895,0.0017638116,113.0,8.474277,-0.61770403,4.896292,-0.04189853,0.016759412,0.019003976,0.21552052,-0.45155722,0.42875293,2017-09-30 13:57:05,67.34680294170906
8.4347725,-0.641646,4.831499,0.0070677632,-0.026152508,0.002829076,105.0,8.513332,-0.595408,4.8309007,-0.07855974,-0.04623802,5.985504E-4,0.21942577,-0.45336592,0.4296805,2017-09-30 13:57:06,67.95744685164603
8.497022,-0.62967503,4.783615,-0.007844874,0.010064619,0.0017638116,101.0,8.5681,-0.5981015,4.732738,-0.07107786,-0.031573534,0.050876785,0.22173268,-0.45774502,0.42839214,2017-09-30 13:57:07,67.46868172409184
8.101978,0.24899697,5.243302,0.06885363,-0.15185452,-0.20063643,90.0,8.265383,0.142455,5.2754736,-0.16340427,0.10654198,-0.032172084,0.2576924,-0.40572912,0.4573088,2017-09-30 13:57:08,78.44719783029453
8.226477,0.35913026,5.3366756,0.03157204,0.06012805,0.012416456,32.0,8.277055,0.33414078,5.248539,-0.05057751,0.02498948,0.088136554,0.2688831,-0.40012515,0.45893005,2017-09-30 13:57:09,72.53161953358182
9.176975,-0.48123455,3.857059,0.1934925,0.18795872,0.11787763,28.0,8.994717,-0.17896658,3.9026985,0.1822586,-0.30226797,-0.04563947,0.2746889,-0.47493196,0.43288746,2017-09-30 13:57:10,73.86631736081115
8.688558,-0.095768064,4.4843397,0.01133175,-0.003787814,-0.0056930394,105.0,8.772355,-0.1937807,4.3791447,-0.08379706,0.09801263,0.10519524,0.2741154,-0.44897938,0.45907578,2017-09-30 13:57:11,75.47543566659628
8.372523,0.095768064,4.984728,0.0038791604,-0.008056861,-0.002497246,106.0,8.411729,0.14335282,5.0388966,-0.039205052,-0.047584757,-0.054168813,0.2740618,-0.40984857,0.47120753,2017-09-30 13:57:12,73.33098677800913
8.439561,0.18914193,4.912902,-0.020621922,-0.002730539,-0.008888832,69.0,8.434922,0.13856442,5.0001407,0.004638766,0.05057751,-0.08723872,0.2752191,-0.4114735,0.47112456,2017-09-30 13:57:13,67.50130040578425
2.6288335,0.93613285,9.555259,0.20628074,0.53629005,0.66009724,40.0,1.8935143,1.3025954,9.533412,0.7353192,-0.3664625,0.02184709,0.10244695,-0.05856722,0.4309244,2017-09-30 13:57:14,68.49866362393387
1.4413095,0.6847417,9.306262,0.02305685,0.06330973,0.0230691,30.0,1.4927847,0.5258266,9.677961,-0.051475335,0.15891513,-0.3716998,0.060077637,-0.05427756,0.4755567,2017-09-30 13:57:15,68.3746650943174
1.1899183,0.36870706,9.603143,0.0049457564,-0.0069947927,-0.0056930394,39.0,1.2493243,0.2825158,9.722554,-0.05940613,0.08619126,-0.11941081,0.04341722,-0.048977412,0.4808627,2017-09-30 13:57:16,64.36593704035594
1.1013328,0.29688102,9.677363,-0.0046339002,-0.013401293,-0.028063592,35.0,1.1519103,0.142455,9.737667,-0.05057751,0.15442601,-0.060303956,0.034790356,-0.0480086,0.4820687,2017-09-30 13:57:17,69.39562452382535
1.1611878,0.15322891,9.813833,-0.02061553,-0.018722555,-3.669836E-4,31.0,1.1477205,0.055216275,9.739014,0.0134673845,0.09801263,0.074818805,0.030932106,-0.04987315,0.48475203,2017-09-30 13:57:19,69.16784118027111
3.371036,1.0893618,11.57836,0.56208414,-1.3013009,0.27766705,26.0,2.4703672,1.148319,9.420585,0.90066874,-0.058957215,2.1577742,0.11683073,-0.07766825,0.5166219,2017-09-30 13:57:20,70.50724740791684
8.350976,0.2777274,5.257667,-0.16335484,-0.2680064,0.11787737,125.0,8.284536,0.30825347,5.2383637,0.0664391,-0.030526072,0.019303251,0.24714093,-0.41453272,0.42021564,2017-09-30 13:57:21,71.10255814261293
8.255207,0.36391866,5.327099,0.1658124,0.41482702,0.09870261,57.0,8.456321,0.35075054,4.953304,-0.20111294,0.01316811,0.37379473,0.26059055,-0.42371935,0.4234288,2017-09-30 13:57:22,71.31203409296836
7.52737,0.533907,7.0940194,-0.062153917,0.18366358,0.047569916,86.0,7.4078097,0.791134,6.3771057,0.11956045,-0.25722703,0.71691376,0.22058581,-0.3552429,0.39451268,2017-09-30 13:57:23,67.39681311094576
7.359776,0.62488663,6.2392898,-0.015281218,0.03026363,6.982808E-4,30.0,7.457639,0.7079355,6.3284736,-0.097862996,-0.08304887,-0.089184016,0.22327375,-0.35704416,0.40607074,2017-09-30 13:57:24,65.13915900391581
7.204153,0.7541735,6.021417,0.022004101,-0.020871194,-0.025933329,31.0,7.45315,0.5897218,6.3458314,-0.24899697,0.16445173,-0.32441434,0.21984291,-0.35793173,0.41246942,2017-09-30 13:57:25,70.76197703886804
7.3885064,0.557849,6.303933,-3.6485307E-4,0.007888017,0.050765708,29.0,7.4612303,0.5876269,6.336554,-0.07272387,-0.029777884,-0.032621,0.2200521,-0.3584625,0.41245326,2017-09-30 13:57:26,67.96818361959205
7.6470804,0.45729253,6.0764837,-3.6245622E-4,0.027057717,0.0049593383,38.0,7.400627,0.4794389,6.416161,0.24645314,-0.022146367,-0.33967736,0.21504118,-0.35583204,0.41909304,2017-09-30 13:57:27,63.28055014641372
8.101978,-0.06703765,5.473145,0.10403745,0.014266554,0.25636175,181.0,7.8698907,0.13452421,5.8493342,0.23208793,-0.20156185,-0.37618893,0.22320819,-0.38979632,0.43065408,2017-09-30 13:57:28,66.61791520123242
7.4962454,-0.02873042,6.217742,0.060363207,-0.26163986,0.0038940741,30.0,7.583484,-0.033369187,6.2175922,-0.08723872,0.004638766,1.496376E-4,0.20387372,-0.3760634,0.43427935,2017-09-30 13:57:29,72.0620062091553
7.9463553,-0.007182605,5.4779334,-0.061074007,0.025975674,-0.056826264,30.0,7.953538,0.015562311,5.736657,-0.007182605,-0.022744916,-0.2587234,0.20664558,-0.4059633,0.40227303,2017-09-30 13:57:30,70.80950433728945
8.37013,0.02873042,5.317522,0.11789148,-0.06990025,0.033721212,23.0,8.113351,0.0537199,5.50816,0.25677812,-0.02498948,-0.1906383,0.22231996,-0.41198814,0.41447863,2017-09-30 13:57:31,68.07863923875186
8.291121,0.31603462,5.0661306,-0.005675196,-0.1668473,0.039047536,22.0,8.440758,0.41449618,4.9750013,-0.14963761,-0.098461546,0.0911293,0.25134078,-0.42798215,0.40237638,2017-09-30 13:57:32,59.83376438865505
8.334216,0.30645782,5.044583,0.027351197,3.933489E-4,0.007089601,22.0,8.371626,0.28924948,5.0992007,-0.037409402,0.017208325,-0.054617725,0.2436479,-0.42502522,0.40717754,2017-09-30 13:57:33,68.16202106694654
8.51857,0.38067806,4.745308,0.05291781,-0.04647935,-0.0035630432,20.0,8.524705,0.34970307,4.8346415,-0.006135142,0.030974984,-0.08933365,0.2565336,-0.43322748,0.40937462,2017-09-30 13:57:34,67.48885356116412
8.631097,0.4237737,4.5561657,-0.0024754081,-0.012391955,6.980145E-4,19.0,8.697087,0.40102878,4.51307,-0.06599019,0.022744916,0.04309563,0.267937,-0.44508606,0.40649715,2017-09-30 13:57:35,69.5716634240056
8.724471,0.40940848,4.4939165,0.010311227,0.0035800873,0.0049590725,18.0,8.737639,0.40043023,4.4342113,-0.01316811,0.008978256,0.059705406,0.26986882,-0.44842374,0.40548715,2017-09-30 13:57:36,66.40220070940502
8.688558,0.39983168,4.3263226,-0.0046059373,0.0035870117,-3.6724992E-4,19.0,8.73315,0.40641573,4.4425907,-0.044592008,-0.006584055,-0.11626842,0.27050352,-0.44756848,0.4064829,2017-09-30 13:57:37,72.46332020970998
8.659827,0.3854665,4.4460325,-0.0014021543,-0.0049508163,0.001763279,19.0,8.70846,0.40476972,4.4906244,-0.048632223,-0.019303251,-0.044592008,0.2690201,-0.4457171,0.40677127,2017-09-30 13:57:38,67.64212249706073
8.65025,0.32561144,4.19943,-3.3688988E-4,0.012093148,-0.0024977787,19.0,8.728511,0.3942951,4.4527664,-0.07826047,-0.06868366,-0.25333646,0.26848972,-0.4481992,0.4047117,2017-09-30 13:57:39,63.24671563172168
8.63828,0.36152446,4.4316673,-0.0088624675,0.027014041,-0.0014325143,20.0,8.70427,0.3772364,4.501249,-0.06599019,-0.015711948,-0.06958149,0.2663579,-0.4467135,0.4052355,2017-09-30 13:57:40,59.430121176559005
8.051701,1.8315643,5.9998693,-0.03335902,0.053636596,-0.17400534,343.0,7.8116817,1.9756653,5.5895634,0.24001873,-0.14410101,0.4103063,0.27455375,-0.3736729,0.33351168,2017-09-30 13:57:41,72.78227783408305
7.750031,2.4899697,5.1762643,0.053998787,-0.08699029,-0.024868598,319.0,7.7923784,2.5112183,5.3981767,-0.042347442,-0.02124854,-0.22191256,0.293562,-0.372276,0.30684415,2017-09-30 13:57:42,74.01269950330429
7.644686,2.8275523,5.482722,-0.13455647,-0.705902,-0.2911847,314.0,7.8600144,2.7865515,5.159804,-0.21532851,0.041000705,0.32291797,0.31194198,-0.37364328,0.30357674,2017-09-30 13:57:43,61.35170712462219
8.224083,2.9113493,4.1635165,-0.028027108,-0.037987065,0.049699914,273.0,8.217499,3.2163107,4.277391,0.006584055,-0.30496144,-0.11387422,0.34532604,-0.40331203,0.27861592,2017-09-30 13:57:45,49.852665898768784
8.468291,2.7485435,4.477157,-0.050396327,0.03657825,0.12959474,273.0,8.205229,3.0226796,4.4392986,0.26306292,-0.2741361,0.037858315,0.33106825,-0.40503347,0.27801338,2017-09-30 13:57:46,60.55098386591338
8.063671,1.0151415,5.3007627,-0.08981058,-0.049708966,-0.06108759,225.0,8.118588,0.9843162,5.411644,-0.054917,0.030825347,-0.11088146,0.2582742,-0.396699,0.38825753,2017-09-30 13:57:47,73.74686539248069
8.209718,1.0606314,5.2480903,-0.0013920343,0.022725819,0.030525152,258.0,8.2037325,0.9518448,5.287894,0.005985504,0.10878654,-0.0398036,0.2574573,-0.40510005,0.38208285,2017-09-30 13:57:48,75.81638728337596
7.9631147,0.8475474,5.3486466,-0.19100058,0.22937034,0.15942214,200.0,8.386141,0.7038953,5.0344076,-0.42302552,0.1436521,0.31423897,0.24724428,-0.42682672,0.37152126,2017-09-30 13:57:49,74.22826503142721
8.652645,0.39983168,4.4580035,0.023118103,0.06851435,0.058222026,140.0,8.698733,0.31094694,4.5171103,-0.046088383,0.08888474,-0.059106853,0.24417591,-0.45832562,0.37461075,2017-09-30 13:57:50,64.84141267607279
8.707711,0.33997664,4.2544966,-0.074879564,-0.14561659,-0.023803333,108.0,8.790012,0.18360534,4.34398,-0.082300685,0.1563713,-0.08948329,0.23689815,-0.47158927,0.36534032,2017-09-30 13:57:51,68.7067026692661
9.440337,-0.17717093,3.0334535,-0.2357401,-0.55679774,-0.042978093,20.0,9.286959,-0.12554595,3.1471782,0.15337855,-0.051624972,-0.11372458,0.2262563,-0.53697705,0.32565388,2017-09-30 13:57:52,72.14413704667288
8.286332,-0.4357447,5.097255,-0.02907586,-7.358314E-4,0.013480921,246.0,8.33676,-0.4055179,5.1481323,-0.050427873,-0.030226797,-0.050876785,0.20727645,-0.44107985,0.40932682,2017-09-30 13:57:53,77.10569451366516
8.413225,-0.45010993,4.8219223,-0.00670078,-0.002875415,-3.6751622E-4,235.0,8.489989,-0.43963528,4.8882117,-0.07676409,-0.0104746325,-0.06628946,0.21191178,-0.45371723,0.4063472,2017-09-30 13:57:54,72.84635207558198
8.439561,-0.41180268,4.7309427,0.018865567,-0.014593324,0.004958806,238.0,8.505402,-0.41524437,4.8635216,-0.06584055,0.0034416649,-0.13257892,0.21531591,-0.4535001,0.4085904,2017-09-30 13:57:55,75.35546780377015
8.916007,-0.78050977,3.9911342,-0.008825183,-0.036975596,0.0028280108,137.0,8.852411,-0.8698434,4.128801,0.06359598,0.08933365,-0.1376666,0.19381648,-0.5019194,0.3790746,2017-09-30 13:57:56,76.6664777476685
9.277532,-1.1013328,2.9999347,-0.008818525,-0.010357033,-0.003563576,40.0,9.290999,-1.0806828,2.945766,-0.0134673845,-0.02064999,0.054168813,0.18667814,-0.5612078,0.3411992,2017-09-30 13:57:57,73.73799466770313
9.270349,-1.043872,3.0310593,0.013549897,0.015213308,-0.003563576,50.0,9.26167,-1.0752958,3.0386908,0.008678981,0.031423897,-0.007631518,0.18651438,-0.55702424,0.343743,2017-09-30 13:57:58,76.86032741115913
9.255983,-1.0295067,2.9233203,0.0050256513,-0.008218515,-3.6778254E-4,19.0,9.272743,-1.0645219,3.0086138,-0.016759412,0.0350152,-0.085293435,0.18872009,-0.55765665,0.3447533,2017-09-30 13:57:59,76.5606051305339
9.294291,-0.93852705,3.004723,0.010355702,-0.002899117,0.0049585397,21.0,9.278579,-1.0550947,2.9939492,0.015711948,0.11656769,0.010773907,0.18974896,-0.55798113,0.34484723,2017-09-30 13:58:00,78.06803019630807
5.032612,0.35434186,6.981492,0.76349896,0.6522353,-0.50104207,245.0,6.8870707,-0.8382699,6.9306154,-1.8544588,1.1926117,0.050876785,0.17267354,-0.3417834,0.5131276,2017-09-30 13:58:01,79.01230492617752
-0.7254431,-0.9840169,12.270284,-0.34650204,0.015198394,0.28938416,15.0,-0.26036942,-1.0785879,9.743652,-0.46507367,0.094570965,2.5266309,-0.050396293,-0.025890127,0.65186566,2017-09-30 13:58:02,69.13762520798785
1.0749966,2.2242134,8.939949,-0.64371586,-0.5163587,-0.34657872,17.0,3.7358525,-1.6187797,8.921394,-2.660856,3.842993,0.018555064,0.11277937,-0.18003485,0.8052228,2017-09-30 13:58:03,59.252769083672085
4.173094,-0.22026655,9.514558,-0.14197072,-0.23300928,0.011350126,12.0,2.9001265,-0.5187936,9.353547,1.2729671,0.29852703,0.16101007,-0.15143317,-0.0128625445,-0.95471877,2017-09-30 13:58:04,69.15127034572266
6.505046,-0.23463176,7.795521,0.27987507,-0.17868292,-0.10582896,9.0,5.4521956,0.9234137,8.098686,1.0528502,-1.1580454,-0.3031658,-0.26717934,-0.12526956,-0.9206919,2017-09-30 13:58:05,68.86707438062531
3.1028855,3.5577838,8.360553,1.704136,1.0314527,0.6803362,21.0,3.9918823,2.756175,8.52261,-0.888997,0.8016087,-0.16205753,-0.09734454,-0.23661071,-0.8106318,2017-09-30 13:58:06,67.6934469354652
3.3063924,2.870648,8.695741,-0.23144788,0.019448265,0.118941836,20.0,3.0690672,2.9939492,8.81964,0.23732524,-0.12330139,-0.12389994,-0.031386748,-0.22211704,-0.7714022,2017-09-30 13:58:07,66.48557280903935
3.8259344,6.143522,6.4308257,0.25431085,-0.24153753,-0.08878473,32.0,3.5468602,5.914576,6.9717655,0.27907413,0.22894554,-0.5409399,-0.016993366,-0.3797955,-0.81369025,2017-09-30 13:58:08,71.29425550163741
2.0973208,6.411672,9.97185,-1.0580926,0.8322442,0.10722393,27.0,2.9331963,5.2491374,7.746589,-0.8358757,1.1625346,2.2252607,0.0012796177,-0.3240767,-0.8240097,2017-09-30 13:58:09,72.80730044510057
4.8027687,-1.1707647,8.767567,0.34379598,-0.051926315,0.703772,12.0,4.1413703,0.55440736,8.871864,0.66139823,-1.7251719,-0.104297414,-0.19629183,-0.095540375,-0.9263819,2017-09-30 13:58:10,70.43922935382037
3.8905778,-1.7836803,9.088389,0.65060467,-0.40348834,1.7509266,18.0,3.8622963,-2.7361236,8.5886,0.028281508,0.95244336,0.4997896,-0.24079812,-0.064137414,-0.61955625,2017-09-30 13:58:11,71.73671151767338
2.4947581,2.0159178,6.8210807,0.57390404,-0.42052963,0.8838014,17.0,3.4136827,0.084694885,9.192837,-0.9189245,1.9312229,-2.371756,0.022604272,-0.17544821,0.101480044,2017-09-30 13:58:12,69.0788124769317
2.0207062,0.9552865,8.645462,-0.16326135,-0.3139984,-0.14630927,16.0,1.968782,0.9449615,9.560347,0.05192425,0.010324995,-0.9148843,0.07017775,-0.08735299,0.22583254,2017-09-30 13:58:13,68.3481849033065
-0.50757074,1.5562311,10.400413,-0.04501994,0.08228608,-0.48719388,18.0,-0.6278794,1.0652701,9.72824,0.12030864,0.490961,0.6721721,0.054666083,0.03165797,-0.007619916,2017-09-30 13:58:14,69.02642868843057
-0.7158663,1.1444284,9.481039,-0.34435418,0.22395614,-0.23153043,12.0,-1.1885715,1.5138837,9.615862,0.4727052,-0.36945525,-0.13482349,0.079348855,0.05855582,-0.029660357,2017-09-30 13:58:15,70.73414136184402
-0.2801216,1.5993267,9.588778,-0.005599296,0.027945613,-0.079197615,12.0,-0.55470663,1.6133927,9.657013,0.274585,-0.014065935,-0.06823475,0.08389978,0.024207894,-0.04996824,2017-09-30 13:58:16,71.59995148232171
-0.6967127,2.5833437,9.988609,-0.002398443,-0.044502486,0.026263561,14.0,-0.8536825,2.4293666,9.462483,0.15696985,0.1539771,0.52612585,0.12964258,0.027154934,-0.12985264,2017-09-30 13:58:18,72.83396194823895
1.9536686,-0.60094464,9.526528,-0.5158543,-0.04130962,-0.3849285,14.0,2.1589713,-0.8752304,9.525781,-0.20530279,0.27428573,7.48188E-4,-0.07162714,-0.09583177,-0.25211385,2017-09-30 13:58:19,71.50252258849524
1.5011644,0.5386954,9.950302,0.071108796,0.06947282,-0.06747971,12.0,1.4981717,0.36062664,9.684695,0.002992752,0.17806876,0.26560676,-0.0055931984,-0.07861833,-0.30152532,2017-09-30 13:58:20,67.14231918577445
1.8962077,0.2873042,9.241618,-0.011981828,-0.0050956924,0.05928676,12.0,1.4184148,0.08259996,9.703101,0.4777929,0.20470424,-0.46148238,-0.016314704,-0.07077922,-0.28020415,2017-09-30 13:58:21,71.53215767026587
-1.2952632,0.92655605,9.576807,0.4130592,0.3901166,-0.16122298,12.0,-0.89797527,0.9175778,9.722105,-0.39728785,0.008978256,-0.14529811,0.05635293,0.033582747,-0.23443808,2017-09-30 13:58:22,75.26962264400481
-2.2529438,0.8619126,9.737218,-0.013039902,-8.484831E-4,0.06461308,12.0,-2.1893477,0.8346786,9.522638,-0.06359598,0.027234044,0.21458033,0.07557815,0.093634486,-0.30740312,2017-09-30 13:58:23,68.60394583664547
-1.769315,0.85473,9.507375,-0.015172029,-0.014693991,0.006023538,14.0,-1.7910125,0.9081506,9.5988035,0.021697452,-0.053420626,-0.09142858,0.07217996,0.073378265,-0.30141553,2017-09-30 13:58:24,70.56001656926307
-1.6041151,0.47884035,9.502586,-0.015169099,0.0044749095,0.033720147,14.0,-1.5957354,0.56428343,9.659407,-0.008379706,-0.08544307,-0.15682021,0.051162675,0.069893986,-0.28668073,2017-09-30 13:58:25,69.00766270311594
-1.460463,0.38307226,9.636662,0.084959365,-0.004034423,0.026263561,14.0,-1.5628152,0.30211833,9.676615,0.10235212,0.08095395,-0.03995324,0.036991764,0.072536856,-0.27601793,2017-09-30 13:58:26,69.63050126861938
-1.091756,0.6631939,9.380483,-0.1856122,-0.036003273,6.9694925E-4,12.0,-1.1279683,0.97758245,9.6923275,0.0362123,-0.3143886,-0.31184477,0.06363544,0.042139,-0.26763055,2017-09-30 13:58:27,70.45555822781981
-0.6488287,1.0390835,9.545682,0.045550972,-0.06796307,-0.024869397,12.0,-0.78694415,0.97743285,9.725995,0.13811551,0.061650693,-0.18031332,0.0588433,0.025459874,-0.26565573,2017-09-30 13:58:28,71.9550828321943
0.7469909,1.6256629,9.749189,-0.16111113,-0.6016587,0.30003625,12.0,0.6139631,1.0568904,9.730036,0.13302784,0.56877255,0.019153614,0.043606345,-0.044698283,-0.26759955,2017-09-30 13:58:29,71.7725563172277
0.7493851,0.8595184,9.483433,-0.3113089,-0.21710728,-0.7737503,17.0,0.8870517,0.6241385,9.746346,-0.1376666,0.23537995,-0.2629133,0.011740478,-0.054130048,-0.38840935,2017-09-30 13:58:30,68.25681313200317
1.3024458,0.34476504,9.595961,0.14568476,-0.007241135,0.5759397,16.0,1.392378,0.57281274,9.690232,-0.0899322,-0.22804771,-0.09427169,0.004746899,-0.07685138,-0.3218347,2017-09-30 13:58:31,68.08807072520966
2.0829554,-0.30885202,9.832987,0.090291545,0.039629433,-0.062153652,15.0,2.154931,-0.3812766,9.559299,-0.071975686,0.0724246,0.27368718,-0.041514922,-0.1043354,-0.20090778,2017-09-30 13:58:32,63.60777870173489
1.8243817,-0.019153614,9.519346,0.035968654,-0.017905764,-0.054696802,15.0,1.7913117,-0.12479776,9.640702,0.033069912,0.10564415,-0.1213561,-0.027019452,-0.087889895,-0.22575472,2017-09-30 13:58:33,70.78353052512536
1.8555063,-0.088585466,9.409213,-0.0045129927,-0.0019238675,0.004958007,15.0,1.9229928,-0.13078327,9.615264,-0.06748656,0.042197805,-0.20605098,-0.029432643,-0.094271034,-0.23144166,2017-09-30 13:58:34,69.83697811563137
1.8602947,-0.18435353,9.586384,0.008274974,-0.0061937138,0.007088536,15.0,1.8990508,-0.19557635,9.619004,-0.03875614,0.011222821,-0.032621,-0.032902382,-0.092107,-0.23708309,2017-09-30 13:58:35,56.19561096934602
1.673547,0.19871874,9.490616,0.12545645,0.0012580773,0.1849877,15.0,1.8197429,0.1575684,9.6350155,-0.14619595,0.041150343,-0.14440028,-0.012311625,-0.092728525,-0.2156993,2017-09-30 13:58:36,66.69390006306011
0.866701,1.8626889,9.921572,0.30016088,0.06943287,0.3170805,12.0,0.9446622,2.2159834,9.506028,-0.07796119,-0.3532944,0.41554365,0.12263798,-0.016785037,0.2617772,2017-09-30 13:58:37,70.16355625141016
0.4237737,3.289633,10.022128,0.03704111,-0.0722481,-0.017412812,12.0,0.600795,2.7454011,9.395296,-0.1770213,0.54423195,0.62683195,0.14469245,-0.0060321325,0.17110677,2017-09-30 13:58:38,71.05670588053317
0.6943185,2.2984335,9.404425,-0.022613434,0.044929925,-0.0024991103,12.0,0.8207623,2.306065,9.496152,-0.12644377,-0.007631518,-0.09172785,0.123121925,-0.025852699,0.13352938,2017-09-30 13:58:39,71.24895697769338
0.9624691,2.3175871,9.308656,-2.463424E-4,0.032153673,-0.083459206,12.0,0.9033622,2.3075616,9.488371,0.059106853,0.010025719,-0.17971477,0.123530254,-0.031103011,0.12511568,2017-09-30 13:58:40,72.34470219566501
1.055843,2.4851813,9.835381,-0.07694325,-0.08396414,0.044372525,12.0,0.89213943,2.2617724,9.500342,0.16370355,0.22340895,0.3350386,0.12104124,-0.031000413,0.12369863,2017-09-30 13:58:41,69.29111012167378
1.7812861,-0.866701,9.672575,-0.65644765,0.09606661,-1.8603203,13.0,3.0277674,-1.2945149,9.237129,-1.2464813,0.42781392,0.43544543,-0.12243533,-0.11849013,-0.38169166,2017-09-30 13:58:42,72.57606627791458
3.691859,-1.2186487,7.7069354,0.08178301,-0.0051385695,-0.23153096,18.0,2.959832,-0.7873931,9.315989,0.7320272,-0.43125558,-1.6090531,-0.13867101,-0.07604504,-0.71463853,2017-09-30 13:58:43,71.24626317969128
3.371036,-0.9624691,9.801862,1.0415817,0.004457599,0.14237686,20.0,3.804985,1.3570634,8.93576,-0.43394905,-2.3195326,0.86610246,-0.11263728,-0.17807287,-0.76974064,2017-09-30 13:58:44,68.7221155311053
-0.82121116,4.3718123,9.742006,-1.1219636,0.038533278,-0.63952726,18.0,0.197372,3.1031847,9.300576,-1.0185832,1.2686276,0.44143093,-0.0071032774,-0.16047457,-0.9868308,2017-09-30 13:58:45,67.31522735778077
4.309563,0.019153614,8.540117,-0.6820145,0.2547918,-0.61396086,22.0,4.183568,-0.31049803,8.863934,0.12599486,0.32965165,-0.3238158,0.21401934,-0.047485128,0.96553975,2017-09-30 13:58:46,69.81120412904028
5.7867856,0.20111294,8.231265,0.18511659,0.44759268,-0.001433846,27.0,6.3334117,-0.12838906,7.48607,-0.54662615,0.32950202,0.74519527,0.33107463,-0.09330015,0.90875274,2017-09-30 13:58:47,70.26334999702627
5.1882353,-0.7015011,8.286332,-0.19732292,0.09927013,-0.12074346,27.0,5.8271875,-0.28266543,7.88246,-0.63895255,-0.41883567,0.4038719,0.29986683,-0.09046064,0.92142993,2017-09-30 13:58:49,73.97485486225025
5.4204726,0.16998832,7.764396,-0.15897074,-0.0424151,-0.14098349,25.0,5.267094,0.32755673,8.2655325,0.15337855,-0.1575684,-0.50113636,0.27459922,-0.056281805,0.92658144,2017-09-30 13:58:50,69.41901754049779
6.540959,0.5793968,6.7827735,-0.3784168,0.025765019,-0.24431413,22.0,6.2755017,0.6964134,7.503428,0.26545712,-0.117016606,-0.7206547,0.3378126,-0.05753079,0.9030722,2017-09-30 13:58:51,67.736897781475
6.8905125,0.34237084,6.6846113,-0.10996778,0.13441692,-0.112221345,13.0,6.8724065,0.33518824,6.9876275,0.01810615,0.007182605,-0.30301616,0.36694512,-0.095280096,0.8832527,2017-09-30 13:58:52,68.79876106703213
5.997475,0.44532153,8.008605,0.07326489,0.13227256,0.019871444,27.0,6.094141,0.50023854,7.6668324,-0.0966659,-0.054917,0.3417723,0.32199872,-0.07358225,0.8998682,2017-09-30 13:58:53,73.07988630382327
5.9400144,0.5434838,7.7189064,0.023202524,1.6964336E-4,0.01454512,27.0,6.033089,0.61381346,7.706636,-0.09307459,-0.07032967,0.012270284,0.32052675,-0.065790296,0.90166634,2017-09-30 13:58:54,67.98709946594506
5.9543796,0.7110779,7.644686,-0.06627862,0.050235208,-0.019543607,26.0,6.005107,0.6667852,7.7241435,-0.050727148,0.044292733,-0.079457566,0.3197671,-0.0626515,0.9020546,2017-09-30 13:58:55,70.37723943438537
5.9543796,0.81402856,7.503428,-0.015144598,0.0033603767,0.0038922098,26.0,6.054936,0.82151043,7.6701245,-0.10055647,-0.0074818805,-0.1666963,0.3254059,-0.055149406,0.90103287,2017-09-30 13:58:56,70.1397234775884
5.93762,0.81881696,7.7667904,0.024270186,-0.025401764,0.012414325,25.0,5.994931,0.8257003,7.716811,-0.057311203,-0.0068833297,0.04997896,0.3219734,-0.05371405,0.90239257,2017-09-30 13:58:57,70.64153277575028
5.98311,0.82599956,7.589619,-0.003430684,-0.011545336,0.0060227388,25.0,6.05733,0.78440034,7.6720695,-0.074220255,0.041599255,-0.08245032,0.32491922,-0.057042062,0.90113515,2017-09-30 13:58:58,68.54991675172747
6.2105594,0.7062895,7.524976,0.020003002,-0.038172953,-0.018478343,10.0,6.2960024,0.69581485,7.4863696,-0.08544307,0.0104746325,0.038606502,0.33770648,-0.06522113,0.8968089,2017-09-30 13:58:59,70.2568882645091
5.9878983,0.4237737,7.469909,-0.03645761,-0.009407883,0.02093644,8.0,6.0630164,0.47105917,7.6933184,-0.07511808,-0.047285482,-0.22340895,0.32032725,-0.071684554,0.90304106,2017-09-30 13:59:00,70.04351567020805
5.7604494,0.50757074,8.090008,0.02000114,0.007637413,-0.05150154,21.0,5.7468324,0.33294368,7.9391727,0.013617022,0.17462708,0.15083471,0.29897222,-0.07630785,0.9065072,2017-09-30 13:59:01,70.06338756837864
5.7245364,0.4285621,7.908048,0.045567486,0.017224792,0.0038922098,22.0,5.8086324,0.42182842,7.889942,-0.084096335,0.0067336923,0.01810615,0.30389443,-0.07329972,0.9048396,2017-09-30 13:59:02,71.42401033522026
5.6359506,0.6368576,8.032547,0.017872473,0.009763948,0.031589083,23.0,5.782446,0.50502694,7.9043074,-0.14649522,0.13183074,0.12823942,0.304129,-0.06705615,0.90665585,2017-09-30 13:59:03,59.8075781594634
5.777209,0.5793968,7.8170686,0.028521657,0.016162459,0.0038922098,23.0,5.8768673,0.52418053,7.83293,-0.099658646,0.055216275,-0.015861586,0.30994436,-0.067531526,0.90501004,2017-09-30 13:59:04,70.36679781256427