ACC_X,ACC_Y,ACC_Z,TIME,VOICE
-0.060453594,-0.14185645,9.87668,2016-11-05 09:39:40,-Infinity
-0.05865794,-0.11432313,9.945514,2016-11-05 09:39:41,-Infinity
-0.0011971008,-0.1388637,9.965864,2016-11-05 09:39:42,-Infinity
-0.092775315,-0.09876082,9.967062,2016-11-05 09:39:43,-Infinity
-0.06344634,-0.14065935,9.943718,2016-11-05 09:39:44,-Infinity
-0.037708677,-0.13587095,9.953894,2016-11-05 09:39:45,-Infinity
-0.06943185,-0.13587095,9.929952,2016-11-05 09:39:46,-Infinity
-0.059855044,-0.13347675,9.97185,2016-11-05 09:39:47,53.48145296244367
-0.050876785,-0.12749124,9.937733,2016-11-05 09:39:48,47.83687338046775
-0.04070143,-0.1448492,9.935339,2016-11-05 09:39:49,46.819611281564065
-0.05207389,-0.12988544,9.932944,2016-11-05 09:39:50,64.7024591875521
-0.0796072,-0.1328782,9.935937,2016-11-05 09:39:51,54.97096967032624
-0.05327099,-0.12868834,9.954493,2016-11-05 09:39:52,53.692279905747384
-0.050876785,-0.12749124,9.940127,2016-11-05 09:39:53,54.257190395747884
-0.051475335,-0.12270284,9.92636,2016-11-05 09:39:54,46.39216247393251
-0.06943185,-0.12868834,9.902418,2016-11-05 09:39:55,43.67239992730315
-0.047285482,-0.1316811,9.959281,2016-11-05 09:39:56,28.697797439611175
-0.050278235,-0.11372458,9.966463,2016-11-05 09:39:57,56.40929792151107
-0.050876785,-0.12270284,9.929353,2016-11-05 09:39:58,61.12537326245064
-0.049679685,-0.12330139,9.939528,2016-11-05 09:39:59,60.54998750438774
-0.044292733,-0.12150574,9.937134,2016-11-05 09:40:00,38.26487631822091
-0.060453594,-0.1376666,9.9233675,2016-11-05 09:40:01,41.33878467322968
-0.061650693,-0.13227965,9.937134,2016-11-05 09:40:02,61.82041251411634
-0.061052144,-0.1364695,9.9473095,2016-11-05 09:40:03,67.34594286884682
-0.05925649,-0.12928689,9.942521,2016-11-05 09:40:05,37.33723508138564
-0.07062895,-0.12808979,9.932944,2016-11-05 09:40:06,30.993698263898388
-0.06404489,-0.12808979,9.93893,2016-11-05 09:40:07,44.098067349647806
-0.0664391,-0.1340753,9.945514,2016-11-05 09:40:08,70.7239777583745
-0.02932897,-0.12689269,9.958083,2016-11-05 09:40:09,34.93705451688
-0.0700304,-0.12150574,9.929952,2016-11-05 09:40:10,40.177025347815054
-0.05327099,-0.12689269,9.937134,2016-11-05 09:40:11,64.36988045298727
-0.039504327,-0.1340753,9.943718,2016-11-05 09:40:12,46.30813305570881
-0.049679685,-0.1400608,9.940127,2016-11-05 09:40:13,44.89981625368712
-0.05865794,-0.1412579,9.907805,2016-11-05 09:40:14,42.35622965107943
-0.0676362,-0.13347675,9.9550905,2016-11-05 09:40:15,49.80925608534788
-0.060453594,-0.11671733,9.928156,2016-11-05 09:40:16,51.67746985055733
-0.047285482,-0.1412579,9.930551,2016-11-05 09:40:17,54.895592747743876
-0.06344634,-0.1436521,9.959281,2016-11-05 09:40:18,43.51938098380141
-0.06464344,-0.12210429,9.904214,2016-11-05 09:40:19,49.6509271672663
-0.046088383,-0.12389994,9.917382,2016-11-05 09:40:20,70.83060359104823
-0.051475335,-0.11671733,9.907805,2016-11-05 09:40:21,54.45777813395089
-0.0664391,-0.12270284,9.909601,2016-11-05 09:40:22,51.944071165326164
-0.054468088,-0.12210429,9.932944,2016-11-05 09:40:23,52.36661530274027
-0.076015905,-0.1388637,9.940127,2016-11-05 09:40:24,51.7695358076749
-0.076015905,-0.12270284,9.9233675,2016-11-05 09:40:25,37.596602916764404
-0.0700304,-0.11312603,9.931747,2016-11-05 09:40:26,46.71951923178944
-0.06823475,-0.13227965,9.938332,2016-11-05 09:40:27,44.89018908100669
-0.061052144,-0.11492168,9.964069,2016-11-05 09:40:28,40.43211550700469
-0.049679685,-0.11611878,9.949105,2016-11-05 09:40:29,45.87422110843487
-0.07182605,-0.12928689,9.929353,2016-11-05 09:40:30,48.618566518850244
-0.04369418,-0.1364695,9.919776,2016-11-05 09:40:31,45.50067603766558
-0.089184016,-0.11671733,9.92636,2016-11-05 09:40:32,65.03706080565779
-0.05925649,-0.10295067,9.93893,2016-11-05 09:40:33,51.167848455688755
-0.06344634,-0.11312603,9.96347,2016-11-05 09:40:34,50.27688194866635
-0.05686229,-0.12330139,9.923966,2016-11-05 09:40:36,58.30149144171852
-0.05566519,-0.12868834,9.928755,2016-11-05 09:40:37,52.748608356164056
-0.077811554,-0.13587095,9.925163,2016-11-05 09:40:38,54.543184972095546
-0.051475335,-0.130484,9.958083,2016-11-05 09:40:39,56.614662945678376
-0.053869538,-0.1316811,9.931747,2016-11-05 09:40:40,58.730483011805376
-0.05686229,-0.12090719,9.929952,2016-11-05 09:40:41,54.47343831823207
-0.074818805,-0.12210429,9.955689,2016-11-05 09:40:42,48.909468876058924
-0.050876785,-0.12928689,9.94312,2016-11-05 09:40:43,38.317522302291074
-0.04189853,-0.11851298,9.950302,2016-11-05 09:40:44,70.20298456790441
-0.06464344,-0.13587095,9.918579,2016-11-05 09:40:45,49.10281959563555
-0.06344634,-0.11971009,9.922171,2016-11-05 09:40:46,47.97815215080202
-0.04249708,-0.11791443,9.94312,2016-11-05 09:40:47,54.053994215973084
-0.06284779,-0.13706805,9.93474,2016-11-05 09:40:48,62.968757864105555
-0.04189853,-0.11851298,9.930551,2016-11-05 09:40:49,70.40172447931992
-0.0664391,-0.12270284,9.910199,2016-11-05 09:40:50,62.289073259255204
-0.046686932,-0.12928689,9.937733,2016-11-05 09:40:51,61.084230842909506
-0.05686229,-0.11911154,9.940127,2016-11-05 09:40:52,46.701305943067375
-0.047884032,-0.1364695,9.925163,2016-11-05 09:40:53,71.81718662546646
-0.077213004,-0.12330139,9.940127,2016-11-05 09:40:54,56.55614111604714
-0.05925649,-0.10654198,9.945514,2016-11-05 09:40:55,51.43071866002201
-0.049081136,-0.1352724,9.9233675,2016-11-05 09:40:56,55.05453861151957
-0.0700304,-0.12030864,9.928156,2016-11-05 09:40:57,68.57579937025857
-0.061650693,-0.12868834,9.928156,2016-11-05 09:40:58,43.66453601924745
-0.049081136,-0.12988544,9.92636,2016-11-05 09:40:59,38.95769470059925
-0.060453594,-0.107739076,9.948506,2016-11-05 09:41:00,58.91428445275925
-0.048482586,-0.13108255,9.931149,2016-11-05 09:41:01,47.81754365185816
-0.038307227,-0.12270284,9.940127,2016-11-05 09:41:02,52.69820868897721
-0.04189853,-0.11432313,9.928156,2016-11-05 09:41:03,50.304426387328476
-0.060453594,-0.14425065,9.920375,2016-11-05 09:41:04,56.792128085334774
-0.05686229,-0.13108255,9.937134,2016-11-05 09:41:05,68.77501288979728
-0.05626374,-0.142455,9.950901,2016-11-05 09:41:06,56.628854724874685
-0.060453594,-0.11611878,9.936536,2016-11-05 09:41:07,54.38822003901623
-0.030526072,-0.12689269,9.932345,2016-11-05 09:41:08,54.459101057885995
-0.06823475,-0.11671733,9.928156,2016-11-05 09:41:09,67.88907089308965
-0.050278235,-0.12509704,9.933543,2016-11-05 09:41:10,55.1352883836029
-0.04070143,-0.1316811,9.935339,2016-11-05 09:41:11,62.593631524138885
-0.015562311,-0.12569559,9.949105,2016-11-05 09:41:13,62.15180125572615
-0.05566519,-0.12030864,9.92636,2016-11-05 09:41:14,67.87761789732312
-0.04369418,-0.13946225,9.911995,2016-11-05 09:41:15,50.3755320678371
-0.05566519,-0.10414778,9.938332,2016-11-05 09:41:16,53.80501658190988
-0.044292733,-0.130484,9.937733,2016-11-05 09:41:17,58.03965281214392
-0.047884032,-0.12749124,9.932345,2016-11-05 09:41:18,48.74572135326444
-0.05626374,-0.1364695,9.938332,2016-11-05 09:41:19,47.709144829863604
-0.06344634,-0.1340753,9.932345,2016-11-05 09:41:20,51.52761605041675
-0.049081136,-0.12988544,9.93474,2016-11-05 09:41:21,56.55617224869205
-0.060453594,-0.11552023,9.931149,2016-11-05 09:41:22,72.18265335456405
-0.047285482,-0.13706805,9.927557,2016-11-05 09:41:23,58.15911996120411
-0.038905777,-0.10594343,9.930551,2016-11-05 09:41:24,62.823140626413235
-0.05686229,-0.12210429,9.943718,2016-11-05 09:41:25,69.05978130150247
-0.051475335,-0.12689269,9.91439,2016-11-05 09:41:26,68.9902276274311
-0.05327099,-0.13227965,9.946711,2016-11-05 09:41:27,68.1476495839582
-0.048482586,-0.12629414,9.925163,2016-11-05 09:41:28,62.91802369246268
-0.065242,-0.11611878,9.940127,2016-11-05 09:41:29,62.20294543641324
-0.05566519,-0.12868834,9.907805,2016-11-05 09:41:30,69.41333666893333
-0.06284779,-0.12988544,9.966463,2016-11-05 09:41:31,48.228889475692114
-0.0664391,-0.12928689,9.922171,2016-11-05 09:41:32,54.03300847905215
-0.046088383,-0.1388637,9.929952,2016-11-05 09:41:33,67.23258459160687
-0.04129998,-0.12569559,9.926959,2016-11-05 09:41:34,50.570952063141775
-0.053869538,-0.13706805,9.916783,2016-11-05 09:41:35,40.62258140221615
-0.06943185,-0.110731825,9.948506,2016-11-05 09:41:36,48.88695105546151
-0.049679685,-0.12030864,9.91798,2016-11-05 09:41:37,61.57297629893868
-0.04309563,-0.1364695,9.925163,2016-11-05 09:41:38,73.0085673223435
-0.073621705,-0.1328782,9.951499,2016-11-05 09:41:39,54.87508822175882
-0.037110128,-0.1328782,9.91439,2016-11-05 09:41:40,61.00448791858977
-0.05327099,-0.14604631,9.924564,2016-11-05 09:41:41,61.45410621022246
-0.05626374,-0.11252748,9.938332,2016-11-05 09:41:42,71.33509993993118
-0.038905777,-0.14065935,9.9233675,2016-11-05 09:41:43,69.2098957500555
-0.061650693,-0.12270284,9.932944,2016-11-05 09:41:44,54.65711664110839
-0.05566519,-0.12689269,9.946113,2016-11-05 09:41:45,53.255478532737264
-0.048482586,-0.13467385,9.913791,2016-11-05 09:41:46,65.3192391068448
-0.048482586,-0.1340753,9.906608,2016-11-05 09:41:48,45.29578278376423
-0.037708677,-0.12689269,9.903615,2016-11-05 09:41:49,50.67984304197981
-0.050876785,-0.1352724,9.929952,2016-11-05 09:41:50,63.89176679026452
-0.0796072,-0.11432313,9.928156,2016-11-05 09:41:51,51.94838346201871
-0.073023155,-0.13587095,9.940725,2016-11-05 09:41:52,53.92801585624116
-0.038905777,-0.12569559,9.923966,2016-11-05 09:41:53,54.24994481390591
-0.0676362,-0.12330139,9.925761,2016-11-05 09:41:54,63.4352042069795
-0.05327099,-0.12090719,9.961675,2016-11-05 09:41:55,64.24924696079987
-0.05267244,-0.12330139,9.944317,2016-11-05 09:41:56,65.23919119400473
-0.047285482,-0.130484,9.905411,2016-11-05 09:41:57,57.37727679376542
-0.05626374,-0.1400608,9.904214,2016-11-05 09:41:58,62.71558537775657
-0.03232172,-0.1388637,9.922171,2016-11-05 09:41:59,69.00985358146227
-0.06703765,-0.1328782,9.912594,2016-11-05 09:42:00,64.80444188182102
-0.047285482,-0.12449849,9.905411,2016-11-05 09:42:01,60.90868741367118
-0.059855044,-0.12330139,9.944916,2016-11-05 09:42:02,62.82820027729173
-0.049679685,-0.11432313,9.926959,2016-11-05 09:42:03,66.47341459200815
-0.048482586,-0.11552023,9.916184,2016-11-05 09:42:04,34.957563165570306
-0.055066638,-0.1364695,9.911396,2016-11-05 09:42:05,30.29043717827973
-0.039504327,-0.12569559,9.925761,2016-11-05 09:42:06,47.047337618768886
-0.047884032,-0.11492168,9.925761,2016-11-05 09:42:07,34.737145500752995
-0.04249708,-0.12449849,9.934141,2016-11-05 09:42:08,38.635735853594056
-0.061052144,-0.12988544,9.922171,2016-11-05 09:42:09,46.99689630906878
-0.065242,-0.1352724,9.909002,2016-11-05 09:42:10,46.7144303519862
-0.05267244,-0.12449849,9.942521,2016-11-05 09:42:11,68.37086042700062
-0.04070143,-0.1316811,9.940127,2016-11-05 09:42:12,59.029883145571496
-0.06703765,-0.13587095,9.947908,2016-11-05 09:42:13,55.93600494688385
-0.05865794,-0.14185645,9.931747,2016-11-05 09:42:14,52.81365079321396
-0.053869538,-0.1352724,9.935937,2016-11-05 09:42:15,57.59079418592394
-0.05686229,-0.1364695,9.921572,2016-11-05 09:42:16,58.83907245796734
-0.05686229,-0.1316811,9.931747,2016-11-05 09:42:18,52.77096739638205
-0.046088383,-0.11671733,9.92636,2016-11-05 09:42:19,60.04090011386686
-0.062249243,-0.1328782,9.937134,2016-11-05 09:42:20,62.75986344123753
-0.050876785,-0.13706805,9.926959,2016-11-05 09:42:21,46.85762109669778
-0.037110128,-0.12449849,9.914988,2016-11-05 09:42:22,41.95644654308392
-0.054468088,-0.11791443,9.93474,2016-11-05 09:42:23,65.4091184484428
-0.053869538,-0.11671733,9.911396,2016-11-05 09:42:24,41.72331594829569
-0.05327099,-0.12928689,9.937733,2016-11-05 09:42:25,35.17382726489746
-0.0724246,-0.12689269,9.93893,2016-11-05 09:42:26,54.78514757723086
-0.05746084,-0.13587095,9.897031,2016-11-05 09:42:27,63.41392333392009
-0.049081136,-0.13227965,9.929353,2016-11-05 09:42:28,67.24708016447215
-0.0664391,-0.12150574,9.921572,2016-11-05 09:42:29,67.47400886048919
-0.04249708,-0.12090719,9.909002,2016-11-05 09:42:30,67.32951087698916
-0.04309563,-0.12868834,9.925163,2016-11-05 09:42:31,58.44647336216036
-0.039504327,-0.12090719,9.935937,2016-11-05 09:42:32,69.09933155440511
-0.06943185,-0.1340753,9.920973,2016-11-05 09:42:33,51.28235115018647
-0.048482586,-0.11492168,9.946113,2016-11-05 09:42:34,50.081333870707184
-0.044891283,-0.107140526,9.944317,2016-11-05 09:42:35,44.52216632386633
-0.054468088,-0.12629414,9.9550905,2016-11-05 09:42:36,69.72609036932519
-0.038307227,-0.1448492,9.908403,2016-11-05 09:42:37,57.622394906514735
-0.05686229,-0.12569559,9.92636,2016-11-05 09:42:38,58.877822706647514
-0.06823475,-0.14724341,9.932944,2016-11-05 09:42:39,53.69835850255228
-0.05626374,-0.13587095,9.96766,2016-11-05 09:42:40,51.216197894302326
-0.054468088,-0.142455,9.914988,2016-11-05 09:42:41,54.35076857147695
-0.047884032,-0.13467385,9.939528,2016-11-05 09:42:42,54.16285345134233
-0.059855044,-0.12030864,9.910798,2016-11-05 09:42:43,50.33237469054931
-0.05207389,-0.1352724,9.915586,2016-11-05 09:42:44,58.98406338625676
-0.05686229,-0.13826515,9.922171,2016-11-05 09:42:45,52.75726047397967
-0.055066638,-0.12868834,9.920375,2016-11-05 09:42:46,67.03220491765725
-0.06943185,-0.1316811,9.916184,2016-11-05 09:42:47,75.00841175284785
-0.053869538,-0.12808979,9.903017,2016-11-05 09:42:48,51.48791827038185
-0.046088383,-0.1316811,9.923966,2016-11-05 09:42:49,39.267333415172075
-0.046088383,-0.12629414,9.950901,2016-11-05 09:42:50,62.91810935202906
-0.05805939,-0.12629414,9.919178,2016-11-05 09:42:51,70.1911667941579
-0.06344634,-0.1316811,9.9233675,2016-11-05 09:42:52,69.27567139101862
-0.023343466,-0.1340753,9.9233675,2016-11-05 09:42:54,43.962887258184125
-0.045489833,-0.12988544,9.910199,2016-11-05 09:42:55,38.055486432144974
-0.05805939,-0.1376666,9.923966,2016-11-05 09:42:56,67.43459651142747
-0.04309563,-0.13946225,9.910199,2016-11-05 09:42:57,52.80533228596269
-0.045489833,-0.12928689,9.94312,2016-11-05 09:42:58,48.37776132980387
-0.040102877,-0.108337626,9.91439,2016-11-05 09:42:59,48.23357081019921
-0.065242,-0.12629414,9.923966,2016-11-05 09:43:00,56.794593034626004
-0.037110128,-0.12210429,9.934141,2016-11-05 09:43:01,53.45796214599005
-0.05746084,-0.13467385,9.911995,2016-11-05 09:43:02,48.17865578426365
-0.039504327,-0.14425065,9.918579,2016-11-05 09:43:03,44.45786969320828
-0.050876785,-0.11671733,9.909002,2016-11-05 09:43:04,48.64877418099062
-0.038905777,-0.11911154,9.925163,2016-11-05 09:43:05,70.1378326083574
-0.05865794,-0.12330139,9.900622,2016-11-05 09:43:06,58.419762416401255
-0.047285482,-0.12030864,9.931747,2016-11-05 09:43:07,58.164871682801326
-0.05327099,-0.12689269,9.916184,2016-11-05 09:43:08,50.048549378526175
-0.04129998,-0.12330139,9.925761,2016-11-05 09:43:09,65.64638134491236
-0.06404489,-0.12689269,9.937134,2016-11-05 09:43:10,44.82665895836165
-0.053869538,-0.12868834,9.938332,2016-11-05 09:43:11,32.445221929358944
-0.05327099,-0.1316811,9.916184,2016-11-05 09:43:12,62.60187803420426
-0.038905777,-0.1388637,9.917382,2016-11-05 09:43:13,52.321033022966205
-0.048482586,-0.110133275,9.8994255,2016-11-05 09:43:14,41.51629234609302
-0.049081136,-0.12210429,9.941324,2016-11-05 09:43:15,46.39178682325557
-0.046686932,-0.11432313,9.903615,2016-11-05 09:43:16,56.89217058641053
-0.059855044,-0.11911154,9.910798,2016-11-05 09:43:17,64.99819882466642
-0.051475335,-0.11911154,9.927557,2016-11-05 09:43:18,56.2308488334526
-0.050278235,-0.12270284,9.945514,2016-11-05 09:43:19,60.208911194885886
-0.05805939,-0.13946225,9.922171,2016-11-05 09:43:20,47.53597252699087
-0.029927522,-0.14425065,9.946711,2016-11-05 09:43:21,70.71340189011762
-0.032920275,-0.12808979,9.929353,2016-11-05 09:43:22,60.80485240470716
-0.061052144,-0.1316811,9.901819,2016-11-05 09:43:23,60.91561121685332
-0.04249708,-0.14724341,9.939528,2016-11-05 09:43:24,53.622367480062394
-0.04070143,-0.12150574,9.9233675,2016-11-05 09:43:25,64.7938731423135
-0.046686932,-0.1340753,9.93893,2016-11-05 09:43:26,51.32596809456388
-0.065242,-0.12389994,9.940127,2016-11-05 09:43:27,56.13664319911273
-0.049679685,-0.1316811,9.924564,2016-11-05 09:43:29,60.00147044858509
-0.06584055,-0.12150574,9.901221,2016-11-05 09:43:30,51.31971094899047
-0.07182605,-0.13347675,9.916184,2016-11-05 09:43:31,57.01066568013323
-0.039504327,-0.12569559,9.938332,2016-11-05 09:43:32,58.5746145181233
-0.039504327,-0.1328782,9.921572,2016-11-05 09:43:33,63.614927825206856
-0.06404489,-0.11671733,9.931747,2016-11-05 09:43:34,62.1887761201568
-0.050278235,-0.13467385,9.941922,2016-11-05 09:43:35,61.68180408701498
-0.05746084,-0.13826515,9.911396,2016-11-05 09:43:36,63.59268163268272
-0.038307227,-0.13227965,9.927557,2016-11-05 09:43:37,70.98235906960217
-0.05207389,-0.11671733,9.946711,2016-11-05 09:43:38,72.04404001906394
-0.02813187,-0.12210429,9.913791,2016-11-05 09:43:39,61.40936611873236
-0.04129998,-0.1388637,9.931747,2016-11-05 09:43:40,64.56156628226216
-0.03172317,-0.108936176,9.934141,2016-11-05 09:43:41,67.4743791065732
-0.053869538,-0.11611878,9.94312,2016-11-05 09:43:42,70.15782860206461
-0.040102877,-0.1436521,9.944916,2016-11-05 09:43:43,42.16097997213373
-0.029927522,-0.13108255,9.916783,2016-11-05 09:43:44,33.41704020093749
-0.049081136,-0.1400608,9.907207,2016-11-05 09:43:45,61.19143437908945
-0.051475335,-0.12569559,9.91798,2016-11-05 09:43:46,30.322875253110894
-0.04369418,-0.12868834,9.927557,2016-11-05 09:43:47,34.64249158386745
-0.05686229,-0.12629414,9.935937,2016-11-05 09:43:48,39.75844077632025
-0.061052144,-0.13587095,9.915586,2016-11-05 09:43:49,51.89728424335917
-0.05267244,-0.11252748,9.911995,2016-11-05 09:43:50,69.49533001397864
-0.045489833,-0.1328782,9.950302,2016-11-05 09:43:51,52.456194238928845
-0.053869538,-0.11671733,9.937733,2016-11-05 09:43:52,52.0696554937973
-0.033518825,-0.12988544,9.919776,2016-11-05 09:43:53,49.15980309384386
-0.035314474,-0.13108255,9.93893,2016-11-05 09:43:54,70.37270161020304
-0.05865794,-0.12150574,9.935339,2016-11-05 09:43:55,62.55177368358528
-0.049679685,-0.1340753,9.928156,2016-11-05 09:43:56,48.72220647033213
-0.050876785,-0.13227965,9.897031,2016-11-05 09:43:57,44.25527750456732
-0.04189853,-0.14185645,9.916783,2016-11-05 09:43:58,59.11842634012987
-0.049081136,-0.11671733,9.925163,2016-11-05 09:43:59,46.324691553990576
-0.037110128,-0.14185645,9.932345,2016-11-05 09:44:01,32.1178276255185
-0.045489833,-0.13706805,9.928755,2016-11-05 09:44:02,57.81432611631818
-0.04309563,-0.12030864,9.928156,2016-11-05 09:44:03,45.15731358841032
-0.050876785,-0.1316811,9.955689,2016-11-05 09:44:04,51.39340398415697
-0.04369418,-0.1436521,9.925163,2016-11-05 09:44:05,49.451691196935315
-0.05746084,-0.12928689,9.92636,2016-11-05 09:44:06,53.45999373274865
-0.033518825,-0.130484,9.916783,2016-11-05 09:44:07,58.60200090560895
-0.040102877,-0.13347675,9.913192,2016-11-05 09:44:08,56.34991248406632
-0.046686932,-0.11492168,9.924564,2016-11-05 09:44:09,63.042687077646576
-0.029927522,-0.12509704,9.922171,2016-11-05 09:44:10,50.95196515789247
-0.034715924,-0.12509704,9.925163,2016-11-05 09:44:11,67.69553366845464
-0.06344634,-0.12210429,9.903017,2016-11-05 09:44:12,52.10304755577055
-0.040102877,-0.12988544,9.907207,2016-11-05 09:44:13,59.350216864414485
-0.074818805,-0.12629414,9.905411,2016-11-05 09:44:14,60.63145418832768
-0.036511578,-0.11611878,9.932944,2016-11-05 09:44:15,60.45173516398938
-0.04189853,-0.13347675,9.891046,2016-11-05 09:44:16,54.58994409444217
-0.046088383,-0.12928689,9.959879,2016-11-05 09:44:17,45.73643631723763
-0.05626374,-0.15203181,9.940127,2016-11-05 09:44:18,64.55371585866581
-0.045489833,-0.12928689,9.920973,2016-11-05 09:44:19,31.534165784938676
-0.051475335,-0.12808979,9.909002,2016-11-05 09:44:20,33.92483709798639
-0.050876785,-0.12868834,9.935937,2016-11-05 09:44:21,44.3425774114234
-0.048482586,-0.13467385,9.909002,2016-11-05 09:44:22,51.893399988487374
-0.05267244,-0.12150574,9.916783,2016-11-05 09:44:23,68.95003048860048
-0.061052144,-0.12928689,9.886856,2016-11-05 09:44:24,51.67045751170909
-0.05566519,-0.1364695,9.909002,2016-11-05 09:44:25,58.34429253968683
-0.04249708,-0.14185645,9.925163,2016-11-05 09:44:26,52.82167084496162
-0.050876785,-0.13946225,9.920973,2016-11-05 09:44:28,69.78921319858786
-0.034715924,-0.12509704,9.914988,2016-11-05 09:44:29,52.91941987550637
-0.05327099,-0.11971009,9.903017,2016-11-05 09:44:30,46.69402574361334
-0.04249708,-0.1328782,9.928156,2016-11-05 09:44:31,43.72624083944829
-0.038905777,-0.1376666,9.91798,2016-11-05 09:44:32,62.60549381202508
-0.022146367,-0.12928689,9.945514,2016-11-05 09:44:33,49.77374629503483
-0.054468088,-0.12928689,9.924564,2016-11-05 09:44:34,42.62993470683255
-0.060453594,-0.142455,9.9233675,2016-11-05 09:44:35,59.28694782934868
-0.061650693,-0.11731588,9.905411,2016-11-05 09:44:36,46.28616651406354
-0.06284779,-0.13946225,9.916783,2016-11-05 09:44:37,50.43722644473067
-0.029927522,-0.1352724,9.911995,2016-11-05 09:44:38,56.690738209640344
-0.04129998,-0.12629414,9.926959,2016-11-05 09:44:39,60.734321955266296
-0.061052144,-0.1376666,9.907805,2016-11-05 09:44:40,55.56738608197372
-0.046088383,-0.11372458,9.923966,2016-11-05 09:44:41,55.24638275999092
-0.047884032,-0.12569559,9.931149,2016-11-05 09:44:42,60.39833786399519
-0.02873042,-0.12988544,9.920375,2016-11-05 09:44:43,62.04682692621298
-0.06284779,-0.1316811,9.93474,2016-11-05 09:44:44,66.34176073898045
-0.02932897,-0.12509704,9.917382,2016-11-05 09:44:45,63.50659510020808
-0.05805939,-0.13467385,9.911396,2016-11-05 09:44:46,61.547365566180915
-0.02932897,-0.14065935,9.91439,2016-11-05 09:44:47,62.195141187328105
-0.05327099,-0.14544775,9.907805,2016-11-05 09:44:48,71.90434851609864
-0.05566519,-0.11791443,9.919776,2016-11-05 09:44:49,46.72901108085967
-0.05267244,-0.11192893,9.894637,2016-11-05 09:44:50,46.752230358813954
-0.044891283,-0.12330139,9.934141,2016-11-05 09:44:51,56.47673686254713
-0.045489833,-0.13467385,9.922769,2016-11-05 09:44:52,48.12208538941253
-0.032920275,-0.12509704,9.906608,2016-11-05 09:44:53,51.90630234287063
-0.037110128,-0.130484,9.949105,2016-11-05 09:44:54,57.3249009063384
-0.04129998,-0.13108255,9.894637,2016-11-05 09:44:55,59.68018402029748
-0.04309563,-0.13108255,9.903017,2016-11-05 09:44:56,69.79762031074114
-0.049081136,-0.12449849,9.934141,2016-11-05 09:44:57,44.27888053192086
-0.036511578,-0.12210429,9.928156,2016-11-05 09:44:58,57.784831235839945
-0.06404489,-0.12629414,9.936536,2016-11-05 09:44:59,65.7984895980322
-0.046088383,-0.12868834,9.934141,2016-11-05 09:45:00,69.19395457101498
-0.060453594,-0.13706805,9.928755,2016-11-05 09:45:01,62.808857964550775
-0.04369418,-0.12928689,9.913791,2016-11-05 09:45:02,65.5170095962957
-0.04249708,-0.1352724,9.908403,2016-11-05 09:45:03,64.05281347761894
-0.07062895,-0.130484,9.886856,2016-11-05 09:45:05,48.377733921991606
-0.05327099,-0.12270284,9.929952,2016-11-05 09:45:06,52.50550149157859
-0.045489833,-0.12449849,9.915586,2016-11-05 09:45:07,50.7221617964477
-0.05805939,-0.13108255,9.939528,2016-11-05 09:45:08,51.95523060286736
-0.051475335,-0.14604631,9.903615,2016-11-05 09:45:09,43.007726678211704
-0.034117375,-0.1328782,9.928755,2016-11-05 09:45:10,31.25009303728186
-0.02932897,-0.12389994,9.90601,2016-11-05 09:45:11,29.222468607776968
-0.044891283,-0.12389994,9.936536,2016-11-05 09:45:12,50.40368492848511
-0.04070143,-0.12210429,9.91439,2016-11-05 09:45:13,70.28819544114391
-0.047884032,-0.13706805,9.940725,2016-11-05 09:45:14,49.78338211181905
-0.06464344,-0.12509704,9.936536,2016-11-05 09:45:15,62.1010748419375
-0.060453594,-0.130484,9.906608,2016-11-05 09:45:16,64.0286196766523
-0.06404489,-0.11611878,9.912594,2016-11-05 09:45:17,53.4680909862321
-0.04369418,-0.13108255,9.914988,2016-11-05 09:45:18,51.804472281041356
-0.073023155,-0.12749124,9.913192,2016-11-05 09:45:19,53.024710815934
-0.025139118,-0.093972415,10.03769,2016-11-05 09:45:20,49.78410019280708
-0.05686229,-0.20051439,9.904813,2016-11-05 09:45:21,48.142084192039
-0.022744916,-0.12150574,9.911396,2016-11-05 09:45:22,45.052325882018664
-0.05207389,-0.108337626,9.919178,2016-11-05 09:45:23,27.748999977821036
-0.06703765,-0.14784196,9.8916445,2016-11-05 09:45:24,61.13650821200749
-0.04070143,-0.12629414,9.925761,2016-11-05 09:45:25,46.64145913950076
-0.05566519,-0.1340753,9.908403,2016-11-05 09:45:26,48.21665103804562
-0.06823475,-0.12090719,9.940725,2016-11-05 09:45:27,48.5614007599164
-0.046088383,-0.1388637,9.93474,2016-11-05 09:45:28,49.98715481358623
-0.054468088,-0.12389994,9.894038,2016-11-05 09:45:29,57.986607108282215
-0.05686229,-0.14065935,9.89763,2016-11-05 09:45:30,59.49574612704684
-0.053869538,-0.12689269,9.942521,2016-11-05 09:45:31,56.500805644036085
-0.04129998,-0.12928689,9.929952,2016-11-05 09:45:32,47.49128568915477
-0.022744916,-0.12808979,9.904813,2016-11-05 09:45:33,68.39984156185263
-0.047884032,-0.130484,9.943718,2016-11-05 09:45:34,63.127931747920265
-0.044891283,-0.12569559,9.934141,2016-11-05 09:45:35,58.66644766623999
-0.045489833,-0.12988544,9.937134,2016-11-05 09:45:36,56.81356850064076
-0.049081136,-0.12808979,9.925761,2016-11-05 09:45:37,62.06697487295167
-0.06823475,-0.13826515,9.90601,2016-11-05 09:45:38,46.923799724506736
-0.03232172,-0.13587095,9.928755,2016-11-05 09:45:39,29.465581850680714
-0.049679685,-0.1328782,9.922171,2016-11-05 09:45:41,56.16851872790641
-0.040102877,-0.12449849,9.895834,2016-11-05 09:45:42,39.96396598423735
-0.059855044,-0.12988544,9.914988,2016-11-05 09:45:43,47.50988297885927
-0.04129998,-0.1340753,9.906608,2016-11-05 09:45:44,56.07055670754995
-0.035913024,-0.13108255,9.922171,2016-11-05 09:45:45,63.28922621265733
-0.05566519,-0.130484,9.925761,2016-11-05 09:45:46,64.56321328202488
-0.046686932,-0.13108255,9.937134,2016-11-05 09:45:47,64.11752610982958
-0.06464344,-0.13227965,9.935937,2016-11-05 09:45:48,66.7317811333011
-0.04249708,-0.13108255,9.923966,2016-11-05 09:45:49,48.715576853542835
-0.05805939,-0.142455,9.925163,2016-11-05 09:45:50,66.6057120545286
-0.062249243,-0.1388637,9.929952,2016-11-05 09:45:51,58.74804675191782
-0.045489833,-0.12449849,9.919178,2016-11-05 09:45:52,54.265281265461276
-0.062249243,-0.1352724,9.928156,2016-11-05 09:45:53,57.02570870486706
-0.034117375,-0.130484,9.918579,2016-11-05 09:45:54,69.7093195458739
-0.04070143,-0.14065935,9.930551,2016-11-05 09:45:55,23.96929098362464
-0.0676362,-0.13108255,9.937733,2016-11-05 09:45:56,22.164628106751735
-0.0664391,-0.1352724,9.901819,2016-11-05 09:45:57,61.93898958813478
-0.06284779,-0.13826515,9.904813,2016-11-05 09:45:58,47.66681920349086
-0.037708677,-0.13227965,9.9233675,2016-11-05 09:45:59,48.28552578227851
-0.047285482,-0.14963761,9.951499,2016-11-05 09:46:00,39.12544534652196
-0.05925649,-0.1328782,9.895834,2016-11-05 09:46:01,51.09017833010824
-0.04309563,-0.14065935,9.927557,2016-11-05 09:46:02,67.70030912536421
-0.020350715,-0.130484,9.924564,2016-11-05 09:46:03,45.5483685008616
-0.04070143,-0.13227965,9.907207,2016-11-05 09:46:04,39.28050180459605
-0.0688333,-0.12988544,9.931149,2016-11-05 09:46:05,36.59298352262851
-0.049679685,-0.12988544,9.961675,2016-11-05 09:46:06,70.9790273614649
-0.05865794,-0.142455,9.915586,2016-11-05 09:46:07,66.23328125463155
-0.05566519,-0.1376666,9.928755,2016-11-05 09:46:08,61.028396025106744
-0.050876785,-0.12868834,9.914988,2016-11-05 09:46:09,54.130764914915986
-0.053869538,-0.12868834,9.920375,2016-11-05 09:46:10,47.54440484484901
-0.040102877,-0.13946225,9.910199,2016-11-05 09:46:11,43.8710277898315
-0.045489833,-0.12330139,9.903017,2016-11-05 09:46:12,31.590283143406552
-0.05865794,-0.12808979,9.922769,2016-11-05 09:46:14,46.74767993864725
-0.06344634,-0.12629414,9.915586,2016-11-05 09:46:15,51.509128938858204
-0.027533319,-0.12928689,9.910798,2016-11-05 09:46:16,54.13262348586849
-0.060453594,-0.12569559,9.936536,2016-11-05 09:46:17,53.24367704237099
-0.04070143,-0.11851298,9.915586,2016-11-05 09:46:18,50.79071595469336
-0.0664391,-0.130484,9.89763,2016-11-05 09:46:19,64.93908593364486
-0.045489833,-0.12689269,9.915586,2016-11-05 09:46:20,41.73547180345557
-0.055066638,-0.14425065,9.916184,2016-11-05 09:46:21,47.71324257067734
-0.06703765,-0.1328782,9.911995,2016-11-05 09:46:22,45.81040622529163
-0.04129998,-0.1328782,9.925761,2016-11-05 09:46:23,51.97647545585425
-0.055066638,-0.13227965,9.904813,2016-11-05 09:46:24,65.92919144071648
-0.050876785,-0.1448492,9.900622,2016-11-05 09:46:25,67.92249612782634
-0.05267244,-0.12928689,9.916184,2016-11-05 09:46:26,68.74920047680067
-0.04369418,-0.130484,9.91439,2016-11-05 09:46:27,69.06346372850226
-0.05327099,-0.11192893,9.946113,2016-11-05 09:46:28,51.59585548479452
-0.0700304,-0.13227965,9.926959,2016-11-05 09:46:29,53.05128185256727
-0.039504327,-0.12210429,9.900024,2016-11-05 09:46:30,43.57418279486659
-0.040102877,-0.12569559,9.923966,2016-11-05 09:46:31,31.735468163070482
-0.05207389,-0.1364695,9.940127,2016-11-05 09:46:32,19.18620010306433
-0.047884032,-0.12928689,9.908403,2016-11-05 09:46:33,38.518365769068204
-0.049679685,-0.13347675,9.941324,2016-11-05 09:46:34,45.94860573637738
-0.02813187,-0.1316811,9.900024,2016-11-05 09:46:35,71.21974137085762
-0.04309563,-0.12270284,9.901221,2016-11-05 09:46:36,56.15480716729124
-0.050876785,-0.12808979,9.920375,2016-11-05 09:46:37,63.019079168465055
-0.079008654,-0.12569559,9.927557,2016-11-05 09:46:38,66.32087942152775
-0.050278235,-0.1328782,9.91439,2016-11-05 09:46:39,60.39217222891046
-0.047884032,-0.12629414,9.927557,2016-11-05 09:46:40,51.71096562539355
-0.0676362,-0.13227965,9.928156,2016-11-05 09:46:41,42.05613944787403
-0.050278235,-0.12629414,9.917382,2016-11-05 09:46:42,49.28475338669344
-0.061650693,-0.11911154,9.909002,2016-11-05 09:46:43,55.560111354650985
-0.037110128,-0.12150574,9.920973,2016-11-05 09:46:44,48.72355485149036
-0.054468088,-0.1364695,9.903017,2016-11-05 09:46:45,31.396902216529227
-0.04369418,-0.13347675,9.924564,2016-11-05 09:46:46,63.932045601567836
-0.049081136,-0.12389994,9.913192,2016-11-05 09:46:47,34.901622267690044
-0.061052144,-0.14065935,9.900622,2016-11-05 09:46:48,47.92316688420858
-0.049679685,-0.12509704,9.902418,2016-11-05 09:46:50,48.942295344613136
-0.04369418,-0.12330139,9.904214,2016-11-05 09:46:51,46.864855860561896
-0.04249708,-0.12689269,9.913791,2016-11-05 09:46:52,53.24506581399035
-0.050278235,-0.11133038,9.925761,2016-11-05 09:46:53,56.69905847463763
-0.05566519,-0.11731588,9.913192,2016-11-05 09:46:54,53.57593170020755
-0.061052144,-0.13587095,9.917382,2016-11-05 09:46:55,49.37175251623393
-0.031124622,-0.12808979,9.895834,2016-11-05 09:46:56,68.73533447330699
-0.04309563,-0.11911154,9.910199,2016-11-05 09:46:57,56.901825053440696
-0.05566519,-0.12030864,9.926959,2016-11-05 09:46:58,52.909671963286414
-0.0712275,-0.54887074,9.948506,2016-11-05 09:46:59,59.700287634276776
-0.049081136,-0.12808979,9.911396,2016-11-05 09:47:00,55.572547174160405
-0.04249708,-0.12270284,9.90601,2016-11-05 09:47:01,46.490339252105876
-0.05925649,-0.12808979,9.925163,2016-11-05 09:47:02,51.142965218453625
-0.048482586,-0.13227965,9.934141,2016-11-05 09:47:03,61.87773070599741
-0.02873042,-0.11971009,9.903017,2016-11-05 09:47:04,46.44667801496642
-0.08020575,-0.12868834,9.915586,2016-11-05 09:47:05,39.59634413679611
-0.05207389,-0.12629414,9.956886,2016-11-05 09:47:06,49.11211159543116
-0.033518825,-0.13227965,9.9473095,2016-11-05 09:47:07,41.9993977828626
-0.046088383,-0.14784196,9.933543,2016-11-05 09:47:08,67.71856170734497
-0.06584055,-0.12988544,9.927557,2016-11-05 09:47:09,57.91932215136012
-0.06404489,-0.12988544,9.920973,2016-11-05 09:47:10,57.14748567030515
-0.047884032,-0.12988544,9.944916,2016-11-05 09:47:11,59.35108583375386
-0.05746084,-0.12030864,9.91798,2016-11-05 09:47:12,68.18943497802667
-0.049081136,-0.13347675,9.940127,2016-11-05 09:47:13,54.71718226142541
-0.039504327,-0.1364695,9.919178,2016-11-05 09:47:14,48.75236411605507
-0.05686229,-0.12689269,9.934141,2016-11-05 09:47:15,52.520983120753534
-0.065242,-0.14065935,9.901819,2016-11-05 09:47:17,56.97544054050474
-0.04369418,-0.1316811,9.902418,2016-11-05 09:47:18,47.483806055380995
-0.05865794,-0.12988544,9.914988,2016-11-05 09:47:19,45.02095212005565
-0.04249708,-0.130484,9.907207,2016-11-05 09:47:20,47.54475957864422
-0.05746084,-0.12210429,9.931747,2016-11-05 09:47:21,38.17293643950039
-0.049081136,-0.14065935,9.916783,2016-11-05 09:47:22,35.72498038323435
-0.05207389,-0.12988544,9.912594,2016-11-05 09:47:23,42.55997006359693
-0.07182605,-0.1364695,9.918579,2016-11-05 09:47:24,43.20854942721411
-0.05925649,-0.1328782,9.903017,2016-11-05 09:47:25,46.280163627710195
-0.037110128,-0.12928689,9.923966,2016-11-05 09:47:26,55.02268916820821
-0.049679685,-0.12629414,9.927557,2016-11-05 09:47:27,60.95936838873765
-0.040102877,-0.11731588,9.929952,2016-11-05 09:47:28,55.25573477684162
-0.06823475,-0.1448492,9.919776,2016-11-05 09:47:29,57.249393082144245
-0.050876785,-0.12210429,9.935339,2016-11-05 09:47:30,54.122715735218385
-0.05267244,-0.11552023,9.901221,2016-11-05 09:47:31,53.2559836206
-0.035913024,-0.1412579,9.904214,2016-11-05 09:47:32,46.5870645702956
-0.04129998,-0.12868834,9.91439,2016-11-05 09:47:33,58.2726885710166
-0.040102877,-0.14185645,9.89344,2016-11-05 09:47:34,47.72127165987706
-0.05925649,-0.12689269,9.915586,2016-11-05 09:47:35,52.98565984359505
-0.05805939,-0.11192893,9.942521,2016-11-05 09:47:36,58.81257005155791
-0.047285482,-0.11791443,9.908403,2016-11-05 09:47:37,51.53674095834698
-0.046686932,-0.1388637,9.918579,2016-11-05 09:47:38,43.05741817042029
-0.0676362,-0.12150574,9.931747,2016-11-05 09:47:39,57.96949056181677
-0.050876785,-0.13227965,9.913791,2016-11-05 09:47:40,64.43698589799074
-0.047285482,-0.12749124,9.932944,2016-11-05 09:47:41,54.280996429094735
-0.06404489,-0.142455,9.931747,2016-11-05 09:47:42,52.01062576797523
-0.06344634,-0.12330139,9.936536,2016-11-05 09:47:44,62.820839798402794
-0.037708677,-0.13227965,9.935937,2016-11-05 09:47:45,67.7330086461718
-0.046088383,-0.12449849,9.91439,2016-11-05 09:47:46,68.55562408063187
-0.026934769,-0.12689269,9.92636,2016-11-05 09:47:47,62.19280350551921
-0.05207389,-0.12988544,9.929353,2016-11-05 09:47:48,59.548598242407856
-0.040102877,-0.12569559,9.900024,2016-11-05 09:47:49,50.29384044045646
-0.04070143,-0.13347675,9.898827,2016-11-05 09:47:50,69.95032289355694
-0.045489833,-0.11791443,9.929353,2016-11-05 09:47:51,36.81980548277471
-0.045489833,-0.13108255,9.919776,2016-11-05 09:47:52,33.609441010419886
-0.036511578,-0.12150574,9.904214,2016-11-05 09:47:53,52.173279238654054
-0.049081136,-0.12749124,9.912594,2016-11-05 09:47:54,52.46261819315321
-0.049679685,-0.1328782,9.925761,2016-11-05 09:47:55,47.48618424402157
-0.05746084,-0.13347675,9.909601,2016-11-05 09:47:56,44.168909656138815
-0.06284779,-0.12749124,9.932944,2016-11-05 09:47:57,54.748173430518506
-0.060453594,-0.11731588,9.905411,2016-11-05 09:47:58,64.04807822215007
-0.053869538,-0.12988544,9.92636,2016-11-05 09:47:59,63.00413649545071
-0.030526072,-0.11851298,9.91798,2016-11-05 09:48:00,44.894413049586575
-0.05566519,-0.11731588,9.90601,2016-11-05 09:48:01,52.64062882978923
-0.013766659,-0.12449849,9.907805,2016-11-05 09:48:02,58.408775093731855
-0.02813187,-0.11971009,9.933543,2016-11-05 09:48:03,68.90944085474678
-0.065242,-0.13227965,9.917382,2016-11-05 09:48:04,65.53916811287169
-0.050876785,-0.12389994,9.911995,2016-11-05 09:48:05,56.68475128365161
-0.06344634,-0.12988544,9.900024,2016-11-05 09:48:06,59.32546348194325
-0.045489833,-0.13946225,9.9233675,2016-11-05 09:48:07,52.424556028686375
-0.049081136,-0.14305355,9.928755,2016-11-05 09:48:08,33.825353861538325
-0.049081136,-0.13108255,9.930551,2016-11-05 09:48:09,68.84485062038095
-0.08559271,-0.14065935,9.904214,2016-11-05 09:48:11,51.7391343047365
-0.039504327,-0.12270284,9.922769,2016-11-05 09:48:12,50.61734553998045
-0.048482586,-0.11971009,9.909002,2016-11-05 09:48:13,48.057097356787814
-0.044292733,-0.12090719,9.916783,2016-11-05 09:48:14,55.68436484071755
-0.050876785,-0.12629414,9.918579,2016-11-05 09:48:15,70.46504833546906
-0.053869538,-0.11851298,9.886257,2016-11-05 09:48:16,60.754622668511644
-0.06284779,-0.11971009,9.929952,2016-11-05 09:48:17,64.28711793832028
-0.06284779,-0.1436521,9.920973,2016-11-05 09:48:18,45.74343015439905
-0.040102877,-0.12928689,9.926959,2016-11-05 09:48:19,71.08540632986117
-0.05626374,-0.12330139,9.904214,2016-11-05 09:48:20,59.94463698204669
-0.059855044,-0.12270284,9.954493,2016-11-05 09:48:21,53.0935984676663
-0.061650693,-0.13587095,9.904813,2016-11-05 09:48:22,56.076443222834726
-0.061650693,-0.11971009,9.92636,2016-11-05 09:48:23,60.51440516182187
-0.048482586,-0.14185645,9.930551,2016-11-05 09:48:24,45.874133376720216
-0.055066638,-0.12988544,9.91798,2016-11-05 09:48:25,29.97713947818426
-0.05865794,-0.13946225,9.950901,2016-11-05 09:48:26,61.33113681441841
-0.059855044,-0.1352724,9.93893,2016-11-05 09:48:27,46.12179164160338
-0.047884032,-0.12449849,9.906608,2016-11-05 09:48:28,32.58750240860098
-0.037110128,-0.12389994,9.9233675,2016-11-05 09:48:29,48.33997986880131
-0.034715924,-0.13946225,9.924564,2016-11-05 09:48:30,51.067865382329
-0.040102877,-0.13467385,9.927557,2016-11-05 09:48:31,66.64750762039296
-0.065242,-0.142455,9.914988,2016-11-05 09:48:32,51.10791240138559
-0.04189853,-0.13587095,9.91798,2016-11-05 09:48:33,41.726416015438524
-0.01616086,-0.13227965,9.905411,2016-11-05 09:48:34,38.80874482098578
-0.037110128,-0.1328782,9.922769,2016-11-05 09:48:35,65.53237890703785
-0.030526072,-0.12868834,9.913791,2016-11-05 09:48:36,58.992162337757
-0.034117375,-0.11971009,9.900622,2016-11-05 09:48:37,44.245681498428155
-0.048482586,-0.1376666,9.909601,2016-11-05 09:48:38,57.178800078686066
-0.032920275,-0.12270284,9.921572,2016-11-05 09:48:39,60.18947936240119
-0.047285482,-0.12808979,9.929353,2016-11-05 09:48:40,48.5112672148943
-0.04369418,-0.12689269,9.895236,2016-11-05 09:48:41,35.453283821457596
-0.033518825,-0.1340753,9.905411,2016-11-05 09:48:42,51.56211146904358
-0.05566519,-0.11851298,9.910798,2016-11-05 09:48:43,46.188568054126485
-0.062249243,-0.11372458,9.914988,2016-11-05 09:48:45,30.88601155118618
-0.035913024,-0.130484,9.904813,2016-11-05 09:48:46,52.05684742896303
-0.033518825,-0.15083471,9.920973,2016-11-05 09:48:47,60.36023764812399
-0.05626374,-0.12449849,9.920973,2016-11-05 09:48:48,51.636314135730274
-0.051475335,-0.11851298,9.885659,2016-11-05 09:48:49,41.219736710863344
-0.046088383,-0.12509704,9.916184,2016-11-05 09:48:50,26.800379106840854
-0.076614454,-0.12689269,9.937733,2016-11-05 09:48:51,41.97136975939627
-0.049081136,-0.1316811,9.911396,2016-11-05 09:48:52,60.2021766303795
-0.04249708,-0.12928689,9.915586,2016-11-05 09:48:53,63.20497333102493
-0.05566519,-0.14903906,9.902418,2016-11-05 09:48:54,50.09447443101344
-0.06404489,-0.12389994,9.920375,2016-11-05 09:48:55,43.26140435663408
-0.047285482,-0.12988544,9.927557,2016-11-05 09:48:56,68.17669763892349
-0.04369418,-0.12569559,9.93893,2016-11-05 09:48:57,40.26493683906976
-0.05267244,-0.12629414,9.922769,2016-11-05 09:48:58,49.69202542490082
-0.047884032,-0.130484,9.911995,2016-11-05 09:48:59,52.51436126138032
-0.05686229,-0.13227965,9.909002,2016-11-05 09:49:00,50.06555378987664
-0.049081136,-0.1340753,9.927557,2016-11-05 09:49:01,54.46682145544087
-0.061650693,-0.13108255,9.920375,2016-11-05 09:49:02,58.51065834464586
-0.05686229,-0.12150574,9.944317,2016-11-05 09:49:03,65.3839591988796
-0.048482586,-0.1388637,9.887454,2016-11-05 09:49:04,63.213026141866635
-0.047884032,-0.12150574,9.922171,2016-11-05 09:49:05,57.53508860580962
-0.04369418,-0.12509704,9.935339,2016-11-05 09:49:06,54.90765298526438
-0.044891283,-0.12868834,9.937733,2016-11-05 09:49:07,60.86352910163739
-0.0712275,-0.12808979,9.931747,2016-11-05 09:49:08,65.07082494211254
-0.048482586,-0.12988544,9.932944,2016-11-05 09:49:09,63.61865473754317
-0.0688333,-0.14185645,9.926959,2016-11-05 09:49:10,65.60395616998379
-0.047285482,-0.11851298,9.897031,2016-11-05 09:49:12,64.10265889081192
-0.053869538,-0.14784196,9.903615,2016-11-05 09:49:13,72.2040994948543
-0.05327099,-0.12330139,9.894637,2016-11-05 09:49:14,43.884697134827334
-0.059855044,-0.12988544,9.933543,2016-11-05 09:49:15,29.782047769268473
-0.039504327,-0.13946225,9.916184,2016-11-05 09:49:16,67.27205228950594
-0.04129998,-0.130484,9.910798,2016-11-05 09:49:17,38.12777409546313
-0.04249708,-0.12389994,9.91798,2016-11-05 09:49:18,31.642914999184338
-0.048482586,-0.13587095,9.928156,2016-11-05 09:49:19,41.45194074534112
-0.049081136,-0.13826515,9.907207,2016-11-05 09:49:20,50.219736035716565
-0.045489833,-0.12749124,9.916783,2016-11-05 09:49:21,70.67890539941115
-0.023343466,-0.12988544,9.949105,2016-11-05 09:49:22,48.61927047300864
-0.054468088,-0.11911154,9.914988,2016-11-05 09:49:23,43.52490697505488
-0.05267244,-0.12808979,9.925761,2016-11-05 09:49:24,47.36686665441691
-0.05566519,-0.11312603,9.944916,2016-11-05 09:49:25,71.89359102276104
-0.038307227,-0.12868834,9.934141,2016-11-05 09:49:26,59.55044805560312
-0.061650693,-0.12988544,9.931747,2016-11-05 09:49:27,47.28248899416716
-0.036511578,-0.13587095,9.928156,2016-11-05 09:49:28,36.931595340005956
-0.05566519,-0.130484,9.88925,2016-11-05 09:49:29,59.75350525793101
-0.05327099,-0.11492168,9.922769,2016-11-05 09:49:30,44.94903262919954
-0.05327099,-0.1340753,9.92636,2016-11-05 09:49:31,50.023769593628316
-0.047285482,-0.12988544,9.961076,2016-11-05 09:49:32,59.842289892667594
-0.046686932,-0.12090719,9.887454,2016-11-05 09:49:33,28.284484164527658
-0.06584055,-0.11731588,9.919776,2016-11-05 09:49:34,27.041049178168812
-0.05566519,-0.12569559,9.902418,2016-11-05 09:49:35,55.22054171498478
-0.05327099,-0.1328782,9.889849,2016-11-05 09:49:36,58.60902834071787
-0.055066638,-0.14664486,9.937733,2016-11-05 09:49:37,53.850743505363965
-0.05746084,-0.13108255,9.920375,2016-11-05 09:49:38,44.86552894740491
-0.054468088,-0.1352724,9.895834,2016-11-05 09:49:39,43.23758953990917
-0.05746084,-0.1376666,9.925163,2016-11-05 09:49:40,61.132141320999395
-0.023942016,-0.11192893,9.929353,2016-11-05 09:49:41,69.6140649185561
-0.062249243,-0.13587095,9.945514,2016-11-05 09:49:42,66.55489425613641
-0.05626374,-0.12988544,9.929952,2016-11-05 09:49:43,41.948592643287775
-0.050278235,-0.142455,9.922769,2016-11-05 09:49:45,53.86175838852096
-0.033518825,-0.12330139,9.91439,2016-11-05 09:49:46,70.95748963128662
-0.06404489,-0.12150574,9.935339,2016-11-05 09:49:47,43.036180605635536
-0.044891283,-0.14425065,9.90601,2016-11-05 09:49:48,34.192921376439905
-0.035913024,-0.14724341,9.911396,2016-11-05 09:49:49,62.140495101286774
-0.034117375,-0.1376666,9.927557,2016-11-05 09:49:50,51.59549880508966
-0.050876785,-0.1364695,9.912594,2016-11-05 09:49:51,54.35340622487856
-0.034715924,-0.12330139,9.929353,2016-11-05 09:49:52,49.06004766907175
-0.05626374,-0.1364695,9.892841,2016-11-05 09:49:53,56.73762029903059
-0.065242,-0.12389994,9.91798,2016-11-05 09:49:54,57.27703273949132
-0.039504327,-0.12868834,9.930551,2016-11-05 09:49:55,60.181007302469766
-0.04369418,-0.1364695,9.925163,2016-11-05 09:49:56,40.67367773618807
-0.06404489,-0.13227965,9.913791,2016-11-05 09:49:57,42.37260116348761
-0.062249243,-0.12509704,9.909002,2016-11-05 09:49:58,69.53438283227682
-0.05865794,-0.130484,9.888053,2016-11-05 09:49:59,66.54770525514397
-0.022146367,-0.12150574,9.9473095,2016-11-05 09:50:00,61.92591146548362
-0.049081136,-0.13826515,9.920375,2016-11-05 09:50:01,59.72927559836045
-0.05686229,-0.108337626,9.917382,2016-11-05 09:50:02,64.38970521394086
-0.045489833,-0.12629414,9.903615,2016-11-05 09:50:03,46.84052319780648
-0.034715924,-0.12808979,9.91439,2016-11-05 09:50:04,57.04147048799982
-0.027533319,-0.12509704,9.92636,2016-11-05 09:50:05,49.478472015163106
-0.05626374,-0.12868834,9.919776,2016-11-05 09:50:06,45.1948791205912
-0.06584055,-0.12689269,9.925761,2016-11-05 09:50:07,24.7975071273418
-0.037110128,-0.11791443,9.920973,2016-11-05 09:50:08,43.22746267847876
-0.046088383,-0.1328782,9.920973,2016-11-05 09:50:09,44.49195736177569
-0.059855044,-0.1328782,9.895236,2016-11-05 09:50:10,68.26587850607612
-0.050876785,-0.14065935,9.926959,2016-11-05 09:50:11,55.71253286003242
-0.0676362,-0.1412579,9.903017,2016-11-05 09:50:13,53.76965259144363
-0.044292733,-0.11671733,9.925761,2016-11-05 09:50:14,64.76139050115876
-0.04189853,-0.12808979,9.930551,2016-11-05 09:50:15,65.3113318843528
-0.046088383,-0.12868834,9.946113,2016-11-05 09:50:16,56.01851734521461
-0.036511578,-0.12389994,9.935339,2016-11-05 09:50:17,54.18658836163077
-0.038307227,-0.11492168,9.924564,2016-11-05 09:50:18,44.073623790553775
-0.05207389,-0.130484,9.925163,2016-11-05 09:50:19,41.471797314835506
-0.05566519,-0.12150574,9.926959,2016-11-05 09:50:20,28.309273280022076
-0.025737667,-0.12808979,9.898229,2016-11-05 09:50:21,54.211314209414155
-0.061052144,-0.1328782,9.909002,2016-11-05 09:50:22,58.684982930345136
-0.048482586,-0.1400608,9.909601,2016-11-05 09:50:23,51.690706154979424
-0.022744916,-0.1340753,9.912594,2016-11-05 09:50:24,55.06322723220197
-0.034715924,-0.13826515,9.898229,2016-11-05 09:50:25,53.26334516559908
-0.037708677,-0.13587095,9.916783,2016-11-05 09:50:26,57.01977689536868
-0.053869538,-0.12988544,9.928755,2016-11-05 09:50:27,64.08492857070185
-0.038905777,-0.12509704,9.9473095,2016-11-05 09:50:28,59.7827315426281
-0.032920275,-0.13467385,9.929952,2016-11-05 09:50:29,54.27920693231925
-0.05805939,-0.12749124,9.913192,2016-11-05 09:50:30,52.952502105336904
-0.05327099,-0.1388637,9.930551,2016-11-05 09:50:31,51.23753117599638
-0.035913024,-0.1352724,9.879673,2016-11-05 09:50:32,61.1822110012574
-0.06404489,-0.12509704,9.905411,2016-11-05 09:50:33,69.33440716379643
-0.05566519,-0.13946225,9.903017,2016-11-05 09:50:34,70.43392683834315
-0.062249243,-0.11731588,9.917382,2016-11-05 09:50:35,53.09958053043494
-0.04070143,-0.11372458,9.926959,2016-11-05 09:50:36,46.23070591868406
-0.025737667,-0.13347675,9.926959,2016-11-05 09:50:37,42.90749703433111
-0.05327099,-0.13347675,9.914988,2016-11-05 09:50:38,63.24818702259748
-0.059855044,-0.13946225,9.931149,2016-11-05 09:50:39,22.407208106306655
-0.047285482,-0.108936176,9.891046,2016-11-05 09:50:40,20.32857899404419
-0.046686932,-0.11851298,9.89344,2016-11-05 09:50:41,31.555409882411723
-0.0664391,-0.12928689,9.911995,2016-11-05 09:50:42,39.48138082394348
-0.065242,-0.11971009,9.94312,2016-11-05 09:50:44,73.40121708906837
-0.04249708,-0.1352724,9.886856,2016-11-05 09:50:45,53.88876739010777
-0.048482586,-0.1328782,9.922171,2016-11-05 09:50:46,59.92123353881275
-0.051475335,-0.1352724,9.916184,2016-11-05 09:50:47,55.8027054764065
-0.034117375,-0.13467385,9.886856,2016-11-05 09:50:48,68.61833478217208
-0.050876785,-0.13826515,9.932345,2016-11-05 09:50:49,58.689725127408096
-0.06464344,-0.12509704,9.910798,2016-11-05 09:50:50,26.331874620152593
-0.046088383,-0.12150574,9.916783,2016-11-05 09:50:51,26.283569954584443
-0.05686229,-0.13587095,9.91798,2016-11-05 09:50:52,47.554991141671124
-0.04369418,-0.12210429,9.9473095,2016-11-05 09:50:53,23.969182155618697
-0.0712275,-0.11492168,9.917382,2016-11-05 09:50:54,23.639878297484916
-0.060453594,-0.130484,9.9233675,2016-11-05 09:50:55,34.217437340269385
-0.04249708,-0.12988544,9.917382,2016-11-05 09:50:56,38.22084270106425
-0.05566519,-0.130484,9.912594,2016-11-05 09:50:57,25.09294951335736
-0.048482586,-0.1400608,9.897031,2016-11-05 09:50:58,60.60389997049252
-0.05746084,-0.13946225,9.915586,2016-11-05 09:50:59,34.67327795320452
-0.049679685,-0.12988544,9.917382,2016-11-05 09:51:00,44.670241530785574
-0.059855044,-0.12868834,9.912594,2016-11-05 09:51:01,44.04293665358141
-0.025737667,-0.13706805,9.913791,2016-11-05 09:51:02,31.948888114159875
-0.046686932,-0.12509704,9.910199,2016-11-05 09:51:03,24.434243506971434
-0.046686932,-0.14604631,9.906608,2016-11-05 09:51:04,26.74413301965318
-0.05686229,-0.13108255,9.937134,2016-11-05 09:51:05,48.158587203199524
-0.05327099,-0.13467385,9.916783,2016-11-05 09:51:06,42.04099879106217
-0.075417355,-0.12509704,9.922769,2016-11-05 09:51:07,49.37233482712746
-0.05686229,-0.12270284,9.919178,2016-11-05 09:51:08,50.984236029922144
-0.051475335,-0.16280572,9.912594,2016-11-05 09:51:09,47.75018942555825
-0.050278235,-0.12689269,9.914988,2016-11-05 09:51:10,49.69742777066224
-0.051475335,-0.10414778,9.93474,2016-11-05 09:51:12,46.99176109583974
-0.044891283,-0.130484,9.913192,2016-11-05 09:51:13,44.7573264245539
-0.035314474,-0.12928689,9.922171,2016-11-05 09:51:14,24.564656740592245
-0.044292733,-0.1388637,9.894637,2016-11-05 09:51:15,50.56549436868502
-0.048482586,-0.11252748,9.901221,2016-11-05 09:51:16,59.351798014355275
-0.050876785,-0.11432313,9.913791,2016-11-05 09:51:17,52.53441136504697
-0.054468088,-0.13347675,9.91798,2016-11-05 09:51:18,55.503561452826375
-0.04249708,-0.12270284,9.946711,2016-11-05 09:51:19,50.71589852922307
-0.06823475,-0.107140526,9.909601,2016-11-05 09:51:20,58.304778998449265
-0.062249243,-0.13347675,9.927557,2016-11-05 09:51:21,60.76750705159157
-0.07062895,-0.13826515,9.940725,2016-11-05 09:51:22,58.501341941231715
-0.046686932,-0.11971009,9.920973,2016-11-05 09:51:23,44.66588036683221
-0.046686932,-0.13826515,9.927557,2016-11-05 09:51:24,50.12915893925184
-0.04129998,-0.1412579,9.907805,2016-11-05 09:51:25,65.95830867151389
-0.030526072,-0.12569559,9.90601,2016-11-05 09:51:26,46.19500910251056
-0.046686932,-0.12749124,9.909601,2016-11-05 09:51:27,49.70183796285007
-0.049081136,-0.13467385,9.92636,2016-11-05 09:51:28,51.4438528150076
-0.06284779,-0.12689269,9.910199,2016-11-05 09:51:29,49.68886832599749
-0.05566519,-0.130484,9.900622,2016-11-05 09:51:30,50.9803438870609
-0.04070143,-0.12389994,9.911396,2016-11-05 09:51:31,43.99785308714299
-0.054468088,-0.12689269,9.894038,2016-11-05 09:51:32,52.52238435067795
-0.030526072,-0.1388637,9.910199,2016-11-05 09:51:33,55.11746799831165
-0.045489833,-0.1316811,9.926959,2016-11-05 09:51:34,58.73630184255698
-0.048482586,-0.13227965,9.939528,2016-11-05 09:51:35,57.83753720038216
-0.05207389,-0.1388637,9.909002,2016-11-05 09:51:36,61.95252998258599
-0.039504327,-0.13826515,9.928156,2016-11-05 09:51:37,65.98332270048354
-0.05686229,-0.14305355,9.929353,2016-11-05 09:51:38,61.98424116024409
-0.05746084,-0.12449849,9.901221,2016-11-05 09:51:39,67.08460826195204
-0.037110128,-0.130484,9.928755,2016-11-05 09:51:40,60.80817613111658
-0.04189853,-0.12569559,9.896433,2016-11-05 09:51:41,57.11685746631761
-0.045489833,-0.1316811,9.929952,2016-11-05 09:51:42,48.72918369813516
-0.046088383,-0.1388637,9.904813,2016-11-05 09:51:44,49.41094096428154
-0.040102877,-0.1364695,9.916783,2016-11-05 09:51:45,52.43932022754568
-0.046088383,-0.11971009,9.929353,2016-11-05 09:51:46,41.0369962314025
-0.05267244,-0.1316811,9.9233675,2016-11-05 09:51:47,38.09334934330175
-0.046686932,-0.14065935,9.910199,2016-11-05 09:51:48,71.34592837373388
-0.05267244,-0.11971009,9.939528,2016-11-05 09:51:49,41.34601190538004
-0.038905777,-0.12090719,9.895834,2016-11-05 09:51:50,43.23237980213599
-0.047285482,-0.12090719,9.94312,2016-11-05 09:51:51,46.33758603697544
-0.032920275,-0.11971009,9.908403,2016-11-05 09:51:52,54.787738721890335
-0.060453594,-0.12988544,9.920973,2016-11-05 09:51:53,59.20163362599018
-0.037110128,-0.12270284,9.90601,2016-11-05 09:51:54,64.2097148535869
-0.05746084,-0.14724341,9.91798,2016-11-05 09:51:55,65.01204997420362
-0.035314474,-0.1316811,9.89763,2016-11-05 09:51:56,50.74941412559643
-0.049679685,-0.11971009,9.925761,2016-11-05 09:51:57,50.52950322126983
-0.050278235,-0.12569559,9.924564,2016-11-05 09:51:58,58.75128915773739
-0.05327099,-0.13587095,9.89763,2016-11-05 09:51:59,47.06032390746361
-0.044891283,-0.12569559,9.8994255,2016-11-05 09:52:00,33.19192623173367
-0.049081136,-0.13946225,9.922171,2016-11-05 09:52:01,65.34597598562607
-0.037110128,-0.11911154,9.924564,2016-11-05 09:52:02,49.75733383337736
-0.051475335,-0.12030864,9.923966,2016-11-05 09:52:03,31.96240971912776
-0.062249243,-0.12868834,9.91798,2016-11-05 09:52:04,35.641047132596675
-0.034117375,-0.13706805,9.91798,2016-11-05 09:52:05,62.38006829709733
-0.044292733,-0.11731588,9.929952,2016-11-05 09:52:06,67.67777542657656
-0.049679685,-0.13108255,9.921572,2016-11-05 09:52:07,67.16323319295178
-0.0688333,-0.1376666,9.910199,2016-11-05 09:52:08,62.50629552205554
-0.04189853,-0.13587095,9.93893,2016-11-05 09:52:09,44.46249716890428
-0.049081136,-0.12749124,9.924564,2016-11-05 09:52:10,69.21543578357229
-0.061052144,-0.12210429,9.937134,2016-11-05 09:52:11,66.65738862484311
-0.046088383,-0.11851298,9.935339,2016-11-05 09:52:12,52.76095709419934
-0.051475335,-0.12330139,9.906608,2016-11-05 09:52:13,39.43909506557692
-0.049081136,-0.1328782,9.898827,2016-11-05 09:52:14,52.7806873312873
-0.04249708,-0.13227965,9.909601,2016-11-05 09:52:15,50.911129448505044
-0.044292733,-0.13108255,9.937134,2016-11-05 09:52:16,51.841639164590035
-0.025737667,-0.12210429,9.917382,2016-11-05 09:52:17,52.829067775296295
-0.065242,-0.14065935,9.911396,2016-11-05 09:52:19,45.778881424287626
-0.046686932,-0.1352724,9.898229,2016-11-05 09:52:20,28.533350073955
-0.055066638,-0.12808979,9.926959,2016-11-05 09:52:21,49.14618537334916
-0.05686229,-0.13946225,9.912594,2016-11-05 09:52:22,59.69721661659282
-0.06703765,-0.13706805,9.920973,2016-11-05 09:52:23,58.400492072541326
-0.05805939,-0.12210429,9.94312,2016-11-05 09:52:24,53.94397116965442
-0.040102877,-0.12509704,9.919776,2016-11-05 09:52:25,59.20267371242528
-0.044891283,-0.13227965,9.931747,2016-11-05 09:52:26,60.97148182099125
-0.05267244,-0.12868834,9.9233675,2016-11-05 09:52:27,67.68833215026787
-0.047285482,-0.12449849,9.908403,2016-11-05 09:52:28,64.2896933706557
-0.038905777,-0.12509704,9.935339,2016-11-05 09:52:29,53.29015554863951
-0.05925649,-0.12868834,9.919776,2016-11-05 09:52:30,53.90440208392525
-0.044891283,-0.12928689,9.932944,2016-11-05 09:52:31,67.64717456950467
-0.04309563,-0.11791443,9.912594,2016-11-05 09:52:32,48.08366966717558
-0.047884032,-0.12928689,9.916783,2016-11-05 09:52:33,51.74033727092875
-0.053869538,-0.12629414,9.90601,2016-11-05 09:52:34,45.40156997789665
-0.032920275,-0.13347675,9.915586,2016-11-05 09:52:35,31.105676162679767
-0.044891283,-0.1412579,9.89763,2016-11-05 09:52:36,29.138866700485792
-0.044891283,-0.12389994,9.926959,2016-11-05 09:52:37,57.48355190935585
-0.053869538,-0.12868834,9.907805,2016-11-05 09:52:38,65.84736398028228
-0.047285482,-0.12509704,9.918579,2016-11-05 09:52:39,63.97623305032742
-0.05626374,-0.13706805,9.929952,2016-11-05 09:52:40,64.60919773886289
-0.061052144,-0.12868834,9.907805,2016-11-05 09:52:41,27.37575265716226
-0.037708677,-0.12270284,9.910199,2016-11-05 09:52:42,27.2244109986852
-0.040102877,-0.14065935,9.931747,2016-11-05 09:52:43,49.07960902049513
-0.019752163,-0.12030864,9.920973,2016-11-05 09:52:44,53.80259808726422
-0.048482586,-0.1364695,9.909002,2016-11-05 09:52:45,47.91562082508672
-0.037110128,-0.13826515,9.926959,2016-11-05 09:52:46,54.25509567595601
-0.04070143,-0.11372458,9.916184,2016-11-05 09:52:47,71.16202032381096
-0.06464344,-0.12090719,9.926959,2016-11-05 09:52:48,40.26133334428784
-0.04070143,-0.12090719,9.890448,2016-11-05 09:52:49,48.58049583266278
-0.048482586,-0.11911154,9.944317,2016-11-05 09:52:50,48.113263295812985
-0.044891283,-0.12509704,9.907207,2016-11-05 09:52:51,50.95156400891164
-0.032920275,-0.12868834,9.931149,2016-11-05 09:52:53,43.98839802663339
-0.047285482,-0.12210429,9.88925,2016-11-05 09:52:54,57.511664129504965
-0.030526072,-0.12030864,9.929353,2016-11-05 09:52:55,66.27835791645323
-0.059855044,-0.11851298,9.928156,2016-11-05 09:52:56,63.25730979942634
-0.061650693,-0.11312603,9.956287,2016-11-05 09:52:57,64.06794799801256
-0.046686932,-0.130484,9.929952,2016-11-05 09:52:58,53.43025339592138
-0.0664391,-0.11851298,9.911995,2016-11-05 09:52:59,60.90800346384355
-0.029927522,-0.12210429,9.929353,2016-11-05 09:53:00,62.131291710376956
-0.04129998,-0.13467385,9.933543,2016-11-05 09:53:01,59.08849373443849
-0.05566519,-0.12569559,9.952697,2016-11-05 09:53:02,60.84833785789195
-0.05207389,-0.13946225,9.925761,2016-11-05 09:53:03,51.03124177006116
-0.05566519,-0.12389994,9.916783,2016-11-05 09:53:04,69.50969612829455
-0.051475335,-0.14664486,9.92636,2016-11-05 09:53:05,49.02613528616043
-0.046088383,-0.11552023,9.919178,2016-11-05 09:53:06,48.98500196343474
-0.046686932,-0.1364695,9.916184,2016-11-05 09:53:07,49.199883223301775
-0.05327099,-0.12988544,9.933543,2016-11-05 09:53:08,47.50773793600227
-0.030526072,-0.12449849,9.925761,2016-11-05 09:53:09,46.61326078903368
-0.06823475,-0.13706805,9.919776,2016-11-05 09:53:10,40.98571806059974
-0.061650693,-0.12629414,9.9233675,2016-11-05 09:53:11,41.15759098995912
-0.047884032,-0.12808979,9.909002,2016-11-05 09:53:12,63.36939473007641
-0.05925649,-0.1340753,9.914988,2016-11-05 09:53:13,57.1169234717394
-0.05566519,-0.130484,9.920973,2016-11-05 09:53:14,63.49624021422837
-0.03172317,-0.13467385,9.898827,2016-11-05 09:53:15,62.36935925129457
-0.044292733,-0.1448492,9.936536,2016-11-05 09:53:16,63.36448640559925
-0.047285482,-0.13587095,9.932944,2016-11-05 09:53:17,58.34384569258959
-0.049679685,-0.14065935,9.913192,2016-11-05 09:53:18,47.02575519421722
-0.049081136,-0.12808979,9.910798,2016-11-05 09:53:19,48.75062168170928
-0.036511578,-0.12270284,9.935339,2016-11-05 09:53:20,56.398723175974965
-0.053869538,-0.12569559,9.925163,2016-11-05 09:53:21,47.515277270348406
-0.037110128,-0.13467385,9.912594,2016-11-05 09:53:22,28.803418981273307
-0.038307227,-0.12808979,9.916184,2016-11-05 09:53:23,52.46086256218227
-0.050278235,-0.14065935,9.929952,2016-11-05 09:53:24,49.43426961289909
-0.05865794,-0.14185645,9.928156,2016-11-05 09:53:25,41.643862260175545
-0.050876785,-0.13227965,9.929353,2016-11-05 09:53:26,55.44505375772064
-0.061650693,-0.12449849,9.931149,2016-11-05 09:53:27,64.2765305560439
-0.060453594,-0.12808979,9.922171,2016-11-05 09:53:28,63.84325359071458
-0.04070143,-0.11911154,9.88925,2016-11-05 09:53:29,66.19788692709922
-0.05805939,-0.11971009,9.900622,2016-11-05 09:53:30,58.651163963669575
-0.035314474,-0.1352724,9.887454,2016-11-05 09:53:31,47.25048845172141
-0.050876785,-0.12330139,9.94312,2016-11-05 09:53:32,61.03652898193587
-0.054468088,-0.1376666,9.909002,2016-11-05 09:53:34,55.25407874506516
-0.048482586,-0.11791443,9.919178,2016-11-05 09:53:35,55.52671382831245
-0.05626374,-0.12210429,9.924564,2016-11-05 09:53:36,45.60059625571341
-0.05327099,-0.1352724,9.916184,2016-11-05 09:53:37,69.18405691084257
-0.044292733,-0.12749124,9.904813,2016-11-05 09:53:38,30.970728429100713
-0.050876785,-0.130484,9.911396,2016-11-05 09:53:39,37.11538874436131
-0.05327099,-0.12090719,9.92636,2016-11-05 09:53:40,62.73343009125049
-0.035314474,-0.1412579,9.910798,2016-11-05 09:53:41,47.51847972730754
-0.05327099,-0.1328782,9.903017,2016-11-05 09:53:42,30.543784185481453
-0.05686229,-0.1412579,9.910798,2016-11-05 09:53:43,58.46654585503144
-0.022744916,-0.12270284,9.902418,2016-11-05 09:53:44,63.680373362651636
-0.05686229,-0.1364695,9.920973,2016-11-05 09:53:45,62.72525810490251
-0.049081136,-0.1328782,9.941324,2016-11-05 09:53:46,49.14613680363423
-0.034715924,-0.13587095,9.943718,2016-11-05 09:53:47,47.85661414159766
-0.05865794,-0.12449849,9.924564,2016-11-05 09:53:48,51.59523552942066
-0.062249243,-0.108936176,9.930551,2016-11-05 09:53:49,68.1559900785522
-0.05267244,-0.12988544,9.954493,2016-11-05 09:53:50,67.13898100085505
-0.0664391,-0.13467385,9.933543,2016-11-05 09:53:51,52.43220429578648
-0.036511578,-0.13108255,9.907805,2016-11-05 09:53:52,46.196539432158765
-0.05267244,-0.13347675,9.93474,2016-11-05 09:53:53,49.63381637019899
-0.05746084,-0.110133275,9.9233675,2016-11-05 09:53:54,47.09896669670965
-0.05746084,-0.13108255,9.937733,2016-11-05 09:53:55,58.079158791782994
-0.05267244,-0.11611878,9.929952,2016-11-05 09:53:56,63.96059199108895
-0.054468088,-0.1340753,9.930551,2016-11-05 09:53:57,53.588599927074924
-0.05566519,-0.13347675,9.919776,2016-11-05 09:53:58,35.98641089777855
-0.049679685,-0.1316811,9.909002,2016-11-05 09:53:59,55.74967118737707
-0.035913024,-0.1340753,9.913791,2016-11-05 09:54:00,53.55928757846769
-0.049081136,-0.13587095,9.907207,2016-11-05 09:54:01,53.88328934327238
-0.02932897,-0.11971009,9.8916445,2016-11-05 09:54:02,60.34178604369376
-0.02813187,-0.11911154,9.920375,2016-11-05 09:54:03,64.64918280719573
-0.059855044,-0.12689269,9.922769,2016-11-05 09:54:04,37.27543036087046
-0.061052144,-0.12210429,9.911995,2016-11-05 09:54:05,31.024079765731262
-0.045489833,-0.12988544,9.925163,2016-11-05 09:54:06,64.62327752573705
-0.050876785,-0.13227965,9.888652,2016-11-05 09:54:08,61.70640800123988
-0.05626374,-0.12988544,9.915586,2016-11-05 09:54:09,60.74549733074192
-0.0664391,-0.13706805,9.91798,2016-11-05 09:54:10,69.50658905787338
-0.040102877,-0.108936176,9.918579,2016-11-05 09:54:11,47.11656701999871
-0.047285482,-0.12569559,9.937134,2016-11-05 09:54:12,49.44386394925439
-0.055066638,-0.12629414,9.919776,2016-11-05 09:54:13,57.75451731335161
-0.036511578,-0.13826515,9.913791,2016-11-05 09:54:14,52.25189890882881
-0.04189853,-0.11671733,9.933543,2016-11-05 09:54:15,52.94592810340396
-0.050876785,-0.14664486,9.897031,2016-11-05 09:54:16,64.80130174956223
-0.038905777,-0.12689269,9.925163,2016-11-05 09:54:17,66.35065816951835
-0.054468088,-0.13946225,9.901819,2016-11-05 09:54:18,62.3571816627021
-0.053869538,-0.12868834,9.904813,2016-11-05 09:54:19,60.03207100882012
-0.047884032,-0.11671733,9.908403,2016-11-05 09:54:20,57.054939397432165
-0.037708677,-0.13706805,9.89763,2016-11-05 09:54:21,53.12779087786146
-0.044292733,-0.12988544,9.913192,2016-11-05 09:54:22,65.2385940851106
-0.05686229,-0.12569559,9.918579,2016-11-05 09:54:23,64.09812708210922
-0.048482586,-0.1352724,9.92636,2016-11-05 09:54:24,69.35799013731709
-0.046088383,-0.130484,9.935339,2016-11-05 09:54:25,51.144195205701585
-0.03232172,-0.12808979,9.923966,2016-11-05 09:54:26,63.6113727272363
-0.05865794,-0.13467385,9.910798,2016-11-05 09:54:27,71.85703728537345
-0.047285482,-0.13108255,9.903017,2016-11-05 09:54:28,47.661742775169515
-0.04129998,-0.109534726,9.919178,2016-11-05 09:54:29,56.0310108993168
-0.029927522,-0.13347675,9.923966,2016-11-05 09:54:30,59.87405533192118
-0.038307227,-0.14724341,9.935937,2016-11-05 09:54:31,67.4139244677143
-0.04189853,-0.12449849,9.910798,2016-11-05 09:54:32,71.81149061832123
-0.047884032,-0.12030864,9.915586,2016-11-05 09:54:34,52.76220828839449
-0.047285482,-0.12569559,9.928755,2016-11-05 09:54:35,57.634124724057465
-0.034117375,-0.12330139,9.910199,2016-11-05 09:54:36,62.414421441611836
-0.05207389,-0.12090719,9.8994255,2016-11-05 09:54:37,62.23441508777761
-0.05327099,-0.12509704,9.900622,2016-11-05 09:54:38,68.03604944369356
-0.054468088,-0.13108255,9.915586,2016-11-05 09:54:39,66.71195190596134
-0.04129998,-0.109534726,9.92636,2016-11-05 09:54:40,72.8993030566274
-0.034117375,-0.12090719,9.90601,2016-11-05 09:54:41,66.15512553740324
-0.054468088,-0.1400608,9.923966,2016-11-05 09:54:42,64.780046962961
-0.04189853,-0.13467385,9.886257,2016-11-05 09:54:43,59.54179471846057
-0.02873042,-0.11252748,9.907805,2016-11-05 09:54:44,63.40139615899486
-0.05626374,-0.12808979,9.931149,2016-11-05 09:54:45,63.86762741065126
-0.040102877,-0.12629414,9.906608,2016-11-05 09:54:46,68.7158038514275
-0.05746084,-0.11971009,9.943718,2016-11-05 09:54:47,52.12364316976078
-0.047285482,-0.110133275,9.900024,2016-11-05 09:54:48,44.14864760776378
-0.033518825,-0.12868834,9.91439,2016-11-05 09:54:49,63.53363767316034
-0.06284779,-0.1316811,9.904813,2016-11-05 09:54:50,67.92106848217662
-0.0664391,-0.12030864,9.924564,2016-11-05 09:54:51,73.1271203783694
-0.05865794,-0.12629414,9.911396,2016-11-05 09:54:52,61.002474387916806
-0.040102877,-0.12749124,9.918579,2016-11-05 09:54:53,67.17897955603895
-0.078410104,-0.11791443,9.916184,2016-11-05 09:54:54,73.30259719698867
-0.049679685,-0.12210429,9.918579,2016-11-05 09:54:55,69.67482536085394
-0.04129998,-0.12330139,9.925163,2016-11-05 09:54:56,47.018695067291894
-0.049679685,-0.11971009,9.904813,2016-11-05 09:54:57,22.521701182267662
-0.05207389,-0.12988544,9.8994255,2016-11-05 09:54:58,29.65994986840727
-0.045489833,-0.11851298,9.947908,2016-11-05 09:54:59,69.76914176562201
-0.032920275,-0.11372458,9.903017,2016-11-05 09:55:00,59.09957831460468
-0.037110128,-0.13587095,9.919776,2016-11-05 09:55:01,62.57837262811397
-0.05566519,-0.13108255,9.921572,2016-11-05 09:55:02,61.118572852320206
-0.037708677,-0.12090719,9.900024,2016-11-05 09:55:03,49.443432313681214
-0.050278235,-0.11791443,9.898229,2016-11-05 09:55:05,38.35016218131289
-0.045489833,-0.1352724,9.916184,2016-11-05 09:55:06,46.19212849559514
-0.062249243,-0.1364695,9.926959,2016-11-05 09:55:07,54.764668954660564
-0.05267244,-0.130484,9.937733,2016-11-05 09:55:08,54.526863853389
-0.05746084,-0.12868834,9.918579,2016-11-05 09:55:09,50.07004471508335
-0.05805939,-0.1340753,9.90601,2016-11-05 09:55:10,44.20915491541257
-0.061052144,-0.12629414,9.926959,2016-11-05 09:55:11,65.74859829835798
-0.04309563,-0.12988544,9.92636,2016-11-05 09:55:12,69.49186431893477
-0.035913024,-0.12749124,9.930551,2016-11-05 09:55:13,60.999079400004106
-0.05267244,-0.12988544,9.91798,2016-11-05 09:55:14,54.63657827063529
-0.049679685,-0.11791443,9.92636,2016-11-05 09:55:15,53.35853882182644
-0.060453594,-0.12150574,9.908403,2016-11-05 09:55:16,54.94148343160453
-0.06464344,-0.13347675,9.936536,2016-11-05 09:55:17,50.00387638351917
-0.026934769,-0.12210429,9.907805,2016-11-05 09:55:18,55.532529375632976
-0.047285482,-0.12928689,9.920973,2016-11-05 09:55:19,55.66885256377912
-0.033518825,-0.130484,9.916783,2016-11-05 09:55:20,46.108819439136084
-0.05626374,-0.110731825,9.920973,2016-11-05 09:55:21,49.71906416914163
-0.05207389,-0.1340753,9.907207,2016-11-05 09:55:22,51.7036884527037
-0.040102877,-0.11731588,9.917382,2016-11-05 09:55:23,58.13311710071194
-0.04309563,-0.1388637,9.935339,2016-11-05 09:55:24,55.83014244661239
-0.073621705,-0.1388637,9.958083,2016-11-05 09:55:25,59.72963706047598
-0.046686932,-0.14963761,9.931747,2016-11-05 09:55:26,74.07999302946138
-0.0688333,-0.13347675,9.935937,2016-11-05 09:55:27,65.56441623869824
-0.0664391,-0.13108255,9.904214,2016-11-05 09:55:28,66.49660446238687
-0.06703765,-0.1400608,9.908403,2016-11-05 09:55:29,66.68790809719314
-0.05805939,-0.12629414,9.904214,2016-11-05 09:55:30,66.90227305731673
-0.050278235,-0.13347675,9.931747,2016-11-05 09:55:31,62.54010329826248
-0.05566519,-0.12569559,9.921572,2016-11-05 09:55:32,67.424267296625
-0.039504327,-0.11971009,9.901819,2016-11-05 09:55:33,52.06575426993076
-0.047884032,-0.12808979,9.928156,2016-11-05 09:55:34,51.925114032921485
-0.037708677,-0.12509704,9.911396,2016-11-05 09:55:35,61.01082553081526
-0.048482586,-0.12569559,9.931747,2016-11-05 09:55:36,45.86383575876397
-0.07182605,-0.14844051,9.914988,2016-11-05 09:55:37,51.2680536822708
-0.048482586,-0.12030864,9.909601,2016-11-05 09:55:38,63.436610341044286
-0.039504327,-0.12330139,9.916783,2016-11-05 09:55:39,70.33272345299679
-0.051475335,-0.1340753,9.919178,2016-11-05 09:55:40,72.04033383251998
-0.035913024,-0.1328782,9.920375,2016-11-05 09:55:41,63.28716344176226
-0.033518825,-0.15263036,9.925761,2016-11-05 09:55:42,70.25374341652893
-0.10055647,-0.090381116,9.728839,2016-11-05 09:55:43,61.55794183302205
-0.0724246,-0.11851298,9.910199,2016-11-05 09:55:44,52.856189257917336
-0.053869538,-0.12868834,9.927557,2016-11-05 09:55:46,59.63152583477822
-0.05207389,-0.13706805,9.907207,2016-11-05 09:55:47,56.45084946053207
-0.0688333,-0.142455,9.929353,2016-11-05 09:55:48,55.016543224453414
-0.030526072,-0.12988544,9.913791,2016-11-05 09:55:49,70.87691486877412
-0.02873042,-0.13706805,9.850345,2016-11-05 09:55:50,44.028546382768646
-0.04249708,-0.12030864,9.904813,2016-11-05 09:55:51,31.999513400087842
-0.046686932,-0.12868834,9.931149,2016-11-05 09:55:52,60.09623280634281
-0.065242,-0.14903906,9.946711,2016-11-05 09:55:53,45.103560962640714
-0.055066638,-0.13347675,9.941324,2016-11-05 09:55:54,49.06053396605762
-0.06284779,-0.11252748,9.92636,2016-11-05 09:55:55,56.50265160351323
-0.045489833,-0.11432313,9.9233675,2016-11-05 09:55:56,34.905549610029624
-0.05327099,-0.12389994,9.925761,2016-11-05 09:55:57,39.79624193216218
-0.050278235,-0.12270284,9.9233675,2016-11-05 09:55:58,46.53505834908288
-0.036511578,-0.1340753,9.927557,2016-11-05 09:55:59,47.83533324731398
-0.023942016,-0.142455,9.918579,2016-11-05 09:56:00,42.41102994961699
-0.026934769,-0.11731588,9.9233675,2016-11-05 09:56:01,46.16362625977256
-0.16340427,-0.16101007,9.907805,2016-11-05 09:56:02,48.45879396373907
-3.145981,-0.362123,9.97185,2016-11-05 09:56:03,54.79405065978906
-1.0055647,-1.2431892,9.770139,2016-11-05 09:56:04,55.758537516660354
-6.9366007,-2.598906,5.7508726,2016-11-05 09:56:05,43.62271425915826
-4.605247,-3.3105824,5.66947,2016-11-05 09:56:06,32.72765965484753
-4.32333,-1.1677719,8.023568,2016-11-05 09:56:07,36.089987801015226
-6.8013287,0.4213795,10.18254,2016-11-05 09:56:08,45.86607556273857
-5.209184,-0.8319851,8.55987,2016-11-05 09:56:09,35.65541240792609
-6.1129956,-2.2080526,7.6494746,2016-11-05 09:56:10,36.388532004381275
-5.601235,-2.645593,7.8344264,2016-11-05 09:56:11,42.90562681804416
-4.772841,-1.5376761,7.356185,2016-11-05 09:56:12,44.51308621486842
-8.617331,-4.1718965,7.8984714,2016-11-05 09:56:13,63.73297701606241
-3.9252937,-2.355296,9.293693,2016-11-05 09:56:14,51.365281927271454
-5.1104236,-2.3397336,8.306683,2016-11-05 09:56:15,48.07366088823017
-0.27234045,0.7469909,8.693945,2016-11-05 09:56:16,47.89980694854644
1.0480618,1.1025299,9.809045,2016-11-05 09:56:17,55.06887932265248
0.52373165,0.088585466,10.762535,2016-11-05 09:56:18,56.772320950996715
0.2908955,-0.2220622,9.3026705,2016-11-05 09:56:19,51.70461696066663
0.031124622,-0.57640404,9.552865,2016-11-05 09:56:20,49.79079869899458
-0.19871874,0.5793968,10.0748005,2016-11-05 09:56:21,48.97565361425971
0.8439561,-0.62608373,10.133459,2016-11-05 09:56:22,54.9331591480301
1.5586253,-1.7316064,10.281301,2016-11-05 09:56:23,59.36330276831445
0.61291564,-0.7062895,8.783728,2016-11-05 09:56:24,59.46872135349186
-0.019153614,-0.19273324,10.307637,2016-11-05 09:56:25,52.91674467003428
0.36990416,-2.3391352,10.840945,2016-11-05 09:56:26,48.43700914946009
0.47644615,-1.8106151,8.78672,2016-11-05 09:56:27,63.96587077206344
0.6039374,-1.1737574,10.028712,2016-11-05 09:56:29,67.11418098726368
0.6967127,-0.9995792,9.976639,2016-11-05 09:56:30,63.439687265138275
0.39683893,-0.66498953,9.8515415,2016-11-05 09:56:31,58.73241960578123
1.5891514,-1.2066777,9.533711,2016-11-05 09:56:32,65.32464231724481
1.3269863,-2.1972785,10.754754,2016-11-05 09:56:33,71.51640871102617
0.5530606,-0.8487445,7.633912,2016-11-05 09:56:34,68.37197862969562
1.4454993,-0.52492875,7.732673,2016-11-05 09:56:35,64.78880033451543
2.2224178,0.29328972,10.079589,2016-11-05 09:56:36,59.211421546709445
2.3971944,4.3161473,6.935404,2016-11-05 09:56:37,59.17413607751513
5.2636523,1.8477252,6.1566896,2016-11-05 09:56:38,71.6165606340916
1.2844892,4.4448357,8.4826565,2016-11-05 09:56:39,54.689085130342434
0.7062895,-1.0001777,9.853935,2016-11-05 09:56:40,47.49546777507107
0.9792285,-2.8898015,9.1668,2016-11-05 09:56:41,66.98908106718609
1.1091139,-3.57993,8.674192,2016-11-05 09:56:42,44.11753245712446
-0.56982,-2.782661,9.730635,2016-11-05 09:56:43,45.311597450274526
-0.19512744,-2.8407204,9.270349,2016-11-05 09:56:44,59.705794799902904
1.0995371,-2.6916811,8.333019,2016-11-05 09:56:45,65.49711165978994
1.8369513,2.7898436,11.379641,2016-11-05 09:56:46,65.10681500815429
1.5693992,0.25498247,9.778519,2016-11-05 09:56:47,67.91878132641261
1.5400703,0.26276365,9.779716,2016-11-05 09:56:48,54.024543265116236
1.477821,0.24361002,9.805453,2016-11-05 09:56:49,54.96360214300282
1.4431051,0.22565351,9.809643,2016-11-05 09:56:50,69.38150174079045
1.4808137,0.22266077,9.81503,2016-11-05 09:56:51,60.670575597599694
1.4413095,0.19692309,9.787497,2016-11-05 09:56:52,54.193783920769704
1.4915876,0.22924481,9.800066,2016-11-05 09:56:53,49.750694724626086
1.520318,0.23822308,9.80665,2016-11-05 09:56:54,69.35352156866246
1.5059528,0.2124854,9.776124,2016-11-05 09:56:56,35.04572372912213
1.6424223,0.077811554,10.01315,2016-11-05 09:56:57,34.452362981256364
2.2876596,-0.75477207,10.174759,2016-11-05 09:56:58,43.8141801055597
0.9552865,-0.39683893,9.657013,2016-11-05 09:56:59,41.311337616787156
1.1402385,-0.046686932,9.8437605,2016-11-05 09:57:00,35.09313434776346
1.1139023,-0.050278235,9.855731,2016-11-05 09:57:01,58.293898169434826
1.0827777,-0.0664391,9.840169,2016-11-05 09:57:02,61.86852179131567
1.1180922,-0.06404489,9.859921,2016-11-05 09:57:03,66.55279341170402
1.1007342,-0.077213004,9.859323,2016-11-05 09:57:04,59.5364723735564
1.1210849,-0.08020575,9.849746,2016-11-05 09:57:05,51.889100715333
1.0977415,-0.055066638,9.837775,2016-11-05 09:57:06,46.55404322741638
1.0989386,-0.07062895,9.85214,2016-11-05 09:57:07,54.68508762119959
1.1013328,-0.06404489,9.856929,2016-11-05 09:57:08,52.93407425345816
1.1133038,-0.05327099,9.857527,2016-11-05 09:57:09,43.00667140371547
1.1121067,-0.06584055,9.871294,2016-11-05 09:57:10,53.37296644972867
1.1133038,-0.061650693,9.827001,2016-11-05 09:57:11,60.69728818521259
1.1234791,-0.0700304,9.838972,2016-11-05 09:57:12,68.18037236710441
1.1139023,-0.0712275,9.853935,2016-11-05 09:57:13,72.09434280625341
1.086369,-0.073023155,9.843162,2016-11-05 09:57:14,63.21716813033884
1.1049241,-0.061650693,9.845556,2016-11-05 09:57:15,42.6582450181866
1.09834,-0.0796072,9.888652,2016-11-05 09:57:16,29.991128623570773
1.1145009,-0.061650693,9.843162,2016-11-05 09:57:17,42.41932915377306
1.0989386,-0.06943185,9.850943,2016-11-05 09:57:18,46.969525880824946
1.110311,-0.061650693,9.858724,2016-11-05 09:57:19,32.094111199487315
1.0947487,-0.0712275,9.856929,2016-11-05 09:57:20,31.835696525525165
1.0881647,-0.062249243,9.878476,2016-11-05 09:57:21,37.71628125195094
1.0899603,-0.05746084,9.8515415,2016-11-05 09:57:22,69.6901819707631
1.091756,-0.05626374,9.83957,2016-11-05 09:57:23,45.482763762871315
1.122282,-0.06284779,9.862914,2016-11-05 09:57:24,46.693122597691385
1.0953473,-0.0724246,9.844957,2016-11-05 09:57:25,51.64101269532081
1.1007342,-0.079008654,9.854534,2016-11-05 09:57:26,43.581286172031184
1.1001357,-0.0676362,9.862315,2016-11-05 09:57:27,50.73764090874036
1.1145009,-0.074818805,9.853935,2016-11-05 09:57:29,50.60086199375923
1.1001357,-0.0676362,9.856929,2016-11-05 09:57:30,51.611241579345275
1.0899603,-0.06344634,9.882068,2016-11-05 09:57:31,47.11517963229117
1.0893618,-0.089782566,9.909601,2016-11-05 09:57:32,41.251659014169135
1.0923545,-0.0688333,9.844358,2016-11-05 09:57:33,33.31198826896107
1.0839748,-0.035913024,9.841965,2016-11-05 09:57:34,42.25306938985174
1.1821371,-0.30526072,9.750386,2016-11-05 09:57:35,50.525039446186895
1.0360907,-0.023942016,9.865907,2016-11-05 09:57:36,56.45179381575318
1.0390835,-0.020350715,9.865308,2016-11-05 09:57:37,40.853880337535635
1.0432734,-0.021547815,9.884461,2016-11-05 09:57:38,52.71654530770607
1.050456,-0.004189853,9.852738,2016-11-05 09:57:39,59.49148450094278
1.039682,-0.027533319,9.874287,2016-11-05 09:57:40,48.93929027510054
1.1569979,-0.03172317,9.820416,2016-11-05 09:57:41,49.72615812050495
1.1198878,0.06344634,9.845556,2016-11-05 09:57:42,64.9431563677614
1.0809821,0.05267244,9.883265,2016-11-05 09:57:43,49.47104920226077
1.0869676,0.05746084,9.87668,2016-11-05 09:57:44,47.459942036871716
1.1174936,0.06284779,9.86471,2016-11-05 09:57:45,33.86748590829384
1.103727,0.05865794,9.837775,2016-11-05 09:57:46,30.372484106555795
1.110311,0.0664391,9.865308,2016-11-05 09:57:47,48.662383858716005
1.0803835,0.060453594,9.849746,2016-11-05 09:57:48,40.37272948696107
1.115698,0.0676362,9.859323,2016-11-05 09:57:49,28.805009734824374
1.1019313,0.05566519,9.846753,2016-11-05 09:57:50,35.634039497432994
1.1115081,0.05865794,9.8677025,2016-11-05 09:57:51,60.67660460692119
1.0905589,0.061650693,9.849746,2016-11-05 09:57:52,68.43624555608213
1.0905589,0.0688333,9.879075,2016-11-05 09:57:53,38.343259099969686
1.1019313,0.0676362,9.855133,2016-11-05 09:57:54,49.29299542191397
1.1007342,0.05746084,9.874287,2016-11-05 09:57:55,44.96600128363798
1.1115081,0.06703765,9.855731,2016-11-05 09:57:56,47.16781739674446
1.0875661,0.06344634,9.872491,2016-11-05 09:57:57,48.56579613754433
1.1174936,0.07062895,9.873688,2016-11-05 09:57:58,46.51772433133413
1.09834,0.076015905,9.840768,2016-11-05 09:57:59,46.0021023826118
1.0959458,0.061052144,9.841366,2016-11-05 09:58:01,49.35033351776526
1.049259,0.061052144,9.809643,2016-11-05 09:58:02,54.46741102456251
2.1637597,-7.101801,4.4035354,2016-11-05 09:58:03,57.496965066369555
-0.7673417,-0.5734113,11.13244,2016-11-05 09:58:04,57.213593986267036
0.20709845,0.05746084,9.949105,2016-11-05 09:58:05,42.02986284934259
0.29927522,0.020949265,9.943718,2016-11-05 09:58:06,33.466860258973135
0.28670564,0.02813187,9.910199,2016-11-05 09:58:07,49.13507702608367
0.28491,0.04070143,9.927557,2016-11-05 09:58:08,39.54098776406748
0.2896984,0.04189853,9.913192,2016-11-05 09:58:09,39.00222852006522
0.2765303,0.050876785,9.934141,2016-11-05 09:58:10,46.058106764680645
0.2765303,0.051475335,9.933543,2016-11-05 09:58:11,61.74961422126512
0.28191724,0.023942016,9.944916,2016-11-05 09:58:12,67.33769121848846
0.28550854,0.050278235,9.915586,2016-11-05 09:58:13,64.10053615940326
0.34715924,0.03232172,9.9233675,2016-11-05 09:58:14,69.8874250295348
0.30466217,0.047884032,9.904813,2016-11-05 09:58:15,52.63494774167053
0.2885013,0.036511578,9.928755,2016-11-05 09:58:16,41.47173929069005
0.29149407,0.047884032,9.91798,2016-11-05 09:58:17,49.742534513927986
0.30226797,0.033518825,9.93474,2016-11-05 09:58:18,43.09867540810043
0.30406362,0.04309563,9.911995,2016-11-05 09:58:19,51.0198013545501
0.30885202,0.03172317,9.93474,2016-11-05 09:58:20,59.52183374468021
0.2873042,0.061052144,9.920973,2016-11-05 09:58:21,36.07335039493529
0.30047232,0.044292733,9.932944,2016-11-05 09:58:23,34.5916576230566
0.30526072,0.04070143,9.927557,2016-11-05 09:58:23,71.55356489539241
0.31902736,0.040102877,9.904214,2016-11-05 09:58:24,69.56522988907264
0.33638534,-0.07062895,9.938332,2016-11-05 09:58:25,50.71462243378083
0.31663316,-0.033518825,9.932944,2016-11-05 09:58:26,50.56057854086301
0.3172317,-0.03232172,9.907207,2016-11-05 09:58:27,54.21148413997251
0.31064767,-0.03172317,9.942521,2016-11-05 09:58:29,36.999119440062465
0.29867667,-0.0023942017,9.922171,2016-11-05 09:58:30,35.831123033392565
0.32680854,-0.025139118,9.92636,2016-11-05 09:58:31,49.17811642914285
0.32680854,-0.021547815,9.932944,2016-11-05 09:58:32,39.74284958784014
0.31603462,-0.02873042,9.901819,2016-11-05 09:58:33,56.67438128835387
0.30645782,-0.024540568,9.940725,2016-11-05 09:58:34,71.58804346513065
0.31423897,-0.031124622,9.913791,2016-11-05 09:58:35,44.43297367744311
0.3298013,-0.04369418,9.921572,2016-11-05 09:58:36,30.336888254338447
0.3172317,-0.036511578,9.931149,2016-11-05 09:58:37,39.31650914647581
0.32561144,-0.04369418,9.944916,2016-11-05 09:58:38,30.215665577512553
0.31423897,-0.04070143,9.910798,2016-11-05 09:58:39,36.82596291460553
0.31184477,-0.03172317,9.915586,2016-11-05 09:58:40,54.15265511070011
0.32022446,-0.027533319,9.930551,2016-11-05 09:58:41,56.20837227032402
0.3250129,-0.02813187,9.928755,2016-11-05 09:58:42,52.708591531706034
0.33039984,-0.031124622,9.916184,2016-11-05 09:58:43,59.300378538713986
0.3417723,-0.036511578,9.917382,2016-11-05 09:58:44,54.770119208942816
0.3405752,-0.016759412,9.925163,2016-11-05 09:58:45,63.838627577988206
0.30526072,-0.038905777,9.913192,2016-11-05 09:58:46,58.24613697513005
0.3417723,-0.025139118,9.9473095,2016-11-05 09:58:47,50.230004288250925
0.30705637,-0.02873042,9.922769,2016-11-05 09:58:48,41.038577906726125
0.29747957,-0.040102877,9.917382,2016-11-05 09:58:49,52.45782206074884
0.33279404,-0.023343466,9.917382,2016-11-05 09:58:50,63.14530889739213
0.31783026,-0.02873042,9.922769,2016-11-05 09:58:51,67.27864004319284
0.3238158,-0.021547815,9.904214,2016-11-05 09:58:52,62.803443120927234
0.29927522,-0.025737667,9.929952,2016-11-05 09:58:53,66.66571352090492
0.32441434,-0.044891283,9.942521,2016-11-05 09:58:54,49.32644851751205
0.31004912,-0.04369418,9.925163,2016-11-05 09:58:56,38.092140773556494
0.30645782,-0.040102877,9.9233675,2016-11-05 09:58:57,49.811986640926634
0.31783026,-0.033518825,9.935339,2016-11-05 09:58:58,56.62720422327661
0.30945057,-0.027533319,9.919178,2016-11-05 09:58:59,43.75121836668832
0.31304187,-0.034715924,9.929952,2016-11-05 09:59:00,44.879307347711304
0.3184288,-0.023942016,9.94312,2016-11-05 09:59:01,43.25402636653265
0.3309984,-0.009576807,9.916184,2016-11-05 09:59:02,40.6419607000074
0.33638534,-0.03172317,9.879075,2016-11-05 09:59:03,41.4015692237621
0.31483752,-0.033518825,9.914988,2016-11-05 09:59:04,45.691497906692106
0.3333926,-0.022744916,9.916783,2016-11-05 09:59:05,50.43443688323577
0.32321724,-0.02633622,9.937733,2016-11-05 09:59:06,61.64565050492143
0.32680854,-0.027533319,9.906608,2016-11-05 09:59:07,64.8914702341031
0.3298013,-0.036511578,9.92636,2016-11-05 09:59:08,63.69543192523477
0.3250129,-0.02873042,9.911396,2016-11-05 09:59:09,39.603313218825235
0.33638534,-0.032920275,9.88925,2016-11-05 09:59:10,39.99532746448088
0.3298013,-0.022146367,9.926959,2016-11-05 09:59:11,35.73486972953332
0.32621,-0.017357962,9.949105,2016-11-05 09:59:12,43.5726228912356
0.3369839,-0.035913024,9.93474,2016-11-05 09:59:13,43.61582417434835
0.33758244,-0.034715924,9.935339,2016-11-05 09:59:14,43.21197566403133
0.32142156,-0.022146367,9.905411,2016-11-05 09:59:15,57.47522955375005
0.3250129,-0.029927522,9.947908,2016-11-05 09:59:16,30.243548054843092
0.32561144,-0.035913024,9.916184,2016-11-05 09:59:17,42.8992010677808
0.3309984,-0.032920275,9.911995,2016-11-05 09:59:18,49.72715988199111
0.32441434,-0.040102877,9.935937,2016-11-05 09:59:19,46.04864837273531
0.3238158,-0.029927522,9.932944,2016-11-05 09:59:20,46.49668363242814
0.31663316,-0.033518825,9.920375,2016-11-05 09:59:21,48.62584173332912
0.3274071,-0.038307227,9.933543,2016-11-05 09:59:22,53.00341058827194
0.338181,-0.046686932,9.937134,2016-11-05 09:59:24,51.049542728147586
0.31244332,-0.022744916,9.904813,2016-11-05 09:59:25,52.08122270644091
0.32441434,-0.020350715,9.897031,2016-11-05 09:59:26,48.54574678410876
0.33877954,-0.017357962,9.923966,2016-11-05 09:59:27,37.901936498820646
0.34596214,-0.013766659,9.929353,2016-11-05 09:59:28,37.109699840045685
0.28790274,-0.023343466,9.947908,2016-11-05 09:59:29,33.5290935281428
0.40940848,-0.05267244,9.909002,2016-11-05 09:59:30,48.11242895805661
0.36511576,0.002992752,9.94312,2016-11-05 09:59:31,46.32021672052475
0.37349546,-0.025139118,9.934141,2016-11-05 09:59:32,61.338500229908504
0.46088383,-0.049081136,9.921572,2016-11-05 09:59:33,48.72446737546439
0.45429978,-0.08379706,9.93474,2016-11-05 09:59:34,48.59488148589668
0.49320555,-0.04189853,10.018537,2016-11-05 09:59:35,53.03954417700686
0.45130703,-0.06404489,9.934141,2016-11-05 09:59:36,55.18908286068195
0.4405331,-0.075417355,9.940127,2016-11-05 09:59:37,48.95687251687293
0.42197806,-0.073023155,9.927557,2016-11-05 09:59:38,49.43565861957722
0.38486794,-0.017956512,9.944317,2016-11-05 09:59:39,54.77381337317545
0.3453636,-0.01316811,9.925761,2016-11-05 09:59:40,64.69152661157335
0.34955344,-0.0035913025,9.908403,2016-11-05 09:59:41,52.86810740329437
0.37229836,-0.007182605,9.959879,2016-11-05 09:59:42,55.93002585599923
0.3693056,0.010175358,9.923966,2016-11-05 09:59:43,65.58916550931148
0.38367084,-0.0035913025,9.940127,2016-11-05 09:59:44,48.54522167204506
0.36032736,-0.090979666,10.037092,2016-11-05 09:59:45,46.43535301787604
0.3441665,0.009576807,9.944916,2016-11-05 09:59:46,60.62546333251157
0.36152446,0.005985504,9.898827,2016-11-05 09:59:47,63.08865912128648
0.3573346,-0.01616086,9.922769,2016-11-05 09:59:48,63.690260150831975
0.35254622,-0.0011971008,9.919776,2016-11-05 09:59:49,61.308978240193774
0.3453636,0.0023942017,9.928755,2016-11-05 09:59:50,60.08658841462343
0.3429694,-0.008978256,9.969456,2016-11-05 09:59:51,64.46694851238703
0.35913026,-0.015562311,9.934141,2016-11-05 09:59:52,69.96415860689099
0.35194764,-0.0023942017,9.941324,2016-11-05 09:59:53,58.821857749897106
0.3728969,0.005985504,9.937733,2016-11-05 09:59:55,56.568593086708034
0.3633201,-0.009576807,9.907805,2016-11-05 09:59:56,58.6605167039685
0.34955344,0.01616086,9.917382,2016-11-05 09:59:57,70.45071608741465
0.3429694,-0.0035913025,9.935339,2016-11-05 09:59:58,53.32489833661636
0.3597288,-0.002992752,9.929952,2016-11-05 09:59:59,45.97006287191013
0.3357868,0.0047884034,9.92636,2016-11-05 10:00:00,56.0632887573065
0.33997664,-0.011372458,9.934141,2016-11-05 10:00:01,54.36940384318995
0.34835634,0.0017956513,9.922769,2016-11-05 10:00:02,50.52411019836089
0.34835634,-0.0023942017,9.935339,2016-11-05 10:00:03,63.31679240769459
0.3585317,-0.010773907,9.922171,2016-11-05 10:00:04,67.39485845032402
0.33877954,-0.0011971008,9.937733,2016-11-05 10:00:05,63.09069840327575
0.33638534,-0.0035913025,9.956886,2016-11-05 10:00:06,41.27606054289123
0.3369839,-5.985504E-4,9.930551,2016-11-05 10:00:07,57.41084567695417
0.3477578,0.0017956513,9.926959,2016-11-05 10:00:08,66.09612603928854
0.3633201,-0.014963761,9.942521,2016-11-05 10:00:09,61.89717606109076
0.34596214,0.0011971008,9.919776,2016-11-05 10:00:10,64.18284204106482
0.35673606,-0.011971008,9.946113,2016-11-05 10:00:11,69.43512081012888
0.3561375,0.004189853,9.932944,2016-11-05 10:00:12,67.69801699458814
0.36152446,-0.008978256,9.900622,2016-11-05 10:00:13,65.38569369712864
0.35673606,0.0023942017,9.93893,2016-11-05 10:00:14,65.01533054690205
0.35254622,0.006584055,9.918579,2016-11-05 10:00:15,61.63940373949959
0.31902736,-0.0017956513,9.931149,2016-11-05 10:00:16,53.824182304635045
0.36152446,-0.014963761,9.94312,2016-11-05 10:00:17,54.10971283811748
0.374094,-0.010175358,9.925761,2016-11-05 10:00:18,64.1261307970295
0.33039984,-0.017357962,9.951499,2016-11-05 10:00:19,60.13682289320836
0.36750996,-0.005985504,9.923966,2016-11-05 10:00:20,72.89907402426321
0.3561375,-0.022744916,9.94312,2016-11-05 10:00:21,72.91030545613489
0.35673606,-0.015562311,9.932944,2016-11-05 10:00:22,71.89100023254605
0.36272156,-0.008978256,9.90601,2016-11-05 10:00:23,48.48247538759995
0.35793316,-0.0047884034,9.944317,2016-11-05 10:00:25,46.61666417682672
0.36391866,0.002992752,9.919178,2016-11-05 10:00:26,47.21233473165299
0.374094,-0.004189853,9.923966,2016-11-05 10:00:27,48.704090083555336
0.37469256,-5.985504E-4,9.940127,2016-11-05 10:00:28,70.70975739304905
0.3657143,-0.013766659,9.951499,2016-11-05 10:00:29,73.06136682023492
0.3513491,-0.010175358,9.936536,2016-11-05 10:00:30,60.16309279484871
0.37469256,-0.01316811,9.939528,2016-11-05 10:00:31,61.006692664756635
0.36990416,0.006584055,9.946113,2016-11-05 10:00:32,66.24440247647141
0.3585317,0.011971008,9.918579,2016-11-05 10:00:33,58.24045967175644
0.3657143,0.0023942017,9.946711,2016-11-05 10:00:34,61.636242737311534
0.38307226,-0.021547815,9.9550905,2016-11-05 10:00:35,47.01549745168074
0.36631286,0.0077811554,9.938332,2016-11-05 10:00:36,54.26763235610669
0.36990416,0.0011971008,9.926959,2016-11-05 10:00:37,55.74651055689151
0.3812766,0.011372458,9.921572,2016-11-05 10:00:38,60.500111130165294
0.38187516,0.005985504,9.944317,2016-11-05 10:00:39,61.39875115184896
0.37110126,0.015562311,9.930551,2016-11-05 10:00:40,62.775670239549505
0.36870706,0.007182605,9.919776,2016-11-05 10:00:41,73.54746308846791
0.38606504,-0.008978256,9.929353,2016-11-05 10:00:42,66.29920974359324
0.3513491,5.985504E-4,9.936536,2016-11-05 10:00:43,67.05696207312896
0.37588966,0.008379706,9.91798,2016-11-05 10:00:45,62.95639591542027
0.37229836,5.985504E-4,9.928156,2016-11-05 10:00:46,63.51660780030424
0.3854665,0.01316811,9.946113,2016-11-05 10:00:47,68.08560586969848
0.3465607,0.0011971008,9.9233675,2016-11-05 10:00:48,46.10754356456896
0.3693056,5.985504E-4,9.920973,2016-11-05 10:00:49,42.996790050125746
0.37229836,0.004189853,9.939528,2016-11-05 10:00:50,54.80963269512127
0.37708676,0.0023942017,9.922769,2016-11-05 10:00:51,47.07777507537568
0.3824737,-0.008379706,9.944317,2016-11-05 10:00:52,45.01852674292384
0.36032736,0.010175358,9.945514,2016-11-05 10:00:53,50.591165524596356
0.3645172,0.022744916,9.927557,2016-11-05 10:00:54,54.52755763271423
0.37349546,0.021547815,9.924564,2016-11-05 10:00:55,65.371905948364
0.3693056,0.007182605,9.953295,2016-11-05 10:00:56,57.86581385547878
0.36990416,5.985504E-4,9.959281,2016-11-05 10:00:57,52.28364920033787
0.35913026,0.002992752,9.953295,2016-11-05 10:00:58,56.27348116990909
0.3842694,0.0011971008,9.933543,2016-11-05 10:00:59,57.08501682762035
0.3657143,0.015562311,9.928755,2016-11-05 10:01:00,57.04285909675128
0.36391866,-5.985504E-4,9.916184,2016-11-05 10:01:01,58.12784423035125
0.36152446,0.004189853,9.931747,2016-11-05 10:01:02,57.38550935414259
0.3633201,0.0047884034,9.901221,2016-11-05 10:01:03,66.52512499658742
0.37948096,-0.0011971008,9.932345,2016-11-05 10:01:04,55.3138150120988
0.38367084,0.0077811554,9.949704,2016-11-05 10:01:05,36.19697438273221
0.36032736,0.01616086,9.941324,2016-11-05 10:01:06,59.81899865621227
0.3549404,0.004189853,9.940127,2016-11-05 10:01:07,39.276423535891844
0.3597288,0.0035913025,9.922769,2016-11-05 10:01:08,37.97675798683795
0.36870706,-0.007182605,9.941922,2016-11-05 10:01:09,46.78882613669262
0.36272156,0.010175358,9.940127,2016-11-05 10:01:10,58.99937102567538
0.35434186,0.01436521,9.937733,2016-11-05 10:01:11,68.30992763405968
0.36152446,0.011372458,9.942521,2016-11-05 10:01:12,54.40096454168707
0.36511576,-0.0053869537,9.928755,2016-11-05 10:01:13,48.56975753466757
0.36631286,0.0023942017,9.928156,2016-11-05 10:01:14,48.819933337493076
0.34715924,0.010175358,9.911995,2016-11-05 10:01:15,66.74256785977848
0.36272156,0.008978256,9.950302,2016-11-05 10:01:16,60.31599211457147
0.37708676,0.0053869537,9.944916,2016-11-05 10:01:17,47.49952660297723
0.3609259,0.025139118,9.9473095,2016-11-05 10:01:18,40.022091379596134
0.3681085,0.013766659,9.930551,2016-11-05 10:01:19,69.8949362911208
0.36631286,0.018555064,9.921572,2016-11-05 10:01:20,42.72219997799282
0.3693056,0.007182605,9.923966,2016-11-05 10:01:21,49.55387235301128
0.3609259,-5.985504E-4,9.942521,2016-11-05 10:01:22,55.43075595310868
0.3681085,5.985504E-4,9.906608,2016-11-05 10:01:24,45.9350630898058
0.3645172,0.010773907,9.91439,2016-11-05 10:01:25,44.26438212013227
0.36272156,0.021547815,9.920375,2016-11-05 10:01:26,60.7318589881323
0.3716998,0.027533319,9.9233675,2016-11-05 10:01:27,64.92124379043727
0.3812766,0.021547815,9.92636,2016-11-05 10:01:28,45.54408176521312
0.38965634,0.017357962,9.908403,2016-11-05 10:01:29,71.92430922676121
0.37948096,0.01316811,9.946113,2016-11-05 10:01:30,60.01093718252455
0.38486794,0.018555064,9.952697,2016-11-05 10:01:31,54.819246490505535
0.39264908,0.008379706,9.942521,2016-11-05 10:01:32,64.06714570534231
0.38486794,0.012569559,9.940127,2016-11-05 10:01:33,64.84918731015722
0.3854665,0.020949265,9.93893,2016-11-05 10:01:34,64.12233404843536
0.37828386,0.021547815,9.927557,2016-11-05 10:01:35,60.58430951289263
0.37588966,0.023942016,9.941922,2016-11-05 10:01:36,28.32259361195662
0.3800795,0.015562311,9.924564,2016-11-05 10:01:37,32.48067567954208
0.3441665,0.004189853,9.920973,2016-11-05 10:01:38,38.11475091567766
0.39863458,0.015562311,9.957485,2016-11-05 10:01:39,72.72882324521802
0.38726214,0.014963761,9.898229,2016-11-05 10:01:40,25.57304142824588
0.37229836,0.01316811,9.942521,2016-11-05 10:01:41,22.2585019715336
0.37948096,0.0077811554,9.942521,2016-11-05 10:01:42,59.921457321820036
0.37469256,-0.011971008,9.925163,2016-11-05 10:01:43,50.52582132286493
0.374094,0.026934769,9.941922,2016-11-05 10:01:44,51.10130323045476
0.39085343,0.017357962,9.93474,2016-11-05 10:01:45,48.32597977850108
0.3716998,0.008978256,9.972448,2016-11-05 10:01:46,35.019488596712804
0.3878607,0.008379706,9.931149,2016-11-05 10:01:47,57.69386276844874
0.3537433,0.005985504,9.934141,2016-11-05 10:01:48,58.64621993314259
0.38965634,0.011372458,9.942521,2016-11-05 10:01:49,42.08986569633282
0.3800795,0.0047884034,9.943718,2016-11-05 10:01:50,32.90175177530671
0.38486794,0.015562311,9.952098,2016-11-05 10:01:51,47.32544203731262
0.37469256,0.0047884034,9.932345,2016-11-05 10:01:52,53.76214875083895
0.38067806,0.005985504,9.958682,2016-11-05 10:01:53,39.38181082397917
0.40102878,0.011971008,9.888053,2016-11-05 10:01:55,31.71548202801762
0.34237084,0.005985504,9.910798,2016-11-05 10:01:56,64.39156636621877
0.3776853,0.010175358,9.938332,2016-11-05 10:01:57,50.658153176486074
0.35673606,0.0035913025,9.906608,2016-11-05 10:01:58,41.14187052576497
0.3705027,0.0023942017,9.940127,2016-11-05 10:01:59,42.306964944542855
0.3716998,0.011372458,9.921572,2016-11-05 10:02:00,49.96931835911613
0.34835634,0.007182605,9.940127,2016-11-05 10:02:01,44.258864120948886
0.38187516,-0.0023942017,9.921572,2016-11-05 10:02:02,34.33986227416307
0.35194764,0.0023942017,9.920973,2016-11-05 10:02:03,36.22372384604559
0.3669114,0.014963761,9.950901,2016-11-05 10:02:04,50.80897419374893
0.3537433,0.0023942017,9.932944,2016-11-05 10:02:05,42.248905383032636
0.3705027,-0.002992752,9.924564,2016-11-05 10:02:06,35.94465755425241
0.3657143,0.0077811554,9.925761,2016-11-05 10:02:07,38.66982539849078
0.34237084,-0.0035913025,9.933543,2016-11-05 10:02:08,45.36435727576116
0.3633201,0.010175358,9.941922,2016-11-05 10:02:09,36.95733063289453
0.38067806,-0.0023942017,9.940127,2016-11-05 10:02:10,24.284081676494672
0.36750996,0.020350715,9.940127,2016-11-05 10:02:11,49.30316141631353
0.35075054,0.0077811554,9.925761,2016-11-05 10:02:12,55.09717743810236
0.3800795,0.0017956513,9.938332,2016-11-05 10:02:13,54.68371232569312
0.36391866,0.01316811,9.949105,2016-11-05 10:02:14,47.66426906610932
0.3681085,0.0053869537,9.931149,2016-11-05 10:02:15,55.67725624634232
0.36152446,-0.007182605,9.935339,2016-11-05 10:02:16,48.96402573391728
0.36750996,-0.0077811554,9.925163,2016-11-05 10:02:17,57.68490465973004
0.38726214,5.985504E-4,9.962872,2016-11-05 10:02:18,57.506437340174365
0.3776853,-0.006584055,9.919178,2016-11-05 10:02:19,47.860153543799726
0.36990416,0.002992752,9.926959,2016-11-05 10:02:20,54.76647049449093
0.3549404,0.0017956513,9.940127,2016-11-05 10:02:21,62.05327184871421
0.36870706,-0.004189853,9.922171,2016-11-05 10:02:22,65.12946014923574
0.35553896,-0.019153614,9.911396,2016-11-05 10:02:23,62.11248125733147
0.38067806,-0.023343466,9.940725,2016-11-05 10:02:24,54.53292328431101
0.37948096,0.008379706,9.940725,2016-11-05 10:02:26,67.1780665003536
0.3800795,0.0017956513,9.931747,2016-11-05 10:02:27,51.01390670553107
0.35314476,0.0023942017,9.946711,2016-11-05 10:02:28,55.0976366678648
0.3800795,-0.012569559,9.926959,2016-11-05 10:02:29,63.43015968288799
0.38307226,0.0047884034,9.949105,2016-11-05 10:02:30,46.77873173002746
0.36750996,0.004189853,9.91439,2016-11-05 10:02:31,27.46648791920961
0.3609259,0.006584055,9.927557,2016-11-05 10:02:32,49.6872911032294
0.36032736,0.014963761,9.959281,2016-11-05 10:02:33,71.7640205426489
0.36152446,0.005985504,9.960478,2016-11-05 10:02:34,67.93759738399703
0.37469256,0.006584055,9.931149,2016-11-05 10:02:35,57.59427646473493
0.36750996,-0.0011971008,9.934141,2016-11-05 10:02:36,65.04212968615956
0.3645172,-0.0035913025,9.935937,2016-11-05 10:02:37,61.745835721948424
0.36032736,0.01436521,9.947908,2016-11-05 10:02:39,71.24823270247185
0.3705027,0.0047884034,9.933543,2016-11-05 10:02:40,64.74546177492344
0.3609259,-0.010773907,9.949704,2016-11-05 10:02:41,58.61231592872915
0.37229836,0.008379706,9.93893,2016-11-05 10:02:42,45.268384775014724
0.36631286,-0.010175358,9.968858,2016-11-05 10:02:43,65.54819816427243
0.3549404,0.0017956513,9.966463,2016-11-05 10:02:44,42.985080544721335
0.36152446,0.0011971008,9.953295,2016-11-05 10:02:45,26.586998755514628
0.37708676,0.0077811554,10.107122,2016-11-05 10:02:46,46.98587358093864
0.38187516,0.01316811,9.968259,2016-11-05 10:02:47,46.50599322951872
0.36870706,0.0023942017,9.929952,2016-11-05 10:02:48,48.64847369599636
0.3633201,0.0077811554,9.919776,2016-11-05 10:02:49,51.657666476869146
0.3716998,0.017956512,9.935937,2016-11-05 10:02:50,53.56470566038816
0.35913026,-0.009576807,9.92636,2016-11-05 10:02:51,46.94715979247916
0.36272156,0.011372458,9.942521,2016-11-05 10:02:52,60.22771751561014
0.3669114,0.005985504,9.925761,2016-11-05 10:02:53,60.35630092848022
0.350152,0.005985504,9.934141,2016-11-05 10:02:54,60.152887064509954
0.3764882,0.004189853,9.920375,2016-11-05 10:02:55,58.14535010463615
0.374094,0.017956512,9.957485,2016-11-05 10:02:56,60.167145483083274
0.3513491,0.006584055,9.919178,2016-11-05 10:02:57,63.93648071989459
0.35913026,0.006584055,9.929353,2016-11-05 10:02:58,66.52736014186755
0.34955344,0.015562311,9.947908,2016-11-05 10:02:59,67.9287132651341
0.3681085,0.0017956513,9.927557,2016-11-05 10:03:00,61.08546241739263
0.37229836,0.010773907,9.931747,2016-11-05 10:03:01,48.461275314939584
0.37828386,0.0011971008,9.938332,2016-11-05 10:03:02,71.37265218503245
0.3681085,0.006584055,9.922769,2016-11-05 10:03:03,61.01934997068096
0.3477578,0.002992752,9.929952,2016-11-05 10:03:04,40.53360715207006
0.34596214,0.014963761,9.896433,2016-11-05 10:03:05,63.73853099688796
0.35913026,0.012569559,9.940725,2016-11-05 10:03:06,71.1134467120174
0.39205053,0.007182605,9.922769,2016-11-05 10:03:07,71.18864939187344
0.3657143,0.009576807,9.937134,2016-11-05 10:03:08,71.73696186258934
0.3669114,0.010175358,9.92636,2016-11-05 10:03:09,45.07254718322535
0.34476504,0.0035913025,9.9233675,2016-11-05 10:03:10,52.41452791503442
0.35553896,0.012569559,9.926959,2016-11-05 10:03:12,68.9320997762887
0.34715924,-0.0017956513,9.914988,2016-11-05 10:03:13,67.57221204554553
0.35254622,0.008379706,9.94312,2016-11-05 10:03:14,49.62942772060869
0.3561375,0.0077811554,9.942521,2016-11-05 10:03:15,50.563162383778675
0.36990416,0.023942016,9.935339,2016-11-05 10:03:16,69.58160486321705
0.3573346,-0.004189853,9.964069,2016-11-05 10:03:17,34.23875860781226
0.35553896,0.008379706,9.947908,2016-11-05 10:03:18,23.712410834992816
0.3573346,0.014963761,9.944317,2016-11-05 10:03:19,43.574127370367954
0.3705027,-0.0011971008,9.946113,2016-11-05 10:03:20,34.79675163393935
0.3633201,0.0017956513,9.908403,2016-11-05 10:03:21,33.91117128378297
0.37708676,0.0011971008,9.926959,2016-11-05 10:03:22,34.91411599808416
0.3477578,0.005985504,9.92636,2016-11-05 10:03:23,49.377201197130304
0.37110126,0.002992752,9.936536,2016-11-05 10:03:24,45.5503463823871
0.3728969,0.013766659,9.957485,2016-11-05 10:03:25,43.916343141698334
0.36032736,-0.0011971008,9.940127,2016-11-05 10:03:26,51.59576488434585
0.36870706,0.0047884034,9.957485,2016-11-05 10:03:27,39.00732983698789
0.350152,0.0011971008,9.942521,2016-11-05 10:03:28,48.16676329645085
0.3633201,0.005985504,9.939528,2016-11-05 10:03:29,43.102544160533334
0.35314476,0.011372458,9.941922,2016-11-05 10:03:30,44.40284334602584
0.3597288,-0.002992752,9.956287,2016-11-05 10:03:31,42.638202644591374
0.34955344,0.008978256,9.966463,2016-11-05 10:03:32,42.79391074320749
0.3609259,0.0011971008,9.943718,2016-11-05 10:03:33,39.62715076625414
0.37110126,-0.0017956513,9.92636,2016-11-05 10:03:34,47.0324697891331
0.3573346,0.01436521,9.946113,2016-11-05 10:03:35,58.11263978965616
0.3693056,-0.005985504,9.929952,2016-11-05 10:03:36,48.765633303616
0.3477578,-0.004189853,9.929952,2016-11-05 10:03:37,24.86120410875194
0.35673606,0.011971008,9.938332,2016-11-05 10:03:38,38.21911899257681
0.37229836,0.002992752,9.945514,2016-11-05 10:03:39,31.196620253662978
0.33877954,0.0011971008,9.943718,2016-11-05 10:03:40,44.927910224647476
0.35194764,0.0035913025,9.928755,2016-11-05 10:03:41,49.54325575394287
0.37469256,0.017357962,9.941922,2016-11-05 10:03:43,46.104098127842605
0.35434186,-0.007182605,9.946711,2016-11-05 10:03:44,53.96932265206212
0.3609259,0.019752163,9.950901,2016-11-05 10:03:45,60.80581944879984
0.37708676,-0.006584055,9.943718,2016-11-05 10:03:46,60.89733552202426
0.3561375,0.010175358,9.927557,2016-11-05 10:03:47,55.23678066545929
0.3453636,0.01436521,9.937733,2016-11-05 10:03:48,42.86456399572714
0.3705027,-0.0053869537,9.936536,2016-11-05 10:03:49,48.85189772763916
0.35913026,-0.0053869537,9.928755,2016-11-05 10:03:50,45.84345290643949
0.35314476,0.011372458,9.918579,2016-11-05 10:03:51,41.73153112114888
0.3405752,0.01436521,9.941324,2016-11-05 10:03:52,58.25074923130798
0.3693056,0.018555064,9.961076,2016-11-05 10:03:53,40.84282963110762
0.36870706,0.017357962,9.907805,2016-11-05 10:03:54,46.4454118065193
0.3513491,0.009576807,9.931747,2016-11-05 10:03:55,39.30784166539544
0.35793316,-0.008978256,9.932345,2016-11-05 10:03:56,51.0673842577215
0.34596214,0.016759412,9.930551,2016-11-05 10:03:57,56.682035720065365
0.37110126,0.009576807,9.943718,2016-11-05 10:03:58,59.50193544794419
0.350152,0.0023942017,9.931747,2016-11-05 10:03:59,62.86255250367613
0.36631286,0.012569559,9.952697,2016-11-05 10:04:00,56.05514818033961
0.362123,0.021547815,9.920375,2016-11-05 10:04:01,53.458919215983386
0.36750996,0.006584055,9.946113,2016-11-05 10:04:02,59.64514869701698
0.38726214,-0.011372458,9.93893,2016-11-05 10:04:03,59.453868979584364
0.3728969,0.004189853,9.931149,2016-11-05 10:04:04,62.7860076383491
0.36032736,0.008978256,9.919178,2016-11-05 10:04:05,60.53012568889879
0.37349546,0.008978256,9.927557,2016-11-05 10:04:06,52.74083184043654
0.3788824,0.016759412,9.949105,2016-11-05 10:04:07,56.39363274350151
0.3609259,0.008379706,9.915586,2016-11-05 10:04:08,62.54568812544146
0.35913026,0.0035913025,9.928156,2016-11-05 10:04:09,54.26192453353016
0.3693056,0.006584055,9.947908,2016-11-05 10:04:11,61.03977249123841
0.35793316,0.008978256,9.932944,2016-11-05 10:04:12,62.712882406501514
0.34356794,0.0077811554,9.937733,2016-11-05 10:04:13,63.10683397255302
0.33399114,0.011971008,9.946711,2016-11-05 10:04:14,70.40620858295044
0.3369839,-0.0017956513,9.969456,2016-11-05 10:04:15,70.25151935393916
0.36870706,0.008978256,9.919178,2016-11-05 10:04:16,72.2532759812946
0.35913026,0.009576807,9.941922,2016-11-05 10:04:17,70.90297419558185
0.362123,0.0011971008,9.930551,2016-11-05 10:04:18,70.25926043908682
0.3561375,-0.008978256,9.93474,2016-11-05 10:04:19,71.13446567169989
0.36631286,0.008379706,9.962274,2016-11-05 10:04:20,64.4865932014986
0.37469256,0.019153614,9.938332,2016-11-05 10:04:21,69.26177962305123
0.34835634,0.011971008,9.937134,2016-11-05 10:04:22,71.56216155929255
0.35434186,0.011372458,9.959281,2016-11-05 10:04:23,49.914935635714315
0.35913026,0.008379706,9.940127,2016-11-05 10:04:24,41.00506671654678
0.36990416,-0.0047884034,9.959879,2016-11-05 10:04:25,71.80631310172424
0.3573346,0.01616086,9.950302,2016-11-05 10:04:26,50.46405920916823
0.35194764,0.002992752,9.960478,2016-11-05 10:04:27,21.132224100318048
0.3537433,0.020350715,9.936536,2016-11-05 10:04:28,36.116848144311184
0.3573346,0.01316811,9.916783,2016-11-05 10:04:29,47.25884411504715
0.35075054,0.0077811554,9.945514,2016-11-05 10:04:30,71.26422424380166
0.35913026,0.023942016,9.94312,2016-11-05 10:04:31,53.49834090209384
0.3597288,0.02633622,9.937134,2016-11-05 10:04:32,46.67948926905765
0.3513491,0.016759412,9.965266,2016-11-05 10:04:33,47.98253972125081
0.3513491,0.008978256,9.957485,2016-11-05 10:04:34,71.23798551242396
0.3573346,0.016759412,9.939528,2016-11-05 10:04:35,70.44278135911281
0.3776853,-0.0047884034,9.949105,2016-11-05 10:04:36,45.53916613413446
0.3693056,0.033518825,9.97185,2016-11-05 10:04:37,30.8924809739546
0.35314476,0.002992752,9.936536,2016-11-05 10:04:38,53.87784811261139
0.3657143,0.008379706,9.949704,2016-11-05 10:04:39,42.10049092746097
0.35793316,0.0011971008,9.955689,2016-11-05 10:04:40,46.71914456851973
0.3537433,0.011971008,9.959879,2016-11-05 10:04:41,51.5925519519478
0.3633201,0.010773907,9.942521,2016-11-05 10:04:42,43.28366923587865
0.374094,-0.005985504,9.960478,2016-11-05 10:04:43,46.18277348912364
0.3549404,-0.0017956513,9.968259,2016-11-05 10:04:44,47.75595954596828
0.3465607,-0.0011971008,9.937134,2016-11-05 10:04:45,48.8965524588847
0.35434186,0.024540568,9.926959,2016-11-05 10:04:46,53.9878778665668
0.350152,0.01316811,9.965266,2016-11-05 10:04:47,61.28941180584023
0.37948096,0.017357962,9.944916,2016-11-05 10:04:48,54.95779445919091
0.36272156,-0.005985504,9.9550905,2016-11-05 10:04:49,51.11437061934274
0.3549404,0.0023942017,9.953894,2016-11-05 10:04:50,55.37926679777996
0.3453636,0.01616086,9.940127,2016-11-05 10:04:51,36.53166669160412
0.37469256,0.017956512,9.965864,2016-11-05 10:04:52,56.301327984580006
0.36152446,5.985504E-4,9.980229,2016-11-05 10:04:53,55.994417607757406
0.36272156,0.01616086,9.94312,2016-11-05 10:04:55,64.26455787172743
0.3657143,0.0011971008,9.970653,2016-11-05 10:04:56,64.01901231524941
0.35793316,0.016759412,9.923966,2016-11-05 10:04:57,64.98441955813682
0.35254622,0.002992752,9.965864,2016-11-05 10:04:58,61.109253991590606
0.3705027,0.0077811554,9.942521,2016-11-05 10:04:59,55.91161498173757
0.37948096,0.0011971008,9.951499,2016-11-05 10:05:00,50.226481178756686
0.36511576,0.0035913025,9.94312,2016-11-05 10:05:01,46.48084524806552
0.3633201,0.0023942017,9.944317,2016-11-05 10:05:02,44.484345110268194
0.3657143,0.0077811554,9.933543,2016-11-05 10:05:03,63.53683174287461
0.37708676,0.0077811554,9.943718,2016-11-05 10:05:04,60.82759255780991
0.35553896,0.013766659,9.970055,2016-11-05 10:05:05,44.8376995283449
0.36870706,0.009576807,9.953894,2016-11-05 10:05:06,48.155304523084496
0.3764882,0.025139118,9.937134,2016-11-05 10:05:07,45.50471543385246
0.3393781,0.0077811554,9.946711,2016-11-05 10:05:08,68.50701185233886
0.37229836,0.006584055,9.925761,2016-11-05 10:05:09,61.761152712575786
0.3549404,0.0077811554,9.967062,2016-11-05 10:05:10,59.73673403662373
0.3597288,-0.0017956513,9.929353,2016-11-05 10:05:11,57.49103763955993
0.34835634,0.002992752,9.944916,2016-11-05 10:05:12,39.221439340436554
0.3477578,0.007182605,9.946113,2016-11-05 10:05:13,38.32926440958681
0.35553896,0.011971008,9.9473095,2016-11-05 10:05:14,62.3584069289021
0.3800795,0.0017956513,9.929952,2016-11-05 10:05:15,54.6529521216797
0.36272156,0.004189853,9.932944,2016-11-05 10:05:16,54.52717338319984
0.3489549,0.004189853,9.965864,2016-11-05 10:05:17,56.21100059262191
0.362123,0.012569559,9.973047,2016-11-05 10:05:18,62.63060325335228
0.37588966,0.006584055,9.949105,2016-11-05 10:05:19,53.52664173032639
0.36032736,0.019752163,9.947908,2016-11-05 10:05:21,53.23020803858107
0.36272156,-0.0011971008,9.932345,2016-11-05 10:05:22,46.27559050333532
0.3681085,-0.0077811554,9.946113,2016-11-05 10:05:23,50.92387462068177
0.36870706,0.010175358,9.965266,2016-11-05 10:05:24,71.68592603558756
0.3657143,0.008978256,9.954493,2016-11-05 10:05:25,65.55037470531036
0.34955344,0.008978256,9.955689,2016-11-05 10:05:26,49.61158391059591
0.34715924,-0.002992752,9.941922,2016-11-05 10:05:27,52.79733357627917
0.3633201,0.002992752,9.957485,2016-11-05 10:05:28,52.88266745434002
0.34835634,0.022744916,9.933543,2016-11-05 10:05:29,53.56483484590501
0.35254622,0.012569559,9.951499,2016-11-05 10:05:30,45.90205399671612
0.3597288,0.007182605,9.9473095,2016-11-05 10:05:31,61.87491515136859
0.34715924,0.01616086,9.964667,2016-11-05 10:05:32,53.47842668083348
0.3597288,0.009576807,9.932345,2016-11-05 10:05:33,43.585353366553
0.34596214,0.008379706,9.939528,2016-11-05 10:05:34,44.229381738435535
0.362123,0.009576807,9.931747,2016-11-05 10:05:35,65.16679432317908
0.3573346,0.01616086,9.964667,2016-11-05 10:05:36,70.4685213602717
0.36391866,0.010773907,9.962872,2016-11-05 10:05:37,68.0457064641878
0.35913026,0.024540568,9.940725,2016-11-05 10:05:38,63.932579762471235
0.37229836,0.023343466,9.957485,2016-11-05 10:05:39,61.0088025001269
0.36032736,0.019752163,9.945514,2016-11-05 10:05:40,69.6478111564129
0.3417723,0.0053869537,9.940725,2016-11-05 10:05:41,61.06346096010202
0.36272156,0.009576807,9.978435,2016-11-05 10:05:42,60.41635378079683
0.3609259,0.017956512,9.950901,2016-11-05 10:05:43,54.77154445311908
0.3549404,0.025737667,9.962274,2016-11-05 10:05:44,73.02089074030361
0.36152446,0.010773907,9.934141,2016-11-05 10:05:45,56.398125826058816
0.36750996,0.008379706,9.935937,2016-11-05 10:05:46,57.61569987441404
0.35793316,0.0047884034,9.941922,2016-11-05 10:05:47,72.63046570705188
0.35913026,0.017956512,9.946711,2016-11-05 10:05:48,58.27455951633886
0.3573346,0.014963761,9.926959,2016-11-05 10:05:49,29.324198550361356
0.36750996,-5.985504E-4,9.965266,2016-11-05 10:05:50,56.86735909313907
0.35075054,0.010773907,9.973047,2016-11-05 10:05:52,66.16287747610792
0.3561375,0.010175358,9.946113,2016-11-05 10:05:53,54.317051241633
0.350152,0.01436521,9.959281,2016-11-05 10:05:54,69.89731364243652
0.350152,0.016759412,9.93474,2016-11-05 10:05:55,68.45863907848552
0.362123,0.007182605,9.980828,2016-11-05 10:05:56,58.22036254421637
0.3477578,0.010175358,9.950901,2016-11-05 10:05:57,69.14873036184771
0.3645172,0.010773907,9.92636,2016-11-05 10:05:58,71.38466171470706
0.3657143,0.015562311,9.949105,2016-11-05 10:05:59,48.544120399957265
0.35793316,5.985504E-4,9.953894,2016-11-05 10:06:00,42.06433130680993
0.3728969,0.019752163,9.937733,2016-11-05 10:06:01,22.88207292437768
0.3597288,-0.010175358,9.968259,2016-11-05 10:06:02,25.776533376787395
0.3800795,0.01316811,9.935339,2016-11-05 10:06:03,34.93388770968572
0.3633201,0.020949265,9.950901,2016-11-05 10:06:04,71.61138631193319
0.3573346,0.0023942017,9.966463,2016-11-05 10:06:05,32.81423999703921
0.34955344,0.011372458,9.96766,2016-11-05 10:06:06,31.56178942282409
0.3585317,-0.004189853,9.96347,2016-11-05 10:06:07,61.861315218229684
0.36272156,0.0047884034,9.936536,2016-11-05 10:06:08,48.09195356255046
0.36152446,0.011971008,9.941324,2016-11-05 10:06:09,44.56008561154026
0.38187516,5.985504E-4,9.958682,2016-11-05 10:06:10,36.84129172577885
0.3513491,0.012569559,9.947908,2016-11-05 10:06:11,44.869782263870725
0.35673606,0.007182605,9.9473095,2016-11-05 10:06:12,44.84350029497286
0.35314476,0.006584055,9.952697,2016-11-05 10:06:13,45.18821702820206
0.37469256,0.01616086,9.965266,2016-11-05 10:06:15,43.08735243359152
0.36391866,0.004189853,9.948506,2016-11-05 10:06:16,39.077256805078555
0.338181,-0.14724341,9.950901,2016-11-05 10:06:17,41.941192386761976
0.36272156,0.019752163,9.958083,2016-11-05 10:06:18,43.203572131667414
0.35793316,-0.0047884034,9.932345,2016-11-05 10:06:19,43.1781623359321
0.36631286,0.0011971008,9.97604,2016-11-05 10:06:20,41.00776429349749
0.35254622,-0.011372458,9.950901,2016-11-05 10:06:21,51.72168720722364
0.36152446,0.0035913025,9.943718,2016-11-05 10:06:22,39.50705382744009
0.504578,0.3513491,9.090784,2016-11-05 10:06:23,28.353972444305292
0.3728969,0.016759412,9.916184,2016-11-05 10:06:24,33.100962781630685
0.36870706,0.014963761,9.934141,2016-11-05 10:06:25,55.62616586908095
0.3429694,0.009576807,9.949105,2016-11-05 10:06:26,52.319978724738164
0.37349546,-0.007182605,9.975441,2016-11-05 10:06:27,50.49311536173409
0.3645172,0.0035913025,9.935339,2016-11-05 10:06:28,52.07028662411712
0.36631286,0.011372458,9.959879,2016-11-05 10:06:29,50.60105604283737
0.34356794,0.01436521,9.949105,2016-11-05 10:06:30,57.25593693201933
0.35434186,0.025737667,9.93893,2016-11-05 10:06:31,51.93296350823197
0.34835634,0.016759412,9.933543,2016-11-05 10:06:32,51.99471775514816
0.36152446,-5.985504E-4,9.972448,2016-11-05 10:06:33,50.216405756833176
0.34596214,0.020350715,9.932345,2016-11-05 10:06:34,51.61111262067
0.3657143,-0.017357962,9.937733,2016-11-05 10:06:35,54.32504785157954
0.38067806,0.0047884034,9.941324,2016-11-05 10:06:36,57.69304725248134
0.3357868,-0.01316811,9.953295,2016-11-05 10:06:38,58.65138980076197
0.35553896,0.0011971008,9.935339,2016-11-05 10:06:38,46.79511363079497
0.362123,-0.002992752,9.9233675,2016-11-05 10:06:39,22.416787534235695
0.3309984,0.006584055,9.938332,2016-11-05 10:06:40,50.36676643176071
0.3477578,0.013766659,9.929353,2016-11-05 10:06:41,58.67307513029896
0.3609259,0.011372458,9.9473095,2016-11-05 10:06:43,60.43371123487776
0.3657143,0.017357962,9.959879,2016-11-05 10:06:44,59.033327135154266
0.34596214,-0.004189853,9.96347,2016-11-05 10:06:45,58.804814049947716
0.3669114,5.985504E-4,9.982624,2016-11-05 10:06:46,65.38686896301785
0.35553896,0.002992752,9.96766,2016-11-05 10:06:47,58.05924190834486
0.36631286,0.002992752,9.970653,2016-11-05 10:06:48,59.7981621798747
0.35673606,0.011372458,9.973047,2016-11-05 10:06:49,38.832686539582106
0.36631286,0.022146367,9.965266,2016-11-05 10:06:50,34.4831396398894
0.3477578,0.0023942017,9.964667,2016-11-05 10:06:51,65.28894439304236
0.38187516,0.01616086,9.939528,2016-11-05 10:06:52,42.69053379281874
0.3752911,0.006584055,9.951499,2016-11-05 10:06:53,26.330074042928363
0.3561375,0.004189853,9.950302,2016-11-05 10:06:54,56.6135730401026
0.36152446,0.0053869537,9.935937,2016-11-05 10:06:55,42.10594632488351
0.35553896,0.015562311,9.947908,2016-11-05 10:06:56,43.21596683032315
0.3561375,0.012569559,9.953295,2016-11-05 10:06:57,50.37791386056293
0.3561375,0.01316811,9.937733,2016-11-05 10:06:58,58.32851151961354
0.35913026,0.0077811554,9.958083,2016-11-05 10:06:59,49.74558579503132
0.36032736,0.0011971008,9.943718,2016-11-05 10:07:00,25.1867430311561
0.3573346,0.006584055,9.968858,2016-11-05 10:07:01,29.676093955294252
0.37588966,-0.005985504,9.948506,2016-11-05 10:07:02,40.25251447010369
0.3597288,-5.985504E-4,9.951499,2016-11-05 10:07:03,55.33244665457592
0.36391866,0.019153614,9.959879,2016-11-05 10:07:04,53.72742191227143
0.36391866,0.011971008,9.958083,2016-11-05 10:07:05,52.089284634962816
0.34835634,0.012569559,9.928156,2016-11-05 10:07:06,55.55727977582798
0.37708676,0.008978256,9.936536,2016-11-05 10:07:07,66.25221432546024
0.38845924,0.005985504,9.936536,2016-11-05 10:07:08,47.557526931695485
0.34596214,0.025139118,9.945514,2016-11-05 10:07:09,43.4688207069103
0.3513491,0.008379706,9.962872,2016-11-05 10:07:10,43.57392652513
0.35913026,-0.0047884034,9.9712515,2016-11-05 10:07:11,38.97416592998926
0.35553896,-5.985504E-4,9.931149,2016-11-05 10:07:13,32.958837720702434
0.35434186,0.011372458,9.962274,2016-11-05 10:07:14,34.299429483115226
0.33279404,0.010773907,9.945514,2016-11-05 10:07:15,48.836441907656585
0.3728969,0.013766659,9.949105,2016-11-05 10:07:16,67.5086330216807
0.35793316,0.01616086,9.96766,2016-11-05 10:07:17,60.07040890560609
0.3669114,-0.010175358,9.946113,2016-11-05 10:07:18,65.39230894518082
0.35553896,0.020350715,9.964069,2016-11-05 10:07:19,62.106640092295265
0.36391866,0.014963761,9.951499,2016-11-05 10:07:20,59.65391836740671
0.33758244,0.010773907,9.949105,2016-11-05 10:07:21,54.11786074739179
0.3633201,0.009576807,9.951499,2016-11-05 10:07:22,55.49088042386761
0.37588966,0.008379706,9.946113,2016-11-05 10:07:23,45.667222388477214
0.3878607,0.01436521,9.919776,2016-11-05 10:07:24,53.854430753298345
0.3585317,0.015562311,9.948506,2016-11-05 10:07:25,43.57075646986231
0.34835634,0.016759412,9.956886,2016-11-05 10:07:26,51.410073457945316
0.3788824,-0.0017956513,9.957485,2016-11-05 10:07:27,52.33130266981039
0.3597288,0.0053869537,9.935937,2016-11-05 10:07:28,48.280260343769434
0.3597288,0.0017956513,9.936536,2016-11-05 10:07:29,52.82769104158169
0.362123,0.014963761,9.928755,2016-11-05 10:07:30,58.54899433333298
0.3549404,0.019153614,9.931149,2016-11-05 10:07:31,62.361454798044676
0.36272156,0.01616086,9.946711,2016-11-05 10:07:32,65.9260991909265
0.38367084,0.0035913025,9.977237,2016-11-05 10:07:33,50.97434486785906
0.3657143,0.002992752,9.9550905,2016-11-05 10:07:34,51.58276208965512
0.3549404,0.011971008,9.955689,2016-11-05 10:07:35,59.82272166093117
0.36152446,0.024540568,9.956886,2016-11-05 10:07:36,68.08306731729252
0.34835634,0.010773907,9.96347,2016-11-05 10:07:37,63.29979680560484
0.3357868,0.0047884034,9.951499,2016-11-05 10:07:38,62.667326189026475
0.3585317,0.010175358,9.94312,2016-11-05 10:07:39,61.988446434551165
0.3716998,0.020350715,9.950901,2016-11-05 10:07:40,71.2881945704821
0.3728969,0.022744916,9.950901,2016-11-05 10:07:41,34.86235161830422
0.3489549,0.010773907,9.952697,2016-11-05 10:07:43,44.63860107843243
0.36870706,0.011971008,9.967062,2016-11-05 10:07:44,68.27980050038191
0.35913026,0.022744916,9.951499,2016-11-05 10:07:45,44.72878486100532
0.3752911,0.010175358,9.945514,2016-11-05 10:07:46,31.12951486242126
0.3842694,0.01316811,9.945514,2016-11-05 10:07:47,53.35833545837335
0.39683893,0.008379706,9.953894,2016-11-05 10:07:48,59.389787845365646
0.35793316,0.0047884034,9.93893,2016-11-05 10:07:49,70.49761266291333
0.36391866,-0.002992752,9.962872,2016-11-05 10:07:50,59.27525495502566
0.34237084,0.0047884034,9.950302,2016-11-05 10:07:51,43.052795409821236
0.34117374,0.0053869537,9.96766,2016-11-05 10:07:52,57.31214735237729
0.35553896,0.0035913025,9.956287,2016-11-05 10:07:53,69.61982084644534
0.35673606,0.019752163,9.967062,2016-11-05 10:07:54,65.48435544498972
0.3633201,-0.0053869537,9.96347,2016-11-05 10:07:55,58.980587368780604
0.3585317,0.002992752,9.941324,2016-11-05 10:07:56,56.5249705494491
0.32441434,0.011372458,9.970653,2016-11-05 10:07:57,70.27067841885003
0.3453636,0.01616086,9.961076,2016-11-05 10:07:58,60.95773907897982
0.35075054,0.011372458,9.91798,2016-11-05 10:07:59,61.367393491941
0.33758244,0.030526072,9.946113,2016-11-05 10:08:00,69.4340555433232
0.34715924,0.0017956513,9.935339,2016-11-05 10:08:01,55.68225268498702
0.35913026,0.007182605,9.973047,2016-11-05 10:08:02,52.73579092700188
0.37110126,0.020350715,9.94312,2016-11-05 10:08:03,58.0029042096927
0.35553896,0.020949265,9.924564,2016-11-05 10:08:04,71.7923392846171
0.35673606,0.01616086,9.950901,2016-11-05 10:08:05,60.915142903211404
0.3537433,-0.0017956513,9.947908,2016-11-05 10:08:06,65.42565693082138
0.34596214,0.01436521,9.937733,2016-11-05 10:08:07,70.6726469135678
0.3597288,0.012569559,9.953894,2016-11-05 10:08:08,63.80866562814634
0.35314476,-0.01316811,9.967062,2016-11-05 10:08:09,71.30278892221949
0.35913026,0.012569559,9.946711,2016-11-05 10:08:11,61.58365349683221
0.3597288,-0.01436521,9.953295,2016-11-05 10:08:12,55.648004920527434
0.3609259,0.006584055,9.955689,2016-11-05 10:08:13,45.12366578736818
0.35553896,0.014963761,9.920375,2016-11-05 10:08:14,45.3161046279923
0.3633201,0.0077811554,9.959281,2016-11-05 10:08:15,49.822266703299654
0.3477578,0.013766659,9.956287,2016-11-05 10:08:16,54.546934639005045
0.350152,0.002992752,9.9550905,2016-11-05 10:08:17,72.11541468555716
0.36032736,-0.01316811,9.935937,2016-11-05 10:08:18,50.43398373565266
0.338181,-0.0047884034,9.952098,2016-11-05 10:08:19,49.777471479831625
0.36391866,-0.005985504,9.947908,2016-11-05 10:08:20,50.55311124743062
0.3633201,0.005985504,9.953295,2016-11-05 10:08:21,54.86173558957648
0.36511576,0.011372458,9.961076,2016-11-05 10:08:22,55.46636521707546
0.3681085,0.02633622,9.956886,2016-11-05 10:08:23,52.85084087996854
0.33638534,0.020350715,9.950901,2016-11-05 10:08:24,55.63068090550107
0.35434186,0.007182605,9.938332,2016-11-05 10:08:25,60.4546510871852
0.3561375,0.008379706,9.962274,2016-11-05 10:08:26,57.18430438071847
0.3549404,0.010773907,9.932944,2016-11-05 10:08:27,60.29260985886647
0.40043023,0.25558102,9.965266,2016-11-05 10:08:28,65.29611230619165
0.39085343,0.03172317,9.991004,2016-11-05 10:08:29,58.41952004744904
0.374094,0.013766659,9.950302,2016-11-05 10:08:30,54.96546588610567
0.3752911,-0.019153614,9.9233675,2016-11-05 10:08:31,55.56617920742405
0.36272156,0.0035913025,9.949105,2016-11-05 10:08:32,46.02848909922143
0.38187516,-0.0047884034,9.930551,2016-11-05 10:08:33,45.24853829428176
0.362123,-0.023942016,9.962872,2016-11-05 10:08:34,49.60011475250386
0.39085343,-0.006584055,9.967062,2016-11-05 10:08:35,50.10283535099398
0.3561375,0.007182605,9.965266,2016-11-05 10:08:36,54.02031322827818
0.3489549,0.01436521,9.973047,2016-11-05 10:08:37,66.04149774768237
0.35075054,0.009576807,9.93893,2016-11-05 10:08:38,71.72514500467416
0.34356794,-0.0053869537,9.962872,2016-11-05 10:08:39,57.47613918522105
0.36990416,0.011971008,9.941324,2016-11-05 10:08:40,50.92704595136698
0.35434186,0.012569559,9.940127,2016-11-05 10:08:41,53.67187284640483
0.32561144,0.015562311,9.926959,2016-11-05 10:08:42,57.23027844993137
0.3597288,0.010175358,9.9473095,2016-11-05 10:08:43,59.92968743150723
0.3333926,0.012569559,9.959281,2016-11-05 10:08:44,58.9673094864991
0.36631286,-5.985504E-4,9.937733,2016-11-05 10:08:46,63.08465427556075
0.3537433,0.011372458,9.948506,2016-11-05 10:08:47,67.79104088984926
0.34596214,0.016759412,9.952098,2016-11-05 10:08:48,58.138067621690496
0.37349546,-0.007182605,9.967062,2016-11-05 10:08:49,56.96270660088465
0.35793316,0.020949265,9.9550905,2016-11-05 10:08:50,59.32041160552683
0.3477578,0.01436521,9.955689,2016-11-05 10:08:51,55.6523946533466
0.33039984,0.002992752,9.965864,2016-11-05 10:08:52,54.53558144113834
0.3441665,0.013766659,9.977836,2016-11-05 10:08:53,59.95999344768633
