ACC_X,ACC_Y,ACC_Z,GYRO_X,GYRO_Y,GYRO_Z,LIGH_1,GRAV_X,GRAV_Y,GRAV_Z,LINACC_X,LINACC_Y,LINACC_Z,ROTVEC_X,ROTVEC_Y,ROTVEC_Z,TIME,VOICE
1.694,0.366,9.65,0.0,0.0,0.0,0.0,0.0,0.0,0.0,0.0,0.0,0.0,0.0,0.0,0.0,2017-01-14 20:34:02,22.13655216172199
1.731,0.34,9.631,-0.0061094444,0.024437778,-0.017106444,0.0,0.0,0.0,0.0,0.0,0.0,0.0,0.0,0.0,0.0,2017-01-14 20:34:02,34.87547033452041
1.714,0.361,9.907,-0.008553222,0.019550223,-0.014662666,0.0,0.0,0.0,0.0,0.0,0.0,0.0,0.0,0.0,0.0,2017-01-14 20:34:03,33.99310198535356
1.749,0.489,8.984,-0.081866555,0.019550223,-0.018328333,0.0,0.0,0.0,0.0,0.0,0.0,0.0,0.0,0.0,0.0,2017-01-14 20:34:04,46.65293500242362
1.72,0.454,9.644,-0.009775111,0.021994,-0.017106444,0.0,0.0,0.0,0.0,0.0,0.0,0.0,0.0,0.0,0.0,2017-01-14 20:34:05,59.85315072187801
1.718,0.433,9.595,-0.008553222,0.019550223,-0.018328333,0.0,1.6353315,0.36136422,9.662581,0.08266854,0.07163578,-0.06758118,-0.07442637,-0.042498685,-0.95142096,2017-01-14 20:34:06,61.726359452819594
1.725,0.407,9.349,-0.0048875557,0.019550223,-0.02077211,0.0,1.4917679,0.3368171,9.68667,0.18523216,0.18218291,0.30632973,-0.068100594,-0.038465675,-0.9547072,2017-01-14 20:34:07,58.293460010782496
1.737,0.48,9.62,0.0,0.009775111,-0.019550223,0.0,1.4862304,0.3679578,9.686388,0.29476964,0.06104219,-0.0043878555,-0.06766429,-0.03941071,-0.9567953,2017-01-14 20:34:08,53.90940664535199
1.52,0.452,9.585,-0.009775111,0.010997,-0.017106444,0.0,1.3891315,0.34978557,9.701462,0.1678685,0.12921444,-0.07246208,-0.06347614,-0.03652287,-0.9597201,2017-01-14 20:34:09,51.72763882933951
1.736,0.338,9.772,-0.010997,0.010997,-0.014662666,0.0,1.4435121,0.36599112,9.692921,0.2654879,-0.0059911013,-0.063920975,-0.06612247,-0.037767828,-0.9607998,2017-01-14 20:34:10,57.470073151586476
1.7,0.442,9.721,-0.015884556,0.013440778,-0.02077211,0.0,1.5119609,0.35962772,9.682718,0.1710391,0.02737227,-0.045718193,-0.06974224,-0.038141813,-0.9615298,2017-01-14 20:34:11,65.90756890776883
1.652,0.452,9.651,-0.010997,0.028103445,-0.02077211,0.0,1.5638715,0.37514263,9.673881,0.11312854,0.011857361,-0.05388069,-0.07215644,-0.03953257,-0.96161747,2017-01-14 20:34:12,64.91667151424664
1.687,0.424,9.642,-0.014662666,0.017106444,-0.017106444,0.0,1.5903199,0.37144855,9.66971,0.07468009,0.057551444,0.002289772,-0.07351708,-0.03971439,-0.9614984,2017-01-14 20:34:13,65.58307190281405
1.653,0.399,9.779,-0.007331333,0.019550223,-0.025659667,0.0,1.6204013,0.39681754,9.663707,0.09459877,0.06418246,-0.11770725,-0.07458135,-0.0415418,-0.9607717,2017-01-14 20:34:14,61.60820988243287
1.72,0.473,9.601,-0.0012218889,0.024437778,-0.028103445,0.0,1.659924,0.44023317,9.655114,0.032076,-2.3317337E-4,-0.019114494,-0.07577122,-0.044552155,-0.95942914,2017-01-14 20:34:15,61.48045655397737
1.702,0.431,9.674,-0.010997,0.025659667,-0.015884556,0.0,1.6807755,0.44776547,9.651159,0.015224457,-0.0027654767,-0.04215908,-0.076457165,-0.045630015,-0.9578663,2017-01-14 20:34:16,59.62004768560406
1.733,0.451,9.32,-0.0036656666,0.021994,-0.018328333,0.0,1.6835034,0.42637804,9.651653,-0.002503395,0.024621964,0.21134663,-0.07667341,-0.04498715,-0.95654327,2017-01-14 20:34:17,59.577725669763176
1.69,0.412,9.517,-0.012218889,0.017106444,-0.019550223,0.0,1.6892693,0.41858628,9.650986,7.3075294E-4,-0.0065862834,-0.13398552,-0.07682397,-0.045107756,-0.9549947,2017-01-14 20:34:18,63.09329714965571
1.75,0.428,9.382,-0.0012218889,0.013440778,-0.017106444,0.0,1.6881435,0.423188,9.650983,0.007856488,0.0068120062,-0.19798279,-0.07647083,-0.045705937,-0.9535464,2017-01-14 20:34:19,56.993232825880796
1.655,0.466,9.513,0.007331333,0.025659667,-0.017106444,0.0,1.6807176,0.42946604,9.652001,-0.07471764,0.06853396,-0.12500095,-0.0758274,-0.04620701,-0.9524097,2017-01-14 20:34:20,53.856626991380345
1.719,0.446,9.712,0.0012218889,0.028103445,-0.02077211,0.0,1.6768992,0.43791348,9.652287,0.02110076,0.013086528,0.04771328,-0.07535274,-0.0468224,-0.95140785,2017-01-14 20:34:21,59.39031721803367
1.765,0.326,9.04,-0.008553222,0.021994,-0.019550223,0.0,1.6776503,0.4416553,9.651985,0.08734965,-0.1156553,-0.6119852,-0.07513126,-0.047339346,-0.95012873,2017-01-14 20:34:22,54.1305631157493
1.692,0.404,9.617,-0.0048875557,0.017106444,-0.019550223,0.0,1.6823217,0.43683773,9.651391,0.019678354,-0.021837741,0.039608955,-0.075296514,-0.04739654,-0.9492378,2017-01-14 20:34:23,27.85720402002882
1.667,0.4,9.608,-0.010997,0.023215888,-0.018328333,0.0,1.6831884,0.43756527,9.651207,-0.062188387,-0.04456526,-0.057207108,-0.07523246,-0.047596846,-0.9486256,2017-01-14 20:34:24,63.13636760949828
1.657,0.404,9.697,-0.02077211,0.023215888,-0.014662666,0.0,1.6832933,0.41538498,9.652169,0.023706675,0.020615011,0.066830635,-0.07548035,-0.046680436,-0.9479857,2017-01-14 20:34:25,61.98010426962352
1.754,0.374,9.603,-0.009775111,0.017106444,-0.017106444,0.0,1.6640772,0.41967386,9.655315,0.017922878,0.07232615,0.04468441,-0.07443925,-0.046634123,-0.94785523,2017-01-14 20:34:26,52.70074849670279
1.659,0.439,9.587,-0.007331333,0.02077211,-0.023215888,0.0,1.6652598,0.41151252,9.655462,-0.0012598038,0.041487485,-0.011462212,-0.07458803,-0.046314724,-0.9476136,2017-01-14 20:34:27,57.504236056195765
1.649,0.381,9.637,-0.012218889,0.017106444,-0.017106444,0.0,1.6756488,0.40176865,9.654076,0.0063512325,0.0012313426,-0.024075508,-0.07524539,-0.046013948,-0.94754684,2017-01-14 20:34:29,63.513568414012916
1.739,0.407,9.663,-0.0048875557,0.013440778,-0.012218889,0.0,1.6815814,0.41034198,9.652683,0.0104186535,0.038658023,0.033316612,-0.075337395,-0.046630587,-0.94708866,2017-01-14 20:34:30,62.288920718748955
1.67,0.397,9.526,0.0036656666,0.017106444,-0.019550223,0.0,1.672247,0.4046163,9.654547,-0.002247095,-0.0076162815,-0.12854671,-0.07496715,-0.046206795,-0.9471131,2017-01-14 20:34:31,62.873288724917806
1.685,0.336,9.599,-0.014662666,0.02077211,-0.015884556,0.0,1.6631987,0.39333576,9.656575,0.024801254,-0.054335773,-0.06257534,-0.0746585,-0.045582917,-0.94686884,2017-01-14 20:34:32,67.8037842797686
1.688,0.41,9.635,-0.007331333,0.019550223,-0.014662666,0.0,1.6854885,0.3930472,9.652721,0.0025115013,0.016952783,-0.017721176,-0.075736426,-0.045958433,-0.94665015,2017-01-14 20:34:33,64.23480869595167
1.648,0.427,9.642,-0.012218889,0.013440778,-0.012218889,0.0,1.6284072,0.47595575,9.658786,0.061592817,-0.050955743,0.028214455,-0.07137701,-0.04943992,-0.9452046,2017-01-14 20:34:34,63.42251525377761
1.617,0.457,9.574,-0.008553222,0.02077211,-0.015884556,0.0,1.6700516,0.43630698,9.653546,-0.05405152,0.021693021,0.09545326,-0.074019924,-0.048240937,-0.9448796,2017-01-14 20:34:35,63.35911324219637
1.696,0.44,9.624,-0.0048875557,0.019550223,-0.02077211,0.0,1.6717217,0.41284913,9.654288,0.029278278,0.015150875,-0.12828827,-0.07454174,-0.047029812,-0.94531274,2017-01-14 20:34:36,60.443837529156035
1.703,0.474,9.442,-0.0048875557,0.013440778,-0.014662666,0.0,1.6952813,0.39212018,9.651044,-0.06628132,0.050879806,0.097955704,-0.07608979,-0.04630386,-0.9456587,2017-01-14 20:34:37,67.63488329921553
1.636,0.402,9.631,-0.007331333,0.019550223,-0.012218889,0.0,1.6871094,0.38921303,9.652594,-0.006109357,0.02078697,0.032406807,-0.075781986,-0.045954227,-0.9460061,2017-01-14 20:34:38,62.96200090250538
1.664,0.422,9.618,-0.010997,0.02077211,-0.018328333,0.0,1.6936318,0.40334624,9.650871,-0.018631816,0.029653758,-0.014871597,-0.07589617,-0.04671508,-0.9460989,2017-01-14 20:34:39,63.48251880252494
1.677,0.439,9.611,-0.0061094444,0.023215888,-0.018328333,0.0,1.6852686,0.41033152,9.6520405,0.0047314167,0.014668494,-0.03804016,-0.07543956,-0.04681639,-0.9465522,2017-01-14 20:34:40,59.76700832400007
1.749,0.496,9.867,-0.0048875557,-0.0024437779,-0.013440778,0.0,1.7177709,0.4147743,9.646119,0.03122902,-0.022774309,0.22088051,-0.07696312,-0.047555096,-0.94641864,2017-01-14 20:34:41,63.16175688456823
1.582,0.374,9.652,-0.0048875557,0.021994,-0.017106444,0.0,1.6367111,0.40311444,9.660697,-0.026711106,0.03388557,0.07030296,-0.0732378,-0.045582604,-0.94718033,2017-01-14 20:34:42,63.760627059153606
1.56,0.498,9.733,-0.021994,0.023215888,-0.025659667,0.0,1.6115648,0.40116823,9.665004,-0.018564701,-0.05216822,0.030996323,-0.072050646,-0.04506247,-0.9473771,2017-01-14 20:34:43,57.268129749747445
1.637,0.512,9.585,-0.0012218889,0.013440778,-0.021994,0.0,1.6054977,0.4254477,9.664976,0.01350224,0.065552294,0.037023544,-0.07128641,-0.046277706,-0.946812,2017-01-14 20:34:44,62.673721816884836
1.582,0.386,9.67,-0.010997,0.024437778,-0.019550223,0.0,1.6018758,0.40345672,9.666519,0.010124207,-0.029456705,0.002480507,-0.07146433,-0.045138814,-0.9468932,2017-01-14 20:34:45,62.98825739160914
1.621,0.637,9.587,-0.048875555,-0.0061094444,-0.019550223,0.0,1.6342943,0.37113503,9.662387,-0.01329422,0.22986498,-0.12638664,-0.07352081,-0.04415935,-0.9464927,2017-01-14 20:34:46,64.85019442206487
1.606,0.385,9.603,0.0012218889,0.015884556,-0.014662666,0.0,1.6170301,0.41961348,9.663308,-0.023030162,0.0053865314,0.12069225,-0.07187679,-0.046283185,-0.9463243,2017-01-14 20:34:47,57.40312711137297
1.602,0.436,9.575,0.0,0.024437778,-0.015884556,0.0,1.5893555,0.4315374,9.667374,0.009644508,0.023462623,-0.060373306,-0.07032172,-0.046432573,-0.9463445,2017-01-14 20:34:48,63.42920226771484
1.615,0.448,9.631,-0.008553222,0.018328333,-0.014662666,0.0,1.593995,0.43004942,9.666676,0.037005067,-0.0030494332,-0.01467514,-0.07055278,-0.046465043,-0.9461965,2017-01-14 20:34:49,47.91286033040734
1.619,0.397,9.631,-0.0048875557,0.017106444,-0.014662666,0.0,1.5983505,0.43696296,9.665647,0.0016494989,-0.03196296,-0.05764675,-0.07063242,-0.04690666,-0.94601846,2017-01-14 20:34:50,61.42086026504743
1.606,0.431,9.66,-0.009775111,0.017106444,-0.013440778,0.0,1.6026274,0.42880747,9.665304,0.0053726435,-0.017807454,-0.02730465,-0.07095014,-0.046612624,-0.9458642,2017-01-14 20:34:51,59.550521249250956
1.608,0.412,9.679,-0.009775111,0.017106444,-0.019550223,0.0,1.6109134,0.4338977,9.663699,-0.01491344,-0.016897708,-0.0026988983,-0.07125356,-0.047025632,-0.9456911,2017-01-14 20:34:52,62.20635513213992
1.591,0.454,9.828,0.0,0.014662666,-0.013440778,0.0,1.6131768,0.43259645,9.66338,0.014823198,-0.051596433,-0.20037937,-0.071357585,-0.04704096,-0.9455,2017-01-14 20:34:53,61.43248900735288
1.622,0.406,9.594,-0.0061094444,0.021994,-0.024437778,0.0,1.6061224,0.42827725,9.664747,0.0038776398,-0.025277257,-0.12374687,-0.07106561,-0.046740998,-0.9454214,2017-01-14 20:34:54,55.9015372036088
1.606,0.424,9.79,-0.010997,0.018328333,-0.02077211,0.0,1.6044598,0.42731604,9.665066,-0.0074597597,0.023683965,-0.23906612,-0.07096754,-0.04671616,-0.94521147,2017-01-14 20:34:55,60.9758431858704
1.627,0.418,9.678,-0.013440778,0.019550223,-0.02077211,0.0,1.5987021,0.4339554,9.665724,0.009297967,-0.036955386,-0.015724182,-0.07059502,-0.04692094,-0.94533235,2017-01-14 20:34:56,58.02887014193979
1.603,0.446,9.645,-0.009775111,0.017106444,-0.021994,0.0,1.6066129,0.4196771,9.665043,-0.0016129017,0.022322893,-0.030042648,-0.07122543,-0.046334676,-0.9454123,2017-01-14 20:34:57,56.81752998457504
1.523,0.44,9.763,-0.012218889,0.018328333,-0.015884556,0.0,1.5999435,0.41306674,9.666434,0.06905651,0.01793325,-0.06443405,-0.0710126,-0.045893915,-0.9454922,2017-01-14 20:34:58,63.51843618501914
1.58,0.465,9.717,-0.013440778,0.021994,-0.012218889,0.0,1.6054754,0.42263412,9.665103,0.011524558,0.05936587,-0.032102585,-0.07110574,-0.046485133,-0.9453017,2017-01-14 20:34:59,64.21950245978336
1.616,0.385,9.676,-0.008553222,0.018328333,-0.015884556,0.0,1.6110615,0.41541412,9.664486,-0.0030614138,-0.025414139,-0.008485794,-0.07150315,-0.046212856,-0.94534326,2017-01-14 20:35:00,65.25460503925024
1.562,0.435,9.625,-0.010997,0.019550223,-0.018328333,0.0,1.6120168,0.42013118,9.664124,-0.031016827,0.02686882,-0.008123398,-0.0714903,-0.046432577,-0.94544524,2017-01-14 20:35:01,65.67084138311512
1.616,0.392,9.613,-0.0061094444,0.021994,-0.015884556,0.0,1.5964345,0.4226033,9.666602,0.012565494,-0.0136033,-0.012601852,-0.070702314,-0.04627807,-0.9455942,2017-01-14 20:35:02,62.1266036103215
1.594,0.409,9.648,-0.0061094444,0.018328333,-0.010997,0.0,1.5915889,0.42633745,9.667237,0.002411127,0.0016625524,-0.0012369156,-0.07040649,-0.046379134,-0.94561553,2017-01-14 20:35:03,59.97517740343545
1.603,0.399,9.6,-0.008553222,0.021994,-0.014662666,0.0,1.6042016,0.41275015,9.665742,-0.019201517,0.0032498538,-0.053741455,-0.07122745,-0.04594543,-0.9454873,2017-01-14 20:35:04,62.28814005833833
1.606,0.333,9.557,-0.010997,0.023215888,-0.013440778,0.0,1.5988144,0.41822448,9.666399,-0.04381442,-0.06422448,-0.063399315,-0.070874006,-0.04612697,-0.94548774,2017-01-14 20:35:05,62.37133516369002
1.386,-0.145,9.739,-0.040322334,0.014662666,-0.008553222,0.0,1.6065092,0.37625018,9.666848,-0.0075092316,-0.8002502,0.03515148,-0.07188988,-0.044269282,-0.9452509,2017-01-14 20:35:06,62.05442038756978
1.612,0.464,9.547,-0.010997,0.014662666,-0.015884556,0.0,1.5939193,0.43781245,9.66634,0.023080707,0.034187555,-0.017339706,-0.07020789,-0.047166508,-0.94473416,2017-01-14 20:35:07,62.780575593496344
1.665,0.343,9.688,-0.008553222,0.025659667,-0.017106444,0.0,1.6053072,0.42014763,9.665239,0.05969274,-0.07714763,0.022760391,-0.071020775,-0.046540238,-0.94451016,2017-01-14 20:35:08,60.43322064041391
1.582,0.437,9.65,-0.008553222,0.019550223,-0.019550223,0.0,1.6039995,0.4112395,9.665839,-0.039999485,0.034760505,-0.024839401,-0.07112162,-0.046054933,-0.94466376,2017-01-14 20:35:09,61.18978277427681
1.618,0.39,9.666,-0.0048875557,0.02077211,-0.013440778,0.0,1.6178411,0.41358078,9.663432,0.021158934,0.0034192204,-0.09143257,-0.07180181,-0.04633106,-0.94489455,2017-01-14 20:35:10,55.27720893731868
1.641,0.398,9.638,-0.008553222,0.023215888,-0.015884556,0.0,1.6046374,0.40675208,9.665923,-0.036637425,0.008247912,-0.056922913,-0.07127621,-0.045768548,-0.94501644,2017-01-14 20:35:11,60.94368195027116
1.61,0.443,9.59,-0.009775111,0.019550223,-0.023215888,0.0,1.6087267,0.4200012,9.664677,-0.009726763,0.004998803,-0.021677017,-0.07128269,-0.046447653,-0.94512665,2017-01-14 20:35:12,64.25691919284154
1.587,0.439,9.637,-0.008553222,0.021994,-0.009775111,0.0,1.6083753,0.4152199,9.664942,-0.023375273,-0.02121991,-0.064941406,-0.07135301,-0.0461935,-0.94520414,2017-01-14 20:35:13,58.62622675306433
1.586,0.457,9.633,-0.010997,0.019550223,-0.015884556,0.0,1.6112456,0.4106341,9.66466,-0.0052456856,0.020365894,0.013339996,-0.07155283,-0.046039883,-0.9450994,2017-01-14 20:35:14,60.57005201701
1.611,0.398,9.687,-0.0048875557,0.013440778,-0.008553222,0.0,1.6102449,0.41301408,9.664725,7.5507164E-4,-0.015014082,0.022274971,-0.07141721,-0.04621393,-0.94477004,2017-01-14 20:35:15,59.89033936763591
1.609,0.419,9.7,-0.013440778,0.015884556,-0.015884556,0.0,1.6118016,0.412953,9.664469,-0.0028016567,0.0060470104,0.035531044,-0.07151366,-0.046206485,-0.94489694,2017-01-14 20:35:16,62.196242310170504
1.596,0.471,9.647,-0.009775111,0.013440778,-0.018328333,0.0,1.6077038,0.42057884,9.664823,-0.00470376,0.031421155,0.12317753,-0.071238235,-0.046436246,-0.9452306,2017-01-14 20:35:17,61.6347214756179
1.573,0.467,9.95,-0.010997,0.017106444,-0.015884556,0.0,1.604743,0.4129214,9.665645,0.037256956,-0.049921393,-0.57464504,-0.07122263,-0.046006788,-0.9452898,2017-01-14 20:35:18,61.33590440516444
1.877,0.396,9.806,-0.0024437779,0.06353822,-0.023215888,0.0,1.5883234,0.40658408,9.668625,0.35267663,0.028415918,0.21137524,-0.07051162,-0.045447167,-0.9452855,2017-01-14 20:35:19,60.455774506324495
1.611,0.416,9.624,-0.0024437779,0.02077211,-0.015884556,0.0,1.5978351,0.41528246,9.666688,0.013164878,7.175505E-4,-0.04268837,-0.07082446,-0.046043392,-0.94515944,2017-01-14 20:35:20,55.36091177022983
1.575,0.427,9.675,-0.013440778,0.021994,-0.019550223,0.0,1.5991408,0.43142524,9.665765,-0.025140762,0.004574746,-0.009764671,-0.070596196,-0.046897035,-0.9449229,2017-01-14 20:35:21,65.73914073440973
1.618,0.418,9.691,-0.007331333,0.023215888,-0.023215888,0.0,1.6008364,0.43063846,9.665519,0.008163571,-0.011638463,0.046481133,-0.07067021,-0.04691907,-0.944772,2017-01-14 20:35:22,60.36749671241516
1.603,0.448,9.469,-0.009775111,0.015884556,-0.019550223,0.0,1.6143924,0.42988762,9.663298,0.02060759,0.012112379,0.053702354,-0.071331896,-0.047124337,-0.9446354,2017-01-14 20:35:23,58.86200174289489
1.568,0.369,9.893,-0.0048875557,0.02077211,-0.018328333,0.0,1.6105906,0.4254872,9.664126,-0.022590518,-0.039487183,0.06287384,-0.07121379,-0.04685367,-0.94463027,2017-01-14 20:35:24,55.45093491469336
1.606,0.411,9.657,-0.007331333,0.018328333,-0.017106444,0.0,1.6058614,0.41030255,9.66557,1.385212E-4,6.9746375E-4,-0.008570671,-0.071243346,-0.04601586,-0.94476503,2017-01-14 20:35:25,61.51407993095957
1.605,0.449,9.627,-0.0061094444,0.023215888,-0.019550223,0.0,1.5973891,0.4194383,9.666582,0.0016108751,0.0015617013,-0.035582542,-0.070747815,-0.046219423,-0.94523966,2017-01-14 20:35:26,65.98730347285593
1.531,0.494,9.796,-0.008553222,0.02077211,-0.017106444,0.0,1.5951233,0.4170651,9.667059,0.003876686,-0.03006512,-0.062059402,-0.07066907,-0.046076678,-0.945208,2017-01-14 20:35:27,31.827672887846795
1.63,0.384,9.656,-0.008553222,0.021994,-0.015884556,0.0,1.5915749,0.43192026,9.666991,0.045425057,-0.037920266,-0.20999146,-0.07025442,-0.046743277,-0.94519305,2017-01-14 20:35:28,66.55967101544589
1.657,0.437,9.636,-0.015884556,0.021994,-0.017106444,0.0,1.5940944,0.41894487,9.667148,0.011905551,-0.009944856,-0.032147408,-0.07060419,-0.046127185,-0.9453171,2017-01-14 20:35:29,62.04219489210426
1.575,0.441,9.668,-0.007331333,0.013440778,-0.021994,0.0,1.5836313,0.43340835,9.668229,-0.026631236,0.015591651,-0.025229454,-0.069807,-0.046738476,-0.9449829,2017-01-14 20:35:30,64.2318110896043
1.664,0.376,9.581,-0.008553222,0.017106444,-0.015884556,0.0,1.5941164,0.4121622,9.667435,0.069883585,-0.036162227,-0.086434364,-0.070634946,-0.045920525,-0.94477624,2017-01-14 20:35:31,62.761767787370715
1.59,0.417,9.633,-0.010997,0.021994,-0.015884556,0.0,1.599181,0.4199348,9.666265,-0.0061810017,0.009065181,-0.08326435,-0.07074781,-0.04639443,-0.9446894,2017-01-14 20:35:32,64.99764561780275
1.61,0.419,9.63,-0.010997,0.025659667,-0.02077211,0.0,1.601629,0.41485742,9.666078,0.0143710375,0.010142595,-0.07507801,-0.07094034,-0.046202265,-0.94462186,2017-01-14 20:35:33,56.74608407680539
1.581,0.466,9.635,-0.021994,0.018328333,-0.02077211,0.0,1.5995027,0.42033845,9.666194,-0.007502675,-0.108338445,-0.018194199,-0.070752665,-0.046425883,-0.94465834,2017-01-14 20:35:34,59.988775703629074
1.637,0.379,9.407,-0.0048875557,0.021994,-0.017106444,0.0,1.6067716,0.43964872,9.664128,-0.020771623,0.013351291,0.07687187,-0.07073165,-0.04757743,-0.9441866,2017-01-14 20:35:35,37.532912785015405
1.574,0.387,9.684,-0.009775111,0.017106444,-0.02077211,0.0,1.6086628,0.4215547,9.66462,-6.6280365E-4,-5.547106E-4,0.0033798218,-0.07115816,-0.04666931,-0.9444711,2017-01-14 20:35:36,28.46165498654385
1.754,0.358,8.761,-0.010997,0.021994,-0.023215888,0.0,1.6026183,0.41199338,9.666037,-0.076618314,0.03900662,0.9539633,-0.07101663,-0.046107855,-0.9444941,2017-01-14 20:35:37,58.972415743395736
1.586,0.435,9.654,-0.0061094444,0.019550223,-0.02077211,0.0,1.5983393,0.41224706,9.666735,0.0076606274,0.05975294,-0.031734467,-0.07077028,-0.0461009,-0.94428074,2017-01-14 20:35:38,56.426417687791016
1.614,0.373,9.666,-0.008553222,0.019550223,-0.015884556,0.0,1.6036747,0.41651624,9.665668,-0.007674694,-0.025516242,-0.26666737,-0.07098413,-0.04636125,-0.944412,2017-01-14 20:35:39,64.25656484727755
1.616,0.415,9.676,-0.014662666,0.015884556,-0.017106444,0.0,1.5953563,0.41398025,9.667152,0.023643613,-0.0049802363,-0.009152412,-0.07058053,-0.04616024,-0.94418025,2017-01-14 20:35:40,64.33169940214901
1.59,0.407,9.699,-0.010997,0.018328333,-0.015884556,0.0,1.6018056,0.41028592,9.666244,1.9443035E-4,0.02871409,-0.046243668,-0.070958674,-0.04608244,-0.9441816,2017-01-14 20:35:41,59.043548353791664
1.603,0.443,9.654,-0.010997,0.019550223,-0.019550223,0.0,1.5942174,0.41751358,9.667189,0.005782604,-0.0015135705,-0.022188187,-0.07044205,-0.046351526,-0.9440063,2017-01-14 20:35:42,60.09483124906461
1.588,0.457,9.657,-0.0048875557,0.019550223,-0.024437778,0.0,1.5991826,0.41445908,9.6665,-0.008182645,0.026540935,-0.011500359,-0.070713766,-0.04631654,-0.94385004,2017-01-14 20:35:43,57.42738097701049
1.627,0.43,9.824,-0.007331333,0.017106444,-0.017106444,0.0,1.6032842,0.4197988,9.66559,0.042715788,0.033201218,-0.08359051,-0.07083608,-0.04662939,-0.94389254,2017-01-14 20:35:44,63.851436335497944
1.599,0.437,9.583,-0.009775111,0.015884556,-0.019550223,0.0,1.6046708,0.4212585,9.665297,-0.010670781,0.015741497,0.052703857,-0.07085041,-0.04676793,-0.94368386,2017-01-14 20:35:45,64.23760793121207
1.584,0.431,9.629,-0.009775111,0.02077211,-0.018328333,0.0,1.5966654,0.43027362,9.666225,-0.00966537,-0.023273617,0.019774437,-0.07033805,-0.047034405,-0.9438783,2017-01-14 20:35:46,62.2055535324352
1.6,0.445,9.673,-0.009775111,0.018328333,-0.017106444,0.0,1.5956525,0.4232316,9.666703,0.004347563,0.021768391,0.0062971115,-0.070425056,-0.04664339,-0.9440372,2017-01-14 20:35:47,64.65182517043749
1.576,0.441,9.638,-0.008553222,0.024437778,-0.02077211,0.0,1.5865762,0.42637417,9.668058,-0.010576248,0.014625847,-0.03005886,-0.069879666,-0.046722643,-0.9437176,2017-01-14 20:35:48,64.44875476011237
1.599,0.425,9.585,-0.0048875557,0.019550223,-0.02077211,0.0,1.6083708,0.42691535,9.6644335,-0.009370804,-0.032915354,-4.339218E-4,-0.07089001,-0.04717669,-0.94333416,2017-01-14 20:35:49,63.80531335319699
1.614,0.386,9.664,-0.009775111,0.017106444,-0.015884556,0.0,1.6086429,0.4307449,9.664218,-0.010642886,-0.0037449002,-0.03221798,-0.070837736,-0.047371108,-0.94331026,2017-01-14 20:35:50,64.58027035019622
1.603,0.387,9.617,-0.0061094444,0.02077211,-0.019550223,0.0,1.6020827,0.42023402,9.665771,0.0039172173,-0.01623401,-0.022770882,-0.070709795,-0.046722393,-0.9434818,2017-01-14 20:35:51,63.07293758447065
1.593,0.402,9.627,-0.010997,0.02077211,-0.02077211,0.0,1.5958339,0.41607404,9.666985,-0.0018339157,-0.004074037,-0.0049848557,-0.07044403,-0.046460938,-0.9433093,2017-01-14 20:35:52,62.91893298900693
1.572,0.473,9.751,-0.0024437779,0.02077211,-0.015884556,0.0,1.6014309,0.4166634,9.666034,0.009569049,0.075336605,-0.15303421,-0.07066289,-0.04665001,-0.942981,2017-01-14 20:35:53,61.87255675203558
1.611,0.436,9.667,-0.0061094444,0.024437778,-0.019550223,0.0,1.600974,0.4224031,9.66586,-0.018973947,0.019596905,-0.029860497,-0.07056582,-0.046891104,-0.9431113,2017-01-14 20:35:54,60.05437279505233
1.585,0.409,9.597,-0.008553222,0.015884556,-0.024437778,0.0,1.6081939,0.42968753,9.66434,0.00180614,-0.023687541,-0.023340225,-0.07078776,-0.047380272,-0.943005,2017-01-14 20:35:55,59.332373176080665
1.609,0.411,9.533,-0.007331333,0.023215888,-0.014662666,0.0,1.6005473,0.42485666,9.665823,-0.031547308,0.016143352,0.09217739,-0.07047587,-0.04704618,-0.94291306,2017-01-14 20:35:56,59.58327117806792
1.57,0.406,9.422,-0.009775111,0.02077211,-0.019550223,0.0,1.601466,0.42213488,9.66579,-0.025465965,0.032865137,0.27121067,-0.07056949,-0.04692351,-0.9429401,2017-01-14 20:35:57,61.72128649064226
1.592,0.402,9.609,-0.008553222,0.021994,-0.015884556,0.0,1.6018181,0.4102221,9.6662445,-0.010818124,0.0077778995,-0.022244453,-0.070774935,-0.046363786,-0.9428972,2017-01-14 20:35:58,62.840068532000124
1.63,0.422,9.627,-0.008553222,0.017106444,-0.017106444,0.0,1.6106675,0.42432588,9.6641655,-0.013667464,-0.01332587,-0.003165245,-0.070985824,-0.04717768,-0.94292825,2017-01-14 20:35:59,57.019939984136855
1.61,0.404,9.883,-0.009775111,0.015884556,-0.017106444,0.0,1.6052065,0.41631994,9.6654215,-0.012206435,0.019680053,-0.11742115,-0.07088844,-0.046641972,-0.9432137,2017-01-14 20:36:00,56.71772488517918
1.603,0.382,9.619,-0.007331333,0.017106444,-0.015884556,0.0,1.609309,0.41357693,9.664858,0.024690986,0.003423065,0.025141716,-0.07114791,-0.046555337,-0.9432997,2017-01-14 20:36:01,63.33722048087378
1.543,0.521,9.832,-0.009775111,0.023215888,-0.018328333,0.0,1.5934058,0.41899744,9.667258,0.03059411,-0.030997425,0.09874153,-0.070247486,-0.046607804,-0.94310737,2017-01-14 20:36:02,66.04788826439416
1.615,0.455,9.619,-0.008553222,0.017106444,-0.019550223,0.0,1.5989875,0.41842046,9.666362,0.005012512,-0.046420455,-0.005361557,-0.07051098,-0.046700265,-0.94296175,2017-01-14 20:36:03,62.97824728792801
1.606,0.4,9.599,-0.0036656666,0.017106444,-0.026881555,0.0,1.5907451,0.41592947,9.6678295,-0.02374506,0.019070536,0.059170723,-0.070176855,-0.04640164,-0.9431805,2017-01-14 20:36:04,61.254327487605245
1.599,0.391,9.633,-0.012218889,0.023215888,-0.021994,0.0,1.6055994,0.4134365,9.66548,-0.019599438,0.0285635,-0.0154800415,-0.070941985,-0.046528462,-0.9431256,2017-01-14 20:36:05,55.3840419310845
1.568,0.39,9.704,-0.012218889,0.018328333,-0.018328333,0.0,1.6131352,0.41408077,9.664198,-0.03213525,0.007919222,-0.044198036,-0.07134619,-0.046612956,-0.9434215,2017-01-14 20:36:06,62.55016414524519
1.612,0.411,9.648,-0.0061094444,0.023215888,-0.02077211,0.0,1.5968977,0.42133316,9.666581,-0.011897683,-0.019333154,-0.03658104,-0.070430726,-0.046701882,-0.9434445,2017-01-14 20:36:07,63.624468332114034
1.628,0.446,9.608,-0.012218889,0.017106444,-0.023215888,0.0,1.5987606,0.4211864,9.66628,0.036239386,0.0038136244,-0.01128006,-0.07054637,-0.04669191,-0.9435911,2017-01-14 20:36:08,62.3003282864139
1.576,0.388,9.636,-0.008553222,0.018328333,-0.014662666,0.0,1.6058084,0.417753,9.665259,-0.0578084,-0.010753006,-0.020258904,-0.07095501,-0.046629205,-0.94362694,2017-01-14 20:36:09,51.48833822178497
1.609,0.453,9.705,-0.008553222,0.015884556,-0.018328333,0.0,1.5973736,0.4200168,9.666559,0.014626384,-0.032016784,-0.033558846,-0.07048679,-0.046628866,-0.94352174,2017-01-14 20:36:10,46.742332917747504
1.567,0.415,9.594,-0.008553222,0.015884556,-0.02077211,0.0,1.5939746,0.42758483,9.666789,0.0090254545,-0.020584822,-0.15278912,-0.070208736,-0.046922088,-0.9436061,2017-01-14 20:36:11,55.72986246861494
1.587,0.428,9.708,-0.012218889,0.015884556,-0.018328333,0.0,1.5959237,0.4243035,9.666612,0.012076378,0.014696509,0.008388519,-0.07032862,-0.04683864,-0.94340456,2017-01-14 20:36:12,65.54650574822321
1.558,0.409,9.818,-0.013440778,0.019550223,-0.014662666,0.0,1.6028908,0.42232195,9.665545,0.018109202,0.12667808,0.33245468,-0.0706796,-0.046890542,-0.943234,2017-01-14 20:36:13,61.09890835195381
1.547,0.4,9.614,-0.010997,0.018328333,-0.017106444,0.0,1.6139237,0.42401037,9.663636,-0.0049237013,-0.03801036,-0.0066366196,-0.071187474,-0.047159918,-0.9431727,2017-01-14 20:36:14,57.628629098153354
1.623,0.455,9.398,-0.009775111,0.024437778,-0.015884556,0.0,1.6118563,0.42493507,9.66394,0.0031436682,-0.021935076,-0.0059404373,-0.071074314,-0.04716603,-0.9431991,2017-01-14 20:36:15,64.83276979197348
1.599,0.418,9.65,-0.007331333,0.018328333,-0.015884556,0.0,1.6029563,0.42885464,9.665247,0.0070437193,-0.018854648,0.0037527084,-0.07056373,-0.047226112,-0.94314635,2017-01-14 20:36:16,62.4752277850872
1.575,0.449,9.667,-0.010997,0.023215888,-0.008553222,0.0,1.5937963,0.42236984,9.6670475,-0.015796304,-0.035369843,-0.03504753,-0.070201,-0.046792958,-0.9430329,2017-01-14 20:36:17,58.66264345634028
1.59,0.402,9.618,-0.007331333,0.024437778,-0.018328333,0.0,1.5966312,0.41972664,9.666695,-0.006631136,-0.01772663,-0.04869461,-0.07035118,-0.046759546,-0.94280773,2017-01-14 20:36:18,54.477419352734486
1.591,0.415,9.626,-0.010997,0.017106444,-0.018328333,0.0,1.5992117,0.41805872,9.666341,-0.01221168,-0.028058738,0.0036592484,-0.070528395,-0.046685692,-0.9429648,2017-01-14 20:36:19,64.78020360102339
1.539,0.436,9.989,-0.010997,0.018328333,-0.017106444,0.0,1.598873,0.4101094,9.666737,-0.035873055,0.043890595,0.07026386,-0.07065832,-0.046270832,-0.9430831,2017-01-14 20:36:20,64.08282608218057
1.618,0.471,9.837,-0.010997,0.021994,-0.018328333,0.0,1.5989571,0.4094757,9.66675,0.015042901,0.054524273,0.07025051,-0.07067308,-0.046241138,-0.94308513,2017-01-14 20:36:21,63.77596970894462
1.594,0.451,9.626,-0.009775111,0.017106444,-0.02077211,0.0,1.6069136,0.41901776,9.665021,-9.1362E-4,-0.027017772,-0.0050210953,-0.07092919,-0.046798527,-0.94321644,2017-01-14 20:36:22,62.56502016889123
1.609,0.416,9.684,-0.009775111,0.014662666,-0.018328333,0.0,1.6022209,0.4251303,9.665534,-0.026220918,0.011869699,-0.057534218,-0.07059951,-0.047017567,-0.9432245,2017-01-14 20:36:23,58.32284635123507
1.58,0.424,9.672,-0.009775111,0.015884556,-0.017106444,0.0,1.60779,0.42245436,9.664726,-0.023790002,0.018545657,-0.016726494,-0.07089965,-0.04700373,-0.943101,2017-01-14 20:36:24,58.65313628703842
1.608,0.429,9.514,-0.007331333,0.02077211,-0.023215888,0.0,1.5971344,0.42313108,9.666463,0.007865667,-0.043131083,-0.069462776,-0.070400044,-0.046812203,-0.9433543,2017-01-14 20:36:25,60.32862014148983
1.602,0.39,9.688,-0.009775111,0.02077211,-0.021994,0.0,1.6023571,0.42505586,9.665514,-0.017357111,0.020944148,0.13248634,-0.07063768,-0.046970673,-0.9434311,2017-01-14 20:36:26,56.90302022028075
1.609,0.415,9.641,-0.0061094444,0.019550223,-0.024437778,0.0,1.6059766,0.42787638,9.664789,-0.0059765577,0.023123622,-0.022789001,-0.07075706,-0.047184084,-0.94333965,2017-01-14 20:36:27,63.713431238407196
1.581,0.452,9.743,-0.008553222,0.024437778,-0.018328333,0.0,1.6081334,0.42124984,9.6647215,-0.028133392,-0.057249844,-0.06572151,-0.07099348,-0.04686436,-0.9434929,2017-01-14 20:36:28,60.82925674743639
1.597,0.409,9.633,-0.010997,0.019550223,-0.018328333,0.0,1.6036941,0.42906114,9.665115,0.0043059587,-0.03206113,-0.05211544,-0.07066159,-0.04715077,-0.94358665,2017-01-14 20:36:29,59.293743922799926
1.593,0.4,9.627,-0.008553222,0.02077211,-0.024437778,0.0,1.6073781,0.41815773,9.664981,-0.0013781786,0.0038422644,-0.033981323,-0.071030915,-0.04666584,-0.9436612,2017-01-14 20:36:30,53.92053197591767
1.608,0.387,9.672,-0.008553222,0.025659667,-0.02077211,0.0,1.6036097,0.41570914,9.665713,0.004390359,-0.028709143,0.006286621,-0.07087303,-0.04650595,-0.9435817,2017-01-14 20:36:31,62.53396987602738
1.594,0.415,9.618,-0.012218889,0.02077211,-0.019550223,0.0,1.5908159,0.42279118,9.66752,0.009184122,-0.0037911832,-0.025519371,-0.07012771,-0.046645213,-0.94358635,2017-01-14 20:36:32,61.94563897584931
1.639,0.41,9.564,-0.009775111,0.019550223,-0.014662666,0.0,1.5863663,0.41844004,9.668441,0.021633744,5.5995584E-4,-0.06344128,-0.06997243,-0.04637457,-0.9435425,2017-01-14 20:36:33,60.53630435876126
1.572,0.437,9.651,-0.010997,0.023215888,-0.018328333,0.0,1.5916545,0.42535502,9.667269,-0.019654512,0.011644989,-0.01626873,-0.070117876,-0.046796665,-0.94352025,2017-01-14 20:36:34,62.216453176310125
1.61,0.422,9.615,-0.009775111,0.025659667,-0.018328333,0.0,1.5938908,0.42643383,9.666854,0.016109228,-0.0044338405,-0.051854134,-0.070188716,-0.046916924,-0.94337,2017-01-14 20:36:35,61.46588392313525
1.623,0.436,9.612,-0.012218889,0.025659667,-0.019550223,0.0,1.5925311,0.42031637,9.667346,0.03046894,0.015683621,-0.055345535,-0.070180655,-0.046660937,-0.943092,2017-01-14 20:36:36,42.29181387457671
1.615,0.446,9.57,-0.010997,0.012218889,-0.019550223,0.0,1.609544,0.42079997,9.664506,0.0024559498,0.022200018,0.047493935,-0.07096033,-0.047031377,-0.9427393,2017-01-14 20:36:37,59.18202515139196
1.56,0.424,9.629,-0.007331333,0.021994,-0.017106444,0.0,1.6096184,0.4247527,9.664321,-0.045618415,-0.009752721,-0.019320488,-0.07090987,-0.04720757,-0.94281054,2017-01-14 20:36:38,62.991410051644934
1.635,0.367,9.789,-0.007331333,0.018328333,-0.030547222,0.0,1.6006765,0.4307554,9.665541,0.020323515,0.034244597,-0.27754116,-0.0703797,-0.04734228,-0.94286966,2017-01-14 20:36:39,65.36372155787757
1.603,0.421,9.661,-0.010997,0.018328333,-0.018328333,0.0,1.5962977,0.4304561,9.666278,0.02170229,-0.033456087,-2.7751923E-4,-0.07015577,-0.047277484,-0.9427817,2017-01-14 20:36:40,64.20131429651691
1.578,0.415,9.673,-0.008553222,0.024437778,-0.021994,0.0,1.603633,0.41709343,9.665649,0.0073668957,0.006906569,-0.072649,-0.07068929,-0.046819378,-0.9424622,2017-01-14 20:36:41,62.26513797156229
1.606,0.398,9.657,-0.008553222,0.021994,-0.012218889,0.0,1.6061652,0.4172417,9.665223,-0.026165128,0.0067583025,-0.0012235641,-0.07080231,-0.046880968,-0.94239783,2017-01-14 20:36:42,64.97800519173938
1.6,0.411,9.513,-0.007331333,0.017106444,-0.013440778,0.0,1.6114957,0.42306888,9.664083,-0.012495756,-0.05506888,-0.28108215,-0.07099444,-0.04720955,-0.94256777,2017-01-14 20:36:43,59.80750822368655
1.56,0.419,9.467,-0.010997,0.019550223,-0.013440778,0.0,1.603781,0.4188148,9.66555,-0.052780986,0.0341852,0.21045017,-0.070720814,-0.046825647,-0.94282347,2017-01-14 20:36:44,56.23984332556627
1.574,0.424,9.333,-0.0048875557,0.019550223,-0.017106444,0.0,1.6009235,0.4269253,9.665669,0.06907642,-0.047925293,-0.2596693,-0.07047589,-0.04712922,-0.9430168,2017-01-14 20:36:45,49.046091652996964
1.592,0.412,9.629,-0.007331333,0.017106444,-0.023215888,0.0,1.5982022,0.42777926,9.666082,-0.0042022467,0.02922073,-0.030082703,-0.070326,-0.047129966,-0.9430046,2017-01-14 20:36:46,61.8615072438953
1.587,0.443,9.679,-0.010997,0.02077211,-0.019550223,0.0,1.6021903,0.41637278,9.66592,-0.015190244,0.026627213,0.013079643,-0.070671216,-0.046699315,-0.9427471,2017-01-14 20:36:47,63.22760189889714
1.59,0.402,9.65,-0.008553222,0.02077211,-0.017106444,0.0,1.5901015,0.41949126,9.667781,8.984804E-4,0.0025087297,-0.04778099,-0.07002364,-0.046658766,-0.94274175,2017-01-14 20:36:48,62.91866715862256
1.585,0.439,9.712,-0.0061094444,0.018328333,-0.018328333,0.0,1.5969255,0.41861504,9.666695,0.00907445,0.045384943,-0.04169464,-0.070377834,-0.04671964,-0.94276637,2017-01-14 20:36:49,62.413167667943775
1.584,0.417,9.641,-0.010997,0.018328333,-0.019550223,0.0,1.5926797,0.41246513,9.667659,-0.0016797781,0.0025348663,-0.019659042,-0.07027285,-0.04634977,-0.94279265,2017-01-14 20:36:50,39.627429933302864
1.598,0.407,9.599,-0.010997,0.019550223,-0.019550223,0.0,1.6004592,0.4153343,9.666251,0.00854075,-0.0043343008,-0.01925087,-0.0706061,-0.046616804,-0.94276965,2017-01-14 20:36:51,30.168673315249027
1.569,0.422,9.495,-0.010997,0.023215888,-0.023215888,0.0,1.5988077,0.41450375,9.66656,0.038192272,0.026496261,-0.27155972,-0.07056127,-0.04651561,-0.942929,2017-01-14 20:36:52,64.16401911824886
1.591,0.428,9.648,-0.009775111,0.023215888,-0.02077211,0.0,1.6003375,0.4153918,9.666269,0.0106624365,0.048608184,-0.05526924,-0.07059536,-0.046623398,-0.9427433,2017-01-14 20:36:53,64.36129865776473
1.604,0.376,9.977,-0.010997,0.021994,-0.02077211,0.0,1.6062144,0.4185763,9.665156,0.001785636,-0.019576311,-0.10615635,-0.070873074,-0.046809822,-0.94301856,2017-01-14 20:36:54,64.74615782551973
1.602,0.447,9.601,-0.010997,0.02077211,-0.024437778,0.0,1.6002812,0.4191986,9.666114,0.07271874,-0.014198601,0.011886597,-0.0705641,-0.046755284,-0.94297564,2017-01-14 20:36:55,64.17934747981224
1.582,0.403,9.629,-0.008553222,0.019550223,-0.015884556,0.0,1.6088458,0.4272157,9.664341,-0.026845813,0.003784299,-0.035341263,-0.07077318,-0.04740147,-0.9424122,2017-01-14 20:36:56,62.3818174662908
1.66,0.461,9.645,-0.008553222,0.02077211,-0.014662666,0.0,1.6050793,0.4298988,9.664848,0.054920673,0.031101197,-0.01984787,-0.070513554,-0.047515415,-0.9422076,2017-01-14 20:36:57,52.95596113876066
1.564,0.402,9.661,-0.009775111,0.023215888,-0.015884556,0.0,1.6056241,0.427086,9.664883,-0.011624098,0.042914003,0.004117012,-0.07054606,-0.047448754,-0.9419306,2017-01-14 20:36:58,62.43027262805278
1.594,0.435,9.625,-0.010997,0.018328333,-0.015884556,0.0,1.6081768,0.41920522,9.6648035,-0.03317678,0.029794782,-0.025803566,-0.070784226,-0.04713569,-0.9418117,2017-01-14 20:36:59,64.9897295643288
1.582,0.413,9.667,-0.012218889,0.02077211,-0.012218889,0.0,1.6021941,0.42305174,9.665629,-0.023194075,0.03494826,0.013370514,-0.07042004,-0.047234338,-0.9417692,2017-01-14 20:37:00,59.13116017109883
1.639,0.409,9.638,-0.013440778,0.023215888,-0.015884556,0.0,1.5942258,0.41784856,9.667173,0.020774245,-0.025848567,-1.7356873E-4,-0.07013045,-0.046830267,-0.94188726,2017-01-14 20:37:01,63.26113524484931
1.597,0.4,9.487,-0.0061094444,0.019550223,-0.02077211,0.0,1.6070325,0.4174154,9.6650715,-0.00803256,0.01158458,0.08992863,-0.07081957,-0.04693733,-0.9422416,2017-01-14 20:37:02,60.232807319547526
1.616,0.422,9.62,-0.010997,0.018328333,-0.019550223,0.0,1.6086979,0.4210267,9.664637,-0.010697842,-0.034026712,-0.009636879,-0.070890546,-0.047065586,-0.94257224,2017-01-14 20:37:03,60.51148993790381
1.611,0.423,9.654,-0.008553222,0.023215888,-0.014662666,0.0,1.5994356,0.4165256,9.666369,0.011564374,-0.006525606,-0.012369156,-0.07051126,-0.04669565,-0.9425974,2017-01-14 20:37:04,62.19064213371941
1.625,0.43,9.626,-0.012218889,0.021994,-0.012218889,0.0,1.6037866,0.41558316,9.665689,0.0062134266,-0.022583157,-0.009689331,-0.07074393,-0.046715163,-0.9426168,2017-01-14 20:37:05,62.24960164522747
1.625,0.407,9.641,-0.009775111,0.019550223,-0.019550223,0.0,1.6002132,0.42512348,9.665866,0.02478683,-0.018123478,-0.024866104,-0.070440196,-0.047075976,-0.94281137,2017-01-14 20:37:06,39.37397448005755
1.579,0.433,9.682,-0.008553222,0.014662666,-0.015884556,0.0,1.5994283,0.4290869,9.665821,0.0035717487,0.007913113,-0.1758213,-0.07033368,-0.04725936,-0.94279003,2017-01-14 20:37:07,62.52928717190975
1.611,0.423,9.655,-0.012218889,0.02077211,-0.02077211,0.0,1.6008527,0.41855437,9.666047,-0.0078526735,-0.008554369,-0.016047478,-0.07057794,-0.04677078,-0.94280434,2017-01-14 20:37:08,64.25971806225525
1.634,0.435,9.431,-0.008553222,0.019550223,-0.015884556,0.0,1.5976377,0.41743833,9.666627,0.03636229,0.017561674,-0.23562717,-0.070452854,-0.04664295,-0.9429093,2017-01-14 20:37:09,63.58146270780752
1.599,0.379,9.443,-0.010997,0.026881555,-0.02077211,0.0,1.5819098,0.4201494,9.669096,-0.007909775,-0.05714938,0.040904045,-0.0696121,-0.046555877,-0.9427616,2017-01-14 20:37:10,27.04824304338548
1.624,0.402,9.719,-0.010997,0.017106444,-0.02077211,0.0,1.5987198,0.40719208,9.666885,-0.018719792,-0.014192075,-0.016885757,-0.07065281,-0.046197306,-0.9427655,2017-01-14 20:37:11,58.614322625095966
1.584,0.374,9.685,-0.010997,0.017106444,-0.015884556,0.0,1.5985254,0.409121,9.666837,-0.016525388,-0.012120992,-0.16183662,-0.07068136,-0.046180803,-0.9432506,2017-01-14 20:37:12,65.97305641302529
1.646,0.431,9.578,-0.008553222,0.017106444,-0.019550223,0.0,1.6031854,0.4086583,9.666083,-0.02418542,0.057341695,-0.06308365,-0.07092713,-0.046219215,-0.94330895,2017-01-14 20:37:13,65.47221278164537
1.557,0.396,9.673,-0.009775111,0.02077211,-0.015884556,0.0,1.6071439,0.42317337,9.664802,-0.026143909,0.0108266175,-0.05880165,-0.070890345,-0.046976533,-0.94333506,2017-01-14 20:37:14,58.999466222126145
1.578,0.41,9.648,-0.008553222,0.021994,-0.015884556,0.0,1.6003726,0.42070916,9.666033,-0.022372603,-0.0107091665,-0.018033028,-0.07058971,-0.046760663,-0.9432897,2017-01-14 20:37:15,56.20707587072179
1.536,0.413,9.758,-0.008553222,0.017106444,-0.014662666,0.0,1.597058,0.42412612,9.666432,-0.011058092,8.738935E-4,-0.06343269,-0.07035648,-0.046894506,-0.9431924,2017-01-14 20:37:16,63.748459444669116
1.641,0.425,9.657,-0.013440778,0.017106444,-0.026881555,0.0,1.5927693,0.42722893,9.667004,-0.013769269,-0.017228931,0.020996094,-0.07008438,-0.04699147,-0.94312304,2017-01-14 20:37:17,64.46945628084544
1.602,0.433,9.523,-0.007331333,0.015884556,-0.018328333,0.0,1.5961211,0.4256561,9.666519,-0.03312111,0.04434389,-0.14451885,-0.07024222,-0.04701806,-0.94289684,2017-01-14 20:37:18,58.368576354712324
1.55,0.416,9.729,-0.0048875557,0.015884556,-0.025659667,0.0,1.5953072,0.42504692,9.666681,-0.013307214,0.032953084,0.041318893,-0.07021586,-0.04697006,-0.9429229,2017-01-14 20:37:19,58.97937278304607
1.623,0.434,9.468,-0.009775111,0.026881555,-0.024437778,0.0,1.587552,0.42629707,9.667902,-0.014551997,-0.019297063,0.19409847,-0.0698268,-0.046886932,-0.94301665,2017-01-14 20:37:20,63.292920672833645
1.581,0.455,9.741,-0.009775111,0.021994,-0.018328333,0.0,1.5836649,0.41728655,9.668933,-0.004664898,-0.02728656,-0.12093258,-0.06972142,-0.046481665,-0.9425951,2017-01-14 20:37:21,63.047082514492814
1.617,0.398,9.636,-0.007331333,0.021994,-0.02077211,0.0,1.5805286,0.42853722,9.668954,0.0094714165,-0.005537212,-0.04995346,-0.0693738,-0.046987478,-0.9425333,2017-01-14 20:37:22,51.21554888128384
1.578,0.436,9.647,-0.0048875557,0.018328333,-0.02077211,0.0,1.5905855,0.419841,9.667686,-0.022585511,-0.050841004,-0.072686195,-0.07002521,-0.04670818,-0.94262713,2017-01-14 20:37:23,63.09226302526234
1.639,0.345,9.332,-0.010997,0.017106444,-0.019550223,0.0,1.5987911,0.41884023,9.666376,0.040208936,-0.07384023,-0.33437634,-0.07040192,-0.04685676,-0.94232297,2017-01-14 20:37:24,66.77002569065644
1.634,0.391,9.553,-0.007331333,0.019550223,-0.017106444,0.0,1.611025,0.4123089,9.664625,-0.01502502,0.07969111,0.1963749,-0.071064115,-0.046809517,-0.94199204,2017-01-14 20:37:25,60.36595524399146
1.592,0.327,9.521,-0.010997,0.018328333,-0.024437778,0.0,1.6130991,0.41497806,9.6641655,-0.043099046,-0.009978056,-0.1981659,-0.07111636,-0.0469805,-0.94195026,2017-01-14 20:37:26,60.599385666100154
1.576,0.403,9.663,-0.012218889,0.019550223,-0.024437778,0.0,1.6110665,0.41702554,9.664416,-0.0150665045,0.024974465,-0.019415855,-0.07094234,-0.047107253,-0.9416727,2017-01-14 20:37:27,64.90536642377087
1.596,0.343,9.946,-0.007331333,0.018328333,-0.019550223,0.0,1.6098369,0.4159014,9.664669,-0.04383695,0.003098607,0.0013313293,-0.07092289,-0.04699932,-0.9418289,2017-01-14 20:37:28,62.84675791782858
1.631,0.354,9.261,-0.007331333,0.018328333,-0.014662666,0.0,1.6122494,0.42833707,9.663725,-0.037249327,0.013662934,0.39527512,-0.07082649,-0.0476529,-0.94175726,2017-01-14 20:37:29,61.473991530237456
1.629,0.409,9.66,-0.013440778,0.019550223,-0.017106444,0.0,1.6123893,0.41773385,9.664165,-0.0023893118,-0.029733837,-0.01316452,-0.07105636,-0.047071338,-0.9420903,2017-01-14 20:37:30,61.0626685133813
1.627,0.407,9.652,-0.010997,0.018328333,-0.014662666,0.0,1.6052713,0.41503316,9.665466,0.048728704,-0.015033156,-0.09146595,-0.07076195,-0.046809398,-0.94217277,2017-01-14 20:37:31,66.30564103111686
1.588,0.446,9.777,-0.013440778,0.017106444,-0.02077211,0.0,1.6094885,0.41725212,9.664669,-0.021488428,0.028747886,0.11233139,-0.07095692,-0.04694804,-0.94233567,2017-01-14 20:37:32,65.08876648251965
1.574,0.433,9.627,-0.0048875557,0.025659667,-0.02077211,0.0,1.5929556,0.41742167,9.667401,-0.018955588,0.01557833,-0.04040146,-0.07016726,-0.04665077,-0.942528,2017-01-14 20:37:33,59.009402060323886
1.602,0.405,9.79,-0.008553222,0.017106444,-0.02077211,0.0,1.5881363,0.42096764,9.66804,-0.010136366,-0.005967647,0.060959816,-0.06985963,-0.04676308,-0.942444,2017-01-14 20:37:34,64.4065249764831
1.617,0.441,9.595,-0.010997,0.02077211,-0.019550223,0.0,1.5953861,0.4199806,9.666889,-0.011386156,-0.006980598,-0.011889458,-0.070206195,-0.04687127,-0.94225895,2017-01-14 20:37:35,63.701098196611866
1.527,0.409,9.697,0.0012218889,0.015884556,-0.02077211,0.0,1.6022339,0.43417627,9.66513,0.006766081,-0.028176278,-0.033129692,-0.07030696,-0.047670584,-0.9422334,2017-01-14 20:37:36,62.98007464768483
1.631,0.422,9.636,-0.012218889,0.017106444,-0.015884556,0.0,1.612731,0.4329569,9.663438,0.018269062,-0.010956913,-0.027438164,-0.070752956,-0.04791457,-0.94161314,2017-01-14 20:37:37,65.6404463808973
1.588,0.352,9.686,-0.013440778,0.015884556,-0.017106444,0.0,1.6102899,0.39999616,9.665265,0.005710125,0.010003835,0.22873497,-0.071182825,-0.04627761,-0.94165695,2017-01-14 20:37:38,59.02862961349185
1.624,0.425,9.666,-0.010997,0.018328333,-0.017106444,0.0,1.6238179,0.4881933,9.658947,0.013182044,-0.10319331,0.022052765,-0.07023695,-0.05096568,-0.9406283,2017-01-14 20:37:40,58.85083412723259
1.587,0.402,9.594,-0.008553222,0.02077211,-0.012218889,0.0,1.6325724,0.40507323,9.661315,-0.0025724173,-0.017073214,-0.013315201,-0.07206305,-0.047084387,-0.9407285,2017-01-14 20:37:41,36.44079673934039
1.641,0.406,9.55,-0.010997,0.021994,-0.014662666,0.0,1.628978,0.3808519,9.662907,0.012022018,0.025148094,-0.112906456,-0.072330825,-0.045794297,-0.9410263,2017-01-14 20:37:42,37.3356607344827
1.605,0.39,9.654,-0.008553222,0.021994,-0.023215888,0.0,1.6222343,0.36417586,9.664684,-0.017234325,0.02582413,-0.010684013,-0.07235525,-0.044754565,-0.9416034,2017-01-14 20:37:43,64.61343503733059
1.539,0.29,10.07,-0.0024437779,0.026881555,-0.017106444,0.0,1.6053317,0.3611561,9.66762,-0.09433162,0.050843894,0.43838024,-0.07165141,-0.044211697,-0.94217676,2017-01-14 20:37:44,65.43684018211691
1.552,0.364,9.45,0.03176911,0.054985,-0.014662666,0.0,1.5694331,0.41636345,9.671293,-0.21843314,0.40263656,-0.2572937,-0.068972975,-0.046303593,-0.9421563,2017-01-14 20:37:45,62.0158698142236
1.625,0.388,9.572,-0.0024437779,0.02077211,-0.019550223,0.0,1.6022071,0.36971718,9.667814,0.045792937,0.011282831,0.051185608,-0.07138876,-0.044523194,-0.94241047,2017-01-14 20:37:46,73.22186570813473
1.672,0.385,9.742,-0.014662666,0.018328333,-0.018328333,0.0,1.5942523,0.3938195,9.668177,-0.025252342,-0.054819524,0.023823738,-0.070625365,-0.045521494,-0.9425814,2017-01-14 20:37:47,70.8451373999716
1.67,0.369,9.702,-0.007331333,0.023215888,-0.024437778,0.0,1.5932424,0.40642828,9.667822,-0.026242375,-0.024428278,-0.092822075,-0.07034479,-0.046150595,-0.94241107,2017-01-14 20:37:48,61.13151917794417
1.643,0.396,9.647,-0.0036656666,0.017106444,-0.02077211,0.0,1.6014487,0.42213464,9.665792,0.080551386,0.018865377,-0.051792145,-0.07046317,-0.04708146,-0.9422152,2017-01-14 20:37:49,63.79159776705636
1.581,0.445,9.68,-0.0061094444,0.019550223,-0.023215888,0.0,1.6100562,0.40593585,9.665057,-0.05305612,0.0030641556,0.027942657,-0.07113325,-0.04646842,-0.942076,2017-01-14 20:37:50,50.938221017401744
1.726,0.308,9.763,-0.010997,0.008553222,-0.018328333,0.0,1.5876305,0.41968387,9.668179,0.13836944,-0.111683875,0.094820976,-0.06981654,-0.046751723,-0.94217205,2017-01-14 20:37:51,61.04329969023186
1.621,0.423,9.607,-0.010997,0.023215888,-0.024437778,0.0,1.5911806,0.40627846,9.668168,0.08081949,7.21544E-4,-0.0731678,-0.070225425,-0.046141315,-0.9422689,2017-01-14 20:37:52,63.36771560344053
1.558,0.472,9.938,-0.0048875557,0.021994,-0.018328333,0.0,1.5867177,0.41171202,9.668672,2.822876E-4,0.025287986,0.06732845,-0.069912426,-0.046337992,-0.9422409,2017-01-14 20:37:53,65.0990074043172
1.622,0.394,9.612,-0.014662666,0.02077211,-0.018328333,0.0,1.5922505,0.4164554,9.667559,-0.018250465,0.012544602,-0.030558586,-0.07012365,-0.0466301,-0.9423565,2017-01-14 20:37:54,64.33009256697864
1.584,0.431,9.656,-0.017106444,0.015884556,-0.019550223,0.0,1.601144,0.4358603,9.665234,-0.017143965,-0.0048603117,-0.009233475,-0.07022957,-0.047728583,-0.94225997,2017-01-14 20:37:55,63.2769496195563
1.615,0.431,9.722,-0.015884556,0.019550223,-0.017106444,0.0,1.6056831,0.40528235,9.665812,0.009316921,0.025717646,0.056188583,-0.07096703,-0.046308126,-0.94234514,2017-01-14 20:37:56,29.800872984144174
1.592,0.39,9.608,-0.014662666,0.021994,-0.018328333,0.0,1.591669,0.4146378,9.667732,0.044331074,0.052362204,0.008267403,-0.070120424,-0.046539795,-0.94232595,2017-01-14 20:37:57,59.04611591480383
1.552,0.54,10.147,-0.009775111,0.023215888,-0.017106444,0.0,1.5932537,0.41463187,9.667472,-0.07925367,0.046368122,0.45952797,-0.07018739,-0.04658167,-0.94224817,2017-01-14 20:37:58,64.65164580507818
1.592,0.44,9.647,-0.0061094444,0.02077211,-0.023215888,0.0,1.5879704,0.42296773,9.66798,0.00802958,0.0110322535,0.008019447,-0.0697331,-0.04698414,-0.9418522,2017-01-14 20:37:59,65.15349941873511
1.663,0.246,9.53,-0.024437778,0.012218889,-0.021994,0.0,1.5962499,0.42263508,9.666631,0.040750027,-0.02663508,0.31636906,-0.07009001,-0.047184587,-0.9414637,2017-01-14 20:38:00,65.14115096980044
1.605,0.437,9.636,-0.007331333,0.021994,-0.015884556,0.0,1.5941422,0.41714558,9.667217,0.0108578205,0.019854426,-0.031217575,-0.07007366,-0.04689122,-0.9414403,2017-01-14 20:38:01,59.63593609925204
1.581,0.394,9.68,0.0,0.02077211,-0.015884556,0.0,1.581548,0.42606458,9.668897,0.0064520836,0.038935423,-0.06689644,-0.06931088,-0.047111318,-0.94147104,2017-01-14 20:38:02,61.45560685720018
1.588,0.428,9.668,-0.013440778,0.013440778,-0.017106444,0.0,1.5967832,0.4207996,9.666623,-0.008783102,0.00720039,0.0013771057,-0.07011339,-0.047154166,-0.9412335,2017-01-14 20:38:03,61.63201079975336
1.585,0.628,9.597,-0.010997,0.019550223,-0.024437778,0.0,1.611501,0.3660543,9.666409,-0.02650094,0.26194572,-0.06940842,-0.07171341,-0.04480529,-0.941001,2017-01-14 20:38:04,65.26431712279683
1.579,0.372,9.221,-0.010997,0.018328333,-0.017106444,0.0,1.600919,0.39391547,9.667072,-0.009919047,0.07508454,0.25192738,-0.0707362,-0.045966364,-0.9410468,2017-01-14 20:38:05,64.9324887966081
1.605,0.393,9.632,-0.008553222,0.019550223,-0.023215888,0.0,1.5875869,0.41617602,9.668338,0.009413123,-0.03817603,-0.062337875,-0.06975614,-0.04675528,-0.9413636,2017-01-14 20:38:06,61.71017858422519
1.615,0.416,9.596,-0.007331333,0.025659667,-0.017106444,0.0,1.589485,0.42123428,9.667807,-0.0114851,-0.01923427,-0.007806778,-0.06976138,-0.0470361,-0.9413328,2017-01-14 20:38:07,58.681028037449174
1.572,0.418,9.688,-0.010997,0.018328333,-0.02077211,0.0,1.5889444,0.42602226,9.6676855,-0.016944408,-0.008022249,0.020314217,-0.06961949,-0.047311097,-0.94108325,2017-01-14 20:38:08,64.2453324595719
1.605,0.419,9.651,-0.009775111,0.015884556,-0.019550223,0.0,1.586479,0.42049065,9.668332,0.016521096,0.016509354,-0.026331902,-0.06956501,-0.047041785,-0.9409093,2017-01-14 20:38:09,66.24788812456002
1.435,0.466,10.21,-0.0061094444,0.021994,-0.02077211,0.0,1.5876651,0.41927657,9.668191,0.14433491,-0.05227655,-0.6501913,-0.06959501,-0.04707436,-0.9405704,2017-01-14 20:38:10,63.93357146723656
1.591,0.387,9.641,-0.010997,0.019550223,-0.025659667,0.0,1.5953254,0.41326407,9.667189,-0.010325313,0.009735942,-0.028188705,-0.07005209,-0.046938904,-0.94043213,2017-01-14 20:38:11,60.81855219987534
1.465,0.466,10.288,-0.008553222,0.019550223,-0.021994,0.0,1.6042738,0.42593977,9.665157,-0.020273805,-0.014939755,-0.2271576,-0.07026007,-0.047724668,-0.9402902,2017-01-14 20:38:12,61.37159781793684
1.6,0.424,9.489,-0.014662666,0.018328333,-0.024437778,0.0,1.6055305,0.4147886,9.665434,-0.02453053,0.019211382,-0.10343361,-0.07051202,-0.04720264,-0.9403178,2017-01-14 20:38:13,62.85106263056191
1.575,0.446,9.746,-0.008553222,0.017106444,-0.017106444,0.0,1.6037978,0.41332486,9.665784,0.018202186,-0.0043248534,0.3302164,-0.070442855,-0.047116585,-0.940259,2017-01-14 20:38:14,64.43378555607786
1.602,0.422,9.624,-0.008553222,0.023215888,-0.019550223,0.0,1.5953981,0.4095174,9.667336,0.038601875,0.0054825842,-0.02333641,-0.07009664,-0.04679208,-0.94028026,2017-01-14 20:38:15,65.71662385073724
1.603,0.419,9.668,-0.007331333,0.023215888,-0.021994,0.0,1.5890946,0.4076144,9.668454,0.016905308,0.032385588,-0.011454582,-0.06982993,-0.046580978,-0.94035983,2017-01-14 20:38:16,64.013192910415
1.605,0.393,9.693,-0.010997,0.023215888,-0.013440778,0.0,1.5938334,0.41830367,9.667217,0.025166512,-0.0033036768,-0.018217087,-0.06987214,-0.04719051,-0.9402748,2017-01-14 20:38:17,62.162825968032195
1.59,0.413,9.667,-0.007331333,0.017106444,-0.013440778,0.0,1.5987511,0.42210695,9.666241,-0.028751016,-0.022106946,-0.041240692,-0.07007509,-0.04741703,-0.94044685,2017-01-14 20:38:18,35.836016077396984
1.555,0.415,10.039,-0.012218889,0.02077211,-0.015884556,0.0,1.6052816,0.4219199,9.665166,0.016718388,-0.010919899,-0.08716583,-0.07039147,-0.047525823,-0.9403923,2017-01-14 20:38:19,55.94568453697727
1.581,0.458,9.673,-0.010997,0.024437778,-0.018328333,0.0,1.58489,0.4153975,9.668814,0.0011099577,-0.009397507,-0.07481384,-0.06950957,-0.046862878,-0.9404742,2017-01-14 20:38:20,63.434196024962716
1.604,0.417,9.654,-0.009775111,0.018328333,-0.014662666,0.0,1.5884352,0.4146279,9.668264,-0.00843513,0.037372082,-0.008264542,-0.069690645,-0.046892453,-0.940432,2017-01-14 20:38:21,66.61520924617959
1.579,0.399,9.657,-0.009775111,0.021994,-0.024437778,0.0,1.5856422,0.41954023,9.668511,0.025357723,-0.01954022,-0.024511337,-0.06948106,-0.047069088,-0.9404998,2017-01-14 20:38:22,65.77577882305478
1.592,0.423,9.649,-0.008553222,0.024437778,-0.021994,0.0,1.5900267,0.42303127,9.667639,0.00597322,0.031968743,-0.011638641,-0.069632106,-0.04731763,-0.94045615,2017-01-14 20:38:23,60.860620078724345
1.541,0.423,9.663,-0.009775111,0.021994,-0.023215888,0.0,1.5984508,0.41207373,9.666723,0.025549173,0.0069262683,-0.023723602,-0.070225604,-0.046932418,-0.94043225,2017-01-14 20:38:24,31.91291873692017
1.614,0.439,9.607,-0.0061094444,0.02077211,-0.023215888,0.0,1.5925466,0.40936407,9.667812,-0.014546633,0.029635936,0.0461874,-0.06999423,-0.04668559,-0.94052815,2017-01-14 20:38:25,59.60528028916161
1.605,0.358,9.495,-0.010997,0.025659667,-0.018328333,0.0,1.5968581,0.41199884,9.666989,-0.004858136,0.046001166,0.05701065,-0.070208564,-0.04681306,-0.9408531,2017-01-14 20:38:26,61.60790346597868
1.558,0.421,9.658,-0.010997,0.025659667,-0.02077211,0.0,1.5899713,0.4098953,9.668214,-0.031971335,0.011104703,-0.010213852,-0.06994057,-0.046546638,-0.9411044,2017-01-14 20:38:27,64.18922949617989
1.574,0.411,9.657,-0.0024437779,0.015884556,-0.019550223,0.0,1.5902935,0.40991655,9.66816,0.011706471,0.0030834377,0.0018396378,-0.069937885,-0.04658018,-0.94097644,2017-01-14 20:38:28,63.33866446117291
1.615,0.361,9.327,-0.009775111,0.019550223,-0.018328333,0.0,1.5910822,0.41354677,9.667876,-0.04208219,0.029453218,0.3171234,-0.06989691,-0.046796795,-0.9408401,2017-01-14 20:38:29,63.73855693147493
1.56,0.428,9.641,-0.008553222,0.013440778,-0.014662666,0.0,1.5920061,0.41730183,9.6675625,-0.031006098,-0.004301846,-0.031562805,-0.069868885,-0.04700893,-0.94076306,2017-01-14 20:38:30,64.74297600499442
1.566,0.413,9.621,-0.010997,0.019550223,-0.021994,0.0,1.5972627,0.4212676,9.666523,0.0057373047,0.0077323914,0.0074768066,-0.07008556,-0.047249287,-0.94093066,2017-01-14 20:38:31,64.48870987678224
1.622,0.424,9.667,-0.009775111,0.019550223,-0.015884556,0.0,1.6053029,0.42517257,9.665021,0.012697101,0.028827429,0.009979248,-0.07038896,-0.047607824,-0.9407422,2017-01-14 20:38:32,63.29959280843088
1.579,0.441,9.647,-0.009775111,0.015884556,-0.017106444,0.0,1.6033338,0.41913888,9.665611,-0.045333862,0.01386112,-0.01361084,-0.070384726,-0.04729692,-0.9406888,2017-01-14 20:38:33,62.06178069014988
1.615,0.429,9.654,-0.008553222,0.018328333,-0.014662666,0.0,1.597517,0.42052463,9.666513,-0.011517048,0.006475359,-0.024513245,-0.07006389,-0.047286637,-0.94060737,2017-01-14 20:38:34,64.25350701936055
1.58,0.418,9.692,-0.010997,0.017106444,-0.019550223,0.0,1.60713,0.40982577,9.66538,-0.014129996,-0.0038257837,0.020620346,-0.07073518,-0.046896998,-0.9407497,2017-01-14 20:38:35,62.6262411184943
1.568,0.43,9.618,-0.009775111,0.021994,-0.023215888,0.0,1.610346,0.41929284,9.664437,0.0036540031,0.007707149,-0.0404377,-0.070760265,-0.047368493,-0.94091827,2017-01-14 20:38:36,53.19705188835073
1.597,0.446,9.631,-0.0061094444,0.019550223,-0.019550223,0.0,1.5938996,0.4186057,9.667193,0.01810038,0.0053943098,-0.06219387,-0.06999915,-0.04701491,-0.94117296,2017-01-14 20:38:37,57.42054543629731
1.59,0.451,9.69,-0.009775111,0.015884556,-0.019550223,0.0,1.5933863,0.41414633,9.667471,0.015613675,-0.04414633,-0.13147068,-0.07003352,-0.046813264,-0.94107294,2017-01-14 20:38:38,67.2745362767084
1.578,0.409,9.831,-0.009775111,0.019550223,-0.02077211,0.0,1.6006526,0.42234415,9.665916,-0.022652626,-0.013344139,0.16508389,-0.07026062,-0.04731713,-0.9411118,2017-01-14 20:38:39,59.63762252646036
1.618,0.442,9.621,-0.008553222,0.021994,-0.02077211,0.0,1.5881963,0.41900122,9.668116,-0.009196281,0.023998767,-0.021115303,-0.069723465,-0.046924822,-0.94125277,2017-01-14 20:38:40,64.9027224667444
1.631,0.443,9.658,-0.010997,0.018328333,-0.023215888,0.0,1.5851805,0.4156154,9.6687565,-0.01818049,0.009384602,-0.03075695,-0.06962466,-0.046722822,-0.94120693,2017-01-14 20:38:41,64.94984064916379
1.582,0.385,9.57,-0.008553222,0.021994,-0.015884556,0.0,1.5810051,0.41340363,9.669536,-0.0060050488,-0.007403642,0.0574646,-0.06942642,-0.0465929,-0.940999,2017-01-14 20:38:42,63.67537526801128
1.542,0.385,9.825,-0.010997,0.018328333,-0.015884556,0.0,1.578452,0.40670094,9.670237,-0.0034519434,0.048299074,-0.23223686,-0.0693479,-0.046325337,-0.94054186,2017-01-14 20:38:43,62.68335245556857
1.628,0.394,9.57,-0.009775111,0.019550223,-0.014662666,0.0,1.5941026,0.41670808,9.667243,0.009897351,-0.011708081,-0.028243065,-0.06986464,-0.047188353,-0.93994296,2017-01-14 20:38:44,63.019126040573695
1.585,0.399,9.609,-0.009775111,0.019550223,-0.019550223,0.0,1.5923843,0.41835997,9.667455,0.00961566,0.0036400259,-0.009454727,-0.069727406,-0.04727683,-0.93976676,2017-01-14 20:38:45,64.97163672430305
1.576,0.442,9.806,-0.010997,0.018328333,-0.017106444,0.0,1.5916926,0.41677335,9.667637,0.03130746,-0.053773344,-0.07063675,-0.06971645,-0.047194514,-0.9397415,2017-01-14 20:38:46,62.76516451521742
1.574,0.431,9.674,-0.013440778,0.018328333,-0.017106444,0.0,1.5833641,0.4133189,9.669153,0.0016359091,0.020681083,0.033846855,-0.06935706,-0.046904366,-0.9396821,2017-01-14 20:38:47,63.258786786145755
1.552,0.51,9.998,-0.009775111,0.019550223,-0.018328333,0.0,1.5831356,0.4092955,9.669361,-0.03113556,0.10070449,0.32863903,-0.06941779,-0.04670074,-0.93971276,2017-01-14 20:38:48,62.3634139924613
1.633,0.404,9.048,-0.0048875557,0.021994,-0.019550223,0.0,1.587669,0.42222613,9.668062,-0.057669044,0.035773873,0.21293736,-0.06940653,-0.047421202,-0.93959635,2017-01-14 20:38:49,66.07350107094132
1.593,0.409,9.664,-0.009775111,0.018328333,-0.015884556,0.0,1.5980597,0.4212872,9.66639,0.01894033,-0.028287202,-0.033390045,-0.069937006,-0.047540035,-0.9396269,2017-01-14 20:38:50,63.25312451276729
1.603,0.386,9.715,-0.009775111,0.02077211,-0.015884556,0.0,1.6062199,0.42287046,9.664969,-0.028219938,-8.7046623E-4,0.03703022,-0.070294246,-0.04777496,-0.93950844,2017-01-14 20:38:51,42.33479940339176
1.515,0.435,10.007,-0.009775111,0.015884556,-0.017106444,0.0,1.5929916,0.42541015,9.667047,-0.14299154,0.02358985,0.33995342,-0.06962071,-0.047652412,-0.93964016,2017-01-14 20:38:52,63.65019789116974
1.588,0.43,9.654,-0.007331333,0.018328333,-0.017106444,0.0,1.5964872,0.41595024,9.666882,0.017512798,0.0130497515,-0.057881355,-0.06995113,-0.047255144,-0.9396387,2017-01-14 20:38:53,62.373957568080115
1.647,0.344,9.681,-0.007331333,0.018328333,-0.009775111,0.0,1.6111629,0.41316766,9.664566,-0.060162902,0.029832333,-0.047566414,-0.07071138,-0.047372773,-0.9395867,2017-01-14 20:38:54,65.60918750392473
1.572,0.4,9.641,-0.010997,0.024437778,-0.014662666,0.0,1.5986998,0.41014463,9.666764,-0.035699844,0.014855385,-0.010764122,-0.07018405,-0.046972364,-0.93982697,2017-01-14 20:38:55,61.47118698592422
1.597,0.427,9.502,-0.008553222,0.02077211,-0.019550223,0.0,1.5847739,0.414557,9.668868,0.018226147,-0.030557007,1.3160706E-4,-0.06944408,-0.04692993,-0.9399545,2017-01-14 20:38:56,57.04368962783363
1.573,0.435,9.632,-0.009775111,0.026881555,-0.026881555,0.0,1.5814216,0.41399163,9.669442,-0.0084216595,0.021008372,-0.037442207,-0.069297485,-0.04683525,-0.94001484,2017-01-14 20:38:57,63.470125185448794
1.608,0.457,9.644,-0.013440778,0.014662666,-0.019550223,0.0,1.587319,0.42310017,9.668081,0.033681035,0.007899821,0.012918472,-0.06945733,-0.047336407,-0.9401736,2017-01-14 20:38:58,64.70492216584599
1.622,0.437,9.513,-0.012218889,0.015884556,-0.018328333,0.0,1.5986388,0.41355276,9.666629,0.013361216,-0.004552752,-0.09262848,-0.07020324,-0.047017008,-0.9403836,2017-01-14 20:38:59,65.32358445257414
1.582,0.407,9.642,-0.013440778,0.02077211,-0.017106444,0.0,1.6036956,0.41395965,9.665774,-0.013695598,0.033040345,0.0642252,-0.07044974,-0.047111813,-0.94041646,2017-01-14 20:39:00,35.838413928031216
1.593,0.437,9.621,-0.0036656666,0.017106444,-0.014662666,0.0,1.5993702,0.41837293,9.666301,-0.031370282,0.014627069,-0.06630039,-0.070181064,-0.04722771,-0.9405392,2017-01-14 20:39:01,65.80085938473528
1.609,0.403,9.672,-0.008553222,0.021994,-0.015884556,0.0,1.5922936,0.413861,9.667664,0.016706347,-0.010861009,0.004336357,-0.06990876,-0.046894982,-0.940542,2017-01-14 20:39:02,65.86125194375258
1.57,0.457,9.839,-0.012218889,0.017106444,-0.02077211,0.0,1.5960087,0.4134517,9.667068,-0.0280087,0.013548285,-0.1030674,-0.07005089,-0.04700627,-0.94020987,2017-01-14 20:39:03,66.24809265178459
1.594,0.422,9.62,-0.010997,0.015884556,-0.026881555,0.0,1.5848576,0.4075593,9.669152,-0.022857547,-0.025559306,-0.03315258,-0.06959559,-0.046549805,-0.9401679,2017-01-14 20:39:04,59.852680855752396
1.557,0.459,9.377,-0.009775111,0.02077211,-0.010997,0.0,1.5983928,0.41627228,9.666553,0.006607175,0.04272771,-0.10155296,-0.0700566,-0.04727625,-0.93975985,2017-01-14 20:39:05,54.616432427783444
1.59,0.434,9.686,-0.010997,0.02077211,-0.017106444,0.0,1.60124,0.4145199,9.666157,-0.0112400055,0.01948008,0.019843102,-0.070226826,-0.047237173,-0.9397664,2017-01-14 20:39:06,59.05334941346143
1.602,0.449,9.658,-0.007331333,0.02077211,-0.019550223,0.0,1.5970446,0.4189643,9.666659,-0.009044528,-0.04996431,-0.019659042,-0.06994653,-0.047381666,-0.93976927,2017-01-14 20:39:07,58.21154767725972
1.66,0.4,9.055,-0.009775111,0.019550223,-0.019550223,0.0,1.5950737,0.42197487,9.666854,0.06492627,-0.034974873,0.03814602,-0.06979226,-0.04750438,-0.9397208,2017-01-14 20:39:08,61.490243716172365
1.58,0.425,9.644,-0.0048875557,0.019550223,-0.02077211,0.0,1.5887196,0.42219016,9.6678915,-0.015719652,-0.0011901557,-0.026891708,-0.06948215,-0.047402408,-0.93976,2017-01-14 20:39:09,60.15976240201966
1.581,0.416,9.639,-0.0061094444,0.021994,-0.018328333,0.0,1.5879421,0.4185083,9.668179,0.011057854,0.0044917166,-1.783371E-4,-0.0694955,-0.04722774,-0.9396879,2017-01-14 20:39:10,59.864912129184304
1.585,0.4,9.714,-0.0061094444,0.02077211,-0.02077211,0.0,1.5957583,0.42654696,9.66654,-0.023758292,-0.02154696,-0.019539833,-0.069736384,-0.0477541,-0.9396322,2017-01-14 20:39:11,39.95316819789531
1.602,0.425,9.656,-0.009775111,0.018328333,-0.014662666,0.0,1.592816,0.41083634,9.667706,-0.025815964,0.011163652,0.022294044,-0.06984251,-0.04697028,-0.93953794,2017-01-14 20:39:12,51.691139686680046
1.592,0.398,9.623,-0.0061094444,0.019550223,-0.013440778,0.0,1.5881872,0.4184615,9.66814,0.008812785,-0.0014615059,-0.10014057,-0.0694933,-0.047251597,-0.93958247,2017-01-14 20:39:13,63.73254158549472
1.566,0.394,9.673,-0.007331333,0.018328333,-0.02077211,0.0,1.595351,0.41713598,9.667018,-0.023350954,-0.005135983,-0.0010175705,-0.069861434,-0.04731416,-0.9395408,2017-01-14 20:39:14,60.97713827875629
1.598,0.437,9.639,-0.008553222,0.015884556,-0.012218889,0.0,1.5972558,0.4151893,9.666787,-0.010255814,0.01181069,-0.027787209,-0.069984056,-0.04725723,-0.9395151,2017-01-14 20:39:15,65.74690197284906
1.555,0.41,9.631,-0.010997,0.019550223,-0.014662666,0.0,1.5921624,0.41387695,9.667685,0.004837632,-8.7696314E-4,-0.023684502,-0.06977515,-0.04708221,-0.9396499,2017-01-14 20:39:16,60.71331745580523
1.592,0.423,9.649,-0.013440778,0.019550223,-0.015884556,0.0,1.5913532,0.4079939,9.668068,6.468296E-4,0.015006095,-0.019067764,-0.06981979,-0.0468077,-0.939547,2017-01-14 20:39:17,51.24853798072566
1.545,0.417,9.904,-0.009775111,0.023215888,-0.017106444,0.0,1.5851134,0.41785204,9.668672,-0.02311337,1.4796853E-4,-0.17067146,-0.06935207,-0.04717265,-0.93957865,2017-01-14 20:39:18,28.757596442457874
1.605,0.405,9.681,-0.010997,0.019550223,-0.02077211,0.0,1.5869173,0.4080332,9.668795,-0.0069172382,0.0069667995,-0.025794983,-0.06961968,-0.046709478,-0.93967724,2017-01-14 20:39:19,28.581587356030983
1.588,0.441,9.668,-0.010997,0.021994,-0.019550223,0.0,1.6011171,0.4166499,9.666085,8.82864E-4,-0.029649913,-0.016085625,-0.070185766,-0.047336526,-0.9397715,2017-01-14 20:39:20,38.87391312036072
1.597,0.412,9.66,-0.008553222,0.02077211,-0.019550223,0.0,1.5946147,0.41464624,9.667247,-0.015614748,-0.012646228,-0.020246506,-0.06994138,-0.04707228,-0.94006234,2017-01-14 20:39:21,66.45257332731487
1.618,0.39,9.642,-0.008553222,0.021994,-0.018328333,0.0,1.5866666,0.41015536,9.668746,0.031333447,-0.02015537,-0.026745796,-0.06968894,-0.046632674,-0.9405065,2017-01-14 20:39:22,62.68079630390212
1.618,0.437,9.626,-0.009775111,0.018328333,-0.017106444,0.0,1.5895343,0.4135822,9.668129,0.057465672,-0.0045821965,-0.11812878,-0.069741644,-0.046890486,-0.940288,2017-01-14 20:39:23,66.37683186960867
1.621,0.409,9.57,-0.0048875557,0.019550223,-0.014662666,0.0,1.5924516,0.4109815,9.66776,0.016548395,0.08101851,0.008239746,-0.06993344,-0.046805467,-0.940323,2017-01-14 20:39:24,67.17794182959842
1.614,0.423,9.651,-0.007331333,0.018328333,-0.023215888,0.0,1.5955385,0.42359558,9.666706,0.008461475,-0.016595572,-0.0047063828,-0.069842406,-0.04750987,-0.94010013,2017-01-14 20:39:25,62.70028360326728
1.567,0.44,9.955,-0.008553222,0.017106444,-0.019550223,0.0,1.6005834,0.42687967,9.665728,0.034416556,-0.057879686,-0.4317274,-0.07002223,-0.04776953,-0.9400088,2017-01-14 20:39:26,66.10036605067313
1.608,0.421,9.636,-0.010997,0.017106444,-0.02077211,0.0,1.5943221,0.414845,9.667287,-0.00832212,0.0011550188,7.133484E-4,-0.06992129,-0.04708059,-0.94004565,2017-01-14 20:39:27,63.298146554739446
1.618,0.411,9.633,-0.012218889,0.024437778,-0.017106444,0.0,1.5987393,0.41464087,9.666565,-0.03273928,0.024359137,-0.0155649185,-0.07012848,-0.04716264,-0.9399525,2017-01-14 20:39:28,56.54126019329827
1.591,0.436,9.698,-0.008553222,0.019550223,-0.023215888,0.0,1.5945727,0.4191424,9.66706,0.0014272928,-0.0321424,-0.077059746,-0.0698671,-0.047283363,-0.94008374,2017-01-14 20:39:29,62.38370278016297
1.563,0.416,9.834,-0.010997,0.019550223,-0.018328333,0.0,1.5892627,0.41507727,9.668109,-0.004262686,0.045922726,0.26289082,-0.069668815,-0.047009163,-0.9400456,2017-01-14 20:39:30,57.836733528294964
1.617,0.387,9.268,-0.009775111,0.021994,-0.019550223,0.0,1.59757,0.41647252,9.66668,0.019430041,-0.02947253,-0.3986807,-0.06999747,-0.047295142,-0.93965226,2017-01-14 20:39:31,62.65804426187414
1.618,0.407,9.509,-0.007331333,0.023215888,-0.015884556,0.0,1.5817947,0.41742697,9.669233,0.05320525,-0.025426984,0.09376621,-0.069212064,-0.047074564,-0.9396897,2017-01-14 20:39:32,64.7719384708233
1.574,0.378,9.618,-0.013440778,0.025659667,-0.019550223,0.0,1.5930533,0.4178395,9.667367,0.003946662,-0.036839485,0.16063309,-0.069755755,-0.047282286,-0.939674,2017-01-14 20:39:33,67.08295320201829
1.561,0.406,9.631,-0.012218889,0.018328333,-0.019550223,0.0,1.5940529,0.4179989,9.667195,0.003947139,0.0030010939,-0.022194862,-0.069790386,-0.04732371,-0.9395914,2017-01-14 20:39:34,62.69681517327926
1.593,0.391,9.681,-0.007331333,0.015884556,-0.024437778,0.0,1.5970701,0.41579732,9.666792,0.025929928,-0.04179731,-0.029791832,-0.069978245,-0.047263384,-0.93961006,2017-01-14 20:39:35,62.46283564388635
1.604,0.41,9.539,-0.012218889,0.018328333,-0.019550223,0.0,1.6004804,0.41402555,9.666305,0.01851952,-0.029025555,-0.042304993,-0.070161484,-0.047254935,-0.9395115,2017-01-14 20:39:36,28.57889380152749
1.619,0.382,9.517,-0.008553222,0.017106444,-0.012218889,0.0,1.5954748,0.41589746,9.667051,-0.013474822,-0.010897458,-0.016051292,-0.06989689,-0.047244,-0.9396008,2017-01-14 20:39:37,26.085631160026864
1.572,0.423,9.65,-0.008553222,0.024437778,-0.014662666,0.0,1.5904751,0.424324,9.667509,0.025524974,-0.019324005,0.020490646,-0.06950693,-0.04757123,-0.93958145,2017-01-14 20:39:38,63.94676660131404
1.566,0.442,9.915,-0.008553222,0.017106444,-0.018328333,0.0,1.5900283,0.42047805,9.66775,-0.03402829,0.109521925,-0.35375023,-0.06952326,-0.047417708,-0.9393965,2017-01-14 20:39:39,62.34751538813142
1.574,0.423,9.664,-0.010997,0.021994,-0.017106444,0.0,1.5919178,0.41674113,9.667602,-0.003917694,-0.0017411411,0.01639843,-0.069662556,-0.04729327,-0.9392813,2017-01-14 20:39:40,55.81706660615758
1.585,0.424,9.585,-0.007331333,0.018328333,-0.021994,0.0,1.5894983,0.42335197,9.667712,-0.023498297,0.012648016,0.025287628,-0.06945198,-0.047542576,-0.9394184,2017-01-14 20:39:41,53.96592459793019
1.628,0.398,9.696,-0.007331333,0.019550223,-0.013440778,0.0,1.5878773,0.4187399,9.6681795,-0.008877277,-0.02873993,-0.0061798096,-0.06943439,-0.047317192,-0.9393084,2017-01-14 20:39:42,62.85389029269936
1.603,0.431,9.432,-0.012218889,0.021994,-0.019550223,0.0,1.5969023,0.4056822,9.66725,-0.016902208,0.043317795,0.06375027,-0.07009141,-0.046847098,-0.93926495,2017-01-14 20:39:43,64.2753621192599
1.591,0.363,9.633,-0.009775111,0.017106444,-0.015884556,0.0,1.5999668,0.4121617,9.666469,0.03403318,-0.013161719,0.021531105,-0.07010093,-0.04725596,-0.93904173,2017-01-14 20:39:44,64.81883519888548
1.549,0.476,9.87,-0.0048875557,0.015884556,-0.019550223,0.0,1.5993403,0.4112762,9.666611,-0.03134036,0.025723815,0.27338886,-0.07012749,-0.047140144,-0.93934053,2017-01-14 20:39:45,62.30307706187391
1.591,0.434,9.697,-0.012218889,0.019550223,-0.019550223,0.0,1.5968254,0.4110816,9.667033,-0.045825362,0.017918378,0.049966812,-0.07002128,-0.047068674,-0.9394392,2017-01-14 20:39:46,62.31873996644872
1.584,0.385,9.663,-0.007331333,0.015884556,-0.012218889,0.0,1.59604,0.42263407,9.666666,-0.012040019,-0.037634075,-0.003665924,-0.06977171,-0.04763542,-0.9393237,2017-01-14 20:39:47,63.71685986092955
1.608,0.386,9.617,-0.007331333,0.021994,-0.018328333,0.0,1.5919663,0.42608297,9.667186,-0.06896627,0.020917028,0.05581379,-0.06955214,-0.047678046,-0.939592,2017-01-14 20:39:48,63.27832570336757
1.612,0.416,9.679,-0.012218889,0.019550223,-0.023215888,0.0,1.5957643,0.41542014,9.667025,-0.035764337,0.005579859,0.008975029,-0.069930024,-0.04720965,-0.9396774,2017-01-14 20:39:49,51.45856869913975
1.646,0.423,9.25,-0.009775111,0.015884556,-0.013440778,0.0,1.5845577,0.41308686,9.668966,0.017442346,-0.021086872,0.03303337,-0.069402225,-0.046938427,-0.9395595,2017-01-14 20:39:50,59.13746805635765
1.581,0.394,9.568,-0.008553222,0.018328333,-0.018328333,0.0,1.5911987,0.4202835,9.667566,0.019801259,0.042716503,-0.050566673,-0.06960871,-0.0473913,-0.9395697,2017-01-14 20:39:51,55.148263987066095
1.575,0.43,9.641,-0.007331333,0.02077211,-0.019550223,0.0,1.5958598,0.42009142,9.666806,-0.008859754,0.014908582,-0.033805847,-0.0698183,-0.0474917,-0.93941194,2017-01-14 20:39:52,64.50843479618614
1.619,0.399,9.578,-0.008553222,0.015884556,-0.02077211,0.0,1.5978079,0.41997024,9.66649,0.0051921606,-0.0019702315,0.032510757,-0.0698619,-0.0475974,-0.93903327,2017-01-14 20:39:53,63.862868679333
1.592,0.412,9.559,-0.009775111,0.019550223,-0.015884556,0.0,1.5938727,0.41632992,9.667296,-0.017872691,0.04667008,0.13370323,-0.06972547,-0.047364604,-0.9389998,2017-01-14 20:39:54,60.9877569699193
1.616,0.418,9.627,-0.012218889,0.02077211,-0.023215888,0.0,1.5855858,0.4160614,9.668671,0.02541411,0.0259386,-6.7043304E-4,-0.06935088,-0.047174532,-0.93919426,2017-01-14 20:39:55,60.7688519805764
1.588,0.387,9.651,-0.008553222,0.015884556,-0.018328333,0.0,1.5837445,0.42033046,9.668788,2.554655E-4,0.019669533,-0.024787903,-0.069185264,-0.047354095,-0.9391715,2017-01-14 20:39:56,63.96725549864477
1.584,0.423,9.667,-0.009775111,0.025659667,-0.019550223,0.0,1.5954533,0.40828452,9.667379,0.014546752,-0.004284501,-0.022378922,-0.069923796,-0.047026657,-0.93889195,2017-01-14 20:39:57,60.796485834886475
1.608,0.419,9.637,-0.009775111,0.023215888,-0.018328333,0.0,1.5903138,0.4098759,9.668159,-0.008313775,0.008124113,-0.026158333,-0.06963381,-0.04703441,-0.93881464,2017-01-14 20:39:58,49.4936008877853
1.615,0.39,9.688,-0.0061094444,0.017106444,-0.015884556,0.0,1.5988479,0.41559952,9.666507,-0.0018478632,0.029400468,-0.036506653,-0.069963545,-0.047438733,-0.9388702,2017-01-14 20:39:59,63.06053866187797
1.484,0.411,9.993,-0.010997,0.028103445,-0.023215888,0.0,1.5854337,0.41542676,9.668723,-0.05843377,0.038573235,-0.06572342,-0.069351636,-0.04714518,-0.93917674,2017-01-14 20:40:00,32.08045010626706
1.567,0.445,9.673,-0.0061094444,0.019550223,-0.017106444,0.0,1.5926508,0.4133664,9.667625,3.4928322E-4,0.035633594,-0.04762554,-0.06976341,-0.047131315,-0.93933755,2017-01-14 20:40:01,28.93401683214612
1.586,0.428,9.667,-0.009775111,0.02077211,-0.018328333,0.0,1.5907298,0.41463467,9.667887,0.0022702217,0.0013653338,-0.010887146,-0.069625445,-0.047193605,-0.93918025,2017-01-14 20:40:02,57.0077122571102
1.627,0.417,9.588,-0.010997,0.017106444,-0.015884556,0.0,1.5974549,0.4129196,9.666852,0.0025451183,-0.018919617,-0.040851593,-0.06995812,-0.047260948,-0.9389943,2017-01-14 20:40:03,62.986152206934634
1.55,0.417,9.668,-0.008553222,0.02077211,-0.015884556,0.0,1.5942259,0.41762713,9.667183,-0.04422593,-6.2713027E-4,8.172989E-4,-0.069721445,-0.047431935,-0.93900377,2017-01-14 20:40:04,62.43447859314466
1.586,0.405,9.68,-0.010997,0.023215888,-0.013440778,0.0,1.5945354,0.42393357,9.666857,-0.008535385,-0.018933564,0.013143539,-0.06965304,-0.047706604,-0.9391639,2017-01-14 20:40:05,54.72909001358916
1.599,0.416,9.663,-0.008553222,0.019550223,-0.02077211,0.0,1.5970583,0.422052,9.666523,0.017941713,-0.03205201,0.0154771805,-0.06981294,-0.047651406,-0.939194,2017-01-14 20:40:06,48.091670921028744
1.59,0.409,9.644,-0.013440778,0.018328333,-0.017106444,0.0,1.605291,0.41803563,9.665334,-0.02729106,0.03296438,-0.064333916,-0.07026759,-0.04761936,-0.9390729,2017-01-14 20:40:07,58.4931209956589
1.58,0.409,9.623,-0.009775111,0.019550223,-0.019550223,0.0,1.6017271,0.4176295,9.665942,-0.01672709,0.006370485,0.008057594,-0.07009093,-0.04755374,-0.9390131,2017-01-14 20:40:08,55.457351578008854
1.599,0.397,9.631,-0.009775111,0.012218889,-0.018328333,0.0,1.595976,0.41787153,9.666883,-0.004976034,0.06812847,-8.831024E-4,-0.0698292,-0.047434296,-0.9391862,2017-01-14 20:40:09,62.25432177232626
1.592,0.363,9.224,-0.012218889,0.02077211,-0.017106444,0.0,1.5931346,0.41488278,9.66748,-0.017134666,0.022117227,-0.048480034,-0.06978082,-0.047183778,-0.9394727,2017-01-14 20:40:10,58.31148322336275
1.545,0.404,9.696,-0.007331333,0.018328333,-0.015884556,0.0,1.5889487,0.42158437,9.66788,0.026051283,-0.004584372,-0.04687977,-0.06947515,-0.047418687,-0.93956125,2017-01-14 20:40:11,63.77663959434361
1.575,0.419,9.651,-0.009775111,0.015884556,-0.014662666,0.0,1.5863895,0.4198,9.668378,0.013610482,-0.03280002,0.007621765,-0.06934714,-0.047338314,-0.93933415,2017-01-14 20:40:12,63.603707981983405
1.612,0.419,9.619,-0.0048875557,0.019550223,-0.017106444,0.0,1.5863584,0.42180672,9.668295,0.012641549,0.017193288,0.1577053,-0.06932023,-0.047421947,-0.93939316,2017-01-14 20:40:13,56.90734931253026
1.612,0.397,9.661,-0.008553222,0.02077211,-0.017106444,0.0,1.5864757,0.42345232,9.668204,0.019524217,0.018547684,-0.146204,-0.0692795,-0.047530364,-0.93926173,2017-01-14 20:40:14,57.35956654894785
1.615,0.459,9.694,-0.010997,0.02077211,-0.012218889,0.0,1.5844997,0.41582772,9.6688595,0.039500237,0.012172282,0.2551403,-0.069329,-0.047105,-0.9393882,2017-01-14 20:40:15,55.46873491672625
1.587,0.406,9.663,-0.0061094444,0.015884556,-0.015884556,0.0,1.5966238,0.41982877,9.666692,-6.238222E-4,-0.007828772,-0.029691696,-0.06983593,-0.047527347,-0.93924195,2017-01-14 20:40:16,56.2985630759217
1.581,0.41,9.686,-0.012218889,0.024437778,-0.017106444,0.0,1.5994585,0.41048092,9.666624,-0.0024584532,-0.010480911,-0.029623985,-0.07015095,-0.0470975,-0.93937063,2017-01-14 20:40:17,61.39586657001034
1.585,0.433,9.649,-0.010997,0.018328333,-0.017106444,0.0,1.5934576,0.42046112,9.667186,-0.021457553,0.04953888,0.0018138885,-0.069734514,-0.047410652,-0.9396945,2017-01-14 20:40:18,60.1218560010497
1.569,0.422,9.645,-0.009775111,0.019550223,-0.02077211,0.0,1.5929854,0.4189224,9.667331,-0.0079853535,0.0020776093,-0.040330887,-0.0697233,-0.047349345,-0.9395974,2017-01-14 20:40:19,65.19826642881812
1.585,0.384,9.59,-0.012218889,0.017106444,-0.023215888,0.0,1.5912012,0.41941532,9.6676035,0.057798862,-0.071415335,-0.37660313,-0.06959669,-0.047388893,-0.9393822,2017-01-14 20:40:20,62.109594231796166
1.602,0.417,9.642,-0.0061094444,0.02077211,-0.015884556,0.0,1.5998344,0.42302623,9.666021,-0.008834481,-0.012026221,-0.052021027,-0.06995786,-0.04770722,-0.9393684,2017-01-14 20:40:21,57.91508817429238
1.56,0.405,10.01,-0.007331333,0.023215888,-0.012218889,0.0,1.592955,0.4253851,9.667054,-0.019955039,0.059614927,0.0019454956,-0.0696035,-0.047673732,-0.93952996,2017-01-14 20:40:22,63.52318505541721
1.592,0.418,9.591,-0.009775111,0.019550223,-0.012218889,0.0,1.6005174,0.4201357,9.666034,-0.0085173845,-0.002135694,-0.07503414,-0.070047714,-0.047568217,-0.93942195,2017-01-14 20:40:23,65.53059661911223
1.576,0.424,9.662,-0.009775111,0.018328333,-0.021994,0.0,1.5933012,0.41996917,9.667233,-0.0013011694,-0.01496917,-0.040233612,-0.0696984,-0.047438394,-0.9394377,2017-01-14 20:40:24,61.42620682674785
1.608,0.405,9.649,-0.009775111,0.02077211,-0.013440778,0.0,1.5983127,0.41678604,9.666544,0.005687237,-0.030786037,-0.053544044,-0.06999813,-0.047367565,-0.93943816,2017-01-14 20:40:25,63.63725702735394
1.576,0.443,9.889,-0.0061094444,0.023215888,-0.025659667,0.0,1.5972761,0.41421345,9.666826,0.0047239065,-0.036213458,0.04317379,-0.07001717,-0.04718736,-0.9396255,2017-01-14 20:40:26,63.63860434278707
1.58,0.431,9.657,-0.010997,0.018328333,-0.017106444,0.0,1.599792,0.41062027,9.666563,-0.015792012,-0.003620267,0.0054368973,-0.07021224,-0.047039222,-0.93970376,2017-01-14 20:40:27,60.94621817795129
1.602,0.411,9.722,-0.009775111,0.018328333,-0.012218889,0.0,1.5969948,0.41530183,9.666825,-0.0059947968,0.03769818,0.009174347,-0.070008084,-0.04720095,-0.9397871,2017-01-14 20:40:28,61.62793258875131
1.57,0.403,9.657,-0.0061094444,0.018328333,-0.014662666,0.0,1.5902594,0.41883916,9.667784,-0.02025938,-0.01583916,-0.010784149,-0.06961821,-0.047260314,-0.9397895,2017-01-14 20:40:29,53.88593873227913
1.576,0.409,9.636,-0.009775111,0.019550223,-0.021994,0.0,1.5994945,0.4195572,9.666228,-0.025494456,-0.037557214,0.012771606,-0.07006342,-0.047440715,-0.9398144,2017-01-14 20:40:30,61.82854088805314
1.597,0.445,9.655,-0.008553222,0.017106444,-0.019550223,0.0,1.5959774,0.42257518,9.666678,0.0010225773,0.022424817,-0.011678696,-0.069848634,-0.04751564,-0.9398745,2017-01-14 20:40:31,62.40084470248274
1.598,0.431,9.595,-0.008553222,0.019550223,-0.017106444,0.0,1.5956862,0.41953862,9.666859,-0.019686222,0.0654614,-0.06985855,-0.069883846,-0.047366872,-0.9398648,2017-01-14 20:40:32,58.896005322921845
1.593,0.418,9.597,-0.013440778,0.018328333,-0.019550223,0.0,1.5985472,0.41581586,9.666547,-0.0065472126,-0.016815871,-0.04554653,-0.07006295,-0.047270022,-0.93969744,2017-01-14 20:40:33,60.621520197893375
1.574,0.425,9.538,-0.015884556,0.030547222,-0.017106444,0.0,1.592332,0.40274802,9.668126,0.02366805,-0.02074802,-0.111125946,-0.070003495,-0.046500295,-0.9398845,2017-01-14 20:40:34,63.103903894573826
1.602,0.419,9.337,-0.014662666,0.023215888,-0.015884556,0.0,1.5853552,0.40679875,9.669103,0.0286448,-0.040798753,0.27189732,-0.069554865,-0.046637736,-0.9396142,2017-01-14 20:40:35,61.54788368600164
1.547,0.428,9.644,-0.008553222,0.02077211,-0.014662666,0.0,1.5927302,0.4110297,9.667711,0.009269834,0.037970304,-0.006711006,-0.06985004,-0.046955857,-0.939644,2017-01-14 20:40:36,63.22350516704647
1.587,0.424,9.647,-0.007331333,0.019550223,-0.017106444,0.0,1.5965683,0.420212,9.666684,4.3165684E-4,0.00878799,-0.035684586,-0.06987923,-0.04746771,-0.9396088,2017-01-14 20:40:37,65.1470690436563
1.612,0.376,9.172,-0.007331333,0.019550223,-0.021994,0.0,1.6086267,0.4184666,9.664761,-0.010626674,-0.06746659,-0.19376087,-0.070504665,-0.04757581,-0.9396348,2017-01-14 20:40:38,61.24825659109368
1.556,0.421,9.629,-0.009775111,0.018328333,-0.017106444,0.0,1.5958488,0.41186216,9.667162,0.0011512041,0.010137826,-0.05616188,-0.07002953,-0.046986975,-0.9399279,2017-01-14 20:40:39,26.194601988342463
1.646,0.413,9.639,-0.007331333,0.02077211,-0.02077211,0.0,1.5921745,0.42167398,9.667345,0.053825498,-0.008673996,-0.028345108,-0.069708556,-0.047363546,-0.9400953,2017-01-14 20:40:40,64.83310385112554
1.574,0.422,9.679,-0.009775111,0.015884556,-0.017106444,0.0,1.5989565,0.41614795,9.666466,-0.014956474,-0.01314795,0.0025339127,-0.070078634,-0.047290966,-0.9397056,2017-01-14 20:40:41,61.67043966746155
1.538,0.463,9.441,-0.0061094444,0.018328333,-0.02077211,0.0,1.596579,0.42511398,9.666468,-0.032578945,-0.031113982,-0.35046768,-0.069840886,-0.04763986,-0.93991107,2017-01-14 20:40:42,57.83606462388051
1.594,0.413,9.761,-0.009775111,0.017106444,-0.019550223,0.0,1.5964565,0.42218003,9.666616,-0.0024565458,-0.009180039,0.09438324,-0.069882646,-0.047498804,-0.93990135,2017-01-14 20:40:43,65.62523087039264
1.584,0.387,9.657,-0.007331333,0.021994,-0.018328333,0.0,1.596198,0.41561013,9.666944,-0.00919795,0.04538986,-0.023943901,-0.06993224,-0.04724944,-0.9395657,2017-01-14 20:40:44,61.79995997203417
1.598,0.411,9.642,-0.0048875557,0.021994,-0.017106444,0.0,1.5952824,0.40469125,9.667559,-0.002282381,0.002308756,-0.15155888,-0.070068695,-0.046712752,-0.9395499,2017-01-14 20:40:45,65.03715772112957
1.582,0.416,9.609,-0.007331333,0.015884556,-0.015884556,0.0,1.6009814,0.4166321,9.666109,0.011018634,-0.058632076,-0.109108925,-0.070147224,-0.04738112,-0.9395462,2017-01-14 20:40:46,65.32201518780334
1.524,0.418,9.785,-0.008553222,0.018328333,-0.02077211,0.0,1.5939451,0.41164216,9.667485,-0.039945126,0.023357838,0.0065145493,-0.06986604,-0.047054823,-0.93940836,2017-01-14 20:40:47,66.0597507499342
1.622,0.436,9.648,-0.0061094444,0.024437778,-0.017106444,0.0,1.5888141,0.41561893,9.66816,0.004185915,0.01138106,0.010839462,-0.069550395,-0.04715692,-0.93943113,2017-01-14 20:40:48,58.43975627598301
1.614,0.41,9.615,-0.009775111,0.019550223,-0.02077211,0.0,1.5892291,0.41775206,9.668,0.024770856,-0.007752061,-0.05300045,-0.06952035,-0.047287613,-0.93932915,2017-01-14 20:40:49,49.95430701271118
1.594,0.421,9.645,-0.007331333,0.017106444,-0.023215888,0.0,1.5978081,0.41853046,9.666553,-0.013808131,0.009469539,-0.021552086,-0.06988448,-0.047530767,-0.93902117,2017-01-14 20:40:50,61.84131996205083
1.612,0.413,9.687,-0.012218889,0.015884556,-0.014662666,0.0,1.5944169,0.4209656,9.6670065,0.0045831203,0.019034386,-0.007006645,-0.06968314,-0.047582738,-0.93906486,2017-01-14 20:40:51,64.77362032103062
1.551,0.421,9.642,-0.009775111,0.02077211,-0.02077211,0.0,1.5881171,0.41657883,9.668233,-0.021117091,0.0074211657,0.0017671585,-0.069457844,-0.047253646,-0.93913406,2017-01-14 20:40:52,41.650731241569254
1.588,0.38,9.649,-0.010997,0.018328333,-0.023215888,0.0,1.5904534,0.42004672,9.6677,-0.023453355,0.031953275,-0.02670002,-0.06953492,-0.047428116,-0.93928105,2017-01-14 20:40:53,62.31939712061954
1.575,0.437,9.546,-0.008553222,0.018328333,-0.018328333,0.0,1.5944065,0.414313,9.667295,0.05859351,0.0096870065,-0.3402958,-0.06980393,-0.04724962,-0.93912816,2017-01-14 20:40:55,62.73929472854477
1.592,0.387,9.65,-0.010997,0.023215888,-0.018328333,0.0,1.5916128,0.41089907,9.667902,3.8719177E-4,-0.023899078,-0.017902374,-0.0697217,-0.047043603,-0.9391086,2017-01-14 20:40:56,62.91019819560404
1.606,0.398,9.626,-0.009775111,0.02077211,-0.021994,0.0,1.5907457,0.41620925,9.667817,-0.03974569,0.017790735,-0.016817093,-0.06959778,-0.047272295,-0.93916714,2017-01-14 20:40:57,64.26998390809229
1.605,0.385,9.327,-0.009775111,0.019550223,-0.015884556,0.0,1.5940723,0.4151926,9.667313,-0.0070723295,0.0428074,-0.0063123703,-0.06977281,-0.047286205,-0.93912894,2017-01-14 20:40:58,58.579611482413355
1.615,0.4,9.769,-0.009775111,0.018328333,-0.024437778,0.0,1.5893288,0.41980934,9.667894,0.025671244,-0.019809335,0.10110569,-0.06946587,-0.04742434,-0.9391558,2017-01-14 20:40:59,58.080091848311724
1.591,0.407,9.654,-0.0036656666,0.018328333,-0.023215888,0.0,1.5843457,0.41905588,9.668744,-0.008345723,0.03394413,-0.043744087,-0.06925524,-0.04727495,-0.9393052,2017-01-14 20:41:00,66.44641422939218
1.557,0.379,9.711,-0.014662666,0.019550223,-0.018328333,0.0,1.5884424,0.41228625,9.668364,-0.031442404,-0.033286244,0.04263687,-0.06954551,-0.04705386,-0.93912864,2017-01-14 20:41:01,57.814168787061526
1.568,0.433,9.663,-0.013440778,0.02077211,-0.021994,0.0,1.586715,0.41301325,9.668616,-0.022714972,-0.0060132444,-0.04561615,-0.06946279,-0.047039166,-0.9392301,2017-01-14 20:41:02,49.685361740934056
1.586,0.388,9.658,-0.009775111,0.023215888,-0.019550223,0.0,1.5801413,0.41506973,9.669605,0.012858748,-0.0020697415,-0.022604942,-0.069131546,-0.046991426,-0.9394145,2017-01-14 20:41:03,55.212871756586274
1.581,0.415,9.664,-0.007331333,0.02077211,-0.012218889,0.0,1.5876468,0.41890967,9.66821,-0.015646815,0.009090334,-0.026209831,-0.06942554,-0.04731375,-0.93934584,2017-01-14 20:41:04,63.3169994855527
1.647,0.38,9.369,-0.007331333,0.02077211,-0.018328333,0.0,1.6050457,0.42181525,9.66521,0.0029543638,-0.03481525,-0.36720943,-0.07020805,-0.047773033,-0.9391864,2017-01-14 20:41:05,59.721053267137606
1.581,0.417,9.593,-0.009775111,0.02077211,-0.019550223,0.0,1.5897952,0.42157397,9.667741,0.024204731,-0.005573958,0.025259018,-0.06943917,-0.04754579,-0.9390169,2017-01-14 20:41:06,32.443493715413055
1.594,0.425,9.657,-0.009775111,0.018328333,-0.015884556,0.0,1.5965385,0.42407495,9.66652,-0.0025385618,-0.00107494,-0.028520584,-0.06968094,-0.047845658,-0.9386889,2017-01-14 20:41:07,64.24666732910248
1.591,0.413,9.62,-0.010997,0.014662666,-0.024437778,0.0,1.603294,0.42211413,9.665488,-0.03429401,-0.015114129,-0.048488617,-0.070058994,-0.047843605,-0.9387821,2017-01-14 20:41:08,61.045364786419995
1.631,0.449,9.668,-0.009775111,0.018328333,-0.014662666,0.0,1.600619,0.42048803,9.666002,-0.007618904,-0.010488033,-0.11800194,-0.06994859,-0.047731027,-0.93873566,2017-01-14 20:41:09,30.60499013660653
1.56,0.418,9.629,-0.012218889,0.018328333,-0.013440778,0.0,1.5895709,0.42150107,9.667781,-0.021570921,-0.0045010746,-0.0037813187,-0.06941112,-0.047565274,-0.9388886,2017-01-14 20:41:10,63.44988541139905
1.572,0.366,9.667,-0.007331333,0.017106444,-0.018328333,0.0,1.5974287,0.41937894,9.666577,-0.03942871,0.014621049,0.099422455,-0.06982392,-0.0476058,-0.9388276,2017-01-14 20:41:11,66.8605990053716
1.611,0.402,9.672,-0.009775111,0.02077211,-0.02077211,0.0,1.5979476,0.42027304,9.666453,0.013052344,-0.018273026,0.00554657,-0.06983318,-0.047658905,-0.93882006,2017-01-14 20:41:12,63.44828508441594
1.624,0.411,9.656,-0.014662666,0.017106444,-0.017106444,0.0,1.5898114,0.41583538,9.667986,-0.034811497,-0.022835374,0.06001377,-0.06949345,-0.04733418,-0.9387101,2017-01-14 20:41:13,59.69126615981303
1.587,0.433,9.672,-0.007331333,0.019550223,-0.017106444,0.0,1.5844537,0.41705167,9.668814,-0.010453701,0.01094833,-0.018814087,-0.06921615,-0.047295038,-0.9387531,2017-01-14 20:41:14,51.48260643153415
1.58,0.437,9.827,-0.007331333,0.021994,-0.021994,0.0,1.5888278,0.41785187,9.668061,-0.009827852,-0.01785186,0.1889391,-0.069361895,-0.047486637,-0.9383634,2017-01-14 20:41:15,66.20278760546319
1.594,0.463,9.661,-0.0012218889,0.02077211,-0.015884556,0.0,1.5875353,0.4205039,9.668159,0.00646472,0.042496085,-0.0071582794,-0.06926241,-0.047579516,-0.9384264,2017-01-14 20:41:16,61.981054374636315
1.567,0.393,9.62,-0.010997,0.023215888,-0.015884556,0.0,1.5964462,0.41155198,9.667077,-0.008446097,0.028448015,-0.019077301,-0.0698266,-0.04733404,-0.93825024,2017-01-14 20:41:17,65.9085738310945
1.605,0.467,9.638,-0.010997,0.014662666,-0.014662666,0.0,1.5969106,0.42052767,9.666614,0.005089402,-0.0115276575,-0.03461361,-0.06969688,-0.047772568,-0.9382511,2017-01-14 20:41:18,62.235404243148295
1.586,0.41,9.637,-0.012218889,0.021994,-0.017106444,0.0,1.5921209,0.417935,9.667516,-0.019120932,-0.026935011,-0.04351616,-0.06951808,-0.047550965,-0.93833596,2017-01-14 20:41:19,59.73809451268331
1.58,0.453,9.783,-0.0061094444,0.02077211,-0.017106444,0.0,1.5771961,0.4153227,9.670074,-0.028196096,0.017677307,0.1579256,-0.0688416,-0.047161847,-0.93841296,2017-01-14 20:41:20,62.88346276292632
1.614,0.4,9.691,-0.008553222,0.019550223,-0.019550223,0.0,1.5913243,0.41438305,9.6678,-0.042324305,-0.011383057,0.005200386,-0.06954298,-0.047361895,-0.9383614,2017-01-14 20:41:21,34.36508870157194
1.548,0.393,9.932,-0.012218889,0.017106444,-0.023215888,0.0,1.5919708,0.41774237,9.667549,-0.059970856,0.03725764,-0.14754868,-0.06953129,-0.04751393,-0.93845785,2017-01-14 20:41:22,55.28331545423666
1.552,0.407,9.623,-0.009775111,0.02077211,-0.018328333,0.0,1.5950876,0.4128824,9.667244,-0.0069793463,0.013732761,-0.018245697,-0.06978189,-0.04730973,-0.93856555,2017-01-14 20:41:23,62.99107388773226
1.587,0.424,9.673,-0.009775111,0.018328333,-0.018328333,0.0,1.591492,0.41345602,9.667812,-0.022492051,-0.010456026,0.09018803,-0.06961984,-0.047242336,-0.9387357,2017-01-14 20:41:24,65.31634881097938
1.569,0.434,9.702,-0.010997,0.024437778,-0.017106444,0.0,1.5879195,0.41130388,9.668492,-0.018919468,0.022696108,0.033507347,-0.069502175,-0.047048658,-0.93888575,2017-01-14 20:41:25,63.897878811618924
1.586,0.41,9.62,-0.008553222,0.02077211,-0.024437778,0.0,1.5883378,0.4172044,9.66817,-0.0013377666,-0.0062043965,0.028829575,-0.06946852,-0.047272056,-0.9392074,2017-01-14 20:41:26,64.11327604007806
1.598,0.403,9.583,-0.010997,0.018328333,-0.017106444,0.0,1.5944257,0.4182528,9.667123,0.011574268,-0.011252791,-0.07712269,-0.0697398,-0.047437176,-0.9391382,2017-01-14 20:41:27,60.23250683369186
1.55,0.469,9.806,-0.0036656666,0.02077211,-0.019550223,0.0,1.5954345,0.42748806,9.666552,0.045565486,0.01551193,0.045448303,-0.06961319,-0.04792719,-0.93899673,2017-01-14 20:41:28,59.62047260421397
1.579,0.423,9.728,-0.008553222,0.017106444,-0.013440778,0.0,1.5998574,0.42150912,9.666083,0.047142506,-0.010509104,0.10891628,-0.069894165,-0.047767162,-0.9387373,2017-01-14 20:41:29,64.90525644292178
1.579,0.429,9.597,-0.013440778,0.018328333,-0.013440778,0.0,1.6008757,0.41248983,9.666305,0.008124232,-0.0034898221,-0.018304825,-0.07012159,-0.04731402,-0.9389118,2017-01-14 20:41:30,64.52395088202094
1.604,0.399,9.58,-0.0061094444,0.026881555,-0.023215888,0.0,1.5964309,0.42342815,9.666567,-0.005430937,-0.011428148,-0.0235672,-0.06969458,-0.047801174,-0.9387447,2017-01-14 20:41:31,64.73827887902488
1.526,0.453,9.845,-0.007331333,0.013440778,-0.014662666,0.0,1.5913106,0.4186294,9.66762,-0.006310582,0.006370604,0.17038059,-0.06949585,-0.047528055,-0.9385423,2017-01-14 20:41:32,50.072219708870584
1.56,0.4,9.656,-0.0061094444,0.017106444,-0.018328333,0.0,1.5873554,0.42172557,9.668136,0.014644623,-0.012725562,-0.08413601,-0.06928163,-0.04756421,-0.93876934,2017-01-14 20:41:33,62.939531371637464
1.564,0.416,9.62,-0.010997,0.019550223,-0.023215888,0.0,1.5942233,0.42194143,9.666996,-0.03022325,-0.005941421,-0.046996117,-0.06963076,-0.047665015,-0.9388802,2017-01-14 20:41:34,58.079608150966635
1.556,0.409,9.614,-0.013440778,0.018328333,-0.018328333,0.0,1.5900313,0.42119506,9.667719,-0.0030312538,0.011804938,-0.05871868,-0.06946511,-0.04751984,-0.9390727,2017-01-14 20:41:35,60.7037870038011
1.567,0.412,9.718,-0.010997,0.019550223,-0.018328333,0.0,1.5911962,0.41034228,9.667994,0.0078037977,0.014657736,0.011006355,-0.06968847,-0.04704286,-0.9389514,2017-01-14 20:41:36,54.20309350861943
1.594,0.419,9.644,-0.007331333,0.015884556,-0.018328333,0.0,1.5936877,0.41001448,9.667598,-0.0026876926,0.011985511,-0.0035982132,-0.069830276,-0.047047436,-0.9390506,2017-01-14 20:41:37,60.292008057557894
1.602,0.431,9.661,-0.010997,0.017106444,-0.018328333,0.0,1.5937599,0.41166517,9.667515,0.011240125,-0.004665166,0.023485184,-0.06980247,-0.04713307,-0.9390262,2017-01-14 20:41:38,63.41888433189762
1.594,0.543,9.919,-0.018328333,0.03176911,-0.015884556,0.0,1.5858456,0.41292292,9.668763,0.008154392,0.13007706,0.2502365,-0.06942768,-0.04701162,-0.93927264,2017-01-14 20:41:39,61.447142579779225
1.58,0.427,9.658,-0.010997,0.015884556,-0.013440778,0.0,1.5969319,0.41102594,9.667019,6.8068504E-5,-0.018025935,-0.0010185242,-0.069984786,-0.04713115,-0.93913794,2017-01-14 20:41:40,64.60155369986543
1.581,0.392,9.656,-0.010997,0.015884556,-0.019550223,0.0,1.6047082,0.41263133,9.665663,-0.023708224,-0.020631343,-0.009662628,-0.07034658,-0.04732568,-0.93918824,2017-01-14 20:41:41,63.324351614664735
1.604,0.407,9.631,-0.008553222,0.023215888,-0.017106444,0.0,1.5926118,0.41802394,9.667432,-0.01461184,0.02297607,-0.020431519,-0.06965722,-0.047392488,-0.9391564,2017-01-14 20:41:42,60.60531393203611
1.551,0.431,9.635,-0.008553222,0.015884556,-0.015884556,0.0,1.5904322,0.4228305,9.667582,-0.00843215,-0.009830505,-0.02458191,-0.06949443,-0.047550652,-0.93933326,2017-01-14 20:41:43,58.139967642495876
1.578,0.435,9.716,-0.012218889,0.021994,-0.023215888,0.0,1.5823681,0.42013714,9.669023,0.0056319237,-0.0031371415,0.045977592,-0.069089524,-0.047368024,-0.93895006,2017-01-14 20:41:44,58.780612512173434
1.6,0.439,9.639,-0.009775111,0.024437778,-0.014662666,0.0,1.5842073,0.42199925,9.66864,0.002792716,-0.016999245,-0.025640488,-0.06913864,-0.0475019,-0.93888235,2017-01-14 20:41:45,64.78022632252716
1.629,0.467,9.602,-0.009775111,0.023215888,-0.02077211,0.0,1.5746629,0.42684454,9.669986,0.027337074,0.02015546,0.23501396,-0.0686023,-0.047556918,-0.93897957,2017-01-14 20:41:46,63.839321459599546
1.596,0.442,9.651,-0.010997,0.017106444,-0.018328333,0.0,1.589113,0.42325073,9.66778,-0.010113001,0.015749276,-0.041779518,-0.06929374,-0.047736734,-0.9384305,2017-01-14 20:41:47,59.39675383221808
1.614,0.445,9.632,-0.007331333,0.018328333,-0.017106444,0.0,1.603836,0.4282005,9.66513,0.002163887,-0.009200513,-0.021129608,-0.06986189,-0.048320025,-0.9379433,2017-01-14 20:41:48,62.725301159393624
1.57,0.413,9.648,-0.010997,0.026881555,-0.017106444,0.0,1.6049396,0.41611287,9.665475,-0.0019395351,-0.0061128736,-0.06447506,-0.070112474,-0.04777209,-0.9378763,2017-01-14 20:41:49,56.46663051543516
1.586,0.422,9.675,-0.012218889,0.021994,-0.021994,0.0,1.5983019,0.41300815,9.666708,-0.010301828,0.035991848,-0.041707993,-0.0698774,-0.04745752,-0.938141,2017-01-14 20:41:50,64.51611395353005
1.591,0.455,9.636,-0.008553222,0.025659667,-0.015884556,0.0,1.5973953,0.42093828,9.666515,-0.0103952885,-0.0029382706,-0.017515182,-0.06972111,-0.04778948,-0.9383033,2017-01-14 20:41:51,54.473834577281
1.609,0.411,9.68,-0.010997,0.025659667,-0.019550223,0.0,1.5873291,0.42270356,9.668097,-0.006329179,-0.016703576,0.09490299,-0.069267236,-0.047605734,-0.93879354,2017-01-14 20:41:52,60.927904299199014
1.6,0.409,9.594,-0.008553222,0.02077211,-0.017106444,0.0,1.583397,0.42173544,9.668783,0.033602953,-0.012735426,-0.041783333,-0.06907724,-0.047513813,-0.93869865,2017-01-14 20:41:53,57.46550463356881
1.602,0.501,9.922,-0.013440778,0.023215888,-0.021994,0.0,1.5900475,0.41937375,9.667794,0.011952519,-0.002373755,-0.056794167,-0.06939984,-0.04757414,-0.93839145,2017-01-14 20:41:54,63.08219908134795
1.585,0.415,9.641,-0.009775111,0.015884556,-0.015884556,0.0,1.5956964,0.4118458,9.667188,0.010303497,-0.0278458,-0.0071878433,-0.06982691,-0.047273606,-0.9385484,2017-01-14 20:41:55,52.89389254386428
1.591,0.447,9.68,-0.0048875557,0.021994,-0.018328333,0.0,1.596105,0.41558856,9.66696,-0.009104967,-0.0025885701,-0.016960144,-0.069809,-0.047422588,-0.9387283,2017-01-14 20:41:56,57.09002902601916
1.558,0.422,9.636,-0.013440778,0.019550223,-0.018328333,0.0,1.5937704,0.41494215,9.667374,0.008229613,0.021057844,0.002626419,-0.06974195,-0.04729909,-0.9389862,2017-01-14 20:41:57,60.67076259398476
1.614,0.455,9.662,-0.010997,0.02077211,-0.015884556,0.0,1.5992432,0.4198265,9.666259,-0.023243189,0.0081734955,-0.017258644,-0.069904044,-0.047659256,-0.9388181,2017-01-14 20:41:58,59.96314250381141
1.578,0.446,9.633,-0.009775111,0.015884556,-0.018328333,0.0,1.5970085,0.4186099,9.66668,-0.019008517,0.027390122,-0.033679962,-0.0698265,-0.04754695,-0.93889916,2017-01-14 20:41:59,64.21287278649905
1.568,0.388,9.845,-0.007331333,0.017106444,-0.014662666,0.0,1.6003684,0.41615972,9.666231,-0.034368396,-0.019159704,0.03576851,-0.06999538,-0.04753984,-0.9386359,2017-01-14 20:42:00,61.32884987324264
1.576,0.433,9.704,-0.008553222,0.018328333,-0.017106444,0.0,1.6018984,0.4192042,9.665847,-0.025898457,0.013795793,0.03815365,-0.070056126,-0.047656685,-0.9388968,2017-01-14 20:42:01,54.58653903905499
1.608,0.441,9.783,-0.009775111,0.019550223,-0.018328333,0.0,1.5999966,0.41078526,9.666522,0.0830034,-0.03478527,-0.6825218,-0.07011345,-0.047208417,-0.9389556,2017-01-14 20:42:02,55.57430538281838
1.591,0.386,9.618,-0.007331333,0.021994,-0.019550223,0.0,1.5901587,0.41605505,9.66792,-0.02615869,0.0079449415,-0.050920486,-0.06954745,-0.047290705,-0.9389971,2017-01-14 20:42:03,66.01790026286315
1.552,0.385,9.676,-0.010997,0.018328333,-0.012218889,0.0,1.603523,0.42009616,9.665538,-0.010522962,-0.0040961504,-0.02153778,-0.07011046,-0.04774151,-0.9388246,2017-01-14 20:42:04,60.66807294478202
1.563,0.419,9.714,-0.009775111,0.017106444,-0.018328333,0.0,1.6007371,0.41707987,9.66613,-0.043737054,-0.030079871,-0.017129898,-0.07001689,-0.047562163,-0.93876946,2017-01-14 20:42:05,56.678536776934436
1.625,0.429,9.59,-0.008553222,0.017106444,-0.019550223,0.0,1.5956213,0.414516,9.667087,0.029378653,0.014483988,-0.07708645,-0.069799155,-0.047369376,-0.93869805,2017-01-14 20:42:06,49.080075477966574
1.604,0.402,9.652,-0.010997,0.018328333,-0.02077211,0.0,1.6069973,0.41143754,9.665333,-0.0039972067,-0.012437552,-0.03933239,-0.070466824,-0.04732425,-0.9391017,2017-01-14 20:42:07,37.58167907762258
1.606,0.391,9.479,-0.009775111,0.017106444,-0.013440778,0.0,1.5983368,0.4093102,9.66686,-0.02633679,-0.017310202,0.042140007,-0.070064195,-0.047099367,-0.939007,2017-01-14 20:42:08,59.298949239996176
1.581,0.513,9.633,-0.009775111,0.015884556,-0.021994,0.0,1.5954845,0.4107029,9.667272,0.020515561,-0.010702908,-0.0012712479,-0.06991011,-0.047105275,-0.93907374,2017-01-14 20:42:09,51.20772248368488
1.631,0.422,9.631,-0.007331333,0.017106444,-0.009775111,0.0,1.5885999,0.41614497,9.668172,-0.03159988,0.05385503,0.1108284,-0.069508,-0.047212593,-0.93926895,2017-01-14 20:42:10,57.068380645567736
1.575,0.44,9.651,-0.012218889,0.023215888,-0.024437778,0.0,1.5941495,0.41761905,9.667195,-0.004149437,0.015380949,-0.041194916,-0.06975963,-0.047368787,-0.9392974,2017-01-14 20:42:11,60.86164759002463
1.586,0.405,9.656,-0.010997,0.019550223,-0.018328333,0.0,1.5917461,0.41369003,9.66776,0.027253866,-0.017690033,0.0072402954,-0.069697894,-0.04715513,-0.93922716,2017-01-14 20:42:12,41.59392974208882
1.596,0.451,9.629,-0.0061094444,0.018328333,-0.023215888,0.0,1.5960736,0.41638502,9.666931,-0.033073664,-0.0013850331,-0.01593113,-0.06988067,-0.047332577,-0.939338,2017-01-14 20:42:13,55.292082841832624
1.593,0.48,9.839,-0.015884556,0.023215888,-0.017106444,0.0,1.5878069,0.4211942,9.668084,-0.044806957,0.054805815,0.39491558,-0.069380075,-0.047447905,-0.93924177,2017-01-14 20:42:14,58.10226731665878
1.587,0.422,9.625,-0.012218889,0.019550223,-0.018328333,0.0,1.5930547,0.4197557,9.667283,-0.0020546913,0.011244297,-0.019283295,-0.06963845,-0.047499575,-0.93907714,2017-01-14 20:42:15,60.39397944186437
1.588,0.396,9.644,-0.010997,0.019550223,-0.019550223,0.0,1.6016303,0.4189312,9.665902,-0.0016303062,-0.00893119,-0.007902145,-0.070057735,-0.0476242,-0.93896794,2017-01-14 20:42:16,63.37111822677552
1.621,0.412,9.59,-0.007331333,0.018328333,-0.018328333,0.0,1.592679,0.41569012,9.667521,0.023321033,0.00530988,-0.17152119,-0.06973154,-0.047234755,-0.93937916,2017-01-14 20:42:17,56.503751998936984
1.592,0.404,9.681,-0.012218889,0.02077211,-0.023215888,0.0,1.5917968,0.40849042,9.6679735,0.002203226,-0.0014904141,-0.23197365,-0.0698238,-0.04685288,-0.93948036,2017-01-14 20:42:18,63.624855173657274
1.6,0.381,9.624,-0.007331333,0.018328333,-0.019550223,0.0,1.5883417,0.41183883,9.6684,0.022658229,-0.0068388283,-0.031399727,-0.069611736,-0.04693647,-0.9395789,2017-01-14 20:42:19,61.29123055828341
1.562,0.442,9.624,-0.010997,0.02077211,-0.017106444,0.0,1.5875854,0.4132815,9.668462,-0.008585453,-0.015281498,0.09153843,-0.0695823,-0.046946112,-0.9398044,2017-01-14 20:42:20,61.1233202987087
1.579,0.435,9.69,-0.008553222,0.02077211,-0.018328333,0.0,1.5916853,0.42898858,9.667104,0.007314682,-0.009988576,0.024896622,-0.06950045,-0.047797255,-0.93966776,2017-01-14 20:42:21,64.3669055665415
1.612,0.446,9.435,-0.008553222,0.017106444,-0.015884556,0.0,1.5895725,0.41800427,9.667932,0.021427393,0.011995733,-0.046931267,-0.06952191,-0.047321614,-0.93925154,2017-01-14 20:42:22,65.61918398702129
1.624,0.431,9.633,-0.009775111,0.021994,-0.018328333,0.0,1.5998648,0.41646078,9.666301,0.006135106,0.023539215,-0.070301056,-0.07008087,-0.04737586,-0.93944544,2017-01-14 20:42:23,62.977637156713925
1.597,0.418,9.588,-0.013440778,0.02077211,-0.018328333,0.0,1.5956547,0.4065393,9.667419,0.0013452768,-0.014539301,-0.053419113,-0.0700448,-0.046824295,-0.93947136,2017-01-14 20:42:24,52.928348015144365
1.555,0.451,9.62,-0.009775111,0.021994,-0.021994,0.0,1.5937024,0.41257274,9.667486,-0.038702488,0.017427266,-0.047486305,-0.0698803,-0.04703345,-0.93970346,2017-01-14 20:42:25,62.997774189436775
1.57,0.39,9.643,-0.0061094444,0.018328333,-0.017106444,0.0,1.5965143,0.42107666,9.666656,0.005485654,-0.011076659,-0.036655426,-0.06985801,-0.04751433,-0.9395806,2017-01-14 20:42:26,67.1764667797403
1.585,0.424,9.652,-0.008553222,0.021994,-0.015884556,0.0,1.5900521,0.42118967,9.667716,0.020947814,-0.009189665,-0.10871601,-0.06953648,-0.04741708,-0.9395648,2017-01-14 20:42:27,59.53915894844033
1.563,0.394,9.599,-0.0048875557,0.018328333,-0.026881555,0.0,1.5809113,0.41747528,9.669375,0.035088778,-0.03347528,-0.47537518,-0.06915431,-0.04708231,-0.9395942,2017-01-14 20:42:28,61.521555321061015
1.554,0.399,9.636,-0.012218889,0.017106444,-0.02077211,0.0,1.5841814,0.4181387,9.668811,0.0058186054,0.0038612783,-0.032811165,-0.06930488,-0.047166172,-0.93960243,2017-01-14 20:42:29,61.096142805601794
1.532,0.424,10.04,-0.009775111,0.017106444,-0.017106444,0.0,1.5965936,0.41369757,9.666961,0.04940641,0.010302424,-0.320961,-0.06998973,-0.04715521,-0.93960726,2017-01-14 20:42:30,63.48614373552539
1.556,0.457,9.608,-0.008553222,0.015884556,-0.021994,0.0,1.5909715,0.41190055,9.667965,0.066028476,-0.02690056,-0.15096474,-0.06975707,-0.046956975,-0.93970066,2017-01-14 20:42:31,57.91825656812887
1.597,0.376,9.654,-0.009775111,0.018328333,-0.023215888,0.0,1.5870855,0.41627294,9.668415,-0.031085491,-0.006272942,-0.014414787,-0.06949577,-0.047099143,-0.93972164,2017-01-14 20:42:32,65.36170895244122
1.584,0.384,9.662,-0.010997,0.021994,-0.017106444,0.0,1.5915674,0.4133725,9.667804,-0.0045673847,-0.008372486,0.16619587,-0.06973798,-0.04707256,-0.939534,2017-01-14 20:42:33,60.56926748175925
1.594,0.393,9.624,-0.008553222,0.018328333,-0.017106444,0.0,1.5929775,0.40577492,9.667892,-9.775162E-4,0.035225093,-8.9263916E-4,-0.069909304,-0.0467689,-0.93935114,2017-01-14 20:42:34,54.270379532787345
1.57,0.392,9.674,-0.010997,0.018328333,-0.019550223,0.0,1.5930622,0.41177127,9.667625,-0.02306211,-0.019771278,0.006374359,-0.06981895,-0.047048833,-0.93939734,2017-01-14 20:42:35,53.48318968945463
1.6,0.442,9.633,-0.013440778,0.021994,-0.015884556,0.0,1.5906613,0.41332743,9.667954,0.0093387365,0.028672576,-0.03495407,-0.06967435,-0.047084972,-0.93939364,2017-01-14 20:42:36,58.64127853269806
1.567,0.445,9.661,-0.010997,0.019550223,-0.017106444,0.0,1.595369,0.41333485,9.667178,-0.027369022,-0.001334846,-0.004178047,-0.069869325,-0.047216017,-0.9391398,2017-01-14 20:42:37,56.909925258217115
1.581,0.447,9.667,-0.007331333,0.014662666,-0.02077211,0.0,1.6019171,0.42201367,9.66572,0.01708281,0.02398634,-0.022720337,-0.07004679,-0.047737397,-0.93915653,2017-01-14 20:42:38,62.015015442570146
1.593,0.436,9.652,-0.007331333,0.023215888,-0.018328333,0.0,1.5914803,0.4190465,9.667573,-0.003480196,-0.02104649,-0.016572952,-0.06959069,-0.047413815,-0.93920034,2017-01-14 20:42:39,60.475628130352376
1.585,0.382,9.584,-0.010997,0.019550223,-0.019550223,0.0,1.589751,0.4197848,9.667827,0.026249051,-0.0067848265,-0.0238266,-0.06949811,-0.047413863,-0.9392336,2017-01-14 20:42:40,57.57035601136856
1.61,0.46,9.728,-0.009775111,0.019550223,-0.02077211,0.0,1.5952319,0.41903517,9.666956,-0.016231894,-0.023035169,0.03204441,-0.06973369,-0.04753576,-0.9389101,2017-01-14 20:42:41,28.651083141389392
1.597,0.407,9.638,-0.010997,0.019550223,-0.014662666,0.0,1.595313,0.40778187,9.667423,-0.021312952,0.016218126,-0.048422813,-0.069938086,-0.046981327,-0.93898195,2017-01-14 20:42:42,64.25234420632216
1.602,0.422,9.618,-0.007331333,0.019550223,-0.02077211,0.0,1.6050961,0.41823086,9.665358,-0.024096131,-0.051230848,-0.008358002,-0.07024074,-0.047646146,-0.93897516,2017-01-14 20:42:43,64.81751274964395
1.588,0.397,9.614,-0.010997,0.021994,-0.02077211,0.0,1.5907466,0.4165032,9.667804,-0.011746645,0.018496811,-0.04080391,-0.069583245,-0.047300603,-0.9390993,2017-01-14 20:42:44,62.997485503242466
1.606,0.404,9.638,-0.012218889,0.02077211,-0.018328333,0.0,1.5986098,0.41920206,9.66639,0.0073901415,-0.015202045,-0.028390884,-0.06991609,-0.04757096,-0.9390464,2017-01-14 20:42:45,58.20196957483722
1.587,0.397,9.582,-0.012218889,0.026881555,-0.017106444,0.0,1.5902219,0.413794,9.668007,0.031778097,0.010205984,-6.67572E-6,-0.06958931,-0.047182307,-0.93900084,2017-01-14 20:42:46,27.51752216466791
1.578,0.382,9.503,-0.009775111,0.023215888,-0.023215888,0.0,1.5888519,0.42071763,9.667933,0.03014803,-0.05771762,-0.11593342,-0.06940862,-0.047487233,-0.9390257,2017-01-14 20:42:47,53.98582790745333
1.567,0.442,9.71,-0.007331333,0.015884556,-0.02077211,0.0,1.5912228,0.42467022,9.667371,0.019777179,-0.009670228,0.06762886,-0.0694657,-0.047705367,-0.93907803,2017-01-14 20:42:48,62.768530775708214
1.578,0.385,9.661,-0.0036656666,0.02077211,-0.015884556,0.0,1.5922352,0.41185266,9.667758,0.038764834,1.4734268E-4,0.013241768,-0.069728374,-0.047111183,-0.93905365,2017-01-14 20:42:49,61.914187125133054
1.573,0.393,9.708,-0.009775111,0.02077211,-0.017106444,0.0,1.5941907,0.4101233,9.667509,-0.0031907558,-0.008123279,-0.022508621,-0.06985387,-0.047059853,-0.9390558,2017-01-14 20:42:50,63.8653635039408
1.582,0.378,9.637,-0.012218889,0.019550223,-0.024437778,0.0,1.5894356,0.41637105,9.668026,-0.010435581,0.0056289434,-0.030026436,-0.06958261,-0.047182098,-0.9395323,2017-01-14 20:42:51,61.62057130368296
1.517,0.442,9.955,-0.009775111,0.023215888,-0.021994,0.0,1.5840622,0.4185303,9.668814,0.0059378147,0.1054697,0.13118649,-0.06928294,-0.047196973,-0.93953574,2017-01-14 20:42:52,49.09099959489508
1.57,0.407,9.613,-0.010997,0.021994,-0.019550223,0.0,1.5927866,0.41287646,9.6676235,-0.022786498,-0.0058764517,-0.054623604,-0.069815226,-0.047055285,-0.9395979,2017-01-14 20:42:53,61.56016265491549
1.619,0.436,9.602,-0.010997,0.021994,-0.02077211,0.0,1.5920523,0.41666836,9.6675825,-0.0040522814,0.032331645,0.059417725,-0.0697057,-0.047239933,-0.9395295,2017-01-14 20:42:54,56.303115524206476
1.587,0.411,9.682,-0.009775111,0.02077211,-0.017106444,0.0,1.59039,0.40616092,9.668303,0.011610031,0.008839071,-0.032302856,-0.06980734,-0.046697773,-0.93957555,2017-01-14 20:42:55,58.100287410296346
1.558,0.423,9.674,-0.009775111,0.019550223,-0.024437778,0.0,1.5885509,0.41311663,9.668311,-0.030550957,0.0048833787,-0.012310982,-0.0696187,-0.046974406,-0.9397072,2017-01-14 20:42:56,57.05064029330927
1.576,0.418,9.635,-0.007331333,0.019550223,-0.015884556,0.0,1.5867014,0.41830578,9.668391,-0.025701404,0.023694217,0.016609192,-0.06946753,-0.04715413,-0.9398956,2017-01-14 20:42:57,59.94456959436232
1.541,0.459,9.971,-0.010997,0.023215888,-0.012218889,0.0,1.5953351,0.42553282,9.666655,-0.029335141,0.013467193,0.080345154,-0.069793604,-0.047609136,-0.9400557,2017-01-14 20:42:58,57.332443797674074
1.608,0.418,9.638,-0.0061094444,0.017106444,-0.013440778,0.0,1.5956346,0.42480803,9.666637,0.02236545,0.015191972,-0.012637138,-0.069812864,-0.04759029,-0.94000304,2017-01-14 20:42:59,58.26710885590227
1.584,0.439,9.731,-0.012218889,0.018328333,-0.018328333,0.0,1.5962455,0.409087,9.667214,0.008754492,-0.04208699,-0.0802145,-0.07007748,-0.046886995,-0.93980026,2017-01-14 20:43:00,62.40271340929347
1.597,0.459,9.737,-0.008553222,0.021994,-0.017106444,0.0,1.5998614,0.41685012,9.666285,-0.027861357,0.05614987,-0.03728485,-0.07015037,-0.047281656,-0.9399788,2017-01-14 20:43:01,63.52709456503451
1.592,0.431,9.669,-0.009775111,0.018328333,-0.021994,0.0,1.5956883,0.41966054,9.666853,-0.016688347,0.04333946,-0.03785324,-0.06991689,-0.047321126,-0.94010913,2017-01-14 20:43:02,62.239121893285756
1.59,0.415,9.654,-0.012218889,0.015884556,-0.013440778,0.0,1.5930184,0.41330954,9.667567,0.0039815903,-0.00930953,-0.013566971,-0.069876015,-0.04699576,-0.9399969,2017-01-14 20:43:03,63.22617919547591
1.495,0.461,10.22,-0.007331333,0.023215888,-0.021994,0.0,1.5981187,0.4203926,9.66642,-0.10311866,0.040607393,0.5535803,-0.07003887,-0.047374133,-0.94021213,2017-01-14 20:43:04,61.658624502374906
1.634,0.386,9.643,-0.012218889,0.023215888,-0.019550223,0.0,1.5924501,0.41947868,9.667396,-0.0114501715,-0.028478682,-0.15439606,-0.06980573,-0.047193144,-0.9404229,2017-01-14 20:43:05,59.89408171722826
1.599,0.411,9.527,-0.009775111,0.018328333,-0.017106444,0.0,1.5899602,0.41698658,9.6679125,0.00903976,-0.0059865713,-0.14091206,-0.06971154,-0.047052525,-0.94032925,2017-01-14 20:43:06,60.54253916095313
1.578,0.393,9.71,-0.007331333,0.019550223,-0.018328333,0.0,1.5816376,0.41931456,9.669177,-0.018637657,0.010685444,0.01482296,-0.069235444,-0.047070492,-0.94013095,2017-01-14 20:43:07,61.10659717446899
1.575,0.427,9.651,-0.010997,0.018328333,-0.019550223,0.0,1.5905814,0.4188116,9.667731,-0.022581458,0.010188401,-7.314682E-4,-0.06963206,-0.04726784,-0.9397724,2017-01-14 20:43:08,64.37092993939206
1.594,0.443,9.584,-0.009775111,0.023215888,-0.021994,0.0,1.5935346,0.41053435,9.667601,0.037465453,0.010465652,0.04039955,-0.06988425,-0.046965495,-0.9395478,2017-01-14 20:43:09,62.28463817893309
1.578,0.354,9.435,-0.013440778,0.018328333,-0.021994,0.0,1.5866532,0.41593775,9.668501,-0.008653283,-0.009937763,-0.019500732,-0.06944663,-0.047125407,-0.9394854,2017-01-14 20:43:10,48.64292394942132
1.614,0.441,9.679,-0.012218889,0.023215888,-0.018328333,0.0,1.5849162,0.41112453,9.668992,0.0010837317,0.019875467,0.102007866,-0.06944125,-0.046867136,-0.93947744,2017-01-14 20:43:11,63.32132381895959
1.567,0.429,9.693,-0.012218889,0.018328333,-0.017106444,0.0,1.5841482,0.40564957,9.66935,-0.0031481981,0.009350419,-0.007349968,-0.06948177,-0.04661216,-0.93937767,2017-01-14 20:43:12,60.695722564183555
1.574,0.409,9.631,-0.007331333,0.017106444,-0.017106444,0.0,1.5979693,0.41279653,9.666772,-0.023969293,-0.0037965178,-0.035772324,-0.07001863,-0.04721434,-0.93922824,2017-01-14 20:43:13,63.409782381789945
1.587,0.425,9.636,-0.010997,0.02077211,-0.023215888,0.0,1.5877067,0.40853903,9.668643,2.9337406E-4,0.022460967,0.004357338,-0.069628865,-0.046778128,-0.9395277,2017-01-14 20:43:14,63.44937855079162
1.519,0.465,10.005,-0.007331333,0.019550223,-0.019550223,0.0,1.5923649,0.41753024,9.667493,-0.06136489,0.0064697564,0.27050686,-0.069703236,-0.047291394,-0.9395061,2017-01-14 20:43:15,59.46171826810955
1.598,0.439,9.759,-0.009775111,0.021994,-0.017106444,0.0,1.5857801,0.42142552,9.6684065,-0.015780091,0.0015744865,-0.006406784,-0.06929437,-0.047399808,-0.93936586,2017-01-14 20:43:16,54.41506043180019
1.636,0.399,9.484,-0.010997,0.023215888,-0.013440778,0.0,1.5911149,0.42073727,9.667561,0.039885163,-0.05173728,-0.29456043,-0.069558874,-0.047467634,-0.9393028,2017-01-14 20:43:17,64.14428285400271
1.597,0.413,9.703,-0.010997,0.017106444,-0.014662666,0.0,1.6025631,0.4183989,9.6657715,0.006436825,6.0111284E-4,0.004228592,-0.070130736,-0.047587167,-0.9390954,2017-01-14 20:43:18,61.344694680661185
1.614,0.423,9.749,-0.007331333,0.02077211,-0.017106444,0.0,1.5956281,0.42217904,9.666754,0.00837183,-0.010179043,-0.03775406,-0.06973429,-0.047643203,-0.9391499,2017-01-14 20:43:19,64.50407463500504
1.605,0.428,9.673,-0.0061094444,0.018328333,-0.019550223,0.0,1.5951141,0.42433327,9.666743,-0.0031141043,0.012666732,-0.01674366,-0.06969254,-0.047709312,-0.93928826,2017-01-14 20:43:20,38.234366875765645
1.588,0.416,9.65,-0.009775111,0.021994,-0.017106444,0.0,1.5946289,0.4168898,9.667149,0.024371028,-0.0018897951,-0.06014824,-0.06977106,-0.047377557,-0.939126,2017-01-14 20:43:21,62.39194874830826
1.579,0.451,9.825,-0.010997,0.021994,-0.014662666,0.0,1.5811218,0.41459563,9.669465,0.009878159,-0.023595631,-0.25246525,-0.06917364,-0.047005396,-0.9393153,2017-01-14 20:43:22,60.38218223387233
1.552,0.412,9.687,-0.008553222,0.018328333,-0.015884556,0.0,1.5914248,0.42164,9.66747,-0.02142477,-0.030640006,-0.02447033,-0.069558136,-0.047517203,-0.9392976,2017-01-14 20:43:23,55.83015272497569
1.618,0.424,9.672,-0.012218889,0.025659667,-0.02077211,0.0,1.5834532,0.41326836,9.66914,0.016546845,0.037731647,-0.10513973,-0.069288276,-0.047012657,-0.9391582,2017-01-14 20:43:24,60.202455109473576
1.604,0.412,9.682,-0.012218889,0.017106444,-0.014662666,0.0,1.593281,0.41191667,9.667583,0.010718942,8.332729E-5,0.014416695,-0.06976761,-0.0471478,-0.9389758,2017-01-14 20:43:25,59.90276411186678
1.6,0.4,9.642,-0.0061094444,0.015884556,-0.019550223,0.0,1.5997202,0.41606295,9.666342,-0.027720213,-0.022062957,-0.046341896,-0.0700619,-0.047381844,-0.9393151,2017-01-14 20:43:26,50.82149456973105
1.563,0.406,9.691,-0.008553222,0.02077211,-0.017106444,0.0,1.5989174,0.41741377,9.666417,-0.004917383,0.00458622,-0.04841709,-0.0700035,-0.047427986,-0.9393417,2017-01-14 20:43:27,63.41923717609448
1.561,0.399,9.673,-0.009775111,0.02077211,-0.02077211,0.0,1.5952549,0.4105242,9.667317,-0.01025486,0.0134758055,6.828308E-4,-0.069978885,-0.04697836,-0.93961823,2017-01-14 20:43:28,61.50269855178515
1.603,0.422,9.641,-0.009775111,0.017106444,-0.021994,0.0,1.5898819,0.41124284,9.668172,0.013118148,0.010757148,-0.027172089,-0.0697086,-0.04691643,-0.93965816,2017-01-14 20:43:29,65.17420694048351
1.578,0.4,9.676,-0.012218889,0.023215888,-0.014662666,0.0,1.5858669,0.4087035,9.668939,-0.0418669,-0.016703516,-0.026938438,-0.06957729,-0.04669403,-0.9398224,2017-01-14 20:43:30,64.11312424989404
1.585,0.425,9.568,-0.010997,0.02077211,-0.015884556,0.0,1.5851594,0.41408408,9.668826,-0.031159401,-0.053084075,0.0031738281,-0.069440976,-0.046957854,-0.9397429,2017-01-14 20:43:31,50.955630486745676
1.557,0.459,9.612,-0.007331333,0.021994,-0.023215888,0.0,1.5827001,0.4190298,9.669016,0.011299849,0.03297019,0.34398365,-0.06924666,-0.047141403,-0.9398098,2017-01-14 20:43:32,60.37579786766852
1.6,0.412,9.654,-0.010997,0.017106444,-0.019550223,0.0,1.5883007,0.41661844,9.6682005,0.009699345,0.0023815632,-0.0102005005,-0.06952703,-0.04716902,-0.93956256,2017-01-14 20:43:33,54.88024521234891
1.603,0.39,9.672,-0.007331333,0.017106444,-0.024437778,0.0,1.6000836,0.4210426,9.666067,0.0029164553,-0.031042606,0.005932808,-0.06997831,-0.04765294,-0.9391928,2017-01-14 20:43:34,62.41487883502594
1.63,0.346,9.379,-0.014662666,0.017106444,-0.014662666,0.0,1.6030511,0.41128314,9.665995,-0.039051056,0.006716877,0.3540058,-0.070281364,-0.04724344,-0.9391417,2017-01-14 20:43:35,46.6369475220829
1.582,0.405,9.827,-0.009775111,0.021994,-0.018328333,0.0,1.5912199,0.41852137,9.667639,-0.025219917,0.048478633,0.048360825,-0.06959259,-0.04737573,-0.93924123,2017-01-14 20:43:36,43.93722599159749
1.574,0.412,9.508,-0.012218889,0.018328333,-0.019550223,0.0,1.6044426,0.4132676,9.665679,-0.014442563,0.009732395,-0.026679039,-0.07029338,-0.04739559,-0.9389812,2017-01-14 20:43:37,52.88628915001596
1.599,0.412,9.649,-0.013440778,0.015884556,-0.015884556,0.0,1.5913761,0.4163503,9.667707,0.007623911,-0.0043503046,-0.018707275,-0.06959326,-0.04733814,-0.93893397,2017-01-14 20:43:38,60.85099381939088
1.646,0.326,9.333,-0.008553222,0.018328333,-0.019550223,0.0,1.5971571,0.41593125,9.666772,0.013842821,-0.07593125,-0.51577187,-0.06988166,-0.047416907,-0.9389172,2017-01-14 20:43:39,62.46804614158222
1.578,0.419,9.664,-0.014662666,0.017106444,-0.019550223,0.0,1.5957644,0.4108535,9.667219,0.032235622,0.016146481,-0.047219276,-0.06989671,-0.04715359,-0.9388998,2017-01-14 20:43:40,65.8163035975328
1.603,0.406,9.662,-0.010997,0.017106444,-0.018328333,0.0,1.5884238,0.42119873,9.667983,-0.008423805,-0.052198738,-0.04498291,-0.06938326,-0.047497742,-0.9390524,2017-01-14 20:43:41,64.63729551921092
1.575,0.393,9.606,-0.010997,0.02077211,-0.02077211,0.0,1.5855545,0.41439238,9.668748,0.03244555,-0.051392376,-0.049747467,-0.069357194,-0.047123715,-0.9390506,2017-01-14 20:43:42,60.79090545618608
1.612,0.411,9.669,-0.009775111,0.02077211,-0.02077211,0.0,1.5831146,0.41470644,9.669134,0.024885416,0.007293552,-0.024133682,-0.069212064,-0.047128107,-0.93890816,2017-01-14 20:43:43,65.58770419655384
1.539,0.442,9.715,-0.007331333,0.019550223,-0.015884556,0.0,1.5980185,0.41079977,9.666849,0.015981436,-7.997751E-4,0.024150848,-0.06998194,-0.0472272,-0.9387137,2017-01-14 20:43:44,64.24972570033843
1.574,0.441,9.607,-0.007331333,0.021994,-0.021994,0.0,1.5934715,0.42019296,9.667195,-0.019471526,0.05780703,0.048804283,-0.06961878,-0.047575425,-0.9388474,2017-01-14 20:43:45,63.68085453165226
1.564,0.418,9.627,-0.0048875557,0.015884556,-0.019550223,0.0,1.5910887,0.41517887,9.667805,-0.00408864,-0.011178851,-8.049011E-4,-0.069573715,-0.04731425,-0.93875575,2017-01-14 20:43:46,64.2739850753066
1.605,0.405,9.617,-0.010997,0.024437778,-0.02077211,0.0,1.5938015,0.41296834,9.667453,0.02819848,0.01703167,-0.065452576,-0.06972748,-0.047277633,-0.9386372,2017-01-14 20:43:47,63.47044090581066
1.61,0.403,9.613,-0.009775111,0.02077211,-0.018328333,0.0,1.5926225,0.41416797,9.667595,-0.03162253,0.019832015,-0.036595345,-0.06961448,-0.04736697,-0.938391,2017-01-14 20:43:48,62.16292855076035
1.616,0.403,9.783,-0.009775111,0.023215888,-0.018328333,0.0,1.5917599,0.41822413,9.667563,0.0022400618,-0.020224124,-0.12756348,-0.06948005,-0.047581386,-0.9382272,2017-01-14 20:43:49,56.6972146191031
1.57,0.437,9.709,-0.007331333,0.019550223,-0.02077211,0.0,1.5930632,0.42184395,9.667191,-0.023063183,0.01515606,0.041809082,-0.06949535,-0.04775801,-0.938318,2017-01-14 20:43:50,62.82258214875646
1.592,0.403,9.607,-0.009775111,0.018328333,-0.019550223,0.0,1.5914797,0.41717032,9.667655,0.0065203905,-0.012170315,-0.034654617,-0.06951031,-0.047487974,-0.9384113,2017-01-14 20:43:51,64.3389273034284
1.573,0.405,9.612,-0.0048875557,0.014662666,-0.014662666,0.0,1.605543,0.42039064,9.66519,-0.027543068,0.014609367,-0.02818966,-0.07009608,-0.04794806,-0.9380654,2017-01-14 20:43:52,60.375164490130324
1.615,0.393,9.41,-0.008553222,0.018328333,-0.015884556,0.0,1.6023842,0.42313048,9.665594,-0.07538426,-0.020130485,0.2264061,-0.06992295,-0.047985733,-0.9382639,2017-01-14 20:43:53,52.28731761868977
1.569,0.428,9.637,-0.010997,0.018328333,-0.013440778,0.0,1.6001376,0.42390293,9.665933,-0.031137586,0.0040970743,-0.028932571,-0.06981455,-0.0479638,-0.9383683,2017-01-14 20:43:54,65.11641689713903
1.599,0.404,9.614,-0.008553222,0.017106444,-0.014662666,0.0,1.608394,0.42395464,9.66456,-0.0063940287,-0.020954639,-0.073560715,-0.07020116,-0.04812881,-0.93824583,2017-01-14 20:43:55,61.22277335651839
1.594,0.422,9.613,-0.010997,0.019550223,-0.017106444,0.0,1.6020482,0.4144682,9.666025,0.018951893,-0.0324682,-0.067025185,-0.070075855,-0.04753153,-0.93842024,2017-01-14 20:43:56,63.611555288317156
1.587,0.417,9.545,-0.0061094444,0.023215888,-0.023215888,0.0,1.5946132,0.41828486,9.66709,0.016386747,7.151365E-4,-0.25309086,-0.069667704,-0.047560334,-0.9385705,2017-01-14 20:43:57,61.91972459409171
1.611,0.386,9.498,-0.0048875557,0.018328333,-0.017106444,0.0,1.5956062,0.4232621,9.66671,-0.053606153,0.016737908,0.14628983,-0.06967884,-0.047747593,-0.93889797,2017-01-14 20:43:58,59.10457902612028
1.58,0.363,9.316,-0.010997,0.018328333,-0.015884556,0.0,1.6108437,0.4210119,9.664281,-0.0428437,0.025988102,0.30771923,-0.070477165,-0.047872726,-0.93898344,2017-01-14 20:43:59,59.02145784735048
1.643,0.351,9.282,-0.007331333,0.018328333,-0.013440778,0.0,1.6011454,0.4242741,9.66575,-0.04314542,-0.025274098,0.4902506,-0.069977745,-0.04782311,-0.9392052,2017-01-14 20:44:00,65.41730211060772
1.57,0.406,9.765,-0.010997,0.021994,-0.015884556,0.0,1.5860353,0.41981995,9.668435,-0.017035246,-0.028819948,-0.019434929,-0.06930983,-0.04736213,-0.9391964,2017-01-14 20:44:01,59.50409022449453
1.622,0.403,9.65,-0.008553222,0.018328333,-0.019550223,0.0,1.5931431,0.42218316,9.667163,0.028856874,-0.019183159,-0.017163277,-0.06963001,-0.047576435,-0.93927443,2017-01-14 20:44:02,57.540069937993074
1.573,0.464,9.733,-0.012218889,0.023215888,-0.017106444,0.0,1.5944616,0.42585132,9.666784,-0.027461529,-0.064851314,0.062215805,-0.069657974,-0.04773793,-0.93944865,2017-01-14 20:44:03,56.576211136595695