ACC_X,ACC_Y,ACC_Z,LIGH_1,TIME,VOICE
9.462,1.561,-1.091,5.0,2017-07-12 18:56:33,-4.181231992439452
9.682,1.608,-0.948,4.0,2017-07-12 18:56:34,34.33100731200544
9.72,1.618,-0.66,5.0,2017-07-12 18:56:35,33.60301759218501
9.538,1.762,-1.139,4.0,2017-07-12 18:56:36,32.28360752711885
9.51,1.838,-0.689,4.0,2017-07-12 18:56:37,35.602164811304156
9.548,1.714,-0.565,2.0,2017-07-12 18:56:38,34.87320555050999
9.49,1.733,-0.976,3.0,2017-07-12 18:56:39,38.148453044684864
9.778,1.781,-0.871,4.0,2017-07-12 18:56:40,37.673847557371005
9.577,1.79,-1.216,4.0,2017-07-12 18:56:41,37.43805090737905
9.634,1.733,-1.101,3.0,2017-07-12 18:56:42,33.6541211273896
9.653,1.752,-1.015,4.0,2017-07-12 18:56:43,36.45499601209907
9.644,1.704,-1.015,5.0,2017-07-12 18:56:44,34.09726131951563
9.586,1.8,-1.005,3.0,2017-07-12 18:56:45,34.44886718579587
9.567,1.685,-1.149,5.0,2017-07-12 18:56:46,33.74391369500655
9.634,1.714,-1.197,4.0,2017-07-12 18:56:47,34.493812108252
9.692,1.637,-0.996,3.0,2017-07-12 18:56:48,36.621475985343
9.615,1.676,-1.13,4.0,2017-07-12 18:56:49,35.61070156425056
9.634,1.599,-1.091,5.0,2017-07-12 18:56:50,32.8444086843922
9.749,1.513,-0.967,4.0,2017-07-12 18:56:51,35.134244048002266
9.663,1.541,-1.053,5.0,2017-07-12 18:56:52,33.2924926445252
9.854,1.484,-0.909,4.0,2017-07-12 18:56:53,43.683470379615905
9.672,1.522,-1.063,3.0,2017-07-12 18:56:54,34.432087278259665
9.711,1.369,-1.063,5.0,2017-07-12 18:56:55,37.6825695242266
9.72,1.446,-1.082,4.0,2017-07-12 18:56:56,34.49085292817735
9.854,1.522,-1.13,5.0,2017-07-12 18:56:57,34.10983066002798
9.778,1.465,-1.072,3.0,2017-07-12 18:56:58,35.371754376477014
9.72,1.359,-1.005,3.0,2017-07-12 18:56:59,33.2430175112859
9.749,1.522,-1.072,4.0,2017-07-12 18:57:00,41.66896419601281
9.711,1.436,-1.063,5.0,2017-07-12 18:57:01,36.04225420075494
9.605,1.388,-0.986,5.0,2017-07-12 18:57:02,35.28593348555067
9.759,1.369,-1.101,4.0,2017-07-12 18:57:03,50.88780034967969
9.644,1.407,-1.139,3.0,2017-07-12 18:57:04,37.24242499215182
9.634,1.398,-1.245,3.0,2017-07-12 18:57:05,38.393401725426614
9.768,1.34,-0.794,2.0,2017-07-12 18:57:06,38.28310458324652
9.701,1.388,-1.082,3.0,2017-07-12 18:57:07,36.21002136206987
9.701,1.388,-1.034,4.0,2017-07-12 18:57:09,36.901390370478765
9.644,1.292,-0.996,3.0,2017-07-12 18:57:10,34.67732071288061
9.672,1.723,-0.201,7.0,2017-07-12 18:57:11,38.19410511381446
9.299,2.777,-0.105,8.0,2017-07-12 18:57:12,38.89728782177295
9.328,2.997,-0.239,8.0,2017-07-12 18:57:13,40.34648154257988
9.308,3.083,-0.296,10.0,2017-07-12 18:57:14,36.5863258463837
9.376,3.045,-0.296,7.0,2017-07-12 18:57:15,37.05250482441799
9.289,2.997,0.277,12.0,2017-07-12 18:57:16,34.87077309574524
9.222,3.352,0.143,11.0,2017-07-12 18:57:17,33.54805418544307
9.299,3.237,0.105,11.0,2017-07-12 18:57:18,35.94937730915369
8.992,3.495,-0.153,12.0,2017-07-12 18:57:19,33.3206566993249
9.289,3.141,0.057,8.0,2017-07-12 18:57:20,35.61734764809866
9.05,3.399,-0.047,11.0,2017-07-12 18:57:21,34.770611675049366
9.529,2.614,0.402,11.0,2017-07-12 18:57:22,32.57165114889453
9.634,2.375,0.239,10.0,2017-07-12 18:57:23,34.58233755417841
9.51,1.905,0.201,12.0,2017-07-12 18:57:24,37.1147827069879
8.13,1.043,0.756,12.0,2017-07-12 18:57:25,35.04826867537525
9.72,0.861,0.699,13.0,2017-07-12 18:57:26,37.96656506322533
9.816,0.459,0.928,12.0,2017-07-12 18:57:27,33.696377743963104
9.778,0.383,0.996,12.0,2017-07-12 18:57:28,32.48453425682294
9.04,1.58,0.268,14.0,2017-07-12 18:57:29,32.273787235787054
8.791,0.507,4.587,30.0,2017-07-12 18:57:30,64.28549212069933
8.15,-2.739,4.702,30.0,2017-07-12 18:57:31,36.795053484941384
8.36,-1.283,4.443,11.0,2017-07-12 18:57:32,36.71810176131905
9.73,-0.277,1.407,5.0,2017-07-12 18:57:33,67.92796577853915
9.692,-0.363,1.494,14.0,2017-07-12 18:57:34,38.46683637082129
9.739,-0.277,1.455,13.0,2017-07-12 18:57:35,43.09596611092886
9.72,-0.268,1.417,12.0,2017-07-12 18:57:36,35.89305209010878
9.778,-0.306,1.35,13.0,2017-07-12 18:57:37,35.30088087635955
9.739,-0.277,1.436,12.0,2017-07-12 18:57:38,36.87039079586562
9.72,-0.296,1.484,13.0,2017-07-12 18:57:39,35.72012542522449
9.759,-0.258,1.426,12.0,2017-07-12 18:57:40,36.20461901728472
9.72,-0.306,1.426,12.0,2017-07-12 18:57:41,39.76370803615165
9.711,-0.325,1.436,13.0,2017-07-12 18:57:42,36.77438521180625
9.72,-0.296,1.436,12.0,2017-07-12 18:57:43,37.099598432892364
9.759,-0.296,1.474,11.0,2017-07-12 18:57:44,36.196416839905375
9.701,-0.287,1.426,13.0,2017-07-12 18:57:45,37.4169621896359
9.72,-0.306,1.436,11.0,2017-07-12 18:57:46,35.66392488712636
9.759,-0.354,1.417,10.0,2017-07-12 18:57:48,33.18446297511149
9.739,-0.316,1.426,13.0,2017-07-12 18:57:49,37.47204480390956
9.701,-0.316,1.484,13.0,2017-07-12 18:57:50,34.54217310833863
9.749,-0.287,1.446,11.0,2017-07-12 18:57:51,37.35266574600468
9.73,-0.306,1.446,13.0,2017-07-12 18:57:52,36.87707453728111
9.72,-0.277,1.407,13.0,2017-07-12 18:57:53,37.401478796079644
9.72,-0.306,1.446,12.0,2017-07-12 18:57:54,36.51832796661855
9.711,-0.306,1.455,13.0,2017-07-12 18:57:55,34.993256286126865
9.739,-0.277,1.417,12.0,2017-07-12 18:57:56,35.915796564509165
9.711,-0.296,1.436,12.0,2017-07-12 18:57:57,34.91301355763654
9.759,-0.296,1.436,13.0,2017-07-12 18:57:58,36.4555946158207
9.72,-0.296,1.436,13.0,2017-07-12 18:57:59,43.542523706735956
9.711,-0.316,1.455,11.0,2017-07-12 18:58:00,34.12913958602663
9.739,-0.287,1.436,11.0,2017-07-12 18:58:01,37.4583242786318
9.72,-0.296,1.407,11.0,2017-07-12 18:58:02,34.7360485110282
9.692,-0.316,1.407,13.0,2017-07-12 18:58:03,35.61104413036383
9.739,-0.277,1.455,14.0,2017-07-12 18:58:04,34.79817172920142
9.739,-0.277,1.455,13.0,2017-07-12 18:58:05,36.07335626086763
9.749,-0.296,1.407,13.0,2017-07-12 18:58:06,36.483524816705646
9.711,-0.277,1.474,12.0,2017-07-12 18:58:07,35.87778686742594
9.682,-0.316,1.436,13.0,2017-07-12 18:58:08,35.042483272672214
9.749,-0.296,1.426,13.0,2017-07-12 18:58:09,37.174388025326344
9.711,-0.306,1.465,11.0,2017-07-12 18:58:10,33.866226120750206
9.768,-0.325,1.426,12.0,2017-07-12 18:58:11,35.11773076894077
9.711,-0.277,1.484,14.0,2017-07-12 18:58:12,34.94744556746586
9.711,-0.268,1.465,14.0,2017-07-12 18:58:13,39.500370870761785
9.682,-0.287,1.484,13.0,2017-07-12 18:58:14,37.17194208602538
9.739,-0.344,1.398,13.0,2017-07-12 18:58:15,34.78494488586423
9.711,-0.239,1.484,12.0,2017-07-12 18:58:16,36.58108046997598
9.739,-0.277,1.359,13.0,2017-07-12 18:58:17,37.88678046912841
9.778,-0.325,1.398,13.0,2017-07-12 18:58:18,34.412640570248776
9.739,-0.335,1.426,13.0,2017-07-12 18:58:19,36.35968558449294
9.778,-0.296,1.455,13.0,2017-07-12 18:58:20,37.180789082075194
9.739,-0.306,1.417,13.0,2017-07-12 18:58:21,36.0209169281985
9.778,-0.296,1.446,11.0,2017-07-12 18:58:22,36.48532958563696
9.739,-0.296,1.455,13.0,2017-07-12 18:58:23,36.353941038512716
9.787,-0.268,1.426,13.0,2017-07-12 18:58:24,36.739056058253084
9.759,-0.316,1.436,12.0,2017-07-12 18:58:25,33.674063387218226
9.711,-0.277,1.446,12.0,2017-07-12 18:58:26,35.82603385963102
9.711,-0.316,1.417,13.0,2017-07-12 18:58:27,35.6361583130986
9.749,-0.296,1.436,13.0,2017-07-12 18:58:28,35.12723471459076
9.711,-0.268,1.407,10.0,2017-07-12 18:58:29,36.04840691217523
9.73,-0.268,1.484,13.0,2017-07-12 18:58:30,39.71011284904846
9.72,-0.287,1.417,14.0,2017-07-12 18:58:31,36.475992725629155
9.701,-0.306,1.465,12.0,2017-07-12 18:58:32,37.312658766106544
9.711,-0.316,1.446,13.0,2017-07-12 18:58:34,38.928372573091195
9.701,-0.287,1.446,13.0,2017-07-12 18:58:35,37.41707903887298
9.749,-0.296,1.436,13.0,2017-07-12 18:58:36,35.86220168587214
9.787,-0.268,1.369,12.0,2017-07-12 18:58:37,38.40237170554961
9.701,-0.325,1.446,7.0,2017-07-12 18:58:38,36.3666788784103
9.749,-0.258,1.379,8.0,2017-07-12 18:58:39,36.8686127154364
10.343,-0.421,1.426,5.0,2017-07-12 18:58:40,36.9156122929273
9.739,-0.296,1.436,5.0,2017-07-12 18:58:41,37.74343435665343
9.73,-0.354,1.465,7.0,2017-07-12 18:58:42,40.12364263545617
9.672,-0.268,1.608,7.0,2017-07-12 18:58:43,36.408599674924965
9.749,-0.335,1.398,8.0,2017-07-12 18:58:44,35.43879817369471
9.72,-0.325,1.417,8.0,2017-07-12 18:58:45,37.14835865436954
9.759,-0.316,1.407,10.0,2017-07-12 18:58:46,35.992746047673506
9.73,-0.287,1.436,7.0,2017-07-12 18:58:47,36.39001501010525
9.73,-0.268,1.398,7.0,2017-07-12 18:58:48,39.39621954473103
9.72,-0.325,1.407,5.0,2017-07-12 18:58:49,37.777003935026066
9.749,-0.287,1.426,8.0,2017-07-12 18:58:50,38.0165743530069
9.711,-0.325,1.379,7.0,2017-07-12 18:58:51,37.71887415824514
9.711,-0.325,1.417,8.0,2017-07-12 18:58:52,36.93912867547188
9.749,-0.306,1.417,7.0,2017-07-12 18:58:53,38.45369570927936
9.739,-0.325,1.407,7.0,2017-07-12 18:58:54,37.32470800675711
9.739,-0.296,1.379,10.0,2017-07-12 18:58:55,36.955041643012045
9.701,-0.306,1.446,8.0,2017-07-12 18:58:56,37.459052942828656
9.73,-0.325,1.436,7.0,2017-07-12 18:58:57,42.0928999167315
9.739,-0.316,1.398,7.0,2017-07-12 18:58:58,40.59582534116942
9.759,-0.316,1.417,8.0,2017-07-12 18:58:59,39.73945221192537
9.72,-0.306,1.369,7.0,2017-07-12 18:59:00,35.37769058831
9.739,-0.316,1.426,8.0,2017-07-12 18:59:01,34.33401798657969
9.739,-0.325,1.379,7.0,2017-07-12 18:59:02,36.87758550028201
9.72,-0.296,1.398,5.0,2017-07-12 18:59:03,36.416296885561735
9.72,-0.268,1.407,8.0,2017-07-12 18:59:04,36.97980093659889
9.72,-0.296,1.455,7.0,2017-07-12 18:59:05,48.81109803028053
9.759,-0.268,1.312,7.0,2017-07-12 18:59:06,39.232743838482996
9.692,-0.258,1.513,8.0,2017-07-12 18:59:07,39.15968077234328
9.711,-0.296,1.513,8.0,2017-07-12 18:59:08,38.14207393947094
9.682,-0.316,1.541,5.0,2017-07-12 18:59:09,37.69900807778442
9.739,-0.306,1.522,8.0,2017-07-12 18:59:10,38.0040391163832
9.73,-0.287,1.541,7.0,2017-07-12 18:59:11,38.81755557788299
9.711,-0.325,1.522,7.0,2017-07-12 18:59:12,40.04060653342898
9.701,-0.306,1.513,10.0,2017-07-12 18:59:13,39.56101476961657
9.759,-0.325,1.57,8.0,2017-07-12 18:59:14,36.694854951238796
9.73,-0.344,1.494,8.0,2017-07-12 18:59:16,38.76200300345917
9.72,-0.306,1.541,8.0,2017-07-12 18:59:17,37.30162530155459
9.682,-0.287,1.494,7.0,2017-07-12 18:59:18,35.395391920829525
9.749,-0.306,1.494,10.0,2017-07-12 18:59:19,39.73246815296106
9.72,-0.335,1.532,7.0,2017-07-12 18:59:20,36.225993013275236
9.768,-0.258,1.254,8.0,2017-07-12 18:59:21,36.073666306014175
9.701,-0.316,1.532,8.0,2017-07-12 18:59:22,50.54385011934781
9.72,-0.325,1.503,7.0,2017-07-12 18:59:23,34.20772410779924
9.682,-0.344,1.522,5.0,2017-07-12 18:59:24,35.407762164473844
9.73,-0.316,1.541,5.0,2017-07-12 18:59:25,36.64915636726792
9.73,-0.296,1.503,7.0,2017-07-12 18:59:26,38.09493823755448
9.711,-0.316,1.561,5.0,2017-07-12 18:59:27,37.83175345549016
9.72,-0.316,1.484,8.0,2017-07-12 18:59:28,37.50243825783553
9.692,-0.277,1.522,7.0,2017-07-12 18:59:29,37.12695234143466
9.711,-0.277,1.522,5.0,2017-07-12 18:59:30,37.678539718848796
9.682,-0.306,1.551,4.0,2017-07-12 18:59:31,36.359739520127036
9.749,-0.306,1.532,7.0,2017-07-12 18:59:32,36.209598070676876
9.682,-0.306,1.532,11.0,2017-07-12 18:59:33,35.88928889688567
9.692,-0.325,1.599,8.0,2017-07-12 18:59:34,36.97309644795045
1.925,-0.057,2.528,13.0,2017-07-12 18:59:35,39.057852905174286
0.019,-0.402,9.893,108.0,2017-07-12 18:59:36,68.53481328357236
0.0,-0.354,9.912,101.0,2017-07-12 18:59:37,48.876332373446154
-0.019,-0.373,9.816,97.0,2017-07-12 18:59:38,38.35820882387021
1.484,0.756,8.868,86.0,2017-07-12 18:59:39,36.664914725143504
0.162,-0.325,9.835,107.0,2017-07-12 18:59:40,35.79479577845204
-0.057,-0.335,9.96,106.0,2017-07-12 18:59:41,43.16929344490437
0.124,-0.325,9.883,105.0,2017-07-12 18:59:42,64.84646023651666
-0.038,-0.344,10.486,107.0,2017-07-12 18:59:43,39.80000529333072
5.775,5.458,4.51,49.0,2017-07-12 18:59:44,52.10812708332884
9.299,-1.857,4.989,72.0,2017-07-12 18:59:45,36.07352490303399
9.404,-1.589,2.844,51.0,2017-07-12 18:59:46,37.707655984563495
8.906,-2.011,3.553,52.0,2017-07-12 18:59:47,37.21321520405782
8.456,-0.067,3.466,55.0,2017-07-12 18:59:48,36.51858418367527
4.482,4.558,8.887,41.0,2017-07-12 18:59:49,51.028897858063544
0.756,-0.287,5.822,107.0,2017-07-12 18:59:50,55.45081257819803
0.574,-0.43,9.797,107.0,2017-07-12 18:59:51,64.8666804624107
0.325,-0.344,10.027,107.0,2017-07-12 18:59:52,59.591218461426195
0.086,-0.277,9.912,106.0,2017-07-12 18:59:53,43.96374817194116
0.124,-0.344,9.874,99.0,2017-07-12 18:59:54,37.0355752363809
0.172,-0.296,9.902,105.0,2017-07-12 18:59:55,38.60152057842936
0.153,-0.316,9.845,108.0,2017-07-12 18:59:56,35.4963442407128
0.124,-0.306,9.845,102.0,2017-07-12 18:59:57,35.17821951757916
0.153,-0.335,9.874,105.0,2017-07-12 18:59:58,40.286892583701075
0.124,-0.344,9.931,103.0,2017-07-12 18:59:59,39.44687115264812
0.153,-0.325,9.912,103.0,2017-07-12 19:00:00,34.72842691893586
0.143,-0.306,9.893,106.0,2017-07-12 19:00:01,35.36984445194278
0.134,-0.306,9.835,107.0,2017-07-12 19:00:03,35.10031186024821
0.143,-0.335,9.883,107.0,2017-07-12 19:00:04,35.51144908756322
0.105,-0.316,9.854,106.0,2017-07-12 19:00:05,41.532923670026975
0.124,-0.325,9.845,107.0,2017-07-12 19:00:06,37.685883171812264
0.172,-0.277,9.874,105.0,2017-07-12 19:00:07,35.61799797075007
0.134,-0.344,9.902,106.0,2017-07-12 19:00:08,38.186738844524946
0.162,-0.335,9.864,108.0,2017-07-12 19:00:09,45.36821142235389
0.105,-0.306,9.893,105.0,2017-07-12 19:00:10,38.39546661542475
0.134,-0.306,9.883,101.0,2017-07-12 19:00:11,36.893769378014284
0.153,-0.306,9.883,107.0,2017-07-12 19:00:12,35.619363447717205
0.134,-0.354,9.864,102.0,2017-07-12 19:00:13,35.706796158812566
0.134,-0.316,9.864,103.0,2017-07-12 19:00:14,38.52667469492071
0.124,-0.325,9.874,107.0,2017-07-12 19:00:15,41.36620501471682
0.153,-0.306,9.874,105.0,2017-07-12 19:00:16,37.88093626404509
0.153,-0.344,9.893,107.0,2017-07-12 19:00:17,35.63705947549541
0.162,-0.287,9.864,106.0,2017-07-12 19:00:18,34.96009937650412
0.134,-0.373,9.874,97.0,2017-07-12 19:00:19,34.55535990419291
0.134,-0.306,9.854,101.0,2017-07-12 19:00:20,34.547201372024546
0.181,-0.344,9.854,106.0,2017-07-12 19:00:21,38.095404481766685
0.143,-0.296,9.874,102.0,2017-07-12 19:00:22,36.19830828528584
0.134,-0.325,9.912,99.0,2017-07-12 19:00:23,35.57638646132284
0.124,-0.306,9.845,101.0,2017-07-12 19:00:24,38.28756035566645
0.134,-0.335,9.807,105.0,2017-07-12 19:00:25,36.03238915805079
0.153,-0.344,9.921,102.0,2017-07-12 19:00:26,38.38642269725922
0.134,-0.316,9.864,101.0,2017-07-12 19:00:27,35.372027681885506
0.134,-0.354,9.883,101.0,2017-07-12 19:00:28,37.125856685863006
0.143,-0.335,9.864,106.0,2017-07-12 19:00:29,36.292631250617234
0.134,-0.316,9.864,106.0,2017-07-12 19:00:30,36.75309234761806
0.153,-0.306,9.902,103.0,2017-07-12 19:00:31,37.31692696506076
-0.009,-0.306,9.797,106.0,2017-07-12 19:00:32,38.51051737311468
0.114,-0.325,9.845,106.0,2017-07-12 19:00:33,36.96614706734409
0.134,-0.316,9.883,106.0,2017-07-12 19:00:34,36.183642799263566
0.153,-0.335,9.845,106.0,2017-07-12 19:00:35,35.06827953721882
0.114,-0.316,9.864,103.0,2017-07-12 19:00:36,35.38172503926577
0.124,-0.287,9.845,101.0,2017-07-12 19:00:37,38.82875639393949
0.201,-0.316,9.893,110.0,2017-07-12 19:00:38,37.2822010554789
0.143,-0.316,9.902,105.0,2017-07-12 19:00:39,41.348201847710406
0.124,-0.316,9.826,106.0,2017-07-12 19:00:40,40.99481416121462
0.124,-0.306,9.893,106.0,2017-07-12 19:00:41,34.887954779453565
0.162,-0.306,9.902,106.0,2017-07-12 19:00:42,36.77162919010877
0.114,-0.316,9.845,102.0,2017-07-12 19:00:43,39.03583747982358
0.162,-0.277,9.778,102.0,2017-07-12 19:00:44,37.43508003955688
0.153,-0.354,9.874,102.0,2017-07-12 19:00:46,38.10584207766115
0.124,-0.325,9.912,106.0,2017-07-12 19:00:47,39.185953542445965
0.124,-0.316,9.845,105.0,2017-07-12 19:00:48,37.827735300719496
0.143,-0.306,9.864,103.0,2017-07-12 19:00:49,37.33923377278609
0.086,-0.354,9.864,102.0,2017-07-12 19:00:50,37.22108359846833
0.153,-0.325,9.845,102.0,2017-07-12 19:00:51,39.15316446987151
0.143,-0.316,9.874,107.0,2017-07-12 19:00:52,37.00641447088482
0.153,-0.306,9.921,101.0,2017-07-12 19:00:53,36.55586808848706
0.134,-0.344,9.883,106.0,2017-07-12 19:00:54,36.90488967298375
0.258,-0.335,9.988,105.0,2017-07-12 19:00:55,37.52084402335106
0.124,-0.325,9.845,107.0,2017-07-12 19:00:56,38.20332460039253
0.124,-0.296,9.893,105.0,2017-07-12 19:00:57,36.47397011556237
0.143,-0.325,9.816,106.0,2017-07-12 19:00:58,35.72968321562473
0.143,-0.316,9.807,106.0,2017-07-12 19:00:59,45.402601685104536
0.162,-0.325,9.854,107.0,2017-07-12 19:01:00,36.04411590442888
0.114,-0.325,9.835,106.0,2017-07-12 19:01:01,37.60310917828282
0.143,-0.344,9.874,106.0,2017-07-12 19:01:02,38.21509754206383
0.143,-0.335,9.864,106.0,2017-07-12 19:01:03,36.11614828683458
0.124,-0.316,9.874,105.0,2017-07-12 19:01:04,42.27668594151542
0.143,-0.316,9.845,105.0,2017-07-12 19:01:05,37.02995992377369
0.134,-0.296,9.864,103.0,2017-07-12 19:01:06,37.088288886787836
0.134,-0.354,9.874,108.0,2017-07-12 19:01:07,36.545285750641185
0.114,-0.306,9.874,107.0,2017-07-12 19:01:08,48.50560524247595
0.124,-0.325,9.826,104.0,2017-07-12 19:01:09,37.92359058725446
0.153,-0.325,9.883,101.0,2017-07-12 19:01:10,41.29270009810537
0.143,-0.296,9.826,105.0,2017-07-12 19:01:11,54.800924219461855
0.124,-0.344,9.845,107.0,2017-07-12 19:01:12,38.65713740674107
0.114,-0.316,9.854,107.0,2017-07-12 19:01:13,37.51460142595148
0.143,-0.344,9.883,106.0,2017-07-12 19:01:14,36.00676232276004
0.172,-0.325,9.864,103.0,2017-07-12 19:01:15,34.847309718093406
0.153,-0.306,9.854,103.0,2017-07-12 19:01:16,52.88718305757062
0.181,-0.287,9.902,102.0,2017-07-12 19:01:17,39.5203456777203
0.143,-0.335,9.845,106.0,2017-07-12 19:01:18,36.20346231245499
0.172,-0.354,9.864,105.0,2017-07-12 19:01:19,37.13371577522448
0.181,-0.325,9.902,103.0,2017-07-12 19:01:21,38.780682149374435
0.114,-0.344,9.893,108.0,2017-07-12 19:01:22,43.945746740644665
0.124,-0.316,9.874,101.0,2017-07-12 19:01:23,36.49190863727244
0.114,-0.325,9.816,102.0,2017-07-12 19:01:24,36.72921305056544
0.181,-0.335,9.912,105.0,2017-07-12 19:01:25,42.569240482822536
0.124,-0.316,9.816,107.0,2017-07-12 19:01:26,37.76399943202346
0.105,-0.344,9.874,106.0,2017-07-12 19:01:27,34.90958323024966
0.124,-0.239,9.835,15.0,2017-07-12 19:01:28,41.70582835636524
0.229,-0.268,10.017,108.0,2017-07-12 19:01:29,45.63609344072418
0.143,-0.325,9.864,107.0,2017-07-12 19:01:30,42.3789231557366
0.162,-0.296,9.864,106.0,2017-07-12 19:01:31,36.046137032420035
0.153,-0.296,9.845,106.0,2017-07-12 19:01:32,38.46104390303257
0.124,-0.335,9.883,101.0,2017-07-12 19:01:33,38.3576442945061
0.134,-0.287,9.883,105.0,2017-07-12 19:01:34,39.39297729735257
0.124,-0.325,9.864,106.0,2017-07-12 19:01:35,39.89552358128429
0.153,-0.335,9.883,101.0,2017-07-12 19:01:36,39.80370132273202
0.172,-0.335,9.874,102.0,2017-07-12 19:01:37,38.555441168510896
0.134,-0.316,9.874,108.0,2017-07-12 19:01:38,36.44234850741743
0.162,-0.325,9.874,103.0,2017-07-12 19:01:39,35.757246510620114
0.162,-0.325,9.874,103.0,2017-07-12 19:01:40,36.03271800164445
0.172,-0.325,9.759,106.0,2017-07-12 19:01:41,35.72605030591252
0.038,-0.411,9.969,106.0,2017-07-12 19:01:42,49.407706416506734
0.162,-0.306,9.893,108.0,2017-07-12 19:01:43,42.70287290726007
0.124,-0.296,9.864,107.0,2017-07-12 19:01:44,36.13617529557469
0.153,-0.296,9.835,58.0,2017-07-12 19:01:45,35.928119239059455
0.143,-0.354,9.931,108.0,2017-07-12 19:01:46,45.6870718205857
0.114,-0.43,10.036,106.0,2017-07-12 19:01:47,48.116067479384895
0.134,-0.287,9.73,108.0,2017-07-12 19:01:48,38.724725080517196
0.076,-0.268,9.845,108.0,2017-07-12 19:01:49,44.64923445200374
0.229,-0.287,9.941,106.0,2017-07-12 19:01:50,34.75160672936805
0.21,-0.316,9.883,106.0,2017-07-12 19:01:51,36.983848395559015
0.124,-0.268,9.854,110.0,2017-07-12 19:01:52,36.30832334728154
0.143,-0.344,9.845,105.0,2017-07-12 19:01:53,35.74469186664299
0.095,-0.373,9.854,112.0,2017-07-12 19:01:54,34.622176381549956
0.124,-0.316,9.835,108.0,2017-07-12 19:01:55,34.052092472598545
0.143,-0.316,9.874,110.0,2017-07-12 19:01:57,34.963640173986185
0.153,-0.344,9.874,107.0,2017-07-12 19:01:58,37.308056881141866
0.153,-0.325,9.854,107.0,2017-07-12 19:01:59,36.93035364697255
0.134,-0.287,9.874,111.0,2017-07-12 19:02:00,35.28148095070405
0.124,-0.344,9.874,111.0,2017-07-12 19:02:01,36.32317974030248
0.143,-0.335,9.883,112.0,2017-07-12 19:02:02,35.00435618773996
0.134,-0.296,9.883,112.0,2017-07-12 19:02:03,37.22290397570147
0.143,-0.316,9.893,107.0,2017-07-12 19:02:04,36.964856522495516
0.124,-0.325,9.854,106.0,2017-07-12 19:02:05,34.783075810382265
0.134,-0.296,9.864,112.0,2017-07-12 19:02:06,36.30542778294325
0.134,-0.287,9.854,106.0,2017-07-12 19:02:07,35.71636282634109
0.124,-0.316,9.854,106.0,2017-07-12 19:02:08,34.841738378476684
0.143,-0.335,9.874,110.0,2017-07-12 19:02:09,35.50353777615304
0.134,-0.335,9.893,106.0,2017-07-12 19:02:10,35.26441381340397
0.134,-0.306,9.854,106.0,2017-07-12 19:02:11,34.24914799299712
0.134,-0.344,9.874,112.0,2017-07-12 19:02:12,34.732893370807304
0.114,-0.316,9.874,111.0,2017-07-12 19:02:13,34.97204155958441
0.134,-0.306,9.835,111.0,2017-07-12 19:02:14,33.72870847419946
0.124,-0.316,9.902,111.0,2017-07-12 19:02:15,35.36999225171526
0.095,-0.287,9.874,111.0,2017-07-12 19:02:16,35.3492165354955
0.124,-0.335,9.883,111.0,2017-07-12 19:02:17,36.31945283521518
0.086,-0.296,9.854,111.0,2017-07-12 19:02:18,34.756699117200974
0.162,-0.325,9.883,111.0,2017-07-12 19:02:19,33.149504515991055
0.134,-0.306,9.816,111.0,2017-07-12 19:02:20,33.35397364483062
0.143,-0.296,9.854,111.0,2017-07-12 19:02:21,37.34908695738859
0.114,-0.306,9.835,111.0,2017-07-12 19:02:22,36.89900829780985
0.143,-0.316,9.854,111.0,2017-07-12 19:02:23,39.3885278234127
0.114,-0.306,9.902,111.0,2017-07-12 19:02:24,35.10900388918266
0.143,-0.306,9.902,111.0,2017-07-12 19:02:25,36.71219140298614
0.153,-0.306,9.864,111.0,2017-07-12 19:02:26,35.67417548731927
0.105,-0.325,9.864,111.0,2017-07-12 19:02:28,33.38894979013322