ACC_X,ACC_Y,ACC_Z,GYRO_X,GYRO_Y,GYRO_Z,LIGH_1,GRAV_X,GRAV_Y,GRAV_Z,LINACC_X,LINACC_Y,LINACC_Z,ROTVEC_X,ROTVEC_Y,ROTVEC_Z,TIME,VOICE
5.6982,-1.0342951,8.073248,0.0,0.0,0.0,7.0,0.0,0.0,0.0,0.0,0.0,0.0,0.0,0.0,0.0,2016-11-15 21:24:47,59.80889693985606
5.6982,-1.0055647,7.9966335,0.1704735,0.008324865,-0.008408693,7.0,0.57804346,-0.099480845,0.8099193,0.0044236183,0.007283181,0.008924723,0.2943904,-0.09152685,0.9433627,2016-11-15 21:24:47,55.481083513674065
5.7269306,-0.9768343,8.00621,-0.566033,0.025042692,-0.84124666,7.0,0.57606065,-0.09760663,0.8115585,0.0108882785,-0.0010154545,0.010555327,0.2925458,-0.08730588,0.94546115,2016-11-15 21:24:47,53.91254303614438
5.3247046,-0.41180268,7.967903,0.99850607,0.4192845,1.4797541,7.0,0.5950777,-0.06717773,0.8008556,-0.112167835,0.013217602,0.016313314,0.30450907,-0.08901529,0.94070184,2016-11-15 21:24:48,42.54742835574285
5.765238,-1.0247183,8.034941,-1.4685597,-0.08062972,-0.42636108,7.0,0.57862234,-0.10355098,0.8089952,0.016081333,0.003511861,0.0033376813,0.29742885,-0.08962264,0.94493896,2016-11-15 21:24:50,50.58268284088613
5.8226986,-0.9576807,8.1402855,-0.3406598,0.085962445,-0.95034295,7.0,0.58311474,-0.095988154,0.8066991,0.009258151,-0.0054568574,0.01406616,0.3007913,-0.08092866,0.94561154,2016-11-15 21:24:50,50.85902483138943
5.7843914,-1.0055647,8.0445175,-0.46597087,-0.008622691,-0.34028226,7.0,0.583631,-0.096529186,0.80626106,0.011339903,-0.0012008697,0.00788182,0.2972332,-0.0908924,0.9421102,2016-11-15 21:24:51,45.25874628951548
5.7843914,-0.92895025,8.025364,0.5870543,-0.025806982,0.07632443,7.0,0.5822067,-0.0999041,0.8068794,0.010864556,0.0039727613,0.007204294,0.2968385,-0.09243238,0.9421546,2016-11-15 21:24:52,45.87993786213012
5.48751,-0.63206923,8.24563,-0.047798984,-0.0786142,-0.19515577,8.0,0.55548406,-0.063170254,0.8291243,0.0041891336,-0.00121288,0.012460709,0.28013885,-0.079259455,0.94358927,2016-11-15 21:24:53,53.11938357294268
6.3206925,-0.79487497,7.73806,0.29084176,0.0036832204,0.5803975,7.0,0.63682246,-0.06885531,0.76792985,0.0042188168,0.005664438,0.022858143,0.32535306,-0.08838557,0.9292719,2016-11-15 21:24:54,46.411128952012106
5.8322754,-0.90979666,7.9487495,0.18341336,0.04907041,0.4269374,7.0,0.59938675,-0.08428189,0.79601,-0.0036705136,-0.008182779,0.014685214,0.31074673,-0.08681551,0.9373849,2016-11-15 21:24:56,43.525998836007645
5.985504,-0.842759,7.8912888,0.22472812,-0.0131868115,0.21457398,7.0,0.6033156,-0.08504326,0.7929552,0.011286557,-1.410693E-4,0.0064523816,0.3087909,-0.08978518,0.93746823,2016-11-15 21:24:57,55.005658368685815
6.0621185,-0.92895025,7.843405,-0.4851011,-0.027018446,-0.09659279,7.0,0.60477954,-0.09408887,0.7908154,0.014724255,-0.0015594065,0.009589791,0.30960104,-0.09247267,0.93717563,2016-11-15 21:24:58,46.106889022149716
6.0525417,-0.9576807,7.8529816,0.0137047805,-0.013018569,0.047553144,7.0,0.6096109,-0.09401234,0.7871063,0.008020461,-0.0025925636,0.0083524585,0.3118636,-0.09441624,0.9361053,2016-11-15 21:24:59,47.21617117407768
6.033388,-0.9768343,7.8050976,0.1738544,0.001250509,0.09516884,7.0,0.6115417,-0.09399439,0.7856092,0.01876241,-0.008400857,0.018677533,0.31324333,-0.09540301,0.9351749,2016-11-15 21:25:00,55.013441744948814
5.947197,-1.0151415,7.920019,0.07529531,0.020220643,-0.037915755,7.0,0.6006881,-0.09643101,0.7936466,0.007047832,-0.0014181659,0.0057825446,0.30886793,-0.08903697,0.9401771,2016-11-15 21:25:01,46.7870426493939
5.899313,-0.9672575,7.929596,0.48713052,-0.00627222,0.04987275,7.0,0.5906059,-0.09619863,0.80120564,0.011126339,0.003241323,0.009075284,0.3031668,-0.093026236,0.940193,2016-11-15 21:25:02,47.5390011087127
5.93762,-0.9959879,7.872135,-0.15023895,0.007992609,-0.32495987,7.0,0.59718496,-0.09894632,0.7959773,0.0075065494,-0.0026169643,0.006491363,0.30526868,-0.08792902,0.94165075,2016-11-15 21:25:03,54.58584015202923
5.889736,-0.9768343,7.881712,0.0142446365,-0.022255698,-0.025833448,7.0,0.59729016,-0.100778475,0.79566836,0.0036258101,0.0011560917,0.008653104,0.30573842,-0.09086838,0.940573,2016-11-15 21:25:04,51.04868395512361
5.90889,-1.0055647,7.843405,-0.007786667,-0.043896828,-0.029960293,7.0,0.59864235,-0.10536997,0.7940557,0.012980223,-9.763986E-5,0.016164243,0.30527118,-0.09364838,0.9405735,2016-11-15 21:25:05,50.22921518499879
6.081272,-0.8619126,7.8146744,-0.23962873,0.0049960352,-0.18871027,7.0,0.6124366,-0.08370869,0.78607523,0.0081653595,-0.004205659,0.0112944245,0.3151269,-0.08675971,0.9371377,2016-11-15 21:25:06,58.94742897563977
6.1100025,-0.8619126,7.795521,-0.115770996,0.024412567,-0.3519478,7.0,0.611917,-0.08752234,0.78606445,0.01345402,-0.0021692738,0.015325189,0.3152121,-0.086144544,0.93742555,2016-11-15 21:25:07,45.431486942346936
6.081272,-0.8714894,7.795521,-0.23458913,0.009945776,-0.06968762,7.0,0.6135627,-0.089397274,0.78456926,0.008000255,-0.0014702827,0.012810826,0.31606773,-0.0880397,0.93718874,2016-11-15 21:25:08,56.11556652692573
6.090849,-0.8523358,7.824251,-0.14729005,0.024403794,-0.20516518,7.0,0.6126332,-0.0870699,0.78555673,0.008931398,4.861504E-5,0.012792289,0.31553575,-0.08882115,0.9363306,2016-11-15 21:25:09,45.163205422070824
6.090849,-0.8523358,7.8529816,0.022245154,-0.0033761973,0.21683626,7.0,0.6134637,-0.08493123,0.7851426,0.008169651,-0.002007842,0.016093314,0.31667933,-0.08519661,0.93732506,2016-11-15 21:25:10,51.857289786243506
6.1195793,-0.90979666,7.833828,0.4000097,-0.031794373,0.11160743,7.0,0.6113979,-0.090737164,0.78610396,0.010071933,-1.3866276E-4,0.011347771,0.3129047,-0.09198321,0.9360048,2016-11-15 21:25:11,63.82904305002803
6.1100025,-0.8810662,7.747637,0.12367302,0.0039819027,-0.07375429,7.0,0.6142115,-0.087334625,0.78429395,0.0091609955,-0.0026684478,0.006346345,0.31516278,-0.09328577,0.93470114,2016-11-15 21:25:12,51.36792514334918
6.090849,-0.8523358,7.8050976,-0.18976124,0.024433877,-0.113713406,7.0,0.6151393,-0.08704657,0.7835984,0.008390546,-9.87649E-5,0.015705407,0.31906632,-0.07880299,0.93967974,2016-11-15 21:25:13,50.07125460399358
6.1387334,-0.8523358,7.8146744,0.06378478,-0.013332878,0.09263091,7.0,0.6138954,-0.08504353,0.78479296,0.012350917,-0.0019654706,0.012740195,0.31528148,-0.08924585,0.93590796,2016-11-15 21:25:14,49.52928794300806
6.0621185,-0.8714894,7.785944,0.5200429,-0.02076243,0.28597957,7.0,0.6139394,-0.08968326,0.78424186,0.013332903,-0.0022600666,0.010315776,0.31516925,-0.091849536,0.93561584,2016-11-15 21:25:15,47.22119212420188
6.167464,-0.8523358,7.833828,-0.6071498,-5.545875E-4,-0.17286801,7.0,0.6141914,-0.08349445,0.78472775,0.008264899,-0.0035817474,0.010750949,0.3158071,-0.087950625,0.9362609,2016-11-15 21:25:16,52.51397796651628
6.1100025,-0.842759,7.8146744,0.0346351,1.19502234E-4,0.044674806,7.0,0.6153448,-0.08623654,0.78352666,0.0111064315,-0.0026744753,0.015806139,0.31536436,-0.09278396,0.93422925,2016-11-15 21:25:17,46.22971304682836
6.14831,-0.90021986,7.776367,2.3381668E-4,2.1028833E-4,0.048040014,7.0,0.6140757,-0.0879261,0.7843341,0.0066453815,-0.0019082353,0.012946129,0.31628817,-0.088882275,0.9361145,2016-11-15 21:25:18,49.42296173859028
6.081272,-0.8523358,7.8146744,-0.1714659,0.0038967645,-0.18837954,7.0,0.6135367,-0.08549155,0.78502464,0.0089131,0.0014103875,0.0055793524,0.31660476,-0.08409865,0.9379602,2016-11-15 21:25:19,48.65248394521566
6.129156,-0.842759,7.843405,0.31421983,0.010165349,0.026320538,7.0,0.6135774,-0.087747104,0.78474396,0.009934843,0.0035606623,0.012622237,0.31507534,-0.09152637,0.93525565,2016-11-15 21:25:20,51.941033830891655
6.0716953,-0.8523358,7.7667904,-0.0011034678,-0.010925583,0.044688467,7.0,0.6133515,-0.08844421,0.7848423,0.012016535,-0.00434231,0.012622774,0.3143587,-0.094012216,0.93422145,2016-11-15 21:25:21,46.05546889618761
6.1387334,-0.89064306,7.785944,0.04373101,-0.018066596,0.067124516,7.0,0.61416954,-0.087399885,0.7843195,0.012216389,-0.003462255,0.010178924,0.31476957,-0.093699284,0.9343511,2016-11-15 21:25:22,49.14596201424702
6.090849,-0.8619126,7.833828,-0.024067141,-0.038293418,-0.050626565,7.0,0.6136001,-0.08490639,0.7850387,0.0117203,-0.0040657744,0.008544385,0.314174,-0.09203413,0.93482727,2016-11-15 21:25:23,54.5832654975213
6.1387334,-0.8523358,7.824251,-0.40616494,0.015598917,-0.16937709,7.0,0.6142325,-0.0862437,0.78439814,0.012147129,-8.299723E-4,0.014000714,0.31546876,-0.090297215,0.9354988,2016-11-15 21:25:24,51.84400982071231
6.129156,-0.89064306,7.785944,-0.3668002,-0.008564618,-0.09710827,7.0,0.61385274,-0.0914765,0.7841026,0.009624958,5.054772E-4,0.013296366,0.3144957,-0.09385493,0.93504924,2016-11-15 21:25:25,51.47244577862067
6.090849,-0.842759,7.785944,-0.33915633,-0.017950425,-0.058818035,7.0,0.6140752,-0.087691076,0.7843609,0.010415137,-0.0050352663,0.013033211,0.3155451,-0.09153923,0.9353153,2016-11-15 21:25:26,52.930191688800114
6.129156,-0.8810662,7.8050976,-0.27057952,0.00620794,0.022386586,7.0,0.6137993,-0.08677415,0.7846788,0.011600077,-0.0031233653,0.011779964,0.31557018,-0.09071656,0.9353955,2016-11-15 21:25:27,56.49188121589363
6.1004257,-0.89064306,7.785944,0.12915662,3.464708E-4,0.046305235,7.0,0.6168509,-0.09298514,0.78156805,0.008529365,0.0039542913,0.012938321,0.31537434,-0.09538989,0.9341185,2016-11-15 21:25:28,56.13073325192295
6.090849,-0.8619126,7.8050976,-0.07070829,-0.011119631,0.06203621,7.0,0.6138041,-0.09085962,0.78421235,0.0077394843,0.00281322,0.012192786,0.3150418,-0.0935449,0.93489903,2016-11-15 21:25:29,52.45530629385422
6.090849,-0.8523358,7.824251,-0.33005127,0.011432229,-0.22446436,7.0,0.61377025,-0.08462236,0.78493637,0.011677623,-0.00611794,0.011498809,0.3165884,-0.086685054,0.936638,2016-11-15 21:25:30,50.153668818045986
6.090849,-0.92895025,7.833828,-0.4153371,0.022971533,-0.18855232,7.0,0.6131718,-0.08864913,0.7849596,0.011250496,-2.9768795E-4,0.011495888,0.31517705,-0.09099211,0.93553877,2016-11-15 21:25:31,47.125106834026404
6.1100025,-0.8810662,7.8050976,-0.21758518,0.01660757,-0.20785049,7.0,0.61312604,-0.08651791,0.7852332,0.009335697,-5.569458E-4,0.007309258,0.31545496,-0.09004868,0.93610245,2016-11-15 21:25:32,44.401641963760824
6.1004257,-0.8619126,7.73806,0.039468613,0.017539293,0.10204509,7.0,0.6133104,-0.08706526,0.7850287,0.011084974,-0.0027101785,0.010487199,0.31596535,-0.08981638,0.93596786,2016-11-15 21:25:33,59.417525082612144
6.090849,-0.842759,7.8146744,0.18200953,-0.0294879,0.25526544,7.0,0.61513096,-0.08732252,0.7835743,0.007258117,-0.004361905,0.01003319,0.3155615,-0.090519324,0.9354076,2016-11-15 21:25:34,55.4993381479422
6.081272,-0.91937345,7.776367,0.21426848,-0.012148735,0.1959405,7.0,0.613736,-0.092143394,0.7841159,0.009654403,2.5641918E-4,0.012381315,0.31532505,-0.090208896,0.93668866,2016-11-15 21:25:35,51.70509236716556
6.081272,-0.8619126,7.833828,-0.16297847,0.03821919,-0.39808193,7.0,0.61335397,-0.08521919,0.7851972,0.01108098,-0.0036155805,0.013215184,0.31750953,-0.08270865,0.93812037,2016-11-15 21:25:36,47.75709348253094
6.129156,-0.8714894,7.8050976,0.13405152,-0.018570617,0.10228172,7.0,0.6128386,-0.08658691,0.78545,0.0106319785,-4.852563E-4,0.014885843,0.31645668,-0.08530523,0.9378288,2016-11-15 21:25:37,50.72406501302083
6.1004257,-0.90979666,7.7667904,0.22570454,-2.3808586E-4,0.031342797,7.0,0.6123255,-0.08965882,0.7855055,0.0072999,0.005351715,0.009875178,0.3149014,-0.090880916,0.936121,2016-11-15 21:25:38,42.015643910802055
6.129156,-0.91937345,7.8146744,-0.043404724,0.011165616,-0.058542345,7.0,0.61431485,-0.088963255,0.78402984,0.011053205,-0.00475128,0.013441086,0.31568226,-0.09006408,0.93615687,2016-11-15 21:25:39,56.567601202519874
6.1100025,-0.89064306,7.8529816,0.12134163,-0.03145318,0.28254744,7.0,0.6143938,-0.08640004,0.78425455,0.0071409345,0.0012533367,0.009222746,0.31587267,-0.08906926,0.9360678,2016-11-15 21:25:40,56.9034944642123
6.1004257,-0.8619126,7.824251,0.061098162,0.009680752,0.0016897917,7.0,0.61221856,-0.084916815,0.7861154,0.010258317,-0.0029720068,0.0122962,0.31412998,-0.09148345,0.93509775,2016-11-15 21:25:41,48.72692458045695
6.0716953,-0.8523358,7.8146744,-0.17645821,-0.0035012108,-0.0014631264,7.0,0.6122806,-0.09025702,0.785472,0.0054471493,2.7686357E-4,0.008908868,0.31552112,-0.08878466,0.9370594,2016-11-15 21:25:42,54.001771362215536
6.0525417,-0.90021986,7.881712,-0.04858999,0.23499931,0.5544323,7.0,0.6411871,-0.12019455,0.7579131,-0.051579177,0.017813645,0.04593569,0.32718405,-0.10420073,0.9324292,2016-11-15 21:25:43,52.37368370166835
6.1195793,-0.82360536,7.785944,-0.35462618,-0.0019245164,-0.13260667,7.0,0.61469156,-0.08603187,0.78406173,0.010750651,-9.386763E-4,0.011385739,0.31632164,-0.08838582,0.9361294,2016-11-15 21:25:44,49.80964160401409
6.1100025,-0.90021986,7.8146744,0.08955275,0.0019302691,8.838256E-4,7.0,0.61108685,-0.089074135,0.78653586,0.012292981,-0.0027125403,0.010957897,0.31524125,-0.08559244,0.9381682,2016-11-15 21:25:45,53.82588791220218
6.129156,-0.8523358,7.8050976,-0.21039602,0.0039912807,-0.25264198,7.0,0.61418384,-0.08790938,0.7842514,0.012233257,-4.697591E-5,0.016083062,0.31594694,-0.08867011,0.9364305,2016-11-15 21:25:46,54.2310906670075
6.1195793,-0.82360536,7.824251,0.025531506,-0.01819118,0.03888665,7.0,0.613209,-0.085913874,0.7852347,0.013022184,-1.4709681E-4,0.012306869,0.31506795,-0.088327296,0.93649673,2016-11-15 21:25:47,48.18491594932097
6.0716953,-0.8331822,7.8529816,0.067996085,0.0125678945,3.4661347E-4,7.0,0.6122441,-0.089069426,0.785636,0.01015836,5.349517E-5,0.0108626485,0.31483388,-0.089543626,0.9363998,2016-11-15 21:25:49,52.614607449888375
6.1195793,-0.89064306,7.795521,-0.074940406,0.031947114,-0.2859843,7.0,0.61216867,-0.08783011,0.7858342,0.012229621,-0.003970377,0.011625886,0.31559682,-0.08617594,0.9376168,2016-11-15 21:25:50,51.534907305262365
6.1100025,-0.80445176,7.728483,0.10334705,-0.02601442,0.08737239,7.0,0.61240184,-0.08665454,0.78578293,0.0060961843,-0.0032422692,0.0058368444,0.31401813,-0.090119146,0.9360794,2016-11-15 21:25:51,64.64660776078935
6.081272,-0.8331822,7.8146744,-0.023495063,-0.008588842,-0.04763072,7.0,0.6119578,-0.08451039,0.78636223,0.011470556,-0.003342852,0.01109606,0.31388575,-0.09206327,0.9347195,2016-11-15 21:25:52,55.22679700514165
6.1100025,-0.8523358,7.8625584,0.2086505,-0.010059365,0.2794784,7.0,0.6122921,-0.08496256,0.7860533,0.009179831,-0.0020520315,0.013346076,0.31501684,-0.086988695,0.9369909,2016-11-15 21:25:53,52.55976903073095
6.081272,-0.8523358,7.833828,0.004897666,0.009392723,0.0033293148,7.0,0.6128623,-0.08807022,0.7852665,0.008737862,-0.0056779385,0.010135829,0.31432554,-0.09189446,0.93531936,2016-11-15 21:25:54,42.324985667829004
6.0621185,-0.7757214,7.8146744,-0.034660935,0.01282017,-0.12678914,7.0,0.6117226,-0.08801488,0.78616077,0.010872066,-9.5707923E-4,0.017033756,0.314527,-0.091254644,0.9355141,2016-11-15 21:25:55,48.59910103130397
6.129156,-0.8619126,7.776367,-0.1660083,-0.0136700645,0.036986656,7.0,0.61321086,-0.08783781,0.7850204,0.011103332,-0.016177468,0.0076745152,0.3160584,-0.08796959,0.93663406,2016-11-15 21:25:56,52.08607762673644
6.1004257,-0.8714894,7.824251,-0.07951654,-0.0034060457,0.16982965,7.0,0.6117107,-0.08536363,0.7864623,0.011762261,-0.0016289577,0.013880312,0.3150201,-0.087914445,0.93667924,2016-11-15 21:25:57,48.65616027571342
6.081272,-0.90979666,7.7667904,0.20966241,-0.024804352,0.16779396,7.0,0.6140865,-0.09152852,0.78391343,0.009254754,3.9636344E-4,0.0028241873,0.3154473,-0.09131153,0.93607783,2016-11-15 21:25:58,59.26095450744589
6.1004257,-0.8714894,7.785944,0.06514591,0.005557019,0.008435627,7.0,0.61239225,-0.08521511,0.78594786,0.00920403,-0.0018034056,0.014331281,0.31442901,-0.09105202,0.93547565,2016-11-15 21:25:59,59.91500776997246
6.0716953,-0.8331822,7.824251,0.18149042,0.023598263,-0.08834808,7.0,0.6138878,-0.08475932,0.78482974,0.009596884,-0.0012949482,0.014522433,0.3167404,-0.08464166,0.93750346,2016-11-15 21:26:00,51.28087404799779
6.0716953,-0.8810662,7.824251,-0.36736333,0.014066911,-0.16548653,7.0,0.6107254,-0.08779809,0.78695995,0.010751665,-0.0037605688,0.012473404,0.3141727,-0.0881946,0.93679005,2016-11-15 21:26:01,53.39342647016659
6.0716953,-0.842759,7.8625584,0.02792469,0.0261933,-0.0536897,7.0,0.6123432,-0.08627588,0.78587043,0.014050305,9.985641E-4,0.017386436,0.31415078,-0.090454265,0.9360344,2016-11-15 21:26:02,54.34891700750591
6.1100025,-0.842759,7.8529816,0.26239705,0.008984579,0.06626468,7.0,0.6131957,-0.08605827,0.78522927,0.010299325,-0.0067046657,0.013151944,0.31609932,-0.08536792,0.9374854,2016-11-15 21:26:03,53.872747816529156
6.1195793,-0.8714894,7.8146744,0.06581391,0.0038099133,-0.03939482,7.0,0.61258966,-0.08558499,0.7857539,0.012830257,-4.5718998E-4,0.014591634,0.31601948,-0.08571657,0.9374067,2016-11-15 21:26:04,55.76756191716648
6.090849,-0.8810662,7.843405,0.05340877,0.019675951,-0.14157423,7.0,0.6125988,-0.08820109,0.7854574,0.008973837,-0.0017981008,0.0128801465,0.31512183,-0.08936031,0.9366229,2016-11-15 21:26:05,54.41857213204173
6.090849,-0.90021986,7.833828,0.394113,-0.0033063912,0.21133007,7.0,0.612471,-0.08478174,0.78593343,0.011245668,-0.004114002,0.016179502,0.3155997,-0.08888479,0.936167,2016-11-15 21:26:06,50.223594804167035
6.1195793,-0.8523358,7.872135,0.19951543,0.024411859,0.026664466,7.0,0.61078906,-0.08464252,0.7872562,0.008914053,-0.002259031,0.01201123,0.31460774,-0.08831684,0.93641555,2016-11-15 21:26:07,50.356334035536385
6.1004257,-0.90021986,7.8529816,-0.073890865,-0.010464752,0.011637868,7.0,0.6107923,-0.08623072,0.78708136,0.009758592,-0.005395524,0.011327088,0.31423113,-0.08738069,0.9372252,2016-11-15 21:26:08,49.83683341839526
6.1195793,-0.8810662,7.833828,-0.41797346,0.027573066,-0.32146257,7.0,0.61384803,-0.08618681,0.7847053,0.010510087,0.0030134693,0.011790693,0.3175361,-0.08141175,0.9389159,2016-11-15 21:26:09,41.378707552390956
6.1004257,-0.842759,7.785944,8.190628E-4,-0.045423314,0.14030658,7.0,0.6114279,-0.08435641,0.7867909,0.014827728,-0.0035720766,0.011717558,0.31540322,-0.08489374,0.9376211,2016-11-15 21:26:10,56.98559673701165
6.1004257,-0.8714894,7.8050976,0.1313221,-0.013973926,0.23189135,7.0,0.611304,-0.08826394,0.7864585,0.010336578,-9.810403E-4,0.015710413,0.31492704,-0.0894852,0.93670356,2016-11-15 21:26:11,54.77938810125656
6.1195793,-0.90021986,7.8050976,0.09755574,-0.03115677,0.27664852,7.0,0.61194074,-0.09023226,0.7857396,0.0076129436,-0.0034767613,0.011693597,0.31399465,-0.09090887,0.9362296,2016-11-15 21:26:12,50.48005768795711
6.0716953,-0.82360536,7.824251,0.12351964,0.0022977595,0.011182738,7.0,0.6130507,-0.08801797,0.78512526,0.009436607,0.0037348121,0.011290133,0.3153518,-0.09015155,0.9361426,2016-11-15 21:26:13,49.414014371897
6.0621185,-0.8714894,7.824251,0.27113205,-0.00680632,0.19164693,7.0,0.61472565,-0.08609726,0.7840278,0.00874424,-0.0018553287,0.0124102235,0.31558216,-0.09045731,0.935471,2016-11-15 21:26:14,48.708788623551186
6.1100025,-0.842759,7.8529816,0.18731368,-0.0055581955,0.15110117,7.0,0.61240405,-0.08867615,0.7855557,0.010113776,0.0035725236,0.012807846,0.3138922,-0.092429645,0.9352533,2016-11-15 21:26:15,48.792268317645295
6.0716953,-0.89064306,7.8050976,-0.039155208,0.019958043,-6.462671E-4,7.0,0.61444736,-0.09088125,0.78370595,0.0053110123,-6.751716E-5,0.012569904,0.31586066,-0.09173436,0.9357257,2016-11-15 21:26:16,54.918700694207075
6.0716953,-0.93852705,7.8529816,0.13908114,0.08771747,0.18985161,7.0,0.6047332,-0.095385574,0.7906954,0.02071625,-3.079325E-4,0.006709814,0.31393945,-0.08647956,0.93917125,2016-11-15 21:26:17,54.34120024248721
5.8801594,-1.091756,7.8625584,-0.0830777,1.7088756E-4,-0.13486597,7.0,0.59328663,-0.10373366,0.7982796,0.007009387,-0.00316979,0.017572463,0.30680147,-0.088356316,0.94137925,2016-11-15 21:26:18,52.71624162949715
5.8801594,-1.0342951,7.881712,0.41418573,-0.06252276,0.6937114,7.0,0.59186625,-0.10947403,0.7985673,0.013811469,-9.904057E-4,0.008764982,0.30300203,-0.092329875,0.9423405,2016-11-15 21:26:19,52.697014915760825
5.9663506,-0.9768343,7.8912888,0.23333216,0.005699389,0.046439543,7.0,0.60029775,-0.098413765,0.79369855,0.0075899363,0.0033988208,0.015375495,0.30923048,-0.084390946,0.94231886,2016-11-15 21:26:20,49.492531497904785
5.995081,-0.94810385,7.872135,0.13172111,0.004144343,0.028237373,7.0,0.5993844,-0.09517008,0.79478353,0.0037475228,0.0012476742,0.011275411,0.3079871,-0.08917134,0.9396977,2016-11-15 21:26:21,45.18000626285576
5.985504,-0.9576807,7.833828,-0.25955284,-0.035181396,0.12559153,7.0,0.60249263,-0.09759592,0.79213494,0.008192062,-0.0020484105,0.0063238144,0.31022927,-0.08677396,0.94077706,2016-11-15 21:26:22,53.436160117940915
6.0142345,-0.92895025,7.843405,-0.31699476,-0.01898768,-0.09897382,7.0,0.60415673,-0.09168594,0.7915733,0.009590983,7.864088E-4,0.008733571,0.31217077,-0.08388762,0.9404303,2016-11-15 21:26:23,54.79382600531281
6.033388,-0.92895025,7.8625584,-0.12864241,-0.003027871,0.11227554,7.0,0.6065898,-0.093859226,0.78945494,0.010067821,1.5791506E-4,0.012838364,0.31249216,-0.08677509,0.9391149,2016-11-15 21:26:24,52.75325230816006
6.0238113,-0.9576807,7.8146744,0.048234537,0.001070067,0.19654676,7.0,0.60772866,-0.09633123,0.78828055,0.005078256,0.0015704557,0.011026502,0.31323826,-0.08760125,0.939091,2016-11-15 21:26:25,49.72470640174504
6.090849,-0.90021986,7.8912888,-0.06398422,-0.018171167,0.02855947,7.0,0.60607696,-0.08982396,0.7903179,0.0105781555,-0.0031259507,0.011951208,0.31246227,-0.08753616,0.93868184,2016-11-15 21:26:26,49.95709215757614
6.0142345,-0.8714894,7.8529816,-0.017237224,-0.0076713334,-0.038141407,7.0,0.6075832,-0.08906217,0.78924686,0.008073449,-0.002744712,0.0130572915,0.31218287,-0.0873864,0.93843913,2016-11-15 21:26:27,49.251135747606725
6.0716953,-0.90979666,7.785944,0.03777032,-0.03419961,-0.031199148,7.0,0.60810286,-0.0946092,0.78820044,0.012414873,0.0016499311,0.010193288,0.31403214,-0.08604529,0.93950164,2016-11-15 21:26:28,55.10235719401184
6.090849,-0.89064306,7.872135,-0.41153663,0.016136337,-0.24022517,7.0,0.60985595,-0.08810696,0.78759956,0.011680126,-0.0028231516,0.01565808,0.3159022,-0.07997292,0.9402851,2016-11-15 21:26:29,54.017536671599366
6.0525417,-0.8810662,7.824251,-0.02025843,-0.00713919,0.12171344,7.0,0.60882014,-0.08772933,0.78844255,0.008777618,-0.0022639409,0.00994724,0.31418428,-0.08365549,0.93930537,2016-11-15 21:26:30,51.35072109741045
6.042965,-0.90021986,7.8529816,0.056354016,-0.048968147,-0.02905074,7.0,0.60724014,-0.09267297,0.7890951,0.012233913,-0.0011524409,0.0074087977,0.3116735,-0.09006821,0.93796265,2016-11-15 21:26:31,53.94350169410637
6.1004257,-0.92895025,7.843405,0.054106023,-0.028572844,0.17980094,7.0,0.6090251,-0.09147953,0.7878578,0.013358951,-0.003262207,0.012579143,0.31220052,-0.09272741,0.9362999,2016-11-15 21:26:32,48.28855360233841
6.033388,-0.8714894,7.881712,-0.13673761,0.007888167,-0.095058575,7.0,0.6094093,-0.0868988,0.7880793,0.01107806,-9.89981E-4,0.010359645,0.3127716,-0.089298755,0.9368342,2016-11-15 21:26:33,53.03437170659922
5.765238,-1.1971009,8.073248,0.032087345,0.042825267,-0.04774312,7.0,0.57906353,-0.11827253,0.80665797,0.009245753,-0.0037561655,0.017147005,0.29672188,-0.094508596,0.94466645,2016-11-15 21:26:34,54.400752582359985
5.746084,-1.2258313,8.025364,9.644742E-5,0.009312452,-0.15910937,7.0,0.5746655,-0.124235295,0.80890375,0.010741949,-0.0018363297,0.0129060745,0.29373,-0.09761512,0.94527906,2016-11-15 21:26:35,54.488787992163864
5.6790466,-1.2449849,8.0924015,0.35831144,0.0028305575,0.20212074,7.0,0.57239276,-0.12044123,0.81108594,0.007220745,-0.0065555125,0.0145917535,0.29225433,-0.096245304,0.9457721,2016-11-15 21:26:36,50.93063266245402
5.6886234,-1.1587936,8.015787,0.0016336507,-0.018580526,-0.020598125,7.0,0.57328343,-0.12016881,0.8104972,0.012936175,-0.0059029907,0.01045233,0.29167944,-0.097978376,0.9450559,2016-11-15 21:26:38,51.470085986030156
5.6982,-1.2641385,8.121132,0.024603937,0.02558684,-0.009166469,7.0,0.5722371,-0.12517308,0.81047904,0.004306495,-0.0047316104,0.010413885,0.29116648,-0.1002311,0.9449343,2016-11-15 21:26:39,53.81470545782838
5.6982,-1.1971009,8.025364,-0.008858649,-0.030076256,0.05276953,7.0,0.5747018,-0.12219726,0.8091883,0.0047653913,-1.0736287E-5,0.01560086,0.29234612,-0.098267056,0.9451603,2016-11-15 21:26:40,53.779004944005536
5.6982,-1.2258313,8.082825,0.22294137,-0.0123369945,0.16025768,7.0,0.56938607,-0.12259366,0.8128777,0.009021044,-0.0043212697,0.01199615,0.28957954,-0.09847148,0.9458411,2016-11-15 21:26:41,51.8551805032233
5.66947,-1.2162545,8.0445175,0.061132133,-0.015066458,0.14157084,7.0,0.57089096,-0.12584202,0.8113244,0.0078047514,0.0015433282,0.009389639,0.2904365,-0.102003604,0.94453406,2016-11-15 21:26:42,54.30763104403769
5.6407394,-1.2354081,8.082825,0.09739183,-0.02522787,0.16523884,7.0,0.5715891,-0.123560235,0.81118363,0.0077980757,-5.947277E-4,0.007799566,0.28984606,-0.10145365,0.944423,2016-11-15 21:26:43,54.651650050787204
5.717354,-1.1875241,8.025364,0.038183168,0.0014832746,-0.014046089,7.0,0.5709576,-0.119952224,0.8121693,0.012328744,-0.0013801008,0.006804645,0.29009748,-0.10011433,0.9445923,2016-11-15 21:26:44,51.621186949954435
5.659893,-1.1587936,8.073248,-0.1584535,0.012460702,-0.07350464,7.0,0.570131,-0.12311447,0.8122767,0.0092564225,-9.2025846E-4,0.011610389,0.2904915,-0.09806737,0.9455333,2016-11-15 21:26:45,52.32955430417091
5.7843914,-1.13964,8.00621,0.027696261,-0.034363173,-0.013252845,7.0,0.58949006,-0.110245824,0.80021703,0.009269178,6.5057725E-4,0.009111464,0.29969662,-0.09784147,0.94119114,2016-11-15 21:26:46,50.3649561942314
5.6407394,-1.3024458,8.2169,-0.049688447,-0.0019969912,0.05316472,8.0,0.54822373,-0.13040869,0.8261018,0.011273921,-0.015828714,0.008803487,0.278603,-0.09678667,0.9501888,2016-11-15 21:26:47,45.77153165172324
5.6790466,-0.91937345,8.829816,-0.39402342,-0.5291335,-2.6484008,9.0,0.37275305,-0.13807379,0.9176005,0.20059144,0.042438924,-0.014349461,0.18821609,-0.08445864,0.97596097,2016-11-15 21:26:48,57.54287824321699
4.453215,-1.091756,8.916007,-0.032325655,0.056174286,0.087593816,9.0,0.44001985,-0.11427217,0.89068764,0.020760566,0.005464062,0.02675879,0.21786459,-0.08687076,0.96341485,2016-11-15 21:26:49,56.666786935919696
4.6926355,-1.1204864,8.925584,0.25054455,-0.06948459,-0.06648451,9.0,0.4551311,-0.105934784,0.8841004,0.023243606,-0.008307576,0.026924431,0.2212271,-0.08562422,0.96294266,2016-11-15 21:26:50,52.58313236594813
5.00867,-0.8619126,8.599973,0.13429487,0.0055867606,0.15506604,8.0,0.504958,-0.08976529,0.8584636,0.00907141,-0.0011729226,0.018096328,0.2512976,-0.084330976,0.9539419,2016-11-15 21:26:51,55.84799433604918
5.104438,-0.7757214,8.523358,0.31688356,-0.0017754011,0.09272101,8.0,0.51123834,-0.08146927,0.85556895,0.007676363,3.35671E-4,0.012199998,0.2555276,-0.0834078,0.9513108,2016-11-15 21:26:52,55.57862409643141
5.0278234,-0.92895025,8.6095495,-0.032494955,-2.83674E-4,0.0050420696,8.0,0.5024903,-0.09304328,0.85956174,0.010716438,-0.0017211139,0.01887101,0.25187925,-0.08459227,0.953978,2016-11-15 21:26:53,64.52814492805172
5.046977,-0.90021986,8.561666,0.072177224,-0.055422727,-0.066969216,8.0,0.51711494,-0.088820346,0.85129505,0.0048013926,-0.0013309941,0.013476133,0.2573748,-0.085994266,0.95241994,2016-11-15 21:26:54,56.068429763843135
5.2768207,-0.81402856,8.446744,-0.1774775,0.0064180708,-0.13050158,8.0,0.51603085,-0.08322511,0.8525173,0.006918013,0.0019857436,0.017119765,0.25983,-0.07986076,0.95324343,2016-11-15 21:26:55,58.90846357558179
5.2002063,-0.7757214,8.446744,0.100095995,-3.223971E-4,0.046828598,8.0,0.5179693,-0.08186791,0.8514725,0.010877609,-0.0021282062,0.01620555,0.26009774,-0.08219666,0.9515937,2016-11-15 21:26:56,53.12243393316528
5.1523223,-0.91937345,8.465898,5.9662387E-4,0.026159834,-0.15634528,8.0,0.514732,-0.08880136,0.85273993,0.008127809,-0.0011189282,0.0071899295,0.25838035,-0.08260409,0.95351326,2016-11-15 21:26:57,55.080177831117545
5.104438,-0.80445176,8.504205,0.0012317474,-0.013703066,0.19436438,8.0,0.516848,-0.08369911,0.8519756,0.013939738,-0.0022726133,0.014731705,0.2608065,-0.07735281,0.95468825,2016-11-15 21:26:58,59.309672027614255
5.21936,-0.81402856,8.504205,0.5243471,-0.009334047,0.05053332,8.0,0.5155786,-0.085784614,0.8525372,0.011034906,0.0016192347,0.013338923,0.2593131,-0.07856114,0.95462525,2016-11-15 21:26:59,53.07557416001936
5.1906295,-0.8714894,8.389283,-0.10352421,-0.027983828,0.09579402,8.0,0.5235688,-0.084180325,0.84781456,0.011773229,-0.008318886,0.014241278,0.26395226,-0.077225186,0.95370555,2016-11-15 21:27:00,57.378128655589784
4.999093,-1.0534488,8.619126,-0.044448495,0.10835787,0.34852567,9.0,0.5119071,-0.100750335,0.8531122,3.5071373E-4,-0.005540967,0.009689331,0.26027256,-0.08163118,0.9556366,2016-11-15 21:27:01,56.32475309379746
5.209783,-0.9576807,8.42759,-0.32807824,-0.0067382064,-0.24650754,9.0,0.5247677,-0.093789294,0.84606284,0.005943477,-0.0019892305,0.016777456,0.26298767,-0.087471195,0.95163715,2016-11-15 21:27:02,55.17905861270683
5.209783,-0.93852705,8.494628,0.052826844,-0.0068855756,0.10112659,9.0,0.5226784,-0.094070375,0.8473241,0.008933604,-0.0017130747,0.019472063,0.26324666,-0.08293346,0.95346075,2016-11-15 21:27:03,49.46272868602806
5.21936,-0.90021986,8.437167,0.0506218,0.024932345,0.017851217,9.0,0.52281564,-0.09590189,0.8470339,0.0059779286,-0.0028584301,0.010892093,0.26194268,-0.09011758,0.95030135,2016-11-15 21:27:04,56.78279756918897
5.21936,-0.8714894,8.408437,0.02870313,0.021959146,-0.02020802,9.0,0.523208,-0.093053356,0.84710944,0.006475091,-0.0036650002,0.01576668,0.2627421,-0.086962834,0.9513307,2016-11-15 21:27:05,52.06889267834355
5.209783,-0.90979666,8.408437,0.10722195,-3.502267E-4,0.015457244,9.0,0.5222868,-0.09118519,0.8478808,0.009197891,0.0021094158,0.013116181,0.26202312,-0.08591079,0.9512795,2016-11-15 21:27:06,56.12585589581556
5.2959743,-0.9768343,8.418014,0.031720787,0.0042056087,0.10582699,8.0,0.5259284,-0.093782976,0.8453425,0.0087323785,0.0027734265,0.015504777,0.26432794,-0.087468214,0.9507214,2016-11-15 21:27:07,56.9776474964776
5.0182467,-1.1300632,8.599973,-0.3600901,0.028953198,-0.21560025,9.0,0.50629044,-0.115769364,0.85455686,0.0059719086,4.6394765E-4,0.022875905,0.25584102,-0.08789818,0.95698065,2016-11-15 21:27:08,52.08200492717833
5.0661306,-1.1779473,8.542512,-0.22604343,0.009437417,-0.14308786,9.0,0.50477314,-0.11579862,0.85545003,0.0052960515,-0.0013710633,0.018227458,0.25351724,-0.087258585,0.9577713,2016-11-15 21:27:09,50.495003676950645
5.0182467,-1.1779473,8.628703,0.07161373,-0.005332422,0.1649221,9.0,0.50535065,-0.11973719,0.85456645,0.0066361427,0.0052559674,0.019099295,0.25308943,-0.09500648,0.9550905,2016-11-15 21:27:10,66.11177993025473
5.094861,-1.1875241,8.475474,0.3047798,0.042427152,-0.14108369,9.0,0.5084369,-0.11854917,0.85289973,0.0096052885,-0.0036403313,0.018712759,0.25474676,-0.09218362,0.9558466,2016-11-15 21:27:11,54.66710311429221
5.1523223,-1.1779473,8.446744,0.046981607,0.013499905,0.038649417,9.0,0.50975406,-0.114845924,0.85262024,0.009302855,-0.0043227077,0.018004715,0.25538152,-0.09431762,0.9537777,2016-11-15 21:27:12,56.69603723190639
5.104438,-1.1300632,8.485051,0.0152008515,0.005743947,0.14127187,9.0,0.5132968,-0.1116804,0.8509135,0.007550657,-0.0045600757,0.015899837,0.2570372,-0.09293039,0.9536334,2016-11-15 21:27:13,57.59643904333241
5.21936,-1.1300632,8.475474,0.04257331,-0.006258604,0.08287882,9.0,0.5147483,-0.11612684,0.84944034,0.012139201,-0.008681402,0.0094797015,0.25716928,-0.095948815,0.952818,2016-11-15 21:27:14,56.49477784372246
5.046977,-1.1492168,8.408437,0.022885382,-0.0051772725,0.04312166,9.0,0.5191737,-0.11971941,0.8462423,0.013174236,-0.005453624,0.012873411,0.25902277,-0.09892735,0.9520453,2016-11-15 21:27:15,73.47265871222238
5.171476,-1.2162545,8.39886,-0.056000642,0.038885713,-0.2796396,9.0,0.52215624,-0.11913653,0.84448755,0.0018838644,-0.0058243126,0.012403429,0.26310623,-0.09193491,0.9543708,2016-11-15 21:27:16,52.72006646751282
5.2002063,-1.2545617,8.437167,-0.018005483,-0.008766124,0.094635025,9.0,0.5188754,-0.11906449,0.84651756,0.011692703,-0.008637436,0.0145020485,0.26028088,-0.093774796,0.9537546,2016-11-15 21:27:17,60.800404200912475
5.1810527,-1.1875241,8.39886,-0.07111964,0.040110968,-0.32607263,9.0,0.5203596,-0.11793847,0.84576374,0.0053598285,-2.9874593E-4,0.015189707,0.26278695,-0.08900333,0.9556852,2016-11-15 21:27:18,55.13808322109226
5.21936,-1.1587936,8.418014,0.054057553,-0.047166586,0.26359054,9.0,0.5179861,-0.119399436,0.8470148,0.014358759,0.0011528507,0.012114346,0.2606352,-0.09108155,0.9550152,2016-11-15 21:27:19,57.449464549405135
4.9703627,-1.2641385,8.504205,-0.06380267,-0.012842793,-0.17491996,9.0,0.50632817,-0.12491209,0.85324603,0.017811418,-0.005862415,0.0061347485,0.2550042,-0.094503485,0.95593727,2016-11-15 21:27:20,53.514017836636604
5.2002063,-1.292869,8.408437,0.064207554,-0.015723722,-0.020370105,8.0,0.5108913,-0.1257047,0.8504048,0.019426465,-0.006114498,0.0078042746,0.2546475,-0.09982889,0.95355344,2016-11-15 21:27:21,56.24142363265445
5.2289367,-1.1875241,8.446744,0.06772521,-0.046431728,0.21028142,8.0,0.51702803,-0.12128098,0.84733284,0.011595666,9.250939E-4,0.014590919,0.2581409,-0.097777404,0.95294875,2016-11-15 21:27:22,72.49736369937821
5.7269306,-1.3790601,8.159439,-0.66427064,-0.23527876,-0.14373146,8.0,0.5541176,-0.13514566,0.8213947,0.028345108,-0.0048121363,0.012624204,0.27198002,-0.09858816,0.9513204,2016-11-15 21:27:23,50.96001235374888
5.506664,-1.3215994,8.24563,0.003779943,0.105275854,-0.47908136,8.0,0.5670694,-0.16893464,0.80615956,5.4740906E-4,0.029794648,0.025371611,0.28736055,-0.13212131,0.9415435,2016-11-15 21:27:24,58.48590637036574
5.535394,-1.3311762,8.2169,0.05110595,-0.031159606,0.2458352,8.0,0.54976654,-0.13126916,0.8249394,0.0149225,-0.004547432,0.013620436,0.27411112,-0.110216714,0.94501656,2016-11-15 21:27:25,56.36220669975262
5.554548,-1.1779473,8.197746,0.02446992,-0.020330407,0.005688207,8.0,0.5540846,-0.11962024,0.8238212,0.013405561,1.8702447E-4,0.014793992,0.27682692,-0.10646464,0.94415194,2016-11-15 21:27:26,52.724169267599244
5.5641246,-1.2449849,8.1402855,-0.03436593,0.02811001,-0.26736468,8.0,0.55804,-0.12332219,0.8205992,0.008734703,-0.0044636875,0.0139965415,0.28174722,-0.100691505,0.9462384,2016-11-15 21:27:27,53.93064109462109
5.5641246,-1.1875241,8.149862,-0.14561161,0.019902451,-0.39250052,8.0,0.5609069,-0.12229284,0.8187967,0.008823276,-0.0037168115,0.013801575,0.2836935,-0.10040311,0.9463132,2016-11-15 21:27:28,52.451014459507874
5.583278,-1.1683705,8.149862,-0.10052855,0.060261615,-0.40427998,8.0,0.56070745,-0.12131817,0.81907827,0.0072647333,-0.0028113872,0.018260598,0.28320915,-0.10095141,0.94579434,2016-11-15 21:27:29,53.046050912219926
5.583278,-1.2066777,8.159439,0.36909315,-0.016319185,0.5508538,8.0,0.55943805,-0.12074397,0.8200304,0.010350168,-0.0024037212,0.012517929,0.28179833,-0.1046604,0.9439482,2016-11-15 21:27:30,71.45240639127539
5.6120086,-1.2162545,8.1402855,0.13595939,-0.007670909,0.17092331,8.0,0.56360734,-0.12404241,0.8166763,0.007073045,-1.0531396E-4,0.014949262,0.28198507,-0.10784794,0.94274545,2016-11-15 21:27:31,56.48941955727092
5.583278,-1.2258313,8.169016,0.023029976,0.007793843,0.14339574,8.0,0.5615703,-0.12024314,0.8186454,0.007190287,-0.0057105944,0.016887307,0.28231394,-0.10494398,0.9435497,2016-11-15 21:27:32,57.07786206926758
5.6407394,-1.1971009,8.159439,0.112571396,-0.020616557,0.046818346,8.0,0.56482697,-0.1182832,0.8166882,0.011510849,-0.004622735,0.0073009133,0.28400856,-0.10383277,0.94331783,2016-11-15 21:27:33,54.346247839201894
5.6407394,-1.2545617,8.121132,-0.20197906,-0.022407003,-0.013631063,8.0,0.56302327,-0.12668338,0.8166739,0.009587228,-0.0042268336,0.014003336,0.2819691,-0.10853349,0.9429005,2016-11-15 21:27:34,58.858313263143394
5.592855,-1.2545617,8.0924015,0.06917792,-0.0028648027,0.011977317,8.0,0.5636963,-0.1233961,0.81671286,0.009843767,-0.0017442778,0.012028575,0.28297475,-0.10721992,0.9430378,2016-11-15 21:27:35,51.0984606008703
5.6120086,-1.1875241,8.169016,0.052486524,-0.0020648437,0.008117795,8.0,0.56229,-0.12495924,0.8174442,0.009313881,-0.0010144114,0.012283504,0.28330553,-0.1032414,0.94506896,2016-11-15 21:27:36,54.469892150263696
5.6120086,-1.1971009,8.130709,-0.0969045,-0.022352898,0.07641364,8.0,0.5628056,-0.12271741,0.817429,0.010748267,-0.004200503,0.012306511,0.285104,-0.0991386,0.94647616,2016-11-15 21:27:37,54.47339182248436
5.650316,-1.2449849,8.0924015,0.27304775,-0.012049222,0.101265155,8.0,0.5653069,-0.12320713,0.8156274,0.009342611,-0.0017447844,0.014028311,0.28525198,-0.10368902,0.94407356,2016-11-15 21:27:39,58.384786167325025
5.602432,-1.1779473,8.159439,0.26533604,-0.0034715557,0.064506926,8.0,0.5633902,-0.11873336,0.8176148,0.008248031,-0.001502797,0.015002131,0.28344288,-0.1037449,0.9437243,2016-11-15 21:27:40,53.304117397030176
5.6120086,-1.2066777,8.169016,0.011156386,0.03543664,-0.13576308,8.0,0.56377864,-0.11918637,0.81728107,0.0070788264,-0.0030508265,0.017148018,0.28397545,-0.10404137,0.9436107,2016-11-15 21:27:41,52.637983760334244
5.6120086,-1.2258313,8.073248,-0.072740406,-0.023609648,-0.011567216,8.0,0.5634865,-0.12545726,0.8165435,0.010046959,0.0012259185,0.012191772,0.28303292,-0.10705086,0.9433262,2016-11-15 21:27:42,51.818236763720705
5.631162,-1.1683705,8.149862,0.01793939,-0.0016157423,-0.06700248,8.0,0.5637715,-0.121320955,0.8169718,0.01075685,0.003950037,0.011754811,0.28419787,-0.10317368,0.94430673,2016-11-15 21:27:43,54.763469234948715
5.602432,-1.1683705,8.0924015,-0.34570962,0.0020193895,-0.27701747,8.0,0.5654231,-0.12103397,0.8158723,0.0061973333,0.0016475096,0.013806403,0.2841704,-0.10416532,0.94365054,2016-11-15 21:27:44,54.276950170789576
5.5737014,-1.2641385,8.101978,0.044900805,0.017866196,-0.08863577,8.0,0.5640584,-0.12003408,0.81696385,0.010392547,-0.0021420792,0.007919431,0.28349045,-0.10516689,0.94311327,2016-11-15 21:27:45,49.15029927158612
5.6120086,-1.1875241,8.149862,-0.0012858233,0.018798262,-0.12559986,8.0,0.56504923,-0.11695714,0.81672543,0.012433648,-0.0062173083,0.009063065,0.2851763,-0.102347575,0.9440039,2016-11-15 21:27:46,51.56730763430951
5.592855,-1.1492168,8.149862,-0.22313918,-0.025563419,0.08169182,8.0,0.56375307,-0.1170303,0.81761014,0.014592767,-0.004193604,0.0141198635,0.28372103,-0.10163261,0.94443876,2016-11-15 21:27:47,53.92662324806469
5.6120086,-1.1971009,8.1402855,-0.35302642,-0.006405719,-0.07052624,8.0,0.56306267,-0.12040356,0.81759614,0.010420501,-0.0018290058,0.014112771,0.28404072,-0.101016045,0.9452818,2016-11-15 21:27:48,50.01490922355414
5.410896,-1.0342951,8.264784,0.33104348,-0.04173661,-0.03808374,8.0,0.5446219,-0.11182572,0.8311931,0.005906284,0.003444083,0.017330408,0.27088565,-0.1001368,0.9477753,2016-11-15 21:27:49,55.894867143483104
5.439626,-1.0821792,8.130709,0.052061632,-0.04466057,0.15180333,8.0,0.5594822,-0.102662966,0.8224597,0.0031836033,0.0010652244,0.0034466982,0.2813482,-0.097305045,0.94344586,2016-11-15 21:27:50,56.56565087166637
5.631162,-1.0247183,8.159439,-0.15960264,-0.008225295,-0.026111811,8.0,0.56548804,-0.102583006,0.81835204,0.007214308,-2.2545457E-5,0.011279106,0.286114,-0.093979076,0.9445381,2016-11-15 21:27:51,56.43434329624381
5.602432,-1.0055647,8.159439,0.042890884,0.010257519,0.03847879,8.0,0.5639428,-0.10172802,0.8195241,0.0077314973,0.0028405935,0.004254997,0.28564966,-0.09427883,0.94437593,2016-11-15 21:27:52,51.952649667797175
5.554548,-0.92895025,8.169016,-0.044008084,0.062167514,-0.25818425,8.0,0.56087494,-0.098384574,0.822034,0.005961716,0.0033406243,0.01147747,0.28593016,-0.08657007,0.94743514,2016-11-15 21:27:53,56.077038111687195
5.5641246,-0.9864111,8.197746,-0.10971207,-0.002751079,-0.12720937,8.0,0.5625231,-0.096856184,0.8210886,0.011027217,-0.0037530884,0.013522208,0.2854995,-0.0873784,0.9468748,2016-11-15 21:27:54,48.01420833323455
5.5641246,-1.0151415,8.149862,-0.08674771,-0.0012953405,-0.08818938,8.0,0.5601309,-0.09970179,0.82238245,0.007595122,-0.0037018731,0.009286642,0.28363016,-0.09120393,0.94558233,2016-11-15 21:27:55,53.36426030521811
5.6215854,-0.9768343,8.178593,0.0015421044,0.04102387,-0.25104156,8.0,0.5637573,-0.096225865,0.82031596,0.0050610304,-0.0034147277,0.011256576,0.28635618,-0.08843335,0.9459104,2016-11-15 21:27:56,53.52826894756916
5.5737014,-0.93852705,8.178593,0.010547027,0.044040017,-0.20917208,8.0,0.56234765,-0.09764454,0.82111555,0.0064530373,0.0016434416,0.013368964,0.28610045,-0.08949802,0.94609046,2016-11-15 21:27:57,52.30690265622695
5.5641246,-1.0151415,8.149862,0.030613579,0.004007746,0.04462801,8.0,0.56161743,-0.097609274,0.8216194,0.0070952773,-0.004807487,0.011021376,0.28541252,-0.08844389,0.9462763,2016-11-15 21:27:58,41.36625719988104
5.6215854,-0.9768343,8.130709,-0.058527417,-0.04431601,0.14121288,8.0,0.56510764,-0.09765583,0.8192171,0.008378804,-0.0020194426,0.0105471015,0.28694677,-0.08760703,0.9466183,2016-11-15 21:27:59,62.444093413832505
5.631162,-0.9576807,8.159439,0.08311386,-0.0044008964,0.21600474,8.0,0.5640116,-0.092427246,0.82057786,0.0066144466,-0.00517226,0.011105061,0.28590506,-0.08935338,0.9448172,2016-11-15 21:28:00,49.929040039965464
5.631162,-1.0151415,8.111555,0.064105965,-0.017666578,0.093135074,8.0,0.5622155,-0.09709934,0.82127064,0.012288749,-0.0062520728,0.0065381527,0.2844681,-0.092140935,0.94442815,2016-11-15 21:28:01,54.209804698866506
5.6120086,-0.94810385,8.207323,0.016157102,0.012386604,0.025476705,8.0,0.56498194,-0.09896599,0.8191467,0.0077590942,0.0019950718,0.019225359,0.2855215,-0.09439943,0.94374907,2016-11-15 21:28:02,52.506956846710224
5.602432,-0.9576807,8.1881695,0.23883802,-0.018175479,0.12605532,8.0,0.5623309,-0.098398976,0.8210369,0.010175645,0.0016185939,0.013610184,0.28577927,-0.08786825,0.9465815,2016-11-15 21:28:03,54.38145065868846
5.592855,-1.0151415,8.197746,-0.056337997,-0.008593074,0.1490446,8.0,0.562229,-0.09811879,0.82114017,0.009427905,-5.2165985E-4,0.014407992,0.28527954,-0.090563506,0.945396,2016-11-15 21:28:04,54.92357243137364
5.583278,-0.9576807,8.169016,0.15372701,-0.018852245,0.11436685,8.0,0.5612602,-0.09709738,0.821924,0.010307014,-0.0015969276,0.01270169,0.28485382,-0.08997592,0.9459016,2016-11-15 21:28:05,49.72926108147129
5.6120086,-0.9576807,8.178593,0.08343907,-0.025894951,0.15983036,8.0,0.5618918,-0.095871866,0.8216363,0.0085680485,-7.551834E-4,0.0111371875,0.284918,-0.087588415,0.9465159,2016-11-15 21:28:06,56.36835226444988
5.6215854,-0.9768343,8.149862,-0.20225182,0.023116672,-0.26083893,8.0,0.5623606,-0.095088296,0.82140654,0.0094611645,-0.0025197044,0.016966522,0.28627968,-0.0862074,0.94681066,2016-11-15 21:28:07,52.63233390381835
5.410896,-1.2641385,8.303091,-0.17900506,0.07097887,-0.092282236,8.0,0.55148864,-0.121485665,0.8252887,0.0046213865,-0.0025400296,0.01606816,0.2807565,-0.09542026,0.9481437,2016-11-15 21:28:08,49.592248847299196
5.401319,-1.2641385,8.303091,-0.18286279,0.0068319035,0.17233248,8.0,0.5361672,-0.1284477,0.8342816,0.014255583,4.899055E-4,0.008915186,0.2730994,-0.096591644,0.95151037,2016-11-15 21:28:09,56.2463948305343
5.3342814,-1.2258313,8.331821,0.035758205,-0.008057859,0.03088902,8.0,0.5403239,-0.12513764,0.83210015,0.012819231,0.0011046529,0.0122118,0.27313602,-0.09735565,0.950649,2016-11-15 21:28:10,57.33381827797647
5.353435,-1.2737153,8.303091,-0.012489423,-0.022873381,0.07272613,8.0,0.53728116,-0.12772338,0.8336761,0.008909047,-0.0023055822,0.0136199,0.2705149,-0.099040106,0.9514419,2016-11-15 21:28:11,53.897892853653744
5.391742,-1.2449849,8.264784,-0.2932499,-0.032913193,0.11829757,8.0,0.53786486,-0.12220527,0.83412665,0.012203991,-0.0029444546,0.014165461,0.2707127,-0.099798664,0.9497241,2016-11-15 21:28:12,58.73099932014405
5.4204726,-1.13964,8.350976,0.026780393,-0.024941027,0.19515234,8.0,0.5419471,-0.117947705,0.8320947,0.011133671,0.001586698,0.020054102,0.27254695,-0.09586228,0.94984406,2016-11-15 21:28:13,50.23302549834801
5.497087,-1.1109096,8.207323,1.1319556,0.008302561,0.26069856,8.0,0.5477354,-0.114224575,0.8288176,0.012283742,-0.0012927875,0.022271574,0.27602342,-0.09789537,0.9479177,2016-11-15 21:28:14,53.73564273454533
5.449203,-1.0726024,8.207323,0.05049367,-0.034733407,0.088601515,8.0,0.55059123,-0.10664637,0.8279347,0.005529642,-0.0028768554,0.009484589,0.27771986,-0.09490855,0.9469606,2016-11-15 21:28:15,57.30950653219435
5.5162406,-1.1109096,8.24563,-0.061012954,-0.003291802,-0.0020028995,8.0,0.5513352,-0.10976897,0.82703096,0.008626223,-0.0063642114,0.0124185085,0.27917922,-0.09312597,0.94788677,2016-11-15 21:28:16,53.03347628910929
5.4779334,-1.1013328,8.197746,-0.076687366,0.02313102,-0.25859642,8.0,0.55310565,-0.11207606,0.82553804,0.0048918724,0.0014917031,0.0128983855,0.28054103,-0.08928565,0.9500467,2016-11-15 21:28:17,52.93512289583163
5.5162406,-1.0342951,8.264784,0.05142728,0.0057531665,0.01914215,8.0,0.55235785,-0.10606116,0.8268325,0.009484589,-0.0024915338,0.014589548,0.27813262,-0.09492605,0.94683427,2016-11-15 21:28:18,54.384071908453286
5.506664,-1.043872,8.274361,-0.62690365,0.0366431,-0.43361127,8.0,0.5533639,-0.10191218,0.82668155,0.003917992,-0.008364581,0.022369206,0.28080156,-0.087581515,0.9488758,2016-11-15 21:28:19,51.3648906666164
5.439626,-1.1109096,8.236053,0.2753712,0.021055173,0.11018467,8.0,0.55298024,-0.108496755,0.8261,0.002255559,-0.004778214,0.01420939,0.28035757,-0.09141746,0.94854504,2016-11-15 21:28:20,49.366324995818275
5.4779334,-1.0534488,8.236053,-0.23577297,0.05050503,-0.6286634,8.0,0.55207074,-0.10846156,0.8267127,0.0068593025,8.8278204E-4,0.013718367,0.2796575,-0.0914859,0.948737,2016-11-15 21:28:21,55.11805531775039
5.48751,-1.0151415,8.236053,-0.15299132,-0.10772533,0.024492733,8.0,0.54817986,-0.10668447,0.82952833,0.0107424855,0.0011568591,0.012874603,0.27649587,-0.09338882,0.9480963,2016-11-15 21:28:22,51.538022924801965
5.4779334,-1.0630256,8.207323,-0.37947816,0.0036076368,-0.24025291,8.0,0.5516902,-0.10315941,0.8276448,0.008177459,-0.0032665804,0.009903312,0.2799484,-0.08743124,0.9494248,2016-11-15 21:28:23,46.13997037682438
5.506664,-1.0151415,8.2169,0.19844703,-0.015304947,0.10638909,8.0,0.5546154,-0.10845799,0.82500833,0.00824362,-0.008645445,0.012510419,0.27958012,-0.095587604,0.9466262,2016-11-15 21:28:24,50.38334992228702
5.497087,-1.0055647,8.207323,0.08301213,-0.025337938,0.23784178,8.0,0.55272293,-0.10415219,0.82683116,0.008082569,0.0015612096,0.010734379,0.27928072,-0.09258991,0.9471773,2016-11-15 21:28:25,55.46196565431545
5.5162406,-1.0726024,8.226477,-0.06170193,-0.00786512,0.047949374,8.0,0.55362785,-0.10795885,0.8257367,0.012209237,-0.004248075,0.018592715,0.2793495,-0.09496121,0.9465429,2016-11-15 21:28:26,48.39740354393079
5.4779334,-1.043872,8.207323,0.036583588,0.021203384,0.088963106,8.0,0.55268246,-0.107953094,0.8263705,0.006439507,0.0012485012,0.010987163,0.2794686,-0.09643794,0.9461901,2016-11-15 21:28:27,51.209212484379606
5.449203,-1.0247183,8.264784,0.12044131,-0.046703987,0.45974565,8.0,0.5501251,-0.105046965,0.8284489,0.0098872185,-0.001478143,0.01680851,0.278028,-0.091867544,0.9480426,2016-11-15 21:28:28,47.557160138981544
5.4779334,-1.0247183,8.274361,-0.21098395,-0.004887203,0.027401892,8.0,0.55299205,-0.102267124,0.8268864,0.006066382,-0.00223127,0.017386734,0.27956367,-0.09020608,0.94799834,2016-11-15 21:28:30,51.128022839684746
5.5162406,-1.0342951,8.197746,0.17532437,6.2760053E-4,0.028786961,8.0,0.5515338,-0.1034738,0.8277099,0.007488489,-0.003857337,0.015622854,0.27774262,-0.093607,0.9468044,2016-11-15 21:28:31,46.51942196149967
5.506664,-0.9864111,8.255207,-0.40371108,0.0039340304,-0.1056211,8.0,0.5515033,-0.104049474,0.8276581,0.01026547,-0.005296305,0.014813483,0.2782725,-0.09326571,0.9470569,2016-11-15 21:28:32,49.777831262211556
5.5258174,-1.0055647,8.236053,-0.07144165,-0.00371409,0.014326915,8.0,0.55259776,-0.101251125,0.827275,0.0063026547,-0.00792595,0.00833416,0.27755046,-0.09505524,0.9453336,2016-11-15 21:28:33,56.30363361738272
5.497087,-0.9959879,8.236053,-0.011875281,-0.030186044,0.17288904,8.0,0.5524907,-0.10382154,0.82702786,0.0064194202,-0.0035176352,0.014424324,0.27918434,-0.08989946,0.9483565,2016-11-15 21:28:34,46.29661229238412
5.506664,-1.0151415,8.236053,0.06042251,-0.0022113519,-0.0033179643,8.0,0.5512892,-0.1036718,0.827848,0.010584414,-6.4998865E-5,0.012567282,0.27855453,-0.09296695,0.9473544,2016-11-15 21:28:35,49.89277207676183
5.497087,-1.0151415,8.236053,0.023591533,0.022068283,0.0015900764,8.0,0.5514876,-0.10472438,0.8275834,0.0075012445,5.672872E-5,0.020624101,0.2788347,-0.09208852,0.9477881,2016-11-15 21:28:36,43.402999044707435
5.48751,-1.0247183,8.264784,0.004900525,0.013487352,-0.0012553057,8.0,0.5518845,-0.10258104,0.82758725,0.008041561,-0.0020025894,0.00990814,0.2788934,-0.091628715,0.94751036,2016-11-15 21:28:37,53.25102389317573
5.535394,-1.0821792,8.226477,0.015960522,-0.021969644,0.026470687,8.0,0.5501537,-0.104961246,0.8284408,0.01354295,-0.0015842766,0.015986085,0.2781332,-0.09316828,0.9475681,2016-11-15 21:28:38,46.44635134637373
5.4779334,-1.0151415,8.255207,-0.01615272,0.003082779,-0.06778976,8.0,0.55243635,-0.10507149,0.8269064,0.0074948072,0.003245294,0.014472425,0.2792175,-0.09195946,0.94772923,2016-11-15 21:28:39,53.648793982054464
5.4779334,-0.9959879,8.24563,-0.34693202,-0.0010630579,0.08276191,8.0,0.5499805,-0.10144159,0.82899404,0.0062168837,-0.0050351843,0.018161416,0.27862492,-0.090338215,0.9478851,2016-11-15 21:28:40,53.612807822822475
5.506664,-1.0726024,8.226477,0.019427694,-0.012791565,0.20041691,8.0,0.5505346,-0.10316173,0.8284138,0.00560236,-3.2448024E-4,0.0119485855,0.27851447,-0.089791656,0.9484646,2016-11-15 21:28:41,49.97496991975284
5.497087,-1.0534488,8.255207,0.085913405,0.004845657,0.09899668,8.0,0.55213684,-0.103138745,0.8273495,0.010846436,0.0011644438,0.012953579,0.27841955,-0.09438547,0.9465297,2016-11-15 21:28:42,50.335561515577055
5.48751,-0.9959879,8.283937,0.106742375,-0.016558137,0.16860586,8.0,0.55015475,-0.10309441,0.8286743,0.007941127,-4.5467168E-4,0.012654424,0.27738243,-0.093870565,0.94661564,2016-11-15 21:28:43,45.28375181131668
5.506664,-0.9959879,8.255207,-0.42601284,0.0018948196,-0.11810777,8.0,0.55045956,-0.10216961,0.8285865,0.008516133,5.0491095E-4,0.0137755275,0.27825022,-0.09103516,0.9475716,2016-11-15 21:28:44,55.29412496355745
5.48751,-1.0055647,8.207323,0.03186268,0.005067856,-0.0035323817,8.0,0.5504671,-0.10184387,0.8286216,0.0055778027,-0.0046013147,0.009843826,0.27682316,-0.09454313,0.94621867,2016-11-15 21:28:45,54.55871808485015
5.506664,-1.0247183,8.236053,0.016577654,0.013918109,-0.065484196,8.0,0.55022377,-0.10114613,0.82886875,0.00880295,-5.137697E-4,0.014437318,0.27783525,-0.09254347,0.94700444,2016-11-15 21:28:46,52.93682494186699
5.497087,-0.9768343,8.236053,0.3450082,-0.015278277,0.1782156,8.0,0.5510055,-0.09952841,0.82854515,0.009914815,-2.5941432E-4,0.011859775,0.27866903,-0.089528985,0.9480724,2016-11-15 21:28:47,49.019334059316066
5.4779334,-1.0151415,8.236053,0.031235548,0.026350169,-0.19404307,8.0,0.5516489,-0.10015304,0.8280416,0.0073975325,3.5909563E-4,0.012308896,0.28041026,-0.08632831,0.949352,2016-11-15 21:28:48,46.89463643310263
5.45878,-1.043872,8.207323,0.13755,0.0032543256,0.013833538,8.0,0.5501743,-0.10255033,0.82872903,0.010620654,-0.0038146228,0.013745844,0.2787828,-0.08874344,0.94897366,2016-11-15 21:28:49,45.20589445974075
5.45878,-1.0055647,8.236053,0.015827475,0.006547474,0.2315335,8.0,0.55030227,-0.09991651,0.82896566,0.0040472746,-0.0035961866,0.015191138,0.2802347,-0.08680951,0.94907165,2016-11-15 21:28:50,50.59646496698444
5.4683566,-0.9864111,8.24563,-0.042473383,-0.023557875,0.11371989,8.0,0.5490831,-0.10066852,0.8296827,0.012615085,0.0016743168,0.017672122,0.27727738,-0.08897762,0.9487931,2016-11-15 21:28:51,52.54084534033356
5.554548,-1.0534488,8.197746,0.07815309,-0.0076975236,0.080803975,8.0,0.5542818,-0.10490373,0.8256918,0.012357533,-0.00820367,0.011923552,0.2789138,-0.09459252,0.94599676,2016-11-15 21:28:52,42.17830254654231
5.4683566,-1.0151415,8.169016,0.031012667,0.015137511,0.031385083,8.0,0.55340314,-0.103960074,0.8264002,0.00580734,3.7502497E-4,0.016786098,0.2801521,-0.09305434,0.94655806,2016-11-15 21:28:53,52.2091925576866
5.48751,-1.0247183,8.236053,0.14189243,-0.006749416,-0.0074306964,8.0,0.550231,-0.105647914,0.8283021,0.011575222,0.0028185397,0.011171341,0.2781601,-0.09120524,0.9485312,2016-11-15 21:28:54,50.08320265006706
5.583278,-0.8810662,8.207323,-0.2349141,0.012529809,-0.1911704,8.0,0.5573349,-0.08546477,0.8258775,0.011357725,-0.0016557202,0.009670138,0.28399995,-0.08244845,0.94728875,2016-11-15 21:28:55,51.88584378748723
5.5737014,-0.8619126,8.1881695,-0.035934605,0.023569118,-0.22881392,8.0,0.56163675,-0.087025106,0.82279456,0.011220276,-1.7426908E-5,0.017473102,0.2869069,-0.0815236,0.94740945,2016-11-15 21:28:56,46.50665360952669
5.592855,-0.82360536,8.236053,-0.37289262,-0.017799057,0.031650737,8.0,0.56113106,-0.084198326,0.82343334,0.008769393,-0.0037157685,0.014907956,0.28535533,-0.08308363,0.94619757,2016-11-15 21:28:57,56.13602103457492
5.602432,-0.81402856,8.178593,0.40149325,0.0031739592,0.21689421,8.0,0.5619394,-0.080049165,0.823296,0.011616111,-0.0038955063,0.011315346,0.28535035,-0.082367614,0.94549423,2016-11-15 21:28:58,50.89075482042634
5.6120086,-0.8523358,8.1402855,0.029721238,-0.03843649,0.061303094,8.0,0.56058,-0.08887078,0.82331765,0.009130359,0.002768837,0.011229157,0.28412497,-0.08656317,0.945537,2016-11-15 21:28:59,52.26024959860268
5.631162,-0.79487497,8.2169,-0.009458395,-0.010292351,0.07957165,8.0,0.5621817,-0.08297477,0.8228407,0.009437084,-0.001128979,0.011742711,0.28557035,-0.083358206,0.9458507,2016-11-15 21:29:00,50.382056361228145
5.602432,-0.82360536,8.226477,-0.03126844,-0.033228625,-0.06491913,8.0,0.5615106,-0.080469996,0.8235474,0.0043085814,0.0012063086,0.010011017,0.28535938,-0.081505775,0.9462864,2016-11-15 21:29:01,55.27180849505324
5.5737014,-0.82360536,8.159439,0.1276829,0.02247065,-0.0836538,8.0,0.5616328,-0.08073366,0.8234384,0.007066548,-0.003292665,0.009190023,0.28552192,-0.08194692,0.9460346,2016-11-15 21:29:02,44.235982196654604
5.5737014,-0.80445176,8.226477,-0.2956927,0.028182287,-0.42955536,8.0,0.561931,-0.08147371,0.8231619,0.007836759,0.0011872947,0.012319148,0.28664535,-0.08001418,0.9470582,2016-11-15 21:29:03,51.7145295943866
5.583278,-0.80445176,8.178593,-0.35697228,-0.009968978,-0.19118157,8.0,0.5607616,-0.081445046,0.8239619,0.011850476,-5.7738274E-4,0.010623276,0.28511935,-0.08274152,0.9457713,2016-11-15 21:29:04,49.80387936535075
5.5737014,-0.80445176,8.1881695,0.080477685,-0.0017274949,0.15218142,8.0,0.56188226,-0.07901106,0.82343525,0.006944597,-0.0049082115,0.0110708475,0.28451943,-0.08469428,0.94424397,2016-11-15 21:29:05,51.981095618362836
5.554548,-0.78529817,8.1881695,0.0012987452,0.013387329,-0.06403791,8.0,0.55993336,-0.08378013,0.824291,0.013703108,0.0015841648,0.011221826,0.28576535,-0.080987096,0.94723356,2016-11-15 21:29:06,52.236406654486004
5.5737014,-0.7661445,8.255207,-0.34471458,0.026694242,-0.21983162,8.0,0.56064975,-0.08173854,0.8240089,0.010055065,-3.6358833E-4,0.015422344,0.28682956,-0.07589839,0.9485796,2016-11-15 21:29:07,54.67707049826068
5.583278,-0.82360536,8.264784,0.08442719,-0.0021221898,0.08494708,8.0,0.5608589,-0.078577444,0.824174,0.009713292,-0.0034155548,0.01144892,0.285117,-0.08094275,0.94600236,2016-11-15 21:29:08,48.88918431999336
5.602432,-0.8714894,8.207323,0.014441913,0.0054167924,0.057074126,8.0,0.56185067,-0.08596111,0.82276034,0.008014917,-0.002915226,0.016583562,0.2857376,-0.08371185,0.94603544,2016-11-15 21:29:09,47.845077246421894
5.5737014,-0.80445176,8.24563,-0.11926387,0.026307834,-0.23283394,8.0,0.56184137,-0.08152621,0.82321787,0.008836329,-0.0024935082,0.015258193,0.286499,-0.07881262,0.9475077,2016-11-15 21:29:10,50.670250719105574
5.6215854,-0.82360536,8.2169,0.72742236,-0.011870632,0.2763594,8.0,0.5612442,-0.08092237,0.8236847,0.014162898,0.0016376823,0.009997308,0.28553736,-0.08126556,0.94638485,2016-11-15 21:29:11,52.03256490419844
5.5641246,-0.8810662,8.178593,0.13712832,-0.015027536,0.38836417,8.0,0.5619999,-0.083617754,0.8228999,0.005800128,-0.003213741,0.012619913,0.2855697,-0.083193235,0.9458044,2016-11-15 21:29:12,47.82712071073998
5.6215854,-0.842759,8.178593,0.13882697,0.009361969,0.140768,8.0,0.5637641,-0.08579943,0.82146734,0.007060826,7.817969E-4,0.015928626,0.2863797,-0.084691904,0.9452973,2016-11-15 21:29:13,45.9394842854592
5.6215854,-0.78529817,8.178593,0.17267223,-0.009413093,0.15238714,8.0,0.5635132,-0.080762625,0.8221499,0.0071041584,-3.3532828E-4,0.010503471,0.28607482,-0.08395057,0.9446861,2016-11-15 21:29:14,48.711835109530426
5.602432,-0.78529817,8.197746,-0.0276405,-0.0024708356,0.045831796,8.0,0.5634293,-0.08078668,0.82220495,0.008292258,-0.004085988,0.012328923,0.28604692,-0.08344182,0.9447772,2016-11-15 21:29:15,51.89285733735588
5.6120086,-0.89064306,8.226477,-0.03877368,-0.016513132,-0.044071436,8.0,0.5621271,-0.08344883,0.82283014,0.0066349506,-0.0054381564,0.014644265,0.28498733,-0.08373712,0.9459032,2016-11-15 21:29:16,37.687744904680194
5.6120086,-0.82360536,8.2169,-0.07067014,0.02419351,-0.33090368,8.0,0.56290305,-0.08266629,0.8223785,0.010746837,0.00235527,0.013118267,0.2871375,-0.08135746,0.9465517,2016-11-15 21:29:17,51.922900653276855
5.6215854,-0.78529817,8.178593,-0.07654767,0.022686094,-0.13861775,8.0,0.56278825,-0.0808277,0.8226398,0.009845555,6.2476844E-4,0.011917412,0.285886,-0.083590716,0.9450453,2016-11-15 21:29:18,50.57975330371973
5.583278,-0.79487497,8.197746,0.07300297,0.0311188,0.13838822,8.0,0.56269383,-0.07920665,0.82286215,0.007147014,1.5485287E-4,0.009662569,0.2858822,-0.08507206,0.9436949,2016-11-15 21:29:19,51.77307352755825
5.602432,-0.8331822,8.207323,0.07903733,-0.010808211,0.14486554,8.0,0.5633801,-0.0816059,0.8221577,0.009274721,-0.005119212,0.011439383,0.28542107,-0.08465961,0.9446622,2016-11-15 21:29:20,49.08567926806535
5.592855,-0.7565677,8.178593,0.034182012,-0.0024716507,-0.037190914,8.0,0.56312966,-0.08280886,0.82220906,0.0075716376,0.005366452,0.0123156905,0.28452963,-0.088521354,0.9433683,2016-11-15 21:29:21,48.04295517923185
5.602432,-0.7565677,8.226477,0.40031353,0.015892498,0.10374622,8.0,0.56405455,-0.077924445,0.8220525,0.0066144466,-0.005050011,0.01154995,0.28608468,-0.08453719,0.944057,2016-11-15 21:29:22,46.56592154674894
5.583278,-0.7565677,8.159439,-0.22489478,-0.00534512,-0.13241196,8.0,0.5619551,-0.0788698,0.8233991,0.009595811,-2.695471E-4,0.01417017,0.28602833,-0.079702385,0.9465808,2016-11-15 21:29:23,51.86372954774289
5.535394,-0.8331822,8.207323,0.27451813,0.0038974127,0.05468002,8.0,0.56305957,-0.085803986,0.82194984,0.0018805861,8.211434E-4,0.015464604,0.28458646,-0.08922346,0.9435003,2016-11-15 21:29:24,52.8651634765717
5.602432,-0.8331822,8.197746,-1.340738,-0.047510806,-0.15197758,8.0,0.5616978,-0.08005695,0.82346004,0.009985507,0.0016969964,0.015954137,0.28522295,-0.08377573,0.94496906,2016-11-15 21:29:25,52.162379542115794
5.602432,-0.78529817,8.1881695,0.01836297,-0.0068754405,0.03482911,8.0,0.5626416,-0.0800901,0.8228123,0.009004414,-1.494661E-4,0.01272583,0.28485376,-0.08512241,0.94442266,2016-11-15 21:29:26,48.117236408415195
5.6120086,-0.82360536,8.207323,0.004228657,0.012466919,-0.049363002,8.0,0.5616748,-0.08094644,0.8233888,0.009912908,-0.0058560893,0.014170647,0.28595662,-0.07900241,0.94730735,2016-11-15 21:29:27,50.814962258907535
5.631162,-0.82360536,8.197746,-0.07730815,-0.022555701,0.057717424,8.0,0.5640604,-0.085901685,0.82125324,0.010583818,0.0016632527,0.015206337,0.28676075,-0.08346985,0.94626397,2016-11-15 21:29:28,47.3067237637887
5.6215854,-0.7469909,8.274361,0.1180079,0.013098465,0.13536748,8.0,0.5616028,-0.08063502,0.82346845,0.0073468685,-4.5254081E-4,0.020716608,0.28506672,-0.08401365,0.9449904,2016-11-15 21:29:29,51.662418146102084
5.602432,-0.78529817,8.159439,0.015121942,-0.0092024645,0.138121,8.0,0.5636966,-0.08193723,0.8219078,0.007936776,0.0017576218,0.010713041,0.28577334,-0.08446216,0.9446327,2016-11-15 21:29:30,50.22051103929768
5.5737014,-0.8714894,8.207323,0.008831227,-7.1099034E-4,0.004127052,8.0,0.56424546,-0.08533157,0.8211855,0.0064618587,-0.0034213588,0.011423111,0.28547317,-0.08753481,0.943708,2016-11-15 21:29:31,53.50216067109084
5.6120086,-0.79487497,8.169016,-0.35990715,-0.0063625555,-0.2864347,8.0,0.56252265,-0.08309563,0.8225956,0.009979486,0.0017705634,0.011059582,0.28600508,-0.08246183,0.94635665,2016-11-15 21:29:32,50.52657276344654
5.602432,-0.81402856,8.1881695,0.10728784,0.034168433,0.046316136,8.0,0.5646916,-0.080773234,0.8213398,0.0061615705,-0.0051690117,0.015064418,0.2869973,-0.08349324,0.9447083,2016-11-15 21:29:33,50.89587491041659
5.6120086,-0.82360536,8.255207,-0.019877085,0.024946516,-0.17595021,8.0,0.56508255,-0.081727915,0.8209763,0.007646084,-0.004979156,0.011594474,0.28767675,-0.08125923,0.9459786,2016-11-15 21:29:34,53.89213691656962
5.6215854,-0.8331822,8.178593,-1.0026464,-0.032849494,0.19305666,8.0,0.5660039,-0.08913835,0.8195693,0.008581698,0.0049936697,0.014008164,0.28922224,-0.08084355,0.94723433,2016-11-15 21:29:35,52.14503362794166
5.631162,-0.81402856,8.169016,0.25310636,2.8650952E-4,0.03370749,8.0,0.565138,-0.08199671,0.8209115,0.0074210167,-0.0011011958,0.005883038,0.28788182,-0.08034656,0.94672483,2016-11-15 21:29:36,52.94836761536214
5.6120086,-0.81402856,8.207323,0.0039938493,0.0018469295,-0.003363816,8.0,0.5631541,-0.08260634,0.82221264,0.009591818,-0.004235916,0.011310577,0.28681177,-0.08193292,0.94607097,2016-11-15 21:29:37,53.78290305851654
5.659893,-0.8523358,8.169016,0.03790671,-0.006044187,0.034109104,8.0,0.5643481,-0.08768887,0.8208665,0.0063999295,0.0036062524,0.012668729,0.2873542,-0.08345816,0.94626397,2016-11-15 21:29:38,46.3681180385078
5.602432,-0.80445176,8.178593,-0.007084584,0.018571308,-0.24744715,8.0,0.56286913,-0.085993886,0.82206047,0.009859443,0.004706718,0.017306268,0.2876131,-0.08044091,0.9474508,2016-11-15 21:29:39,44.984076272883264
5.6215854,-0.8331822,8.197746,-0.13474424,-0.014701148,-0.009044994,8.0,0.5652543,-0.084441654,0.8205834,0.009359717,0.0013329983,0.010049522,0.28857103,-0.08068257,0.94666785,2016-11-15 21:29:40,43.35803836067498
5.6120086,-0.8810662,8.197746,0.08214321,-0.021908488,0.34508207,8.0,0.5658348,-0.08353494,0.8202762,0.010570586,-0.001543656,0.00949055,0.2874311,-0.08481745,0.94464344,2016-11-15 21:29:42,54.915483915702985
5.6407394,-0.842759,8.169016,0.10039448,-0.0013002519,-0.037941504,8.0,0.5654346,-0.08374073,0.8205311,0.008140743,-3.4466386E-4,0.01698482,0.2869582,-0.08565005,0.9446425,2016-11-15 21:29:43,49.223721149215194
5.5641246,-0.80445176,8.149862,-0.0087678395,0.043475006,-0.078930356,8.0,0.5639424,-0.08205458,0.8217275,0.003978312,-7.863343E-5,0.009781599,0.28702506,-0.084435076,0.94461787,2016-11-15 21:29:44,53.208516406752445
5.583278,-0.8619126,8.1881695,-0.09582744,0.014246609,-0.23404807,8.0,0.5598616,-0.086968265,0.8240094,0.005066812,-0.004908152,0.01047641,0.28549847,-0.08098959,0.94725907,2016-11-15 21:29:45,51.19320243530762
5.6982,-0.8523358,8.063671,0.11435464,0.015973618,-0.10810303,8.0,0.57003444,-0.08531834,0.81717896,0.008563995,2.464801E-4,0.011445761,0.29117438,-0.08089045,0.94657606,2016-11-15 21:29:46,46.264761059651065
5.6407394,-0.8523358,8.1402855,-0.035104703,-0.008695657,0.05790947,8.0,0.5684843,-0.085392155,0.8182504,0.0070431232,-0.0016419217,0.012425065,0.2893055,-0.08491454,0.94454026,2016-11-15 21:29:47,52.571951432962294
5.6790466,-0.842759,8.130709,0.055150174,-5.1994564E-4,0.008096265,8.0,0.5681912,-0.0842981,0.81856734,0.0074053407,-0.0025481358,0.013056815,0.28874558,-0.085719004,0.9441852,2016-11-15 21:29:48,51.37419393079833
5.6886234,-0.8331822,8.0924015,0.39839914,-0.007730498,0.26349625,8.0,0.56967115,-0.08646165,0.8173122,0.007827878,-5.7420135E-4,0.012373984,0.2887965,-0.08740413,0.9437653,2016-11-15 21:29:49,46.80143257024491
5.659893,-0.81402856,8.207323,7.306375E-4,-9.1352593E-4,0.0077755963,8.0,0.5681141,-0.081598625,0.8188944,0.010398269,-0.005286716,0.010781884,0.28792706,-0.086830445,0.9430858,2016-11-15 21:29:50,48.50669792008138
5.659893,-0.82360536,8.159439,-0.38857794,0.004671661,-0.2743101,8.0,0.56636214,-0.084559985,0.81980693,0.009307981,-0.003337361,0.014690399,0.28781733,-0.08606667,0.9442345,2016-11-15 21:29:51,51.30041144451031
5.6790466,-0.89064306,8.082825,-0.02744576,0.01095398,0.008651258,8.0,0.5671569,-0.08837949,0.8188542,0.0074394345,-0.0061004013,0.011829257,0.2880374,-0.0867561,0.9442595,2016-11-15 21:29:52,44.250158022876285
5.659893,-0.842759,8.1402855,-0.15224594,-0.016719399,0.07884677,8.0,0.56853586,-0.084632166,0.8182937,0.010861099,-0.0031946152,0.013405502,0.28874984,-0.0853206,0.9442977,2016-11-15 21:29:53,50.765050088922756
5.650316,-0.842759,8.1402855,-0.112372264,0.012009234,-0.18475986,8.0,0.5682249,-0.08175357,0.818802,0.0084370375,-0.0013720095,0.013718903,0.2889258,-0.08480461,0.94399226,2016-11-15 21:29:54,52.166058590424456
5.6407394,-0.89064306,8.1402855,0.090026125,0.0065309443,0.027576873,8.0,0.56730247,-0.08627566,0.81897765,0.010181785,-0.0026273057,0.012682259,0.28747225,-0.08936747,0.94279575,2016-11-15 21:29:55,48.11958418686415
5.631162,-0.8523358,8.082825,-0.0059403973,0.012017642,0.18736723,8.0,0.56790096,-0.08472944,0.8187243,0.004029095,-2.7398765E-4,0.014674604,0.28950357,-0.08466128,0.9446086,2016-11-15 21:29:56,49.02416183708611
5.535394,-0.93852705,8.159439,0.07066905,-0.003831766,0.1707825,8.0,0.5572566,-0.09916925,0.824397,0.009580791,4.1963905E-4,0.013047218,0.28177986,-0.09351749,0.9448186,2016-11-15 21:29:57,53.026620710232486
5.5737014,-1.0534488,8.1881695,0.06422953,0.04028527,-0.07396712,8.0,0.55777645,-0.09859295,0.82411456,0.008177221,-0.0038699508,0.016221464,0.281496,-0.09279062,0.9451138,2016-11-15 21:29:58,45.90926524903266
5.506664,-1.0151415,8.1881695,0.08705163,0.0038992139,0.10445512,8.0,0.5583795,-0.100341156,0.82349503,0.008482218,-0.0014082417,0.013924301,0.28253555,-0.09311837,0.9454026,2016-11-15 21:29:59,51.13011543390912
5.554548,-0.91937345,8.341399,0.21136259,0.0056333593,0.24267094,8.0,0.5559316,-0.09773125,0.82546264,0.010992706,0.0036919788,0.025583744,0.28127277,-0.090969905,0.9459217,2016-11-15 21:30:00,49.055980087664906
5.554548,-0.9672575,8.207323,0.29988226,-0.021609433,0.20532839,8.0,0.55756503,-0.09969242,0.8241254,0.011009634,-0.0010642782,0.011504948,0.28066263,-0.094888605,0.9444233,2016-11-15 21:30:01,50.39002476401757
5.48751,-0.9959879,8.121132,-0.0037552826,-0.005891916,0.11885515,8.0,0.5574368,-0.10051901,0.82411176,0.002550304,-0.0010224357,0.004561007,0.28039443,-0.09607229,0.94363385,2016-11-15 21:30:02,53.07528787046364
5.5641246,-0.9959879,8.197746,0.0012413096,0.008135731,-0.033265837,8.0,0.5595534,-0.09706593,0.82309055,0.008232594,-0.004545301,0.013404131,0.28211704,-0.09408192,0.94431704,2016-11-15 21:30:03,45.09319203689154
5.544971,-0.9864111,8.197746,0.2738971,-0.009049734,0.12882204,8.0,0.55935156,-0.09846431,0.82306165,0.007478416,-0.0022293776,0.012434244,0.2814676,-0.095177755,0.9437738,2016-11-15 21:30:04,50.122895402129444
5.602432,-0.9672575,8.2169,0.03083007,0.01739116,0.04408574,8.0,0.55871785,-0.0959111,0.82379335,0.010139167,-0.00849466,0.018517137,0.28118843,-0.09406181,0.9440131,2016-11-15 21:30:05,39.14772412430491
5.659893,-0.9672575,8.073248,-0.20208958,-0.01218752,-0.08756497,8.0,0.56866163,-0.10085986,0.81636465,0.009746671,8.2103163E-4,0.0055130124,0.28875983,-0.09463016,0.9433578,2016-11-15 21:30:06,51.73547908421657
5.6790466,-0.90979666,8.121132,-0.18938786,0.0010548861,-0.19642442,8.0,0.5718493,-0.094001606,0.81495535,0.007604003,0.0010114834,0.013742924,0.28994563,-0.091042936,0.94338554,2016-11-15 21:30:07,49.94660164452104
5.707777,-0.93852705,8.0924015,-0.06384848,-0.003938712,-0.01969046,8.0,0.5704472,-0.095376305,0.8157779,0.0051469803,0.0014841855,0.008007884,0.28891143,-0.091257095,0.9436192,2016-11-15 21:30:08,51.82905007710463
5.755661,-1.0247183,8.0445175,0.046408184,-0.048656166,0.0672234,8.0,0.57432795,-0.09790595,0.8127496,0.015535593,-0.0017185807,0.0074175596,0.29005075,-0.094388776,0.9419403,2016-11-15 21:30:09,49.41252343926851
5.7365074,-1.0342951,7.8912888,0.2700954,-0.026764926,0.30010137,8.0,0.57617277,-0.10379206,0.8107109,0.007221341,-0.00551755,0.015068829,0.29220438,-0.09540441,0.94270164,2016-11-15 21:30:10,52.88829848706825
9.548077,0.7374141,7.7093296,0.36037976,-0.031739727,-0.45373452,6.0,0.79124224,-0.11977659,0.5996576,0.10068083,0.18679014,0.256164,0.3997324,-0.18008314,0.88316643,2016-11-15 21:30:11,48.95963546051011
7.038953,0.22026655,5.353435,-1.8180631,-1.8942811,-2.1388018,5.0,0.77546287,-0.07293206,0.62716675,0.20258874,0.20066918,-0.21834743,0.41924632,-0.08572413,0.8948595,2016-11-15 21:30:12,59.922673372271845
4.7884035,-0.22984336,8.791509,-0.3747351,-0.22755185,0.014894526,8.0,0.6306589,0.0279134,0.77555794,-0.036433578,-0.0170713,0.059725583,0.32123923,-0.05016882,0.92710245,2016-11-15 21:30:13,47.193775940648244
4.960786,0.1340753,8.523358,0.23685434,0.59573746,0.03999017,9.0,0.5538122,-0.00863588,0.8325969,-0.019806147,0.020984784,0.029338658,0.29747504,-0.059183206,0.94069153,2016-11-15 21:30:14,48.10550475222904
6.531382,-1.283292,7.565677,0.1638088,0.10575761,-0.10415208,7.0,0.6933694,-0.1102722,0.7120947,3.1155348E-4,0.0057654306,-0.0107880235,0.32808644,-0.14464915,0.91348994,2016-11-15 21:30:15,49.41699656510543
6.540959,-0.8619126,7.5082164,0.10113941,0.070389464,0.12323369,7.0,0.6591654,-0.07990579,0.7477407,0.008289158,-0.0086117685,0.019533336,0.3382664,-0.1011034,0.92272615,2016-11-15 21:30:16,52.65224660536488
6.5026517,-0.8331822,7.4507556,0.15393433,0.03725341,-0.09921382,7.0,0.65673935,-0.08586011,0.74921393,0.005012989,-0.0020581633,0.012875617,0.34053305,-0.09431944,0.92640835,2016-11-15 21:30:17,48.34832507913231
6.5601125,-0.81402856,7.4028716,0.08018389,-0.01445142,0.07881388,7.0,0.6576011,-0.084668614,0.74859345,0.011784613,-4.0427595E-4,0.012670636,0.33995634,-0.10046016,0.92315006,2016-11-15 21:30:18,46.39555504400356
6.5122285,-0.80445176,7.4507556,-0.061473817,0.044933774,-0.042861756,7.0,0.6533555,-0.08403934,0.7523723,0.014112353,-0.0029429495,0.017660141,0.33962008,-0.09655453,0.92525053,2016-11-15 21:30:19,54.4606826962021
6.5696893,-0.81402856,7.469909,-1.0319157,0.03720618,-0.4644748,7.0,0.6563063,-0.08149204,0.7500806,0.009394288,-0.0035058558,0.015882134,0.34244,-0.09179233,0.92613965,2016-11-15 21:30:20,51.86255147488683
6.540959,-0.81402856,7.5082164,-0.15711698,0.024577007,-0.30680934,7.0,0.6553712,-0.08113468,0.7509366,0.010195196,-0.007677719,0.014176726,0.34021,-0.093380995,0.92611414,2016-11-15 21:30:21,43.31757447396461
6.531382,-0.7757214,7.5082164,0.28364566,-0.020232033,0.2684358,7.0,0.65271115,-0.08118832,0.7532441,0.01295954,0.0021272227,0.016663134,0.3372504,-0.100383446,0.92299545,2016-11-15 21:30:22,45.198176337825245
6.4643445,-0.7374141,7.52737,0.36502013,-0.006488822,0.20600478,7.0,0.6547957,-0.08111539,0.75144047,0.0155184865,-0.0019377992,0.018668354,0.3391693,-0.09643393,0.92475545,2016-11-15 21:30:23,49.414618739409946
5.8322754,-0.61291564,8.073248,0.078130595,0.19902389,-0.037395053,8.0,0.6027372,-0.069336794,0.79492164,-0.007373512,6.4872205E-4,0.026960969,0.31334022,-0.089288235,0.9332494,2016-11-15 21:30:24,60.53815789531392
5.3438582,-0.9576807,8.274361,0.08290626,-0.024717096,0.28469616,8.0,0.550812,-0.08707928,0.8300743,0.008292735,0.0019325987,0.017078876,0.2806617,-0.0854867,0.9458571,2016-11-15 21:30:25,51.67472436840603
5.6120086,-0.7086837,8.159439,-0.07058579,0.015669093,-0.37176815,8.0,0.56584424,-0.0677564,0.82172334,0.012585938,0.0011819601,0.008967876,0.28920284,-0.07459325,0.9459903,2016-11-15 21:30:26,48.40158639132106
5.592855,-0.6512229,8.178593,-0.15394643,0.054549325,-0.6346675,8.0,0.56488204,-0.06490528,0.822615,0.007863402,-0.0025233626,0.01284951,0.28913862,-0.073134586,0.94622886,2016-11-15 21:30:27,52.286951517270104
5.631162,-0.6512229,8.159439,0.3167808,0.0027014979,0.072058596,8.0,0.56349707,-0.065078914,0.82355064,0.009199977,-0.0023960844,0.014875174,0.28676113,-0.07732641,0.94461167,2016-11-15 21:30:28,50.87839662823111
5.5737014,-0.58418524,8.197746,0.09350884,0.0044587334,0.035077233,8.0,0.5611113,-0.061741922,0.8254345,0.009478629,0.001075834,0.008207262,0.28595608,-0.07513128,0.9450124,2016-11-15 21:30:29,52.0832627286231
5.631162,-0.61291564,8.2169,0.05120325,-0.006570226,0.13740417,8.0,0.5607177,-0.06278855,0.8256229,0.013716698,-0.002548188,0.013942063,0.28576198,-0.07332952,0.9457689,2016-11-15 21:30:30,44.44304370710937
5.592855,-0.641646,8.207323,-0.0038478125,-0.00292182,0.04288797,8.0,0.5638852,-0.06251573,0.82348365,0.006845653,-0.003743954,0.013991356,0.2862797,-0.07745417,0.94350684,2016-11-15 21:30:31,50.895915544702206
5.5737014,-0.58418524,8.1881695,0.11220534,0.022597423,-0.14168859,8.0,0.56473964,-0.06596498,0.8226286,0.007885635,0.0021981671,0.00898993,0.2872779,-0.07855734,0.9440636,2016-11-15 21:30:32,45.335785914045545
5.6120086,-0.60333884,8.226477,-0.053900518,-0.019187156,-0.01875007,8.0,0.5614673,-0.061037134,0.8252448,0.011077344,0.0012997426,0.011324942,0.2857934,-0.07577519,0.9444048,2016-11-15 21:30:33,53.61683216261645
5.5641246,-0.59376204,8.226477,-0.08368335,0.0073146056,-0.028735818,8.0,0.56250757,-0.062039908,0.82446116,0.009088159,0.0014544614,0.016985,0.2865808,-0.07475489,0.94499636,2016-11-15 21:30:34,52.94567540536639
5.5737014,-0.58418524,8.226477,0.07779769,0.005187126,0.27959335,8.0,0.56101197,-0.062821664,0.82542056,0.003826797,-0.0053447112,0.010123551,0.28542265,-0.07517202,0.94479585,2016-11-15 21:30:35,53.19480780357303
5.6120086,-0.63206923,8.197746,0.022942707,0.0029580935,-0.023223031,8.0,0.5639056,-0.06582632,0.8232117,0.010662794,-7.5514615E-4,0.0113556385,0.28745627,-0.075782955,0.94544125,2016-11-15 21:30:36,54.821871227632755
5.592855,-0.59376204,8.1881695,0.07410458,0.034906328,-0.19135167,8.0,0.56113106,-0.05972068,0.8255697,0.008605719,-0.004755918,0.0099493265,0.28750682,-0.068880014,0.94757104,2016-11-15 21:30:37,48.43899233550501
5.583278,-0.59376204,8.1881695,-0.27289593,0.012954908,-0.14165701,8.0,0.5611918,-0.06190024,0.8253679,0.007579744,-0.0014530495,0.013085723,0.28713474,-0.070889644,0.9466726,2016-11-15 21:30:38,52.49292469817718
5.583278,-0.641646,8.159439,-0.19054154,0.028774794,-0.20104925,8.0,0.56404763,-0.06236897,0.8233835,0.004909992,-0.0030358806,0.012980819,0.28826112,-0.07235352,0.9458967,2016-11-15 21:30:40,52.61574526834699
5.5641246,-0.63206923,8.24563,0.016344724,-0.011860041,0.06859726,8.0,0.56231326,-0.064214945,0.82442725,0.006494403,-0.0021738932,0.013994038,0.28643617,-0.07487997,0.9456714,2016-11-15 21:30:41,47.764677545549546
5.592855,-0.60333884,8.149862,0.0015559938,-0.0171813,0.004388732,8.0,0.5622716,-0.062996484,0.8245496,0.01027894,0.0022153296,0.013965249,0.28592995,-0.076147415,0.9447303,2016-11-15 21:30:42,52.08192470589409
5.5641246,-0.59376204,8.178593,0.01791536,-0.020542523,9.2902733E-4,8.0,0.5613561,-0.06256183,0.8252062,0.008386195,9.839945E-4,0.010306656,0.2866042,-0.0729615,0.9460335,2016-11-15 21:30:43,49.38120197761529
5.6120086,-0.6607997,8.226477,0.011016889,0.008868103,0.03756193,8.0,0.56071055,-0.065188095,0.8254418,0.009023368,-0.0021557286,0.011061609,0.28633896,-0.07441015,0.9459554,2016-11-15 21:30:44,50.41868757986506
5.554548,-0.62249243,8.178593,0.21084312,-0.011217583,0.15083513,8.0,0.5630173,-0.06415749,0.823951,0.007732153,0.0016134158,0.015451014,0.28746483,-0.07259798,0.9462994,2016-11-15 21:30:45,54.241806863814645
5.554548,-0.5554548,8.197746,0.19043599,-0.0062127435,0.2587436,8.0,0.5610016,-0.05978661,0.82565296,0.006727457,0.0030546673,0.011851549,0.28625125,-0.073077105,0.9454662,2016-11-15 21:30:46,53.9777826900795
5.583278,-0.59376204,8.236053,-0.045588937,-0.01609458,-0.03715819,8.0,0.5624946,-0.05982116,0.82463413,0.009143233,-7.548705E-4,0.015806913,0.2861745,-0.073576406,0.9452641,2016-11-15 21:30:47,48.71926580025411
5.602432,-0.58418524,8.274361,0.05132921,0.0142575875,0.022961605,8.0,0.56092954,-0.05984929,0.82569736,0.010737479,2.0353869E-4,0.018629193,0.28651676,-0.07155726,0.94611365,2016-11-15 21:30:48,52.92767045298562
5.592855,-0.641646,8.274361,-0.013838251,-0.022547014,-0.065219216,8.0,0.56245625,-0.062652335,0.8244499,0.009108603,-0.0029070824,0.008215725,0.28681278,-0.07370591,0.9462027,2016-11-15 21:30:49,53.676646791200476
5.5258174,-0.5746084,8.2169,0.08957325,0.005147833,0.23984298,8.0,0.5606342,-0.06070004,0.8258359,0.009160876,9.896159E-4,0.017452598,0.28534135,-0.07581981,0.9441917,2016-11-15 21:30:50,53.29808451187
5.592855,-0.5650316,8.236053,-0.31803066,0.014576076,-0.4129991,8.0,0.5601228,-0.055991158,0.8265152,0.0106037855,-0.0016819909,0.013878822,0.2861273,-0.07095488,0.94586223,2016-11-15 21:30:51,55.06097755245968
5.5641246,-0.58418524,8.236053,0.18770516,0.0049482165,0.1934369,8.0,0.56077313,-0.056837827,0.8260163,0.0059100986,-0.0074081495,0.0066698194,0.28532422,-0.07485787,0.94391847,2016-11-15 21:30:52,55.600925237999974
5.554548,-0.6799533,8.178593,-0.08141339,-0.0030748816,-0.0026119668,8.0,0.5595016,-0.06304565,0.826428,0.0063766837,-0.0042001083,0.0149329305,0.28434032,-0.07674331,0.9447232,2016-11-15 21:30:53,55.56082354690347
5.554548,-0.58418524,8.236053,-0.11003409,0.017282981,-0.24687092,8.0,0.56139535,-0.0587301,0.82546115,0.0074822307,-4.6528876E-6,0.0177868,0.2858401,-0.075523555,0.9439462,2016-11-15 21:30:54,55.82306936262703
5.583278,-0.5650316,8.197746,0.016773494,0.042052127,-0.16037142,8.0,0.559133,-0.057619095,0.8270734,0.009740531,-0.001902286,0.016191244,0.2847445,-0.0744879,0.94451714,2016-11-15 21:30:55,51.15596277619659
5.583278,-0.59376204,8.24563,0.11303878,-0.015875906,0.035793677,8.0,0.5593861,-0.058527716,0.8268384,0.0102443695,-0.00199683,0.014619052,0.28415424,-0.074156895,0.9449706,2016-11-15 21:30:56,52.8664624498202
5.554548,-0.58418524,8.236053,-0.017129049,0.009072239,-0.07288886,8.0,0.5595226,-0.06183892,0.826505,0.00917542,1.7046556E-4,0.0139327645,0.28421655,-0.07576388,0.94512004,2016-11-15 21:30:57,54.28364867963143
5.5641246,-0.5554548,8.274361,0.40922105,0.010150806,0.23500076,8.0,0.5583358,-0.057074487,0.8276495,0.009385467,-6.4967945E-4,0.015722513,0.28375855,-0.0747191,0.94455606,2016-11-15 21:30:58,53.34166090795485
5.544971,-0.5554548,8.283937,0.0388304,-2.9268907E-4,0.015436299,8.0,0.55634904,-0.055667143,0.82908195,0.011482596,-0.0036978535,0.010328114,0.28363773,-0.074444875,0.94394606,2016-11-15 21:30:59,57.50807272815818
5.583278,-0.60333884,8.207323,0.033334132,-0.019668682,1.8943544E-4,8.0,0.5598249,-0.06308847,0.8262058,0.0127795935,5.3840876E-4,0.013263583,0.28418958,-0.078604,0.94380397,2016-11-15 21:31:00,58.318638551922746
5.583278,-0.60333884,8.236053,0.0053528026,0.011721151,0.06646793,8.0,0.559323,-0.056429535,0.8270269,0.006573081,-0.0011994652,0.01626426,0.2841584,-0.07525315,0.94381124,2016-11-15 21:31:01,53.93805281832469
5.583278,-0.58418524,8.236053,0.22633758,-0.001637725,0.15432134,8.0,0.55942965,-0.056048986,0.82698065,0.0073339343,-0.004439812,0.007594645,0.2844562,-0.07525821,0.943704,2016-11-15 21:31:02,49.63483350622367
5.554548,-0.58418524,8.226477,-0.25886244,-0.0144072715,-0.24805288,8.0,0.5575283,-0.056275364,0.82824826,0.0062831044,0.0026200935,0.00927186,0.28470734,-0.06842682,0.9472338,2016-11-15 21:31:03,55.167569953667055
5.592855,-0.60333884,8.197746,0.07421939,0.0026504046,-0.1936763,8.0,0.5578539,-0.063920505,0.827474,0.01163286,-0.0033844486,0.006267369,0.28358814,-0.07642177,0.94524294,2016-11-15 21:31:04,56.855561182668445
5.535394,-0.61291564,8.264784,0.10792731,0.04008723,0.034110583,8.0,0.55967396,-0.05706222,0.826746,0.002539754,3.2831356E-4,0.015408933,0.2852271,-0.07514358,0.94394267,2016-11-15 21:31:05,56.53623381099835
5.544971,-0.60333884,8.24563,0.045843393,-0.001626564,0.023077324,8.0,0.5597081,-0.057027217,0.82672536,0.004216194,-6.287955E-4,0.0126668215,0.28476351,-0.07441675,0.9442732,2016-11-15 21:31:06,60.53061694318315
5.5737014,-0.62249243,8.197746,0.2593487,0.011267604,0.12547153,8.0,0.5602082,-0.061466467,0.8260681,0.00568521,-0.0020452812,0.011360109,0.28524098,-0.0733283,0.9455778,2016-11-15 21:31:07,61.66144980587263
5.592855,-0.59376204,8.207323,0.5591774,0.008873546,0.17698655,8.0,0.5588521,-0.059811067,0.82710767,0.011820555,-8.2816556E-4,0.010388672,0.2845167,-0.07482343,0.94499505,2016-11-15 21:31:08,59.01374110779614
5.554548,-0.5554548,8.255207,-0.057948917,0.04148207,0.0014429587,8.0,0.5612595,-0.056337982,0.82572025,0.004819393,-2.3875758E-4,0.016474426,0.28628692,-0.07275832,0.9448469,2016-11-15 21:31:09,60.513224873253826
5.535394,-0.5554548,8.283937,-0.035801467,0.030423906,0.19243653,8.0,0.5536899,-0.063728355,0.8302807,0.011144102,0.007023435,0.0150184035,0.28389195,-0.06961947,0.9482246,2016-11-15 21:31:10,60.814455381152975
5.544971,-0.7182605,8.264784,-0.16392359,-0.0019287122,-0.1920773,8.0,0.55484724,-0.070814505,0.82893294,0.011968732,-0.003781952,0.012413025,0.2824552,-0.07740413,0.9466662,2016-11-15 21:31:11,59.18217092206326
5.4300494,-0.6512229,8.331821,-0.36923572,-0.011622254,-0.08096051,8.0,0.55120915,-0.06572774,0.83177423,0.008603513,-0.002765447,0.0057917833,0.27916366,-0.07812043,0.94600105,2016-11-15 21:31:12,59.25572348415778
5.4779334,-0.6799533,8.255207,-0.3493508,-0.020316672,-0.2870309,8.0,0.55214214,-0.06313341,0.8313562,0.01060468,-0.0032301694,0.009153545,0.28162026,-0.070626624,0.9485161,2016-11-15 21:31:13,60.214796657120345
5.5162406,-0.62249243,8.264784,0.29538196,-0.004988435,0.039202392,8.0,0.5540443,-0.06270481,0.83012235,0.008852303,0.0028677694,0.015150428,0.28173015,-0.076357685,0.9456814,2016-11-15 21:31:14,59.51173263052641
5.5162406,-0.5650316,8.293514,-0.35657203,-0.01153476,-0.13169637,8.0,0.5517821,-0.056825586,0.8320501,0.008179426,0.0019634888,0.010300934,0.28115532,-0.07469596,0.9448638,2016-11-15 21:31:15,59.275241773025456
5.4683566,-0.5746084,8.274361,0.06860006,0.008638067,0.028942473,8.0,0.5520243,-0.05710754,0.83187,0.005990982,-0.0015129559,0.012440085,0.2800438,-0.07507582,0.94502527,2016-11-15 21:31:16,58.536207029619725
5.439626,-0.5746084,8.264784,0.04233132,-0.03466552,0.26536295,8.0,0.5500461,-0.061478358,0.83286846,0.009850085,0.0027960315,0.009531617,0.2798914,-0.07356213,0.94696873,2016-11-15 21:31:17,61.49958461592688
5.4683566,-0.5554548,8.331821,0.048697583,0.0034984115,0.16695647,8.0,0.54961437,-0.056351867,0.8335157,0.008462787,-1.3733283E-4,0.01662916,0.2787501,-0.07317777,0.94565976,2016-11-15 21:31:18,61.876043720444336
5.4683566,-0.59376204,8.274361,0.2056087,0.010904328,0.21113753,8.0,0.5519202,-0.055987526,0.8320154,0.008882284,0.0012087561,0.0133636,0.28013945,-0.073648065,0.94540477,2016-11-15 21:31:19,60.30518010859413
5.497087,-0.59376204,8.274361,-0.00456689,0.0067167347,0.02213892,8.0,0.5542361,-0.056867305,0.83041465,0.0067994595,-0.0017670579,0.01383543,0.2816927,-0.07318509,0.9458427,2016-11-15 21:31:20,61.79590401780355
5.48751,-0.5267244,8.236053,0.102949955,0.016006833,0.054211088,8.0,0.55384773,-0.05442556,0.8308372,0.00902307,-0.0030799247,0.014479637,0.28155732,-0.07239984,0.94561946,2016-11-15 21:31:21,62.327006441555035
5.544971,-0.5650316,8.283937,0.23540398,-0.021069035,0.12028876,8.0,0.5522358,-0.05545275,0.83184177,0.01341331,-0.0020861775,0.013575017,0.2803675,-0.07248952,0.94594914,2016-11-15 21:31:22,61.638780112020406
5.497087,-0.641646,8.24563,0.08575391,-0.0036354014,0.062013954,8.0,0.5537065,-0.057934918,0.83069414,0.007268429,-0.0073633417,0.010677218,0.28121158,-0.07291839,0.9460777,2016-11-15 21:31:23,59.97715078394237
5.506664,-0.545878,8.24563,-0.028737158,-0.045043144,-0.012204998,8.0,0.5541063,-0.055114042,0.83061945,0.00766629,-4.323274E-4,0.010869741,0.2809984,-0.07394388,0.94471425,2016-11-15 21:31:24,62.166548797743104
5.449203,-0.5363012,8.24563,0.36651084,0.014527953,-0.02806896,8.0,0.55245256,-0.054788552,0.8317418,0.0035654902,1.530014E-4,0.009670317,0.2820471,-0.06656662,0.94848937,2016-11-15 21:31:25,62.0238998970121
5.5258174,-0.51714754,8.255207,-0.29704857,-0.009597519,-0.3503784,8.0,0.55446255,-0.054619763,0.8304143,0.010404587,-0.0012243688,0.013878167,0.28211904,-0.070770256,0.9466231,2016-11-15 21:31:26,60.4992299614372
5.5162406,-0.5554548,8.274361,-0.024327654,-0.017928155,0.15631844,8.0,0.55461574,-0.05729972,0.83013135,0.008277774,5.633496E-4,0.014179289,0.28225484,-0.07091351,0.9470028,2016-11-15 21:31:27,61.299528183630336
5.48751,-0.5267244,8.312668,-0.3408864,-0.0010294513,-0.04918893,8.0,0.5530256,-0.05246909,0.8315104,0.009705365,-0.005061485,0.009988666,0.28107476,-0.06982241,0.94670856,2016-11-15 21:31:28,61.97170359729455
5.5162406,-0.5267244,8.293514,-0.017555017,-0.032741815,0.034940943,8.0,0.55369097,-0.05234502,0.83107543,0.009165168,-0.0013688058,0.015220761,0.2810883,-0.07106243,0.9458555,2016-11-15 21:31:29,63.063472264662366
5.5162406,-0.5650316,8.2169,-0.0026255138,0.0031794028,-0.012086403,8.0,0.5561311,-0.05828857,0.82904804,0.008605003,-0.0013205372,0.010455549,0.28286397,-0.072741,0.9459462,2016-11-15 21:31:30,61.036358311266746
5.5258174,-0.48841715,8.2169,-0.0019931796,0.016340073,-0.0067995805,8.0,0.552272,-0.05198752,0.83204144,0.005711615,0.0039659105,0.0132575035,0.2813768,-0.069533706,0.9464205,2016-11-15 21:31:32,62.093979548412264
5.497087,-0.5267244,8.255207,0.059086144,-0.013283521,-0.008622016,8.0,0.5525369,-0.051366962,0.83190405,0.008307099,-0.0022234954,0.010528982,0.28065196,-0.071058564,0.9455584,2016-11-15 21:31:33,61.65592494115518
5.535394,-0.5267244,8.264784,-0.4638912,-0.014309743,-0.20618933,8.0,0.5505791,-0.05350034,0.8330668,0.011231661,-0.0011580922,0.014253497,0.28174624,-0.06361058,0.9495271,2016-11-15 21:31:34,62.92500065869529
5.5162406,-0.5363012,8.408437,-0.056930747,-0.023348054,-0.082968764,8.0,0.5525889,-0.05238828,0.8318059,0.01120466,0.0013808459,0.010593653,0.28080788,-0.07210833,0.9455642,2016-11-15 21:31:35,61.013998159523794
5.5162406,-0.5363012,8.274361,0.14055727,-0.005518972,0.08326645,8.0,0.55234015,-0.05187554,0.8320032,0.009520888,-0.0017254502,0.013334572,0.28126213,-0.070125446,0.9462041,2016-11-15 21:31:36,61.505031439358646
5.48751,-0.49799395,8.255207,0.03214711,0.023005689,-0.076749064,8.0,0.5508416,-0.051853098,0.83299744,0.009044826,0.0010797791,0.009415388,0.2820146,-0.06518189,0.9485159,2016-11-15 21:31:37,61.36876562203378
5.506664,-0.545878,8.341399,-0.008154066,-0.017254852,0.041880544,8.0,0.55371916,-0.054308306,0.8309306,0.010192215,-6.606132E-4,0.01334095,0.28368652,-0.065229654,0.94920015,2016-11-15 21:31:38,63.10678815266648
5.5258174,-0.5363012,8.283937,0.08584933,-0.0052028624,0.0777593,8.0,0.55167645,-0.052670594,0.83239347,0.012161732,-0.0019263513,0.012928128,0.28139365,-0.06816291,0.9472746,2016-11-15 21:31:39,61.18092515660852
5.439626,-0.45010993,8.341399,0.03346409,-0.011027069,0.034309417,8.0,0.55002356,-0.04862864,0.8337321,0.0061201453,0.0015440919,0.012466788,0.28015462,-0.06706439,0.94745594,2016-11-15 21:31:40,62.71827752534446
5.439626,-0.48841715,8.274361,-0.023344873,0.0016896697,-0.018410012,8.0,0.5491227,-0.046731967,0.8344342,0.008843064,-0.0011544861,0.009907782,0.27986905,-0.06567247,0.9478496,2016-11-15 21:31:41,62.21609154387609
5.497087,-0.51714754,8.283937,0.04380926,-0.034272432,0.047847807,8.0,0.5477862,-0.052071378,0.8349963,0.013018072,-6.6619366E-4,0.010386109,0.2783969,-0.06916519,0.94721985,2016-11-15 21:31:42,63.08907478262215
5.4204726,-0.47884035,8.312668,0.1990003,0.01771541,0.07672351,8.0,0.5500403,-0.04984387,0.83364934,0.010904551,-0.002838131,0.01457566,0.28081116,-0.06698235,0.9478462,2016-11-15 21:31:43,61.395113716975075
5.45878,-0.48841715,8.24563,0.02352523,-0.030139614,0.16435906,8.0,0.54827607,-0.045813672,0.8350416,0.006778717,7.702522E-4,0.009281874,0.27956358,-0.064620756,0.9483005,2016-11-15 21:31:44,62.66219851554155
5.48751,-0.46926352,8.322245,0.0059216763,-0.03940363,0.22615808,8.0,0.5488557,-0.04739278,0.83457255,0.009994686,-0.0022811107,0.008862555,0.2793216,-0.066114455,0.9474397,2016-11-15 21:31:45,60.564863619619416
5.439626,-0.49799395,8.322245,0.14311449,0.010476305,0.07544123,8.0,0.5469448,-0.048325412,0.83577275,0.008209765,-0.002492074,0.013376474,0.27951935,-0.06489,0.94847935,2016-11-15 21:31:46,62.67703329046977
5.449203,-0.4405331,8.283937,-0.088827714,0.005517083,-0.20076405,8.0,0.5499175,-0.049813077,0.8337322,0.0061866045,-9.339601E-4,0.012507379,0.2806341,-0.06392383,0.9490051,2016-11-15 21:31:47,59.58715040802736
5.4683566,-0.50757074,8.293514,-0.026442753,0.012256981,-0.18401125,8.0,0.54908025,-0.049470384,0.8343042,0.008874416,-0.002141077,0.012010455,0.2805314,-0.063998625,0.9487146,2016-11-15 21:31:48,62.099296186307114
5.45878,-0.45010993,8.255207,-0.01171666,-0.019899936,0.1065273,8.0,0.5466888,-0.046687614,0.8360333,0.008369803,-1.1621788E-4,0.0112300515,0.27868354,-0.06497249,0.94818664,2016-11-15 21:31:49,61.51055797159935
5.449203,-0.48841715,8.264784,0.1435414,-0.012960319,-0.05492793,8.0,0.54563,-0.04981399,0.8365443,0.012293756,-0.0028662272,0.007830262,0.27852592,-0.06565738,0.94857717,2016-11-15 21:31:50,61.63297335441234
5.4204726,-0.45968673,8.283937,0.0018918664,-0.006272323,0.1459786,8.0,0.5500171,-0.046118576,0.8338791,0.0051172376,0.0010019541,0.015274048,0.27993155,-0.06737452,0.9468779,2016-11-15 21:31:51,60.93533101114392
5.497087,-0.4309563,8.293514,-0.016896052,-0.0020904266,0.0649639,8.0,0.5464093,-0.047382843,0.83617693,0.0076962113,-0.0022300929,0.009123385,0.27756009,-0.07120708,0.9448414,2016-11-15 21:31:52,61.488279097757086
5.4204726,-0.45010993,8.350976,-0.11593787,-8.946788E-4,0.035547484,8.0,0.5467505,-0.041890807,0.83624697,0.006274104,-0.0010667183,0.008133054,0.2788447,-0.06608346,0.9465159,2016-11-15 21:31:53,61.90366363876768
5.410896,-0.4213795,8.312668,0.16813448,0.0019604645,0.1896077,8.0,0.5458896,-0.04628563,0.8365776,0.007294953,0.0011026599,0.013546586,0.27813601,-0.06745199,0.94705707,2016-11-15 21:31:54,60.886742942642144
5.449203,-0.4213795,8.322245,0.026805826,0.00225602,-0.012859361,8.0,0.5449839,-0.04389124,0.8372969,0.00611943,2.3517758E-5,0.0080420375,0.2770408,-0.06762949,0.9461059,2016-11-15 21:31:55,61.366832403984276
5.410896,-0.45010993,8.360553,0.0652156,0.01927058,0.08607152,8.0,0.5436269,-0.04255344,0.8382476,0.008603334,-0.003418766,0.014804244,0.27743623,-0.066321485,0.9468561,2016-11-15 21:31:56,61.515410989647414
5.3438582,-0.5746084,8.293514,-0.18603387,0.014028403,-0.018398758,8.0,0.53721946,-0.049593035,0.8419833,0.0073055625,0.00277102,0.01882279,0.27450898,-0.06257244,0.95070064,2016-11-15 21:31:57,61.645730884978285
5.353435,-0.45968673,8.379706,-0.15536541,0.017219111,-0.08858916,8.0,0.5385845,-0.046489675,0.8412879,0.0077118874,-4.7781318E-4,0.01376313,0.27378735,-0.066900216,0.9481877,2016-11-15 21:31:58,61.29870582431061
5.353435,-0.4309563,8.408437,0.08053482,0.0019891676,0.03558571,8.0,0.5384318,-0.045265093,0.84145254,0.00785321,0.0012032427,0.010672808,0.27327237,-0.067979135,0.9473368,2016-11-15 21:31:59,61.20291887521243
5.3247046,-0.47884035,8.360553,0.09924704,-0.010556669,-0.0053691342,8.0,0.53784937,-0.05048628,0.84152794,0.0055058002,6.4554065E-4,0.010600865,0.27262357,-0.06912576,0.948074,2016-11-15 21:32:00,60.514901669119496
5.3342814,-0.45968673,8.37013,-0.02196803,-0.01966356,-0.034636654,8.0,0.53742343,-0.04588277,0.8420634,0.00961262,7.130094E-4,0.008244753,0.27179092,-0.07108707,0.9464685,2016-11-15 21:32:01,62.39543730800028
5.363012,-0.4213795,8.379706,0.11877453,-0.011468602,0.2943256,8.0,0.5377701,-0.04502247,0.8418885,0.008434236,-9.1202185E-4,0.01420176,0.27230975,-0.06893137,0.9470991,2016-11-15 21:32:02,60.180040241512735
5.3725886,-0.49799395,8.37013,-0.002885999,0.01487265,0.06149442,8.0,0.5415053,-0.0498025,0.8392209,0.0038365722,-9.4143674E-4,0.009959638,0.2748099,-0.0688535,0.94711167,2016-11-15 21:32:03,61.26269171180691
5.3247046,-0.4213795,8.42759,-0.40467203,-0.018019559,-0.0689415,8.0,0.53668433,-0.046651453,0.84249246,0.009592712,-0.002135139,0.011601269,0.27287328,-0.06711392,0.94817215,2016-11-15 21:32:04,60.39293262566066
5.3438582,-0.4213795,8.437167,-0.055609223,-0.010439486,0.08797566,8.0,0.53653085,-0.04528879,0.8426646,0.0134705305,-6.087832E-4,0.015453279,0.27270186,-0.06591719,0.9487342,2016-11-15 21:32:05,61.821248870288386
5.305551,-0.45968673,8.39886,0.17154902,0.007240638,0.18918134,8.0,0.5348974,-0.04535877,0.8436985,0.005654454,-0.0025302805,0.013234794,0.2727778,-0.06374876,0.9497599,2016-11-15 21:32:06,61.07386283990654
5.353435,-0.47884035,8.379706,0.18349187,0.019163063,0.17104468,8.0,0.5370496,-0.045747988,0.84230924,0.008184671,-0.0039620586,0.009874642,0.27357966,-0.06462606,0.9494963,2016-11-15 21:32:07,61.74715084823965
4.999093,-0.78529817,8.6574335,-0.050540965,0.036174763,0.08840977,8.0,0.50448424,-0.06475909,0.86098886,0.0055842996,-0.011723593,0.022907436,0.25998363,-0.06576747,0.954874,2016-11-15 21:32:08,60.19140580301473
4.8745947,-0.842759,8.66701,0.016250478,0.01175654,0.06361385,8.0,0.491727,-0.08063363,0.86700803,0.013377845,-0.0034539923,0.017444968,0.24796362,-0.072309636,0.95899177,2016-11-15 21:32:09,60.930829201221755
5.363012,-0.5363012,8.456321,-0.17138852,7.279018E-4,-0.28958946,8.0,0.52903444,-0.053264774,0.8469271,0.0081650615,-0.0027004555,0.009277105,0.268338,-0.06199742,0.95417964,2016-11-15 21:32:10,60.352309821379244
5.3247046,-0.49799395,8.379706,0.3407209,-0.007314284,0.029356556,8.0,0.53392655,-0.048192415,0.8441563,0.009294927,-0.0024237186,0.011000395,0.2710278,-0.06414607,0.9507989,2016-11-15 21:32:11,61.42072018038487
5.2768207,-0.5363012,8.446744,0.21152583,0.0058173668,0.45895562,8.0,0.53291637,-0.049466353,0.8447208,0.005682349,-0.0051468536,0.017105222,0.2705879,-0.067536995,0.94907475,2016-11-15 21:32:12,61.38907741579882
5.305551,-0.48841715,8.418014,-0.3320045,0.010303406,-0.20737681,8.0,0.5344649,-0.053102672,0.8435209,0.008026719,-6.7685917E-4,0.016351938,0.2722371,-0.06666134,0.9503011,2016-11-15 21:32:13,61.07843456473648
5.2768207,-0.47884035,8.360553,0.10865864,-0.009735579,0.34670606,8.0,0.5340264,-0.045257926,0.8442555,0.009294748,1.1478737E-4,0.016679704,0.2711867,-0.06521343,0.94956446,2016-11-15 21:32:14,62.16065017755717
5.2959743,-0.4309563,8.580819,0.35341933,0.02764626,0.051089335,8.0,0.5329413,-0.04238887,0.8450898,0.0077481866,-0.0016119853,0.030323684,0.27104524,-0.06319141,0.949868,2016-11-15 21:32:15,61.10780207502428
5.305551,-0.47884035,8.389283,0.045333266,-0.010487017,0.02050588,8.0,0.5318257,-0.048331738,0.8454736,0.006580651,-0.0033564493,0.009632647,0.2698701,-0.06550184,0.95023906,2016-11-15 21:32:16,61.10148944333215
5.315128,-0.39264908,8.42759,-0.0048013264,-0.021829622,0.021508783,8.0,0.53171843,-0.046670277,0.84563434,0.009704411,-2.3911148E-4,0.011366904,0.27120742,-0.06367789,0.95047444,2016-11-15 21:32:17,60.82046183015659
5.2959743,-0.41180268,8.42759,-0.040550478,-0.0137487855,0.055232566,8.0,0.5304077,-0.042770077,0.8466631,0.009862423,0.008434344,0.012396038,0.26936805,-0.062953256,0.9502086,2016-11-15 21:32:18,61.07952083411212
5.2863975,-0.4309563,8.408437,-0.30576745,0.008402042,-0.15750039,8.0,0.53128684,-0.042538982,0.84612334,0.008172154,-0.0014066324,0.011862576,0.2718713,-0.057018336,0.95284873,2016-11-15 21:32:19,60.00335212892395
5.305551,-0.4405331,8.39886,0.014719222,0.018695854,-0.0056109508,8.0,0.53086895,-0.046132877,0.8461973,0.009551525,-0.0016837679,0.0049601197,0.27007937,-0.067059726,0.948797,2016-11-15 21:32:21,62.028708801753716
5.2768207,-0.4213795,8.37013,-0.05659755,-0.0062993923,-0.033323776,8.0,0.5314046,-0.041767262,0.84608775,0.009761989,-0.0011728033,0.012054503,0.2696029,-0.062793516,0.94989437,2016-11-15 21:32:21,60.83136975820345
5.2959743,-0.4309563,8.379706,0.17601177,0.016577473,0.052686274,8.0,0.53313065,-0.042172004,0.8449812,0.012107551,0.0010087118,0.010118604,0.27120924,-0.06353522,0.9495818,2016-11-15 21:32:23,60.61203668679597
5.257667,-0.45968673,8.37013,-0.19286983,-0.021706099,-0.16511151,8.0,0.5307882,-0.046360325,0.84623563,0.005607486,-4.451722E-4,0.007928133,0.26965073,-0.064476125,0.9503296,2016-11-15 21:32:24,60.94590762243142
5.2959743,-0.36391866,8.39886,0.2294996,-0.0011600431,0.15715083,8.0,0.5312531,-0.041643202,0.8461891,0.007145822,-0.0014506504,0.01086539,0.26942146,-0.06494611,0.94912475,2016-11-15 21:32:25,60.37864638698038
5.2768207,-0.37349546,8.408437,0.1296916,0.011130736,0.02791425,8.0,0.53231794,-0.040847175,0.84555846,0.0051732063,0.0035259463,0.014379799,0.26977247,-0.06648138,0.94785,2016-11-15 21:32:26,61.24941410225475
5.2768207,-0.40222588,8.437167,0.049137432,-0.008389219,0.026188882,8.0,0.5283911,-0.039370038,0.84808785,0.009955645,-0.0026915371,0.009979129,0.26806948,-0.06373613,0.94918925,2016-11-15 21:32:27,60.04298457156695
5.2289367,-0.4405331,8.446744,0.026952974,0.055983536,-0.18397209,9.0,0.53110844,-0.042540934,0.8462352,0.0026067495,-0.0024782717,0.015579641,0.27043563,-0.061756846,0.9509804,2016-11-15 21:32:28,61.16020840453339
5.257667,-0.40222588,8.437167,0.02239455,0.011335383,-0.0906267,8.0,0.5294783,-0.0402409,0.8473686,0.010937333,-9.040944E-4,0.01648742,0.2690818,-0.0632972,0.9497592,2016-11-15 21:32:29,58.82592027176962
5.257667,-0.4213795,8.465898,-0.26122585,-0.0013761296,-0.10690599,8.0,0.5279176,-0.039106302,0.8483948,0.011428297,1.1589378E-4,0.010641992,0.2687608,-0.061681636,0.9499668,2016-11-15 21:32:30,61.35367818607825
5.257667,-0.45010993,8.408437,-0.013713326,0.01466333,0.014467727,8.0,0.5290711,-0.04337614,0.84746826,0.0075217485,-0.0024561547,0.010480583,0.26873538,-0.06573336,0.94860584,2016-11-15 21:32:31,60.17156838150627
5.257667,-0.4213795,8.456321,0.07267034,0.0024474408,-0.062183674,8.0,0.5293224,-0.03761532,0.8475866,0.01290381,0.0012009591,0.015375555,0.268184,-0.06536475,0.94811,2016-11-15 21:32:32,61.47455786529132
5.257667,-0.36391866,8.456321,-0.025891233,0.0064886683,-0.042491827,8.0,0.5276398,-0.03679281,0.848671,0.008870661,-4.039593E-4,0.014207542,0.26790076,-0.062539086,0.94932467,2016-11-15 21:32:33,60.31805286976721
5.2480903,-0.41180268,8.475474,-0.2959094,0.009152811,-0.41946852,8.0,0.52821124,-0.038273115,0.84825,0.0063681602,4.5519322E-5,0.0097254515,0.26969752,-0.05769459,0.9520894,2016-11-15 21:32:34,60.83166892052944
5.267244,-0.4405331,8.437167,-0.08277269,-0.0060928194,0.08693444,8.0,0.52892077,-0.04451043,0.84750324,0.0047416687,-0.0013706386,0.016305566,0.2680879,-0.06505661,0.9497297,2016-11-15 21:32:35,61.20531730756798
5.2480903,-0.41180268,8.37013,-0.13903537,0.007434658,-0.14888723,8.0,0.5306385,-0.038510285,0.8467229,0.0048443675,-0.00354594,0.0073933005,0.27078432,-0.05789879,0.95202404,2016-11-15 21:32:36,60.90786185037855
5.257667,-0.39264908,8.465898,-0.449108,0.009959501,-0.4504134,8.0,0.53080314,-0.038813505,0.8466059,0.0077561736,-0.0030853078,0.01719898,0.27115148,-0.05514917,0.95286083,2016-11-15 21:32:37,59.6508068476802
5.104438,-0.5554548,8.485051,-0.2510926,0.09370137,0.07383871,8.0,0.52653885,-0.048422623,0.84877086,0.003389895,-0.004896082,0.014951646,0.27021533,-0.056537535,0.95359015,2016-11-15 21:32:38,60.247118277898785
5.305551,-0.36391866,8.475474,0.31889594,-0.01782373,0.016291484,8.0,0.53032637,-0.051184703,0.846247,0.011015892,0.013475642,0.018588066,0.2682456,-0.06696889,0.9506936,2016-11-15 21:32:39,61.66133912907728
5.3725886,-0.58418524,8.293514,0.012540794,0.029457329,-0.0011351942,8.0,0.5456802,-0.057375133,0.836027,0.009471834,6.942563E-4,0.014101267,0.27821207,-0.07107732,0.9477149,2016-11-15 21:32:40,61.709644724770925
5.3821654,-0.48841715,8.37013,-0.15814897,0.0010941126,-0.10367614,8.0,0.54328483,-0.05250434,0.83790517,0.006023109,0.002327852,0.016098976,0.27600938,-0.06856984,0.9485671,2016-11-15 21:32:41,61.388336965237535
5.391742,-0.47884035,8.322245,0.12442511,0.008892493,0.19010092,8.0,0.5439129,-0.052477207,0.83749926,0.008319497,5.6330115E-4,0.014568567,0.27666658,-0.06866833,0.94841725,2016-11-15 21:32:42,59.48348519863562
5.410896,-0.4213795,8.39886,0.07478077,0.036826037,-0.23804267,8.0,0.54322666,-0.045284912,0.8383639,0.0079039335,-0.0035262257,0.010863125,0.27765116,-0.06179411,0.9500352,2016-11-15 21:32:43,61.04937279197105
5.363012,-0.46926352,8.341399,0.24417871,0.010481731,0.09983312,8.0,0.539534,-0.045788202,0.840718,0.0047922134,7.801838E-4,0.012389183,0.27399954,-0.06673217,0.94827825,2016-11-15 21:32:44,58.63161734745333
5.3821654,-0.49799395,8.341399,-0.10820831,-0.030925112,0.09211344,8.0,0.5396513,-0.052927714,0.84022325,0.006678283,0.0057831816,0.010885894,0.27406093,-0.069026634,0.948529,2016-11-15 21:32:45,60.56905934690326
5.3725886,-0.4213795,8.389283,0.14139685,-4.552462E-4,0.25673863,8.0,0.53989464,-0.04610859,0.84046876,0.0063824058,2.1813065E-4,0.013622999,0.2744439,-0.06648463,0.94820535,2016-11-15 21:32:46,60.740824347008044
5.3438582,-0.45010993,8.389283,0.077898785,-0.010491823,0.031996105,8.0,0.5385531,-0.043303635,0.841478,0.0068358183,-0.0025362298,0.014513493,0.27343494,-0.065637514,0.9481026,2016-11-15 21:32:47,60.36581092396662
5.3342814,-0.50757074,8.379706,-0.0015003916,-0.017047323,-0.0021108696,8.0,0.53511804,-0.047632422,0.8434334,0.010099113,-0.002175331,0.010710597,0.2716468,-0.066677555,0.94900906,2016-11-15 21:32:48,60.329230363848836
5.363012,-0.45968673,8.303091,-0.37955815,-0.029073408,-0.109301284,8.0,0.53871185,-0.045068767,0.8412837,0.011323512,-1.3060868E-5,0.010940969,0.27472684,-0.06113298,0.9510669,2016-11-15 21:32:49,60.393255358821285
5.2959743,-0.40222588,8.37013,-0.022992365,0.0063296906,0.035790436,8.0,0.5364168,-0.043237135,0.8428449,0.0059167147,-0.0026592612,0.012245655,0.27221954,-0.06570558,0.94822395,2016-11-15 21:32:50,61.03509710387745
5.3725886,-0.4405331,8.389283,-0.13269949,-0.017741855,-0.10266577,8.0,0.53496724,-0.04328445,0.84376323,0.01098454,-0.0016516224,0.009556234,0.27101347,-0.068118736,0.9468363,2016-11-15 21:32:51,59.59641291493328
5.363012,-0.4309563,8.42759,-0.44402164,-0.013792992,-0.12318692,8.0,0.53790665,-0.04423777,0.84184295,0.008435547,-5.870573E-4,0.015143514,0.27374107,-0.06404098,0.94908977,2016-11-15 21:32:52,60.70193365472462
5.410896,-0.5267244,8.293514,0.17617394,-5.581052E-4,0.27032074,8.0,0.54500324,-0.04542606,0.8372024,0.006821811,-0.007952105,0.00929451,0.27540582,-0.06671822,0.9468817,2016-11-15 21:32:53,61.20086546115425
5.3725886,-0.4405331,8.389283,0.09212613,-0.0053418633,0.19123581,8.0,0.5410425,-0.044120405,0.83983713,0.006302297,-0.0027925968,0.010284841,0.27470863,-0.06888801,0.9462571,2016-11-15 21:32:54,61.58813296613112
5.363012,-0.4213795,8.331821,0.16262594,-0.016337415,0.3066948,8.0,0.53770757,-0.042494588,0.84205985,0.00945437,-4.9434975E-4,0.008180261,0.27322194,-0.06628474,0.9475874,2016-11-15 21:32:55,61.81182595663164
5.3438582,-0.50757074,8.341399,-0.16736166,-0.023979707,-0.10993807,8.0,0.5390895,-0.05131142,0.840684,0.0063658357,-6.195195E-4,0.010365725,0.27410004,-0.06725742,0.9491692,2016-11-15 21:32:56,59.895951181103754
5.3438582,-0.47884035,8.341399,0.19185247,0.028021012,0.0492865,8.0,0.53996485,-0.044333123,0.8405192,0.006544411,0.0012533665,0.025143623,0.274026,-0.06815569,0.9469382,2016-11-15 21:32:57,60.44161621451895
5.305551,-0.34476504,8.37013,0.25166017,-0.020085413,0.5853486,8.0,0.533999,-0.044067003,0.84433585,0.0073413253,-0.0017576069,0.0068594813,0.27124453,-0.0660776,0.9483304,2016-11-15 21:32:58,58.95254466142031
5.267244,-0.48841715,8.37013,-0.121552125,0.0057785455,-0.040091958,8.0,0.5336029,-0.048823494,0.8443247,0.006930709,-0.0049348027,0.014574707,0.27153045,-0.06480107,0.9503467,2016-11-15 21:32:59,60.96867581088201
5.305551,-0.41180268,8.418014,0.24706379,0.03596896,-0.0867611,8.0,0.53358835,-0.04287743,0.84465677,0.007843494,-3.2502785E-4,0.013305604,0.2718138,-0.06287321,0.95038706,2016-11-15 21:33:00,58.34046387335206
5.315128,-0.38307226,8.437167,0.008460932,0.043019257,0.012470771,8.0,0.532069,-0.0391584,0.84579504,0.013386369,-0.0047265217,0.03556323,0.26964757,-0.067793876,0.94625866,2016-11-15 21:33:01,60.436618256037576
5.2959743,-0.4213795,8.408437,-0.006886122,-0.009308811,0.08672496,8.0,0.53165334,-0.042036388,0.84591824,0.007816911,-0.0018082038,0.011088371,0.26940608,-0.0679947,0.947015,2016-11-15 21:33:02,60.60660386346916
5.3342814,-0.36391866,8.42759,-0.08406998,0.01348593,4.935465E-4,8.0,0.5358805,-0.04150811,0.84327286,0.011352658,5.0934404E-4,0.011809647,0.2716077,-0.06680905,0.9471043,2016-11-15 21:33:03,60.79952740500828
5.3342814,-0.34476504,8.408437,-0.1091533,0.0075429576,-0.20764263,8.0,0.5343242,-0.0417345,0.8442487,0.0070504546,0.003497783,0.010822356,0.2715773,-0.06636135,0.94722176,2016-11-15 21:33:04,60.8385978047026
5.2959743,-0.4405331,8.437167,-0.17687672,-0.0027872182,-0.0490058,8.0,0.5328125,-0.042282753,0.84517634,0.009474695,0.002161555,0.011893392,0.27133656,-0.061576094,0.9501844,2016-11-15 21:33:05,60.400135464707745
5.2959743,-0.37349546,8.39886,0.0035568853,0.002675162,-0.12658745,8.0,0.531774,-0.0403251,0.84592575,0.009557009,-7.7642873E-4,0.0121077895,0.26992843,-0.064302094,0.94908,2016-11-15 21:33:06,61.481055297676974
5.305551,-0.4405331,8.437167,-0.4478281,-0.014846201,-0.111134514,8.0,0.5328965,-0.040528588,0.84520924,0.0036628246,0.0033171922,0.01372844,0.27132434,-0.061949693,0.94992816,2016-11-15 21:33:07,59.86543808845759
5.21936,-0.37349546,8.437167,0.40895468,0.013026346,0.1681174,8.0,0.53020734,-0.038568635,0.84699035,0.005428016,0.0032559969,0.01093483,0.27026537,-0.0597848,0.95081604,2016-11-15 21:33:08,60.127701349051215
5.2385135,-0.40222588,8.485051,0.10367194,-0.023714833,0.35865587,8.0,0.5271983,-0.043391705,0.8486337,0.011214018,3.704056E-4,0.015256345,0.26838037,-0.061914325,0.9510721,2016-11-15 21:33:09,59.75271470060106
5.267244,-0.32561144,8.408437,-0.2666342,-0.013032803,-0.025709467,8.0,0.528675,-0.038388763,0.84795576,0.004901707,-0.0027016215,0.011992931,0.2689609,-0.061418235,0.9503695,2016-11-15 21:33:10,60.12380202097348
5.305551,-0.32561144,8.42759,-0.0710186,-0.002586386,-0.019420777,8.0,0.5272685,-0.038381826,0.8488315,0.014033854,0.0050475933,0.011171818,0.26778662,-0.06295409,0.94923174,2016-11-15 21:33:11,61.1305678444579
5.21936,-0.34476504,8.456321,0.09247306,0.001442201,0.0981847,8.0,0.52721435,-0.040120516,0.84878457,0.0026530623,-7.982552E-5,0.009081423,0.2673041,-0.064741015,0.9489012,2016-11-15 21:33:12,59.96063985737883
5.209783,-0.38307226,8.312668,-0.08995041,-0.03510575,0.0013821366,8.0,0.5290741,-0.03705159,0.8477664,0.010280669,-0.0018765442,0.010290384,0.2686703,-0.05962357,0.9507253,2016-11-15 21:33:13,61.94048157148062
5.267244,-0.38307226,8.42759,0.43421084,0.0115571255,0.20652947,8.0,0.52723384,-0.036222197,0.8489478,0.0072594285,-0.0018336363,0.010065973,0.26781332,-0.06276884,0.9491212,2016-11-15 21:33:15,59.15298385743726
5.267244,-0.35434186,8.39886,0.016719326,0.0070911013,0.29902858,8.0,0.5287122,-0.037496336,0.8479725,0.00876224,0.001221776,0.009048343,0.26952893,-0.060520783,0.9502182,2016-11-15 21:33:16,61.03499468633595
5.257667,-0.41180268,8.446744,-0.30314794,0.0027959645,-0.5630388,8.0,0.52611405,-0.038416002,0.84954584,0.0074086785,-0.002577886,0.01434958,0.26835975,-0.056630366,0.9528174,2016-11-15 21:33:17,59.4058785501739
5.2385135,-0.40222588,8.475474,-0.065648586,0.039561745,-0.28304917,8.0,0.52729857,-0.038228698,0.8488197,0.0073469877,-0.0027247295,0.015964508,0.26885983,-0.058419034,0.95185894,2016-11-15 21:33:18,60.55470811406411
5.21936,-0.35434186,8.485051,0.30037478,-5.9879594E-4,0.1853244,8.0,0.5279041,-0.03699982,0.8484977,0.010546446,0.0027260706,0.01634401,0.26811206,-0.061527435,0.9499004,2016-11-15 21:33:19,62.042005582956946
5.2768207,-0.34476504,8.475474,0.009367228,-0.011760306,-0.06654338,8.0,0.52640325,-0.036892787,0.8494342,0.011942148,0.0016861297,0.015474498,0.26712373,-0.059541292,0.95081466,2016-11-15 21:33:20,60.43557655939172
5.267244,-0.37349546,8.465898,0.11187366,-0.0076512494,0.1976445,8.0,0.5278536,-0.04136497,0.8483275,0.008831024,2.6298687E-4,0.017374277,0.26736346,-0.066386394,0.9480388,2016-11-15 21:33:21,61.564830102721956
5.2480903,-0.31603462,8.437167,0.026639808,0.03621879,-0.22125722,8.0,0.52696085,-0.034607995,0.8491847,0.002741754,-0.0024278276,0.015634835,0.26711732,-0.061509266,0.94932795,2016-11-15 21:33:22,58.883814493692064
5.1906295,-0.38307226,8.485051,-0.14278743,-0.020548526,-0.0167654,8.0,0.5217975,-0.037009235,0.85226625,0.009762883,9.0606883E-4,0.014565527,0.26468047,-0.061928038,0.94992304,2016-11-15 21:33:23,61.96418749842312
5.1810527,-0.41180268,8.475474,0.09619774,0.0123325335,0.10849298,8.0,0.5209645,-0.035564445,0.8528372,0.0077053905,-0.006337568,0.012017548,0.26400873,-0.06100317,0.9504346,2016-11-15 21:33:24,61.241800274967005
5.21936,-0.32561144,8.446744,-0.3576219,-0.014743359,-0.37613392,8.0,0.5235034,-0.03718812,0.85121155,0.009079993,0.0036821961,0.011668742,0.26523894,-0.06413956,0.9492928,2016-11-15 21:33:25,59.98088342191028
5.2480903,-0.34476504,8.504205,-0.052668273,0.023553757,-0.25642225,8.0,0.52361745,-0.034516763,0.851254,0.01205349,-6.3097477E-4,0.01643014,0.26656336,-0.060033653,0.95017743,2016-11-15 21:33:26,61.2630522155242
5.2002063,-0.38307226,8.494628,-0.09383604,0.0019091946,0.05646099,8.0,0.5211933,-0.035983138,0.85267967,0.0017480254,-0.0057909265,0.010143638,0.2644937,-0.06230957,0.9494624,2016-11-15 21:33:27,59.81708023106576
5.2002063,-0.40222588,8.494628,0.12328698,0.005158252,-0.008243147,8.0,0.5242434,-0.04111415,0.8505753,0.0073221326,0.0028718114,0.013313115,0.2646385,-0.06602176,0.94941884,2016-11-15 21:33:28,61.82625912986731
5.209783,-0.36391866,8.475474,-0.0080800885,0.03661179,-0.22269607,8.0,0.522091,-0.0376834,0.852057,0.004751861,0.0014085062,0.009777963,0.26540783,-0.060106713,0.951546,2016-11-15 21:33:29,59.57428894014128
5.1523223,-0.45010993,8.485051,0.018376157,0.04701224,-0.12483182,8.0,0.5172727,-0.040006246,0.854885,0.0038471818,-0.011284843,0.018621266,0.2632973,-0.06113066,0.95154047,2016-11-15 21:33:30,60.979866144749124
3.7924154,0.6895301,9.308656,-0.610398,0.3334418,-1.9758852,11.0,0.36183763,0.0046535046,0.93222946,0.04948908,0.048232388,0.014583647,0.21314913,-0.032940667,0.9617215,2016-11-15 21:33:31,60.99640244176221
2.4229321,4.003105,8.848969,0.27686787,0.56240475,-0.49952424,8.0,0.22979745,0.32446426,0.9175598,0.018111318,0.081377685,-0.0138344765,0.17503521,0.0679343,0.87132543,2016-11-15 21:33:32,60.682488020456034
1.8962077,3.2848446,9.232041,-0.18505983,0.009450711,-0.82002825,8.0,0.19747792,0.3354402,0.921131,-0.0029436052,4.236102E-4,0.018699586,0.1804058,0.09487463,0.8307044,2016-11-15 21:33:33,61.817064415001106
1.9057846,2.96881,9.3661175,0.0064495364,0.047064338,0.03607669,8.0,0.18854879,0.29415122,0.93697625,0.005695626,0.0020526946,0.013876021,0.161782,0.074792154,0.8263486,2016-11-15 21:33:34,60.28308134430979
1.9536686,2.825158,9.423578,-0.09910827,-0.11620784,0.16932742,9.0,0.2061281,0.2836082,0.9365242,1.6126037E-4,-0.007630408,0.021696806,0.16865233,0.06982998,0.8357992,2016-11-15 21:33:35,61.3020868774811
2.0207062,2.7964275,9.414001,0.17327619,2.0293519E-4,-0.2211975,9.0,0.21023722,0.27711996,0.9375526,-7.429719E-5,0.01644966,0.018330514,0.163513,0.061053224,0.8349734,2016-11-15 21:33:36,59.24481130073683
2.0590134,2.777274,9.356541,-0.08016554,-0.06854143,-0.21095857,9.0,0.20373538,0.27614874,0.939273,0.004269585,7.9488754E-4,0.026142478,0.16132718,0.06754362,0.8453074,2016-11-15 21:33:37,61.24278070090473
1.9728222,2.6431987,9.414001,-0.041807435,0.03784986,0.09201674,9.0,0.18929572,0.2670252,0.9449152,-0.0016632974,0.018914461,0.02655524,0.1553148,0.06596249,0.838954,2016-11-15 21:33:38,60.32039704279384
1.8387469,2.7581203,9.481039,-0.08026994,0.015958916,0.096159264,9.0,0.18823226,0.27813795,0.9419172,0.0030218214,0.002038002,0.021768332,0.15428351,0.07020169,0.8443874,2016-11-15 21:33:39,60.45037858267495
1.8195933,2.719813,9.423578,0.07546085,0.14991404,-0.43503237,9.0,0.18487589,0.268944,0.94524604,0.001741752,0.008423805,0.016396582,0.14803863,0.07317583,0.8606377,2016-11-15 21:33:40,61.12069331878442
1.7142484,2.7964275,9.461885,-0.02346635,-0.045723073,-0.29782775,9.0,0.17560072,0.2740008,0.94556224,-5.313158E-4,0.010980427,0.020016074,0.14779061,0.07314121,0.84757787,2016-11-15 21:33:41,60.33924876163006
1.7429788,2.7389667,9.3661175,-0.0120469155,0.023048634,-0.3852244,9.0,0.16143866,0.27304667,0.9483581,0.016399473,0.006169915,0.0074487925,0.14158146,0.07736504,0.851853,2016-11-15 21:33:42,61.27233554477654
1.8770541,2.0685902,10.0748005,-0.14689927,0.128888,0.44675225,10.0,0.19080676,0.25180414,0.94878215,0.0011129528,-0.038958058,0.07871491,0.14950454,0.061587468,0.84376997,2016-11-15 21:33:43,59.579023954937966
1.733402,2.4995465,9.519346,0.058270533,0.1071489,-0.057053424,9.0,0.1684924,0.24594767,0.9545261,0.0056858063,0.009046838,0.027560055,0.13905957,0.0624344,0.84636265,2016-11-15 21:33:44,61.65039556347622
1.7046716,2.566584,9.548077,-0.078867644,-0.16985126,-0.14222546,9.0,0.16969791,0.25715595,0.9513535,0.0043226182,0.0058144033,0.020946205,0.14178802,0.06499072,0.8402976,2016-11-15 21:33:45,59.40537420958069
1.6089035,2.5953147,9.576807,-0.04869623,-0.0795684,-0.06495957,9.0,0.16320111,0.25624025,0.9527362,0.00497213,0.009365886,0.022572517,0.13859643,0.06811043,0.84798175,2016-11-15 21:33:46,61.21132094541406
1.6280571,2.719813,9.212888,0.100966886,0.011998061,0.12891333,9.0,0.15865618,0.25854313,0.95288175,-0.0013733059,0.028692335,0.031476796,0.13598372,0.07040929,0.84771013,2016-11-15 21:33:47,59.42083399680624
1.7621324,2.2505496,9.634268,0.038591735,0.030176599,0.2072914,10.0,0.17733882,0.21563971,0.96023464,0.01673831,0.002879843,0.0061792135,0.13433366,0.048681878,0.85128236,2016-11-15 21:33:48,60.68314616076292
1.7812861,2.4420857,9.605537,-0.026245035,-0.008832281,-0.02725181,9.0,0.17842036,0.24127406,0.9539146,0.008048117,0.0030236244,0.01943791,0.1396159,0.058315378,0.84740883,2016-11-15 21:33:49,59.99372223492456
1.7142484,2.336741,9.595961,0.028784052,-3.7040093E-4,-0.17626798,9.0,0.17538287,0.2298007,0.95730484,0.009175241,0.0046173483,0.024859488,0.13596047,0.05305132,0.8473671,2016-11-15 21:33:50,60.23787823702607
1.6663644,2.384625,9.548077,-0.2725701,-0.25792193,-0.0565029,9.0,0.17484714,0.25028324,0.9522535,0.00403443,-0.0029558688,0.023961902,0.13974796,0.061098844,0.84916586,2016-11-15 21:33:51,61.460436993930855
1.9249382,2.183512,9.5385,-0.017142922,-0.12599413,0.028385881,10.0,0.16628578,0.2242498,0.9602402,0.021500334,3.848374E-4,0.012270808,0.12891065,0.058493212,0.8599973,2016-11-15 21:33:52,59.46333260905982
1.6663644,2.0685902,9.519346,-0.099861056,0.18788636,0.44658363,11.0,0.20850469,0.21230102,0.95470107,-0.0563709,0.0105755925,0.06298411,0.14878228,0.03701308,0.85236263,2016-11-15 21:33:53,61.91576537774188
-4.357447,1.3503298,10.6398325,0.11909579,0.97069687,3.0970042,59.0,-0.07433616,0.04604283,0.9961698,-0.26013458,0.12459118,0.04643351,-0.0056337803,0.043463893,0.9808695,2016-11-15 21:33:54,60.408182058999344
-5.803545,3.6966474,7.536947,0.61298954,-0.034410406,-0.23658916,7.0,-0.54510504,0.3980725,0.7378338,-0.021397054,-0.016606629,0.03973496,0.30360684,-0.18632466,-0.9293786,2016-11-15 21:33:55,61.38886894396502
-7.192182,0.1436521,6.5026517,-0.42275584,-0.012906365,-0.43858296,3.0,-0.6517997,0.09005808,0.75302505,0.017972112,-0.03192505,-0.01603061,0.3483776,-0.03230323,-0.9345713,2016-11-15 21:33:57,59.600963305017274
-6.847417,-0.9672575,7.1155677,-1.2358582,-0.063377656,0.13358372,3.0,-0.6967577,-0.09456087,0.71104634,-0.0040729046,-0.0030989423,0.011951685,-0.37876505,-0.042599566,0.9242967,2016-11-15 21:33:58,59.40822377569514
-6.789956,-0.93852705,7.192182,-0.055735834,-0.01511252,0.02724068,4.0,-0.68579733,-0.09394502,0.7217037,-0.008077145,-9.5232576E-4,0.00822711,-0.37063044,-0.04712768,0.9275378,2016-11-15 21:33:59,61.153694397671345
-6.7803793,-0.90021986,7.1730285,-0.048822273,-0.0060693636,0.008181764,4.0,-0.6843779,-0.09174222,0.72333264,-0.0065689087,8.4056705E-4,0.0075831413,-0.3690831,-0.046034757,0.9282162,2016-11-15 21:34:00,60.1165377493001
-6.789956,-0.93852705,7.2304893,0.019585017,-0.009304324,-0.058365244,3.0,-0.6819768,-0.09415425,0.725288,-0.006883025,-7.4234605E-4,-0.005007863,-0.36811918,-0.048775606,0.92848814,2016-11-15 21:34:01,60.74629290568925
-6.1387334,0.90021986,8.1402855,0.55328375,-0.11480215,0.49899635,5.0,-0.65855974,-0.014777796,0.75238335,-0.012511849,0.07862811,0.020882785,-0.35658523,-0.027550057,0.9338058,2016-11-15 21:34:02,59.93690347008272
-4.663905,1.1683705,8.159439,-0.0019181874,0.86242926,4.1507435,2.0,-0.35323116,-0.06318546,0.9333998,-0.08772522,0.1663999,-0.06626052,0.1529046,0.09094632,-0.9649391,2016-11-15 21:34:03,60.344107318328575
-7.536947,-0.20111294,5.5641246,-0.70807874,2.6878862,-0.48557845,3.0,-0.8604328,-0.009477128,0.5094757,0.040073574,0.04155516,-0.10155922,0.3467093,0.21850967,-0.8161766,2016-11-15 21:34:04,60.68208041440346
-0.9768343,-2.4516625,10.572795,-0.050830774,0.009834986,5.9855237,3.0,-0.10538654,-0.10823647,0.9885234,-0.04526431,0.009729013,0.009793341,0.07463808,0.043178912,-0.9794073,2016-11-15 21:34:05,59.910768730505126
-1.3694834,-0.9672575,9.797073,6.242428E-4,-0.055376593,-0.017499747,3.0,-0.1359809,-0.09350811,0.9862887,-0.0029199421,-0.003082499,0.017317593,0.049084112,0.06721233,-0.93760943,2016-11-15 21:34:06,60.345945147641864
0.06703765,-0.18195933,12.756307,0.11210786,0.105036244,0.5304261,3.0,-0.15647809,-0.09203673,0.98338383,0.046176806,-0.017980143,0.033810854,0.05089659,0.068591245,-0.93421775,2016-11-15 21:34:07,56.6677627501746
-0.39264908,-0.39264908,10.295067,0.0129935555,-0.0153273735,-0.19741385,0.0,-0.019597257,-0.042432167,0.9989071,0.003189791,-0.010779433,0.052614093,0.0048614033,0.022634087,-0.9609357,2016-11-15 21:34:08,63.5024951323847
-0.19153613,-0.47884035,10.151415,0.10192229,-0.07423181,0.57884574,0.0,-0.018590676,-0.044029195,0.99885726,-0.0019392464,-0.0018670261,0.032116592,0.0032754901,0.023697995,-0.96050334,2016-11-15 21:34:09,70.16034714802711
-0.16280572,-0.45968673,10.01734,2.085759,-7.8018785,2.234861,0.0,-0.016181607,-0.039844666,0.9990748,0.024618221,-0.004719455,0.058277607,-0.016247278,-0.012931965,0.9136132,2016-11-15 21:34:10,73.9698989061908
-0.08619126,-0.4405331,10.0748005,-0.05772041,0.08495304,0.5310525,0.0,-0.013246775,-0.04023504,0.9991024,0.0053486954,-0.0018581301,0.030888855,-0.0027459038,0.02125426,-0.9273175,2016-11-15 21:34:11,74.42747356026184
-0.11492168,-0.38307226,10.103531,1.166284,-0.6869938,1.4775898,0.0,-0.009876242,-0.04162357,0.99908453,-0.0017959811,-0.0032686219,0.027004957,-0.0029650775,0.020978343,-0.9275891,2016-11-15 21:34:12,64.95174294535245
-0.12449849,-0.39264908,10.01734,-0.021886017,0.079734944,0.07283105,0.0,-0.018906735,-0.046003576,0.99876225,-0.007081507,0.0010429434,0.03808081,-0.003071227,0.023090659,-0.89538825,2016-11-15 21:34:13,54.89756643128089
-0.35434186,-0.4309563,10.132261,-0.15317547,-0.033567164,0.0035303459,0.0,-0.009235836,-0.04983884,0.9987146,0.0061710845,0.008690987,0.034205914,-0.004707231,0.022774212,-0.89345604,2016-11-15 21:34:14,61.05814724194186
-0.37349546,-0.35434186,10.093954,0.004091588,0.007170406,0.064039685,0.0,-0.039464578,-0.033589963,0.9986563,3.778264E-4,0.0013363324,0.035247862,0.0101215355,0.023739146,-0.9012475,2016-11-15 21:34:15,62.482010149462006
-0.4213795,-0.34476504,10.084377,0.011547936,-0.0028394023,0.13301323,0.0,-0.03771459,-0.035886496,0.998644,4.4552982E-4,0.0018575452,0.025489092,0.009523831,0.023379253,-0.8970317,2016-11-15 21:34:16,54.807117547295725
-0.4309563,-0.35434186,10.093954,0.012437135,-0.0142031815,0.010770768,0.0,-0.041937895,-0.033805605,0.9985481,9.807236E-4,-0.0041703805,0.032432556,0.010947605,0.024088094,-0.8948702,2016-11-15 21:34:17,71.9613929107586
-0.4405331,-0.35434186,10.103531,-0.035926685,0.039143804,0.07397225,0.0,-0.041683115,-0.031594627,0.99863124,-0.0012478754,-0.0053325184,0.034305155,0.011305187,0.023033798,-0.8948824,2016-11-15 21:34:18,54.294313243674694
-0.45010993,-0.36391866,10.084377,-0.015103511,0.005402171,-0.070436545,0.0,-0.04145192,-0.03350273,0.99857867,-0.004296556,-0.0043322593,0.03338796,0.011370901,0.023604436,-0.89546067,2016-11-15 21:34:19,61.07693015395421
-0.45010993,-0.36391866,10.084377,-0.019096205,0.03495347,0.034742445,0.0,-0.041066952,-0.032408115,0.99863064,-0.0018964335,1.3358891E-4,0.032342434,0.011402963,0.023604752,-0.8963438,2016-11-15 21:34:20,60.06678319536757
-0.47884035,-0.2777274,10.065224,-0.06451538,0.08328244,-0.2648404,0.0,-0.04162487,-0.032086555,0.99861795,0.0014353096,6.919354E-4,0.028436542,0.0115225585,0.024395134,-0.89633054,2016-11-15 21:34:21,56.95055052876196
