ACC_X,ACC_Y,ACC_Z,GYRO_X,GYRO_Y,GYRO_Z,LIGH_1,GRAV_X,GRAV_Y,GRAV_Z,LINACC_X,LINACC_Y,LINACC_Z,ROTVEC_X,ROTVEC_Y,ROTVEC_Z,TIME,VOICE
3.3806129,0.51714754,9.576807,-0.2598852,0.061716568,-0.40153652,51.0,0.33283743,0.04340255,0.94198483,0.013834178,0.002391465,0.022628725,0.1256498,-0.11420602,0.6467448,2017-08-03 20:52:48,-Infinity
3.667917,1.2354081,9.232041,-0.07116011,-0.03251553,-0.28951207,50.0,0.36527532,0.10729419,0.9246956,0.0061858594,-0.0065638646,0.02793181,0.16637982,-0.10092963,0.6490678,2017-08-03 20:52:48,-Infinity
3.5434184,0.7374141,9.624691,-0.03196728,0.035023913,0.26572192,51.0,0.34471238,0.07478241,0.93572485,0.014933199,0.004684791,0.029738963,0.14370382,-0.11020732,0.6271511,2017-08-03 20:52:49,-Infinity
3.2082303,0.5650316,9.165004,-0.15353286,-0.0044041136,0.045738135,53.0,0.32704264,0.04978106,0.9436975,0.015032768,-0.008468952,0.043269634,0.12897645,-0.1074648,0.64846176,2017-08-03 20:52:50,-Infinity
-3.083732,1.6950948,12.0571995,-0.68218184,3.9515672,0.49428254,172.0,-0.081636906,0.15824096,0.98401994,-0.078846596,-0.05611845,0.42485672,0.0727965,-0.0034136064,0.5765261,2017-08-03 20:52:51,-Infinity
0.59376204,0.12449849,10.189722,0.15089935,-0.15740834,-0.1130711,78.0,0.058122624,0.011998379,0.9982374,0.0016017184,-0.001153837,0.04249966,0.01756074,-0.021732287,0.46802074,2017-08-03 20:52:52,-Infinity
0.5363012,0.10534488,10.1226845,0.054929204,-0.033814315,0.18793064,78.0,0.060670834,0.010505875,0.9981026,0.0037376583,0.0011850158,0.027989686,0.01856392,-0.02442169,0.45504618,2017-08-03 20:52:53,-Infinity
0.58418524,0.1436521,10.093954,0.015713908,0.010468291,-0.036310818,78.0,0.057528242,0.013440885,0.99825335,0.0022046156,0.0012067752,0.031735063,0.018849097,-0.023077749,0.45589426,2017-08-03 20:52:54,-Infinity
0.60333884,0.076614454,10.141838,-0.0045419023,-0.0042846627,0.012530815,79.0,0.058042604,0.012402447,0.99823713,0.003527455,2.5826786E-4,0.03078121,0.018629225,-0.0234464,0.4563477,2017-08-03 20:52:55,-Infinity
0.59376204,0.11492168,10.132261,0.017668655,0.012153927,-0.042163145,80.0,0.05981818,0.013354452,0.99811995,-0.0029034838,0.002251573,0.035770535,0.019309117,-0.023592437,0.4561417,2017-08-03 20:52:56,-Infinity
0.59376204,0.10534488,10.113108,0.018257951,-0.0045577018,-0.01914006,81.0,0.059999943,0.01174846,0.9981292,0.00437627,8.810507E-4,0.034805834,0.018403897,-0.023637554,0.456816,2017-08-03 20:52:57,-Infinity
0.59376204,0.1340753,10.0748005,0.0049992497,0.019184744,-0.034565963,80.0,0.05874348,0.013571708,0.9981809,0.0019818805,-0.003715951,0.039623022,0.01932493,-0.023804024,0.45650274,2017-08-03 20:52:58,-Infinity
0.61291564,0.16280572,10.160992,-0.014307976,0.016372101,-0.004681112,81.0,0.060813274,0.012230136,0.99807423,-0.002919577,-0.0033829194,0.033860505,0.01956479,-0.024425047,0.45696378,2017-08-03 20:52:59,-Infinity
0.5650316,0.29688102,10.084377,0.0058617545,-0.010388916,0.006516899,81.0,0.059461053,0.015198604,0.9981149,-8.741729E-4,-0.0033938466,0.03579092,0.020071195,-0.022928106,0.46072727,2017-08-03 20:53:00,-Infinity
0.63206923,0.095768064,10.132261,0.009322982,0.008246621,-0.025352575,81.0,0.05772888,0.011685161,0.9982639,0.0027879998,-0.001863216,0.03368938,0.01874326,-0.022884848,0.46163478,2017-08-03 20:53:01,-Infinity
0.641646,0.1340753,10.199299,-0.010105515,0.01475899,-0.017300643,80.0,0.056980684,0.012366626,0.99829865,0.002701234,-0.0016248887,0.036578774,0.018942937,-0.022903396,0.46154806,2017-08-03 20:53:02,-Infinity
0.59376204,0.10534488,10.084377,0.024569508,0.010234204,-0.049830176,80.0,0.06118479,0.012886799,0.9980433,-0.0014954321,-2.8467178E-4,0.033903003,0.01953659,-0.024092115,0.46236658,2017-08-03 20:53:03,-Infinity
0.58418524,0.11492168,10.093954,0.002011203,0.007729132,-0.0026887897,81.0,0.057872526,0.012004955,0.9982518,0.0036928356,0.0025623646,0.033699036,0.0189677,-0.02318115,0.46163753,2017-08-03 20:53:04,-Infinity
0.62249243,0.12449849,10.1226845,-0.0037530663,-0.0065236627,0.013095,80.0,0.060977627,0.011269232,0.9980756,5.7224557E-4,-4.8606563E-4,0.03485197,0.019374987,-0.0239127,0.46211112,2017-08-03 20:53:05,-Infinity
0.5650316,0.12449849,10.151415,-0.021929491,-0.0074944934,0.04169105,81.0,0.059436426,0.011295466,0.9981681,0.0058951676,0.0033475189,0.03965354,0.019359598,-0.02317279,0.461428,2017-08-03 20:53:06,-Infinity
0.63206923,0.11492168,10.141838,-0.020373179,7.556458E-4,0.021506298,81.0,0.05684957,0.010942884,0.9983228,0.00376641,6.8942644E-4,0.031672,0.018518915,-0.023261042,0.46194294,2017-08-03 20:53:07,-Infinity
0.5650316,0.15322891,10.218452,0.021177223,0.015420522,-0.05213944,81.0,0.058026344,0.012452361,0.9982374,-2.614893E-4,0.002971002,0.04445827,0.018970057,-0.023419054,0.46185774,2017-08-03 20:53:09,-Infinity
0.62249243,0.10534488,10.132261,0.0024750764,-0.018514471,0.014339248,81.0,0.059203442,0.01241007,0.9981688,0.0042138845,0.0040595178,0.036720574,0.019133134,-0.02304544,0.45571744,2017-08-03 20:53:10,-Infinity
0.62249243,0.1436521,10.093954,0.014352683,-0.0047988435,0.0046163956,81.0,0.058655113,0.01618081,0.9981472,0.0047388226,-0.001533119,0.031855762,0.020012088,-0.02264857,0.45490214,2017-08-03 20:53:11,-Infinity
0.545878,0.11492168,10.160992,0.028897533,-0.008921315,-0.006373605,81.0,0.05639473,0.013466112,0.9983177,0.0021724962,0.0011541061,0.03559071,0.01851811,-0.02228544,0.45531833,2017-08-03 20:53:12,-Infinity
0.60333884,0.17238252,10.141838,0.045208663,-0.015047917,-0.009822371,81.0,0.060438514,0.013589492,0.9980795,0.0010473952,0.0037816819,0.036809802,0.019036317,-0.02330776,0.45601496,2017-08-03 20:53:13,-Infinity
0.60333884,0.095768064,10.141838,0.006415409,-0.0035821889,-0.0019333295,81.0,0.05756617,0.010678128,0.9982846,0.007864691,0.0048103044,0.034646392,0.018284896,-0.02378054,0.4568354,2017-08-03 20:53:14,-Infinity
0.58418524,0.17238252,10.1226845,-0.033674873,-0.005910516,0.04012257,81.0,0.059008244,0.013347632,0.99816823,0.006341994,3.62264E-4,0.032811224,0.019608157,-0.023216479,0.45563918,2017-08-03 20:53:15,-Infinity
0.63206923,0.11492168,10.151415,-0.009422559,-0.01759387,-0.068774015,81.0,0.05979611,0.013384405,0.99812084,0.0026699267,0.0022605052,0.029924452,0.019408412,-0.022920957,0.45518872,2017-08-03 20:53:16,-Infinity
0.61291564,0.095768064,10.151415,-0.006968175,0.015968716,-1.2072461E-4,81.0,0.05567685,0.01367277,0.99835527,0.0057909414,-3.470108E-6,0.032622814,0.018888582,-0.022386843,0.45108777,2017-08-03 20:53:17,-Infinity
0.62249243,0.1436521,10.113108,0.022914505,-0.028821982,0.006938719,81.0,0.059542015,0.014913812,0.99811435,0.0066451654,0.0025200387,0.035807967,0.019243408,-0.02317054,0.45165488,2017-08-03 20:53:18,-Infinity
0.60333884,0.095768064,10.132261,0.002526868,6.158264E-4,-0.004457333,81.0,0.05886394,0.013196938,0.9981788,-0.0011490807,5.504675E-4,0.038652837,0.019327627,-0.023310956,0.45174614,2017-08-03 20:53:19,-Infinity
0.5746084,0.12449849,10.151415,0.0031711431,0.015140919,-0.017794678,81.0,0.062069193,0.013223958,0.99798423,0.0024697408,4.8300624E-4,0.039825857,0.019878356,-0.024748081,0.45282692,2017-08-03 20:53:20,-Infinity
0.5650316,0.1340753,10.0748005,-0.027453633,-0.0039891656,0.032096267,81.0,0.058275145,0.010373639,0.9982466,0.0089233,4.1208696E-4,0.0337162,0.018036276,-0.02374291,0.45281136,2017-08-03 20:53:21,-Infinity
0.545878,0.10534488,10.055647,-0.0017800808,-0.0036156592,0.004794345,81.0,0.057555225,0.013116398,0.9982561,0.0021594279,0.0013545239,0.044439554,0.018763918,-0.023480693,0.4521913,2017-08-03 20:53:22,-Infinity
0.60333884,0.16280572,10.103531,-0.019466497,-0.013346743,0.0466728,81.0,0.05917788,0.012752769,0.99816597,0.0032448396,-0.0019144993,0.028903604,0.01905744,-0.023490528,0.45205262,2017-08-03 20:53:23,-Infinity
0.58418524,0.1340753,10.170568,0.004432671,-0.009331818,0.001355305,81.0,0.05870347,0.012505422,0.9981972,0.0018815771,1.9582361E-4,0.036684513,0.018655203,-0.023173112,0.451954,2017-08-03 20:53:24,-Infinity
0.60333884,0.17238252,10.132261,-6.3722493E-4,0.011721742,-0.012667665,81.0,0.05754342,0.011580473,0.9982758,0.0020722076,2.8187875E-4,0.029763162,0.018755976,-0.022846397,0.45159456,2017-08-03 20:53:25,-Infinity
0.62249243,0.11492168,10.189722,-0.011180684,-0.0069533167,0.025792954,81.0,0.060679562,0.013049257,0.99807197,0.004570104,-0.0012008864,0.032912552,0.019598654,-0.023751697,0.45202738,2017-08-03 20:53:26,-Infinity
0.59376204,0.12449849,10.093954,-0.011568045,-9.959098E-4,0.016514175,82.0,0.057499427,0.013499435,0.99825436,0.0031297058,0.0010077246,0.038581252,0.019139754,-0.023094207,0.45163417,2017-08-03 20:53:27,-Infinity
0.61291564,0.1436521,10.065224,0.021435214,-0.0061340667,-0.02694828,82.0,0.06143717,0.012089867,0.9980377,1.0799244E-4,0.005355227,0.030983329,0.019210082,-0.023605065,0.452085,2017-08-03 20:53:28,-Infinity
0.61291564,0.11492168,10.084377,-0.0057533244,0.009012248,-0.00832381,82.0,0.05589321,0.01397986,0.9983389,0.002813451,0.0015704567,0.04338014,0.019073462,-0.022564854,0.4511642,2017-08-03 20:53:29,-Infinity
0.63206923,0.12449849,10.151415,0.0033892347,0.008758386,-0.020329395,82.0,0.05913521,0.012995831,0.99816537,0.0034356192,0.0024272008,0.030853748,0.0189677,-0.023916438,0.45250514,2017-08-03 20:53:30,-Infinity
0.61291564,0.1340753,10.170568,0.044847578,-0.00816434,-0.009934836,82.0,0.05872696,0.014241909,0.99817246,0.0017065145,2.5955588E-4,0.03378856,0.018927986,-0.022765703,0.45142612,2017-08-03 20:53:31,-Infinity
0.641646,0.076614454,10.084377,0.005315043,0.004759041,-0.014494852,82.0,0.059900746,0.012916112,0.99812084,-2.2697821E-4,0.0017460287,0.03871131,0.019461699,-0.023600962,0.45195377,2017-08-03 20:53:32,-Infinity
0.60333884,0.10534488,10.141838,-0.008084636,0.004434252,0.008089331,82.0,0.056524538,0.013629963,0.9983082,-1.3740361E-4,-8.3278306E-4,0.033656836,0.018959843,-0.021936683,0.45062134,2017-08-03 20:53:33,-Infinity
0.62249243,0.1340753,10.103531,0.0041707694,-0.006395932,0.0057465564,82.0,0.061643932,0.011478366,0.9980322,-6.5006316E-5,0.0012247106,0.031962335,0.019323004,-0.024443649,0.45282254,2017-08-03 20:53:34,-Infinity
0.59376204,0.15322891,10.113108,0.011142604,0.0034944953,-0.01047413,82.0,0.057126332,0.013714726,0.99827266,0.003436949,0.0018904209,0.03367877,0.018880296,-0.022745077,0.4514341,2017-08-03 20:53:35,-Infinity
0.59376204,0.12449849,10.055647,0.010434774,-0.0027034325,-0.019527383,82.0,0.058132987,0.013297522,0.9982203,0.008248106,0.0012656506,0.039598167,0.01852897,-0.023498455,0.45232934,2017-08-03 20:53:36,-Infinity
0.5746084,0.11492168,10.151415,0.015698783,-0.0038271358,-0.016182873,82.0,0.057727464,0.013216488,0.9982448,9.896643E-4,0.0042561833,0.03272432,0.01923876,-0.022769632,0.4512763,2017-08-03 20:53:37,-Infinity
0.60333884,0.1436521,10.093954,-0.010905356,0.0071661687,0.0040888004,82.0,0.056338333,0.0130894985,0.99832594,0.005146697,5.598422E-4,0.035583258,0.018761141,-0.022466578,0.4512284,2017-08-03 20:53:38,-Infinity
0.62249243,0.11492168,10.160992,0.031076359,-0.013747888,-0.007736763,82.0,0.060523767,0.012227684,0.9980919,0.0038722865,0.003182819,0.03582126,0.018703867,-0.024089953,0.4528024,2017-08-03 20:53:39,-Infinity
0.5746084,0.12449849,10.160992,0.003529004,-0.028263634,0.009661368,82.0,0.060240563,0.012464194,0.998106,-6.258227E-4,-7.1105827E-4,0.03384316,0.018564325,-0.023455298,0.45209363,2017-08-03 20:53:40,-Infinity
0.60333884,0.12449849,10.199299,-0.0034440486,-0.011603565,0.020648351,82.0,0.05921421,0.015881361,0.99811894,0.004243143,-2.5554746E-4,0.0318802,0.019786313,-0.023048026,0.4510968,2017-08-03 20:53:41,-Infinity
0.59376204,0.10534488,10.160992,-0.02738696,-0.011150022,0.05221048,83.0,0.058020458,0.012628269,0.99823546,0.002468776,-0.0018100394,0.038605273,0.019222103,-0.023247266,0.45156807,2017-08-03 20:53:42,-Infinity
0.641646,0.16280572,10.1226845,0.01071384,-0.010876036,0.004385056,81.0,0.05894634,0.013845049,0.99816513,-0.0013128445,-1.3285223E-4,0.03476262,0.018947655,-0.023115812,0.4515832,2017-08-03 20:53:43,-Infinity
0.61291564,0.12449849,10.151415,-0.021268502,-3.257728E-4,0.025575763,82.0,0.061050665,0.014080547,0.9980353,0.001526583,-0.0012257667,0.037819028,0.020433929,-0.023811221,0.4514908,2017-08-03 20:53:44,-Infinity
0.5650316,0.10534488,10.113108,-0.0013692623,0.0027385373,-0.0052782698,83.0,0.060516734,0.014052729,0.9980683,2.816841E-4,-0.0041349223,0.038752794,0.01975051,-0.023861546,0.45187992,2017-08-03 20:53:45,-Infinity
0.641646,0.15322891,10.113108,0.0029817265,-0.02124943,0.00816746,81.0,0.058700737,0.014588773,0.99816906,0.0038819537,0.0029170811,0.037688494,0.0195686,-0.022921933,0.45109072,2017-08-03 20:53:46,-Infinity
0.5746084,0.11492168,10.113108,0.07214459,-0.010498039,-0.017382538,81.0,0.06126166,0.013043972,0.99803644,-0.0026563816,-0.0014606724,0.03391683,0.019102346,-0.02409026,0.4524205,2017-08-03 20:53:47,-Infinity
0.60333884,0.095768064,10.180145,-0.0046275305,0.004697989,5.8005244E-5,81.0,0.060224947,0.011191484,0.9981221,4.7066435E-4,6.276388E-4,0.036751866,0.019363446,-0.024183482,0.4523768,2017-08-03 20:53:48,-Infinity
0.6607997,0.12449849,10.103531,0.0074295048,0.0126416925,-0.021994734,82.0,0.06068619,0.013199818,0.9980696,0.0028305352,0.0024536876,0.0416978,0.019963628,-0.023907714,0.45181796,2017-08-03 20:53:49,-Infinity
0.59376204,0.1340753,10.093954,-0.0085883085,0.03554146,-0.009514469,81.0,0.056744535,0.0132230725,0.99830115,9.595677E-4,3.8892217E-4,0.03462392,0.018847119,-0.023014057,0.45160407,2017-08-03 20:53:50,-Infinity
0.5554548,0.11492168,10.141838,-0.0036859098,0.0012674319,0.0017518302,81.0,0.058762304,0.015250685,0.9981555,9.400137E-4,0.0013995515,0.028902173,0.019929264,-0.023000456,0.45114404,2017-08-03 20:53:51,-Infinity
0.58418524,0.10534488,10.141838,0.018773068,-0.0012963143,-0.018449359,81.0,0.061775863,0.011061272,0.99802876,-1.2361631E-4,0.003519684,0.03587091,0.018888976,-0.024352338,0.4529574,2017-08-03 20:53:52,-Infinity
0.58418524,0.1436521,10.151415,0.028080925,0.0043866243,-0.042811766,81.0,0.05932976,0.01155334,0.99817157,0.0022816807,0.004693066,0.037688553,0.018817052,-0.02405188,0.4527074,2017-08-03 20:53:53,-Infinity
0.62249243,0.1340753,10.1226845,-0.0018640459,0.0041928017,0.0014043476,82.0,0.059092462,0.01138693,0.99818754,0.004419584,0.0012804307,0.032785773,0.018826947,-0.023635978,0.4523096,2017-08-03 20:53:55,-Infinity
0.61291564,0.1340753,10.151415,0.0031927368,-0.003344639,0.0045615667,81.0,0.05993917,0.0144185675,0.9980979,-2.6979297E-4,-0.004538822,0.038732946,0.019702543,-0.023832489,0.45204988,2017-08-03 20:53:56,-Infinity
0.60333884,0.16280572,10.113108,0.012171637,-0.0067118304,-0.00786142,81.0,0.05896942,0.014370078,0.9981563,0.0026209094,-0.0016474444,0.035746098,0.019517895,-0.023009202,0.4513604,2017-08-03 20:53:57,-Infinity
0.58418524,0.16280572,10.093954,-3.944313E-4,-0.0052890265,0.0075358264,81.0,0.058148168,0.013109911,0.9982219,0.0052050836,0.0024738954,0.038624406,0.018783366,-0.022930708,0.4516593,2017-08-03 20:53:58,-Infinity
0.63206923,0.16280572,10.141838,0.0038582673,-0.0018215758,-0.0022561683,82.0,0.059698615,0.013655541,0.998123,0.0019343793,2.6197173E-5,0.043594837,0.01962373,-0.023798704,0.4518849,2017-08-03 20:53:59,-Infinity
0.5650316,0.095768064,10.160992,4.570065E-4,-0.0014573394,0.0020345384,82.0,0.06006626,0.010858044,0.9981354,-0.0014960282,8.7435823E-4,0.032840848,0.018649211,-0.023652678,0.4522378,2017-08-03 20:54:00,-Infinity
0.59376204,0.15322891,10.113108,0.01102288,0.0109112,-0.027651789,81.0,0.060699966,0.013123474,0.9980698,-0.0019104183,-3.9769616E-4,0.041687906,0.019558698,-0.024308857,0.4523948,2017-08-03 20:54:01,-Infinity
0.5746084,0.12449849,10.1226845,0.03340572,-0.011192205,0.102603555,81.0,0.060203128,0.011466007,0.9981203,0.002334725,0.0020930693,0.03774005,0.018599207,-0.02453674,0.4543099,2017-08-03 20:54:02,-Infinity
0.5746084,0.1340753,10.141838,0.024740098,0.001174764,-0.013083021,82.0,0.058301546,0.012199541,0.9982245,0.0012617633,-5.6556705E-4,0.039592564,0.01859039,-0.02341301,0.45616245,2017-08-03 20:54:03,-Infinity
0.62249243,0.17238252,10.141838,0.006731771,0.015251791,-0.025719164,81.0,0.059175786,0.01368914,0.9981538,-0.0013711192,0.0019221641,0.03281027,0.019742586,-0.023211021,0.45540226,2017-08-03 20:54:04,-Infinity
0.545878,0.12449849,10.141838,-0.020880735,-0.0031899721,0.034981944,81.0,0.057939284,0.012704701,0.9982393,-1.66554E-4,-0.0028745346,0.034680128,0.01925386,-0.023069674,0.45551518,2017-08-03 20:54:05,-Infinity
0.62249243,0.12449849,10.093954,-0.017944321,-0.0034606413,0.026000554,81.0,0.061060444,0.015740607,0.99800986,-4.28278E-4,-0.0018720059,0.0329569,0.020576362,-0.023191754,0.45497063,2017-08-03 20:54:06,-Infinity
0.60333884,0.18195933,10.189722,0.02488688,0.007881956,-0.04324039,81.0,0.059633773,0.013862729,0.99812406,0.0018530153,0.004587423,0.04164982,0.019624108,-0.023612956,0.45583227,2017-08-03 20:54:07,-Infinity
0.58418524,0.11492168,10.084377,-0.049295858,0.0065394305,0.012813146,82.0,0.058507644,0.013042053,0.9982018,0.001246538,-0.0011316091,0.0347144,0.019497652,-0.02329273,0.45560026,2017-08-03 20:54:08,-Infinity
0.59376204,0.17238252,10.151415,0.006270052,-0.014367782,0.012741486,81.0,0.058435634,0.01234689,0.99821484,0.002973333,-6.913692E-4,0.035699427,0.01861042,-0.022853244,0.45563623,2017-08-03 20:54:09,-Infinity
0.58418524,0.15322891,10.1226845,-0.023626244,0.023756832,-0.006875785,81.0,0.05858563,0.012851818,0.99819964,0.0011406727,9.3606487E-4,0.03374195,0.019781418,-0.023542803,0.45223445,2017-08-03 20:54:10,-Infinity
0.59376204,0.20111294,10.151415,0.014292399,-0.011589619,-0.011587763,82.0,0.059127737,0.011375357,0.9981857,0.007023331,-0.0023673726,0.03573394,0.018465329,-0.022841832,0.45156807,2017-08-03 20:54:11,-Infinity
0.62249243,0.12449849,10.0748005,-0.0032542907,0.0038181308,-4.8512814E-4,81.0,0.059085175,0.013024773,0.998168,0.003426578,-0.0022578957,0.027920127,0.019115213,-0.023751697,0.45209646,2017-08-03 20:54:12,-Infinity
0.61291564,0.17238252,10.103531,5.438757E-4,0.0030857394,-0.0030563953,81.0,0.058605928,0.012254487,0.998206,0.0029837936,0.0023832861,0.04351479,0.019067602,-0.023155743,0.4515604,2017-08-03 20:54:13,-Infinity
0.62249243,0.15322891,10.093954,-0.01398186,-0.010344061,0.03270053,81.0,0.05764548,0.012988866,0.9982527,0.005679831,0.0025617909,0.03175509,0.018963378,-0.02259686,0.4510868,2017-08-03 20:54:14,-Infinity
0.60333884,0.095768064,10.132261,6.301639E-4,0.001216385,-0.003808496,81.0,0.05962665,0.012695214,0.99814,-0.0016706921,-9.996891E-4,0.033792257,0.018894892,-0.023846867,0.45229483,2017-08-03 20:54:15,-Infinity
0.60333884,0.19153613,10.103531,-0.021810386,-0.0076481127,0.041357663,81.0,0.058041915,0.014783888,0.99820465,0.0063232444,-0.0053706234,0.026903212,0.02022761,-0.022419104,0.4502881,2017-08-03 20:54:16,-Infinity
0.641646,0.095768064,10.103531,0.0013708863,0.014569565,-0.012547084,80.0,0.060976487,0.014070093,0.99804,0.002549056,0.0015702946,0.036841035,0.02054665,-0.024273584,0.4518666,2017-08-03 20:54:17,-Infinity
0.61291564,0.11492168,10.141838,-5.8400974E-4,-0.009389036,0.00434386,81.0,0.05990283,0.011616994,0.9981366,0.0015390292,-0.0026759412,0.040659428,0.018947655,-0.023635978,0.4520706,2017-08-03 20:54:18,-Infinity
0.59376204,0.1340753,10.141838,0.019429762,0.011965784,-0.043321334,80.0,0.057384178,0.012445079,0.9982746,0.0031189397,0.0011619003,0.03661269,0.018490734,-0.023310957,0.45612022,2017-08-03 20:54:19,-Infinity
0.60333884,0.10534488,10.151415,-0.011396007,6.530294E-5,0.022817055,81.0,0.06283751,0.01455991,0.99791753,0.0024397224,-6.648144E-4,0.037950397,0.02087688,-0.023919243,0.45548993,2017-08-03 20:54:20,-Infinity
0.5650316,0.095768064,10.218452,-0.034839205,0.014025108,0.011409473,80.0,0.056951426,0.013368177,0.9982875,0.0026820526,-0.0023685964,0.03854382,0.01995467,-0.022552965,0.45469072,2017-08-03 20:54:21,-Infinity
0.62249243,0.16280572,10.199299,-0.014657219,-0.013888524,0.037642065,81.0,0.06239753,0.014257432,0.9979496,0.0011318661,-0.0032995585,0.03399664,0.020309582,-0.024070151,0.45591155,2017-08-03 20:54:22,-Infinity
0.59376204,0.1340753,10.141838,0.008620469,0.004740498,-0.018365888,81.0,0.060245365,0.012670384,0.9981032,5.021095E-4,0.001929123,0.0328604,0.01918874,-0.024205653,0.45659578,2017-08-03 20:54:23,-Infinity
0.59376204,0.12449849,10.04607,-0.023643734,0.015544851,0.0023631272,80.0,0.058563404,0.0122525245,0.99820846,0.0021115765,5.121827E-4,0.026894808,0.019052748,-0.023496237,0.45333147,2017-08-03 20:54:24,-Infinity
0.59376204,0.15322891,10.113108,0.0062613543,0.001582827,-0.010991058,81.0,0.058896165,0.011828521,0.998194,0.003555186,-7.824972E-6,0.036691666,0.018814279,-0.02315703,0.45168677,2017-08-03 20:54:25,-Infinity
0.5650316,0.15322891,10.132261,0.0071163,-0.0015715363,-0.007834869,81.0,0.059430953,0.013407205,0.99814236,2.5421008E-4,0.0031184247,0.031849742,0.019277452,-0.02338053,0.4516658,2017-08-03 20:54:26,-Infinity
0.6512229,0.1436521,10.055647,0.006483143,0.009865176,-0.022432812,82.0,0.058059353,0.013349081,0.99822384,0.0025327802,0.0012417343,0.031772077,0.018987723,-0.023486722,0.4519123,2017-08-03 20:54:27,-Infinity
0.60333884,0.11492168,10.103531,0.020299625,-0.017440096,0.018236592,80.0,0.060336176,0.013463676,0.99808735,0.0011201464,3.3982657E-4,0.036799073,0.01925386,-0.023285693,0.45158935,2017-08-03 20:54:28,-Infinity
0.62249243,0.1340753,10.1226845,0.03549093,-0.0047798823,-0.022255834,81.0,0.05989792,0.01530879,0.99808717,0.004484758,0.0012315754,0.03680235,0.019683246,-0.023459107,0.45153385,2017-08-03 20:54:29,-Infinity
0.58418524,0.10534488,10.170568,0.019156128,0.016961062,-0.051793933,82.0,0.05954031,0.010567066,0.99817,-0.0018455461,0.003088384,0.0406183,0.018551074,-0.023742283,0.45237088,2017-08-03 20:54:30,-Infinity
0.61291564,0.1340753,10.141838,0.023291886,0.0024663496,-0.030340737,83.0,0.06139367,0.011690044,0.99804515,-0.0017027594,0.001927562,0.03390044,0.01901047,-0.024073865,0.45245034,2017-08-03 20:54:31,-Infinity
0.58418524,0.1340753,10.113108,-0.023339856,1.8941314E-4,0.026971335,81.0,0.058476076,0.01318427,0.9982018,0.0029935688,-0.0032297075,0.036682963,0.019587247,-0.02296577,0.4511204,2017-08-03 20:54:32,-Infinity
0.61291564,0.10534488,10.151415,0.002313695,-0.010157386,0.0071746917,81.0,0.060816184,0.013926695,0.9980519,0.0064551644,-1.8927269E-4,0.029997826,0.019841215,-0.023995744,0.45196038,2017-08-03 20:54:33,-Infinity
0.641646,0.11492168,10.141838,0.016186956,0.0036017932,-0.026017612,80.0,0.059376836,0.011502567,0.9981694,-0.0026835687,0.002181421,0.03475666,0.018280819,-0.023479741,0.45225954,2017-08-03 20:54:34,-Infinity
0.61291564,0.1340753,10.141838,0.008631254,0.0049379915,-0.019734168,80.0,0.060468715,0.015543801,0.99804914,0.0021398813,-0.0018428657,0.0368281,0.020385014,-0.023616428,0.45133123,2017-08-03 20:54:35,-Infinity
0.58418524,0.1436521,10.093954,-0.0027265265,0.011044137,-0.012616466,80.0,0.060322803,0.013106605,0.9980929,3.2524392E-4,-3.7076045E-4,0.035807252,0.019732393,-0.023829676,0.45185947,2017-08-03 20:54:36,-Infinity
0.63206923,0.17238252,10.084377,0.01252529,-0.011830929,0.0011339089,81.0,0.05998896,0.0131969405,0.99811184,5.197413E-4,-0.0014505656,0.037751317,0.019169705,-0.02313128,0.4513151,2017-08-03 20:54:37,-Infinity
0.5554548,0.11492168,10.103531,-0.011324504,-0.010023485,0.030545784,81.0,0.059191946,0.012015584,0.9981743,0.0022978373,7.497901E-4,0.034756362,0.01891184,-0.02278697,0.4511242,2017-08-03 20:54:38,-Infinity
0.59376204,0.16280572,10.160992,0.0068756146,0.016123433,-0.026317246,82.0,0.05891026,0.011606351,0.99819577,-0.0029003732,-8.580284E-4,0.0405764,0.018845934,-0.023878714,0.45216694,2017-08-03 20:54:39,-Infinity
0.59376204,0.12449849,10.141838,0.007874791,0.016793836,-0.02815234,81.0,0.059173938,0.01183164,0.9981776,0.0015749298,0.0017526522,0.038650036,0.018884242,-0.023794007,0.45206994,2017-08-03 20:54:40,-Infinity
0.62249243,0.08619126,10.103531,0.005727833,0.012973745,-0.018819047,81.0,0.058874577,0.010512192,0.99821,0.0036632642,0.0040588733,0.033740878,0.018319903,-0.023748558,0.45230836,2017-08-03 20:54:41,-Infinity
0.59376204,0.16280572,10.103531,-8.6607604E-4,0.009521206,-0.009351009,82.0,0.05845266,0.012259457,0.9982149,0.0012490004,-0.001426259,0.037637413,0.018724967,-0.023841556,0.4521941,2017-08-03 20:54:42,-Infinity
0.5650316,0.1436521,10.141838,0.02982559,-0.016158715,-0.0046750335,81.0,0.05929656,0.013045139,0.9981552,0.002152089,0.0014589662,0.032826304,0.018623628,-0.023406964,0.4518401,2017-08-03 20:54:43,-Infinity
0.61291564,0.12449849,10.113108,-0.0076943235,-0.0049042236,0.016453398,82.0,0.0582423,0.012966636,0.9982183,0.0013255067,-0.0011520935,0.035687387,0.018933889,-0.022997865,0.4513087,2017-08-03 20:54:44,-Infinity
0.58418524,0.1436521,10.132261,3.3956344E-4,-0.020182148,0.01221037,82.0,0.059699364,0.013912005,0.9981194,0.002714865,-0.0011823587,0.03188324,0.01932994,-0.023342894,0.45143217,2017-08-03 20:54:45,-Infinity
0.60333884,0.095768064,10.132261,-0.019332035,0.0014247921,0.021361876,82.0,0.05784989,0.015111572,0.9982109,0.0017535016,5.259868E-4,0.03276199,0.019551838,-0.022286443,0.45034224,2017-08-03 20:54:46,-Infinity
0.60333884,0.1436521,10.113108,8.069412E-4,0.007714479,-0.007788972,81.0,0.05998925,0.014648151,0.9980916,7.885657E-4,7.202849E-6,0.043619037,0.020027347,-0.024158515,0.45184124,2017-08-03 20:54:47,-Infinity
0.60333884,0.15322891,10.103531,0.011620074,-0.0050457767,-0.007883644,81.0,0.061413463,0.01217812,0.9980381,0.0010817274,0.004345919,0.03293842,0.019356903,-0.0239827,0.45201144,2017-08-03 20:54:48,-Infinity
0.58418524,0.15322891,10.113108,-0.01048477,-0.005022429,0.021208668,81.0,0.057918467,0.015304722,0.998204,0.0035537295,-0.0024842992,0.032772124,0.019883603,-0.022691295,0.4505533,2017-08-03 20:54:49,-Infinity
0.60333884,0.1340753,10.199299,0.0054158396,-0.0013058113,-0.008720817,81.0,0.060636528,0.011129307,0.9980979,8.746721E-4,0.0016150288,0.038740933,0.019028096,-0.023852177,0.45205384,2017-08-03 20:54:50,-Infinity
0.59376204,0.095768064,10.151415,-0.048842162,0.0064832214,0.012239827,81.0,0.05802559,0.016214266,0.99818337,0.0015854277,-0.0023496766,0.035717785,0.020396704,-0.022327524,0.45227772,2017-08-03 20:54:51,-Infinity
0.60333884,0.11492168,10.093954,0.015313661,0.0031615554,-0.023753377,81.0,0.0597657,0.012093281,0.99813914,-7.259846E-5,0.0016185082,0.03478241,0.018596001,-0.023514621,0.45195988,2017-08-03 20:54:53,-Infinity
0.63206923,0.18195933,10.1226845,0.010046136,0.011955332,-0.03345702,81.0,0.058827,0.011671796,0.99819994,0.003667172,0.0029842928,0.03375268,0.018568335,-0.023910206,0.45233288,2017-08-03 20:54:54,-Infinity
0.58418524,0.1436521,10.1226845,4.6491326E-4,-0.01903556,0.013374884,80.0,0.05765699,0.012220178,0.9982616,8.4221736E-4,0.0014052242,0.03565097,0.018347133,-0.022450985,0.45108956,2017-08-03 20:54:55,-Infinity
0.61291564,0.1340753,10.113108,0.00751872,-0.015451431,0.0052207033,80.0,0.05957453,0.014289562,0.99812156,0.0028143935,-6.105723E-4,0.0328601,0.019289814,-0.023120323,0.45124358,2017-08-03 20:54:56,-Infinity
0.60333884,0.1436521,10.160992,0.015361458,-0.021032603,0.0023420264,80.0,0.058136307,0.013460634,0.9982179,0.004203882,1.5064422E-4,0.028858423,0.018498788,-0.022840852,0.45140842,2017-08-03 20:54:57,-Infinity
0.62249243,0.1436521,10.1226845,0.022558607,0.0010122356,-0.011066798,81.0,0.05892599,0.013317185,0.99817353,0.0016557798,0.0021905191,0.036709964,0.019326087,-0.023581067,0.45183024,2017-08-03 20:54:58,-Infinity
0.59376204,0.15322891,10.1226845,0.013132218,-0.0038129964,0.0021032405,81.0,0.057965126,0.013079701,0.9982329,0.005500227,0.0044352207,0.03469819,0.019448677,-0.02315864,0.45137164,2017-08-03 20:54:59,-Infinity
0.60333884,0.20111294,10.170568,-0.004292471,-0.009981175,0.013033464,80.0,0.058369458,0.011901642,0.99822414,0.0030282736,7.698238E-4,0.035690367,0.018621625,-0.023100335,0.45157066,2017-08-03 20:55:00,-Infinity
0.60333884,0.1340753,10.151415,-4.835032E-4,0.011308954,-0.016821604,81.0,0.058796514,0.012543185,0.9981912,0.0029105693,0.002089533,0.034727752,0.019082054,-0.023733182,0.4519141,2017-08-03 20:55:01,-Infinity
0.60333884,0.12449849,10.151415,-0.0066228504,-0.02462435,0.030890519,80.0,0.061636083,0.0140120145,0.9980003,-2.4486333E-5,-0.0012480225,0.037854552,0.019458637,-0.023757655,0.45175296,2017-08-03 20:55:02,-Infinity
0.61291564,0.10534488,10.180145,8.0412277E-4,-0.00881926,0.0077424194,80.0,0.056578863,0.012339384,0.9983219,0.0039856136,0.00517588,0.038516283,0.018923657,-0.02257146,0.45091555,2017-08-03 20:55:03,-Infinity
0.5746084,0.11492168,10.132261,-0.0076223062,0.008482313,-0.0074427687,80.0,0.05887815,0.009718906,0.9982179,-1.5778467E-4,0.001985943,0.035681486,0.018237974,-0.023775838,0.45237464,2017-08-03 20:55:04,-Infinity
0.545878,0.12449849,10.199299,-0.0010293912,0.019030243,-0.0059791426,80.0,0.059510846,0.014102134,0.99812806,-0.0018171333,-0.0021966295,0.031862557,0.019884726,-0.023091948,0.45092517,2017-08-03 20:55:05,-Infinity
0.58418524,0.095768064,10.141838,-6.713798E-4,-0.012634275,0.016197354,80.0,0.057769742,0.015600534,0.99820805,0.0016895942,-0.005629291,0.03667915,0.019335337,-0.022855854,0.450976,2017-08-03 20:55:06,-Infinity
0.60333884,0.15322891,10.151415,-0.0034523837,0.0011714788,0.007561974,80.0,0.059907272,0.013541996,0.99811214,7.7205524E-4,0.0010967469,0.03383249,0.019749,-0.023531407,0.45139644,2017-08-03 20:55:07,-Infinity
0.5554548,0.15322891,10.132261,0.012198189,0.019331893,-0.04005902,80.0,0.062303454,0.012888744,0.9979741,-0.0026293471,-8.986797E-5,0.03690225,0.019782547,-0.024492975,0.4522724,2017-08-03 20:55:08,-Infinity
0.60333884,0.16280572,10.1226845,0.021786328,-0.0017893199,-0.017163068,80.0,0.06069051,0.015363525,0.9980384,8.4127113E-4,-0.002579038,0.033912122,0.020207707,-0.023451483,0.45109764,2017-08-03 20:55:09,-Infinity
0.62249243,0.095768064,10.132261,-0.024444096,-0.008486982,0.045182567,80.0,0.057143737,0.014847194,0.9982555,0.0015361197,-0.0030040443,0.03662151,0.019603595,-0.021965874,0.45001605,2017-08-03 20:55:10,-Infinity
0.5746084,0.12449849,10.113108,0.018791996,0.013463693,-0.04547068,81.0,0.05988845,0.012002827,0.99813294,-2.3956597E-4,0.0024998104,0.038702548,0.018469768,-0.024221962,0.45267147,2017-08-03 20:55:11,-Infinity
0.5650316,0.10534488,10.132261,-0.0021581147,-0.006042816,0.010616979,81.0,0.05996456,0.0109440815,0.99814045,5.332045E-4,0.0027392376,0.034791827,0.01861042,-0.023975244,0.45237258,2017-08-03 20:55:12,-Infinity
0.60333884,0.16280572,10.160992,-0.008946789,-0.0082189115,0.023664232,81.0,0.060103815,0.013163196,0.99810535,0.0014392883,0.003303958,0.03873384,0.019655595,-0.02367881,0.45158094,2017-08-03 20:55:13,-Infinity
0.60333884,0.12449849,10.132261,-6.5580424E-4,-0.002322908,0.0032636938,81.0,0.0591555,0.011850569,0.9981785,0.005281832,0.0017581666,0.03279853,0.018748028,-0.024034526,0.4523608,2017-08-03 20:55:14,-Infinity
0.62249243,0.12449849,10.141838,-0.024427108,0.01051778,0.006077704,81.0,0.05769756,0.012543749,0.9982553,0.001978144,-0.0016409019,0.037597656,0.01928402,-0.022964796,0.44544244,2017-08-03 20:55:15,-Infinity
0.5746084,0.11492168,10.113108,-0.006808509,-0.0024671094,0.013084428,82.0,0.05863478,0.011797359,0.9982097,0.0019050837,9.799544E-4,0.0386281,0.01871462,-0.023085818,0.45149857,2017-08-03 20:55:16,-Infinity
0.60333884,0.1340753,10.103531,-0.01024306,-0.009392818,0.021261547,81.0,0.058631267,0.012190734,0.99820536,0.0048055276,-3.05132E-4,0.038633525,0.018807547,-0.023459109,0.4517983,2017-08-03 20:55:17,-Infinity
0.5746084,0.15322891,10.141838,0.014699535,0.010731908,-0.023924112,81.0,0.0613151,0.013764343,0.99802357,-0.0025180504,8.631423E-4,0.03587103,0.019573547,-0.023692021,0.4516328,2017-08-03 20:55:18,-Infinity
0.58418524,0.15322891,10.208876,0.013653816,-0.0021552758,-0.018574873,81.0,0.061602037,0.012603576,0.9980211,0.0019143708,0.0067074494,0.037840605,0.019378446,-0.024149876,0.45215407,2017-08-03 20:55:19,-Infinity
0.62249243,0.15322891,10.103531,-0.002986484,0.006440482,-0.0064568003,82.0,0.058701064,0.012052039,0.99820286,0.0010217652,-2.6739202E-4,0.034716785,0.019080492,-0.023452753,0.45165706,2017-08-03 20:55:20,-Infinity
0.59376204,0.1436521,10.103531,-0.011134429,0.006084173,-0.009434878,82.0,0.05912016,0.0128594,0.9981681,6.5913424E-4,0.0047101304,0.032794774,0.019494595,-0.023422236,0.45142147,2017-08-03 20:55:21,-Infinity
0.62249243,0.10534488,10.180145,-0.021982495,5.8440183E-4,0.14257668,82.0,0.058118667,0.014156877,0.99820924,0.0025059134,5.702572E-4,0.032760084,0.019646497,-0.023059662,0.4457281,2017-08-03 20:55:22,-Infinity
0.545878,0.1340753,10.1226845,0.022738433,0.020274736,-0.05975993,80.0,0.060161445,0.011822575,0.9981187,0.0044533573,0.0017605228,0.03284788,0.019009292,-0.024623733,0.45277715,2017-08-03 20:55:23,-Infinity
0.58418524,0.11492168,10.113108,-0.01192606,0.008185559,-0.0247555,81.0,0.05854839,0.014381914,0.998181,0.0019475184,2.7309358E-4,0.034751415,0.019787068,-0.022996893,0.45088363,2017-08-03 20:55:24,-Infinity
0.7565677,0.1436521,10.103531,0.038470622,0.0037184008,-0.03600052,81.0,0.06167208,0.014052532,0.9979975,-1.4543533E-5,0.0024384623,0.0349254,0.019536208,-0.02411777,0.44638494,2017-08-03 20:55:25,-Infinity
0.61291564,0.17238252,10.093954,0.009817096,0.0027570475,-0.01527953,82.0,0.060244564,0.014313184,0.99808097,0.0022809952,0.0032465803,0.031915784,0.019677188,-0.02361548,0.4458517,2017-08-03 20:55:26,-Infinity
0.5746084,0.10534488,10.093954,-0.0077749128,-0.001337943,0.0125574125,82.0,0.05963407,0.012209436,0.99814564,-8.8821724E-4,-4.4819526E-4,0.038683176,0.019205816,-0.023808405,0.45192254,2017-08-03 20:55:27,-Infinity
0.5746084,0.15322891,10.151415,-0.0019985428,0.007943495,-0.001020003,82.0,0.05789633,0.010609137,0.9982662,0.004684981,0.002061678,0.037590563,0.018342664,-0.023539955,0.45210472,2017-08-03 20:55:28,-Infinity
0.61291564,0.16280572,10.151415,0.007637879,0.0016406693,-0.009448986,82.0,0.06129996,0.01259603,0.99803984,3.331937E-4,-8.724788E-4,0.04172343,0.019767854,-0.023986118,0.4518122,2017-08-03 20:55:29,-Infinity
0.58418524,0.12449849,10.170568,-0.008330054,-0.016598286,0.03084494,81.0,0.060434278,0.0120805595,0.998099,0.00385312,-0.002155085,0.039724886,0.01907932,-0.023649214,0.45183977,2017-08-03 20:55:30,-Infinity
0.58418524,0.12449849,10.132261,-0.04496334,0.004573337,0.01811912,81.0,0.05855276,0.01357157,0.99819213,0.0040097535,0.0021957029,0.035709083,0.020054113,-0.023232838,0.4509714,2017-08-03 20:55:31,-Infinity
0.5746084,0.1340753,10.1226845,-0.017605605,-0.016161973,0.047366217,81.0,0.06063701,0.013023573,0.998075,-0.0010149181,0.0016783895,0.031919062,0.019408029,-0.023260722,0.45131767,2017-08-03 20:55:32,-Infinity
0.545878,0.19153613,10.103531,-0.0038304464,0.0034094532,0.0033741947,82.0,0.057808008,0.015283543,0.99821067,0.0019353442,-6.567361E-4,0.041549504,0.019534685,-0.023228992,0.4512224,2017-08-03 20:55:33,-Infinity
0.58418524,0.1436521,10.065224,-0.004952059,-0.0029140005,0.010594282,81.0,0.05770207,0.01333744,0.9982448,0.0019379668,-0.0016767886,0.035658658,0.018731728,-0.023202032,0.44592935,2017-08-03 20:55:34,-Infinity
0.5746084,0.1436521,10.093954,-0.04761948,-0.006943515,0.06819507,81.0,0.058757152,0.010031579,0.9982219,0.002781663,0.0045731263,0.037638843,0.018681148,-0.023506066,0.44623342,2017-08-03 20:55:35,-Infinity
0.59376204,0.095768064,10.1226845,-9.580393E-4,0.012576092,-0.010543888,82.0,0.059665788,0.014729576,0.99810976,-9.104721E-4,-0.0010474864,0.039696038,0.019790458,-0.02400599,0.44615653,2017-08-03 20:55:36,-Infinity
0.59376204,0.12449849,10.084377,0.002609835,0.009259289,-0.020696068,81.0,0.05886099,0.014860816,0.9981556,0.0027352087,0.0027645184,0.03476894,0.020093456,-0.023012439,0.4507466,2017-08-03 20:55:37,-Infinity
0.61291564,0.08619126,10.113108,-0.016709363,0.0075058085,0.0037124585,81.0,0.05892576,0.014444206,0.9981579,0.003657166,-7.6535996E-4,0.03672129,0.020023996,-0.023457201,0.45119187,2017-08-03 20:55:38,-Infinity
0.61291564,0.17238252,10.113108,-0.017232612,-0.008582218,0.03600205,81.0,0.06013824,0.011782545,0.99812055,0.0013852045,9.26164E-4,0.035786152,0.019088302,-0.023964366,0.45212853,2017-08-03 20:55:39,-Infinity
0.58418524,0.17238252,10.1226845,0.0010045425,0.01557796,-0.015539048,81.0,0.059452213,0.012839934,0.9981486,3.2754615E-4,0.0028040186,0.040631652,0.01959181,-0.023561468,0.45150414,2017-08-03 20:55:40,-Infinity
0.60333884,0.1436521,10.084377,7.040906E-4,-0.0021297163,-0.0010435306,80.0,0.061562326,0.014088984,0.9980038,0.0018325485,-3.1005777E-4,0.035906732,0.019890722,-0.023505116,0.4513047,2017-08-03 20:55:41,-Infinity
0.59376204,0.1340753,10.151415,0.006955169,0.0073750573,-0.017730754,81.0,0.056921847,0.013450109,0.9982881,0.002715744,1.5718956E-4,0.0365929,0.018598806,-0.022786967,0.44929942,2017-08-03 20:55:42,-Infinity
0.5746084,0.1340753,10.170568,0.022686198,-0.012382526,-0.0019238306,80.0,0.057989605,0.014361413,0.9982139,0.0054169,0.0022106618,0.038629234,0.019216675,-0.022716232,0.4509061,2017-08-03 20:55:43,-Infinity
0.58418524,0.1436521,10.151415,0.009497659,0.010389018,-0.028415207,80.0,0.058706284,0.012395646,0.99819833,8.8774785E-4,0.0022029374,0.03766203,0.018916173,-0.023748558,0.4461731,2017-08-03 20:55:44,-Infinity
0.58418524,0.15322891,10.132261,-0.026974231,-0.002923701,0.034441404,80.0,0.060038302,0.012509507,0.99811774,0.0016298629,-0.0016021645,0.035778403,0.019439097,-0.024001334,0.44614246,2017-08-03 20:55:45,-Infinity
0.59376204,0.11492168,10.160992,-0.0019961246,4.832924E-4,0.0018260076,80.0,0.060846724,0.013155622,0.99806035,0.0026119314,0.0014449293,0.039757133,0.019572405,-0.023865292,0.4459545,2017-08-03 20:55:47,-Infinity
0.63206923,0.17238252,10.141838,-0.0054573077,0.02265066,-0.021027334,80.0,0.0573083,0.014522977,0.9982509,0.0033655018,-0.0025632428,0.03955388,0.019450594,-0.02300985,0.445234,2017-08-03 20:55:48,-Infinity
0.61291564,0.18195933,10.084377,0.0025279496,-0.006818704,0.0060609793,81.0,0.059978366,0.013663662,0.9981061,0.0026350543,-0.0010602735,0.04165846,0.019224042,-0.024304872,0.44652358,2017-08-03 20:55:49,-Infinity
0.58418524,0.1340753,10.189722,0.0049077873,0.0012243896,-0.0076423036,80.0,0.060439803,0.010834511,0.99811304,0.0020794272,0.0028167143,0.030906677,0.018577563,-0.023993263,0.4465502,2017-08-03 20:55:50,-Infinity
0.58418524,0.12449849,10.103531,-0.022852484,0.008178987,-7.847303E-4,80.0,0.056915417,0.014438874,0.99827456,0.004696287,2.2848416E-4,0.03562677,0.019299854,-0.023298807,0.44557,2017-08-03 20:55:51,-Infinity
0.5554548,0.12449849,10.208876,-0.034777123,0.01170531,0.0064443746,81.0,0.056652855,0.014039961,0.99829525,0.0039694905,6.5325573E-4,0.035606503,0.019402653,-0.02290112,0.44515625,2017-08-03 20:55:52,-Infinity
0.60333884,0.15322891,10.132261,0.008982404,-0.037450902,0.011277119,80.0,0.06239065,0.014554404,0.9979457,-1.7754734E-5,-0.001730605,0.036944628,0.01976069,-0.023789309,0.4457949,2017-08-03 20:55:53,-Infinity
0.61291564,0.1340753,10.218452,0.0064299926,0.007173768,-0.015717154,81.0,0.056676388,0.0134772835,0.9983016,0.004834138,0.0059277928,0.03853929,0.018624028,-0.022609388,0.44526508,2017-08-03 20:55:54,-Infinity
0.61291564,0.15322891,10.160992,-0.031216938,-0.008510819,0.05208438,80.0,0.05762743,0.015018767,0.99822515,0.0049384795,-0.0042489227,0.040563583,0.019111317,-0.022949545,0.44534263,2017-08-03 20:55:55,-Infinity
0.60333884,0.16280572,10.113108,-0.0028158955,-0.01842864,0.021017803,80.0,0.060417973,0.013120506,0.9980869,0.0048718005,-0.0014037946,0.033874154,0.019152597,-0.023510186,0.44583136,2017-08-03 20:55:56,-Infinity
0.59376204,0.12449849,10.103531,-0.012057594,-0.0139605375,0.035964034,80.0,0.059306808,0.013171748,0.9981529,0.0011636503,5.802186E-4,0.043575168,0.019243022,-0.022663038,0.44501784,2017-08-03 20:55:57,-Infinity
0.60333884,0.1436521,10.103531,-0.023142941,-0.0056426274,0.038873903,80.0,0.05896909,0.012948523,0.9981758,0.0015611574,-0.0010027196,0.03670621,0.019076977,-0.02318147,0.4492603,2017-08-03 20:55:58,-Infinity
0.59376204,0.12449849,10.132261,-0.008706449,0.017277952,-5.7250075E-4,80.0,0.060780145,0.013879243,0.9980547,-0.0039368086,0.0018291771,0.03779292,0.02040547,-0.023935433,0.45127705,2017-08-03 20:55:59,-Infinity
0.60333884,0.1436521,10.170568,0.005052658,-4.1634834E-4,-0.0029008836,81.0,0.060353585,0.013687824,0.9980831,0.0031923354,5.1766634E-5,0.036795914,0.019456338,-0.023713082,0.4467757,2017-08-03 20:56:00,-Infinity
0.61291564,0.15322891,10.151415,-0.011436413,-0.022374418,0.039995342,81.0,0.056423858,0.014038615,0.99830824,0.0050578043,-0.0040016137,0.036574304,0.02032315,-0.021686641,0.44360563,2017-08-03 20:56:01,-Infinity
0.61291564,0.12449849,10.1226845,0.004247006,0.020837221,-0.021875527,81.0,0.059911534,0.01058342,0.99814755,0.0046368986,0.0048777927,0.037709832,0.018868849,-0.024329994,0.45238933,2017-08-03 20:56:02,-Infinity
0.60333884,0.12449849,10.132261,-0.017909467,8.283212E-4,-0.012754086,81.0,0.060447156,0.014246712,0.99806976,0.0010771602,-0.0014842404,0.033881724,0.01962259,-0.023265848,0.45104668,2017-08-03 20:56:03,-Infinity
0.5746084,0.11492168,10.055647,-0.030254401,0.0069928844,0.010465005,81.0,0.057681974,0.011339575,0.9982706,9.3078986E-4,3.877394E-4,0.031725943,0.019290201,-0.022939479,0.44524655,2017-08-03 20:56:04,-Infinity
0.641646,0.10534488,10.141838,-0.03496819,0.00677466,0.029173797,80.0,0.058287766,0.014316756,0.99819714,-0.0014552474,-0.0024692528,0.032764733,0.019468205,-0.023343533,0.4455292,2017-08-03 20:56:05,-Infinity
0.61291564,0.10534488,10.1226845,0.006139095,0.023866745,-0.031022983,80.0,0.05992433,0.014485682,0.9980978,0.0016836599,7.224921E-5,0.035805225,0.019704055,-0.023811221,0.44812337,2017-08-03 20:56:06,-Infinity
0.59376204,0.1436521,10.180145,0.0028261982,0.007881955,-0.016943015,80.0,0.057809833,0.0137047,0.9982336,-7.726997E-5,-0.0018336037,0.03077811,0.019116383,-0.022712952,0.45078796,2017-08-03 20:56:07,-Infinity
0.641646,0.12449849,10.151415,-0.011650061,0.01575498,-0.008625663,81.0,0.06013501,0.012603784,0.99811065,-0.0023881085,0.0010551484,0.041651726,0.019593712,-0.023573797,0.4513433,2017-08-03 20:56:08,-Infinity
0.5746084,0.11492168,10.151415,0.021696612,-0.0016143076,-0.011088085,81.0,0.06030197,0.013522418,0.99808854,0.0012418143,0.001047112,0.039726973,0.019105466,-0.023943836,0.44625017,2017-08-03 20:56:09,-Infinity
0.61291564,0.1436521,10.1226845,-0.022155082,0.010246249,-8.513792E-4,80.0,0.06098475,0.014411954,0.9980346,0.006439302,2.5246292E-4,0.037824273,0.020432835,-0.024193339,0.4458396,2017-08-03 20:56:10,-Infinity
0.59376204,0.1340753,10.1226845,0.0063570184,0.011143016,-0.02904761,80.0,0.05770206,0.013079697,0.99824816,-9.191558E-4,0.0025565252,0.03369564,0.01872616,-0.023155745,0.4457138,2017-08-03 20:56:11,-Infinity
0.641646,0.12449849,10.113108,-0.0098738335,-0.01383526,0.032133896,81.0,0.056633603,0.016470935,0.9982591,0.0038603954,-0.004728375,0.03369564,0.019827316,-0.02206807,0.44419423,2017-08-03 20:56:12,-Infinity
0.6512229,0.10534488,10.189722,0.009702395,4.3216697E-4,-0.011137057,81.0,0.058449112,0.014778756,0.998181,0.0011791959,-0.0020848839,0.031813443,0.019296378,-0.023339383,0.44560713,2017-08-03 20:56:13,-Infinity
0.5650316,0.15322891,10.141838,-0.031850442,0.0041828416,0.010981971,80.0,0.05604154,0.014259076,0.9983266,0.0045321397,5.5805594E-4,0.039485037,0.019171258,-0.0224805,0.44488555,2017-08-03 20:56:14,-Infinity
0.61291564,0.19153613,10.103531,-0.0020987177,-0.011349426,0.030642897,81.0,0.058559384,0.011838582,0.9982137,0.003852222,0.0075425543,0.03276837,0.018312989,-0.023363633,0.4461045,2017-08-03 20:56:15,-Infinity
0.5746084,0.19153613,10.084377,0.009656992,0.028883122,-0.03392697,80.0,0.055965804,0.012090167,0.99835956,0.0027671866,0.0072834613,0.030655026,0.018347537,-0.022972906,0.44572926,2017-08-03 20:56:16,-Infinity
0.59376204,0.16280572,10.151415,0.0067539113,0.010349682,-0.017070591,81.0,0.060507108,0.013282116,0.99807936,0.003925588,0.0032154396,0.038761973,0.019590668,-0.024142163,0.4461961,2017-08-03 20:56:17,-Infinity
0.5746084,0.1436521,10.093954,0.023567624,-0.002388041,-0.02911791,81.0,0.060033686,0.014876921,0.9980855,-0.0013542324,-1.658164E-4,0.031906307,0.019489244,-0.023683527,0.44582975,2017-08-03 20:56:18,-Infinity
0.59376204,0.1340753,10.103531,-0.026408376,-0.012252231,0.052433174,81.0,0.058942255,0.015121378,0.9981469,0.0025884993,-0.004253641,0.03575754,0.019530868,-0.022934604,0.44512624,2017-08-03 20:56:19,-Infinity
0.61291564,0.1340753,10.103531,-0.0032520716,-0.023376364,0.022211658,81.0,0.06101116,0.016002622,0.9980088,0.0015887022,-0.0022033677,0.03295827,0.02014419,-0.023295928,0.4451621,2017-08-03 20:56:20,-Infinity
0.62249243,0.11492168,10.113108,-0.0115696825,-0.016657509,0.03629593,81.0,0.058282733,0.0117355,0.9982312,0.0032076836,-9.5340144E-4,0.035677016,0.01810266,-0.023312554,0.4461582,2017-08-03 20:56:21,-Infinity
0.60333884,0.15322891,10.132261,0.009155818,0.014902361,-0.027161453,82.0,0.059535697,0.015088463,0.9981121,-8.1991404E-4,-0.0012687575,0.031876206,0.01974221,-0.023425419,0.44547293,2017-08-03 20:56:22,-Infinity
0.59376204,0.12449849,10.170568,6.240135E-4,0.0033884994,-0.0054421895,82.0,0.05784538,0.0133587895,0.9982361,0.0026875474,-6.2634423E-4,0.03957975,0.018968094,-0.023103561,0.4455513,2017-08-03 20:56:23,-Infinity
0.61291564,0.1340753,10.141838,0.003701516,-0.0032016379,-0.002012307,82.0,0.060125176,0.011856258,0.99812037,0.0013385005,8.216193E-4,0.035790205,0.019039446,-0.023620842,0.44598815,2017-08-03 20:56:24,-Infinity
0.62249243,0.11492168,10.189722,0.004150555,-5.5537967E-4,-9.3418173E-4,81.0,0.058453567,0.01171053,0.9982214,0.005936634,0.004788168,0.03862202,0.018377565,-0.023060309,0.44579378,2017-08-03 20:56:25,-Infinity
0.59376204,0.11492168,10.141838,-0.028676767,-0.00116873,0.03833044,81.0,0.059634794,0.010313252,0.998167,9.4523653E-4,0.0015560491,0.03671342,0.018785348,-0.023938857,0.44639993,2017-08-03 20:56:26,-Infinity
0.5746084,0.15322891,10.141838,0.0043018702,0.004446893,-0.005699278,81.0,0.057428055,0.012205855,0.998275,2.7932972E-4,-5.099429E-4,0.033672154,0.01833454,-0.022856507,0.44562933,2017-08-03 20:56:27,-Infinity
0.641646,0.1436521,10.151415,-0.022152895,-6.7966187E-4,0.030254263,81.0,0.060503095,0.012752727,0.9980865,0.0021828264,-0.0028618816,0.03092134,0.019486949,-0.024055596,0.44616854,2017-08-03 20:56:28,-Infinity
0.58418524,0.16280572,10.170568,-0.021560347,0.019582592,-5.504382E-4,80.0,0.05835424,0.012952204,0.9982119,0.008932393,0.0065139597,0.03276986,0.019424146,-0.023636295,0.44564143,2017-08-03 20:56:29,-Infinity
0.5650316,0.10534488,10.141838,-0.009434406,-0.0134443445,0.029940598,80.0,0.059441417,0.013729909,0.99813735,0.0058515593,-9.007929E-4,0.036753118,0.019486185,-0.02313031,0.445157,2017-08-03 20:56:30,-Infinity
0.62249243,0.1436521,10.199299,0.00792579,0.0031792205,-0.014115251,81.0,0.05905171,0.01372579,0.9981606,-3.9906055E-4,-0.0010274965,0.03574264,0.019388825,-0.023559254,0.45125368,2017-08-03 20:56:31,-Infinity
0.5746084,0.095768064,10.151415,-0.0146227805,0.01469541,0.0026562763,81.0,0.057542924,0.012245575,0.9982679,0.0030960143,0.0015078755,0.03660965,0.019097278,-0.023205245,0.4510784,2017-08-03 20:56:32,-Infinity
0.63206923,0.11492168,10.113108,0.018157933,-0.049396075,0.008680569,81.0,0.05988404,0.013920197,0.99810827,0.00429013,-0.0022420138,0.033861518,0.018667981,-0.022929408,0.44536462,2017-08-03 20:56:33,-Infinity
0.63206923,0.1436521,10.199299,-0.0015547441,0.009476057,-0.016119195,81.0,0.05820145,0.01553365,0.99818397,0.0024978518,0.0028816964,0.032784402,0.020084554,-0.023303922,0.44502896,2017-08-03 20:56:34,-Infinity
0.63206923,0.17238252,10.141838,0.011900824,0.022676257,-0.04263042,80.0,0.0582723,0.013790065,0.9982054,-0.0014736056,0.001974741,0.036667228,0.019557554,-0.023400277,0.4453657,2017-08-03 20:56:35,-Infinity
0.58418524,0.15322891,10.151415,0.014787408,0.005284642,-0.0270933,80.0,0.059475645,0.014015538,0.9981314,0.0011863671,6.094258E-4,0.042609513,0.019385366,-0.023941658,0.45160365,2017-08-03 20:56:36,-Infinity
0.62249243,0.12449849,10.141838,0.01807176,-0.019596424,-0.0017769568,82.0,0.05988428,0.01642288,0.9980702,-0.0012054518,0.002018759,0.031924427,0.019710103,-0.02300078,0.44493377,2017-08-03 20:56:37,-Infinity
0.5746084,0.1340753,10.141838,0.008458934,-0.0012726919,-0.011744835,82.0,0.061631836,0.013587627,0.99800646,-0.0028775707,1.2733042E-4,0.03686714,0.019688167,-0.024225652,0.44604477,2017-08-03 20:56:38,-Infinity
0.59376204,0.17238252,10.199299,0.029074922,0.015987482,-0.060061634,81.0,0.06178245,0.013992192,0.9979916,-0.0020319335,0.0036046943,0.034926653,0.020137902,-0.024197957,0.44580695,2017-08-03 20:56:39,-Infinity
0.6512229,0.10534488,10.151415,-0.01688601,-0.0124075515,0.03960553,82.0,0.05889165,0.013521826,0.9981729,0.007399112,-0.0026771901,0.037694037,0.019237215,-0.023240535,0.44537276,2017-08-03 20:56:40,-Infinity
0.62249243,0.1436521,10.093954,0.037553363,-0.014403123,-0.009206829,80.0,0.05950748,0.0130890235,0.998142,9.342544E-4,0.00421831,0.032842994,0.018570744,-0.023417149,0.44584706,2017-08-03 20:56:41,-Infinity
0.5746084,0.15322891,10.151415,-7.289369E-4,-0.018356703,0.024291825,80.0,0.06068057,0.014371712,0.9980537,0.0018069558,0.002191958,0.036831677,0.019661281,-0.023364272,0.44528532,2017-08-03 20:56:42,-Infinity
0.641646,0.11492168,10.1226845,-0.0048197308,-0.0043621864,0.012992774,81.0,0.05978073,0.01359082,0.99811894,9.2499703E-4,1.8146355E-4,0.035776913,0.01949039,-0.023781791,0.44574174,2017-08-03 20:56:43,-Infinity
0.61291564,0.1436521,10.132261,0.0018075997,-0.0014125708,0.0054135863,81.0,0.058701772,0.010903259,0.998216,0.0038515665,0.0017781081,0.033733368,0.018312175,-0.023997298,0.4464939,2017-08-03 20:56:44,-Infinity
0.5650316,0.15322891,10.132261,-0.007990177,-0.0012523341,0.011515194,80.0,0.05699902,0.014792877,0.9982646,0.0045215786,-0.0020291898,0.03270948,0.019180195,-0.02283335,0.4450347,2017-08-03 20:56:45,-Infinity
0.59376204,0.16280572,10.103531,-0.039268427,0.011051446,0.01942634,80.0,0.058787454,0.013018042,0.99818563,0.0020490289,-0.0050933547,0.03374815,0.019208532,-0.023963433,0.4460367,2017-08-03 20:56:46,-Infinity
0.61291564,0.1340753,10.132261,6.501775E-4,0.020701723,-0.027764017,80.0,0.06255314,0.014936345,0.99792993,4.1741133E-4,-0.0012062332,0.035946906,0.020769538,-0.024941508,0.44617367,2017-08-03 20:56:47,-Infinity
0.59376204,0.095768064,10.1226845,-0.014848024,-0.004448059,0.02479876,82.0,0.05838335,0.012845492,0.99821156,0.0031543858,-0.0010575503,0.03862518,0.018765507,-0.02353584,0.4458645,2017-08-03 20:56:49,-Infinity
0.58418524,0.16280572,10.189722,0.0134868035,0.014870008,-0.037143994,82.0,0.058225557,0.0149095375,0.99819213,-0.0032940805,0.0017386554,0.03374505,0.020183727,-0.022997541,0.44470742,2017-08-03 20:56:50,-Infinity
0.60333884,0.1436521,10.113108,0.052216765,-0.005151327,-0.017911365,82.0,0.059670236,0.014012933,0.9981198,0.0018167347,5.388707E-4,0.033836186,0.019079711,-0.023310635,0.445512,2017-08-03 20:56:51,-Infinity
0.60333884,0.11492168,10.084377,0.02483771,0.0024737755,-0.024340156,80.0,0.059902765,0.01366139,0.9981107,0.0016339682,9.2741847E-4,0.03481877,0.019228691,-0.024167765,0.4462108,2017-08-03 20:56:52,-Infinity
0.63206923,0.1436521,10.151415,0.0054239077,-0.007362618,0.0014853233,81.0,0.059560627,0.012722861,0.9981436,0.0059200935,9.510927E-4,0.034783006,0.019108197,-0.02405095,0.44616362,2017-08-03 20:56:53,-Infinity
0.59376204,0.15322891,10.0748005,-0.011327989,-0.010162163,0.029115349,81.0,0.060072683,0.01323898,0.99810624,4.938729E-4,0.002312852,0.029937088,0.019057048,-0.024039485,0.44059947,2017-08-03 20:56:54,-Infinity
0.58418524,0.1436521,10.113108,0.013975784,-0.0031532322,0.01596073,81.0,0.060044814,0.012946721,0.9981117,4.41771E-4,0.0055729263,0.03873092,0.019308731,-0.023681013,0.44018823,2017-08-03 20:56:55,-Infinity
0.62249243,0.10534488,10.170568,0.020391174,0.0036556332,-0.019481804,81.0,0.060545992,0.01436273,0.998062,-0.0017710105,0.0021621333,0.03583473,0.019416472,-0.024119314,0.4460785,2017-08-03 20:56:56,-Infinity
0.58418524,0.10534488,10.160992,0.052745037,-0.0061197714,-0.017543305,80.0,0.06097618,0.0135898935,0.99804676,-0.0013662577,0.0019732276,0.032926798,0.019088691,-0.023964053,0.44609523,2017-08-03 20:56:57,-Infinity
0.60333884,0.1436521,10.141838,-1.9106618E-4,-0.003140326,0.009528684,81.0,0.055605747,0.014275205,0.99835074,0.0021067187,0.0042085974,0.0404377,0.018981446,-0.021665677,0.44407478,2017-08-03 20:56:58,-Infinity
0.59376204,0.12449849,10.04607,-0.018769382,0.0023326948,0.029497962,81.0,0.06016347,0.0150055345,0.9980757,5.7404116E-4,-0.0023152642,0.027024627,0.02026441,-0.023941347,0.4455176,2017-08-03 20:56:59,-Infinity
0.60333884,0.11492168,10.103531,-0.024773704,-6.633112E-5,0.023330824,81.0,0.059586227,0.0129286405,0.99813944,0.0010413565,8.18084E-4,0.029898226,0.019568982,-0.02382311,0.44574192,2017-08-03 20:57:00,-Infinity
0.63206923,0.12449849,10.093954,0.018014578,-0.010474441,-8.4618456E-4,81.0,0.060326185,0.013327758,0.99808973,0.0013138466,4.3529738E-4,0.03189999,0.019553363,-0.023885265,0.4458027,2017-08-03 20:57:01,-Infinity
0.6512229,0.19153613,10.170568,0.02676634,0.003583317,-0.031095719,81.0,0.059305243,0.01458231,0.9981334,0.0069847517,0.004787756,0.039691865,0.01953926,-0.023207169,0.44520202,2017-08-03 20:57:02,-Infinity
0.58418524,0.1340753,10.141838,0.024821162,0.003846803,-0.029993923,81.0,0.060289003,0.011741107,0.9981119,-0.0014837086,8.940706E-4,0.03187388,0.018508855,-0.02436702,0.44673377,2017-08-03 20:57:03,-Infinity
0.60333884,0.10534488,10.141838,-0.034164637,-0.0053272024,0.041934166,81.0,0.05890229,0.012897894,0.99818045,0.0027356595,-1.4932081E-4,0.037673354,0.019377677,-0.023637868,0.44566384,2017-08-03 20:57:04,-Infinity
0.545878,0.10534488,10.093954,-0.010502684,-0.02897837,0.033019666,81.0,0.060865518,0.013687937,0.99805206,0.0024337396,-0.0018723691,0.040750444,0.01945136,-0.023586752,0.44558224,2017-08-03 20:57:05,-Infinity
0.61291564,0.1436521,10.151415,0.012830444,0.004214951,-0.023171611,80.0,0.05771288,0.012483548,0.99825513,9.862222E-4,0.002081357,0.04053259,0.018298337,-0.023309998,0.44587985,2017-08-03 20:57:06,-Infinity
0.58418524,0.15322891,10.113108,0.021735765,-6.415404E-4,-0.016982118,81.0,0.058805566,0.013202426,0.9981821,0.0026657209,5.3647533E-4,0.034749508,0.018711034,-0.023223856,0.44560775,2017-08-03 20:57:07,-Infinity
0.60333884,0.12449849,10.1226845,0.009324139,0.015035347,-0.03337386,81.0,0.059566986,0.011794559,0.9981547,-7.503629E-4,-9.569088E-4,0.035737574,0.01871661,-0.024164066,0.4464523,2017-08-03 20:57:08,-Infinity
0.5746084,0.1436521,10.132261,-0.013574598,-0.015834332,0.03937067,81.0,0.058418874,0.012964494,0.9982079,0.007920455,-0.0011437954,0.034724236,0.018832091,-0.02316057,0.44549417,2017-08-03 20:57:09,-Infinity
0.59376204,0.16280572,10.208876,-0.014531272,-0.004425715,0.023263399,81.0,0.059019875,0.013516122,0.9981653,0.0016027093,0.0029887753,0.043556035,0.019344969,-0.023221614,0.44530585,2017-08-03 20:57:10,-Infinity
0.5746084,0.15322891,10.1226845,0.02186783,-0.0021567103,-0.018169425,81.0,0.059292074,0.012594907,0.9981612,-6.42892E-4,0.0029177805,0.03281194,0.018643618,-0.023662757,0.44603544,2017-08-03 20:57:11,-Infinity
0.6512229,0.1340753,10.141838,0.0077716224,-0.0127850035,-0.0042513404,81.0,0.057926595,0.013056645,0.99823546,0.00832535,4.6071317E-4,0.036659777,0.018534599,-0.023338746,0.4457973,2017-08-03 20:57:12,-Infinity
0.5650316,0.18195933,10.103531,0.033487897,0.021570014,-0.07153683,81.0,0.06042081,0.013799374,0.9980776,-0.0055287667,0.0044955695,0.035820305,0.019397661,-0.023804963,0.44580513,2017-08-03 20:57:13,-Infinity
0.641646,0.1436521,10.160992,0.008854447,-0.015408445,0.0016662986,81.0,0.057666756,0.014389837,0.99823225,0.0076298416,2.601929E-4,0.038614094,0.018926412,-0.022397492,0.44475994,2017-08-03 20:57:14,-Infinity
0.59376204,0.15322891,10.0748005,-0.009399001,0.0019267472,0.010906373,81.0,0.060805697,0.014019794,0.9980511,0.0026411712,7.280251E-4,0.035856187,0.020253742,-0.023748558,0.44534913,2017-08-03 20:57:15,-Infinity
0.59376204,0.12449849,10.132261,0.001709132,-0.0083762705,6.326684E-4,81.0,0.05760304,0.014268859,0.9982376,0.0010124929,0.0013248436,0.035668194,0.018996352,-0.022930706,0.4452091,2017-08-03 20:57:16,-Infinity
0.60333884,0.15322891,10.170568,-0.0030215385,-0.011350385,0.020602493,81.0,0.059201516,0.012897141,0.9981627,0.0023520403,-0.0029476127,0.030853689,0.01868274,-0.02311291,0.44552338,2017-08-03 20:57:17,-Infinity
0.58418524,0.12449849,10.141838,-0.00932567,-0.03627183,0.03839275,81.0,0.05822268,0.013409369,0.9982135,0.0032119043,-6.726356E-4,0.035697818,0.018758755,-0.022209752,0.44466978,2017-08-03 20:57:18,-Infinity
0.61291564,0.15322891,10.065224,-0.0058565335,-0.008301741,0.019531107,81.0,0.05892194,0.013773524,0.9981676,0.002642341,8.552056E-4,0.035737097,0.01937806,-0.02327609,0.44533902,2017-08-03 20:57:19,-Infinity
0.5746084,0.18195933,10.180145,0.031698935,0.019361887,-0.06272223,81.0,0.062258605,0.013732823,0.99796563,-0.0034446642,5.0449744E-6,0.03690386,0.019918045,-0.024538258,0.4462156,2017-08-03 20:57:20,-Infinity
0.5650316,0.15322891,10.160992,-0.036646567,-0.009312644,0.053488977,81.0,0.05799328,0.013843203,0.9982209,0.0015572719,0.0018133475,0.03764081,0.019549932,-0.022613999,0.4446602,2017-08-03 20:57:21,-Infinity
0.59376204,0.1436521,10.141838,-6.6041783E-4,-0.0054374323,0.0030622096,81.0,0.059506204,0.013813378,0.9981324,-0.0017769262,-0.0038995864,0.031856716,0.01947165,-0.023429234,0.44543207,2017-08-03 20:57:22,-Infinity
0.5746084,0.15322891,10.151415,-0.008642387,0.001400667,0.011448212,81.0,0.059156775,0.014264272,0.99814683,-4.189536E-4,0.0014163498,0.037704945,0.019859606,-0.023068383,0.4449233,2017-08-03 20:57:23,-Infinity
0.60333884,0.1436521,10.141838,-0.013383913,0.0053614443,0.0133472495,81.0,0.057513356,0.014043135,0.99824595,0.007902503,-0.0012795413,0.029797494,0.019246118,-0.022975825,0.44513187,2017-08-03 20:57:24,-Infinity
0.5746084,0.15322891,10.103531,-0.043315016,0.019777928,0.0077908193,81.0,0.05775542,0.011696504,0.9982623,0.0010029376,0.0040529883,0.03270179,0.019140532,-0.023371285,0.44553724,2017-08-03 20:57:25,-Infinity
0.58418524,0.1340753,10.180145,0.0031732607,0.02232872,-0.019458761,81.0,0.059223123,0.0122087095,0.99817014,0.0034176223,0.005268462,0.03963852,0.018931134,-0.024044134,0.44624132,2017-08-03 20:57:26,-Infinity
0.5267244,0.16280572,10.170568,0.00792725,0.010311971,-0.023957156,81.0,0.055623747,0.014712355,0.9983434,-0.0015796125,0.0017796839,0.039454997,0.01884633,-0.02245563,0.44485214,2017-08-03 20:57:27,-Infinity
0.60333884,0.10534488,10.132261,-0.010825777,-0.015606002,0.036237843,81.0,0.05952824,0.014716293,0.99811816,0.008705575,8.206414E-4,0.03775221,0.019364985,-0.023852177,0.4458638,2017-08-03 20:57:28,-Infinity
0.5746084,0.12449849,9.988609,-0.024279144,0.006447231,0.010411317,81.0,0.058804728,0.012443946,0.99819195,-0.0010041893,-0.0024316432,0.036678076,0.019237988,-0.023579169,0.44567773,2017-08-03 20:57:29,-Infinity
0.5746084,0.1436521,10.084377,-0.024298802,0.028488182,-0.0026159536,81.0,0.062343527,0.015530169,0.9979339,-0.0026799515,-0.0045715105,0.034986496,0.020691188,-0.024145557,0.44532233,2017-08-03 20:57:30,-Infinity
0.6512229,0.11492168,10.093954,-0.028833989,-0.011813567,0.049725175,81.0,0.06055423,0.012163866,0.9980908,0.0048712306,-0.0013458943,0.036792815,0.019081274,-0.024250552,0.4461713,2017-08-03 20:57:31,-Infinity
0.58418524,0.19153613,10.151415,0.04682714,0.0011253402,-0.046555903,81.0,0.05833778,0.014949142,0.998185,2.8108805E-4,-0.0012213541,0.026924312,0.019469354,-0.023099368,0.44269753,2017-08-03 20:57:32,-Infinity
0.5746084,0.12449849,10.208876,0.005260679,0.01845126,-0.03259507,81.0,0.058587607,0.0152414525,0.99816585,1.4460832E-4,0.0031061433,0.039644837,0.019429898,-0.023341618,0.4418719,2017-08-03 20:57:33,-Infinity
0.60333884,0.19153613,10.132261,0.015799783,-0.0056366515,-0.0042993766,81.0,0.060470976,0.0130835865,0.99808425,0.0058922768,0.0043594567,0.03582728,0.019002236,-0.023872785,0.44587222,2017-08-03 20:57:34,-Infinity
0.62249243,0.11492168,10.180145,-0.04397457,-0.0046405746,0.04992835,80.0,0.058489878,0.014160841,0.9981876,0.008783918,-0.002284062,0.036700845,0.019522093,-0.022832043,0.4448428,2017-08-03 20:57:35,-Infinity
0.62249243,0.12449849,10.093954,-0.024135582,0.008855414,0.020792333,80.0,0.060072586,0.0128561035,0.99811125,-3.4225732E-4,0.0019410737,0.035784066,0.019422228,-0.023705225,0.44570485,2017-08-03 20:57:36,-Infinity
0.6607997,0.11492168,10.180145,-0.01717072,0.01963786,-0.0013100553,81.0,0.06139028,0.013120312,0.99802756,-7.3188916E-4,-3.8224552E-4,0.041735172,0.020245647,-0.024680251,0.44987255,2017-08-03 20:57:37,-Infinity
0.58418524,0.12449849,10.141838,0.026347317,0.012730503,-0.05059067,81.0,0.05841932,0.01387338,0.99819565,-0.0025949925,0.002524946,0.03863603,0.019149095,-0.023533309,0.45135018,2017-08-03 20:57:38,-Infinity
0.58418524,0.12449849,10.160992,0.010993586,0.0016779103,-0.13056171,81.0,0.058717117,0.016951818,0.9981307,0.0019556582,0.0016171504,0.031859577,0.020440493,-0.022825845,0.44894487,2017-08-03 20:57:39,-Infinity
0.61291564,0.17238252,10.189722,-0.008537625,-0.0019969437,0.010726267,82.0,0.05881305,0.014274527,0.998167,0.0017319471,3.6073383E-4,0.03476286,0.019160762,-0.02302118,0.44521204,2017-08-03 20:57:40,-Infinity
0.58418524,0.17238252,10.170568,0.006441501,0.007671037,-0.12884973,81.0,0.057665702,0.011662845,0.99826777,0.0038795993,0.0029385304,0.035638273,0.018495163,-0.022922581,0.44431165,2017-08-03 20:57:41,-Infinity
0.59376204,0.16280572,10.141838,-0.0046955636,0.024474405,-0.00788763,82.0,0.05967026,0.01612504,0.99808794,0.0038504042,-4.31614E-4,0.032883584,0.020582518,-0.023859048,0.43972355,2017-08-03 20:57:42,-Infinity
0.61291564,0.12449849,10.113108,0.024967011,-0.012450331,-0.002620883,80.0,0.061078202,0.011837248,0.99806285,-4.4668838E-4,-1.7789006E-4,0.031930685,0.018489925,-0.024103556,0.44091612,2017-08-03 20:57:43,-Infinity
0.62249243,0.10534488,10.1226845,-0.016027499,-0.015390155,0.03076917,81.0,0.062508285,0.013475284,0.9979535,0.0017632693,-0.0036504092,0.034009635,0.019177865,-0.024331527,0.44079968,2017-08-03 20:57:44,-Infinity
0.63206923,0.11492168,10.132261,0.017932,-0.006859167,-0.014860089,81.0,0.0609824,0.012996335,0.9980542,0.0015204735,0.0035053426,0.044648826,0.019121839,-0.023882769,0.4404251,2017-08-03 20:57:45,-Infinity
0.60333884,0.15322891,10.103531,0.012874011,0.007341852,-0.026088633,82.0,0.06005879,0.013148999,0.99810815,0.0013535172,0.0015155673,0.03873682,0.01905001,-0.023743853,0.44033325,2017-08-03 20:57:46,-Infinity
0.58418524,0.15322891,10.1226845,-0.0121447425,-0.0046152123,0.021427386,81.0,0.057082213,0.014730128,0.9982608,0.0025349073,8.7895524E-4,0.03466618,0.018916173,-0.022594223,0.43936685,2017-08-03 20:57:47,-Infinity
0.59376204,0.17238252,10.141838,-0.029035479,0.0037660284,0.026358997,81.0,0.058944248,0.014949397,0.99814934,0.0055105537,-0.0030041672,0.039663017,0.020507086,-0.023170862,0.444711,2017-08-03 20:57:48,-Infinity
0.59376204,0.16280572,10.141838,-3.124219E-4,-0.009938676,0.0039074067,81.0,0.059880648,0.015240498,0.99808913,7.0844963E-4,0.0013791258,0.037769258,0.019984147,-0.023310319,0.4450818,2017-08-03 20:57:49,-Infinity
0.5650316,0.17238252,10.170568,-0.008700274,0.010375146,-0.00798805,81.0,0.05824788,0.012624605,0.99822235,4.4238567E-4,0.0020408817,0.03470123,0.018924048,-0.023533624,0.44020748,2017-08-03 20:57:50,-Infinity
0.60333884,0.15322891,10.189722,-0.0134442225,0.0040469337,9.809731E-4,81.0,0.057667386,0.014545378,0.99822986,0.0010212921,1.4513824E-4,0.037625074,0.019507203,-0.022717873,0.43920156,2017-08-03 20:57:52,-Infinity
0.5746084,0.15322891,10.1226845,-0.0013293668,-0.028142119,0.020532848,81.0,0.058374714,0.015328693,0.9981771,0.003056351,-0.0016216366,0.035734594,0.01935113,-0.02218458,0.4387949,2017-08-03 20:57:53,-Infinity
0.59376204,0.15322891,10.1226845,0.011713479,-0.012317249,-0.003279778,81.0,0.059409905,0.01104898,0.9981725,0.0021877475,5.88852E-4,0.036707997,0.018047426,-0.024209347,0.44102448,2017-08-03 20:57:54,-Infinity
0.58418524,0.11492168,10.113108,-0.031877145,-0.019069685,0.06768104,81.0,0.059311755,0.013339707,0.99815035,3.3874065E-4,-0.0014868015,0.033795357,0.019225592,-0.02340219,0.44535035,2017-08-03 20:57:55,-Infinity
0.6512229,0.1436521,10.170568,-0.004098666,0.009060501,0.0032494268,81.0,0.058824867,0.013518989,0.9981768,0.0037889406,0.0030398322,0.034746587,0.01944523,-0.023764867,0.44556957,2017-08-03 20:57:56,-Infinity
0.58418524,0.1340753,10.132261,0.0042004865,0.013194123,-0.023395985,81.0,0.05943218,0.012427135,0.99815506,0.0040408447,0.0031814426,0.03868401,0.019323004,-0.0238131,0.4456709,2017-08-03 20:57:57,-Infinity
0.60333884,0.19153613,10.141838,0.02113372,0.012160533,-0.044211198,81.0,0.058788598,0.015219079,0.9981545,0.0028114729,0.00410947,0.036728263,0.019326085,-0.023783043,0.44564286,2017-08-03 20:57:58,-Infinity
0.61291564,0.1436521,10.180145,-0.0061787046,-0.0056648236,0.018060349,81.0,0.05815129,0.012645122,0.99822766,0.0043969043,2.3926608E-5,0.04544884,0.018523341,-0.023098722,0.43982357,2017-08-03 20:57:59,-Infinity
0.63206923,0.12449849,10.170568,-0.04706815,0.008570243,0.012145439,81.0,0.056761783,0.015348301,0.99826974,0.0067314096,3.979532E-4,0.042474747,0.019725218,-0.02273623,0.43894988,2017-08-03 20:58:00,-Infinity
0.60333884,0.1436521,10.189722,-0.01277848,0.009124182,-1.2378627E-4,81.0,0.057489164,0.0121312225,0.9982724,0.0059122965,0.0044568637,0.0395478,0.01861082,-0.023000458,0.44528133,2017-08-03 20:58:01,-Infinity
0.5746084,0.1340753,10.160992,-0.00691163,-0.0045125177,0.013016604,81.0,0.058042075,0.012685663,0.99823356,0.004449021,-8.026287E-4,0.039580524,0.01906643,-0.023032183,0.44509685,2017-08-03 20:58:02,-Infinity
0.5746084,0.1436521,10.141838,0.010666599,0.008176003,-0.024640227,83.0,0.058855914,0.012771962,0.9981848,0.0027428307,-1.3691094E-4,0.034741104,0.018821407,-0.023855614,0.440357,2017-08-03 20:58:03,-Infinity
0.59376204,0.1436521,10.141838,-0.018498586,0.016312059,-0.0090751145,81.0,0.060574926,0.013487251,0.9980725,-7.623397E-4,-0.0025935061,0.033863127,0.019570502,-0.024512436,0.43696874,2017-08-03 20:58:04,-Infinity
0.60333884,0.17238252,10.113108,-0.0069633434,-0.013463699,0.023575637,81.0,0.056973338,0.017395586,0.99822414,0.006421201,-7.5540505E-4,0.034709394,0.019958403,-0.022095738,0.433912,2017-08-03 20:58:05,-Infinity
0.60333884,0.1340753,10.141838,0.014398679,0.004587395,-0.025546003,81.0,0.058886174,0.013286974,0.9981762,0.0046552382,0.0012801075,0.038659513,0.019019088,-0.023986429,0.438891,2017-08-03 20:58:06,-Infinity
0.59376204,0.11492168,10.180145,-0.0063708513,-0.006817567,0.017276565,81.0,0.05826909,0.0116846915,0.9982325,0.0022913367,7.9934485E-5,0.040558994,0.01814295,-0.023171505,0.4400634,2017-08-03 20:58:07,-Infinity
0.6512229,0.11492168,10.103531,-0.01010666,-0.03351815,0.035639793,81.0,0.059427526,0.013442597,0.99814206,0.006795462,-0.0017500548,0.032844424,0.018656401,-0.023359805,0.43999314,2017-08-03 20:58:08,-Infinity
0.61291564,0.095768064,10.160992,-0.0010750659,0.005517143,3.76662E-4,81.0,0.057873443,0.010787043,0.9982657,0.004712265,-9.90497E-4,0.03563577,0.01803958,-0.023568423,0.4460511,2017-08-03 20:58:09,-Infinity
0.61291564,0.15322891,10.132261,0.0031459453,-0.014192024,0.0031390204,81.0,0.055551253,0.011415109,0.99839056,0.0069122314,0.004995658,0.03747475,0.017906928,-0.02265942,0.4453097,2017-08-03 20:58:10,-Infinity
0.63206923,0.1436521,10.1226845,0.010145526,-0.030906446,0.006908996,81.0,0.058798447,0.0142526645,0.9981681,0.0054678284,3.0166097E-4,0.034773886,0.01879407,-0.022709671,0.44493675,2017-08-03 20:58:11,-Infinity
0.58418524,0.15322891,10.0269165,0.013201859,0.004363527,-0.016974498,81.0,0.060972854,0.013771024,0.99804443,-0.002196513,8.5766334E-4,0.0348742,0.01968703,-0.024192106,0.44025502,2017-08-03 20:58:12,-Infinity
0.5650316,0.11492168,10.151415,-0.0023907532,0.0019444049,-0.0020400255,81.0,0.060029306,0.013478212,0.9981056,0.002563022,-0.0015494861,0.030906796,0.019468589,-0.024462841,0.4405945,2017-08-03 20:58:13,-Infinity
0.58418524,0.15322891,10.199299,0.0029321718,0.012666144,-0.012848171,81.0,0.05898625,0.012848076,0.9981761,6.5935776E-4,0.0026681833,0.042568147,0.018981446,-0.023584858,0.44004267,2017-08-03 20:58:14,-Infinity
0.5650316,0.16280572,10.141838,-0.012139879,-0.0108539015,0.02888936,81.0,0.059951626,0.0145119885,0.9980958,0.0045357384,-0.0018149624,0.0358091,0.019558316,-0.023614533,0.43980405,2017-08-03 20:58:15,-Infinity
0.59376204,0.10534488,10.141838,-8.130721E-4,-0.011560643,0.016919687,81.0,0.058973182,0.01325652,0.99817157,0.001496952,-0.0023574103,0.03671491,0.019019479,-0.0230574,0.44423947,2017-08-03 20:58:16,-Infinity
0.60333884,0.15322891,10.0748005,0.0072698216,0.0062696147,-0.017996471,81.0,0.059606664,0.014497992,0.9981167,9.2477724E-4,0.0011765752,0.039699197,0.019721065,-0.023156067,0.43932983,2017-08-03 20:58:17,-Infinity
0.59376204,0.12449849,10.151415,0.0038234624,0.003278794,-0.011025754,81.0,0.061211992,0.013132085,0.99803835,3.6788732E-4,-0.0013464065,0.039772987,0.019035924,-0.024280641,0.43782145,2017-08-03 20:58:18,-Infinity
0.60333884,0.15322891,10.1226845,0.008723758,-0.00744577,-0.0017509705,81.0,0.059795067,0.012944188,0.9981268,-0.0012112446,-0.004931868,0.029914618,0.018723771,-0.023865605,0.4360743,2017-08-03 20:58:19,-Infinity
0.58418524,0.15322891,10.1226845,-4.3176772E-4,0.006674577,-0.010029726,81.0,0.058078695,0.011018409,0.99825114,0.001535885,0.0036788909,0.04151565,0.018138433,-0.023808092,0.4391382,2017-08-03 20:58:20,-Infinity
0.545878,0.1436521,10.103531,0.00758827,0.003490793,-0.0038700001,81.0,0.057450797,0.01421803,0.9982471,0.0030949898,0.0031382684,0.036640227,0.01873531,-0.022947272,0.439593,2017-08-03 20:58:21,-Infinity
0.63206923,0.1340753,10.141838,0.016323108,-0.01068272,-0.007058632,81.0,0.0602761,0.014297253,0.9980794,0.0021406338,-0.0024633147,0.03778535,0.019015953,-0.023708995,0.4401374,2017-08-03 20:58:22,-Infinity
0.58418524,0.17238252,10.199299,-0.01200912,0.0036381907,0.0029515575,81.0,0.05962054,0.014503004,0.9981157,0.0038220696,-6.9924165E-4,0.034814,0.019941224,-0.02377145,0.4397692,2017-08-03 20:58:23,-Infinity
0.545878,0.10534488,10.113108,-0.012435766,-0.0010299061,0.016206503,81.0,0.05946891,0.015956862,0.9981026,0.0029839985,-0.0022220425,0.042646646,0.019883975,-0.02299819,0.43911102,2017-08-03 20:58:24,-Infinity
0.63206923,0.11492168,10.103531,-0.017894536,-0.011706749,0.039041292,81.0,0.05909642,0.014145532,0.998152,0.005369868,4.5029353E-4,0.029891491,0.019280542,-0.023558306,0.43988255,2017-08-03 20:58:25,-Infinity
0.62249243,0.095768064,10.1226845,0.022029288,-0.008968034,0.009113689,81.0,0.057981584,0.015418904,0.99819857,0.0014640689,0.0012182845,0.034737587,0.019191457,-0.022529498,0.43901262,2017-08-03 20:58:26,-Infinity
0.61291564,0.1340753,10.151415,-0.006759463,-0.008864152,0.02081554,81.0,0.05849226,0.013382225,0.9981982,0.0030380823,-6.476678E-4,0.033753276,0.018843958,-0.022785006,0.43939844,2017-08-03 20:58:27,-Infinity
0.5554548,0.1436521,10.103531,0.012645157,0.014892281,-0.03662297,81.0,0.059029747,0.0132388305,0.99816835,7.376E-4,0.0013907449,0.03768134,0.018970449,-0.023685731,0.44013742,2017-08-03 20:58:28,-Infinity
0.58418524,0.1340753,10.1226845,-0.0021968232,0.013682476,-0.010533345,80.0,0.0572104,0.014424662,0.9982579,0.0014388748,3.5972055E-4,0.036620855,0.019140532,-0.022959605,0.43941677,2017-08-03 20:58:29,-Infinity
0.61291564,0.095768064,10.141838,-0.027879398,-0.020055078,0.064032786,81.0,0.05555835,0.013971597,0.99835765,0.005048398,-0.0022841292,0.040432155,0.018535001,-0.022586966,0.43936452,2017-08-03 20:58:30,-Infinity
0.62249243,0.19153613,10.0748005,-0.006117706,-0.004841258,0.012529152,81.0,0.058144048,0.014175991,0.99820757,0.0015305914,-3.684694E-4,0.035691142,0.019336494,-0.022757523,0.43914807,2017-08-03 20:58:31,-Infinity
0.59376204,0.15322891,10.103531,0.0030830516,0.016858947,-0.0224541,81.0,0.060238026,0.014593156,0.9980773,4.714541E-4,0.0010466585,0.032887757,0.019923283,-0.023933878,0.43991992,2017-08-03 20:58:32,-Infinity
0.61291564,0.10534488,10.1226845,0.028683823,0.0011058417,-0.019959155,81.0,0.057304345,0.015433023,0.9982375,-0.0015744306,-0.0017599007,0.035665274,0.01908752,-0.022428406,0.43880767,2017-08-03 20:58:33,-Infinity
0.60333884,0.1436521,10.141838,-0.0055894163,-0.010980528,0.019450998,81.0,0.0583564,0.01602711,0.9981671,0.0022033677,-0.0013447218,0.038670063,0.019744094,-0.02263705,0.43869478,2017-08-03 20:58:34,-Infinity
0.5650316,0.15322891,10.093954,-0.03685593,0.024121769,0.0018481934,81.0,0.056384422,0.013140131,0.99832267,0.0015190579,-3.4028012E-4,0.03556639,0.019140922,-0.023492431,0.43971232,2017-08-03 20:58:35,-Infinity
0.5746084,0.1340753,10.141838,-0.010919158,0.018727882,-0.007605078,81.0,0.056717284,0.014285438,0.99828804,1.3842061E-4,0.00227327,0.03072071,0.01938229,-0.023874968,0.43993726,2017-08-03 20:58:36,-Infinity
0.63206923,0.1340753,10.141838,-0.003536345,-0.0065170024,0.012456817,81.0,0.059697345,0.01355614,0.9981245,0.0028694682,8.070841E-6,0.03284812,0.018754786,-0.02414309,0.44045588,2017-08-03 20:58:37,-Infinity
0.60333884,0.15322891,10.151415,-0.0010314499,-0.012993417,0.016972626,81.0,0.061673805,0.013570649,0.9980041,8.779466E-4,1.6328879E-5,0.033946395,0.01941417,-0.024376191,0.4459386,2017-08-03 20:58:38,-Infinity
0.61291564,0.15322891,10.151415,-0.015240806,0.011898152,-0.15969011,82.0,0.058453914,0.013146431,0.9982036,0.0021322258,-0.0013904516,0.03179151,0.018810319,-0.023074519,0.44470352,2017-08-03 20:58:39,-Infinity
0.5554548,0.1340753,10.141838,-0.0042966595,0.014987565,-0.0012837576,81.0,0.060530275,0.013342201,0.9980772,-0.0037252381,4.9917307E-4,0.036794543,0.019644978,-0.024320193,0.44020545,2017-08-03 20:58:40,-Infinity
0.59376204,0.1436521,10.093954,-8.137665E-4,0.018209679,-0.01589178,82.0,0.06012504,0.01449917,0.9980855,-0.0023675375,-0.0018001664,0.036789894,0.019238763,-0.023883082,0.44000947,2017-08-03 20:58:41,-Infinity
0.5267244,0.16280572,10.093954,-0.043130998,0.0028804885,0.021269329,82.0,0.05893641,0.013676883,0.998168,8.2759187E-4,-0.00280374,0.03377098,0.019638529,-0.023182435,0.44479263,2017-08-03 20:58:42,-Infinity
0.61291564,0.08619126,10.228029,-0.015722727,-0.030535417,0.048236858,81.0,0.058404025,0.01524914,0.9981765,0.005978547,-0.002490743,0.037687898,0.019620312,-0.023087109,0.44359335,2017-08-03 20:58:44,-Infinity
0.61291564,0.11492168,10.170568,-0.004391936,0.006630672,0.0015108413,81.0,0.059407793,0.015221886,0.99811774,0.0040382,0.0023190686,0.040677726,0.020111246,-0.023356296,0.4391551,2017-08-03 20:58:45,-Infinity
0.5650316,0.15322891,10.103531,0.009705268,-0.002255432,-0.013699778,81.0,0.05966352,0.013166398,0.99813163,0.0036688298,-3.0574854E-4,0.033827186,0.019091034,-0.023349918,0.43961114,2017-08-03 20:58:46,-Infinity
0.59376204,0.12449849,10.151415,0.019906703,0.0107046,-0.039678648,81.0,0.060708348,0.012927346,0.9980718,-0.003936898,0.0027472656,0.03875792,0.019306416,-0.024136608,0.4402007,2017-08-03 20:58:47,-Infinity
0.62249243,0.11492168,10.170568,0.04155746,-0.008088811,-0.007746192,81.0,0.06067791,0.012811507,0.9980752,0.0036412403,0.00374801,0.039749384,0.018768288,-0.023681957,0.44004658,2017-08-03 20:58:48,-Infinity
0.60333884,0.15322891,10.141838,0.011191638,0.009190815,-0.02726346,81.0,0.05859688,0.014283283,0.9981795,-0.0027854182,3.9856974E-4,0.034740627,0.019174367,-0.023481645,0.43968937,2017-08-03 20:58:49,-Infinity
0.59376204,0.1436521,10.113108,0.010286057,-0.011749139,1.02885766E-4,81.0,0.05774085,0.013143191,0.99824506,0.0038227886,-4.8803817E-4,0.034682512,0.018421296,-0.023175042,0.4397636,2017-08-03 20:58:50,-Infinity
0.61291564,0.12449849,10.141838,0.0013098964,0.005842404,-0.010016134,81.0,0.05976683,0.0135806305,0.99811995,0.0028098486,-0.0018617483,0.035782278,0.019473948,-0.024275733,0.44024476,2017-08-03 20:58:51,-Infinity
0.60333884,0.095768064,10.247183,-0.003487987,-0.0024230685,0.0052178954,80.0,0.05964776,0.014556145,0.9981134,8.7664276E-4,-9.798286E-4,0.034818947,0.018983405,-0.02338722,0.43969333,2017-08-03 20:58:52,-Infinity
0.5746084,0.1436521,10.160992,0.0010964334,0.0058273925,-0.0033864053,82.0,0.058889154,0.013382708,0.9981749,8.0922246E-4,-6.5291114E-4,0.034746528,0.019289428,-0.023534575,0.43968192,2017-08-03 20:58:53,-Infinity
0.58418524,0.1436521,10.160992,-0.022403114,-0.014552689,0.04706735,82.0,0.05648741,0.014640715,0.998296,0.0059545934,-0.003782807,0.034635067,0.018990861,-0.022418106,0.43884015,2017-08-03 20:58:54,-Infinity
0.63206923,0.1436521,10.084377,9.0286264E-4,0.023384146,-0.031813286,80.0,0.05918957,0.0123489965,0.99817044,5.4571405E-4,-4.3930672E-4,0.033769786,0.01901948,-0.02424072,0.44042087,2017-08-03 20:58:55,-Infinity
0.5554548,0.1436521,10.170568,0.013083268,-0.012167147,-0.0046180803,81.0,0.06119777,0.014565042,0.9980194,-0.001600083,-8.524945E-4,0.036862373,0.01951064,-0.024221653,0.44036278,2017-08-03 20:58:56,-Infinity
0.5554548,0.1340753,10.103531,0.0026436714,-7.994473E-5,-0.004033643,80.0,0.06098865,0.013868773,0.9980421,6.956011E-4,0.0045879614,0.035856366,0.019463997,-0.02406241,0.44024396,2017-08-03 20:58:57,-Infinity
0.60333884,0.11492168,10.1226845,-0.018632988,-0.01123317,0.03932915,80.0,0.058002926,0.014305039,0.9982139,0.004493311,-0.0016035037,0.0415563,0.018983014,-0.023098402,0.43961143,2017-08-03 20:58:58,-Infinity
0.5746084,0.15322891,10.141838,-0.015716601,0.021067902,-0.0087737795,81.0,0.058075856,0.014886881,0.9982012,0.0025521368,-2.354933E-4,0.03472352,0.019626765,-0.02356463,0.4397291,2017-08-03 20:58:59,-Infinity
0.59376204,0.16280572,10.1226845,-0.008774096,-0.0022869313,0.013323482,82.0,0.05747189,0.0137667395,0.9982522,0.0030547716,-0.0011291876,0.032724738,0.01874167,-0.023152204,0.4395949,2017-08-03 20:59:00,-Infinity
0.63206923,0.17238252,10.1226845,0.0062048812,0.013798748,-0.02708837,81.0,0.05890553,0.013334829,0.9981744,0.0017273128,-0.001612111,0.0367043,0.019287495,-0.02364039,0.44527742,2017-08-03 20:59:01,-Infinity
0.61291564,0.12449849,10.141838,-0.006441256,-0.0037390026,0.013335051,82.0,0.059957128,0.013999597,0.99810284,0.0045446493,-0.001247216,0.03970939,0.020119768,-0.023775212,0.44508883,2017-08-03 20:59:02,-Infinity
0.61291564,0.16280572,10.160992,-0.0046481136,-0.029078335,0.024192706,81.0,0.060998224,0.016455492,0.99800223,-0.00145429,-0.0016402304,0.041766763,0.02056151,-0.022550322,0.438249,2017-08-03 20:59:03,-Infinity
0.58418524,0.1436521,10.1226845,0.012911139,-0.006200605,-0.020477468,81.0,0.06182227,0.013769834,0.99799216,-0.001214683,0.0056318035,0.03200388,0.01938844,-0.024447303,0.44043335,2017-08-03 20:59:04,-Infinity
0.60333884,0.15322891,10.084377,0.007088683,0.012995388,-0.01941025,81.0,0.059936136,0.012085782,0.99812907,-0.002167631,0.0015087742,0.034792244,0.01887556,-0.024152653,0.44040897,2017-08-03 20:59:05,-Infinity
0.58418524,0.16280572,10.132261,-0.001046563,-0.0020946215,0.0047102896,81.0,0.05989221,0.012246879,0.9981297,-0.0011774078,5.84756E-4,0.035767972,0.018811904,-0.02368825,0.43568963,2017-08-03 20:59:06,-Infinity
0.61291564,0.1340753,10.160992,-0.01212931,-0.062249392,0.06073788,81.0,0.06208966,0.01621941,0.99793875,2.8577074E-4,-4.9452856E-4,0.03695166,0.019777276,-0.022874754,0.43469587,2017-08-03 20:59:07,-Infinity
0.6512229,0.11492168,10.170568,1.4623959E-4,-0.0065482096,0.011029954,81.0,0.060223028,0.012807605,0.9981028,3.8227811E-4,0.0057448214,0.040686727,0.018983012,-0.02327257,0.4397669,2017-08-03 20:59:08,-Infinity
0.62249243,0.15322891,10.132261,0.010327682,0.0064467667,-0.021795548,81.0,0.059708297,0.014854336,0.9981054,0.0019316785,0.0044474127,0.035798013,0.019717662,-0.024446694,0.4404653,2017-08-03 20:59:09,-Infinity
0.61291564,0.08619126,10.132261,0.006353899,0.0021672258,-0.013169056,81.0,0.059288442,0.011283158,0.9981771,-0.0015753992,0.003284634,0.038656414,0.018124873,-0.023735693,0.43643448,2017-08-03 20:59:10,-Infinity
0.5554548,0.16280572,10.093954,0.013913754,-0.015062305,3.4398958E-4,81.0,0.05897381,0.014389537,0.99815583,0.006332796,0.0022593625,0.031848848,0.019394588,-0.023344172,0.43529636,2017-08-03 20:59:11,-Infinity
0.60333884,0.12449849,10.141838,0.021560479,0.0077900365,-0.034194384,81.0,0.05971637,0.0140857715,0.998116,-9.033829E-6,-0.0013629543,0.03480482,0.019192621,-0.023636293,0.4399908,2017-08-03 20:59:12,-Infinity
0.62249243,0.1340753,10.103531,-0.017969226,-0.013781025,0.042060465,81.0,0.061375014,0.0152446525,0.99799836,0.004980717,-0.0016313586,0.03200394,0.019728618,-0.024092734,0.44014767,2017-08-03 20:59:13,-Infinity
0.60333884,0.076614454,10.132261,-0.03358948,0.005009373,0.020512428,81.0,0.058183547,0.014039255,0.9982072,0.003358245,-0.0059259394,0.03569424,0.019391514,-0.023075163,0.4394043,2017-08-03 20:59:14,-Infinity
0.58418524,0.15322891,10.132261,-0.020805947,0.01075449,-0.004793626,81.0,0.058542687,0.013136061,0.99819857,0.0030719861,-0.0012156675,0.032768607,0.019351514,-0.023084203,0.43942922,2017-08-03 20:59:15,-Infinity
0.58418524,0.1436521,10.084377,-0.016336516,0.04142417,-0.009315884,81.0,0.05877275,0.013418175,0.9981812,9.235479E-4,0.0012387587,0.030831814,0.018660795,-0.024055906,0.44059846,2017-08-03 20:59:16,-Infinity
0.61291564,0.15322891,10.160992,-0.034660537,-0.012586841,0.056540295,81.0,0.06114516,0.012667558,0.99804854,0.0032661855,-8.326378E-4,0.03781402,0.019753527,-0.024193954,0.44004568,2017-08-03 20:59:17,-Infinity
0.5746084,0.1340753,10.084377,0.023766533,-0.016651914,5.116393E-4,82.0,0.059244882,0.0131789,0.9981564,-6.4291805E-4,4.9466174E-4,0.030863583,0.018424938,-0.023221614,0.43980137,2017-08-03 20:59:18,-Infinity
0.61291564,0.1436521,10.180145,-0.004070199,-0.01010999,0.13565518,80.0,0.059622396,0.013192996,0.9981338,0.0039962865,4.2582396E-4,0.03576523,0.018904353,-0.024228727,0.44083267,2017-08-03 20:59:19,-Infinity
0.63206923,0.11492168,10.151415,0.014848324,0.004735236,-0.01662093,82.0,0.05975587,0.0138816945,0.9981165,-0.0030087605,-0.0020611426,0.03382784,0.019699516,-0.023218082,0.44479606,2017-08-03 20:59:20,-Infinity
0.59376204,0.11492168,10.084377,0.002919399,0.016356422,-0.026530467,81.0,0.05932784,0.011491459,0.99817246,-0.0014918074,0.0030872878,0.031813204,0.018701475,-0.024255158,0.44057873,2017-08-03 20:59:21,-Infinity
0.58418524,0.17238252,10.208876,0.011872846,-0.017767387,0.005887961,80.0,0.06032506,0.013534435,0.998087,1.3261661E-4,-7.725768E-4,0.032892585,0.019092204,-0.023579488,0.4398109,2017-08-03 20:59:22,-Infinity
0.60333884,0.17238252,10.113108,0.010832483,-0.021771654,0.0025397702,81.0,0.060493868,0.014714662,0.9980601,0.0019429177,8.237837E-4,0.034874618,0.019422611,-0.023630619,0.43970487,2017-08-03 20:59:23,-Infinity
0.61291564,0.11492168,10.084377,0.011978949,-0.017952632,0.0065494254,81.0,0.058210403,0.014128336,0.9982044,0.0070537254,0.0033711707,0.035713315,0.019115604,-0.022752939,0.43907803,2017-08-03 20:59:24,-Infinity
0.60333884,0.12449849,10.170568,0.03467141,4.25408E-4,-0.027609754,81.0,0.059351616,0.014967066,0.9981249,0.002174478,-0.0013002865,0.033827305,0.019291358,-0.023553245,0.4396984,2017-08-03 20:59:25,-Infinity
0.5746084,0.1436521,10.141838,7.0786837E-4,0.029929949,-0.017282693,81.0,0.05993936,0.012277712,0.9981265,-2.3312494E-4,0.0022996608,0.031864047,0.01900106,-0.024213962,0.44040498,2017-08-03 20:59:26,-Infinity
0.641646,0.16280572,10.113108,0.017291859,-0.048498098,0.016401028,81.0,0.05804065,0.011789629,0.9982446,0.0040422976,0.0045918263,0.03764355,0.017787952,-0.022523213,0.43948108,2017-08-03 20:59:27,-Infinity
0.59376204,0.11492168,10.160992,-0.009082123,0.0050845756,0.006066081,80.0,0.05811916,0.014134477,0.9982096,0.0034530163,5.2298233E-4,0.038626015,0.019431047,-0.023404416,0.43950376,2017-08-03 20:59:28,-Infinity
0.5746084,0.11492168,10.170568,-0.009134311,-0.017266499,0.02916536,80.0,0.059437986,0.01391364,0.99813503,0.0011130273,-0.0011809012,0.034793615,0.019252311,-0.023197856,0.4394046,2017-08-03 20:59:29,-Infinity
0.62249243,0.1436521,10.1226845,0.0025705644,-0.019980399,0.006914671,81.0,0.059036907,0.015149631,0.9981408,4.99174E-4,-4.9682613E-4,0.034790516,0.01946897,-0.022825843,0.43898192,2017-08-03 20:59:30,-Infinity
0.59376204,0.15322891,10.084377,-0.0073199505,0.014145849,-6.934954E-5,81.0,0.058514874,0.014127887,0.9981866,0.0077701136,0.0024603046,0.036705017,0.019160762,-0.023056107,0.4393235,2017-08-03 20:59:31,-Infinity
0.60333884,0.1340753,10.1226845,-0.040329263,0.0034337412,0.013208768,83.0,0.060387596,0.013361039,0.9980857,-0.001559522,-0.004424206,0.035804927,0.019503001,-0.024217347,0.43584302,2017-08-03 20:59:32,-Infinity
0.60333884,0.18195933,10.151415,-0.010706463,0.0088130925,-0.008923066,82.0,0.058575913,0.01273698,0.9982017,0.003058631,8.828435E-4,0.03569925,0.018628826,-0.023546917,0.4356477,2017-08-03 20:59:33,-Infinity
0.59376204,0.1340753,10.113108,0.004892641,-0.0043432047,0.005665593,83.0,0.058260523,0.014000106,0.9982032,0.002309572,6.3013565E-4,0.03961128,0.018806357,-0.022808209,0.4349092,2017-08-03 20:59:34,-Infinity
0.60333884,0.1340753,10.113108,0.01277299,0.0023948648,-0.018927949,81.0,0.059737336,0.012462543,0.9981364,0.0018274598,0.0012174342,0.033813536,0.018537413,-0.023980215,0.43607545,2017-08-03 20:59:35,-Infinity
0.61291564,0.18195933,10.113108,0.051236663,-9.780424E-4,-0.025518443,81.0,0.06006221,0.013791697,0.9980993,0.0023849793,0.0045588743,0.033859134,0.01908713,-0.023620212,0.435504,2017-08-03 20:59:36,-Infinity
0.61291564,0.11492168,10.180145,0.0061520194,-0.028915906,0.008496719,81.0,0.060944393,0.016112579,0.9980111,-0.004301537,-0.0043291077,0.041757703,0.0197407,-0.023398686,0.43500882,2017-08-03 20:59:37,-Infinity
0.5746084,0.11492168,10.151415,0.005067231,-0.017940585,0.008864086,81.0,0.05670084,0.0153365955,0.9982734,0.0048036426,9.225402E-5,0.033682942,0.018613622,-0.022732299,0.43492922,2017-08-03 20:59:38,-Infinity
0.61291564,0.12449849,10.055647,0.0016189567,0.0027985403,-0.005438089,81.0,0.059922244,0.015240246,0.99808675,-0.0012406297,4.939325E-4,0.035813093,0.019852476,-0.02333204,0.4348987,2017-08-03 20:59:39,-Infinity
0.5746084,0.17238252,10.132261,-0.010292759,8.042029E-5,0.011254752,81.0,0.0595611,0.014017943,0.99812627,0.0038464665,-0.0021970458,0.03578329,0.019652562,-0.023617687,0.42971912,2017-08-03 20:59:40,-Infinity
0.5650316,0.17238252,10.170568,-0.0046374993,-0.019439545,0.014280482,81.0,0.0572674,0.014638966,0.99825156,0.007940955,1.585856E-5,0.036645353,0.018597603,-0.022802982,0.42946944,2017-08-03 20:59:41,-Infinity
0.59376204,0.16280572,10.103531,-0.004005881,-0.01704137,0.015533185,81.0,0.05961943,0.014590358,0.99811447,9.3763694E-4,-8.776793E-4,0.037745535,0.019527817,-0.023257839,0.43497986,2017-08-03 20:59:42,-Infinity
0.61291564,0.11492168,10.0748005,-0.011029989,-0.026967231,0.044562984,81.0,0.058707062,0.014727215,0.9981667,0.008580282,0.0026814127,0.03574854,0.018994784,-0.02361327,0.43553928,2017-08-03 20:59:43,-Infinity
0.59376204,0.19153613,10.113108,-0.0016662395,-0.0043506967,0.008580934,81.0,0.05881294,0.013972628,0.99817127,7.340312E-4,0.0036257058,0.03573656,0.019270878,-0.023109687,0.43496636,2017-08-03 20:59:44,-Infinity
0.60333884,0.15322891,10.170568,0.013947802,0.0050748587,-0.018190773,81.0,0.058908664,0.013640044,0.9981702,8.0210343E-4,9.541763E-4,0.038660705,0.01871661,-0.023634087,0.4356856,2017-08-03 20:59:45,-Infinity
0.5554548,0.15322891,10.141838,0.0110254735,-0.0037331695,-0.0038927991,82.0,0.05789452,0.013131798,0.99823636,-0.0011207387,0.0014021164,0.03175515,0.018078364,-0.023253355,0.435636,2017-08-03 20:59:46,-Infinity
0.60333884,0.12449849,10.1226845,0.003363217,-0.013105913,0.016472014,81.0,0.05855837,0.014737651,0.99817514,0.0029396415,-0.0019838419,0.034754932,0.01887477,-0.023380848,0.4353882,2017-08-03 20:59:47,-Infinity
0.60333884,0.1340753,10.151415,-0.017505774,-0.010997618,0.036194205,81.0,0.057866894,0.014598563,0.99821746,0.0017994493,-0.0028835516,0.03763807,0.018787334,-0.023544388,0.43557304,2017-08-03 20:59:48,-Infinity
0.5650316,0.11492168,10.160992,0.006463629,0.014885036,-0.020703435,81.0,0.058321267,0.012951835,0.9982139,-5.612336E-4,-0.0011371356,0.03861481,0.018716209,-0.023900233,0.43592045,2017-08-03 20:59:50,-Infinity
0.5554548,0.1436521,10.151415,-0.006417322,-0.0025383474,0.012167724,81.0,0.05816803,0.0122671565,0.9982315,0.0063214228,-0.001363853,0.038603008,0.0182963,-0.024003817,0.43620542,2017-08-03 20:59:51,-Infinity
0.58418524,0.1436521,10.093954,0.023435032,0.010941185,-0.04519631,81.0,0.059948873,0.013948178,0.998104,-0.001167804,0.0017144326,0.037745357,0.019357674,-0.023756715,0.43550098,2017-08-03 20:59:52,-Infinity
0.60333884,0.1436521,10.0269165,0.012577895,0.008589057,-0.026086785,80.0,0.057865087,0.013334127,0.99823534,-0.0010479763,3.4985598E-4,0.03663808,0.0187365,-0.02322899,0.43531537,2017-08-03 20:59:53,-Infinity
0.5746084,0.12449849,10.113108,0.023319282,-0.0051993593,-0.03406605,81.0,0.05877991,0.012516564,0.9981925,0.0046732873,0.0059618326,0.03767109,0.018662792,-0.023925783,0.435968,2017-08-03 20:59:54,-Infinity
0.59376204,0.076614454,10.151415,-0.010321836,0.0046389834,0.0030085498,81.0,0.05920622,0.012941011,0.9981619,0.0033851378,0.0017226478,0.040625513,0.018926805,-0.023746362,0.4356895,2017-08-03 20:59:55,-Infinity
0.6703765,0.1340753,10.141838,-0.005867729,0.0015168028,-0.0019230768,81.0,0.060183644,0.012147417,0.9981134,0.0023293756,6.4243097E-4,0.026996493,0.01903749,-0.024174238,0.43601787,2017-08-03 20:59:56,-Infinity
0.61291564,0.12449849,10.103531,-0.0037548887,0.0017951258,-0.0025912249,81.0,0.05937996,0.01244357,0.9981578,0.0012574568,-6.622579E-4,0.038674414,0.018664388,-0.023681011,0.43575034,2017-08-03 20:59:57,-Infinity
0.5746084,0.15322891,10.189722,0.010745441,-0.0072088656,-9.454179E-4,81.0,0.05972312,0.014918982,0.99810344,0.0037086979,0.0016050339,0.038738966,0.019477388,-0.023751697,0.43544295,2017-08-03 20:59:58,-Infinity
0.61291564,0.1340753,10.113108,-0.0042837188,0.018326953,-0.0018327418,81.0,0.059629854,0.013121711,0.9981343,-0.004770983,-0.0021857172,0.03478217,0.019040233,-0.02361832,0.43552434,2017-08-03 20:59:59,-Infinity
0.61291564,0.1436521,10.170568,3.620026E-5,-0.0017352176,0.0028972721,81.0,0.059401244,0.015015975,0.9981212,3.0761585E-4,-0.0022554193,0.03968513,0.019630183,-0.023366824,0.43503118,2017-08-03 21:00:00,-Infinity
0.60333884,0.17238252,10.141838,0.0076326057,0.0077484213,-0.019137278,80.0,0.060804065,0.014224596,0.9980484,-1.6148388E-4,-4.2027235E-4,0.035850704,0.01940419,-0.02414278,0.43582365,2017-08-03 21:00:01,-Infinity
0.58418524,0.12449849,10.160992,1.0041083E-5,0.008046562,-0.0063986434,81.0,0.055727694,0.0127426395,0.9983647,9.814389E-4,0.0027435077,0.035539687,0.018157318,-0.022700155,0.43510988,2017-08-03 21:00:02,-Infinity
0.59376204,0.10534488,10.0748005,-0.02388532,0.015951185,0.005300474,80.0,0.0597876,0.014690411,0.99810296,-0.0010509789,-0.00269181,0.03579104,0.020184467,-0.023428282,0.4348349,2017-08-03 21:00:03,-Infinity
0.61291564,0.16280572,10.084377,0.013291834,0.005123493,-0.022941051,81.0,0.05799416,0.013745342,0.9982223,6.394908E-4,0.0018620249,0.032750547,0.018964952,-0.023484185,0.4354388,2017-08-03 21:00:04,-Infinity
0.60333884,0.15322891,10.189722,-0.008773908,-6.863667E-5,0.004497677,81.0,0.058036998,0.013623439,0.99822146,0.004331898,-8.282885E-4,0.041554928,0.019010467,-0.023060307,0.43504143,2017-08-03 21:00:05,-Infinity
0.545878,0.15322891,10.160992,-0.011791823,8.54688E-4,0.012185264,81.0,0.058801,0.015562415,0.99814844,-0.0029023662,-0.002680067,0.033787012,0.019628284,-0.023225782,0.43490764,2017-08-03 21:00:06,-Infinity
0.58418524,0.12449849,10.093954,0.019477349,0.016058223,-0.040189356,80.0,0.060371373,0.01386592,0.99807966,-0.0045496784,0.0026869196,0.033863664,0.019515224,-0.023798391,0.43546787,2017-08-03 21:00:07,-Infinity
0.60333884,0.12449849,10.093954,-0.01834673,0.005559114,0.017096214,82.0,0.05882813,0.013651145,0.9981748,8.812472E-4,-9.2408154E-4,0.031814396,0.019512167,-0.023847178,0.43551046,2017-08-03 21:00:08,-Infinity
0.61291564,0.16280572,10.1226845,-0.015511392,-0.018659068,0.039168525,81.0,0.059191775,0.015430828,0.99812734,0.006136533,-0.002705561,0.032853425,0.019101957,-0.02321744,0.43513763,2017-08-03 21:00:09,-Infinity
0.62249243,0.095768064,10.151415,0.011220524,0.0036370198,-0.0120707955,81.0,0.059547722,0.012073032,0.9981524,0.002041962,0.0015752688,0.031841755,0.018608818,-0.024149876,0.43619102,2017-08-03 21:00:10,-Infinity
0.59376204,0.1340753,10.113108,-0.022053376,-0.0041210824,0.028361771,81.0,0.057519313,0.014721002,0.9982359,0.0022036508,8.9084916E-4,0.034684956,0.019377293,-0.023094852,0.43490553,2017-08-03 21:00:11,-Infinity
0.62249243,0.15322891,10.170568,0.0032504553,0.010468181,-0.011842262,81.0,0.057966784,0.012086246,0.99824536,0.0054860264,0.0015711561,0.036640286,0.018337384,-0.02362999,0.43585363,2017-08-03 21:00:12,-Infinity
0.5746084,0.1436521,10.065224,-0.013804492,0.0073560593,0.012616993,81.0,0.05622999,0.01306184,0.99833244,4.7679245E-4,7.210588E-4,0.04240948,0.018540628,-0.022346871,0.4346194,2017-08-03 21:00:13,-Infinity
0.60333884,0.1436521,10.103531,0.005858748,-0.0067449687,0.004857218,80.0,0.05962411,0.012855031,0.99813807,0.006617751,-1.2876E-4,0.033823907,0.019083224,-0.024032356,0.4358712,2017-08-03 21:00:14,-Infinity
0.6607997,0.1436521,10.093954,-0.0094855195,0.023253651,-0.021102965,81.0,0.057941567,0.013238909,0.9982322,8.1020966E-4,0.004362504,0.035664976,0.018959057,-0.02369045,0.4356252,2017-08-03 21:00:15,-Infinity
0.62249243,0.11492168,10.180145,-0.0028084079,0.009846605,-0.006531714,81.0,0.059116848,0.013587308,0.9981586,-0.0023639984,1.8649269E-4,0.037694395,0.019099616,-0.023111943,0.43504614,2017-08-03 21:00:16,-Infinity
0.58418524,0.12449849,10.141838,0.018243987,-0.010875343,-0.0057993745,80.0,0.05997605,0.014161518,0.9980994,0.0044198595,-0.002421978,0.032878995,0.019139364,-0.02377239,0.43561548,2017-08-03 21:00:17,-Infinity
0.58418524,0.1436521,10.1226845,0.0059570284,-0.008554191,5.716395E-4,80.0,0.057850625,0.012211247,0.99825054,0.0016866177,-4.5625027E-4,0.029794216,0.018002786,-0.023024417,0.43081617,2017-08-03 21:00:18,-Infinity
0.5746084,0.10534488,10.141838,-0.013633224,-0.0048887995,0.02241411,80.0,0.05961846,0.014201097,0.9981202,0.0029490106,0.0051404107,0.035785317,0.019353438,-0.023490211,0.429741,2017-08-03 21:00:19,-Infinity
0.641646,0.12449849,10.113108,-0.004170751,-0.008372888,0.019160816,80.0,0.058730766,0.014629019,0.9981666,-0.002864726,-0.0019062962,0.03572762,0.019099616,-0.023024091,0.4349646,2017-08-03 21:00:20,-Infinity
0.62249243,0.17238252,10.180145,-0.002088253,-0.006455127,0.013956394,80.0,0.058852278,0.015829142,0.99814117,0.004589714,0.0016723815,0.040655136,0.019676432,-0.023150273,0.43481657,2017-08-03 21:00:21,-Infinity
0.62249243,0.11492168,10.151415,-0.0024972926,5.167988E-4,0.0045155687,80.0,0.057486393,0.014222868,0.99824494,0.0012966171,0.003310877,0.036628723,0.019140145,-0.023507018,0.43537816,2017-08-03 21:00:22,-Infinity
0.62249243,0.08619126,10.055647,-0.02109219,0.0023624257,-0.1337732,82.0,0.059730344,0.013037193,0.9981295,0.0036009774,-0.004197865,0.027967751,0.018793676,-0.023506382,0.43515897,2017-08-03 21:00:23,-Infinity
0.5746084,0.08619126,10.151415,0.006556315,-0.016240783,0.020604055,81.0,0.058184657,0.016777074,0.99816483,0.0032759234,-0.002112642,0.0269503,0.019529343,-0.022519574,0.4288043,2017-08-03 21:00:24,-Infinity
0.59376204,0.12449849,10.103531,-0.017298197,-0.023681048,0.079819925,81.0,0.05685568,0.014770734,0.99827313,0.005563263,-0.0020125387,0.031728387,0.018853048,-0.022528175,0.42914006,2017-08-03 21:00:25,-Infinity
0.61291564,0.15322891,10.132261,-0.002986748,-0.0063103684,0.011911618,80.0,0.05831643,0.014433946,0.9981938,0.0013346225,-0.0018256968,0.032777727,0.018796846,-0.022992358,0.43507823,2017-08-03 21:00:26,-Infinity
0.5746084,0.12449849,10.093954,0.031919856,-0.013378813,0.0013928693,80.0,0.05981422,0.014697804,0.9981013,0.003645599,-0.0038745664,0.035805404,0.018799622,-0.023482597,0.43551382,2017-08-03 21:00:27,-Infinity
0.61291564,0.1340753,10.141838,0.03343372,0.0020012916,-0.029253352,80.0,0.060552284,0.015242654,0.99804866,0.0010734983,0.0012389002,0.03194499,0.019391129,-0.02413105,0.43581575,2017-08-03 21:00:28,-Infinity
0.5363012,0.16280572,10.103531,0.015182398,0.013026387,-0.037822787,80.0,0.05730657,0.012429976,0.9982793,0.0024644025,0.001191183,0.03854823,0.018118296,-0.023611696,0.43593955,2017-08-03 21:00:29,-Infinity
0.58418524,0.15322891,10.084377,-0.021285795,0.024934268,-0.16947529,80.0,0.059086088,0.013223256,0.99816537,0.0014537908,-0.0013407553,0.032807946,0.018940184,-0.0241051,0.43562517,2017-08-03 21:00:30,-Infinity
0.545878,0.15322891,10.103531,-0.014246289,0.012843511,-0.007954369,80.0,0.05847911,0.012651569,0.99820846,0.0021432303,0.004012645,0.04644257,0.018868849,-0.023588015,0.43004405,2017-08-03 21:00:31,-Infinity
0.59376204,0.1436521,10.0748005,-8.033981E-4,0.0039437157,-0.0101149455,80.0,0.059450906,0.014488186,0.99812615,0.0031547062,0.0010563349,0.034798384,0.019498415,-0.023687303,0.43512496,2017-08-03 21:00:32,-Infinity
0.58418524,0.1340753,10.1226845,-0.002939986,0.0109859295,-0.016952151,80.0,0.060669146,0.0130438525,0.9980727,-0.00286128,0.0017105779,0.034843743,0.019589148,-0.024123639,0.435721,2017-08-03 21:00:33,-Infinity
0.5554548,0.1436521,10.160992,0.0011723379,-0.004440672,0.0049335007,80.0,0.05804723,0.015497237,0.99819356,0.0025063232,-0.0046112183,0.0327788,0.01944523,-0.022933304,0.43473136,2017-08-03 21:00:34,-Infinity
0.59376204,0.1340753,10.141838,0.014848126,0.0018883811,-0.015435862,80.0,0.059151195,0.013483299,0.9981579,0.0025292635,0.0020652143,0.03867227,0.018831694,-0.023469586,0.43548554,2017-08-03 21:00:35,-Infinity
0.5746084,0.1340753,10.180145,-0.011244687,0.016730724,0.005873427,80.0,0.059116296,0.013754007,0.9981563,-0.0032045357,-0.002728302,0.041594982,0.019611195,-0.02327417,0.43495753,2017-08-03 21:00:37,-Infinity
0.59376204,0.17238252,10.189722,-0.0070429062,-0.0068313573,0.016511172,80.0,0.057926785,0.013026841,0.9982358,0.002528306,-2.7522724E-4,0.026880443,0.018497176,-0.022879312,0.4351138,2017-08-03 21:00:38,-Infinity
0.58418524,0.1340753,10.0748005,-0.0021036095,0.021910766,-0.01683618,80.0,0.059738185,0.014696972,0.99810594,-0.0038497373,-0.0010182867,0.035787225,0.019394204,-0.023824675,0.43554527,2017-08-03 21:00:39,-Infinity
0.60333884,0.15322891,10.113108,-0.0021758606,-0.0053665545,0.0074977987,80.0,0.059102483,0.014849054,0.99814147,0.0023737364,7.8267045E-4,0.033813655,0.019352283,-0.02338945,0.42965454,2017-08-03 21:00:40,-Infinity
0.58418524,0.1436521,10.103531,-0.007762988,-0.0040145293,0.013393158,80.0,0.05911804,0.014301695,0.9981485,0.003267184,-5.963631E-4,0.03283292,0.019400349,-0.023453388,0.4296864,2017-08-03 21:00:41,-Infinity
0.5746084,0.095768064,10.141838,-0.023187947,0.0015761326,0.026944378,80.0,0.058649514,0.013857417,0.9981824,0.0019527003,0.0018501794,0.033765495,0.019552981,-0.023407917,0.43510336,2017-08-03 21:00:42,-Infinity
0.5746084,0.17238252,10.113108,0.0030106846,0.005886675,-0.011774483,80.0,0.059527095,0.0132944435,0.9981382,1.14735216E-4,0.0013985503,0.034786463,0.019196117,-0.02386623,0.43567252,2017-08-03 21:00:43,-Infinity
0.62249243,0.095768064,10.1226845,-0.0267924,-4.8359396E-4,0.025930723,81.0,0.059471868,0.013586839,0.9981375,-6.229244E-4,6.588176E-6,0.03966397,0.019306801,-0.023856862,0.4354254,2017-08-03 21:00:44,-Infinity
0.641646,0.1340753,10.141838,0.0024304157,0.005075791,-0.0101159075,81.0,0.057256903,0.013192707,0.9982723,0.0041490607,0.0015274705,0.027822435,0.018550673,-0.023112267,0.4351148,2017-08-03 21:00:45,-Infinity
0.61291564,0.08619126,10.113108,-0.03392384,-0.029899873,-0.06596382,81.0,0.05859749,0.014292647,0.9981793,9.389259E-4,-0.0015233587,0.037682712,0.01918641,-0.02291803,0.43354645,2017-08-03 21:00:46,-Infinity
0.59376204,0.1340753,10.113108,-0.0447646,-0.0016693911,0.033836666,81.0,0.058108397,0.013393117,0.99822044,0.005436316,0.0032621482,0.036659002,0.019004198,-0.02320974,0.42946848,2017-08-03 21:00:47,-Infinity
0.61291564,0.08619126,10.0748005,-1.4074054E-4,0.010350325,-0.010959038,81.0,0.05810634,0.013448455,0.9982198,0.0025089607,3.484534E-4,0.032749474,0.018763918,-0.023209415,0.42957255,2017-08-03 21:00:48,-Infinity
0.61291564,0.17238252,10.132261,0.035758168,-0.0073605655,-0.009408987,81.0,0.057195716,0.013820669,0.99826735,0.005198829,0.003547364,0.02783066,0.01820772,-0.023072258,0.4297004,2017-08-03 21:00:49,-Infinity
0.58418524,0.1340753,10.218452,-0.029086651,-0.007929575,0.042579032,81.0,0.056099337,0.012698868,0.9983445,0.0044569597,-0.0026803408,0.035558462,0.018159779,-0.022557259,0.4348037,2017-08-03 21:00:50,-Infinity
0.63206923,0.16280572,10.113108,0.04693292,-0.0080423225,-0.018430404,81.0,0.0595869,0.013351932,0.99813384,0.0018708892,0.004090394,0.027961016,0.018736899,-0.023679754,0.4344132,2017-08-03 21:00:51,-Infinity
0.63206923,0.16280572,10.132261,0.02435873,0.022146124,-0.06069877,80.0,0.059113186,0.014030147,0.99815273,-3.0934066E-4,0.0043190857,0.032812774,0.01923799,-0.024106648,0.4301462,2017-08-03 21:00:52,-Infinity
0.60333884,0.1436521,10.180145,-0.035301242,-0.01328267,0.05390875,80.0,0.058976855,0.014410909,0.99815536,0.0073603764,-0.0054107383,0.032821,0.019308345,-0.0234753,0.42956498,2017-08-03 21:00:53,-Infinity
0.58418524,0.12449849,10.160992,0.053730287,-6.682185E-4,-0.019791689,80.0,0.058836766,0.014572326,0.99816126,-2.5902689E-4,-9.948444E-4,0.040633917,0.018694304,-0.023489261,0.42984813,2017-08-03 21:00:54,-Infinity
0.5650316,0.12449849,10.0748005,0.053235445,-0.0012016519,-0.027952673,81.0,0.05654461,0.01344903,0.9983095,0.0048170276,9.9320896E-5,0.03169918,0.017415032,-0.0228741,0.42987642,2017-08-03 21:00:55,-Infinity
0.60333884,0.16280572,10.151415,-0.008062975,0.003009446,-0.004824136,81.0,0.059800155,0.012968672,0.99812615,0.0029028766,7.1467273E-4,0.02990514,0.019189129,-0.024606483,0.43613333,2017-08-03 21:00:56,-Infinity
0.5746084,0.1436521,10.141838,-0.005513056,0.029775519,-0.009853237,80.0,0.057458844,0.014131846,0.9982478,3.2496452E-4,5.847113E-4,0.026853204,0.019087128,-0.023603171,0.4353023,2017-08-03 21:00:57,-Infinity
0.59376204,0.11492168,10.1226845,0.030680548,-0.003968009,-0.010115459,81.0,0.060158,0.013418009,0.9980987,0.0071634315,0.004965121,0.0377689,0.018981835,-0.02410201,0.4302557,2017-08-03 21:00:58,-Infinity
0.59376204,0.15322891,10.132261,0.030327786,-0.022386776,-0.0010157933,81.0,0.06089099,0.01477035,0.9980352,4.7527626E-4,0.0017802892,0.040768266,0.019124568,-0.023586122,0.4297431,2017-08-03 21:00:59,-Infinity
0.58418524,0.11492168,10.0748005,-0.0057500903,0.0034051444,-0.0013506119,81.0,0.058462698,0.014485222,0.99818444,0.0012288503,0.003049654,0.032783985,0.01929715,-0.023206206,0.42933562,2017-08-03 21:01:00,-Infinity
0.60333884,0.11492168,10.180145,-0.060228072,0.010097812,0.15226002,80.0,0.057431825,0.014538839,0.9982436,3.9920956E-4,2.1826848E-4,0.037603557,0.019758806,-0.023197213,0.43022445,2017-08-03 21:01:01,-Infinity
0.6512229,0.11492168,10.160992,-0.024570398,0.009650855,0.0012945989,81.0,0.059022997,0.014017178,0.9981582,-0.0011632144,-0.001254309,0.03182429,0.01959257,-0.023798702,0.4352479,2017-08-03 21:01:02,-Infinity
0.5746084,0.1340753,10.151415,0.005091859,-0.009883038,0.015273247,80.0,0.060279462,0.012915715,0.99809796,0.0031484365,0.0018094182,0.038742602,0.018863715,-0.023542171,0.435352,2017-08-03 21:01:03,-Infinity
0.62249243,0.29688102,10.113108,0.0053540766,-6.524499E-4,-9.837194E-4,81.0,0.05814276,0.014754162,0.9981992,0.0043551438,0.001791249,0.037662983,0.019171258,-0.023163466,0.43488017,2017-08-03 21:01:04,-Infinity
0.5746084,0.1436521,10.141838,-0.024009787,0.008086613,0.018615644,81.0,0.058104187,0.014591559,0.9982039,5.331524E-4,-0.0026726266,0.038629055,0.019662037,-0.023048349,0.43455967,2017-08-03 21:01:05,-Infinity
0.63206923,0.1436521,10.160992,0.02963533,0.011397978,-0.045300324,81.0,0.060242936,0.015805641,0.9980587,-4.8033893E-4,0.0026709996,0.032906175,0.019685896,-0.024103556,0.42994526,2017-08-03 21:01:06,-Infinity
0.58418524,0.15322891,10.103531,0.02243061,-0.006750987,-0.00811972,81.0,0.060127426,0.014325021,0.99808794,0.0022441596,0.0031197304,0.039737523,0.019114435,-0.02343909,0.4296182,2017-08-03 21:01:07,-Infinity
0.60333884,0.1436521,10.1226845,-0.04863867,0.028803822,0.004836417,81.0,0.057166062,0.015034879,0.9982515,0.00446615,-1.5090499E-4,0.034668207,0.020002406,-0.023119358,0.42894858,2017-08-03 21:01:08,-Infinity
0.59376204,0.1340753,10.151415,-0.005061493,0.014635063,-0.0038244699,81.0,0.05914222,0.013377816,0.99816,0.0033271238,0.0012902133,0.035748422,0.018995568,-0.023924224,0.43009448,2017-08-03 21:01:09,-Infinity
0.62249243,0.1436521,10.065224,-0.018746473,0.009332879,0.005321694,81.0,0.057615694,0.012225968,0.998264,0.0010986552,-4.738383E-4,0.030749083,0.018389316,-0.024011575,0.43043867,2017-08-03 21:01:10,-Infinity
0.545878,0.1436521,10.151415,0.04229226,0.015207109,-0.06975241,81.0,0.06109603,0.011206096,0.9980689,4.3280423E-4,0.004340428,0.036815763,0.017696409,-0.024532795,0.43119752,2017-08-03 21:01:11,-Infinity
0.545878,0.16280572,10.141838,0.009470837,0.01562845,-0.03289123,81.0,0.05938717,0.013380063,0.9981453,3.8908422E-4,2.7187914E-4,0.030863285,0.019082054,-0.02419457,0.43029213,2017-08-03 21:01:12,-Infinity
0.58418524,0.1340753,10.093954,-7.442802E-4,-0.0070351106,0.007280554,81.0,0.059893515,0.012280468,0.99812925,0.0036927424,4.2367075E-4,0.034793675,0.018676758,-0.024524592,0.43075904,2017-08-03 21:01:13,-Infinity
0.58418524,0.1340753,10.151415,-3.891653E-4,-0.018427612,0.01369925,80.0,0.057926003,0.012775369,0.9982391,0.0026292205,-1.4885329E-5,0.037620723,0.01793229,-0.023507966,0.43020105,2017-08-03 21:01:14,-Infinity
0.62249243,0.11492168,10.084377,-0.014791828,-0.0063039297,0.02681739,81.0,0.058130153,0.012681236,0.99822843,0.0024666674,-8.578794E-4,0.036651313,0.018421298,-0.023353746,0.4298503,2017-08-03 21:01:15,-Infinity
0.60333884,0.16280572,10.141838,0.017374419,-0.013063325,-0.005721206,81.0,0.059655678,0.01138229,0.99815416,0.008576322,0.0068901842,0.039672792,0.017776221,-0.024174238,0.43085265,2017-08-03 21:01:16,-Infinity
0.62249243,0.16280572,10.132261,-0.008939683,-0.0141820535,0.023993284,80.0,0.057969715,0.013689695,0.9982245,0.006485909,-0.0019432688,0.038613558,0.018758755,-0.02355451,0.42987582,2017-08-03 21:01:17,-Infinity
0.59376204,0.12449849,10.170568,0.020956106,-0.011658598,-4.611956E-5,81.0,0.05914997,0.0129616605,0.99816495,0.001408074,-2.6614964E-4,0.039650023,0.018050315,-0.023681326,0.43030015,2017-08-03 21:01:18,-Infinity
0.62249243,0.1340753,10.160992,5.009389E-4,-0.002984413,0.0021855668,81.0,0.058603626,0.013305574,0.9981926,0.008562677,3.3821817E-4,0.043545187,0.018712627,-0.023533624,0.42987883,2017-08-03 21:01:19,-Infinity
0.61291564,0.15322891,10.170568,0.0014147598,-0.0020596106,0.0061565433,81.0,0.059279628,0.012601746,0.99816185,0.005976096,0.001120463,0.039663613,0.018890554,-0.024084693,0.43028036,2017-08-03 21:01:20,-Infinity
0.61291564,0.11492168,10.160992,-0.014598275,0.0033655101,0.00770484,81.0,0.058382567,0.013847502,0.9981983,0.0041843913,-0.0020409347,0.04058957,0.019099616,-0.023663701,0.42982277,2017-08-03 21:01:21,-Infinity
0.63206923,0.15322891,10.151415,-0.025651932,-0.0070836293,0.039923616,81.0,0.058326665,0.015549932,0.9981764,0.0041928254,-0.0026628328,0.033771813,0.019691193,-0.023191111,0.4346717,2017-08-03 21:01:22,-Infinity
0.59376204,0.20111294,10.132261,7.610164E-4,-0.011182066,0.006942621,81.0,0.059187777,0.014582231,0.99814034,0.0015019141,9.898031E-4,0.03282702,0.019246895,-0.023326613,0.43498966,2017-08-03 21:01:23,-Infinity
0.60333884,0.1340753,10.170568,-0.019337647,0.0045697945,0.008273344,80.0,0.05877447,0.013479039,0.9981803,0.0020114928,0.002076814,0.03864503,0.019305257,-0.02391675,0.43548092,2017-08-03 21:01:24,-Infinity
0.61291564,0.1340753,10.141838,-0.0051563764,0.0016468251,0.002814849,81.0,0.05937682,0.012297491,0.9981599,0.0013219155,-0.0023760367,0.035735965,0.018546656,-0.023726275,0.43565577,2017-08-03 21:01:25,-Infinity
0.60333884,0.08619126,10.113108,-0.044495426,-0.0110239405,0.06676472,80.0,0.058796935,0.014292062,0.9981677,0.004636012,-0.0061737197,0.036714733,0.019430282,-0.023047056,0.43466312,2017-08-03 21:01:27,-Infinity
0.61291564,0.10534488,10.141838,-0.0134655945,-0.020775659,-0.10091864,81.0,0.05732426,0.014589528,0.998249,0.0069400184,-0.004553983,0.03859645,0.018862134,-0.022552304,0.43337005,2017-08-03 21:01:28,-Infinity
0.60333884,0.1436521,10.141838,0.0118498225,-0.005705866,-0.006245139,81.0,0.059177093,0.014592475,0.9981408,-0.0014594346,-9.4055664E-4,0.03869182,0.018819032,-0.023470856,0.429779,2017-08-03 21:01:29,-Infinity
0.63206923,0.18195933,10.0748005,0.0322472,0.019806983,-0.06329264,81.0,0.057123423,0.013345612,0.99827796,0.001613427,0.014470632,0.03855914,0.018144593,-0.023718107,0.43029022,2017-08-03 21:01:30,-Infinity
0.60333884,0.15322891,10.103531,-0.01549651,-0.013903959,0.03937879,81.0,0.059092585,0.013305803,0.9981639,0.0032976307,0.003195351,0.03965974,0.019174756,-0.023215193,0.42939636,2017-08-03 21:01:31,-Infinity
0.641646,0.1436521,10.093954,-6.476743E-4,-0.021918517,0.018898286,81.0,0.058278628,0.013046474,0.99821514,0.0051607825,0.0015882598,0.039602876,0.018539824,-0.023520958,0.42994365,2017-08-03 21:01:32,-Infinity
0.5554548,0.1340753,10.141838,0.024218936,0.03333225,-0.07297211,81.0,0.058403924,0.0121112075,0.99821955,4.0744245E-4,0.0053900043,0.03958422,0.018089075,-0.024591943,0.4310768,2017-08-03 21:01:33,-Infinity
0.59376204,0.1436521,10.093954,-0.0036106505,-0.016996477,0.015418043,81.0,0.056535773,0.01315828,0.9983139,0.0058535114,0.0013753623,0.033646166,0.018047426,-0.022746388,0.42948535,2017-08-03 21:01:34,-Infinity
0.61291564,0.1436521,10.093954,0.014053153,-0.019935424,0.0030395384,81.0,0.058304984,0.01356388,0.9982067,0.0051154047,0.004793589,0.027888417,0.018552277,-0.023567475,0.42997938,2017-08-03 21:01:35,-Infinity
0.59376204,0.1436521,10.228029,0.0082296245,-0.005580833,-1.9562205E-4,81.0,0.056481425,0.015623979,0.9982814,0.0013003722,0.0018796567,0.04245764,0.018722976,-0.022724431,0.42916828,2017-08-03 21:01:36,-Infinity
0.59376204,0.12449849,10.160992,-0.002738064,-0.00366594,0.0070714536,81.0,0.058238875,0.01360927,0.9982099,0.0013907142,0.0019701142,0.03764844,0.01882853,-0.023199461,0.42953628,2017-08-03 21:01:37,-Infinity
0.63206923,0.1436521,10.151415,0.007880618,-0.0072723418,0.007974269,81.0,0.059577417,0.01223507,0.99814874,0.0047459155,0.0052494975,0.03967613,0.01837351,-0.023893688,0.4303421,2017-08-03 21:01:38,-Infinity
0.58418524,0.16280572,10.151415,0.014108162,0.01811089,-0.040478807,81.0,0.059981197,0.012233799,0.99812454,0.0034898482,3.9656553E-4,0.03578347,0.01890514,-0.02454949,0.43067837,2017-08-03 21:01:39,-Infinity
0.5746084,0.12449849,10.093954,-0.006416843,-0.018817358,0.018927753,81.0,0.059051104,0.016546799,0.99811786,-4.054457E-4,-0.003732521,0.031875014,0.019654458,-0.023048995,0.42904115,2017-08-03 21:01:40,-Infinity
0.59376204,0.15322891,10.208876,-0.0027667782,-5.1254657E-4,0.0033523692,81.0,0.05948416,0.012888063,0.99814606,0.0048989207,-1.5238207E-4,0.0328328,0.018605215,-0.02384843,0.43020022,2017-08-03 21:01:41,-Infinity
0.60333884,0.16280572,10.160992,0.005716521,0.022962295,-0.020764487,82.0,0.059548344,0.01202875,0.998153,-8.091554E-4,6.2029343E-4,0.04160893,0.018513687,-0.024538867,0.43084198,2017-08-03 21:01:42,-Infinity
0.5650316,0.15322891,10.132261,0.0020725415,-0.0015461885,-0.0048555285,80.0,0.061005063,0.0150789665,0.9980235,0.001565218,-0.003305328,0.04174161,0.01920737,-0.024380472,0.4303976,2017-08-03 21:01:43,-Infinity
0.5650316,0.11492168,10.141838,-9.4899593E-4,0.0032037548,-0.0051752888,81.0,0.057844635,0.011773501,0.9982562,0.0017472766,9.2975143E-4,0.032717347,0.018013543,-0.023776464,0.430401,2017-08-03 21:01:44,-Infinity
0.58418524,0.11492168,10.04607,0.028695013,0.0010203841,-0.03201058,81.0,0.05927244,0.010473935,0.99818695,0.0013133474,-4.6493858E-4,0.041578293,0.01794143,-0.02364953,0.43032068,2017-08-03 21:01:45,-Infinity
0.61291564,0.1340753,10.065224,0.017453969,0.0038166856,-0.018279528,81.0,0.058835413,0.015207755,0.9981518,0.0017106235,3.897259E-4,0.030869246,0.019158041,-0.02358928,0.4297311,2017-08-03 21:01:46,-Infinity
0.59376204,0.15322891,10.113108,0.012428504,0.0017032217,-0.018776756,81.0,0.058190737,0.0121136485,0.998232,4.8359483E-4,-3.2607745E-4,0.03469187,0.017987879,-0.023825923,0.43045473,2017-08-03 21:01:47,-Infinity
0.60333884,0.1340753,10.141838,-0.016608477,-0.017382756,0.044284474,81.0,0.059141614,0.014674981,0.9981417,0.0023180358,-8.7188E-4,0.036744237,0.019123007,-0.023149308,0.42936355,2017-08-03 21:01:48,-Infinity
0.62249243,0.15322891,10.132261,0.0020832093,-0.011325803,-0.00207049,80.0,0.058675766,0.014177879,0.9981764,0.0048497617,4.1627698E-4,0.0337739,0.018890947,-0.023661181,0.42991072,2017-08-03 21:01:49,-Infinity
0.63206923,0.1340753,10.132261,-0.021648096,-0.010245628,0.040680483,81.0,0.057264917,0.01313723,0.99827254,0.0060666203,-4.021488E-4,0.028801441,0.018397013,-0.022719184,0.42930558,2017-08-03 21:01:50,-Infinity
0.60333884,0.15322891,10.199299,0.02454605,-0.006912454,-0.0036158497,81.0,0.05886955,0.015224746,0.99814963,0.004602395,0.0013194187,0.042599082,0.018989686,-0.023800896,0.4299884,2017-08-03 21:01:51,-Infinity
0.5554548,0.1340753,10.151415,-0.025379535,0.0078425165,0.004227906,83.0,0.058243845,0.012822391,0.99822,0.0052423812,8.3880033E-4,0.040572464,0.018807149,-0.023882456,0.43014127,2017-08-03 21:01:52,-Infinity
0.60333884,0.20111294,10.151415,0.014703944,-0.0035026937,-0.0059289746,82.0,0.057385504,0.01360311,0.9982595,0.0059785694,-1.1603348E-5,0.040541112,0.018050728,-0.023558622,0.43019336,2017-08-03 21:01:53,-Infinity
0.63206923,0.18195933,10.113108,0.0126600005,-0.017249845,0.0062250686,80.0,0.061393306,0.015586585,0.9979919,0.0021544807,-1.203455E-5,0.03200257,0.019854354,-0.024092736,0.42986202,2017-08-03 21:01:54,-Infinity
0.641646,0.11492168,10.1226845,-0.00961989,-0.0016600599,0.020138431,80.0,0.057259727,0.012525731,0.9982807,0.0032775663,0.0020450559,0.036604702,0.018413205,-0.023468316,0.42995477,2017-08-03 21:01:55,-Infinity
0.60333884,0.15322891,10.170568,0.0017537279,0.009338699,-0.019546228,82.0,0.058774963,0.010793524,0.99821293,-9.773225E-4,0.005654456,0.044479787,0.01793063,-0.024075411,0.43069562,2017-08-03 21:01:56,-Infinity
0.5746084,0.1436521,10.208876,-0.012230563,-0.013674425,0.033197608,80.0,0.057997074,0.013305485,0.9982281,0.006276753,-0.0015179766,0.042528868,0.018395394,-0.023158964,0.42969295,2017-08-03 21:01:57,-Infinity
0.61291564,0.11492168,10.103531,-0.013574038,-0.016250446,0.034644574,80.0,0.060151223,0.012283797,0.99811363,-3.6624074E-4,-0.0014412245,0.032847166,0.018548666,-0.023919865,0.43028805,2017-08-03 21:01:58,-Infinity
0.5650316,0.15322891,10.151415,0.0012741617,-0.019214267,0.010641989,80.0,0.06065458,0.014448669,0.99805427,-2.214685E-5,0.0011582682,0.03877932,0.019101957,-0.023823734,0.4299582,2017-08-03 21:01:59,-Infinity
0.5746084,0.10534488,10.0748005,-0.020726988,-0.0065504983,0.030283146,81.0,0.05820907,0.014080126,0.9982052,0.00612282,6.1705057E-4,0.043525875,0.01945136,-0.022954088,0.42904836,2017-08-03 21:02:00,-Infinity
0.59376204,0.1436521,10.084377,0.048244145,-0.05248838,0.16830772,81.0,0.05817973,0.016427035,0.99817103,0.005109057,-8.9628436E-4,0.038680196,0.01938575,-0.022868562,0.43544152,2017-08-03 21:02:01,-Infinity
0.61291564,0.15322891,10.04607,-0.020442901,-0.0026839878,0.026046306,81.0,0.05898161,0.013101217,0.99817306,0.0054451823,-0.00415683,0.0367105,0.019271651,-0.023523174,0.44508556,2017-08-03 21:02:02,-Infinity
0.62249243,0.19153613,10.208876,0.0018154944,-0.0099650845,0.009782514,81.0,0.060062367,0.014558585,0.9980885,0.0033634976,-8.4794406E-4,0.043638647,0.019919915,-0.023214873,0.44452366,2017-08-03 21:02:03,-Infinity
0.58418524,0.15322891,10.141838,0.0049752677,0.008077548,-0.013260169,81.0,0.059284944,0.0120156035,0.9981687,0.0023060776,-2.941694E-4,0.042574465,0.01846896,-0.02418687,0.43609345,2017-08-03 21:02:04,-Infinity
0.58418524,0.1436521,10.170568,0.024281047,-0.029020967,0.0024118586,83.0,0.058044527,0.013684319,0.9982202,0.001672186,9.691352E-4,0.038609564,0.018649211,-0.023428597,0.4323338,2017-08-03 21:02:05,-Infinity
0.59376204,0.16280572,10.160992,-0.0070087435,-0.0011404022,0.0038795804,81.0,0.0615994,0.01389653,0.99800414,9.863041E-4,7.6266937E-4,0.030033946,0.019476242,-0.024498148,0.43018988,2017-08-03 21:02:06,-Infinity
0.59376204,0.1436521,10.141838,-0.04199478,-0.0111886095,0.06230605,81.0,0.058594514,0.014432919,0.9981775,0.0019877367,-0.002484166,0.036701143,0.019478535,-0.0234216,0.42926383,2017-08-03 21:02:07,-Infinity
0.62249243,0.1340753,10.132261,-0.0016457173,-0.032796647,0.019274471,81.0,0.0582276,0.014402167,0.99819946,0.005189657,-8.621579E-4,0.036689997,0.018607616,-0.023443857,0.42966315,2017-08-03 21:02:08,-Infinity
0.58418524,0.19153613,10.160992,-0.011424061,-0.0016024635,0.015277252,81.0,0.058272533,0.011135943,0.99823856,0.0032134056,0.0034719305,0.040556908,0.018040821,-0.023639446,0.43007854,2017-08-03 21:02:09,-Infinity
0.59376204,0.1436521,10.084377,0.004365531,0.003430271,-0.010272153,81.0,0.057673626,0.014185038,0.99823475,0.0039252155,0.0013589617,0.038600504,0.018578364,-0.023218082,0.42948157,2017-08-03 21:02:10,-Infinity
0.60333884,0.11492168,10.132261,-0.0025624938,0.0029888018,0.0054526217,82.0,0.058800634,0.014219601,0.99816847,0.0046962947,-0.0043428233,0.037689984,0.01887793,-0.023957523,0.42998707,2017-08-03 21:02:11,-Infinity
0.641646,0.1436521,10.084377,-0.05687869,0.0032861698,0.015548108,81.0,0.05703121,0.013538517,0.99828064,0.0035540834,-7.676473E-4,0.029759526,0.018702671,-0.023494653,0.42966405,2017-08-03 21:02:12,-Infinity
0.59376204,0.15322891,10.103531,0.00313911,0.0030362331,-0.005701047,81.0,0.06010061,0.013051194,0.99810696,4.9177185E-4,0.0015871432,0.036774516,0.019016346,-0.024277573,0.43020123,2017-08-03 21:02:13,-Infinity
0.5650316,0.1340753,10.160992,-0.01180978,-0.0020497725,0.015042791,82.0,0.058994308,0.014264368,0.9981563,0.002596043,-5.5277906E-4,0.032814085,0.01902692,-0.023534257,0.4295588,2017-08-03 21:02:14,-Infinity
0.61291564,0.10534488,10.084377,-0.011469452,-0.009099945,0.028687244,83.0,0.058466487,0.013444148,0.9981989,0.0010596551,3.6267005E-4,0.03375417,0.018672768,-0.023540588,0.4297173,2017-08-03 21:02:15,-Infinity
0.61291564,0.12449849,10.1226845,0.009454528,0.009313451,-0.024225932,82.0,0.06057913,0.014088292,0.99806404,-9.029992E-4,0.0015450856,0.04072249,0.019557556,-0.024309164,0.42999247,2017-08-03 21:02:16,-Infinity
0.60333884,0.095768064,10.237606,-0.013478931,-0.021051712,0.056093168,81.0,0.05573444,0.013536628,0.9983539,0.0057358667,-0.0037934612,0.046305478,0.017819759,-0.022341203,0.42905697,2017-08-03 21:02:17,-Infinity
0.59376204,0.1340753,10.103531,-0.019929811,-0.0016914215,0.025312943,81.0,0.059681803,0.01508289,0.9981035,0.0018218532,-0.0042176656,0.040688753,0.01912963,-0.023422873,0.42941737,2017-08-03 21:02:18,-Infinity
0.58418524,0.15322891,10.160992,0.006480772,0.008808073,-0.018890254,81.0,0.05811405,0.014449337,0.9982054,0.0015392788,0.0011569886,0.03862846,0.018999493,-0.023530459,0.42956665,2017-08-03 21:02:19,-Infinity
0.60333884,0.1436521,10.170568,-0.010686613,0.0033400157,0.0034026988,81.0,0.0566577,0.0137580475,0.9982988,0.0020587742,9.3091093E-4,0.034622908,0.018631225,-0.022782717,0.429084,2017-08-03 21:02:20,-Infinity
0.58418524,0.15322891,10.055647,0.0052291835,-0.0018939176,-0.0048005036,81.0,0.05971627,0.01399841,0.99811727,0.003771484,5.6860875E-4,0.042630672,0.019139364,-0.023899298,0.42982396,2017-08-03 21:02:21,-Infinity
0.60333884,0.15322891,10.132261,0.010834993,-0.02622464,0.0064903907,81.0,0.05923237,0.01378131,0.99814916,-0.0025812201,0.0027099382,0.031849563,0.018556295,-0.023333639,0.42959037,2017-08-03 21:02:22,-Infinity
0.5746084,0.10534488,10.007763,-0.0020873193,0.01709996,-0.0064243134,82.0,0.055682205,0.012203744,0.998374,0.0039688684,-4.4594053E-4,0.032595873,0.017876113,-0.023020856,0.4296166,2017-08-03 21:02:23,-Infinity
