ACC_X,ACC_Y,ACC_Z,GYRO_X,GYRO_Y,GYRO_Z,LIGH_1,GRAV_X,GRAV_Y,GRAV_Z,LINACC_X,LINACC_Y,LINACC_Z,ROTVEC_X,ROTVEC_Y,ROTVEC_Z,TIME,VOICE
0.0,0.0,0.0,0.16973089,0.0512923,0.10724754,40.0,0.0,0.0,0.0,0.0,0.0,0.0,0.0,0.0,0.0,2017-01-10 12:56:27,28.724209086182775
1.599,9.83,-0.469,0.11097788,-0.060751397,0.105648816,40.0,1.7782235,9.6179085,-0.710041,-0.17922354,0.21209145,0.24104097,0.5281626,0.5071945,0.5531532,2017-01-10 12:56:27,36.02750432717469
1.743,9.852,-0.258,0.0014654943,0.092992276,0.19504397,40.0,3.3769262,9.151472,-1.0086267,-1.6339262,0.70052814,0.7506267,0.5628379,0.48439565,0.58561563,2017-01-10 12:56:28,38.00091812680299
2.482,9.692,0.16,0.22581935,0.05755396,0.24273914,40.0,5.90965,7.808253,0.5269073,-3.4276497,1.8837476,-0.36690733,0.52698326,0.44206768,0.7075695,2017-01-10 12:56:29,41.79198743887202
2.49,9.49,0.323,0.2992273,0.07287503,0.4965361,40.0,6.4397106,7.3473606,-0.84665835,-3.9497106,2.1426392,1.1696584,0.58962893,0.4421598,0.66136706,2017-01-10 12:56:30,35.92112565831565
9.155,4.946,1.34,0.8434586,0.10205169,1.3036238,40.0,-5.1732326,-7.993682,2.34715,14.328232,12.939682,-1.00715,-0.14481984,0.599463,-0.5419572,2017-01-10 12:56:31,62.61716936819735
8.717,4.458,1.228,-0.096722625,-0.05542233,1.3264055,40.0,-6.348344,-4.995159,5.5603323,15.065344,9.453159,-4.332332,-0.013217846,0.4651099,-0.52737147,2017-01-10 12:56:32,65.84970830805108
9.464,2.523,1.259,0.24953371,0.061817214,0.5145217,40.0,-6.1575804,2.960549,7.0348945,15.62158,-0.4375491,-5.7758946,0.26253888,0.26906046,-0.29585496,2017-01-10 12:56:33,58.869115086987414
0.694,-0.143,14.38,6.5631495,3.9626966,-0.15707435,40.0,-8.949112,-0.48622257,3.9808753,9.643112,0.34322256,10.399125,0.4453052,0.31422147,-0.71026903,2017-01-10 12:56:34,60.2443711085193
-0.691,-1.034,7.503,-7.3908873,-2.7780442,0.1120437,40.0,-9.041228,2.8182917,-2.5463443,8.350228,-3.8522916,10.049344,0.78686565,0.103295065,-0.5523451,2017-01-10 12:56:35,63.038947561134705
0.251,0.093,10.791,-0.75459635,-2.450706,-0.014788169,40.0,-3.8573127,7.9636517,4.227504,4.1083126,-7.8706517,6.5634966,0.45925185,-0.27119187,-0.70461595,2017-01-10 12:56:36,60.496945036916685
0.213,0.165,10.704,0.10151879,-0.0776712,0.0702105,40.0,-2.2715032,6.4617634,7.0182815,2.4845033,-6.2967634,3.685719,0.2951355,-0.23465352,-0.7842136,2017-01-10 12:56:37,66.85309882188062
0.138,0.181,10.791,0.0856648,-0.08926193,0.092992276,40.0,-0.5050509,4.378532,8.760352,0.6430509,-4.1975317,2.0306482,0.13952476,-0.18406305,-0.83761305,2017-01-10 12:56:38,33.06268966822909
0.162,0.203,10.767,0.10991207,-0.0776712,0.07873701,40.0,0.99269104,2.5255399,9.423725,-0.83069104,-2.3225398,1.3432751,0.017444586,-0.1386341,-0.86912346,2017-01-10 12:56:39,40.46678451856934
-0.861,0.32,11.289,0.15121236,0.1120437,0.11364242,40.0,2.0406961,1.1165968,9.52676,-2.9016962,-0.7965968,1.7622395,-0.07143925,-0.095743686,-0.90282923,2017-01-10 12:56:40,36.608726082748746
0.131,0.21,10.623,0.10418332,-0.09352518,0.079269916,40.0,2.7241023,0.3697142,9.413445,-2.5931022,-0.1597142,1.2095547,-0.12758364,-0.061402358,-0.94162834,2017-01-10 12:56:41,58.26754033161173
0.155,0.177,10.678,0.1031175,-0.08406608,0.07660538,40.0,2.950344,-0.0065369643,9.352316,-2.795344,0.18353696,1.3256845,-0.15003249,-0.025589937,-0.9739092,2017-01-10 12:56:42,57.631898935496146
0.201,0.205,10.733,0.1031175,-0.08513189,0.07287503,40.0,2.9178133,-0.119337626,9.361758,-2.7168133,0.32433763,1.3712416,-0.15060401,-0.0012724173,-0.98739105,2017-01-10 12:56:43,35.21732524523135
0.201,0.169,10.721,0.09352518,-0.08033573,0.0782041,40.0,2.7359304,-0.11796911,9.416536,-2.5349305,0.28696913,1.3044634,0.14039876,-0.013358931,0.98867846,2017-01-10 12:56:44,37.76095581456243
0.217,0.16,10.841,0.08406608,-0.088196106,0.08246736,40.0,2.4863398,-0.06829043,9.485981,-2.2693398,0.22829042,1.3550186,0.12632196,-0.019807387,0.98366845,2017-01-10 12:56:45,35.275137569250184
0.136,0.167,10.779,0.099920064,-0.08872902,0.08086864,40.0,2.1794093,-0.00520535,9.561408,-2.0434093,0.17220534,1.2175922,0.109798364,-0.021169689,0.97620416,2017-01-10 12:56:46,41.777164018531934
0.146,0.191,10.745,0.0951239,-0.08926193,0.06927791,40.0,1.8525879,0.026991613,9.630035,-1.7065879,0.16400838,1.1149645,0.0927143,-0.020221712,0.96942824,2017-01-10 12:56:47,40.308126564738124
0.136,0.169,10.733,0.10365041,-0.079269916,0.08033573,40.0,1.561895,0.028201684,9.68143,-1.425895,0.14079832,1.0515699,0.0777409,-0.018461647,0.9655149,2017-01-10 12:56:48,35.238755870380196
0.232,0.265,10.678,0.09725553,-0.09459099,0.0856648,40.0,1.2815734,2.114508E-4,9.7225485,-1.0495734,0.26478854,0.95545197,0.063341096,-0.016609535,0.9651787,2017-01-10 12:56:49,31.754856238537023
0.196,0.158,10.759,0.105115905,-0.0856648,0.070743404,40.0,1.0343015,-0.05468133,9.751801,-0.83830154,0.21268134,1.0071993,0.05041826,-0.015954338,0.96664816,2017-01-10 12:56:50,37.579234062676846
0.198,0.246,10.726,0.09778844,-0.08979483,0.07607248,40.0,0.84047866,-0.09559304,9.7701,-0.64247864,0.34159306,0.9559002,0.040515367,-0.014901954,0.9706216,2017-01-10 12:56:51,51.36748679390654
0.158,0.237,10.731,0.100452974,-0.08140154,0.083000265,40.0,0.6683556,-0.12748313,9.783018,-0.5103556,0.36448312,0.94798183,0.031889137,-0.013711324,0.97583133,2017-01-10 12:56:52,49.51684513386232
0.208,0.201,10.812,0.10418332,-0.08246736,0.079802826,40.0,0.53408223,-0.14150651,9.791073,-0.32608223,0.34250653,1.0209274,0.02540047,-0.012206841,0.98180515,2017-01-10 12:56:53,57.373197572492025
0.217,0.172,10.752,0.109379165,-0.0876632,0.08459899,40.0,0.44347757,-0.15651616,9.795367,-0.22647758,0.3285162,0.9566326,0.021073373,-0.011453643,0.98717064,2017-01-10 12:56:54,45.49810057219812
0.208,0.189,10.606,0.092459366,-0.08086864,0.08459899,40.0,0.36103982,-0.15878807,9.798716,-0.15303981,0.34778807,0.80728436,0.01719304,-0.010438307,0.9911926,2017-01-10 12:56:55,39.16244384838539
0.189,0.177,10.817,0.10671463,-0.08619771,0.086730614,40.0,0.2938373,-0.1494183,9.801108,-0.10483731,0.32641828,1.015892,0.014097847,-0.0091550015,0.9942978,2017-01-10 12:56:56,34.929492567249284
0.179,0.179,10.795,0.11044498,-0.09086064,0.07180922,40.0,0.23754197,-0.118306495,9.803059,-0.05854197,0.2973065,0.99194145,0.01159558,-0.0069744783,0.99675643,2017-01-10 12:56:57,37.99708414964883
0.244,0.169,10.724,0.096189715,-0.087263525,0.07660538,40.0,0.20254192,-0.09022549,9.804143,0.041458085,0.2592255,0.919857,0.010063493,-0.005152331,0.9984726,2017-01-10 12:56:58,30.242529029078817
0.208,0.193,10.685,0.105115905,-0.08086864,0.083000265,40.0,0.16056596,-0.066507824,9.80511,0.047434047,0.25950783,0.87989044,0.008073498,-0.0036528823,0.99944246,2017-01-10 12:56:59,31.751749099365846
0.208,0.213,10.716,0.10365041,-0.09352518,0.09086064,40.0,0.14359993,-0.01713524,9.805584,0.06440008,0.23013523,0.91041565,0.007310574,-9.6278277E-4,0.99989873,2017-01-10 12:57:00,30.699408505846293
0.172,0.22,10.752,0.10151879,-0.096189715,0.069810815,40.0,0.12583798,0.027245773,9.805805,0.046162024,0.19275422,0.94619465,0.006420098,0.0013705327,0.9999743,2017-01-10 12:57:01,29.941800561494716
0.256,0.229,10.762,0.09885425,-0.0951239,0.083000265,40.0,0.1261381,0.0631723,9.805635,0.1298619,0.16582769,0.95636463,-0.0063986443,-0.0032856024,-0.9999234,2017-01-10 12:57:02,34.84159163111101
0.21,0.201,10.726,0.09778844,-0.08406608,0.075006664,40.0,0.12205995,0.08955403,9.805481,0.087940045,0.11144598,0.9205189,-0.006102686,-0.0047263894,-0.9996322,2017-01-10 12:57:03,31.051252331605834
0.158,0.15,10.697,0.105115905,-0.083000265,0.08406608,40.0,0.115686804,0.11563166,9.805285,0.042313203,0.034368344,0.8917141,-0.005673738,-0.0061124675,-0.99926436,2017-01-10 12:57:04,30.777052035616933
0.169,0.126,10.685,0.095656805,-0.092459366,0.088196106,40.0,0.12541771,0.13600709,9.804905,0.04358229,-0.010007083,0.8800955,-0.006133052,-0.0071672765,-0.99926674,2017-01-10 12:57:05,30.129357277882743
0.203,0.227,10.805,0.10365041,-0.08513189,0.07607248,40.0,0.13814478,0.13928138,9.8046875,0.06485522,0.08771862,1.0003128,-0.0067723165,-0.007361051,-0.99924564,2017-01-10 12:57:06,30.1637484929201
0.16,0.146,10.767,0.10991207,-0.09725553,0.07660538,40.0,0.1469372,0.16000779,9.804244,0.01306279,-0.014007792,0.96275616,-0.007110559,-0.008493278,-0.99888897,2017-01-10 12:57:07,32.35552672608613
0.198,0.169,10.747,0.105648816,-0.08926193,0.07607248,40.0,0.14892884,0.15466768,9.804299,0.049071163,0.014332324,0.9427004,-0.0071645803,-0.008278131,-0.9985316,2017-01-10 12:57:08,32.560647605917275
0.179,0.215,10.728,0.095656805,-0.0876632,0.07447375,40.0,0.14738795,0.16011643,9.8042345,0.031612054,0.05488357,0.9237652,-0.0070644002,-0.008557187,-0.99848634,2017-01-10 12:57:09,40.738401636290114
0.189,0.117,10.668,0.095656805,-0.09139355,0.079269916,40.0,0.15307754,0.1634135,9.804093,0.035922453,-0.046413496,0.86390686,-0.0072912113,-0.008785683,-0.9981328,2017-01-10 12:57:10,30.73500332371186
0.215,0.136,10.757,0.11044498,-0.09459099,0.08140154,40.0,0.16109091,0.1633699,9.803966,0.053909093,-0.027369887,0.9530344,-0.00770503,-0.0088029355,-0.99816895,2017-01-10 12:57:11,29.94495549708546
0.155,0.174,10.738,0.10724754,-0.07713829,0.07713829,40.0,0.16678448,0.17567287,9.803658,-0.011784479,-0.0016728789,0.9343424,-0.007950318,-0.009452635,-0.99811465,2017-01-10 12:57:12,29.76667389946545
0.253,0.193,10.767,0.09832134,-0.09778844,0.08459899,40.0,0.16071402,0.18353553,9.803616,0.092285976,0.0094644725,0.9633846,-0.0075806268,-0.0098624835,-0.997883,2017-01-10 12:57:13,29.950479973181665
0.213,0.203,10.709,0.095656805,-0.07713829,0.071276315,40.0,0.16948697,0.18700752,9.803402,0.04351303,0.015992478,0.9055977,-0.008130407,-0.009975435,-0.99854237,2017-01-10 12:57:14,32.70026367862254
0.179,0.165,10.735,0.08459899,-0.08979483,0.08246736,40.0,0.17507057,0.17691262,9.803492,0.003929436,-0.011912614,0.93150806,-0.008475238,-0.009446311,-0.99872434,2017-01-10 12:57:15,29.694959954893292
0.153,0.201,10.688,0.099920064,-0.07873701,0.0782041,40.0,0.17314227,0.17543572,9.803553,-0.020142272,0.025564283,0.8844471,-0.008375641,-0.009370797,-0.9986993,2017-01-10 12:57:16,29.995275963561248
0.196,0.229,10.671,0.09459099,-0.08086864,0.068745,40.0,0.16427217,0.17920183,9.803637,0.03172782,0.049798176,0.867363,-0.007920791,-0.0095349215,-0.9987343,2017-01-10 12:57:17,32.78786580277143
0.198,0.141,10.702,0.1120437,-0.08033573,0.08513189,40.0,0.16840775,0.18151805,9.803524,0.029592246,-0.040518045,0.89847565,-0.008140708,-0.009650533,-0.9988061,2017-01-10 12:57:18,35.02251936874141
0.215,0.093,10.728,0.08513189,-0.08619771,0.06767919,40.0,0.17744769,0.18690768,9.803263,0.037552312,-0.09390768,0.924737,-0.008575993,-0.009957414,-0.9987407,2017-01-10 12:57:19,36.03878524274822
0.208,0.22,10.707,0.092992276,-0.083533175,0.07234213,40.0,0.17346348,0.18234734,9.80342,0.034536526,0.037652656,0.9035797,-0.008368241,-0.009729115,-0.9986634,2017-01-10 12:57:20,36.12795674905103
0.16,0.172,10.666,0.1031175,-0.08926193,0.08140154,40.0,0.1747702,0.16701637,9.80367,-0.01477021,0.0049836338,0.86233044,-0.008471134,-0.008954242,-0.9986544,2017-01-10 12:57:21,30.810337675179348
0.136,0.203,10.817,0.09086064,-0.07287503,0.07180922,40.0,0.16916741,0.16168734,9.803858,-0.033167407,0.04131265,1.0131426,-0.008180376,-0.008686443,-0.9985459,2017-01-10 12:57:22,30.212054555581712
0.174,0.193,10.719,0.10724754,-0.086730614,0.08459899,40.0,0.16436268,0.1740607,9.803727,0.009637311,0.018939301,0.9152727,-0.007929013,-0.009281114,-0.99868816,2017-01-10 12:57:23,30.753396654716813
0.167,0.217,10.767,0.091926455,-0.087263525,0.087263525,40.0,0.15760584,0.18011191,9.803729,0.009394154,0.036888078,0.96327114,-0.007568454,-0.009573025,-0.9986824,2017-01-10 12:57:24,35.18080740317191
0.198,0.186,10.735,0.09352518,-0.083000265,0.08086864,40.0,0.1599754,0.1796047,9.8037,0.038024604,0.00639531,0.9312992,-0.0076940544,-0.009550297,-0.9987006,2017-01-10 12:57:25,61.04171140978391
0.189,0.225,10.635,0.10471623,-0.099387154,0.06554756,40.0,0.16951014,0.18243277,9.803488,0.019489855,0.042567223,0.83151245,-0.008161635,-0.009727591,-0.998639,2017-01-10 12:57:26,67.84619778560118
0.15,0.174,10.659,0.09725553,-0.0776712,0.08193445,40.0,0.17432015,0.1861337,9.803333,-0.02432014,-0.012133703,0.8556671,-0.008424749,-0.009905028,-0.9987724,2017-01-10 12:57:27,61.26347868024268
0.189,0.16,10.743,0.109379165,-0.083533175,0.0776712,40.0,0.1772099,0.18333171,9.803335,0.011790097,-0.023331717,0.93966484,-0.008548726,-0.009795654,-0.9986209,2017-01-10 12:57:28,47.27594107445404
0.213,0.222,10.738,0.09032774,-0.08979483,0.066080466,40.0,0.16872941,0.1764467,9.803611,0.04427059,0.045553297,0.9343891,-0.00817214,-0.009390496,-0.9988227,2017-01-10 12:57:29,46.819503561246194
0.227,0.213,10.692,0.095656805,-0.0856648,0.0876632,40.0,0.17247204,0.17771354,9.803523,0.054527953,0.035286456,0.8884773,-0.008377932,-0.009447903,-0.99890876,2017-01-10 12:57:30,30.154506278381916
0.277,0.22,10.731,0.09778844,-0.09832134,0.09725553,40.0,0.16766483,0.16648595,9.803803,0.109335184,0.05351405,0.9271965,-0.008167301,-0.008857022,-0.9989589,2017-01-10 12:57:31,31.452570440511444
0.217,0.189,10.676,0.10724754,-0.08459899,0.075006664,40.0,0.17410028,0.16431946,9.803728,0.042899713,0.02468054,0.87227154,-0.008508962,-0.008752416,-0.99900144,2017-01-10 12:57:32,29.869535849852387
0.169,0.174,10.678,0.09405809,-0.08979483,0.08459899,40.0,0.18130973,0.17808865,9.803356,-0.01230973,-0.004088655,0.8746443,-0.008824071,-0.009490306,-0.9988892,2017-01-10 12:57:33,29.591378562785373
0.203,0.184,10.714,0.10724754,-0.10098588,0.08872902,40.0,0.17473982,0.17853169,9.803468,0.028260171,0.005468309,0.910532,-0.008490739,-0.009495548,-0.99890333,2017-01-10 12:57:34,29.92139235814996
0.201,0.165,10.707,0.10618172,-0.0856648,0.08926193,40.0,0.17179097,0.17255303,9.803627,0.029209033,-0.007553026,0.90337276,-0.008340266,-0.009196881,-0.9988377,2017-01-10 12:57:35,29.98810211574068
0.237,0.181,10.745,0.096722625,-0.083000265,0.07713829,40.0,0.16819914,0.1759844,9.803628,0.06880087,0.0050155967,0.9413719,-0.008153039,-0.009359752,-0.99885696,2017-01-10 12:57:36,29.508750861924366
0.134,0.162,10.752,0.10831335,-0.08406608,0.07713829,40.0,0.1681016,0.17617925,9.803626,-0.03410159,-0.014179245,0.9483738,-0.008154586,-0.009363379,-0.998891,2017-01-10 12:57:37,30.552352247504487
0.15,0.172,10.783,0.10778044,-0.083533175,0.0782041,40.0,0.16277154,0.17322424,9.803769,-0.012771532,-0.0012242347,0.9792309,-0.00787143,-0.009216293,-0.99880147,2017-01-10 12:57:38,29.887625848224868
0.172,0.205,10.738,0.10471623,-0.08193445,0.069810815,40.0,0.16438398,0.18339118,9.803557,0.007616028,0.021608815,0.9344425,-0.007922424,-0.009743431,-0.9987638,2017-01-10 12:57:39,29.255651272034584
0.172,0.205,10.652,0.092459366,-0.08459899,0.05755396,40.0,0.16963941,0.1799124,9.803532,0.0023605973,0.025087595,0.8484688,-0.008213393,-0.00956649,-0.99883616,2017-01-10 12:57:40,29.346872896186596
0.179,0.193,10.735,0.09032774,-0.08926193,0.06767919,40.0,0.16719514,0.18296954,9.803517,0.011804864,0.010030463,0.9314823,-0.008075357,-0.0097216265,-0.99880546,2017-01-10 12:57:41,28.88372031585192
0.203,0.186,10.726,0.09778844,-0.09032774,0.086730614,40.0,0.16777709,0.18669854,9.803437,0.035222903,-6.9853663E-4,0.9225626,-0.00808212,-0.009924328,-0.99873626,2017-01-10 12:57:42,28.997413073563322
0.174,0.126,10.767,0.09086064,-0.079269916,0.08193445,40.0,0.16412386,0.19272633,9.803383,0.009876132,-0.06672633,0.9636173,-0.007873969,-0.0102278,-0.9987006,2017-01-10 12:57:43,29.66496927633685
0.153,0.201,10.776,0.08979483,-0.08459899,0.07873701,40.0,0.16046198,0.18521003,9.803589,-0.00746198,0.01578997,0.97241116,-0.0077172928,-0.009827157,-0.9987601,2017-01-10 12:57:44,29.859958280141086
0.181,0.215,10.759,0.09352518,-0.08246736,0.09086064,40.0,0.17220576,0.17733565,9.8035345,0.008794233,0.037664354,0.9554653,-0.008335419,-0.00945441,-0.9987621,2017-01-10 12:57:45,29.587101295233367
0.169,0.205,10.743,0.10724754,-0.07873701,0.075006664,40.0,0.1662559,0.1916578,9.803368,0.0027440935,0.013342202,0.9396324,-0.007989148,-0.01017568,-0.998719,2017-01-10 12:57:46,29.881461841593442
0.167,0.213,10.625,0.1031175,-0.068745,0.08459899,40.0,0.1626796,0.18356867,9.803582,0.004320398,0.029431328,0.8214178,-0.007847727,-0.009738183,-0.9988256,2017-01-10 12:57:47,34.161777147327314
0.129,0.215,10.786,0.1025846,-0.087263525,0.08140154,40.0,0.16440412,0.17744525,9.803666,-0.03540413,0.037554756,0.98233414,-0.0079389,-0.0094398735,-0.99877113,2017-01-10 12:57:48,31.53807572469438
0.222,0.134,10.767,0.08926193,-0.092992276,0.08246736,40.0,0.16277604,0.16282205,9.803947,0.059223965,-0.02882205,0.96305275,-0.0078900065,-0.008692606,-0.9987688,2017-01-10 12:57:49,34.94226973119133
0.189,0.167,10.795,0.1031175,-0.07713829,0.08086864,40.0,0.16745113,0.1600315,9.803914,0.021548867,0.006968498,0.991086,-0.0081275925,-0.00856899,-0.99872607,2017-01-10 12:57:50,30.460823794758277
0.22,0.213,10.688,0.08979483,-0.09352518,0.08246736,40.0,0.17425698,0.16355765,9.803738,0.04574302,0.04944235,0.8842621,-0.008465779,-0.008765285,-0.9987236,2017-01-10 12:57:51,30.293092537657746
0.155,0.198,10.695,0.092992276,-0.083000265,0.07553957,40.0,0.17329213,0.1779389,9.803504,-0.018292129,0.020061105,0.8914957,-0.008477919,-0.009408683,-0.99916875,2017-01-10 12:57:52,31.42051845152716
0.184,0.143,10.8,0.10418332,-0.086730614,0.08406608,40.0,0.17094618,0.1783739,9.803537,0.01305382,-0.035373896,0.9964628,-0.008331296,-0.009449391,-0.9990581,2017-01-10 12:57:53,30.761493935476466
0.112,0.196,10.733,0.11097788,-0.08872902,0.083000265,40.0,0.16967408,0.17910069,9.803546,-0.05767408,0.016899303,0.92945385,-0.008269888,-0.009479413,-0.9990798,2017-01-10 12:57:54,30.458568071018256
0.234,0.179,10.803,0.112576604,-0.08459899,0.07340794,40.0,0.17090832,0.18165632,9.803478,0.06309168,-0.0026563108,0.9995222,-0.008299757,-0.0096361255,-0.99895597,2017-01-10 12:57:55,31.864663130250367
0.181,0.227,10.647,0.088196106,-0.079269916,0.07873701,40.0,0.17054898,0.18117766,9.8034935,0.010451019,0.045822337,0.8435068,-0.008285035,-0.009608765,-0.9989679,2017-01-10 12:57:56,29.27622453217357
0.179,0.196,10.685,0.11151079,-0.08246736,0.0782041,40.0,0.16804941,0.17640762,9.803623,0.010950595,0.019592375,0.8813772,-0.00816979,-0.00935887,-0.9989782,2017-01-10 12:57:57,29.483773825416094
0.165,0.191,10.745,0.09885425,-0.08872902,0.08033573,40.0,0.17489214,0.17686646,9.803495,-0.009892136,0.014133543,0.9415045,-0.00854573,-0.009371664,-0.99910164,2017-01-10 12:57:58,29.51442111919269
0.203,0.22,10.769,0.092992276,-0.087263525,0.08033573,40.0,0.17109539,0.18279828,9.803453,0.031904608,0.037201717,0.9655466,-0.0083544515,-0.009653634,-0.99915963,2017-01-10 12:57:59,29.7077895046718
0.136,0.143,10.683,0.1195044,-0.087263525,0.06501465,40.0,0.17028664,0.18008336,9.803517,-0.034286633,-0.037083358,0.87948227,-0.008309982,-0.009521234,-0.9991255,2017-01-10 12:58:00,31.992210897287357
0.134,0.203,10.745,0.0776712,-0.08193445,0.08926193,40.0,0.16809474,0.17699458,9.803612,-0.034094736,0.026005417,0.94138813,-0.008205021,-0.009358985,-0.9991298,2017-01-10 12:58:01,35.53989190678165
0.169,0.165,10.75,0.11417533,-0.07340794,0.08513189,40.0,0.16456717,0.17927966,9.803631,0.0044328272,-0.014279649,0.9463692,-0.008009265,-0.009477873,-0.9990818,2017-01-10 12:58:02,33.22950127585517
0.174,0.193,10.74,0.09086064,-0.086730614,0.08513189,40.0,0.17214763,0.18605438,9.803374,0.0018523633,0.006945625,0.9366255,-0.008366707,-0.0098514,-0.9990131,2017-01-10 12:58:03,29.20276480495747
0.141,0.143,10.728,0.0951239,-0.07660538,0.09832134,40.0,0.15784924,0.17624451,9.803796,-0.016849235,-0.033244506,0.9242039,-0.0076184883,-0.009354085,-0.99882776,2017-01-10 12:58:04,34.787396651278925
0.239,0.21,10.656,0.096189715,-0.07713829,0.0782041,40.0,0.16701639,0.16619718,9.80382,0.071983606,0.043802813,0.8521805,-0.00809605,-0.008876459,-0.9987566,2017-01-10 12:58:05,28.54472097319877
0.174,0.201,10.776,0.11683986,-0.08459899,0.07873701,40.0,0.17360966,0.16898039,9.803658,3.9033592E-4,0.032019615,0.9723425,-0.008445059,-0.009015774,-0.99885744,2017-01-10 12:58:06,28.686851837297624
0.177,0.21,10.704,0.096722625,-0.08872902,0.075006664,40.0,0.17745031,0.17633219,9.803458,-4.503131E-4,0.033667803,0.90054226,-0.008632639,-0.009390863,-0.99889725,2017-01-10 12:58:07,29.005822007495027
0.237,0.205,10.743,0.100452974,-0.086730614,0.068745,40.0,0.1742778,0.175431,9.803533,0.062722206,0.029569,0.93946743,-0.008468672,-0.009341646,-0.9988776,2017-01-10 12:58:08,29.594427185697015
0.184,0.222,10.719,0.10151879,-0.0782041,0.07553957,40.0,0.17304465,0.17254597,9.803605,0.010955349,0.049454033,0.9153948,-0.008425805,-0.009179666,-0.9989442,2017-01-10 12:58:09,29.07460960583375
0.191,0.126,10.831,0.10671463,-0.087263525,0.069810815,40.0,0.17117693,0.18101841,9.803485,0.019823074,-0.05501841,1.0275154,-0.008304464,-0.009613225,-0.9989081,2017-01-10 12:58:10,28.503272835761297
0.201,0.201,10.635,0.09778844,-0.08406608,0.092459366,40.0,0.17137444,0.17016107,9.803676,0.029625565,0.030838937,0.8313246,-0.008346892,-0.009053653,-0.99895,2017-01-10 12:58:11,28.163795202888554
0.225,0.134,10.735,0.09352518,-0.08086864,0.079269916,40.0,0.1741187,0.15816784,9.803828,0.050881296,-0.024167836,0.9311714,-0.008519429,-0.008443027,-0.9989838,2017-01-10 12:58:12,28.22469295042439
0.158,0.22,10.74,0.09459099,-0.08086864,0.07553957,40.0,0.17108254,0.16536817,9.803762,-0.013082534,0.05463183,0.93623734,-0.008305279,-0.008844205,-0.9987555,2017-01-10 12:58:13,28.31159314983667
0.179,0.234,10.757,0.10671463,-0.07873701,0.07340794,40.0,0.1664527,0.16749147,9.803806,0.012547299,0.06650853,0.95319366,-0.008087321,-0.008920034,-0.9988785,2017-01-10 12:58:14,29.5512530379431
0.186,0.191,10.671,0.10098588,-0.0782041,0.083000265,40.0,0.17226966,0.17483898,9.803578,0.013730347,0.016161025,0.86742115,-0.008370452,-0.009304377,-0.9988919,2017-01-10 12:58:15,29.41926009178294
0.239,0.143,10.704,0.10671463,-0.092459366,0.07394085,40.0,0.17290185,0.17195712,9.8036175,0.06609814,-0.028957114,0.900383,-0.00841262,-0.009155997,-0.9989093,2017-01-10 12:58:16,28.5652460025165
0.208,0.27,10.642,0.10618172,-0.083000265,0.0702105,40.0,0.17880346,0.17030206,9.803541,0.029196545,0.09969795,0.838459,-0.008733673,-0.00906928,-0.998988,2017-01-10 12:58:17,28.379656941598892
0.179,0.105,10.654,0.10098588,-0.086730614,0.07287503,40.0,0.17662667,0.1646845,9.803676,0.0023733377,-0.059684508,0.85032463,-0.008637869,-0.008775581,-0.99900496,2017-01-10 12:58:18,28.3067980954217
0.088,0.227,10.637,0.100452974,-0.087263525,0.0702105,40.0,0.1785251,0.17765166,9.803415,-0.090525106,0.04934834,0.8335848,-0.00869628,-0.009449602,-0.99895227,2017-01-10 12:58:19,29.28459114909066
0.251,0.158,10.752,0.09778844,-0.075006664,0.07180922,40.0,0.1750806,0.18226287,9.803392,0.07591939,-0.02426286,0.94860744,-0.008509625,-0.009677553,-0.99894774,2017-01-10 12:58:20,29.38300404919257
0.198,0.189,10.779,0.09352518,-0.0876632,0.09086064,40.0,0.1745392,0.17913273,9.80346,0.023460805,0.009867266,0.97554016,-0.0084700715,-0.009533769,-0.9988598,2017-01-10 12:58:21,29.21644569814401
0.234,0.169,10.688,0.0876632,-0.07873701,0.066080466,40.0,0.16599074,0.18715699,9.803459,0.06800926,-0.01815699,0.88454056,-0.00798994,-0.0099432925,-0.99873644,2017-01-10 12:58:22,29.567446389891998
0.227,0.143,10.719,0.09832134,-0.08872902,0.0876632,40.0,0.15562196,0.17588322,9.803838,0.07137804,-0.032883212,0.9151621,-0.0074960333,-0.009338276,-0.99877876,2017-01-10 12:58:23,32.04542633540949
0.169,0.213,10.769,0.105648816,-0.0776712,0.08086864,40.0,0.15768048,0.18594055,9.803619,0.011319518,0.02705945,0.96538067,-0.007555415,-0.009871637,-0.99866927,2017-01-10 12:58:24,28.398584187235706
0.232,0.155,10.678,0.105115905,-0.08619771,0.086730614,40.0,0.1624291,0.18389983,9.80358,0.0695709,-0.028899834,0.87442017,-0.0077950354,-0.009785761,-0.99863,2017-01-10 12:58:25,29.00521143368894
0.203,0.227,10.74,0.09352518,-0.08619771,0.07660538,40.0,0.16599327,0.19100288,9.803385,0.03700672,0.035997123,0.936615,-0.007953402,-0.010160498,-0.99860096,2017-01-10 12:58:26,32.822737979155825
0.186,0.184,10.688,0.086730614,-0.083000265,0.079802826,40.0,0.16874409,0.19240917,9.80331,0.017255917,-0.008409172,0.88468933,-0.008120651,-0.010214889,-0.99874914,2017-01-10 12:58:27,30.390880667982962
0.208,0.158,10.688,0.0951239,-0.08926193,0.07713829,40.0,0.15984875,0.18865782,9.803532,0.048151255,-0.030657813,0.8844681,-0.007680863,-0.009998755,-0.9987744,2017-01-10 12:58:28,29.026376706964356
0.107,0.153,10.712,0.09725553,-0.087263525,0.086730614,40.0,0.15748675,0.1732517,9.803854,-0.05048675,-0.020251706,0.9081459,-0.007587579,-0.009216931,-0.9987273,2017-01-10 12:58:29,28.710072221611263
0.162,0.213,10.712,0.092459366,-0.08459899,0.079802826,40.0,0.16278745,0.16778074,9.803864,-7.8745186E-4,0.045219257,0.90813637,-0.007863985,-0.00895789,-0.9986877,2017-01-10 12:58:30,28.71474448589182
0.191,0.193,10.747,0.096189715,-0.086730614,0.0782041,40.0,0.16702741,0.1669467,9.803806,0.023972586,0.02605331,0.94319344,-0.008064537,-0.008942015,-0.99858665,2017-01-10 12:58:31,28.8358866410776
0.174,0.213,10.597,0.109379165,-0.08086864,0.07234213,40.0,0.16180356,0.16991252,9.803843,0.0121964365,0.043087482,0.7931576,-0.007834778,-0.009041228,-0.9988277,2017-01-10 12:58:32,28.510910596058046
0.155,0.169,10.733,0.11097788,-0.0782041,0.07553957,40.0,0.16481426,0.16350353,9.803902,-0.009814262,0.005496472,0.9290981,-0.0079862615,-0.00873772,-0.9987349,2017-01-10 12:58:33,38.29738007233283
0.198,0.158,10.712,0.0951239,-0.08619771,0.086730614,40.0,0.16267104,0.16657652,9.803886,0.035328954,-0.008576512,0.9081135,-0.007942999,-0.008823229,-0.9991059,2017-01-10 12:58:34,32.885497370610075
0.172,0.22,10.757,0.09352518,-0.09032774,0.08140154,40.0,0.16199741,0.17014708,9.803836,0.010002598,0.049852923,0.9531641,-0.007905896,-0.008999722,-0.99912524,2017-01-10 12:58:35,28.450947076637902
0.225,0.198,10.714,0.09832134,-0.08979483,0.079802826,40.0,0.16720769,0.16659716,9.803809,0.057792306,0.03140284,0.9101906,-0.008158393,-0.008848193,-0.99903035,2017-01-10 12:58:36,28.52892744364506
0.215,0.217,10.8,0.09459099,-0.08086864,0.0856648,40.0,0.1652162,0.17877993,9.803629,0.04978381,0.038220063,0.99637127,-0.008044151,-0.009453112,-0.9990851,2017-01-10 12:58:37,29.138667343235515
0.215,0.21,10.692,0.07447375,-0.0782041,0.07607248,40.0,0.17180087,0.1740428,9.8036,0.043199137,0.035957187,0.8884001,-0.008379637,-0.009234492,-0.99904,2017-01-10 12:58:38,29.618814674375493
0.201,0.232,10.719,0.09459099,-0.08979483,0.083533175,40.0,0.16908999,0.1770562,9.803593,0.031910017,0.0549438,0.9154072,-0.0082188435,-0.009396432,-0.9989657,2017-01-10 12:58:39,28.802908062675
0.201,0.181,10.747,0.083000265,-0.0856648,0.079269916,40.0,0.17032479,0.17843607,9.803547,0.030675218,0.0025639236,0.94345284,-0.008270068,-0.009477007,-0.9989244,2017-01-10 12:58:40,30.166880983463102
0.203,0.205,10.817,0.113109514,-0.091926455,0.07713829,40.0,0.16362695,0.17844108,9.803661,0.03937304,0.02655892,1.013339,-0.007945963,-0.009447628,-0.99900633,2017-01-10 12:58:41,29.67252525771853
0.136,0.162,10.719,0.099920064,-0.07447375,0.069810815,40.0,0.16565014,0.17287013,9.803727,-0.029650137,-0.010870129,0.9152727,-0.008029206,-0.009196245,-0.99885297,2017-01-10 12:58:42,29.700490076443163
0.153,0.165,10.69,0.08872902,-0.09032774,0.08246736,40.0,0.1643325,0.17817271,9.803654,-0.011332497,-0.013172701,0.88634586,-0.007957207,-0.009456832,-0.998888,2017-01-10 12:58:43,32.341851673832764
0.174,0.217,10.752,0.08979483,-0.087263525,0.06927791,40.0,0.16746512,0.17211679,9.803709,0.0065348744,0.044883206,0.9482908,-0.008113432,-0.009171024,-0.9988013,2017-01-10 12:58:44,29.637427627139125
0.239,0.229,10.685,0.09885425,-0.08979483,0.07340794,40.0,0.17487325,0.16978556,9.803621,0.064126745,0.059214443,0.8813791,-0.00851939,-0.009048621,-0.9989161,2017-01-10 12:58:45,28.74104394617332
0.203,0.239,10.685,0.09885425,-0.07660538,0.08459899,40.0,0.17046522,0.16859254,9.8037195,0.032534778,0.07040745,0.8812809,-0.008290757,-0.0089840265,-0.9988843,2017-01-10 12:58:46,29.182941764528824
0.169,0.169,10.798,0.092992276,-0.07873701,0.07660538,40.0,0.16421872,0.16493842,9.803887,0.004781276,0.0040615797,0.99411297,-0.008003954,-0.008762463,-0.9990043,2017-01-10 12:58:47,28.89749939268533
0.148,0.15,10.668,0.10098588,-0.08193445,0.088196106,40.0,0.170316,0.1626913,9.803821,-0.022315994,-0.012691289,0.8641796,-0.008299091,-0.008680937,-0.9988986,2017-01-10 12:58:48,54.15564283346532
0.205,0.208,10.726,0.09352518,-0.0782041,0.07873701,40.0,0.17675205,0.16031468,9.803746,0.028247952,0.047685325,0.9222536,-0.00860838,-0.008598932,-0.99876577,2017-01-10 12:58:49,47.80355036050838
0.179,0.191,10.743,0.08872902,-0.083533175,0.07394085,40.0,0.17300704,0.17136678,9.803626,0.005992964,0.019633219,0.93937397,-0.008385874,-0.009156921,-0.998738,2017-01-10 12:58:50,30.425598433316182
0.268,0.198,10.743,0.09086064,-0.07394085,0.0876632,40.0,0.17781842,0.16850081,9.80359,0.09018159,0.029499188,0.9394102,-0.008618914,-0.009041171,-0.9986319,2017-01-10 12:58:51,42.117150633585155
0.191,0.241,10.714,0.092992276,-0.07234213,0.07607248,40.0,0.17556508,0.17084548,9.80359,0.015434921,0.07015452,0.9104099,-0.008502175,-0.0091509465,-0.9986545,2017-01-10 12:58:52,68.72459967635044
0.179,0.167,10.793,0.08872902,-0.08406608,0.08406608,40.0,0.1684586,0.17590274,9.803625,0.010541409,-0.008902743,0.9893751,-0.008132964,-0.009385325,-0.99868554,2017-01-10 12:58:53,65.30099002713075
0.169,0.205,10.7,0.109379165,-0.08246736,0.08033573,40.0,0.16792169,0.17475604,9.803655,0.0010783076,0.030243963,0.89634514,-0.008082137,-0.009348436,-0.9985418,2017-01-10 12:58:54,31.15867342587204
0.208,0.222,10.688,0.10671463,-0.08619771,0.07234213,40.0,0.17257331,0.17436393,9.803581,0.03542669,0.047636077,0.8844185,-0.008313938,-0.009346401,-0.9985053,2017-01-10 12:58:55,37.442531105952554
0.155,0.268,10.779,0.09352518,-0.08406608,0.0856648,40.0,0.16902384,0.17811446,9.8035755,-0.01402384,0.08988555,0.97542477,-0.008122986,-0.009527782,-0.9985048,2017-01-10 12:58:56,32.77429683378058
0.208,0.217,10.745,0.11044498,-0.0776712,0.07340794,40.0,0.18031627,0.17489427,9.803432,0.027683735,0.04210572,0.9415674,-0.008713477,-0.009388244,-0.9985391,2017-01-10 12:58:57,34.9313208121025
0.28,0.222,10.781,0.091926455,-0.091926455,0.075006664,40.0,0.17785354,0.17101307,9.803546,0.10214646,0.05098693,0.9774542,-0.008575299,-0.009205606,-0.9984068,2017-01-10 12:58:58,34.663738529192244
0.193,0.191,10.702,0.1195044,-0.083533175,0.087263525,40.0,0.17466456,0.17594348,9.803516,0.018335447,0.015056521,0.8984833,-0.008420405,-0.009428718,-0.9985276,2017-01-10 12:58:59,29.842430848084884
0.27,0.165,10.7,0.09352518,-0.09032774,0.068745,40.0,0.17383267,0.17597154,9.803531,0.09616734,-0.010971531,0.8964691,-0.008399626,-0.009408616,-0.9986465,2017-01-10 12:59:00,29.627938219869385
0.189,0.167,10.752,0.09086064,-0.08872902,0.083533175,40.0,0.1667756,0.17081861,9.803744,0.022224396,-0.0038186163,0.94825554,-0.008052227,-0.009129083,-0.99864525,2017-01-10 12:59:01,29.343522053359813
0.237,0.155,10.755,0.096189715,-0.083533175,0.075006664,40.0,0.16800891,0.17366144,9.803673,0.068991095,-0.01866144,0.9513273,-0.008099182,-0.0092845,-0.9985965,2017-01-10 12:59:02,30.158964253977345
0.134,0.215,10.685,0.08979483,-0.08246736,0.07340794,40.0,0.17133437,0.16911978,9.803695,-0.037334368,0.04588023,0.8813057,-0.0082932105,-0.009050279,-0.99866855,2017-01-10 12:59:03,28.85608136478926
0.229,0.138,10.714,0.10778044,-0.08140154,0.069810815,40.0,0.17012882,0.1630775,9.803818,0.05887118,-0.025077507,0.910182,-0.008242035,-0.008744362,-0.99864185,2017-01-10 12:59:04,28.97653664815914
0.227,0.191,10.807,0.099920064,-0.086730614,0.08459899,40.0,0.17570633,0.16924812,9.803615,0.05129367,0.02175188,1.0033855,-0.008530117,-0.009054298,-0.99874586,2017-01-10 12:59:05,28.939454795833086
0.193,0.198,10.745,0.09778844,-0.087263525,0.079269916,40.0,0.17272826,0.17548808,9.803558,0.020271748,0.022511914,0.94144154,-0.008395081,-0.009336018,-0.9989049,2017-01-10 12:59:06,29.420013882958106
0.241,0.146,10.724,0.0951239,-0.08086864,0.07340794,40.0,0.17472652,0.17924134,9.803455,0.06627348,-0.033241346,0.9205446,-0.0084941955,-0.009526536,-0.99893004,2017-01-10 12:59:07,29.06105032318015
0.165,0.162,10.767,0.08140154,-0.086730614,0.07607248,40.0,0.17550424,0.1807292,9.803413,-0.010504231,-0.018729195,0.9635868,-0.008535389,-0.009599708,-0.99895173,2017-01-10 12:59:08,29.82642175820136
0.229,0.179,10.757,0.10151879,-0.087263525,0.083000265,40.0,0.18207131,0.17048462,9.803478,0.04692869,0.008515388,0.9535217,-0.008902473,-0.0090831285,-0.9989993,2017-01-10 12:59:09,29.535664614543894
0.174,0.177,10.743,0.09778844,-0.08140154,0.075006664,40.0,0.18607119,0.17155118,9.803384,-0.012071192,0.005448818,0.9396162,-0.009091123,-0.009158959,-0.99893594,2017-01-10 12:59:10,30.496728567791433
0.134,0.217,10.762,0.09086064,-0.08459899,0.066613376,40.0,0.17686707,0.17580563,9.803479,-0.042867064,0.041194364,0.9585209,-0.008594066,-0.009371942,-0.9988485,2017-01-10 12:59:11,30.006203560867814
0.153,0.158,10.747,0.100452974,-0.08086864,0.069810815,40.0,0.17321758,0.17432773,9.803571,-0.020217583,-0.016327724,0.943429,-0.008408577,-0.00929081,-0.99883556,2017-01-10 12:59:12,29.44785712737367
0.201,0.191,10.707,0.1120437,-0.079802826,0.079269916,40.0,0.16887218,0.17177975,9.803691,0.032127827,0.019220248,0.90330887,-0.008175825,-0.0091662705,-0.9987481,2017-01-10 12:59:13,29.070559922735086
0.229,0.213,10.752,0.10724754,-0.08086864,0.0876632,40.0,0.16549881,0.17676881,9.803659,0.063501194,0.03623119,0.9483404,-0.008009746,-0.009396668,-0.99883854,2017-01-10 12:59:14,29.734756921778875
0.193,0.241,10.704,0.113109514,-0.09139355,0.07713829,40.0,0.15331538,0.18142389,9.803773,0.039684623,0.05957611,0.90022755,-0.0073874365,-0.009597638,-0.99888617,2017-01-10 12:59:15,30.935798446771923
0.172,0.217,10.771,0.1195044,-0.086730614,0.08513189,40.0,0.16201477,0.17444451,9.80376,0.009985238,0.04255548,0.96724033,-0.007847039,-0.009262153,-0.9988871,2017-01-10 12:59:16,38.099490525318416
0.213,0.155,10.779,0.10365041,-0.079802826,0.08246736,40.0,0.156226,0.17775081,9.803795,0.056774005,-0.02275081,0.9752054,-0.0075673703,-0.009398723,-0.9989959,2017-01-10 12:59:17,33.80426162171668
0.165,0.146,10.668,0.09885425,-0.092459366,0.07394085,40.0,0.1585814,0.17650259,9.803779,0.0064186007,-0.030502588,0.8642216,-0.0076673464,-0.009359018,-0.9988875,2017-01-10 12:59:18,31.7901254627491
0.201,0.181,10.688,0.095656805,-0.08406608,0.091926455,40.0,0.14854515,0.16097675,9.804203,0.05245486,0.020023242,0.8837967,-0.007180441,-0.008554603,-0.9988349,2017-01-10 12:59:19,33.77421070908638
0.191,0.201,10.752,0.09832134,-0.07660538,0.0776712,40.0,0.16394702,0.16873136,9.803828,0.027052984,0.032268643,0.9481716,-0.007945427,-0.008987395,-0.9988202,2017-01-10 12:59:20,35.579688431379985
0.189,0.196,10.738,0.10671463,-0.071276315,0.07180922,40.0,0.17601174,0.17087014,9.803581,0.012988254,0.025129855,0.9344187,-0.008550115,-0.009129765,-0.9987894,2017-01-10 12:59:21,32.067581044305186
0.172,0.234,10.74,0.096189715,-0.0776712,0.07447375,40.0,0.17320184,0.17008123,9.803645,-0.0012018383,0.06391877,0.93635464,-0.008404663,-0.009086674,-0.99876875,2017-01-10 12:59:22,29.818801858203933
0.179,0.167,10.695,0.099387154,-0.079802826,0.08033573,40.0,0.18024291,0.17062636,9.803509,-0.0012429059,-0.0036263615,0.89149094,-0.008778732,-0.009115603,-0.99885184,2017-01-10 12:59:23,29.704406347308883
0.143,0.179,10.733,0.09832134,-0.092992276,0.08140154,40.0,0.17157722,0.16523574,9.803757,-0.028577209,0.013764262,0.9292431,-0.008343558,-0.008826639,-0.9988243,2017-01-10 12:59:24,29.824073925951833
0.16,0.186,10.685,0.10365041,-0.08140154,0.08033573,40.0,0.18083021,0.16533041,9.803589,-0.020830214,0.020669594,0.88141155,-0.008806262,-0.0088619925,-0.99877506,2017-01-10 12:59:25,30.168983353382345
0.21,0.174,10.728,0.08406608,-0.10151879,0.083000265,40.0,0.17210436,0.1746949,9.803584,0.037895635,-6.9490075E-4,0.9244156,-0.008322744,-0.00933214,-0.99869007,2017-01-10 12:59:26,30.303070309540956
0.177,0.215,10.769,0.100452974,-0.075006664,0.08140154,40.0,0.18119569,0.18610057,9.803209,-0.00419569,0.028899431,0.96579075,-0.008795013,-0.00990243,-0.9988635,2017-01-10 12:59:27,30.315004777483615
0.203,0.136,10.747,0.0856648,-0.07873701,0.08193445,40.0,0.17995103,0.1937643,9.803084,0.023048967,-0.05776429,0.94391537,-0.008711316,-0.010291981,-0.9988495,2017-01-10 12:59:28,29.065128603699513
0.26,0.146,10.714,0.10098588,-0.088196106,0.08459899,40.0,0.18530035,0.18166125,9.803216,0.07469964,-0.03566125,0.91078377,-0.0090347435,-0.009666964,-0.99895746,2017-01-10 12:59:29,28.990882324223964
0.179,0.165,10.731,0.095656805,-0.0782041,0.0856648,40.0,0.17371574,0.17435794,9.803561,0.0052842647,-0.009357929,0.92743874,-0.008435741,-0.009291844,-0.9988447,2017-01-10 12:59:30,28.68689631052529
0.215,0.251,10.618,0.095656805,-0.08033573,0.068745,40.0,0.16577823,0.1714117,9.803751,0.04922177,0.079588294,0.81424904,-0.007943672,-0.009205536,-0.99831676,2017-01-10 12:59:31,29.50046294192571
0.162,0.162,10.764,0.09459099,-0.08246736,0.08193445,40.0,0.16687746,0.17684056,9.803636,-0.004877463,-0.014840558,0.96036434,-0.007968367,-0.0094982125,-0.9982194,2017-01-10 12:59:32,30.204950122858026
0.181,0.177,10.688,0.08513189,-0.092992276,0.07340794,40.0,0.16457856,0.16993353,9.803797,0.016421437,0.0070664734,0.88420296,-0.007801392,-0.009199973,-0.9977456,2017-01-10 12:59:33,33.00806853487322
0.198,0.191,10.688,0.08459899,-0.0856648,0.09352518,40.0,0.16312079,0.17571518,9.803719,0.034879208,0.015284821,0.88428116,-0.007670737,-0.00951921,-0.9974788,2017-01-10 12:59:34,31.30994650275806
0.162,0.217,10.661,0.09778844,-0.08033573,0.092992276,40.0,0.16405252,0.17297506,9.803752,-0.0020525157,0.04402493,0.8572483,-0.0077793044,-0.0093405675,-0.9978484,2017-01-10 12:59:35,32.77672938888295
0.217,0.167,10.719,0.105115905,-0.086730614,0.075006664,40.0,0.16588663,0.17378101,9.803706,0.051113367,-0.006781012,0.9152937,-0.007908815,-0.0093549285,-0.99810565,2017-01-10 12:59:36,33.07170360019158
0.167,0.198,10.678,0.0876632,-0.08619771,0.083533175,40.0,0.17044397,0.1687083,9.803718,-0.0034439713,0.029291704,0.87428284,-0.00818541,-0.009084665,-0.9982933,2017-01-10 12:59:37,33.09782843030088
0.222,0.184,10.747,0.09832134,-0.087263525,0.079269916,40.0,0.17618124,0.17526242,9.803501,0.04581876,0.008737579,0.9434986,-0.008486602,-0.009409742,-0.9984541,2017-01-10 12:59:38,30.649901841530816
0.172,0.196,10.767,0.09032774,-0.08193445,0.08193445,40.0,0.18102546,0.18016651,9.803325,-0.0090254545,0.015833482,0.9636755,-0.008745666,-0.009649425,-0.9985911,2017-01-10 12:59:39,37.9652510996422
0.189,0.177,10.757,0.10151879,-0.087263525,0.07394085,40.0,0.17176227,0.17378129,9.803606,0.017237723,0.0032187104,0.95339394,-0.008287205,-0.009302976,-0.99857914,2017-01-10 12:59:40,31.427031617532908
0.222,0.198,10.7,0.100452974,-0.09405809,0.07873701,40.0,0.16613181,0.17885524,9.803611,0.055868194,0.019144759,0.896389,-0.008017358,-0.009521063,-0.99873877,2017-01-10 12:59:41,30.038067762466646
0.15,0.169,10.692,0.099387154,-0.083000265,0.07607248,40.0,0.16991727,0.17067875,9.803693,-0.019917265,-0.0016787499,0.8883076,-0.008222259,-0.009121368,-0.998697,2017-01-10 12:59:42,30.962831419089856
0.232,0.205,10.716,0.096722625,-0.09139355,0.09778844,40.0,0.17499648,0.16818736,9.803646,0.057003513,0.036812633,0.9123535,-0.0084799975,-0.00901414,-0.99865574,2017-01-10 12:59:43,30.34608581865825
0.184,0.179,10.637,0.10151879,-0.09725553,0.086730614,40.0,0.1646782,0.17942682,9.803626,0.0193218,-4.2681396E-4,0.833374,-0.007969382,-0.009523639,-0.99887514,2017-01-10 12:59:44,30.366383482058346
0.186,0.165,10.757,0.10418332,-0.086730614,0.07713829,40.0,0.16546175,0.1764365,9.803667,0.020538256,-0.011436492,0.9533329,-0.008019594,-0.0093702935,-0.99889237,2017-01-10 12:59:45,30.23685404588827
0.179,0.203,10.759,0.10671463,-0.08193445,0.07713829,40.0,0.15606657,0.17768215,9.803799,0.022933438,0.025317848,0.95520115,-0.0075315014,-0.009417254,-0.9988636,2017-01-10 12:59:46,30.570250008314062
0.143,0.16,10.704,0.092459366,-0.08246736,0.075006664,40.0,0.15484275,0.16906688,9.803969,-0.011842743,-0.00906688,0.9000311,-0.007508436,-0.008959591,-0.9989636,2017-01-10 12:59:47,32.0537196835896
0.148,0.138,10.771,0.08872902,-0.092992276,0.08193445,40.0,0.16150735,0.16155727,9.803988,-0.013507351,-0.023557276,0.96701145,-0.007861443,-0.008595042,-0.99894696,2017-01-10 12:59:48,33.4742402539806
0.169,0.165,10.776,0.10471623,-0.08979483,0.08086864,40.0,0.16214886,0.1650324,9.803921,0.0068511367,-3.2395124E-5,0.9720793,-0.007892719,-0.008767729,-0.99897766,2017-01-10 12:59:49,33.09245694409942
0.201,0.215,10.781,0.0856648,-0.08246736,0.083000265,40.0,0.16771781,0.16001667,9.80391,0.03328219,0.054983333,0.9770899,-0.008199402,-0.008513239,-0.999037,2017-01-10 12:59:50,32.970720329058565
0.172,0.177,10.793,0.108846255,-0.083533175,0.07607248,40.0,0.17723861,0.16769274,9.803615,-0.0052386075,0.009307265,0.9893856,-0.00866412,-0.008928591,-0.9990113,2017-01-10 12:59:51,32.39992788502656
0.158,0.141,10.733,0.09725553,-0.08086864,0.08193445,40.0,0.17470452,0.17197922,9.803585,-0.016704515,-0.030979216,0.92941475,-0.008535522,-0.009132281,-0.9990558,2017-01-10 12:59:52,30.553764646645405
0.191,0.174,10.721,0.099387154,-0.09459099,0.07394085,40.0,0.1714014,0.17268229,9.803632,0.019598603,0.0013177097,0.91736794,-0.008356503,-0.009169506,-0.99901456,2017-01-10 12:59:53,31.04513951138872
0.234,0.153,10.807,0.10151879,-0.086730614,0.069810815,40.0,0.18537225,0.16145872,9.803569,0.04862775,-0.008458719,1.0034313,-0.009107243,-0.00861269,-0.9990837,2017-01-10 12:59:54,30.887058474820506
0.205,0.22,10.704,0.09885425,-0.0776712,0.07287503,40.0,0.17733134,0.16779473,9.803611,0.027668655,0.052205265,0.9003897,-0.008664088,-0.008938388,-0.9989893,2017-01-10 12:59:55,31.36184209561614
0.201,0.251,10.767,0.09725553,-0.08872902,0.07873701,40.0,0.18134987,0.17033945,9.8034935,0.019650131,0.08066054,0.9635067,-0.008839001,-0.009100487,-0.9988677,2017-01-10 12:59:56,30.6234525948768
0.244,0.205,10.719,0.10418332,-0.086730614,0.08979483,40.0,0.17775334,0.17857328,9.803413,0.06624666,0.026426718,0.9155865,-0.008641983,-0.009506582,-0.9988916,2017-01-10 12:59:57,30.87001960547567
0.222,0.143,10.745,0.100452974,-0.09459099,0.088196106,40.0,0.17747144,0.18022467,9.803388,0.04452856,-0.037224665,0.94161224,-0.008616476,-0.009596652,-0.99885595,2017-01-10 12:59:58,31.06460245096718
0.201,0.167,10.743,0.08979483,-0.08246736,0.070743404,40.0,0.17353655,0.18413302,9.803386,0.027463451,-0.017133027,0.9396143,-0.0083888015,-0.009801979,-0.99876934,2017-01-10 12:59:59,31.995412594142728
0.162,0.237,10.793,0.09086064,-0.087263525,0.09032774,40.0,0.17455848,0.17730959,9.8034935,-0.012558475,0.059690416,0.9895067,-0.0084802285,-0.0094365375,-0.99888444,2017-01-10 13:00:00,31.21050077338593
0.174,0.162,10.745,0.09885425,-0.0951239,0.083533175,40.0,0.17758064,0.16464639,9.803659,-0.0035806447,-0.0026463866,0.94134045,-0.008665534,-0.008796486,-0.9988991,2017-01-10 13:00:01,31.19231073288335
0.165,0.234,10.752,0.0876632,-0.08140154,0.07553957,40.0,0.1681617,0.17207496,9.803699,-0.0031616986,0.06192504,0.9483013,-0.008135949,-0.009182173,-0.9987325,2017-01-10 13:00:02,31.068940874019347
0.189,0.234,10.733,0.09405809,-0.088196106,0.09139355,40.0,0.16778144,0.16236056,9.803871,0.021218553,0.07163943,0.92912865,-0.00817847,-0.00865092,-0.99893993,2017-01-10 13:00:03,31.88828757081986
0.186,0.201,10.776,0.108846255,-0.088196106,0.07873701,40.0,0.17072347,0.16124426,9.803838,0.015276536,0.039755747,0.97216225,-0.008320511,-0.008610755,-0.998885,2017-01-10 13:00:04,30.959732345213116
0.177,0.198,10.731,0.08459899,-0.09032774,0.083533175,40.0,0.16872749,0.16485769,9.803812,0.008272514,0.033142313,0.9271879,-0.008142613,-0.008853029,-0.9985037,2017-01-10 13:00:05,30.57405874427004
0.155,0.193,10.659,0.11151079,-0.09086064,0.08459899,40.0,0.16708323,0.1737678,9.803687,-0.012083232,0.019232199,0.8553133,-0.008044605,-0.009293681,-0.9985568,2017-01-10 13:00:06,30.481739932132644
0.141,0.158,10.735,0.09086064,-0.07234213,0.0856648,40.0,0.16538534,0.182706,9.803554,-0.024385333,-0.024705991,0.9314461,-0.007943698,-0.009736697,-0.99860317,2017-01-10 13:00:07,30.042304523350847
0.177,0.201,10.743,0.09459099,-0.08619771,0.07234213,40.0,0.16302423,0.17869344,9.803667,0.013975769,0.022306561,0.93933296,-0.007852536,-0.00951084,-0.99870443,2017-01-10 13:00:08,31.24464501971012
0.215,0.196,10.759,0.10098588,-0.087263525,0.07287503,40.0,0.15621938,0.171833,9.8039,0.058780625,0.024167001,0.95510006,-0.0075402823,-0.009130195,-0.9988009,2017-01-10 13:00:09,31.427260615172777
0.213,0.189,10.776,0.096189715,-0.08619771,0.07713829,40.0,0.16264638,0.17899919,9.803667,0.050353616,0.01000081,0.97233295,-0.007857046,-0.009505242,-0.99882835,2017-01-10 13:00:10,30.729873438076936
0.184,0.179,10.707,0.09459099,-0.08033573,0.069810815,40.0,0.16536367,0.17613307,9.803674,0.018636331,0.0028669387,0.90332603,-0.00797698,-0.009387306,-0.99869853,2017-01-10 13:00:11,30.840096354276454
0.191,0.165,10.685,0.08926193,-0.07607248,0.079269916,40.0,0.17700326,0.17297241,9.803527,0.013996735,-0.007972404,0.88147354,-0.008610239,-0.009225547,-0.99886256,2017-01-10 13:00:12,30.460197269362798
0.217,0.167,10.791,0.1025846,-0.083000265,0.08086864,40.0,0.17577554,0.17149892,9.803575,0.04122445,-0.004498929,0.9874258,-0.008551975,-0.009146832,-0.998868,2017-01-10 13:00:13,29.508112064005903
0.227,0.205,10.745,0.0951239,-0.08140154,0.08193445,40.0,0.176487,0.18121623,9.803388,0.050513,0.023783773,0.94161224,-0.008583621,-0.009627391,-0.9989476,2017-01-10 13:00:14,30.023837621127953
0.21,0.198,10.709,0.09032774,-0.086730614,0.079802826,40.0,0.17900541,0.17713302,9.803416,0.03099458,0.020866975,0.9055834,-0.008672608,-0.009469646,-0.9987095,2017-01-10 13:00:15,29.845584067240946
0.196,0.215,10.755,0.0951239,-0.09086064,0.06288303,40.0,0.17374033,0.18356034,9.803392,0.022259668,0.031439662,0.9516077,-0.008400641,-0.009773254,-0.99876976,2017-01-10 13:00:16,30.27535442193233
0.179,0.198,10.733,0.09885425,-0.086730614,0.08926193,40.0,0.17881672,0.17028005,9.803541,1.8328428E-4,0.027719945,0.9294586,-0.00871266,-0.009089075,-0.9988818,2017-01-10 13:00:17,30.870809236699394
0.165,0.215,10.688,0.09405809,-0.0876632,0.059152678,40.0,0.17627034,0.16231996,9.803722,-0.011270329,0.052680045,0.88427734,-0.008583774,-0.008695104,-0.9987918,2017-01-10 13:00:18,30.56198254393785
0.217,0.208,10.724,0.10991207,-0.09352518,0.09139355,40.0,0.18185596,0.16745701,9.8035345,0.03514403,0.04054299,0.92046547,-0.008872195,-0.008954163,-0.9988722,2017-01-10 13:00:19,33.89425885702631
0.22,0.198,10.774,0.095656805,-0.079802826,0.079269916,40.0,0.17485516,0.17289756,9.803566,0.04514484,0.025102437,0.9704342,-0.008491884,-0.00922508,-0.9988177,2017-01-10 13:00:20,35.21128502671282
0.167,0.229,10.738,0.1031175,-0.086730614,0.0856648,40.0,0.17787184,0.17470802,9.80348,-0.0108718425,0.05429198,0.93451977,-0.008651749,-0.009314768,-0.9988679,2017-01-10 13:00:21,32.809135546894865
0.167,0.205,10.817,0.105648816,-0.087263525,0.06341594,40.0,0.17372553,0.17452018,9.803558,-0.006725535,0.030479819,1.013442,-0.0084178485,-0.009316435,-0.99875295,2017-01-10 13:00:22,33.67921283178811
0.136,0.15,10.793,0.10831335,-0.09778844,0.07607248,40.0,0.17826876,0.18491034,9.803286,-0.042268753,-0.034910336,0.9897146,-0.008632943,-0.0098487735,-0.9987909,2017-01-10 13:00:23,31.62232483555666
0.268,0.169,10.695,0.09459099,-0.08979483,0.070743404,40.0,0.17974606,0.18601182,9.803238,0.088253945,-0.017011821,0.8917618,-0.008706674,-0.009907454,-0.99879515,2017-01-10 13:00:24,30.909994499596106
0.225,0.167,10.752,0.1120437,-0.07873701,0.07873701,40.0,0.17867672,0.17696059,9.803426,0.04632327,-0.009960592,0.94857407,-0.008670121,-0.009447373,-0.9987804,2017-01-10 13:00:25,31.54074315878667
0.16,0.167,10.678,0.09885425,-0.0951239,0.07180922,40.0,0.16715434,0.17496957,9.803664,-0.0071543455,-0.007969573,0.87433624,-0.008074542,-0.009329606,-0.9987165,2017-01-10 13:00:26,32.08753491557536
0.21,0.155,10.712,0.096189715,-0.086730614,0.08140154,40.0,0.16954367,0.17983395,9.803535,0.040456325,-0.024833947,0.90846443,-0.00820206,-0.009567961,-0.99880373,2017-01-10 13:00:27,32.28013042601141
0.277,0.205,10.779,0.112576604,-0.07873701,0.083533175,40.0,0.16521837,0.16961285,9.803791,0.11178164,0.035387143,0.97520924,-0.008009727,-0.009033885,-0.9988279,2017-01-10 13:00:28,33.837839066720115
0.196,0.215,10.779,0.09352518,-0.07660538,0.09405809,40.0,0.16693233,0.17392096,9.803687,0.029067665,0.041079044,0.9753132,-0.008079339,-0.009263901,-0.9987874,2017-01-10 13:00:29,30.865469922309046
0.172,0.21,10.721,0.108846255,-0.08619771,0.07234213,40.0,0.17509617,0.16423611,9.803712,-0.0030961633,0.04576388,0.9172878,-0.008543993,-0.008765872,-0.99892133,2017-01-10 13:00:30,30.572007944037352
0.16,0.136,10.702,0.096189715,-0.08246736,0.07873701,40.0,0.17433394,0.15740162,9.803837,-0.0143339485,-0.021401614,0.89816284,-0.008498596,-0.008438337,-0.9988033,2017-01-10 13:00:31,31.06770224057103
0.244,0.222,10.683,0.1031175,-0.08193445,0.08406608,40.0,0.1693658,0.1705733,9.803703,0.07463421,0.05142671,0.8792963,-0.008225973,-0.009086151,-0.9988629,2017-01-10 13:00:32,31.91068077170319
0.184,0.088,10.695,0.09725553,-0.07287503,0.0856648,40.0,0.17004462,0.17311144,9.803647,0.0139553845,-0.08511144,0.89135265,-0.008227867,-0.00924091,-0.9987238,2017-01-10 13:00:33,36.23526417112893
0.177,0.143,10.724,0.10098588,-0.08459899,0.09086064,40.0,0.17082804,0.17709865,9.803563,0.0061719567,-0.03409864,0.92043686,-0.008271736,-0.009433772,-0.99879277,2017-01-10 13:00:34,35.09708769682416
0.169,0.119,10.702,0.10471623,-0.08086864,0.087263525,40.0,0.17368694,0.1788034,9.803481,-0.0046869367,-0.059803396,0.89851856,-0.008396485,-0.009542308,-0.9987057,2017-01-10 13:00:35,33.276097887334075
0.229,0.21,10.671,0.0876632,-0.08513189,0.07873701,40.0,0.17119783,0.18558393,9.803399,0.05780217,0.02441606,0.86760044,-0.008260802,-0.00987463,-0.99874365,2017-01-10 13:00:36,31.094346796394028
0.189,0.184,10.7,0.09832134,-0.08140154,0.079269916,40.0,0.16457702,0.16996786,9.803796,0.024422973,0.01403214,0.896204,-0.0079672085,-0.00905836,-0.99878085,2017-01-10 13:00:37,31.464510765250708
0.201,0.215,10.707,0.09032774,-0.0776712,0.0776712,40.0,0.16981758,0.17320567,9.80365,0.031182423,0.04179433,0.9033499,-0.008203991,-0.009255862,-0.9986591,2017-01-10 13:00:38,30.30098042968818
0.172,0.191,10.738,0.092992276,-0.096722625,0.07553957,40.0,0.16761476,0.17194511,9.80371,0.004385248,0.01905489,0.93428993,-0.008123044,-0.009161245,-0.99880946,2017-01-10 13:00:39,30.908026707012596
0.186,0.172,10.721,0.09459099,-0.083533175,0.083000265,40.0,0.17364658,0.15854208,9.803831,0.01235342,0.013457924,0.9171686,-0.008454024,-0.008501536,-0.9987648,2017-01-10 13:00:40,31.53621886033385
0.232,0.253,10.688,0.1025846,-0.08619771,0.0876632,40.0,0.17952646,0.15721582,9.803746,0.05247353,0.09578417,0.8842535,-0.008758536,-0.008446631,-0.99877286,2017-01-10 13:00:41,31.793925783456878
0.184,0.124,10.7,0.10151879,-0.08406608,0.07287503,40.0,0.1699536,0.16819946,9.803735,0.014046401,-0.044199467,0.89626503,-0.008231696,-0.008993967,-0.9987053,2017-01-10 13:00:42,30.659683742751767
0.203,0.193,10.755,0.09778844,-0.079802826,0.09086064,40.0,0.1725856,0.17261434,9.803612,0.030414388,0.020385668,0.95138836,-0.008342999,-0.009235995,-0.99863917,2017-01-10 13:00:43,29.542671310142453
0.158,0.263,10.786,0.1120437,-0.09086064,0.07340794,40.0,0.17414188,0.18679592,9.803325,-0.016141877,0.07620409,0.98267555,-0.008415422,-0.009937168,-0.99877876,2017-01-10 13:00:44,29.469849614270007
0.141,0.155,10.795,0.09778844,-0.092459366,0.06927791,40.0,0.15849566,0.16800818,9.803929,-0.017495662,-0.013008177,0.99107075,-0.0076727825,-0.00893463,-0.9988401,2017-01-10 13:00:45,30.668172938603938
0.165,0.253,10.659,0.09725553,-0.08193445,0.08513189,40.0,0.17257264,0.1649509,9.803744,-0.007572636,0.088049084,0.8552561,-0.008429809,-0.008781179,-0.99900204,2017-01-10 13:00:46,31.465443025959505
0.167,0.234,10.791,0.096722625,-0.08193445,0.09139355,40.0,0.1743257,0.17651767,9.803512,-0.007325709,0.057482332,0.98748875,-0.008488622,-0.00937902,-0.9989722,2017-01-10 13:00:47,30.03162960143818
0.184,0.184,10.625,0.099387154,-0.07660538,0.088196106,40.0,0.17426947,0.18421288,9.803371,0.009730533,-2.1287799E-4,0.8216286,-0.008477895,-0.009762964,-0.9990092,2017-01-10 13:00:48,29.65742077762513
0.229,0.225,10.728,0.11044498,-0.08246736,0.088196106,40.0,0.17540304,0.18602146,9.803317,0.05359696,0.038978532,0.9246826,-0.008517864,-0.009869559,-0.9989469,2017-01-10 13:00:49,29.051409050622368
0.143,0.143,10.75,0.09832134,-0.079802826,0.083533175,40.0,0.17604165,0.18635736,9.803299,-0.03304164,-0.043357357,0.94670105,-0.008541429,-0.009895204,-0.9989096,2017-01-10 13:00:50,28.80847213309927
0.205,0.16,10.661,0.09459099,-0.07713829,0.07394085,40.0,0.1681412,0.1713159,9.803712,0.036858797,-0.011315897,0.85728836,-0.008170292,-0.009113536,-0.99890536,2017-01-10 13:00:51,29.240098385304265
0.184,0.155,10.726,0.10991207,-0.0876632,0.08459899,40.0,0.15745011,0.17661697,9.803796,0.02654989,-0.021616966,0.922204,-0.007633246,-0.009342822,-0.9990006,2017-01-10 13:00:52,29.684609441440596
0.148,0.184,10.783,0.11097788,-0.083000265,0.079802826,40.0,0.1583211,0.18118915,9.803698,-0.010321096,0.0028108507,0.9793024,-0.007695059,-0.0095556285,-0.9991175,2017-01-10 13:00:53,29.319936441733155
0.143,0.148,10.704,0.099387154,-0.07873701,0.086730614,40.0,0.16456239,0.17576453,9.803694,-0.021562383,-0.027764529,0.9003067,-0.00799649,-0.009315858,-0.9989935,2017-01-10 13:00:54,29.271636451740886
0.201,0.222,10.747,0.11044498,-0.09032774,0.08926193,40.0,0.16919084,0.17445613,9.803638,0.031809166,0.04754387,0.9433613,-0.008199636,-0.009290874,-0.99881965,2017-01-10 13:00:55,29.767500622569774
0.196,0.165,10.683,0.10471623,-0.08459899,0.09352518,40.0,0.17204042,0.17361356,9.803603,0.023959577,-0.008613557,0.87939644,-0.008330728,-0.0092692645,-0.9987356,2017-01-10 13:00:56,28.995357067116622
0.167,0.213,10.752,0.10618172,-0.06927791,0.08193445,40.0,0.17449471,0.17006303,9.803622,-0.007494718,0.042936966,0.9483776,-0.008458582,-0.009100068,-0.9987041,2017-01-10 13:00:57,28.966390940240046
0.26,0.174,10.685,0.10365041,-0.07340794,0.07607248,40.0,0.17151293,0.1744845,9.803597,0.08848706,-4.8451126E-4,0.88140297,-0.0082547795,-0.009353931,-0.99847806,2017-01-10 13:00:58,29.781996931442404
0.189,0.196,10.767,0.0856648,-0.08872902,0.079802826,40.0,0.16175693,0.17302215,9.803789,0.027243063,0.022977844,0.96321106,-0.0077473214,-0.009265006,-0.9983964,2017-01-10 13:00:59,30.090058027909553
0.241,0.169,10.776,0.09459099,-0.08033573,0.079802826,40.0,0.16600053,0.17228092,9.803732,0.07499947,-0.0032809228,0.9722681,-0.007978911,-0.0092276465,-0.99847436,2017-01-10 13:01:00,30.743207314430315
0.184,0.217,10.747,0.09139355,-0.08459899,0.07287503,40.0,0.16938928,0.17310384,9.8036585,0.014610723,0.043896154,0.94334126,-0.008122205,-0.009302513,-0.9983118,2017-01-10 13:01:01,44.763694459718806
0.227,0.184,10.743,0.095656805,-0.08406608,0.0702105,40.0,0.16975191,0.1735554,9.803645,0.057248086,0.010444596,0.9393549,-0.008116384,-0.009346557,-0.99816877,2017-01-10 13:01:02,30.193486801934768
0.169,0.16,10.695,0.112576604,-0.0876632,0.079802826,40.0,0.1665889,0.17345323,9.8037,0.0024110973,-0.01345323,0.89129925,-0.007950806,-0.009335948,-0.9981391,2017-01-10 13:01:03,30.42640297722319
0.172,0.239,10.692,0.099387154,-0.088196106,0.08140154,40.0,0.17130688,0.18388115,9.80343,6.931275E-4,0.055118844,0.8885708,-0.008167563,-0.009874273,-0.9981822,2017-01-10 13:01:04,31.00377697803686
0.21,0.189,10.683,0.1031175,-0.07873701,0.07713829,40.0,0.17884849,0.17420721,9.803472,0.031151503,0.014792785,0.87952805,-0.008576607,-0.009408031,-0.9981589,2017-01-10 13:01:05,30.711413300996174
0.186,0.215,10.69,0.096722625,-0.07713829,0.0782041,40.0,0.17683761,0.19013475,9.803212,0.009162396,0.024865255,0.8867874,-0.008408018,-0.010227657,-0.9980456,2017-01-10 13:01:06,29.735863557859936
0.174,0.15,10.647,0.0876632,-0.0876632,0.0876632,40.0,0.17563324,0.17247187,9.80356,-0.0016332418,-0.02247186,0.84344006,-0.008418267,-0.009309876,-0.99816173,2017-01-10 13:01:07,35.90325527812306
0.189,0.184,10.764,0.10471623,-0.08459899,0.083533175,40.0,0.1818,0.1747174,9.803408,0.0072000027,0.009282604,0.96059227,-0.008751279,-0.009418878,-0.99831676,2017-01-10 13:01:08,30.996810625276716
0.232,0.232,10.759,0.1031175,-0.0876632,0.08619771,40.0,0.18852521,0.17217748,9.803326,0.04347478,0.059822515,0.9556742,-0.009087651,-0.009322013,-0.9982328,2017-01-10 13:01:09,29.7570369599554
0.196,0.167,10.702,0.096189715,-0.096189715,0.07873701,40.0,0.19340895,0.16683283,9.803323,0.0025910437,1.6716123E-4,0.8986769,-0.009368339,-0.009047562,-0.99833524,2017-01-10 13:01:10,29.347804459314037
0.174,0.21,10.819,0.105115905,-0.091926455,0.079802826,40.0,0.1830605,0.16988069,9.80347,-0.009060502,0.040119305,1.0155306,-0.008827134,-0.0091784345,-0.9983044,2017-01-10 13:01:11,30.8097543196863
0.198,0.203,10.714,0.09139355,-0.08979483,0.092459366,40.0,0.18353842,0.16457035,9.803551,0.014461577,0.038429648,0.910449,-0.009039687,-0.008734024,-0.9992278,2017-01-10 13:01:12,30.2660058717442
0.189,0.196,10.709,0.10778044,-0.08513189,0.079269916,40.0,0.17530431,0.16059858,9.803768,0.013695687,0.03540142,0.9052315,-0.008843446,-0.008291614,-0.9998598,2017-01-10 13:01:13,29.67100664916813
0.146,0.21,10.714,0.095656805,-0.08513189,0.08872902,40.0,0.17420375,0.16642402,9.80369,-0.028203756,0.043575972,0.9103098,-0.008780921,-0.008591062,-0.99985373,2017-01-10 13:01:14,30.858323207112424
0.189,0.222,10.709,0.09725553,-0.10205169,0.079269916,40.0,0.17116873,0.16650245,9.803742,0.017831266,0.055497557,0.9052572,-0.008604916,-0.008614439,-0.9998227,2017-01-10 13:01:15,30.46190021561393
0.251,0.205,10.709,0.09139355,-0.09459099,0.0702105,40.0,0.1742296,0.17734015,9.803498,0.07677038,0.027659848,0.90550137,-0.008714634,-0.009205846,-0.9997475,2017-01-10 13:01:16,29.442412687757205
0.174,0.167,10.69,0.08926193,-0.086730614,0.083533175,40.0,0.1665397,0.18379374,9.803513,0.007460296,-0.016793743,0.886487,-0.008314797,-0.00952905,-0.9997446,2017-01-10 13:01:17,29.573307288899045
0.136,0.196,10.714,0.10991207,-0.09405809,0.08140154,40.0,0.16881524,0.17287154,9.803673,-0.032815233,0.02312845,0.91032696,-0.008371784,-0.009039156,-0.99957466,2017-01-10 13:01:18,28.841959630991223
0.258,0.177,10.747,0.10205169,-0.0782041,0.079269916,40.0,0.16929844,0.16912977,9.80373,0.088701546,0.007870227,0.9432697,-0.008359038,-0.008889141,-0.9994382,2017-01-10 13:01:19,29.480117093400313
0.146,0.181,10.721,0.088196106,-0.0856648,0.091926455,40.0,0.16826662,0.1702923,9.803727,-0.022266626,0.010707691,0.91727257,-0.008255646,-0.008991942,-0.9992529,2017-01-10 13:01:20,29.806322061091805
0.196,0.162,10.69,0.10151879,-0.07607248,0.079269916,40.0,0.17089005,0.17173815,9.803657,0.025109947,-0.009738147,0.886343,-0.008328887,-0.009123591,-0.99899817,2017-01-10 13:01:21,29.74868761072802
0.165,0.217,10.692,0.09405809,-0.083000265,0.08979483,40.0,0.16286992,0.17535615,9.803729,0.0021300912,0.041643843,0.88827133,-0.0078934105,-0.0093064075,-0.9989103,2017-01-10 13:01:22,29.953790431501194
0.225,0.169,10.724,0.10151879,-0.08872902,0.09139355,40.0,0.17141503,0.18394221,9.803427,0.053584963,-0.014942214,0.92057323,-0.008248175,-0.0098149255,-0.9986032,2017-01-10 13:01:23,29.76086450212495
0.177,0.215,10.755,0.083533175,-0.09459099,0.09086064,40.0,0.17664528,0.1930868,9.803158,3.5472214E-4,0.0219132,0.9518423,-0.00844858,-0.0103289075,-0.99837893,2017-01-10 13:01:24,30.555404245769466
0.155,0.234,10.709,0.092992276,-0.08872902,0.0876632,40.0,0.17320502,0.19812147,9.803119,-0.018205017,0.035878524,0.9058809,-0.008240261,-0.010590324,-0.9982771,2017-01-10 13:01:25,30.967266715061378
0.198,0.193,10.805,0.088196106,-0.07287503,0.086730614,40.0,0.1753556,0.18748258,9.803289,0.0226444,0.005517423,1.0017109,-0.008358482,-0.010073423,-0.9981529,2017-01-10 13:01:26,29.908920643582153
0.162,0.208,10.757,0.09139355,-0.08619771,0.0776712,40.0,0.16246127,0.18488942,9.803561,-4.6126544E-4,0.023110583,0.95343876,-0.007707863,-0.009903975,-0.99814737,2017-01-10 13:01:27,29.889568728706877
0.189,0.141,10.747,0.09885425,-0.08513189,0.0782041,40.0,0.16470557,0.18506548,9.80352,0.024294421,-0.044065475,0.94347954,-0.0078107426,-0.009928289,-0.9980808,2017-01-10 13:01:28,30.232103475255983
0.193,0.215,10.704,0.092459366,-0.07660538,0.08406608,40.0,0.16942781,0.17677978,9.803593,0.023572192,0.038220227,0.9004078,-0.008073973,-0.009523462,-0.9980653,2017-01-10 13:01:29,30.249279978836306
0.169,0.179,10.757,0.11151079,-0.07713829,0.071276315,40.0,0.17296167,0.16356653,9.803761,-0.0039616674,0.015433475,0.95323944,-0.008292186,-0.008864387,-0.9980513,2017-01-10 13:01:30,30.34091420589681
0.203,0.222,10.752,0.092992276,-0.08619771,0.088196106,40.0,0.16845383,0.16467799,9.80382,0.034546167,0.05732201,0.9481802,-0.008054131,-0.008911529,-0.9980173,2017-01-10 13:01:31,30.275945501316023
0.191,0.21,10.707,0.0876632,-0.0951239,0.07234213,40.0,0.16710712,0.16439642,9.803848,0.02389288,0.045603573,0.9031515,-0.007988941,-0.008890736,-0.998035,2017-01-10 13:01:32,29.256462939927093
0.213,0.203,10.716,0.09032774,-0.07180922,0.086730614,40.0,0.17049369,0.15416808,9.803956,0.042506307,0.04883191,0.9120436,-0.008202961,-0.00837138,-0.99810773,2017-01-10 13:01:33,29.405963640591935
0.196,0.26,10.623,0.099920064,-0.08619771,0.07180922,40.0,0.17135423,0.15663022,9.803902,0.02464576,0.10336977,0.8190985,-0.008248098,-0.008490711,-0.9981691,2017-01-10 13:01:34,29.30903658858369
0.141,0.167,10.704,0.099387154,-0.086730614,0.075006664,40.0,0.18323462,0.16195427,9.8036,-0.042234614,0.005045727,0.90040016,-0.008825189,-0.0088093225,-0.99808246,2017-01-10 13:01:35,29.970015657608343
0.179,0.148,10.712,0.09885425,-0.08246736,0.08459899,40.0,0.18486385,0.16600473,9.803502,-0.0058638453,-0.01800473,0.9084978,-0.008912164,-0.00900418,-0.9981896,2017-01-10 13:01:36,28.70556205842542
0.136,0.138,10.75,0.1031175,-0.079802826,0.08193445,40.0,0.1856717,0.16753596,9.803461,-0.049671695,-0.029535964,0.9465389,-0.008936163,-0.009096888,-0.9981066,2017-01-10 13:01:37,29.033050399225708
0.201,0.179,10.692,0.09032774,-0.08140154,0.083000265,40.0,0.17225322,0.16903184,9.80368,0.028746784,0.009968162,0.88831997,-0.008239627,-0.009139863,-0.9980528,2017-01-10 13:01:38,28.76507067874425
0.158,0.129,10.68,0.100452974,-0.086730614,0.06448175,40.0,0.17355394,0.17248459,9.803597,-0.015553936,-0.0434846,0.87640285,-0.008285946,-0.009327782,-0.9979903,2017-01-10 13:01:39,28.982597169412085
0.21,0.208,10.69,0.10365041,-0.087263525,0.083533175,40.0,0.17025612,0.17108828,9.803679,0.03974387,0.036911726,0.8863201,-0.008118019,-0.009250208,-0.9979621,2017-01-10 13:01:40,28.968007563798388
0.217,0.222,10.697,0.09352518,-0.075006664,0.091926455,40.0,0.1781031,0.18153678,9.803351,0.03889689,0.040463224,0.89364815,-0.008477673,-0.009812585,-0.9979128,2017-01-10 13:01:41,28.785832206143933
0.184,0.155,10.731,0.096189715,-0.09032774,0.07660538,40.0,0.18615595,0.18705699,9.803099,-0.0021559447,-0.032056987,0.92790127,-0.008898141,-0.010094554,-0.9980804,2017-01-10 13:01:42,28.520216831064722
0.193,0.117,10.64,0.09352518,-0.07553957,0.0856648,40.0,0.18827435,0.16947475,9.803378,0.00472565,-0.052474752,0.83662224,-0.00909064,-0.009175979,-0.99828285,2017-01-10 13:01:43,28.700021814214264
0.196,0.203,10.757,0.0951239,-0.08459899,0.07447375,40.0,0.18562669,0.16827738,9.803449,0.010373309,0.03472261,0.9535513,-0.008964975,-0.0091017345,-0.9983199,2017-01-10 13:01:44,28.74465821051504
0.205,0.193,10.637,0.09086064,-0.075006664,0.079269916,40.0,0.17510022,0.1729651,9.803561,0.029899776,0.02003491,0.8334389,-0.008415378,-0.009310174,-0.99832165,2017-01-10 13:01:45,28.91990464362997
0.191,0.196,10.685,0.09725553,-0.088196106,0.07607248,40.0,0.16241653,0.17519999,9.80374,0.028583467,0.02080001,0.8812609,-0.007754401,-0.009394605,-0.9982728,2017-01-10 13:01:46,28.794242069222143
0.179,0.186,10.649,0.09725553,-0.08406608,0.07234213,40.0,0.16158563,0.18228552,9.803624,0.017414376,0.003714487,0.845376,-0.0077004745,-0.009745694,-0.99832314,2017-01-10 13:01:47,29.16872207906028
0.181,0.174,10.666,0.09725553,-0.09086064,0.0876632,40.0,0.1547741,0.18124723,9.803753,0.026225895,-0.0072472394,0.86224747,-0.0073468448,-0.009680639,-0.9982685,2017-01-10 13:01:48,28.886867099370008
0.181,0.179,10.738,0.099387154,-0.079802826,0.07873701,40.0,0.16557898,0.18277481,9.803548,0.015421018,-0.0037748069,0.93445206,-0.007897157,-0.009786345,-0.998291,2017-01-10 13:01:49,29.03807077943497
0.189,0.167,10.745,0.092992276,-0.087263525,0.08459899,40.0,0.16647807,0.18075228,9.803571,0.022521928,-0.013752282,0.94142914,-0.007976459,-0.009663239,-0.9984505,2017-01-10 13:01:50,28.567061798382692
0.184,0.181,10.731,0.09885425,-0.087263525,0.095656805,40.0,0.1640799,0.18159069,9.8035965,0.019920096,-5.9069693E-4,0.92740345,-0.007848589,-0.009702079,-0.9984319,2017-01-10 13:01:51,28.39364331425036
0.234,0.148,10.836,0.105115905,-0.08979483,0.07660538,40.0,0.18005137,0.1838871,9.803273,0.053948626,-0.035887092,1.0327272,-0.008683362,-0.009838951,-0.9985743,2017-01-10 13:01:52,29.41982726517469
0.162,0.237,10.75,0.10418332,-0.08459899,0.075006664,40.0,0.17266446,0.17786495,9.803517,-0.010664463,0.05913505,0.94648266,-0.008319597,-0.009515759,-0.9985617,2017-01-10 13:01:53,29.007178827061473
0.146,0.21,10.704,0.092992276,-0.08406608,0.083000265,40.0,0.170339,0.18570206,9.8034115,-0.024339005,0.024297938,0.900589,-0.008169739,-0.009917453,-0.9985025,2017-01-10 13:01:54,29.47283747637521
0.179,0.191,10.793,0.0876632,-0.08459899,0.07873701,40.0,0.17201188,0.19103739,9.803281,0.006988123,-3.7387013E-5,0.9897194,-0.008250253,-0.010185776,-0.99854976,2017-01-10 13:01:55,28.681977107199454
0.191,0.169,10.695,0.09032774,-0.08619771,0.075006664,40.0,0.16698234,0.18820281,9.803422,0.024017662,-0.019202814,0.8915777,-0.008015908,-0.010016626,-0.9986266,2017-01-10 13:01:56,29.010989781676617
0.177,0.198,10.798,0.0951239,-0.096189715,0.06394884,40.0,0.17241617,0.18552418,9.803379,0.0045838356,0.012475818,0.9946213,-0.008307154,-0.00988794,-0.9986641,2017-01-10 13:01:57,30.0890671583703
0.172,0.153,10.791,0.10098588,-0.079802826,0.0856648,40.0,0.16345358,0.18729922,9.803499,0.008546427,-0.034299225,0.98750114,-0.007855988,-0.009947693,-0.99871606,2017-01-10 13:01:58,29.232495857458535
0.184,0.181,10.771,0.0951239,-0.083000265,0.0876632,40.0,0.16281292,0.1717011,9.803796,0.021187082,0.009298891,0.9672041,-0.007852766,-0.009159826,-0.99867195,2017-01-10 13:01:59,29.42474208855024
0.169,0.189,10.74,0.11097788,-0.092992276,0.088196106,40.0,0.1546592,0.1641174,9.804056,0.014340803,0.0248826,0.9359436,-0.0074625295,-0.0087479,-0.9987108,2017-01-10 13:02:00,29.105416840287
0.165,0.225,10.716,0.10205169,-0.095656805,0.08619771,40.0,0.14918777,0.17161465,9.804014,0.015812233,0.053385347,0.9119854,-0.00717727,-0.0091062635,-0.9987755,2017-01-10 13:02:01,29.33671625362859
0.198,0.222,10.719,0.09778844,-0.08246736,0.07234213,40.0,0.15565896,0.16722666,9.803988,0.04234104,0.054773346,0.9150114,-0.0075193103,-0.008897226,-0.99878395,2017-01-10 13:02:02,29.104512592694082
0.201,0.263,10.714,0.113109514,-0.08246736,0.08406608,40.0,0.16498187,0.17119892,9.803767,0.036018133,0.09180109,0.91023254,-0.008009362,-0.00910052,-0.9989054,2017-01-10 13:02:03,29.40215925131203
0.16,0.191,10.759,0.08513189,-0.08513189,0.08246736,40.0,0.16965266,0.18286759,9.803477,-0.009652659,0.008132413,0.95552254,-0.0082305055,-0.009697205,-0.99894434,2017-01-10 13:02:04,29.51884278991722
0.184,0.205,10.733,0.08872902,-0.088196106,0.07607248,40.0,0.17086338,0.1835531,9.803444,0.013136625,0.021446899,0.9295559,-0.008277912,-0.009745689,-0.99888486,2017-01-10 13:02:05,29.746926800159255
0.153,0.184,10.68,0.09352518,-0.08619771,0.079269916,40.0,0.17902079,0.17413512,9.80347,-0.026020795,0.009864882,0.87653065,-0.008728269,-0.009272626,-0.9989483,2017-01-10 13:02:06,29.649756845882518
0.181,0.196,10.767,0.092992276,-0.083000265,0.0856648,40.0,0.18365224,0.17940897,9.803288,-0.0026522428,0.016591027,0.96371174,-0.008969737,-0.009535437,-0.9990221,2017-01-10 13:02:07,29.03259865117255
0.179,0.196,10.671,0.09459099,-0.091926455,0.088196106,40.0,0.19002128,0.17665428,9.803218,-0.011021271,0.019345716,0.86778164,-0.009310022,-0.009399071,-0.999064,2017-01-10 13:02:08,28.916200679899905
0.15,0.222,10.733,0.09032774,-0.086730614,0.0776712,40.0,0.18586309,0.17492113,9.8033285,-0.035863087,0.047078878,0.9296713,-0.009074839,-0.009328308,-0.9989435,2017-01-10 13:02:09,28.446344462597434
0.162,0.143,10.712,0.09725553,-0.07394085,0.07287503,40.0,0.18480684,0.17304537,9.803382,-0.022806838,-0.03004536,0.908618,-0.009060874,-0.009195386,-0.999108,2017-01-10 13:02:10,29.178201488915775
0.179,0.253,10.69,0.099387154,-0.087263525,0.07180922,40.0,0.17962179,0.1728822,9.80348,-6.2178075E-4,0.08011779,0.88651943,-0.008805271,-0.009168497,-0.9991463,2017-01-10 13:02:11,28.990178673632396
0.213,0.193,10.788,0.092992276,-0.08513189,0.0856648,40.0,0.18390222,0.17628732,9.803341,0.02909778,0.01671268,0.9846592,-0.009025237,-0.0093422355,-0.99917877,2017-01-10 13:02:12,29.786167890556207
0.222,0.253,10.721,0.08872902,-0.096189715,0.08459899,40.0,0.17541811,0.18727265,9.803292,0.046581894,0.06572734,0.91770744,-0.008561301,-0.009894171,-0.9991376,2017-01-10 13:02:13,29.531123032674174
0.22,0.174,10.709,0.10205169,-0.08459899,0.07660538,40.0,0.16799963,0.17342933,9.803677,0.052000374,5.7066977E-4,0.905323,-0.00818809,-0.00919436,-0.9990456,2017-01-10 13:02:14,29.070108119429996
0.134,0.203,10.74,0.105115905,-0.08193445,0.0776712,40.0,0.1631563,0.15992431,9.803988,-0.029156297,0.04307568,0.9360113,-0.007996326,-0.008471293,-0.9991782,2017-01-10 13:02:15,29.93552039547428
0.179,0.174,10.781,0.10418332,-0.086730614,0.08406608,40.0,0.16734639,0.17318518,9.803693,0.011653617,8.148104E-4,0.9773073,-0.008169789,-0.009167656,-0.9991109,2017-01-10 13:02:16,29.158992881331862
0.193,0.191,10.716,0.09885425,-0.09032774,0.08459899,40.0,0.16813314,0.17397283,9.803665,0.024866864,0.01702717,0.91233444,-0.008205023,-0.009212294,-0.9990959,2017-01-10 13:02:17,33.232451490510606
0.208,0.196,10.74,0.113109514,-0.08406608,0.07713829,40.0,0.1665204,0.1642146,9.803861,0.041479602,0.0317854,0.9361391,-0.008126417,-0.008727276,-0.9990214,2017-01-10 13:02:18,36.65498243932324
0.201,0.249,10.738,0.1031175,-0.09405809,0.07660538,40.0,0.1630695,0.17582272,9.803718,0.037930503,0.07317728,0.9342823,-0.0079449825,-0.009294496,-0.99910504,2017-01-10 13:02:19,34.8111419960094
0.21,0.158,10.668,0.099920064,-0.087263525,0.079269916,40.0,0.16454771,0.16451257,9.803889,0.04545228,-0.0065125674,0.86411095,-0.008009855,-0.008752297,-0.99894553,2017-01-10 13:02:20,41.120581338863
0.205,0.169,10.743,0.09459099,-0.09459099,0.083000265,40.0,0.16999815,0.15483935,9.803954,0.035001844,0.014160648,0.9390459,-0.008313737,-0.008267465,-0.99897045,2017-01-10 13:02:21,28.76698370711363
0.141,0.205,10.728,0.10778044,-0.08246736,0.0856648,40.0,0.17086606,0.15847178,9.803881,-0.029866055,0.04652822,0.924119,-0.008345949,-0.008458302,-0.99894834,2017-01-10 13:02:22,29.577570110327727
0.191,0.179,10.726,0.096189715,-0.08033573,0.0702105,40.0,0.16483077,0.16267315,9.803915,0.026169226,0.01632686,0.9220848,-0.008029076,-0.008658632,-0.99894947,2017-01-10 13:02:23,30.040644138365195
0.205,0.241,10.716,0.092992276,-0.096722625,0.08086864,40.0,0.16660589,0.17570874,9.80366,0.03839411,0.065291256,0.9123392,-0.00810045,-0.009317754,-0.9989915,2017-01-10 13:02:24,29.556676712819208
0.184,0.217,10.762,0.08926193,-0.08033573,0.08619771,40.0,0.16842407,0.16865142,9.803753,0.0155759305,0.048348576,0.9582472,-0.008215266,-0.008956098,-0.9990257,2017-01-10 13:02:25,30.32844431694147
0.169,0.203,10.745,0.096189715,-0.083000265,0.06554756,40.0,0.16972607,0.1669706,9.80376,-7.26074E-4,0.0360294,0.9412403,-0.008290814,-0.00886807,-0.9990524,2017-01-10 13:02:26,29.985779470329522
0.205,0.141,10.704,0.09459099,-0.07873701,0.08086864,40.0,0.1720494,0.16827373,9.803697,0.032950595,-0.02727373,0.90030384,-0.008402015,-0.008943558,-0.9990301,2017-01-10 13:02:27,29.558139568860252
0.203,0.165,10.666,0.10365041,-0.08619771,0.07713829,40.0,0.17439993,0.16512793,9.803708,0.028600067,-1.2792647E-4,0.8622923,-0.008528389,-0.008788513,-0.99902964,2017-01-10 13:02:28,30.552089880886708
0.177,0.198,10.709,0.087263525,-0.08406608,0.0702105,40.0,0.18042982,0.17938744,9.8033495,-0.0034298152,0.018612564,0.90565014,-0.008782581,-0.009548615,-0.99891883,2017-01-10 13:02:29,28.965750580175627
0.196,0.177,10.707,0.096189715,-0.087263525,0.066080466,40.0,0.18413667,0.1851483,9.803173,0.011863321,-0.008148298,0.9038267,-0.008984339,-0.009826834,-0.9990289,2017-01-10 13:02:30,29.843843430433758
0.198,0.153,10.819,0.10365041,-0.08033573,0.07234213,40.0,0.17728016,0.18180977,9.803362,0.020719841,-0.028809771,1.0156384,-0.008631436,-0.009651606,-0.9989864,2017-01-10 13:02:31,30.08263243334376
0.227,0.172,10.759,0.095656805,-0.09139355,0.07340794,40.0,0.1741714,0.17183329,9.803597,0.052828595,1.6671419E-4,0.9554024,-0.008499025,-0.009132695,-0.9990116,2017-01-10 13:02:32,29.6717317137691
0.217,0.165,10.731,0.10991207,-0.08140154,0.08140154,40.0,0.17932056,0.16682239,9.803592,0.037679434,-0.0018223822,0.9274082,-0.0087689,-0.008891927,-0.9989953,2017-01-10 13:02:33,31.09218377078544
0.181,0.193,10.738,0.10671463,-0.0776712,0.0856648,40.0,0.17208393,0.17629099,9.8035555,0.008916065,0.016709015,0.9344444,-0.008380122,-0.009357826,-0.9989974,2017-01-10 13:02:34,29.018431542470044
0.169,0.222,10.759,0.1031175,-0.07234213,0.08926193,40.0,0.17368166,0.17622186,9.803528,-0.0046816617,0.04577814,0.955472,-0.008484869,-0.009336786,-0.9991002,2017-01-10 13:02:35,30.215959567576995
0.227,0.131,10.781,0.096722625,-0.091926455,0.086730614,40.0,0.17787476,0.18019234,9.803381,0.04912524,-0.04919234,0.9776192,-0.008657453,-0.009577593,-0.9989513,2017-01-10 13:02:36,29.404982456287705
0.239,0.186,10.764,0.10205169,-0.08619771,0.07553957,40.0,0.17402719,0.173519,9.803571,0.0649728,0.012481004,0.9604292,-0.008493053,-0.0092136245,-0.99903405,2017-01-10 13:02:37,29.568975879126782
0.181,0.184,10.767,0.11524114,-0.08033573,0.08619771,40.0,0.17580503,0.17957306,9.80343,0.005194962,0.0044269413,0.9635706,-0.008542771,-0.00955091,-0.99890304,2017-01-10 13:02:38,28.423684750354386
0.146,0.205,10.757,0.09459099,-0.08872902,0.07873701,40.0,0.17514446,0.19048049,9.803235,-0.029144466,0.014519513,0.9537649,-0.008495879,-0.010095159,-0.99894994,2017-01-10 13:02:39,28.536732630769343
0.169,0.213,10.735,0.095656805,-0.08246736,0.08619771,40.0,0.17412297,0.18582264,9.803343,-0.0051229745,0.027177364,0.93165684,-0.008426415,-0.009879371,-0.998825,2017-01-10 13:02:40,28.477890307547998
0.162,0.21,10.702,0.1120437,-0.092459366,0.07660538,40.0,0.17372945,0.17739998,9.803507,-0.011729449,0.032600015,0.8984928,-0.008429592,-0.009446536,-0.9988449,2017-01-10 13:02:41,28.860356640617386
0.213,0.275,10.74,0.113109514,-0.087263525,0.083533175,40.0,0.17621459,0.1880544,9.803263,0.03678541,0.08694561,0.93673706,-0.008532199,-0.009994167,-0.9988441,2017-01-10 13:02:42,29.154728769447395
0.237,0.169,10.704,0.09885425,-0.079269916,0.09778844,40.0,0.17120002,0.17617081,9.803574,0.06579998,-0.0071708113,0.90042686,-0.008312088,-0.009370452,-0.99888796,2017-01-10 13:02:43,29.104519108119575
0.165,0.172,10.75,0.09778844,-0.08459899,0.07340794,40.0,0.1674152,0.17148365,9.803721,-0.002415195,5.1635504E-4,0.9462786,-0.008160509,-0.009095734,-0.99903774,2017-01-10 13:02:44,28.80205174117738
0.165,0.184,10.685,0.1200373,-0.07394085,0.069810815,40.0,0.16421932,0.17511033,9.803711,7.8068674E-4,0.008889675,0.8812895,-0.007981487,-0.009280879,-0.9989988,2017-01-10 13:02:45,29.096895894796955
0.174,0.117,10.719,0.09352518,-0.08246736,0.08513189,40.0,0.16618021,0.17702214,9.803644,0.007819787,-0.060022146,0.9153557,-0.008091993,-0.009369835,-0.9990637,2017-01-10 13:02:46,28.50724142257733
0.213,0.205,10.8,0.11577405,-0.08459899,0.079802826,40.0,0.16897126,0.17650011,9.803605,0.044028744,0.028499886,0.9963951,-0.008221054,-0.009361674,-0.99899846,2017-01-10 13:02:47,28.439263559540812
0.217,0.217,10.683,0.095656805,-0.09086064,0.083000265,40.0,0.16859704,0.18051991,9.803538,0.04840295,0.036480084,0.8794613,-0.00821591,-0.009546148,-0.9990961,2017-01-10 13:02:48,28.935691610770515
0.205,0.165,10.762,0.086730614,-0.086730614,0.08246736,40.0,0.17889313,0.1729909,9.803493,0.026106864,-0.007990897,0.95850754,-0.008771113,-0.009169524,-0.9991602,2017-01-10 13:02:49,28.67145109356924
0.253,0.124,10.757,0.092459366,-0.0876632,0.0856648,40.0,0.17107122,0.170888,9.803669,0.081928775,-0.04688801,0.953331,-0.008428156,-0.008998895,-0.9993706,2017-01-10 13:02:50,28.37210083087634
0.179,0.198,10.728,0.0856648,-0.083533175,0.09352518,40.0,0.16901714,0.18158543,9.803512,0.009982869,0.016414568,0.92448807,-0.0082699265,-0.009571341,-0.9992363,2017-01-10 13:02:51,28.482370905508255
0.217,0.21,10.712,0.092992276,-0.08872902,0.075006664,40.0,0.17496769,0.17871599,9.80346,0.0420323,0.031284004,0.9085398,-0.008520498,-0.009488817,-0.9989893,2017-01-10 13:02:52,28.657187385356725
0.165,0.186,10.733,0.09139355,-0.083533175,0.083533175,40.0,0.1807079,0.17475042,9.803428,-0.015707895,0.011249587,0.9295721,-0.008808823,-0.009311569,-0.9989282,2017-01-10 13:02:53,29.194481416993142
0.155,0.198,10.767,0.091926455,-0.08086864,0.07607248,40.0,0.17436314,0.17706445,9.803501,-0.019363135,0.02093555,0.96349907,-0.008455355,-0.009437499,-0.9988085,2017-01-10 13:02:54,29.630507622001822
0.234,0.177,10.745,0.105115905,-0.083000265,0.07287503,40.0,0.17587745,0.17048784,9.80359,0.058122545,0.006512165,0.94141006,-0.008518311,-0.009134178,-0.99865067,2017-01-10 13:02:55,29.141535292907434
0.217,0.119,10.668,0.092459366,-0.09086064,0.08872902,40.0,0.17545691,0.17947276,9.803437,0.04154308,-0.060472757,0.864563,-0.008462783,-0.009600443,-0.9985881,2017-01-10 13:02:56,29.092779407393646
0.196,0.191,10.652,0.08193445,-0.08459899,0.06927791,40.0,0.17842673,0.1818046,9.803341,0.017573267,0.009195402,0.8486595,-0.008628442,-0.009708802,-0.99869233,2017-01-10 13:02:57,28.754402574162434
0.215,0.217,10.788,0.09139355,-0.08459899,0.07713829,40.0,0.18262245,0.17647655,9.803362,0.032377556,0.04052344,0.9846382,-0.0088303555,-0.009471584,-0.99855757,2017-01-10 13:02:58,29.200144800761887
0.239,0.172,10.664,0.099920064,-0.09032774,0.075006664,40.0,0.18117319,0.17881095,9.803346,0.057826802,-0.0068109483,0.8606539,-0.008725,-0.009609692,-0.99841607,2017-01-10 13:02:59,29.34289672030829
0.215,0.208,10.712,0.1025846,-0.099920064,0.08193445,40.0,0.18563975,0.17187251,9.803386,0.02936025,0.036127493,0.90861416,-0.008956626,-0.009283523,-0.9983264,2017-01-10 13:03:00,29.431833218495655
0.193,0.196,10.767,0.10471623,-0.08246736,0.08513189,40.0,0.19156067,0.17950931,9.803136,0.001439333,0.016490683,0.9638643,-0.009213414,-0.009711019,-0.99818504,2017-01-10 13:03:01,29.311187934272777
0.186,0.22,10.683,0.091926455,-0.086730614,0.08086864,40.0,0.1819377,0.19220291,9.803078,0.00406231,0.027797088,0.8799219,-0.0086814305,-0.0103318505,-0.9981599,2017-01-10 13:03:02,28.678984390894428
0.184,0.225,10.731,0.10418332,-0.09832134,0.07607248,40.0,0.18119404,0.18632454,9.8032055,0.0028059632,0.038675457,0.92779446,-0.008644281,-0.010045004,-0.99806166,2017-01-10 13:03:03,28.591292048156337
0.208,0.126,10.63,0.1025846,-0.08459899,0.07394085,40.0,0.18296191,0.17306288,9.803416,0.025038093,-0.047062874,0.82658386,-0.008779198,-0.0093718525,-0.998092,2017-01-10 13:03:04,28.86875425969245
0.213,0.241,10.707,0.09885425,-0.088196106,0.061284307,40.0,0.18126412,0.16654375,9.80356,0.031735882,0.074456245,0.9034395,-0.008726962,-0.009021138,-0.99818903,2017-01-10 13:03:05,28.767690666331198
0.191,0.213,10.747,0.09778844,-0.08193445,0.08033573,40.0,0.16972104,0.18036985,9.803522,0.021278962,0.032630146,0.94347763,-0.008080481,-0.009704841,-0.99808055,2017-01-10 13:03:06,28.970262031102894
0.172,0.189,10.621,0.096189715,-0.087263525,0.08926193,40.0,0.16173053,0.18414536,9.803587,0.010269478,0.0048546344,0.81741333,-0.0076909694,-0.009849813,-0.9982554,2017-01-10 13:03:07,28.707992617492053
0.179,0.165,10.743,0.10671463,-0.07180922,0.083533175,40.0,0.16860259,0.17496598,9.803639,0.010397419,-0.009965971,0.9393606,-0.008066123,-0.0094041815,-0.9982464,2017-01-10 13:03:08,29.303323081187138
0.155,0.21,10.652,0.1031175,-0.092459366,0.0782041,40.0,0.16560987,0.17136326,9.803754,-0.010609865,0.03863673,0.8482466,-0.007934903,-0.009202874,-0.99831474,2017-01-10 13:03:09,28.435135042749447
0.16,0.198,10.731,0.095656805,-0.079269916,0.07447375,40.0,0.16680273,0.1832813,9.803518,-0.0068027377,0.0147186965,0.92748165,-0.007961074,-0.009813196,-0.99830806,2017-01-10 13:03:10,29.233464927332964
0.234,0.246,10.7,0.095656805,-0.0702105,0.0782041,40.0,0.15977408,0.17565484,9.803776,0.07422592,0.07034516,0.896224,-0.0076394444,-0.009393048,-0.99839896,2017-01-10 13:03:11,29.179205804172987
0.244,0.153,10.599,0.092459366,-0.09405809,0.07873701,40.0,0.16433595,0.16872515,9.803822,0.07966405,-0.01572515,0.7951784,-0.00789647,-0.009048504,-0.99843204,2017-01-10 13:03:12,36.64979599201646
0.148,0.198,10.752,0.09352518,-0.09352518,0.07447375,40.0,0.16653197,0.17127237,9.8037405,-0.018531963,0.026727632,0.94825935,-0.008019996,-0.009167914,-0.99854,2017-01-10 13:03:13,34.03207850056076
0.208,0.117,10.781,0.1025846,-0.079269916,0.08086864,40.0,0.16999048,0.17784923,9.803563,0.038009524,-0.060849234,0.977437,-0.008188349,-0.0095036365,-0.9985895,2017-01-10 13:03:14,28.926785923781043
0.174,0.215,10.755,0.10098588,-0.09139355,0.08406608,40.0,0.16433156,0.18370469,9.803553,0.00966844,0.031295314,0.9514475,-0.007903214,-0.009772047,-0.9986847,2017-01-10 13:03:15,29.53568231352542
0.225,0.201,10.745,0.091926455,-0.08979483,0.07607248,40.0,0.16741776,0.1690493,9.803763,0.05758223,0.031950712,0.9412365,-0.008108836,-0.009023285,-0.9987518,2017-01-10 13:03:16,32.16245948359476
0.181,0.205,10.695,0.108846255,-0.08619771,0.07873701,40.0,0.18265009,0.16603887,9.803543,-0.001650095,0.038961127,0.8914566,-0.0089380555,-0.00886154,-0.99898344,2017-01-10 13:03:17,41.216455003803425
0.225,0.277,10.771,0.0951239,-0.099920064,0.08513189,40.0,0.17962047,0.17275837,9.803483,0.04537952,0.10424164,0.9675169,-0.008760095,-0.009205562,-0.99894,2017-01-10 13:03:18,38.985326803665444
0.146,0.179,10.771,0.10471623,-0.09459099,0.083533175,40.0,0.18074793,0.18837835,9.803175,-0.03474793,-0.009378344,0.96782494,-0.008794182,-0.00999347,-0.99898374,2017-01-10 13:03:19,30.403573809190068
0.11,0.148,10.659,0.10724754,-0.09459099,0.07660538,40.0,0.1743319,0.18885657,9.803282,-0.064331904,-0.04085657,0.8557186,-0.008452869,-0.010015031,-0.99892795,2017-01-10 13:03:20,30.272956441611925
0.193,0.184,10.671,0.099387154,-0.0782041,0.08872902,40.0,0.17017193,0.17657267,9.803583,0.022828072,0.007427335,0.8674164,-0.008292947,-0.009358377,-0.99904716,2017-01-10 13:03:21,29.344628191310754
0.201,0.155,10.738,0.0951239,-0.08246736,0.079269916,40.0,0.1665936,0.17634521,9.803649,0.03440641,-0.021345213,0.93435097,-0.008160371,-0.009296137,-0.999256,2017-01-10 13:03:22,29.388013190076848
0.193,0.222,10.774,0.11417533,-0.079802826,0.07340794,40.0,0.17691006,0.1600452,9.803748,0.016089946,0.061954796,0.97025204,-0.00878159,-0.008417266,-0.9995105,2017-01-10 13:03:23,29.410798236567544
0.198,0.246,10.752,0.099920064,-0.092459366,0.07553957,40.0,0.16407318,0.18289073,9.803572,0.033926815,0.06310928,0.94842815,-0.008096973,-0.0095601315,-0.99951565,2017-01-10 13:03:24,28.91739668592844
0.227,0.153,10.771,0.11044498,-0.083533175,0.07660538,40.0,0.1719108,0.18337671,9.803429,0.055089206,-0.030376717,0.96757126,-0.008446671,-0.009639572,-0.9993535,2017-01-10 13:03:25,28.739021648636967
0.222,0.201,10.798,0.088196106,-0.08513189,0.08193445,40.0,0.16272607,0.18111715,9.803627,0.05927393,0.019882858,0.9943733,-0.007927149,-0.009554782,-0.99914694,2017-01-10 13:03:26,35.9828653700358
0.181,0.205,10.735,0.1025846,-0.079269916,0.08872902,40.0,0.1713322,0.1924841,9.803264,0.009667799,0.0125159025,0.931736,-0.008331967,-0.010160268,-0.9990947,2017-01-10 13:03:27,32.255109423087035
0.213,0.131,10.743,0.10471623,-0.087263525,0.07713829,40.0,0.17264225,0.1838429,9.803407,0.040357754,-0.0528429,0.9395933,-0.008425792,-0.009714637,-0.9991366,2017-01-10 13:03:28,29.52524155473374
0.21,0.232,10.731,0.1025846,-0.079802826,0.0856648,40.0,0.16868559,0.19054203,9.803348,0.04131441,0.041457966,0.92765236,-0.008162565,-0.010087158,-0.99893475,2017-01-10 13:03:29,28.678459770681414
0.203,0.198,10.68,0.095656805,-0.092992276,0.079269916,40.0,0.17203327,0.18530035,9.8033905,0.030966729,0.012699649,0.8766098,-0.008324085,-0.009845353,-0.99883974,2017-01-10 13:03:30,29.438856082343268
0.155,0.181,10.712,0.09139355,-0.083000265,0.08246736,40.0,0.17036599,0.1771007,9.803571,-0.015365988,0.0038992912,0.90842915,-0.008239687,-0.009440191,-0.9987497,2017-01-10 13:03:31,31.601693195167506
0.155,0.09,10.709,0.096722625,-0.08193445,0.071276315,40.0,0.16543318,0.16683996,9.803835,-0.010433182,-0.07683995,0.9051647,-0.007978086,-0.00893732,-0.99855506,2017-01-10 13:03:32,29.16049307944038
0.239,0.196,10.647,0.09885425,-0.08246736,0.07553957,40.0,0.1749761,0.17696998,9.803492,0.0640239,0.01903002,0.8435087,-0.008419614,-0.009494173,-0.9984486,2017-01-10 13:03:33,30.28543553241405
0.227,0.222,10.771,0.117372766,-0.088196106,0.0776712,40.0,0.17698316,0.16879936,9.8036,0.050016835,0.053200647,0.9673996,-0.008518821,-0.009107655,-0.9982951,2017-01-10 13:03:34,29.584416236443335
0.172,0.15,10.671,0.1031175,-0.08193445,0.07340794,40.0,0.1681613,0.17185976,9.803701,0.003838703,-0.02185975,0.8672981,-0.008076715,-0.00922387,-0.9983945,2017-01-10 13:03:35,29.604554477804342
0.16,0.22,10.762,0.11417533,-0.08459899,0.07180922,40.0,0.17956787,0.16636443,9.803595,-0.019567877,0.053635567,0.9584055,-0.008651711,-0.008996771,-0.9982582,2017-01-10 13:03:36,29.463240278444598
0.167,0.172,10.7,0.095656805,-0.083533175,0.07180922,40.0,0.17257324,0.15885329,9.803845,-0.005573243,0.013146713,0.8961544,-0.0083375,-0.0085745705,-0.99839497,2017-01-10 13:03:37,29.409196211032807
0.189,0.138,10.747,0.105115905,-0.08140154,0.08086864,40.0,0.16828197,0.15015762,9.804056,0.020718023,-0.012157619,0.9429436,-0.008119095,-0.008144137,-0.9982295,2017-01-10 13:03:38,29.595068544670184
0.143,0.143,10.68,0.092992276,-0.075006664,0.079269916,40.0,0.16203041,0.15700334,9.804055,-0.019030407,-0.014003336,0.8759451,-0.0077634538,-0.008489622,-0.9981102,2017-01-10 13:03:39,36.22751375986079
0.117,0.251,10.712,0.1031175,-0.08459899,0.07660538,40.0,0.16676947,0.16785657,9.803796,-0.049769476,0.08314341,0.9082041,-0.0079623815,-0.0090644965,-0.9980437,2017-01-10 13:03:40,29.817705100518424
0.158,0.193,10.692,0.10671463,-0.07234213,0.08513189,40.0,0.15960795,0.17962372,9.803705,-0.0016079396,0.013376281,0.8882952,-0.0075657056,-0.009637384,-0.99807054,2017-01-10 13:03:41,29.455259235209574
0.148,0.119,10.668,0.08406608,-0.08246736,0.07607248,40.0,0.16081549,0.18352526,9.803614,-0.01281549,-0.06452526,0.86438656,-0.007624769,-0.009832212,-0.9981277,2017-01-10 13:03:42,40.124846126233855
0.198,0.184,10.712,0.091926455,-0.08459899,0.07340794,40.0,0.17428589,0.18162,9.803419,0.02371411,0.0023799986,0.9085808,-0.008347903,-0.009749406,-0.9983117,2017-01-10 13:03:43,32.85608123007372
0.169,0.263,10.702,0.10618172,-0.087263525,0.08140154,40.0,0.17793459,0.18055469,9.803372,-0.008934587,0.08244532,0.8986273,-0.008526755,-0.009714496,-0.9982518,2017-01-10 13:03:44,29.79825917298705
0.158,0.198,10.68,0.10098588,-0.07873701,0.0776712,40.0,0.17299159,0.18522675,9.803375,-0.014991581,0.012773246,0.87662506,-0.008245824,-0.0099507095,-0.9981603,2017-01-10 13:03:45,28.949849900959144
0.184,0.205,10.728,0.10365041,-0.08513189,0.08193445,40.0,0.17804645,0.17794843,9.803419,0.0059535503,0.027051568,0.9245806,-0.0085094245,-0.0096094,-0.9980634,2017-01-10 13:03:46,28.959593733866008
0.165,0.268,10.733,0.092992276,-0.08619771,0.07713829,40.0,0.17434435,0.17410694,9.803555,-0.009344339,0.093893066,0.92944527,-0.008317636,-0.009415865,-0.9979668,2017-01-10 13:03:47,28.7551708984976
0.191,0.179,10.688,0.1120437,-0.08513189,0.0876632,40.0,0.17265034,0.17828861,9.803509,0.018349662,7.1139634E-4,0.88449097,-0.008237404,-0.009606779,-0.99808896,2017-01-10 13:03:48,28.48100675350329
0.232,0.208,10.716,0.0951239,-0.083533175,0.079269916,40.0,0.17283149,0.1821918,9.803434,0.059168503,0.0258082,0.91256523,-0.008231312,-0.009808776,-0.99806666,2017-01-10 13:03:49,28.939960999370253
0.193,0.249,10.716,0.096189715,-0.07873701,0.07873701,40.0,0.17340165,0.17703378,9.803519,0.01959835,0.071966216,0.91248035,-0.008302514,-0.009525226,-0.9982322,2017-01-10 13:03:50,28.036192962828892
0.186,0.208,10.805,0.096189715,-0.0876632,0.0776712,40.0,0.16989549,0.17716004,9.803577,0.01610452,0.030839965,1.0014229,-0.008138586,-0.0095084915,-0.9983237,2017-01-10 13:03:51,29.303545890811094
0.146,0.179,10.771,0.10671463,-0.08406608,0.070743404,40.0,0.17530975,0.16668141,9.803666,-0.02930975,0.012318596,0.9673338,-0.008459162,-0.008976728,-0.99841756,2017-01-10 13:03:52,29.29414060830429
0.184,0.203,10.831,0.09885425,-0.08406608,0.0702105,40.0,0.16311799,0.17848931,9.803669,0.02088201,0.024510682,1.0273314,-0.0077928887,-0.009554015,-0.9983448,2017-01-10 13:03:53,29.112476264248745
0.191,0.146,10.707,0.09352518,-0.07447375,0.08246736,40.0,0.17236607,0.1792744,9.803496,0.018633932,-0.033274397,0.9035034,-0.00825137,-0.009629197,-0.99828076,2017-01-10 13:03:54,29.129900543465435
0.131,0.232,10.781,0.10778044,-0.09139355,0.09405809,40.0,0.16656154,0.17425667,9.803687,-0.035561547,0.057743326,0.97731304,-0.0080002975,-0.009331303,-0.9984631,2017-01-10 13:03:55,28.579733511102305
0.165,0.232,10.74,0.09885425,-0.07660538,0.09459099,40.0,0.16983058,0.17485753,9.80362,-0.004830569,0.057142466,0.93637943,-0.0081429565,-0.009390169,-0.998331,2017-01-10 13:03:56,29.143700186719798
0.227,0.181,10.668,0.109379165,-0.091926455,0.0776712,40.0,0.17043817,0.17937389,9.803528,0.056561828,0.0016261041,0.8644724,-0.008181162,-0.009604652,-0.9984453,2017-01-10 13:03:57,28.965866282470092
0.148,0.167,10.822,0.100452974,-0.08193445,0.087263525,40.0,0.17554621,0.18537329,9.803326,-0.027546212,-0.018373296,1.0186739,-0.008441095,-0.009910337,-0.99852866,2017-01-10 13:03:58,29.434145641859256
0.203,0.198,10.829,0.096722625,-0.09405809,0.0782041,40.0,0.16831124,0.18338257,9.803491,0.034688756,0.014617428,1.0255098,-0.008064567,-0.0098005785,-0.99845976,2017-01-10 13:03:59,29.150264477734744
0.205,0.186,10.716,0.09885425,-0.08406608,0.08246736,40.0,0.16855058,0.18783066,9.803402,0.036449417,-0.0018306524,0.91259766,-0.008092782,-0.010004944,-0.99860585,2017-01-10 13:04:00,28.937474079686496
0.239,0.201,10.716,0.10618172,-0.08619771,0.07873701,40.0,0.17035398,0.18049799,9.803509,0.068646014,0.020502016,0.91249084,-0.0082067195,-0.009633683,-0.9986244,2017-01-10 13:04:01,28.884509967110695
0.16,0.205,10.728,0.10205169,-0.087263525,0.07394085,40.0,0.1695488,0.18820955,9.803378,-0.009548798,0.01679045,0.9246216,-0.008125081,-0.010041077,-0.9985142,2017-01-10 13:04:02,28.51075372947157
0.153,0.16,10.767,0.10724754,-0.071276315,0.07287503,40.0,0.16298775,0.17116164,9.803802,-0.009987757,-0.01116164,0.96319866,-0.007841274,-0.0091515,-0.9985499,2017-01-10 13:04:03,28.312691010605725
0.181,0.193,10.692,0.09352518,-0.08619771,0.083533175,40.0,0.17080745,0.16511518,9.803773,0.010192543,0.027884826,0.88822746,-0.008267373,-0.008853598,-0.9986178,2017-01-10 13:04:04,31.44591536722794
0.203,0.222,10.721,0.100452974,-0.0702105,0.07873701,40.0,0.17799605,0.17472778,9.803477,0.02500394,0.04727222,0.91752243,-0.0086001875,-0.009369491,-0.9985649,2017-01-10 13:04:05,32.967889265967
0.193,0.203,10.791,0.0856648,-0.079269916,0.07660538,40.0,0.1715606,0.17503437,9.803587,0.021439403,0.02796562,0.9874134,-0.008271461,-0.009368171,-0.9985667,2017-01-10 13:04:06,30.754524160678415
0.213,0.155,10.707,0.1025846,-0.07873701,0.08246736,40.0,0.17473994,0.17335679,9.80356,0.038260058,-0.018356785,0.9034395,-0.008449735,-0.009280351,-0.99863195,2017-01-10 13:04:07,29.116056912239436
0.208,0.237,10.728,0.10205169,-0.0951239,0.0682121,40.0,0.17296064,0.17481409,9.803566,0.035039365,0.062185913,0.9244337,-0.008348675,-0.0093559185,-0.9985956,2017-01-10 13:04:08,28.845602949001705
0.191,0.167,10.752,0.105115905,-0.09086064,0.079802826,40.0,0.17047065,0.16952993,9.803703,0.020529345,-0.002529934,0.94829655,-0.008212964,-0.009100856,-0.9984672,2017-01-10 13:04:09,29.36145798820081
0.155,0.112,10.81,0.10618172,-0.08140154,0.07447375,40.0,0.16661857,0.17123638,9.80374,-0.0116185695,-0.059236377,1.0062609,-0.008012343,-0.009176944,-0.99846935,2017-01-10 13:04:10,29.626814133750816
0.244,0.201,10.74,0.092459366,-0.08619771,0.0856648,40.0,0.16637982,0.17656764,9.803649,0.07762018,0.024432361,0.9363508,-0.007988416,-0.00944532,-0.9984834,2017-01-10 13:04:11,28.940009721731563
0.21,0.16,10.692,0.10831335,-0.07660538,0.08459899,40.0,0.17384803,0.18476436,9.803368,0.03615196,-0.024764359,0.8886328,-0.008325957,-0.009900317,-0.9983638,2017-01-10 13:04:12,29.58262488547026
0.186,0.184,10.664,0.10991207,-0.0876632,0.08513189,40.0,0.17920284,0.18017626,9.803357,0.0067971647,0.0038237423,0.86064243,-0.00862096,-0.00967362,-0.99841684,2017-01-10 13:04:13,28.63855872924868
0.208,0.172,10.702,0.0876632,-0.09086064,0.07447375,40.0,0.1854451,0.18019655,9.803241,0.022554904,-0.008196548,0.8987589,-0.008943879,-0.009687369,-0.99844277,2017-01-10 13:04:14,28.65085892933505
0.189,0.22,10.692,0.099387154,-0.092992276,0.079269916,40.0,0.17541583,0.18811506,9.803277,0.013584167,0.03188494,0.8887234,-0.008426117,-0.010050439,-0.99852216,2017-01-10 13:04:15,28.847547199294254
0.198,0.172,10.668,0.09778844,-0.09405809,0.08459899,40.0,0.18156655,0.18727712,9.803181,0.016433448,-0.0152771175,0.8648195,-0.008733307,-0.010031547,-0.9984759,2017-01-10 13:04:16,28.887593167240574
0.184,0.193,10.702,0.10724754,-0.08979483,0.08086864,40.0,0.16536513,0.17772368,9.803645,0.01863487,0.015276328,0.89835453,-0.00795207,-0.009485946,-0.9985858,2017-01-10 13:04:17,29.256685650174383
0.165,0.256,10.774,0.092459366,-0.08872902,0.086730614,40.0,0.1684979,0.17967829,9.803556,-0.0034978986,0.07632172,0.9704437,-0.00807542,-0.009619902,-0.99841124,2017-01-10 13:04:18,28.963045497083595
0.129,0.184,10.716,0.10831335,-0.079269916,0.06927791,40.0,0.16964208,0.1674386,9.803753,-0.040642083,0.016561404,0.9122467,-0.008196683,-0.00897371,-0.9985871,2017-01-10 13:04:19,29.06137541049985
0.189,0.174,10.786,0.1025846,-0.09032774,0.08406608,40.0,0.1760103,0.17526866,9.803504,0.0129897,-0.00126867,0.98249626,-0.008511531,-0.0093791615,-0.9986416,2017-01-10 13:04:20,28.422401143112694
0.213,0.184,10.798,0.10365041,-0.09405809,0.0776712,40.0,0.17515726,0.17568077,9.803512,0.037842736,0.008319229,0.9944887,-0.008477641,-0.009388374,-0.99869823,2017-01-10 13:04:21,29.643649556080742
0.186,0.191,10.8,0.105115905,-0.08033573,0.0876632,40.0,0.16736998,0.18244332,9.803525,0.018630028,0.008556679,0.9964752,-0.00807219,-0.00970635,-0.99873984,2017-01-10 13:04:22,29.352518356764286
0.213,0.213,10.738,0.09352518,-0.08033573,0.07394085,40.0,0.16599567,0.18107076,9.803574,0.047004327,0.03192924,0.9344263,-0.008027565,-0.009614723,-0.99884945,2017-01-10 13:04:23,29.459950445447337
0.179,0.229,10.743,0.08926193,-0.07553957,0.08033573,40.0,0.16844814,0.16770065,9.80377,0.01055187,0.061299354,0.93922997,-0.008196733,-0.0089277895,-0.9989193,2017-01-10 13:04:24,28.916050985875167
0.222,0.162,10.676,0.09405809,-0.09086064,0.08033573,40.0,0.16499747,0.16257691,9.803914,0.05700253,-5.7691336E-4,0.8720856,-0.008030377,-0.00866098,-0.99891126,2017-01-10 13:04:25,29.26606182578103
0.205,0.234,10.745,0.10831335,-0.075006664,0.08619771,40.0,0.17704222,0.17062669,9.803567,0.027957782,0.06337331,0.94143295,-0.0086374,-0.009087478,-0.9989608,2017-01-10 13:04:26,29.80253993826578
0.203,0.191,10.621,0.10365041,-0.0876632,0.075006664,40.0,0.18143964,0.18884231,9.803153,0.021560356,0.0021576881,0.81784725,-0.008838681,-0.010009566,-0.9990269,2017-01-10 13:04:27,30.02950178527675
0.16,0.186,10.719,0.095656805,-0.08619771,0.08246736,40.0,0.17022128,0.18933508,9.803345,-0.010221288,-0.0033350736,0.91565514,-0.008264779,-0.010011634,-0.9990263,2017-01-10 13:04:28,29.750970993956027
0.227,0.232,10.709,0.092992276,-0.06927791,0.08872902,40.0,0.17110765,0.18864349,9.803343,0.05589235,0.043356508,0.9056568,-0.008312345,-0.009977538,-0.9990302,2017-01-10 13:04:29,28.932723721435973
0.184,0.181,10.661,0.1025846,-0.086730614,0.07873701,40.0,0.1689491,0.18492919,9.803451,0.015050903,-0.003929198,0.85754967,-0.008213829,-0.009780713,-0.99904794,2017-01-10 13:04:30,28.658563737951603
0.177,0.16,10.712,0.11577405,-0.07553957,0.08086864,40.0,0.17115456,0.17449294,9.803603,0.0058454424,-0.014492944,0.9083967,-0.008359371,-0.009243735,-0.99910086,2017-01-10 13:04:31,29.042518338821466
0.196,0.131,10.8,0.10418332,-0.092992276,0.08246736,40.0,0.18163352,0.1828282,9.803264,0.014366478,-0.051828206,0.9967365,-0.00884497,-0.009718566,-0.998957,2017-01-10 13:04:32,29.150028505555223
0.169,0.167,10.819,0.09778844,-0.0856648,0.079269916,40.0,0.17933924,0.17575413,9.803435,-0.010339245,-0.008754134,1.0155649,-0.008764171,-0.0093339905,-0.9990542,2017-01-10 13:04:33,29.277627183731163
0.169,0.237,10.673,0.11097788,-0.09032774,0.08406608,40.0,0.17269859,0.16745862,9.8036995,-0.0036985874,0.06954138,0.86930084,-0.008434693,-0.008905469,-0.99902,2017-01-10 13:04:34,28.671855637180087
0.169,0.22,10.719,0.088196106,-0.083000265,0.08086864,40.0,0.16780192,0.16623653,9.803805,0.0011980832,0.053763464,0.9151945,-0.008192572,-0.008828206,-0.99904513,2017-01-10 13:04:35,28.95914101676179
0.21,0.079,10.716,0.10418332,-0.07287503,0.083000265,40.0,0.18058594,0.16328825,9.803628,0.029414058,-0.08428825,0.91237164,-0.008826684,-0.00872927,-0.9989237,2017-01-10 13:04:36,28.997031069318172
0.174,0.21,10.685,0.092992276,-0.083000265,0.08193445,40.0,0.17801876,0.16792528,9.8035965,-0.0040187687,0.04207471,0.8814039,-0.0087273745,-0.008918705,-0.9991219,2017-01-10 13:04:37,28.641011118888397
0.191,0.167,10.728,0.099920064,-0.0856648,0.06767919,40.0,0.18453552,0.15458196,9.803696,0.0064644814,0.012418032,0.924304,-0.009083302,-0.008255764,-0.9991085,2017-01-10 13:04:38,29.481490072834173
0.131,0.227,10.728,0.099920064,-0.07713829,0.07873701,40.0,0.17563418,0.16891564,9.803622,-0.04463418,0.058084354,0.92437744,-0.008615015,-0.00895357,-0.9991716,2017-01-10 13:04:39,29.22750792720538
0.205,0.198,10.7,0.0951239,-0.0876632,0.088196106,40.0,0.18028727,0.16785528,9.8035555,0.024712726,0.030144721,0.8964443,-0.008836637,-0.00892618,-0.9990917,2017-01-10 13:04:40,28.855797116630917
0.193,0.153,10.728,0.09459099,-0.079802826,0.079269916,40.0,0.17739889,0.175606,9.803473,0.015601113,-0.022606,0.9245262,-0.008665044,-0.00932286,-0.99905264,2017-01-10 13:04:41,28.331793397738593
0.181,0.174,10.764,0.096722625,-0.07234213,0.0776712,40.0,0.18165553,0.17725115,9.803365,-6.555319E-4,-0.0032511503,0.9606352,-0.008890225,-0.009404604,-0.99910116,2017-01-10 13:04:42,28.6350452374624
0.15,0.158,10.716,0.09459099,-0.0876632,0.0782041,40.0,0.1831764,0.1787004,9.80331,-0.033176392,-0.020700395,0.9126892,-0.008959118,-0.009486896,-0.9990758,2017-01-10 13:04:43,29.41248464382422
0.158,0.213,10.688,0.10471623,-0.07340794,0.08193445,40.0,0.18310328,0.18123552,9.803266,-0.025103271,0.031764477,0.88473415,-0.008949882,-0.0096161235,-0.99907357,2017-01-10 13:04:44,29.2022207998742
0.153,0.217,10.747,0.08872902,-0.09459099,0.0876632,40.0,0.17120369,0.1782266,9.803535,-0.01820369,0.038773388,0.9434643,-0.008327406,-0.009457711,-0.9989803,2017-01-10 13:04:45,29.110498751933925
0.167,0.177,10.747,0.10724754,-0.08513189,0.07447375,40.0,0.16614655,0.18336016,9.803528,8.534491E-4,-0.0063601583,0.9434719,-0.008099613,-0.00967372,-0.9991552,2017-01-10 13:04:46,29.199319987939262
0.193,0.22,10.822,0.0856648,-0.0856648,0.0876632,40.0,0.16376808,0.17884275,9.803652,0.02923192,0.041157246,1.0183477,-0.007992432,-0.00943453,-0.99917907,2017-01-10 13:04:47,29.207763403108643
0.222,0.213,10.764,0.1200373,-0.08619771,0.08619771,40.0,0.16589019,0.18094403,9.803577,0.056109816,0.032055974,0.9604225,-0.008104143,-0.009539247,-0.999208,2017-01-10 13:04:48,29.08904350579432
0.167,0.189,10.767,0.11630695,-0.07234213,0.086730614,40.0,0.1748045,0.18621013,9.803324,-0.007804498,0.00278987,0.96367645,-0.008550058,-0.009823249,-0.9992084,2017-01-10 13:04:49,28.789793300889556
0.213,0.225,10.735,0.09725553,-0.07234213,0.08033573,40.0,0.1660495,0.18282358,9.803539,0.046950504,0.04217641,0.9314604,-0.008111266,-0.009633128,-0.9992173,2017-01-10 13:04:50,29.634236035959383
0.217,0.201,10.707,0.086730614,-0.07394085,0.087263525,40.0,0.18399465,0.18643072,9.803152,0.033005342,0.0145692825,0.9038477,-0.008992468,-0.009875415,-0.99910355,2017-01-10 13:04:51,29.628068747501146
0.222,0.277,10.695,0.09832134,-0.079269916,0.086730614,40.0,0.18341719,0.18360543,9.803216,0.038582817,0.09339458,0.8917837,-0.008960731,-0.009737718,-0.9990715,2017-01-10 13:04:52,29.36257798659944
0.169,0.191,10.75,0.10151879,-0.08140154,0.07234213,40.0,0.18117136,0.18792664,9.803175,-0.012171358,0.0030733645,0.946825,-0.008870101,-0.0099239545,-0.9992004,2017-01-10 13:04:53,29.184142018112095
0.225,0.165,10.728,0.100452974,-0.07660538,0.08140154,40.0,0.17529021,0.1747876,9.803526,0.049709782,-0.009787589,0.92447376,-0.008561238,-0.009274931,-0.99906236,2017-01-10 13:04:54,28.77199753235464
0.193,0.191,10.721,0.096722625,-0.07873701,0.0776712,40.0,0.16554068,0.17366688,9.803715,0.027459323,0.01733312,0.91728497,-0.008088119,-0.009178515,-0.99916035,2017-01-10 13:04:55,29.086389298958373
0.246,0.232,10.774,0.10151879,-0.0782041,0.07553957,40.0,0.16884574,0.17489408,9.803637,0.077154264,0.057105914,0.9703636,-0.008233214,-0.009266236,-0.9990676,2017-01-10 13:04:56,33.942536865356786
0.203,0.201,10.733,0.11151079,-0.07873701,0.07394085,40.0,0.1639752,0.17870948,9.803651,0.0390248,0.022290528,0.92934895,-0.007988671,-0.009440502,-0.9991182,2017-01-10 13:04:57,32.85079256579336
0.138,0.196,10.788,0.09459099,-0.0876632,0.088196106,40.0,0.15689404,0.17245576,9.803879,-0.018894047,0.023544237,0.9841213,-0.0076300516,-0.00911622,-0.99907666,2017-01-10 13:04:58,30.364699203327138
0.165,0.191,10.726,0.099387154,-0.08086864,0.07660538,40.0,0.16161135,0.17106135,9.803826,0.0033886582,0.019938648,0.9221735,-0.00785337,-0.009072436,-0.9989821,2017-01-10 13:04:59,29.481682422579027
0.208,0.227,10.721,0.09725553,-0.08140154,0.08459899,40.0,0.1712893,0.17268765,9.803634,0.03671071,0.05431235,0.917366,-0.008343525,-0.009176138,-0.9989805,2017-01-10 13:05:00,29.887749887845082
0.213,0.15,10.716,0.09778844,-0.0856648,0.0782041,40.0,0.180247,0.17061204,9.803509,0.032753006,-0.020612031,0.91249084,-0.008828091,-0.0090673175,-0.999087,2017-01-10 13:05:01,28.414230220487564
0.241,0.158,10.8,0.100452974,-0.091926455,0.0876632,40.0,0.18031,0.17730491,9.80339,0.06069,-0.019304901,0.99661064,-0.008821868,-0.009404273,-0.9991032,2017-01-10 13:05:02,28.819885041279715
0.208,0.196,10.709,0.10205169,-0.087263525,0.09086064,40.0,0.17952408,0.17424652,9.803458,0.028475925,0.021753475,0.9055414,-0.0087718265,-0.009262262,-0.99903244,2017-01-10 13:05:03,28.87893821426502
0.143,0.237,10.779,0.096722625,-0.0856648,0.08459899,40.0,0.17425297,0.16692601,9.80368,-0.031252965,0.07007399,0.97531986,-0.00854138,-0.008856382,-0.99914134,2017-01-10 13:05:04,28.69838812302131
0.251,0.179,10.788,0.09459099,-0.086730614,0.087263525,40.0,0.1859444,0.16656263,9.8034725,0.065055594,0.012437373,0.9845276,-0.009122667,-0.008877119,-0.9990669,2017-01-10 13:05:05,29.04601050637182
0.239,0.191,10.774,0.0951239,-0.08140154,0.07660538,40.0,0.18305582,0.18038087,9.803282,0.055944175,0.010619134,0.9707184,-0.0089491615,-0.009572556,-0.9990737,2017-01-10 13:05:06,28.825106414119436
0.189,0.208,10.75,0.09032774,-0.079802826,0.087263525,40.0,0.18371642,0.18582053,9.803168,0.005283579,0.02217947,0.9468317,-0.008973571,-0.009849193,-0.99907947,2017-01-10 13:05:07,29.02337590533866
0.16,0.213,10.7,0.100452974,-0.08246736,0.086730614,40.0,0.17790553,0.18230774,9.803342,-0.017905533,0.030692264,0.89665794,-0.008697621,-0.009646538,-0.9991372,2017-01-10 13:05:08,29.07898190997969
0.203,0.177,10.779,0.10365041,-0.08459899,0.08406608,40.0,0.1656774,0.1887701,9.803433,0.037322596,-0.011770099,0.97556686,-0.008065969,-0.009947614,-0.9991569,2017-01-10 13:05:09,28.792105772862307
0.225,0.205,10.714,0.10991207,-0.087263525,0.08246736,40.0,0.17192553,0.1836107,9.803424,0.053074464,0.021389306,0.91057587,-0.00837348,-0.009715396,-0.99906945,2017-01-10 13:05:10,29.156836886666913
0.251,0.232,10.628,0.0951239,-0.092459366,0.0856648,40.0,0.16103059,0.1781147,9.803711,0.0899694,0.053885296,0.8242893,-0.007824695,-0.009416773,-0.9990539,2017-01-10 13:05:11,28.976085693868484
0.172,0.189,10.707,0.1025846,-0.07340794,0.087263525,40.0,0.17150256,0.17917296,9.803513,4.9744546E-4,0.009827033,0.9034872,-0.008330727,-0.0095151905,-0.99893445,2017-01-10 13:05:12,28.572321991579418
0.215,0.167,10.776,0.11470823,-0.08193445,0.083000265,40.0,0.16217211,0.17803514,9.803693,0.052827895,-0.011035144,0.9723072,-0.007855825,-0.009437859,-0.99892884,2017-01-10 13:05:13,28.741859967765407
0.203,0.167,10.702,0.09459099,-0.09139355,0.08033573,40.0,0.1686882,0.17640862,9.803613,0.0343118,-0.009408623,0.89838696,-0.008165751,-0.009392269,-0.9988007,2017-01-10 13:05:14,28.547323209070406
0.201,0.186,10.759,0.096189715,-0.08406608,0.08033573,40.0,0.16855082,0.16227204,9.803859,0.032449186,0.023727968,0.95514107,-0.008202865,-0.008662383,-0.9988612,2017-01-10 13:05:15,28.562512764830622
0.158,0.213,10.755,0.09832134,-0.079802826,0.08140154,40.0,0.17233068,0.1717492,9.803632,-0.01433067,0.041250795,0.95136833,-0.008361144,-0.009164997,-0.99879414,2017-01-10 13:05:16,28.122652812812667
0.172,0.22,10.791,0.0951239,-0.07713829,0.09139355,40.0,0.17676069,0.18588547,9.803295,-0.0047606826,0.034114525,0.98770523,-0.008569269,-0.009881375,-0.99886423,2017-01-10 13:05:17,28.141371619977317
0.158,0.167,10.793,0.09086064,-0.09086064,0.08979483,40.0,0.17092818,0.1736588,9.803622,-0.012928173,-0.0066588074,0.989378,-0.00825214,-0.009288239,-0.99861884,2017-01-10 13:05:18,29.075820495458046
0.201,0.193,10.709,0.09725553,-0.083000265,0.07447375,40.0,0.17165743,0.18420117,9.803417,0.029342577,0.008798838,0.9055824,-0.008207193,-0.009872754,-0.9983148,2017-01-10 13:05:19,28.234097473338263
0.169,0.165,10.743,0.0951239,-0.08926193,0.08513189,40.0,0.16495913,0.19786857,9.803266,0.004040867,-0.032868564,0.93973446,-0.0077256155,-0.010623559,-0.99772453,2017-01-10 13:05:20,29.01548509787493
0.165,0.129,10.692,0.099920064,-0.08619771,0.08926193,40.0,0.16000502,0.18595026,9.803581,0.0049949884,-0.05695027,0.88841915,-0.007530116,-0.009988021,-0.99784,2017-01-10 13:05:21,28.692457611725935
0.179,0.167,10.743,0.096722625,-0.09032774,0.08619771,40.0,0.16807775,0.17755628,9.803602,0.010922253,-0.010556281,0.9393978,-0.008018423,-0.009545725,-0.99816346,2017-01-10 13:05:22,28.733474275826836
0.205,0.232,10.824,0.0951239,-0.08872902,0.07447375,40.0,0.17657734,0.17006044,9.803585,0.028422654,0.061939552,1.0204153,-0.008504172,-0.009161707,-0.9983544,2017-01-10 13:05:23,28.651946611295692
0.167,0.095,10.788,0.099920064,-0.0776712,0.08246736,40.0,0.17676958,0.16651571,9.803643,-0.009769589,-0.07151571,0.9843569,-0.008523034,-0.008982757,-0.9983494,2017-01-10 13:05:24,28.59863029834727
0.222,0.165,10.738,0.09832134,-0.08619771,0.07713829,40.0,0.18295424,0.16565874,9.803544,0.039045766,-6.5873563E-4,0.9344559,-0.008855436,-0.008941941,-0.99843985,2017-01-10 13:05:25,28.900124037561206
0.232,0.189,10.719,0.09352518,-0.083533175,0.06927791,40.0,0.18464367,0.16517355,9.80352,0.047356322,0.02382645,0.91547966,-0.008962556,-0.008902084,-0.99855745,2017-01-10 13:05:26,28.613602376462172
0.174,0.213,10.798,0.100452974,-0.09139355,0.0856648,40.0,0.1810577,0.16423273,9.803603,-0.0070577115,0.04876727,0.99439716,-0.008804555,-0.008822605,-0.998687,2017-01-10 13:05:27,28.59317321689521
0.158,0.129,10.721,0.1031175,-0.075006664,0.08193445,40.0,0.18202755,0.1634605,9.803598,-0.024027541,-0.0344605,0.9174013,-0.008879296,-0.008762094,-0.99881583,2017-01-10 13:05:28,28.415981990823077
0.205,0.186,10.798,0.10991207,-0.087263525,0.068745,40.0,0.1867204,0.16734691,9.803445,0.018279597,0.018653095,0.9945555,-0.009117748,-0.008962475,-0.99885714,2017-01-10 13:05:29,28.505820747184572
0.208,0.232,10.757,0.092459366,-0.08406608,0.083000265,40.0,0.1825304,0.16744044,9.803521,0.025469601,0.06455955,0.9534788,-0.008906853,-0.008954632,-0.9988733,2017-01-10 13:05:30,28.492787189687224
0.234,0.134,10.676,0.099387154,-0.095656805,0.083000265,40.0,0.16962714,0.16578838,9.8037815,0.06437285,-0.03178838,0.87221813,-0.008288423,-0.008807501,-0.9990536,2017-01-10 13:05:31,28.58785457504716
0.215,0.205,10.745,0.10831335,-0.079802826,0.07607248,40.0,0.16086179,0.16233076,9.803987,0.054138213,0.042669237,0.94101334,-0.0078425,-0.00861873,-0.99902606,2017-01-10 13:05:32,46.94728479152788
0.191,0.239,10.757,0.1031175,-0.07660538,0.07447375,40.0,0.15404436,0.16779648,9.804004,0.03695564,0.071203515,0.95299625,-0.007496509,-0.0088712545,-0.9990885,2017-01-10 13:05:33,35.90497716493439
0.208,0.16,10.759,0.09725553,-0.08406608,0.08086864,40.0,0.16220237,0.17295624,9.803783,0.04579763,-0.012956247,0.9552164,-0.007912058,-0.009142023,-0.9991302,2017-01-10 13:05:34,35.71747659969232
0.22,0.198,10.8,0.10671463,-0.0856648,0.08086864,40.0,0.1662402,0.18412662,9.803513,0.0537598,0.013873383,0.9964876,-0.008092062,-0.009721958,-0.9991108,2017-01-10 13:05:35,39.563429560790404
0.189,0.174,10.64,0.096189715,-0.09352518,0.0876632,40.0,0.16985375,0.1744758,9.803626,0.019146249,-4.7580898E-4,0.8363743,-0.0082811965,-0.009250863,-0.9990483,2017-01-10 13:05:36,32.09480455591693
0.153,0.205,10.666,0.09778844,-0.092992276,0.08619771,40.0,0.17509586,0.18426079,9.803355,-0.022095859,0.020739213,0.86264515,-0.00854446,-0.009745721,-0.9991128,2017-01-10 13:05:37,30.64811579681079
0.205,0.227,10.86,0.109379165,-0.08086864,0.088196106,40.0,0.18087724,0.18089719,9.803313,0.02412276,0.046102807,1.0566864,-0.008844293,-0.009587654,-0.99910504,2017-01-10 13:05:38,55.54801129062521
0.208,0.213,10.767,0.100452974,-0.08979483,0.075006664,40.0,0.17387716,0.18556742,9.803352,0.03412284,0.027432576,0.96364784,-0.008477563,-0.009811649,-0.99910396,2017-01-10 13:05:39,54.763885486017536
0.198,0.179,10.738,0.08926193,-0.08619771,0.086730614,40.0,0.17214698,0.19014537,9.803295,0.025853023,-0.011145368,0.9347048,-0.00837129,-0.010048628,-0.9990671,2017-01-10 13:05:40,53.65011170287523
0.186,0.138,10.762,0.11097788,-0.08086864,0.08086864,40.0,0.1292865,0.16458923,9.804416,0.056713507,-0.02658923,0.9575844,-0.006211219,-0.008677909,-0.9989477,2017-01-10 13:05:41,61.1128465311629
0.181,0.227,10.726,0.099387154,-0.087263525,0.07607248,40.0,0.15533994,0.16774353,9.803986,0.025660053,0.059256464,0.92201424,-0.007517949,-0.008909171,-0.998869,2017-01-10 13:05:42,56.90358513011682
0.174,0.134,10.721,0.09459099,-0.07713829,0.086730614,40.0,0.16986327,0.15958573,9.80388,0.0041367263,-0.025585726,0.91712,-0.008277042,-0.008527671,-0.99886715,2017-01-10 13:05:43,41.11367512276541
0.158,0.272,10.757,0.09832134,-0.10778044,0.083533175,40.0,0.17391959,0.17326978,9.803576,-0.015919581,0.09873024,0.9534235,-0.008462389,-0.009224354,-0.99891275,2017-01-10 13:05:44,46.11376719582185
0.155,0.107,10.731,0.08872902,-0.066613376,0.087263525,40.0,0.17341205,0.17986296,9.803467,-0.018412054,-0.07286296,0.92753315,-0.008409022,-0.009570009,-0.99885064,2017-01-10 13:05:45,43.954529053372084
0.141,0.213,10.642,0.108846255,-0.08033573,0.07553957,40.0,0.18639797,0.1790112,9.803245,-0.045397967,0.033988804,0.8387556,-0.009082555,-0.009547745,-0.99889296,2017-01-10 13:05:46,53.35705653645485
0.172,0.193,10.685,0.096722625,-0.0682121,0.07234213,40.0,0.18584165,0.1705838,9.803406,-0.013841644,0.022416204,0.88159466,-0.0090812,-0.009109565,-0.9989345,2017-01-10 13:05:47,41.6270460605201
0.222,0.222,10.733,0.096189715,-0.0782041,0.08033573,40.0,0.1802284,0.18081468,9.803327,0.041771606,0.04118532,0.9296732,-0.008794394,-0.009597727,-0.99903244,2017-01-10 13:05:48,36.66976359378494
0.191,0.205,10.716,0.09086064,-0.08926193,0.092992276,40.0,0.17947713,0.19192748,9.803129,0.011522874,0.0130725205,0.9128704,-0.008722271,-0.01017097,-0.9989852,2017-01-10 13:05:49,43.68570527479871
0.229,0.244,10.774,0.09832134,-0.08033573,0.083000265,40.0,0.18435141,0.18130048,9.803241,0.044648588,0.06269953,0.9707594,-0.008967259,-0.009665008,-0.9988657,2017-01-10 13:05:50,39.446900055922434
0.208,0.165,10.709,0.1025846,-0.08246736,0.0776712,40.0,0.19159302,0.18359856,9.80306,0.016406983,-0.018598557,0.90594006,-0.009334781,-0.009795219,-0.9988796,2017-01-10 13:05:51,39.03062020962241
0.191,0.234,10.762,0.10205169,-0.0876632,0.08246736,40.0,0.18196599,0.17792568,9.803347,0.009034008,0.05607432,0.95865345,-0.0088849515,-0.009458164,-0.9990144,2017-01-10 13:05:52,62.428941717163966
0.16,0.155,10.745,0.11151079,-0.091926455,0.07873701,40.0,0.17671444,0.18540512,9.803305,-0.016714439,-0.030405119,0.9416952,-0.008608505,-0.009821472,-0.9990445,2017-01-10 13:05:53,57.20412922426691
0.241,0.239,10.635,0.09725553,-0.08979483,0.09032774,40.0,0.17941347,0.18812536,9.803204,0.06158653,0.050874636,0.83179665,-0.008695782,-0.010004643,-0.9988463,2017-01-10 13:05:54,51.10635077624931
0.184,0.184,10.709,0.09832134,-0.09352518,0.088196106,40.0,0.17350541,0.17461881,9.80356,0.01049459,0.00938119,0.9054394,-0.008402407,-0.00932451,-0.99873227,2017-01-10 13:05:55,32.47701219972658
0.165,0.16,10.666,0.0951239,-0.08193445,0.08926193,40.0,0.17509484,0.18527843,9.803336,-0.010094836,-0.025278434,0.8626642,-0.008458801,-0.0098697785,-0.9987359,2017-01-10 13:05:56,29.29213305668778
0.155,0.174,10.697,0.09725553,-0.08619771,0.0782041,40.0,0.17246033,0.17835073,9.803512,-0.017460331,-0.0043507367,0.89348793,-0.008305722,-0.00954186,-0.9985496,2017-01-10 13:05:57,31.473436206942623
0.196,0.155,10.74,0.10418332,-0.088196106,0.079802826,40.0,0.17912672,0.18270719,9.803311,0.01687327,-0.02770719,0.9366884,-0.008603988,-0.009807582,-0.99838173,2017-01-10 13:05:58,28.925557195695838
0.184,0.129,10.707,0.100452974,-0.07607248,0.07394085,40.0,0.16659921,0.18286242,9.80353,0.017400786,-0.053862423,0.90347004,-0.007955196,-0.00978862,-0.99832726,2017-01-10 13:05:59,29.375365017765773
0.189,0.232,10.759,0.09032774,-0.0876632,0.0702105,40.0,0.1682284,0.17370102,9.803669,0.020771593,0.058298975,0.95533085,-0.008072992,-0.009319503,-0.99838203,2017-01-10 13:06:00,28.438646886625648
0.205,0.148,10.74,0.0876632,-0.091926455,0.071276315,40.0,0.16860163,0.18595871,9.803437,0.036398366,-0.03795871,0.93656254,-0.008035958,-0.009961959,-0.99825454,2017-01-10 13:06:01,28.79570998874522
0.167,0.208,10.781,0.09725553,-0.0856648,0.07447375,40.0,0.1645113,0.17720713,9.803669,0.0024887025,0.030792877,0.97733116,-0.007840379,-0.009515138,-0.99818045,2017-01-10 13:06:02,28.566219634912958
0.143,0.172,10.695,0.10418332,-0.079802826,0.08926193,40.0,0.16760908,0.17734632,9.803614,-0.024609074,-0.005346313,0.89138603,-0.0079731895,-0.009552032,-0.99802446,2017-01-10 13:06:03,28.672084525946975
0.169,0.22,10.652,0.0951239,-0.075006664,0.08033573,40.0,0.1640651,0.17377305,9.803738,0.004934907,0.04622695,0.8482628,-0.007813105,-0.009351437,-0.9980869,2017-01-10 13:06:04,29.66699716729305
0.193,0.181,10.719,0.08872902,-0.0856648,0.08459899,40.0,0.16614038,0.18157755,9.803561,0.026859626,-5.775541E-4,0.91543865,-0.007900953,-0.009750001,-0.9981214,2017-01-10 13:06:05,29.300508970391096
0.203,0.229,10.738,0.09459099,-0.07713829,0.083000265,40.0,0.17069702,0.17401168,9.80362,0.032302976,0.054988325,0.9343796,-0.00817019,-0.009366476,-0.9982125,2017-01-10 13:06:06,29.447053962618845
0.134,0.241,10.63,0.095656805,-0.07607248,0.08193445,40.0,0.16619149,0.17399696,9.803698,-0.032191485,0.06700304,0.8263025,-0.007923971,-0.009366604,-0.9981074,2017-01-10 13:06:07,30.14130291876055
0.229,0.172,10.743,0.08406608,-0.08872902,0.07660538,40.0,0.17210476,0.17470884,9.803583,0.05689524,-0.0027088374,0.9394169,-0.008201102,-0.009439909,-0.9979633,2017-01-10 13:06:08,33.66757697181109
0.138,0.193,10.817,0.108846255,-0.08033573,0.066080466,40.0,0.17208178,0.17529938,9.803574,-0.034081787,0.017700627,1.0134268,-0.008190572,-0.009476358,-0.99791336,2017-01-10 13:06:09,38.861964709743276
0.222,0.141,10.74,0.09352518,-0.096189715,0.08406608,40.0,0.16456959,0.17786536,9.803656,0.057430416,-0.036865354,0.93634415,-0.007825833,-0.009561558,-0.99808276,2017-01-10 13:06:10,35.187207434280396
0.177,0.22,10.8,0.09352518,-0.086730614,0.07660538,40.0,0.17004329,0.16273212,9.803825,0.0069567114,0.057267874,0.9961748,-0.008159851,-0.008800204,-0.99814636,2017-01-10 13:06:11,41.00962027596478
0.227,0.186,10.683,0.0951239,-0.08979483,0.09086064,40.0,0.1579722,0.15234768,9.804194,0.0690278,0.03365232,0.87880516,-0.007574009,-0.008237571,-0.9981342,2017-01-10 13:06:12,53.14942510952143
0.397,0.239,10.929,0.95243806,1.990008,-1.9192646,40.0,0.19913198,0.16477698,9.803244,0.19786803,0.07422301,1.1257563,-0.009615488,-0.009013084,-0.9980043,2017-01-10 13:06:13,57.7384607716003
0.177,0.148,10.695,0.122568615,-0.051825207,0.08459899,40.0,0.073345885,0.30367944,9.801672,0.10365412,-0.15567943,0.8933277,0.005976787,0.014766886,0.989001,2017-01-10 13:06:14,60.78918977483026
0.22,0.184,10.712,0.10471623,-0.079802826,0.07607248,40.0,-0.42421618,-0.22029626,9.794993,0.6442162,0.40429628,0.9170065,0.014874599,0.019315042,-0.90635496,2017-01-10 13:06:15,58.259747501944936
0.205,0.129,10.745,0.096189715,-0.07873701,0.07394085,40.0,-0.22872692,-0.07125779,9.803723,0.4337269,0.20025778,0.94127655,0.009426892,0.007768777,-0.9258788,2017-01-10 13:06:16,62.68550083380353
0.203,0.124,10.64,0.096722625,-0.0856648,0.08086864,40.0,-0.045371562,0.053053334,9.806402,0.24837156,0.07094666,0.83359814,0.0030779776,-0.0017873014,-0.943679,2017-01-10 13:06:17,50.26207717521033
0.21,0.131,10.678,0.09086064,-0.07873701,0.08033573,40.0,0.07147391,0.14835572,9.805267,0.13852608,-0.017355725,0.8727331,-0.0013041386,-0.008294499,-0.95734566,2017-01-10 13:06:18,34.953882471150465
0.165,0.234,10.645,0.10151879,-0.08979483,0.08193445,40.0,0.19393688,0.21333621,9.802411,-0.028936878,0.020663783,0.8425894,-0.006910965,-0.012975751,-0.9691996,2017-01-10 13:06:19,38.06981061884536
0.251,0.153,10.834,0.10418332,-0.092992276,0.083000265,40.0,0.23597825,0.23507687,9.800991,0.015021741,-0.08207688,1.0330086,-0.009246058,-0.0142480135,-0.9775374,2017-01-10 13:06:20,47.83746577513456
0.15,0.11,10.716,0.10151879,-0.08619771,0.091926455,40.0,0.18097602,0.22233157,9.802459,-0.030976012,-0.11233157,0.91354084,-0.0071106157,-0.01277206,-0.9845835,2017-01-10 13:06:21,47.726052110981655
0.177,0.134,10.716,0.09352518,-0.08513189,0.0782041,40.0,0.22550116,0.2372605,9.801186,-0.048501164,-0.1032605,0.914814,-0.009604976,-0.013650888,-0.98910004,2017-01-10 13:06:22,56.66140472148294
0.189,0.174,10.731,0.100452974,-0.08140154,0.0782041,40.0,0.24775593,0.23999678,9.800582,-0.058755934,-0.06599678,0.930418,-0.010996805,-0.013728239,-0.9919275,2017-01-10 13:06:23,49.23313855457976
0.186,0.098,10.656,0.100452974,-0.07234213,0.08086864,40.0,0.24648678,0.23673128,9.8006935,-0.06048678,-0.13873127,0.8553066,-0.011209031,-0.013344323,-0.9941371,2017-01-10 13:06:24,68.39977177767099
0.165,0.146,10.783,0.10205169,-0.07553957,0.079802826,40.0,0.24657743,0.22610407,9.800941,-0.08157742,-0.08010407,0.9820585,-0.0114350105,-0.012660024,-0.99543256,2017-01-10 13:06:25,72.26502777671288
0.196,0.165,10.721,0.105115905,-0.0782041,0.068745,40.0,0.24923685,0.21036091,9.801226,-0.053236857,-0.045360908,0.91977406,-0.01175479,-0.011765106,-0.9962667,2017-01-10 13:06:26,66.30922882012895
0.184,0.112,10.7,0.10671463,-0.08193445,0.087263525,40.0,0.24664842,0.20358819,9.801434,-0.062648416,-0.091588184,0.89856625,-0.011754636,-0.011304463,-0.9969938,2017-01-10 13:06:27,62.22498145194933
