ACC_X,ACC_Y,ACC_Z,LIGH_1,TIME,VOICE
2.451,4.137,8.427,0.0,2017-05-19 10:18:57,-Infinity
3.984,2.911,7.968,0.0,2017-05-19 10:18:58,19.204657462570246
3.677,2.298,8.734,67.0,2017-05-19 10:18:59,50.31163978553565
3.83,2.298,8.427,63.0,2017-05-19 10:19:00,49.133064709650455
3.677,1.838,8.734,61.0,2017-05-19 10:19:01,45.26259738314
3.984,2.298,8.427,69.0,2017-05-19 10:19:02,44.60932216781204
3.984,2.145,8.274,65.0,2017-05-19 10:19:03,46.46677769753139
3.984,2.298,8.274,61.0,2017-05-19 10:19:04,43.53779170545363
4.29,2.451,8.121,44.0,2017-05-19 10:19:06,44.95892206126871
3.984,2.604,8.274,57.0,2017-05-19 10:19:07,46.20136054973757
4.29,2.298,8.887,33.0,2017-05-19 10:19:08,43.5288911915771
2.911,2.758,8.121,33.0,2017-05-19 10:19:09,42.87424356638964
1.992,1.072,9.194,18.0,2017-05-19 10:19:10,42.05252166877968
-0.612,0.153,9.807,164.0,2017-05-19 10:19:11,36.91091166344944
-0.612,0.153,9.807,171.0,2017-05-19 10:19:12,38.91311261807927
-0.612,0.153,9.807,171.0,2017-05-19 10:19:13,45.03257357949274
-0.612,0.153,9.807,160.0,2017-05-19 10:19:14,44.21778627397808
-0.612,0.153,9.807,158.0,2017-05-19 10:19:15,44.71957680817995
-0.612,0.153,9.807,162.0,2017-05-19 10:19:17,44.44691167403727
-0.612,0.153,9.807,173.0,2017-05-19 10:19:18,44.80126016075153
-0.612,0.153,9.807,173.0,2017-05-19 10:19:19,42.712319036617984
-0.612,0.153,9.807,175.0,2017-05-19 10:19:20,43.956440786071795
-0.612,0.153,9.807,171.0,2017-05-19 10:19:21,44.83577179358494
-0.612,0.153,9.807,175.0,2017-05-19 10:19:22,44.94299900022439
-0.612,0.153,9.807,168.0,2017-05-19 10:19:23,45.43426288088562
-0.612,0.153,9.807,171.0,2017-05-19 10:19:24,46.347810629582675
-0.612,0.153,9.807,168.0,2017-05-19 10:19:25,43.61291611312599
-0.612,0.153,9.807,171.0,2017-05-19 10:19:26,45.46500789672628
-0.612,0.153,9.807,173.0,2017-05-19 10:19:27,44.67180027680223
-0.612,0.153,9.807,173.0,2017-05-19 10:19:28,43.5357593393288
-0.612,0.153,9.807,171.0,2017-05-19 10:19:29,44.437996549939804
-0.612,0.153,9.807,173.0,2017-05-19 10:19:30,44.77873154364012
-0.612,0.153,9.807,171.0,2017-05-19 10:19:31,43.412476957263394
-0.612,0.153,9.807,166.0,2017-05-19 10:19:32,43.570693844375285
-0.612,0.153,9.807,166.0,2017-05-19 10:19:34,40.984627681353246
-0.612,0.153,9.807,173.0,2017-05-19 10:19:35,42.73526089242958
-0.612,0.153,9.807,166.0,2017-05-19 10:19:36,43.262544230783575
-0.612,0.153,9.807,168.0,2017-05-19 10:19:37,41.78773593789687
-0.612,0.153,9.807,166.0,2017-05-19 10:19:38,42.02081315901026
-0.612,0.153,9.807,164.0,2017-05-19 10:19:39,45.61000478996127
-0.612,0.153,9.807,162.0,2017-05-19 10:19:40,43.81967539643522
-0.612,0.153,9.807,164.0,2017-05-19 10:19:41,44.31939024250961
-0.612,0.153,9.807,166.0,2017-05-19 10:19:42,47.98665295732405
-0.612,0.153,9.807,166.0,2017-05-19 10:19:43,48.80063966290287
-0.612,0.153,9.807,158.0,2017-05-19 10:19:44,47.35763599993467
-0.612,0.153,9.653,160.0,2017-05-19 10:19:45,45.63498809824588
-0.612,0.153,9.807,164.0,2017-05-19 10:19:47,47.35091111090916
-0.612,0.153,9.807,162.0,2017-05-19 10:19:48,45.65588514382679
-0.612,0.153,9.807,171.0,2017-05-19 10:19:49,47.342930320635006
-0.612,0.153,9.807,166.0,2017-05-19 10:19:50,47.04558549039389
-0.612,0.153,9.807,160.0,2017-05-19 10:19:51,45.16573629125854
-0.612,0.153,9.807,168.0,2017-05-19 10:19:52,45.440158483233766
-0.612,0.153,9.807,164.0,2017-05-19 10:19:53,50.98369826309735
-0.612,0.153,9.807,164.0,2017-05-19 10:19:54,49.77698118312192
-0.612,0.153,9.807,173.0,2017-05-19 10:19:55,47.54227583339096
-0.612,0.153,9.807,173.0,2017-05-19 10:19:56,46.41201072346732
-0.612,0.153,9.807,173.0,2017-05-19 10:19:57,50.199016477349716
-0.612,0.153,9.807,175.0,2017-05-19 10:19:59,47.30265385803149
-0.612,0.153,9.807,171.0,2017-05-19 10:20:00,46.46360772570795
-0.612,0.153,9.807,171.0,2017-05-19 10:20:01,46.1834134267915
-0.612,0.153,9.807,168.0,2017-05-19 10:20:02,46.59988804094215
-0.612,0.153,9.807,173.0,2017-05-19 10:20:03,47.58502396714006
-0.612,0.153,9.807,164.0,2017-05-19 10:20:04,44.299559087002514
-0.612,0.153,9.807,158.0,2017-05-19 10:20:05,48.9688654478978
-0.612,0.153,9.807,158.0,2017-05-19 10:20:06,44.37406626713329
-0.612,0.153,9.807,162.0,2017-05-19 10:20:07,49.919963618258045
-0.612,0.153,9.807,164.0,2017-05-19 10:20:08,45.83348107889805
-0.612,0.153,9.807,166.0,2017-05-19 10:20:10,49.14408878199292
-0.612,0.153,9.807,173.0,2017-05-19 10:20:11,50.06242807262636
-0.612,0.153,9.807,171.0,2017-05-19 10:20:12,46.80129565712964
-0.612,0.153,9.807,179.0,2017-05-19 10:20:13,41.95935092988924
-0.612,0.153,9.807,173.0,2017-05-19 10:20:14,42.703317276147665
-0.612,0.153,9.807,166.0,2017-05-19 10:20:15,44.93854999769677
-0.612,0.153,9.807,168.0,2017-05-19 10:20:16,45.39753410222829
-0.612,0.153,9.807,164.0,2017-05-19 10:20:17,43.97895491206083
-0.612,0.153,9.807,175.0,2017-05-19 10:20:19,43.937215884783505
-0.612,0.153,9.807,171.0,2017-05-19 10:20:20,45.312516513211484
-0.612,0.153,9.807,175.0,2017-05-19 10:20:21,45.0229936501401
-0.612,0.153,9.807,168.0,2017-05-19 10:20:22,44.18108240160332
-0.612,0.153,9.807,171.0,2017-05-19 10:20:23,44.550027392578585
-0.612,0.153,9.807,168.0,2017-05-19 10:20:24,43.98592967900575
-0.612,0.153,9.807,166.0,2017-05-19 10:20:25,42.03404589152589
-0.612,0.153,9.807,168.0,2017-05-19 10:20:26,43.56579910663385
-0.612,0.153,9.807,164.0,2017-05-19 10:20:27,44.42804829296689
-0.612,0.153,9.807,168.0,2017-05-19 10:20:28,44.69355543062804
-0.612,0.153,9.807,168.0,2017-05-19 10:20:29,45.06503594901288
-0.612,0.153,9.807,168.0,2017-05-19 10:20:30,44.73110129145471
-0.612,0.153,9.807,164.0,2017-05-19 10:20:31,46.22176318556897
-0.612,0.153,9.807,171.0,2017-05-19 10:20:33,46.535386550134035
-0.612,0.153,9.807,171.0,2017-05-19 10:20:34,44.70084353649038
-0.612,0.153,9.807,171.0,2017-05-19 10:20:35,44.9749324264966
-0.612,0.153,9.807,171.0,2017-05-19 10:20:36,50.30211964868053
-0.612,0.153,9.807,175.0,2017-05-19 10:20:37,46.8560087786627
-0.612,0.153,9.807,175.0,2017-05-19 10:20:38,47.29020566408431
-0.612,0.153,9.807,166.0,2017-05-19 10:20:39,46.34921130784878
-0.612,0.153,9.807,173.0,2017-05-19 10:20:40,48.51582610441767
-0.612,0.153,9.807,166.0,2017-05-19 10:20:41,51.56975976939699
-0.612,0.153,9.807,162.0,2017-05-19 10:20:42,53.064920029269956
-0.612,0.153,9.807,166.0,2017-05-19 10:20:44,56.39189606432787
-0.612,0.153,9.807,162.0,2017-05-19 10:20:45,53.98894574998152
-0.612,0.153,9.807,166.0,2017-05-19 10:20:46,52.07055767022733
-0.612,0.153,9.807,162.0,2017-05-19 10:20:47,49.5958335539011
-0.612,0.153,9.807,164.0,2017-05-19 10:20:48,49.37137733680717
-0.612,0.153,9.807,175.0,2017-05-19 10:20:49,50.58407979886694
-0.612,0.153,9.807,166.0,2017-05-19 10:20:50,50.68311120935196
-0.612,0.153,9.807,173.0,2017-05-19 10:20:52,50.40795452907041
-0.612,0.153,9.807,168.0,2017-05-19 10:20:53,51.617325161873175
-0.612,0.153,9.807,177.0,2017-05-19 10:20:54,51.88164414739937
-0.612,0.153,9.807,175.0,2017-05-19 10:20:55,60.351598801852646
-0.612,0.153,9.807,173.0,2017-05-19 10:20:56,51.25038704441727
-0.612,0.153,9.807,173.0,2017-05-19 10:20:57,50.248792482655176
-0.612,0.153,9.807,164.0,2017-05-19 10:20:58,46.450208281931154
-0.612,0.153,9.807,168.0,2017-05-19 10:20:59,49.478975772947116
-0.612,0.153,9.807,171.0,2017-05-19 10:21:00,47.56774607844915
-0.612,0.153,9.807,160.0,2017-05-19 10:21:01,51.46943897593662
-0.612,0.153,9.807,162.0,2017-05-19 10:21:02,51.57358827387972
-0.612,0.153,9.807,171.0,2017-05-19 10:21:03,48.09677993274371
-0.612,0.153,9.807,164.0,2017-05-19 10:21:04,48.388623278628
-0.612,0.153,9.807,164.0,2017-05-19 10:21:05,44.93841679671688
-0.612,0.153,9.807,166.0,2017-05-19 10:21:07,44.390265070150754
-0.612,0.153,9.807,168.0,2017-05-19 10:21:08,44.74899003158331
-0.612,0.153,9.807,168.0,2017-05-19 10:21:10,50.747181374928594
-0.612,0.153,9.807,173.0,2017-05-19 10:21:11,54.11752735615085
-0.612,0.153,9.807,171.0,2017-05-19 10:21:12,38.686323173546526
-0.612,0.153,9.807,173.0,2017-05-19 10:21:13,37.12209450294432
-0.612,0.153,9.807,173.0,2017-05-19 10:21:14,36.52174093637667
-0.612,0.153,9.807,179.0,2017-05-19 10:21:15,37.95563518515308
-0.612,0.153,9.807,173.0,2017-05-19 10:21:16,40.91333196269357
-0.612,0.153,9.807,171.0,2017-05-19 10:21:17,40.29288511642682
-0.612,0.153,9.807,173.0,2017-05-19 10:21:18,47.380007985824015
-0.612,0.153,9.807,171.0,2017-05-19 10:21:20,42.32214280196311
-0.612,0.153,9.807,173.0,2017-05-19 10:21:21,42.24539698689016
-0.612,0.153,9.807,171.0,2017-05-19 10:21:22,44.97046504591541
-0.612,0.153,9.807,162.0,2017-05-19 10:21:23,44.423809832730036
-0.612,0.153,9.807,162.0,2017-05-19 10:21:24,43.99198506060745
-0.612,0.153,9.807,160.0,2017-05-19 10:21:25,43.712860519808025
-0.612,0.153,9.807,164.0,2017-05-19 10:21:26,52.88309832762135
-0.612,0.153,9.807,168.0,2017-05-19 10:21:28,55.369692183356904
-0.612,0.153,9.807,171.0,2017-05-19 10:21:29,42.41742074505023
-0.612,0.153,9.807,175.0,2017-05-19 10:21:30,41.37131387341923
-0.612,0.153,9.807,171.0,2017-05-19 10:21:31,42.49772576735793
-0.612,0.153,9.807,175.0,2017-05-19 10:21:32,46.270742872224425
-0.612,0.153,9.807,173.0,2017-05-19 10:21:33,47.998995160696595
-0.306,0.306,9.807,175.0,2017-05-19 10:21:34,45.06526171614003
-0.612,0.153,9.807,175.0,2017-05-19 10:21:35,44.785816451371176
-0.612,0.153,9.807,171.0,2017-05-19 10:21:37,44.41063899725724
-0.612,0.153,9.807,173.0,2017-05-19 10:21:38,47.18232974270785
-0.612,0.153,9.807,198.0,2017-05-19 10:21:39,54.94371869595328
-0.612,0.153,9.807,164.0,2017-05-19 10:21:40,64.95069168701929
-0.612,0.153,9.807,156.0,2017-05-19 10:21:41,45.78251365989426
-0.612,0.153,9.807,185.0,2017-05-19 10:21:42,54.45493314631996
-0.612,0.153,9.807,196.0,2017-05-19 10:21:43,61.1531893212306
-0.612,0.153,9.807,217.0,2017-05-19 10:21:44,63.10745560587026
-0.612,0.153,9.807,221.0,2017-05-19 10:21:45,47.361754140258235
1.072,0.612,10.726,54.0,2017-05-19 10:21:46,44.07681682421039
-0.153,2.298,9.653,33.0,2017-05-19 10:21:47,48.96920754316304
-0.919,3.524,7.661,27.0,2017-05-19 10:21:48,44.58012912467461
4.443,-1.072,8.887,59.0,2017-05-19 10:21:49,43.18871664513098
4.597,-0.919,8.274,4.0,2017-05-19 10:21:50,43.71635135304479
4.75,-0.919,8.274,4.0,2017-05-19 10:21:52,47.951344976414624
4.75,-0.919,8.274,4.0,2017-05-19 10:21:53,47.061169323694116
4.597,-0.919,8.274,4.0,2017-05-19 10:21:54,72.49879347693701
4.597,-0.919,8.274,4.0,2017-05-19 10:21:55,74.55891813543529
4.597,-0.919,8.274,4.0,2017-05-19 10:21:56,50.66296602504898
4.75,-0.919,8.274,4.0,2017-05-19 10:21:57,50.184523282106866
4.597,-0.919,8.274,4.0,2017-05-19 10:21:58,47.71046457504747
4.597,-0.919,8.274,4.0,2017-05-19 10:21:59,49.35274248670954
4.597,-0.919,8.274,4.0,2017-05-19 10:22:01,49.6439027317983
4.597,-0.919,8.274,4.0,2017-05-19 10:22:02,48.03606677368854
4.597,-0.919,8.274,2.0,2017-05-19 10:22:03,48.431556247810015
4.597,-0.919,8.274,2.0,2017-05-19 10:22:04,50.453433847681225
4.597,-0.919,8.274,2.0,2017-05-19 10:22:05,52.75372743257371
4.75,-0.919,8.274,2.0,2017-05-19 10:22:06,50.34116176855282
4.75,-0.919,8.274,2.0,2017-05-19 10:22:07,51.150448846849926
4.597,-0.919,8.274,0.0,2017-05-19 10:22:08,59.2177122290316
4.75,-0.919,8.274,2.0,2017-05-19 10:22:09,56.58893481194639
4.75,-0.919,8.274,2.0,2017-05-19 10:22:10,70.8480808764653
4.597,-0.919,8.274,0.0,2017-05-19 10:22:11,62.34766687618241
4.597,-0.919,8.274,2.0,2017-05-19 10:22:12,48.49654177260291
4.597,-0.919,8.274,2.0,2017-05-19 10:22:14,47.43491685080467
4.597,-0.919,8.274,2.0,2017-05-19 10:22:15,47.31767753910367
4.597,-0.919,8.274,2.0,2017-05-19 10:22:16,48.690964768334304
4.597,-0.919,8.274,2.0,2017-05-19 10:22:17,50.3119059325402
4.597,-0.919,8.274,0.0,2017-05-19 10:22:18,48.144910271521624
4.597,-0.919,8.274,2.0,2017-05-19 10:22:19,47.53478853056663
4.75,-0.919,8.274,0.0,2017-05-19 10:22:20,48.48445825419852
4.75,-0.919,8.274,0.0,2017-05-19 10:22:21,47.83484775203726
4.597,-0.919,8.274,2.0,2017-05-19 10:22:22,48.13946291027897
4.75,-0.919,8.274,0.0,2017-05-19 10:22:23,47.676521443371115
4.597,-0.919,8.274,0.0,2017-05-19 10:22:24,49.5108194948114
4.597,-0.919,8.274,2.0,2017-05-19 10:22:25,47.91284316476617
4.75,-0.919,8.274,2.0,2017-05-19 10:22:27,49.77891676156854
4.597,-0.919,8.274,2.0,2017-05-19 10:22:28,49.379867715144854
4.597,-0.919,8.274,2.0,2017-05-19 10:22:29,49.186986057157576
4.75,-0.919,8.274,2.0,2017-05-19 10:22:30,48.86887155159356
4.597,-0.919,8.274,0.0,2017-05-19 10:22:31,49.57625586776232
4.597,-0.919,8.274,2.0,2017-05-19 10:22:32,48.80155169427249
4.597,-0.919,8.274,2.0,2017-05-19 10:22:33,49.66902226267671
4.75,-0.919,8.274,2.0,2017-05-19 10:22:34,49.41198922612155
4.597,-0.919,8.274,2.0,2017-05-19 10:22:35,49.9645375597713
4.597,-0.919,8.274,0.0,2017-05-19 10:22:36,49.12786783671461
4.597,-0.919,8.274,0.0,2017-05-19 10:22:37,49.56022209801511
4.597,-0.919,8.274,2.0,2017-05-19 10:22:38,48.53580650475753
4.75,-0.919,8.274,0.0,2017-05-19 10:22:39,50.45163121175146
4.597,-0.919,8.274,0.0,2017-05-19 10:22:40,48.60259115054778
4.597,-0.919,8.274,2.0,2017-05-19 10:22:42,47.57840274761612
4.75,-0.919,8.274,2.0,2017-05-19 10:22:43,49.5347539305721
4.75,-0.919,8.274,0.0,2017-05-19 10:22:44,48.735500791833495
4.597,-0.919,8.274,2.0,2017-05-19 10:22:45,48.252535666649656
4.597,-0.919,8.274,2.0,2017-05-19 10:22:46,48.038778905936354
4.75,-0.919,8.274,2.0,2017-05-19 10:22:47,48.585107112648956
4.75,-0.919,8.274,2.0,2017-05-19 10:22:48,48.021190974770505
4.75,-0.919,8.274,2.0,2017-05-19 10:22:49,46.77963861551791
4.597,-0.919,8.274,2.0,2017-05-19 10:22:50,49.222434032250284
4.75,-0.919,8.274,2.0,2017-05-19 10:22:51,51.47721142355418
4.597,-0.919,8.274,2.0,2017-05-19 10:22:53,49.43892580966644
4.597,-0.919,8.274,2.0,2017-05-19 10:22:54,49.73089331356775
4.597,-0.919,8.274,2.0,2017-05-19 10:22:55,51.33553238255033
4.597,-0.919,8.274,2.0,2017-05-19 10:22:56,49.8857302997666
4.75,-0.919,8.274,2.0,2017-05-19 10:22:57,50.13136160429772
4.597,-0.919,8.274,2.0,2017-05-19 10:22:58,50.30782831777114
4.75,-0.919,8.274,2.0,2017-05-19 10:23:00,50.08072084567171
4.597,-0.919,8.274,0.0,2017-05-19 10:23:01,49.1254959740947
4.75,-0.919,8.274,2.0,2017-05-19 10:23:02,49.80709350244823
4.75,-0.919,8.274,2.0,2017-05-19 10:23:03,48.60059163662499
4.75,-0.919,8.274,2.0,2017-05-19 10:23:04,48.149683167136686
4.597,-0.919,8.274,2.0,2017-05-19 10:23:05,49.497786848184035
4.597,-0.919,8.274,0.0,2017-05-19 10:23:06,49.247950275421914
4.75,-0.919,8.274,2.0,2017-05-19 10:23:07,50.71738180953177
4.75,-0.919,8.274,2.0,2017-05-19 10:23:08,49.72182379061958
4.75,-0.919,8.274,2.0,2017-05-19 10:23:09,48.616733912285326
4.75,-0.919,8.274,2.0,2017-05-19 10:23:11,49.54055254978962
4.597,-0.919,8.274,2.0,2017-05-19 10:23:12,50.38399109213424
4.597,-0.919,8.274,2.0,2017-05-19 10:23:13,49.32374771924958
4.75,-0.919,8.274,2.0,2017-05-19 10:23:14,49.5852171782196
4.597,-0.919,8.274,2.0,2017-05-19 10:23:15,49.40541619869924
4.75,-0.919,8.274,2.0,2017-05-19 10:23:16,48.407025258354906
4.597,-0.919,8.274,0.0,2017-05-19 10:23:17,48.929409822488815
4.597,-0.919,8.274,2.0,2017-05-19 10:23:18,49.56683234402169
4.75,-0.919,8.274,2.0,2017-05-19 10:23:19,48.61854058937201
4.597,-0.919,8.274,2.0,2017-05-19 10:23:20,47.99643308289153
4.75,-0.919,8.274,2.0,2017-05-19 10:23:21,49.003605902901704
4.597,-0.919,8.274,0.0,2017-05-19 10:23:22,49.8414554870175
4.75,-0.919,8.274,0.0,2017-05-19 10:23:23,47.68488093002094
4.75,-0.919,8.274,2.0,2017-05-19 10:23:24,48.80099974052965
4.597,-0.919,8.274,2.0,2017-05-19 10:23:25,49.06209359084629
4.75,-0.919,8.274,2.0,2017-05-19 10:23:27,49.03564211670704
4.597,-0.919,8.274,2.0,2017-05-19 10:23:28,49.63741371283398
4.75,-0.919,8.274,2.0,2017-05-19 10:23:29,48.556312355173326
4.75,-0.919,8.274,2.0,2017-05-19 10:23:30,49.981693552549714
4.75,-0.919,8.274,2.0,2017-05-19 10:23:31,51.13176762321868
4.597,-0.919,8.274,2.0,2017-05-19 10:23:32,48.39632807912105
4.597,-0.919,8.274,2.0,2017-05-19 10:23:33,47.61459644168273
4.597,-0.919,8.274,2.0,2017-05-19 10:23:34,49.67968100857759
4.75,-0.919,8.274,2.0,2017-05-19 10:23:35,51.672217129624116
4.597,-0.919,8.274,2.0,2017-05-19 10:23:36,50.60660463456564
4.597,-0.919,8.274,2.0,2017-05-19 10:23:37,50.53254995859818
4.75,-0.919,8.274,2.0,2017-05-19 10:23:39,50.960275317932016
4.75,-0.919,8.274,2.0,2017-05-19 10:23:40,50.90752471525797
4.597,-0.919,8.274,2.0,2017-05-19 10:23:41,49.64511584056407
4.597,-0.919,8.274,2.0,2017-05-19 10:23:42,46.67053907494494
4.597,-0.919,8.274,2.0,2017-05-19 10:23:43,48.69270947515744
4.75,-0.919,8.274,2.0,2017-05-19 10:23:44,49.514479152698804
4.597,-0.919,8.274,2.0,2017-05-19 10:23:45,49.178315510880466
4.75,-0.919,8.274,2.0,2017-05-19 10:23:46,51.080954363763695
4.75,-0.919,8.274,2.0,2017-05-19 10:23:47,48.285713291253714
4.75,-0.919,8.274,2.0,2017-05-19 10:23:48,48.69744628832833
4.597,-0.919,8.274,2.0,2017-05-19 10:23:50,47.78470882045973
4.597,-0.919,8.274,2.0,2017-05-19 10:23:51,45.80566834316465
4.597,-0.919,8.274,2.0,2017-05-19 10:23:52,48.186274344489284
4.75,-0.919,8.274,2.0,2017-05-19 10:23:53,50.40793957962788
4.75,-0.919,8.274,2.0,2017-05-19 10:23:54,47.71391186492959
4.75,-0.919,8.274,2.0,2017-05-19 10:23:55,49.77458762063443
4.75,-0.919,8.274,2.0,2017-05-19 10:23:56,49.44322172536004
4.597,-0.919,8.274,2.0,2017-05-19 10:23:57,48.95639932400396
4.597,-0.919,8.274,2.0,2017-05-19 10:23:58,50.38859481957802
4.597,-0.919,8.274,2.0,2017-05-19 10:23:59,48.67964053402443
4.75,-0.919,8.274,2.0,2017-05-19 10:24:01,50.32157669996165
4.597,-0.919,8.274,2.0,2017-05-19 10:24:02,50.191321865809684
4.75,-0.919,8.274,2.0,2017-05-19 10:24:03,50.38116326115782
4.75,-0.919,8.274,2.0,2017-05-19 10:24:04,49.0424132475217
4.75,-0.919,8.274,2.0,2017-05-19 10:24:05,48.24044273958962
4.75,-0.919,8.274,2.0,2017-05-19 10:24:06,49.73925180664299
4.75,-0.919,8.274,2.0,2017-05-19 10:24:07,50.39552999315558
4.75,-0.919,8.274,2.0,2017-05-19 10:24:09,48.753859942299655
4.75,-0.919,8.274,2.0,2017-05-19 10:24:10,50.00941330266352
4.75,-0.919,8.274,2.0,2017-05-19 10:24:11,49.29773050634752
4.75,-0.919,8.274,2.0,2017-05-19 10:24:12,46.90291182322275
4.597,-0.919,8.274,2.0,2017-05-19 10:24:13,47.803561799370215
4.597,-0.919,8.274,2.0,2017-05-19 10:24:14,48.968378758901196
4.75,-0.919,8.274,2.0,2017-05-19 10:24:16,49.18439262195511
4.75,-0.919,8.274,0.0,2017-05-19 10:24:17,50.36674098754144
4.75,-0.919,8.274,0.0,2017-05-19 10:24:18,50.65267897099343
4.597,-0.919,8.274,2.0,2017-05-19 10:24:19,49.61387408239291
4.75,-0.919,8.274,2.0,2017-05-19 10:24:20,50.327880216330485
4.75,-0.919,8.274,2.0,2017-05-19 10:24:21,50.60247841075299
4.597,-0.919,8.274,2.0,2017-05-19 10:24:22,51.3740138224303
4.597,-0.919,8.274,2.0,2017-05-19 10:24:23,50.51032302747941
4.75,-0.919,8.274,2.0,2017-05-19 10:24:24,49.07517653837136
4.597,-0.919,8.274,2.0,2017-05-19 10:24:25,49.49671139607971
4.597,-0.919,8.274,2.0,2017-05-19 10:24:26,48.38998491448892
4.597,-0.919,8.274,2.0,2017-05-19 10:24:27,49.04454765240906
4.75,-0.919,8.274,2.0,2017-05-19 10:24:28,49.182800957395386
4.75,-0.919,8.274,2.0,2017-05-19 10:24:29,50.33908447089267
4.75,-0.919,8.274,2.0,2017-05-19 10:24:30,48.781869875754786
4.75,-0.919,8.274,2.0,2017-05-19 10:24:32,48.701084465063516
4.75,-0.919,8.274,2.0,2017-05-19 10:24:33,48.272078165296975
4.597,-0.919,8.274,2.0,2017-05-19 10:24:34,49.40907895696505
4.75,-0.919,8.274,2.0,2017-05-19 10:24:35,49.620411079891554
4.75,-0.919,8.274,2.0,2017-05-19 10:24:36,48.464909168536536
4.75,-0.919,8.274,2.0,2017-05-19 10:24:37,49.87506768136795
4.75,-0.919,8.274,2.0,2017-05-19 10:24:38,48.95055125886165
4.597,-0.919,8.274,2.0,2017-05-19 10:24:39,47.56838234410864
4.75,-0.919,8.274,2.0,2017-05-19 10:24:40,48.444458179617946
4.75,-0.919,8.274,2.0,2017-05-19 10:24:41,49.307107370794014
4.597,-0.919,8.274,2.0,2017-05-19 10:24:43,49.76823698286707
4.75,-0.919,8.274,2.0,2017-05-19 10:24:44,48.33118313439333
4.75,-0.919,8.274,2.0,2017-05-19 10:24:45,49.44739117022456
4.75,-0.919,8.274,2.0,2017-05-19 10:24:46,50.349889783852774
4.75,-0.919,8.274,2.0,2017-05-19 10:24:47,49.86940508263054
4.597,-0.919,8.274,2.0,2017-05-19 10:24:48,49.575320151968725
4.75,-0.919,8.274,2.0,2017-05-19 10:24:49,48.310864267233256
4.597,-0.919,8.274,2.0,2017-05-19 10:24:50,50.59000353935231
4.75,-0.919,8.274,2.0,2017-05-19 10:24:51,49.89382454525423
4.75,-0.919,8.274,2.0,2017-05-19 10:24:52,49.0332954628198
4.597,-0.919,8.274,2.0,2017-05-19 10:24:53,48.71463618506936
4.75,-0.919,8.274,2.0,2017-05-19 10:24:54,50.01050413478371
4.75,-0.919,8.274,0.0,2017-05-19 10:24:56,50.562371224311455
4.75,-0.919,8.274,2.0,2017-05-19 10:24:57,48.960094793561225
4.75,-0.919,8.274,2.0,2017-05-19 10:24:58,48.43073393311319
4.597,-0.919,8.274,2.0,2017-05-19 10:24:59,49.18037024239001
4.75,-0.919,8.274,2.0,2017-05-19 10:25:00,49.77278940181016
4.75,-0.919,8.274,2.0,2017-05-19 10:25:01,50.63730815006962
4.597,-0.919,8.274,2.0,2017-05-19 10:25:02,49.80142746945104
4.597,-0.919,8.274,2.0,2017-05-19 10:25:03,50.62902158358863
4.597,-0.919,8.274,0.0,2017-05-19 10:25:04,48.77130930605456
4.597,-0.919,8.274,2.0,2017-05-19 10:25:05,50.0354580465412
4.597,-0.919,8.274,2.0,2017-05-19 10:25:06,48.84002935200012
4.75,-0.919,8.274,2.0,2017-05-19 10:25:07,49.674409103687594
4.75,-0.919,8.274,2.0,2017-05-19 10:25:09,50.94093752195909
4.75,-0.919,8.274,2.0,2017-05-19 10:25:10,49.15402407726643
4.597,-0.919,8.274,2.0,2017-05-19 10:25:11,50.260285841174614
4.597,-0.919,8.274,2.0,2017-05-19 10:25:12,48.70369499101471
4.75,-0.919,8.274,2.0,2017-05-19 10:25:13,50.13739740033742
4.597,-0.919,8.274,0.0,2017-05-19 10:25:14,50.40198573554391
4.75,-0.919,8.274,2.0,2017-05-19 10:25:16,47.1371967902942
4.75,-0.919,8.274,0.0,2017-05-19 10:25:17,47.66789646941052
4.75,-0.919,8.274,2.0,2017-05-19 10:25:18,48.568727190606324
4.75,-0.919,8.274,2.0,2017-05-19 10:25:19,49.9342490452302
4.75,-0.919,8.274,2.0,2017-05-19 10:25:20,50.37045912672114
4.75,-0.919,8.274,2.0,2017-05-19 10:25:21,47.919174060686096
4.75,-0.919,8.274,2.0,2017-05-19 10:25:22,48.542813842596814
4.75,-0.919,8.274,2.0,2017-05-19 10:25:24,47.49025538161611
4.597,-0.919,8.274,2.0,2017-05-19 10:25:25,47.69402299137316
4.597,-0.919,8.274,2.0,2017-05-19 10:25:26,49.94282651398819
4.597,-0.919,8.274,0.0,2017-05-19 10:25:27,48.46048201716666
4.75,-0.919,8.274,2.0,2017-05-19 10:25:29,49.30893690734965
4.597,-0.919,8.274,2.0,2017-05-19 10:25:30,49.61729262591152
4.75,-0.919,8.274,2.0,2017-05-19 10:25:31,49.90985360550315
4.75,-0.919,8.274,0.0,2017-05-19 10:25:32,48.201302073355805
4.597,-0.919,8.274,0.0,2017-05-19 10:25:33,50.613142896321776
4.75,-0.919,8.274,2.0,2017-05-19 10:25:34,49.00095028958384
4.597,-0.919,8.274,2.0,2017-05-19 10:25:35,50.856674448159026
4.597,-0.919,8.274,0.0,2017-05-19 10:25:36,50.920443616271726
4.75,-0.919,8.274,2.0,2017-05-19 10:25:37,49.56880166165115
4.75,-0.919,8.274,2.0,2017-05-19 10:25:38,48.95707044184982
4.75,-0.919,8.274,2.0,2017-05-19 10:25:40,50.04730213586591
4.75,-0.919,8.274,2.0,2017-05-19 10:25:41,50.867144190367206
4.75,-0.919,8.274,2.0,2017-05-19 10:25:42,50.90815887290198
4.75,-0.919,8.274,0.0,2017-05-19 10:25:43,51.20138328490681
4.597,-0.919,8.274,2.0,2017-05-19 10:25:44,50.01702080398081
4.597,-0.919,8.274,2.0,2017-05-19 10:25:45,49.92721012526897
4.75,-0.919,8.274,2.0,2017-05-19 10:25:46,50.60432095938573
4.75,-0.919,8.274,2.0,2017-05-19 10:25:47,49.65296560248302
4.597,-0.919,8.274,0.0,2017-05-19 10:25:48,48.21795188052056
4.75,-0.919,8.274,2.0,2017-05-19 10:25:50,50.32148633494417
4.75,-0.919,8.274,0.0,2017-05-19 10:25:51,49.29695748103605
4.597,-0.919,8.274,2.0,2017-05-19 10:25:52,49.55209170624811
4.75,-0.919,8.274,0.0,2017-05-19 10:25:53,49.66894610051565
4.75,-0.919,8.274,2.0,2017-05-19 10:25:54,49.29618064744696
4.597,-0.919,8.274,2.0,2017-05-19 10:25:55,50.18177374188901
4.75,-0.919,8.274,2.0,2017-05-19 10:25:56,49.354045369850006
4.75,-0.919,8.274,2.0,2017-05-19 10:25:57,48.25017232492221
4.597,-0.919,8.274,0.0,2017-05-19 10:25:59,47.70958708921135
4.75,-0.919,8.274,2.0,2017-05-19 10:26:00,48.06547441970945
4.75,-0.919,8.274,2.0,2017-05-19 10:26:01,49.32352886771814
4.597,-0.919,8.274,0.0,2017-05-19 10:26:02,48.26867658521109
4.597,-0.919,8.274,0.0,2017-05-19 10:26:03,48.7422712412004
4.597,-0.919,8.274,0.0,2017-05-19 10:26:04,48.989374103459625
4.75,-0.919,8.274,2.0,2017-05-19 10:26:05,48.30766447657566
4.75,-0.919,8.274,0.0,2017-05-19 10:26:06,49.124747787879414
4.75,-0.919,8.274,2.0,2017-05-19 10:26:07,48.128864629595675
4.75,-0.919,8.274,0.0,2017-05-19 10:26:08,49.07138413253431
4.75,-0.919,8.274,2.0,2017-05-19 10:26:09,48.8457494037616
4.597,-0.919,8.274,0.0,2017-05-19 10:26:10,49.52451639956805
4.75,-0.919,8.274,0.0,2017-05-19 10:26:12,48.925332864380245
4.597,-0.919,8.274,0.0,2017-05-19 10:26:13,50.235611929372084
4.75,-0.919,8.274,0.0,2017-05-19 10:26:14,50.759606556033035
4.75,-0.919,8.274,2.0,2017-05-19 10:26:15,50.704498350947915
4.75,-0.919,8.274,4.0,2017-05-19 10:26:16,49.893243447270336
4.75,-0.919,8.274,4.0,2017-05-19 10:26:17,50.444833386210384
4.597,-0.919,8.274,4.0,2017-05-19 10:26:18,50.84501967902031
4.75,-0.919,8.427,2.0,2017-05-19 10:26:19,50.26709533206734
4.75,-0.919,8.274,2.0,2017-05-19 10:26:20,54.08123232983229
4.75,-0.919,8.274,2.0,2017-05-19 10:26:22,52.05990945328416
4.75,-0.919,8.274,0.0,2017-05-19 10:26:23,67.60675832312047
4.597,-0.919,8.274,2.0,2017-05-19 10:26:24,70.03581030225197
4.597,-0.919,8.274,2.0,2017-05-19 10:26:25,53.93676334949739
4.75,-0.919,8.274,2.0,2017-05-19 10:26:26,49.456435663671414
4.75,-0.919,8.274,2.0,2017-05-19 10:26:27,50.943585660991104
4.597,-0.919,8.274,2.0,2017-05-19 10:26:28,51.625832422189305
4.75,-0.919,8.274,2.0,2017-05-19 10:26:29,55.08915652910393
4.75,-0.919,8.274,2.0,2017-05-19 10:26:30,57.87317932754093
4.597,-0.919,8.274,2.0,2017-05-19 10:26:32,51.16739425567565
4.75,-0.919,8.274,2.0,2017-05-19 10:26:33,50.02101128797189
4.75,-0.919,8.274,2.0,2017-05-19 10:26:34,50.555082347139226
4.75,-0.919,8.274,2.0,2017-05-19 10:26:35,49.13574063588513
4.75,-0.919,8.274,2.0,2017-05-19 10:26:36,50.32456436624949
4.75,-0.919,8.274,2.0,2017-05-19 10:26:37,50.52841258263751
4.75,-0.919,8.274,2.0,2017-05-19 10:26:39,49.812208712802814
4.75,-0.919,8.274,2.0,2017-05-19 10:26:41,62.216744708207585
4.75,-0.919,8.274,2.0,2017-05-19 10:26:42,59.64164018006525
4.597,-0.919,8.274,0.0,2017-05-19 10:26:43,50.467403612545084
4.75,-0.919,8.274,2.0,2017-05-19 10:26:44,51.076102140021234
4.597,-0.919,8.274,2.0,2017-05-19 10:26:45,49.6547453445336
4.75,-0.919,8.274,2.0,2017-05-19 10:26:46,48.82137652199758
4.75,-0.612,8.274,2.0,2017-05-19 10:26:47,48.14761995709172
4.75,-0.919,8.274,2.0,2017-05-19 10:26:49,54.39064399586486
4.597,-0.919,8.274,2.0,2017-05-19 10:26:50,48.7319916624736
4.597,-0.919,8.274,2.0,2017-05-19 10:26:51,56.173428390717966
4.597,-0.919,8.274,2.0,2017-05-19 10:26:52,51.30248137690073
4.597,-0.919,8.274,2.0,2017-05-19 10:26:53,51.48327470772793
4.75,-0.919,8.274,2.0,2017-05-19 10:26:54,51.24049038860627
4.75,-0.919,8.274,2.0,2017-05-19 10:26:56,49.808759010715214
4.75,-0.919,8.274,2.0,2017-05-19 10:26:57,49.01481837097259
4.75,-0.919,8.274,2.0,2017-05-19 10:26:58,53.29744115313215
4.75,-0.919,8.274,2.0,2017-05-19 10:26:59,52.25783224776258
4.597,-0.919,8.274,2.0,2017-05-19 10:27:00,49.0749928239764
4.597,-0.919,8.274,2.0,2017-05-19 10:27:01,51.14257945240189
4.75,-0.919,8.274,2.0,2017-05-19 10:27:02,51.82012933343312
4.75,-0.919,8.274,2.0,2017-05-19 10:27:03,51.39672511371125
4.75,-0.919,8.274,2.0,2017-05-19 10:27:05,50.156967425817555
4.75,-0.919,8.274,0.0,2017-05-19 10:27:06,51.60248073350423
4.75,-0.919,8.274,2.0,2017-05-19 10:27:07,50.71501085034912
4.597,-0.919,8.274,2.0,2017-05-19 10:27:08,49.42108192885904
4.75,-0.919,8.274,2.0,2017-05-19 10:27:09,50.327673946563316
4.75,-0.919,8.274,2.0,2017-05-19 10:27:10,49.66627298799939
4.75,-0.919,8.274,2.0,2017-05-19 10:27:11,48.98104827232711
4.597,-0.919,8.274,2.0,2017-05-19 10:27:12,49.10076422780966
4.75,-0.919,8.274,2.0,2017-05-19 10:27:13,49.523372423679305
4.597,-0.919,8.274,2.0,2017-05-19 10:27:14,49.13284415463142
4.75,-0.919,8.274,2.0,2017-05-19 10:27:16,49.94843270168018
4.75,-0.919,8.274,2.0,2017-05-19 10:27:17,48.704292920345296
4.75,-0.919,8.274,2.0,2017-05-19 10:27:19,49.11010409923283
4.75,-0.919,8.274,2.0,2017-05-19 10:27:20,48.59021110576332
4.75,-0.919,8.274,2.0,2017-05-19 10:27:21,48.862945785957294
4.597,-0.919,8.274,2.0,2017-05-19 10:27:22,48.231124109605865
4.75,-0.919,8.274,2.0,2017-05-19 10:27:23,44.43508040375186
4.75,-0.919,8.274,2.0,2017-05-19 10:27:25,48.5158356548108
4.75,-0.919,8.274,2.0,2017-05-19 10:27:26,48.97764762120574
4.597,-0.919,8.274,2.0,2017-05-19 10:27:27,47.94895246407356
4.75,-0.919,8.274,2.0,2017-05-19 10:27:28,48.809102977514044
4.75,-0.919,8.274,2.0,2017-05-19 10:27:30,49.028947311289734
4.75,-0.919,8.274,2.0,2017-05-19 10:27:31,50.275999685537975
4.75,-0.919,8.274,2.0,2017-05-19 10:27:32,46.08231969628691
4.75,-0.919,8.274,2.0,2017-05-19 10:27:33,49.33887863725686
4.75,-0.919,8.274,2.0,2017-05-19 10:27:34,48.84003750634023
4.597,-0.919,8.274,2.0,2017-05-19 10:27:35,47.31981839291893
4.75,-0.919,8.274,2.0,2017-05-19 10:27:37,48.48356815452813
4.75,-0.919,8.274,2.0,2017-05-19 10:27:38,50.33303641877201
4.597,-0.919,8.274,2.0,2017-05-19 10:27:39,49.24880403262027
4.75,-0.919,8.274,2.0,2017-05-19 10:27:40,48.70932331347143
4.75,-0.919,8.274,2.0,2017-05-19 10:27:41,50.06590148765936
4.75,-0.919,8.274,2.0,2017-05-19 10:27:42,50.35437831096753
4.75,-0.919,8.274,2.0,2017-05-19 10:27:43,48.25482389014379
4.597,-0.919,8.274,2.0,2017-05-19 10:27:44,50.48334539865128
4.75,-0.919,8.274,2.0,2017-05-19 10:27:45,50.18201543082959
4.597,-0.919,8.274,2.0,2017-05-19 10:27:46,49.313466129755994
4.75,-0.919,8.274,2.0,2017-05-19 10:27:47,50.432161457699955
4.597,-0.919,8.274,2.0,2017-05-19 10:27:48,50.97718946938752
4.75,-0.919,8.274,2.0,2017-05-19 10:27:49,51.78886609679233
4.597,-0.919,8.274,2.0,2017-05-19 10:27:50,50.44913078940334
4.75,-0.919,8.274,2.0,2017-05-19 10:27:51,48.079360959140864
4.75,-0.919,8.274,2.0,2017-05-19 10:27:53,49.37879585518416
4.597,-0.919,8.274,2.0,2017-05-19 10:27:54,51.49350651620068
4.75,-0.919,8.274,2.0,2017-05-19 10:27:55,49.870887486489735
4.75,-0.919,8.274,2.0,2017-05-19 10:27:56,48.8881561616444
4.597,-0.919,8.274,2.0,2017-05-19 10:27:57,49.33471896822384
4.75,-0.919,8.274,2.0,2017-05-19 10:27:59,51.1967742838344
4.75,-0.919,8.274,2.0,2017-05-19 10:28:00,50.78565933068258
4.75,-0.919,8.274,2.0,2017-05-19 10:28:01,49.213530199849075
4.75,-0.919,8.274,2.0,2017-05-19 10:28:02,50.142020119844936
4.75,-0.919,8.274,2.0,2017-05-19 10:28:04,51.27395985922885
4.597,-0.919,8.274,2.0,2017-05-19 10:28:05,50.64607591477791
4.75,-0.919,8.274,2.0,2017-05-19 10:28:06,49.047893974550306
4.75,-0.919,8.274,2.0,2017-05-19 10:28:07,47.26962065827303
4.75,-0.919,8.274,2.0,2017-05-19 10:28:08,47.32064093688054
4.75,-0.919,8.274,2.0,2017-05-19 10:28:10,46.93148887887216
4.75,-0.919,8.274,2.0,2017-05-19 10:28:11,49.38735286622784
4.75,-0.919,8.274,2.0,2017-05-19 10:28:12,49.04864994203522
4.75,-0.919,8.274,2.0,2017-05-19 10:28:13,49.29653588892311
4.75,-0.919,8.274,2.0,2017-05-19 10:28:14,50.84096300586804
4.75,-0.919,8.274,2.0,2017-05-19 10:28:16,48.736478708180975
4.597,-0.919,8.274,2.0,2017-05-19 10:28:17,47.14545124365131
4.75,-0.919,8.274,2.0,2017-05-19 10:28:18,49.05170119892379
4.75,-0.919,8.274,2.0,2017-05-19 10:28:19,47.93230966409996
4.75,-0.919,8.274,2.0,2017-05-19 10:28:20,48.52180169026351
4.597,-0.919,8.274,2.0,2017-05-19 10:28:21,46.955739870912225
4.75,-0.919,8.274,2.0,2017-05-19 10:28:22,48.864571295028554
4.75,-0.919,8.274,2.0,2017-05-19 10:28:23,51.058445053856204
4.597,-0.919,8.274,2.0,2017-05-19 10:28:24,48.50863940393854
4.75,-0.919,8.274,2.0,2017-05-19 10:28:26,50.115496824927554
4.75,-0.919,8.274,2.0,2017-05-19 10:28:27,50.447364075615624
4.75,-0.919,8.274,2.0,2017-05-19 10:28:28,47.53701166909324
4.597,-0.919,8.274,2.0,2017-05-19 10:28:29,47.59157863037905
4.75,-0.919,8.274,2.0,2017-05-19 10:28:31,50.0141608102468
4.597,-0.919,8.274,2.0,2017-05-19 10:28:32,50.26401510930416
4.75,-0.919,8.274,2.0,2017-05-19 10:28:33,51.02629411412488
4.75,-0.919,8.274,2.0,2017-05-19 10:28:34,51.0567961172098
4.75,-0.919,8.274,2.0,2017-05-19 10:28:36,48.38820805601286
4.75,-0.919,8.274,2.0,2017-05-19 10:28:37,49.790049676113824
4.75,-0.919,8.274,2.0,2017-05-19 10:28:38,49.99779743282733
4.75,-0.919,8.274,2.0,2017-05-19 10:28:39,50.26256954833357
4.75,-0.919,8.274,2.0,2017-05-19 10:28:40,50.06979097086845
4.75,-0.919,8.274,2.0,2017-05-19 10:28:43,50.972992269819684
4.75,-0.919,8.274,2.0,2017-05-19 10:28:44,49.15834308068646
4.597,-0.919,8.274,2.0,2017-05-19 10:28:45,49.31286490160716
4.597,-0.919,8.274,2.0,2017-05-19 10:28:46,48.77013150041713
4.75,-0.919,8.274,2.0,2017-05-19 10:28:47,50.07815058037374
4.75,-0.919,8.274,2.0,2017-05-19 10:28:48,50.870545796973445
4.597,-0.919,8.274,2.0,2017-05-19 10:28:49,51.17294439453979
4.597,-0.919,8.274,2.0,2017-05-19 10:28:50,50.13297114544771
4.75,-0.919,8.274,2.0,2017-05-19 10:28:52,48.67901436563574
4.75,-0.919,8.274,2.0,2017-05-19 10:28:53,47.24766452726666
4.75,-0.919,8.274,2.0,2017-05-19 10:28:54,47.864714488194984
4.597,-0.919,8.274,2.0,2017-05-19 10:28:55,47.649125375779356
4.75,-0.919,8.274,2.0,2017-05-19 10:28:56,49.31979368761756
4.597,-0.919,8.274,2.0,2017-05-19 10:28:57,50.48742437717692
4.75,-0.919,8.274,2.0,2017-05-19 10:28:58,50.50814811664607
4.75,-0.919,8.274,2.0,2017-05-19 10:29:00,48.69535729479631
4.75,-0.919,8.274,2.0,2017-05-19 10:29:01,47.971679819557835
4.597,-0.919,8.274,2.0,2017-05-19 10:29:02,48.99486089342218
4.597,-0.919,8.274,2.0,2017-05-19 10:29:03,49.94394822064191
4.75,-0.919,8.274,2.0,2017-05-19 10:29:04,49.79713451482041
4.597,-0.919,8.274,2.0,2017-05-19 10:29:05,49.87279257131688
4.75,-0.919,8.274,2.0,2017-05-19 10:29:06,49.572137239365475
4.75,-0.919,8.274,2.0,2017-05-19 10:29:07,49.749681269206924
4.75,-0.919,8.274,2.0,2017-05-19 10:29:08,49.425377707418924
4.75,-0.919,8.274,2.0,2017-05-19 10:29:09,51.53418151393143
4.597,-0.919,8.274,2.0,2017-05-19 10:29:10,51.38552000463448
4.75,-0.919,8.274,2.0,2017-05-19 10:29:11,60.11718982744024
4.75,-0.919,8.274,2.0,2017-05-19 10:29:12,56.96847605803907
4.75,-0.919,8.274,2.0,2017-05-19 10:29:14,51.03874918469365
4.75,-0.919,8.274,2.0,2017-05-19 10:29:15,51.146960648439865
4.597,-0.919,8.274,2.0,2017-05-19 10:29:16,50.57371193622331
4.75,-0.919,8.274,2.0,2017-05-19 10:29:17,51.444746801161536
4.597,-0.919,8.274,2.0,2017-05-19 10:29:18,50.360004752511394
4.75,-0.919,8.274,2.0,2017-05-19 10:29:19,49.97009490102468
4.75,-0.919,8.274,2.0,2017-05-19 10:29:20,61.42711546504594
4.597,-0.919,8.274,2.0,2017-05-19 10:29:22,53.46009682587506
4.75,-0.919,8.274,2.0,2017-05-19 10:29:23,49.96051618740154
4.75,-0.919,8.274,2.0,2017-05-19 10:29:24,49.522075129073286
4.75,-0.919,8.274,2.0,2017-05-19 10:29:26,48.988732798161905
4.75,-0.919,8.274,0.0,2017-05-19 10:29:27,48.472338706433874
4.75,-0.919,8.274,2.0,2017-05-19 10:29:28,49.49783758197847
4.597,-0.919,8.274,2.0,2017-05-19 10:29:29,55.04824322002982
4.75,-0.919,8.274,2.0,2017-05-19 10:29:30,63.9254256061519
4.597,-0.919,8.274,2.0,2017-05-19 10:29:31,52.153256492265655
4.597,-0.919,8.274,2.0,2017-05-19 10:29:32,51.404771471662585
4.75,-0.919,8.274,2.0,2017-05-19 10:29:34,48.2972515568441
4.597,-0.919,8.274,2.0,2017-05-19 10:29:35,49.916809187720574
4.75,-0.919,8.274,2.0,2017-05-19 10:29:36,52.60121838977385
4.75,-0.919,8.274,2.0,2017-05-19 10:29:37,49.87562873107997
4.75,-0.919,8.274,2.0,2017-05-19 10:29:38,48.96628974810667
4.75,-0.919,8.274,2.0,2017-05-19 10:29:39,47.36901474357424
4.75,-0.919,8.274,2.0,2017-05-19 10:29:40,47.669596004412696
4.75,-0.919,8.274,2.0,2017-05-19 10:29:41,51.59083267338442
4.75,-0.919,8.274,2.0,2017-05-19 10:29:42,51.276659294482656
4.597,-0.919,8.274,2.0,2017-05-19 10:29:43,49.523087064230815
4.75,-0.919,8.274,2.0,2017-05-19 10:29:44,48.508270514801445
4.597,-0.919,8.274,2.0,2017-05-19 10:29:46,47.894957044484954
4.75,-0.919,8.274,2.0,2017-05-19 10:29:47,50.634940078712745
4.75,-0.919,8.274,2.0,2017-05-19 10:29:48,53.480059514829385
4.75,-0.919,8.274,2.0,2017-05-19 10:29:49,55.50587869616863
4.597,-0.919,8.274,2.0,2017-05-19 10:29:50,53.278201209280724
4.597,-0.919,8.274,2.0,2017-05-19 10:29:51,54.90538477694369
4.597,-0.919,8.274,2.0,2017-05-19 10:29:52,50.49097848006788
4.597,-0.919,8.274,2.0,2017-05-19 10:29:53,51.0297006763565
4.75,-0.919,8.274,2.0,2017-05-19 10:29:54,49.10263070594952
4.75,-0.919,8.274,2.0,2017-05-19 10:29:55,46.364330732447726
4.597,-0.919,8.274,2.0,2017-05-19 10:29:56,49.25217885285548
4.75,-0.919,8.274,0.0,2017-05-19 10:29:57,49.19129808929468
4.597,-0.919,8.274,2.0,2017-05-19 10:29:58,50.44548077267683
4.75,-0.919,8.274,2.0,2017-05-19 10:29:59,47.397306274117746
4.597,-0.919,8.274,2.0,2017-05-19 10:30:00,49.90402157031899
4.75,-0.919,8.274,2.0,2017-05-19 10:30:01,49.312620857444145
4.75,-0.919,8.274,2.0,2017-05-19 10:30:03,49.79595019591845
4.75,-0.919,8.274,2.0,2017-05-19 10:30:04,49.63359975264844
4.75,-0.919,8.274,2.0,2017-05-19 10:30:05,51.154450925996116
4.75,-0.919,8.274,0.0,2017-05-19 10:30:06,49.36325614276811
4.75,-0.919,8.274,2.0,2017-05-19 10:30:07,49.05986314505008
4.75,-0.919,8.274,2.0,2017-05-19 10:30:08,49.036487645477614
4.75,-0.919,8.274,2.0,2017-05-19 10:30:10,50.274505108995136
4.75,-0.919,8.274,2.0,2017-05-19 10:30:11,48.58596330075991
4.597,-0.919,8.274,2.0,2017-05-19 10:30:12,51.3787979548308
4.75,-0.919,8.274,2.0,2017-05-19 10:30:13,47.66803671028546
4.597,-0.919,8.274,2.0,2017-05-19 10:30:14,48.39396805967287
4.75,-0.919,8.274,2.0,2017-05-19 10:30:15,48.535410252992634
4.597,-0.919,8.274,2.0,2017-05-19 10:30:16,49.502108825937114
4.597,-0.919,8.274,2.0,2017-05-19 10:30:17,48.05330105745233
4.75,-0.919,8.274,2.0,2017-05-19 10:30:18,50.16350733732938
4.75,-1.072,8.274,2.0,2017-05-19 10:30:19,50.82739796167032
4.75,-0.919,8.274,2.0,2017-05-19 10:30:20,53.09470018422498
4.597,-0.919,8.274,2.0,2017-05-19 10:30:21,51.531445146854935
4.75,-0.919,8.274,2.0,2017-05-19 10:30:22,49.64224557497202
4.75,-0.919,8.274,2.0,2017-05-19 10:30:23,50.85597333090085
4.597,-0.919,8.274,2.0,2017-05-19 10:30:25,52.138211756749655
4.597,-0.919,8.274,2.0,2017-05-19 10:30:26,54.86781421248344
4.75,-0.919,8.274,2.0,2017-05-19 10:30:27,52.03275766168506
4.597,-0.919,8.274,2.0,2017-05-19 10:30:28,51.77381276844152
4.75,-0.919,8.274,2.0,2017-05-19 10:30:29,52.15311290508058
4.75,-0.919,8.274,2.0,2017-05-19 10:30:30,49.38374571263839
4.75,-0.919,8.274,2.0,2017-05-19 10:30:31,49.19704228319769
4.75,-0.919,8.274,0.0,2017-05-19 10:30:32,51.98902699663978
4.75,-0.919,8.274,2.0,2017-05-19 10:30:34,50.64634946891395
4.597,-0.919,8.274,2.0,2017-05-19 10:30:35,51.36800484252764
4.75,-0.919,8.274,2.0,2017-05-19 10:30:36,49.937640872294445
4.75,-0.919,8.274,2.0,2017-05-19 10:30:37,50.90070036992344
4.75,-0.919,8.274,2.0,2017-05-19 10:30:38,50.644402754538845
4.597,-0.919,8.274,2.0,2017-05-19 10:30:39,50.530812058565715
4.75,-0.919,8.274,2.0,2017-05-19 10:30:40,49.95351110400832
4.597,-0.919,8.274,2.0,2017-05-19 10:30:41,50.353381289123675
4.75,-0.919,8.274,2.0,2017-05-19 10:30:42,50.84422605672451
4.597,-0.919,8.274,2.0,2017-05-19 10:30:43,50.2555672845621
4.75,-0.919,8.274,2.0,2017-05-19 10:30:44,49.67281725454444
4.75,-0.919,8.274,2.0,2017-05-19 10:30:45,50.209322395887
4.75,-0.919,8.274,0.0,2017-05-19 10:30:46,49.6679330167389
4.597,-0.919,8.274,0.0,2017-05-19 10:30:47,51.906151491624286
4.597,-0.919,8.274,0.0,2017-05-19 10:30:49,49.755037828340186
4.597,-0.919,8.274,2.0,2017-05-19 10:30:50,49.74702920966589
4.597,-0.919,8.274,2.0,2017-05-19 10:30:51,49.32532692943564
4.75,-0.919,8.274,0.0,2017-05-19 10:30:52,50.68581627086549
4.75,-0.919,8.274,2.0,2017-05-19 10:30:53,50.2802675994009
4.75,-0.919,8.274,2.0,2017-05-19 10:30:54,51.87347241596722
4.597,-0.919,8.274,2.0,2017-05-19 10:30:55,51.11092193214291
4.597,-0.919,8.274,2.0,2017-05-19 10:30:56,52.19578698037499
4.75,-0.919,8.274,2.0,2017-05-19 10:30:57,52.817072582804784
4.597,-0.919,8.274,2.0,2017-05-19 10:30:58,51.00495968312805
4.75,-0.919,8.274,2.0,2017-05-19 10:31:00,49.38769822783118
4.597,-0.919,8.274,2.0,2017-05-19 10:31:01,50.725949483125305
4.75,-0.919,8.274,0.0,2017-05-19 10:31:02,50.05167544092396
4.75,-0.919,8.274,0.0,2017-05-19 10:31:03,51.72132884420071
4.597,-0.919,8.274,0.0,2017-05-19 10:31:04,51.18438219034057
4.75,-0.919,8.274,0.0,2017-05-19 10:31:05,50.904806225264394
4.75,-0.919,8.274,0.0,2017-05-19 10:31:06,52.44137592114705
4.597,-0.919,8.274,2.0,2017-05-19 10:31:07,51.888950846687685
4.75,-0.919,8.274,2.0,2017-05-19 10:31:08,51.82689477149175
4.597,-0.919,8.274,2.0,2017-05-19 10:31:09,50.92358442759849
4.597,-0.919,8.274,2.0,2017-05-19 10:31:10,50.7657309186032
4.597,-0.919,8.274,2.0,2017-05-19 10:31:12,51.740630620125756
4.597,-0.919,8.274,2.0,2017-05-19 10:31:13,51.72484928927198
4.597,-0.919,8.274,2.0,2017-05-19 10:31:14,51.764530565720335
4.75,-0.919,8.274,2.0,2017-05-19 10:31:15,53.45667949941454
4.597,-0.919,8.274,2.0,2017-05-19 10:31:16,50.719017893372815
4.597,-0.919,8.274,2.0,2017-05-19 10:31:17,51.78504503019214
4.75,-0.919,8.274,2.0,2017-05-19 10:31:18,51.745326145463395
4.75,-0.919,8.274,2.0,2017-05-19 10:31:19,51.04625239033509
4.75,-0.919,8.274,2.0,2017-05-19 10:31:20,48.57077386608046
4.597,-0.919,8.274,2.0,2017-05-19 10:31:22,50.139602857465576
4.75,-0.919,8.274,2.0,2017-05-19 10:31:23,48.556288132934704
4.75,-0.919,8.274,2.0,2017-05-19 10:31:24,49.00003647603738
4.75,-0.919,8.274,2.0,2017-05-19 10:31:25,51.71022659301424
4.597,-0.919,8.274,0.0,2017-05-19 10:31:26,51.23579346045835
4.597,-0.919,8.274,2.0,2017-05-19 10:31:27,50.66140005669807
4.75,-0.919,8.274,0.0,2017-05-19 10:31:28,50.4847616846083
4.75,-0.919,8.274,2.0,2017-05-19 10:31:29,50.51226129124074
4.597,-0.919,8.274,2.0,2017-05-19 10:31:30,53.28273852346712
4.75,-0.919,8.274,2.0,2017-05-19 10:31:31,48.85193891826796
4.75,-0.919,8.274,2.0,2017-05-19 10:31:32,50.827543674033684
4.597,-0.919,8.274,0.0,2017-05-19 10:31:33,48.842752404828246
4.597,-0.919,8.274,2.0,2017-05-19 10:31:34,50.26353858846609
4.75,-0.919,8.274,2.0,2017-05-19 10:31:35,51.715003917081894
4.597,-0.919,8.274,2.0,2017-05-19 10:31:36,51.682930127781404
4.597,-0.919,8.274,2.0,2017-05-19 10:31:37,49.85397013928002
4.597,-0.919,8.274,2.0,2017-05-19 10:31:38,48.75602147836774
4.597,-0.919,8.274,2.0,2017-05-19 10:31:39,51.85665575181697
4.597,-0.919,8.274,2.0,2017-05-19 10:31:40,51.585998754531346
4.75,-0.919,8.274,2.0,2017-05-19 10:31:41,49.853244287161175
4.75,-0.919,8.274,0.0,2017-05-19 10:31:43,51.36341325145962
4.75,-0.919,8.274,2.0,2017-05-19 10:31:44,48.91917595101992
4.75,-0.919,8.274,2.0,2017-05-19 10:31:45,51.121960243194486
4.597,-0.919,8.274,0.0,2017-05-19 10:31:46,50.18705711520711
4.75,-0.919,8.274,2.0,2017-05-19 10:31:47,49.214881370616084
4.75,-0.919,8.274,2.0,2017-05-19 10:31:48,52.064528059151996
4.75,-0.919,8.274,2.0,2017-05-19 10:31:49,51.05034925876079
4.75,-0.919,8.274,2.0,2017-05-19 10:31:53,50.14813163662467
4.597,-0.919,8.274,2.0,2017-05-19 10:31:54,50.840864039814704
4.597,-0.919,8.274,2.0,2017-05-19 10:31:55,50.43949541647842
4.597,-0.919,8.274,2.0,2017-05-19 10:31:56,50.36750275282046
4.597,-0.919,8.274,2.0,2017-05-19 10:31:57,48.14969667475243
4.75,-1.072,8.274,2.0,2017-05-19 10:31:58,49.647278151539766
4.597,-0.919,8.274,2.0,2017-05-19 10:31:59,48.37788476140471
4.75,-0.919,8.274,2.0,2017-05-19 10:32:00,49.90003470962875
4.597,-0.919,8.274,2.0,2017-05-19 10:32:01,58.1810353098551
4.75,-0.919,8.274,2.0,2017-05-19 10:32:03,55.48543551498139
4.75,-0.919,8.274,2.0,2017-05-19 10:32:04,48.58665000892309
4.75,-0.919,8.274,2.0,2017-05-19 10:32:05,49.983867656452404
4.597,-0.919,8.274,2.0,2017-05-19 10:32:06,50.793035664088784
4.75,-0.919,8.274,2.0,2017-05-19 10:32:07,54.849507840902334
4.75,-0.919,8.274,2.0,2017-05-19 10:32:08,59.256331369929114
4.597,-0.919,8.274,2.0,2017-05-19 10:32:09,60.7341375295909
4.597,-0.919,8.274,2.0,2017-05-19 10:32:10,63.04240876057008
4.597,-0.919,8.274,2.0,2017-05-19 10:32:11,50.15053157294308
4.597,-0.919,8.274,2.0,2017-05-19 10:32:12,48.028593574982004
4.75,-0.919,8.274,2.0,2017-05-19 10:32:14,50.41985881448903
4.597,-0.919,8.274,2.0,2017-05-19 10:32:15,50.00891017641331
4.75,-0.919,8.274,2.0,2017-05-19 10:32:16,49.12761731981838
4.75,-0.919,8.274,2.0,2017-05-19 10:32:17,49.69592847230818
4.597,-0.919,8.274,2.0,2017-05-19 10:32:18,51.01530473978836
4.75,-0.919,8.274,2.0,2017-05-19 10:32:19,52.26861305308242
4.75,-0.919,8.274,2.0,2017-05-19 10:32:20,57.34241641562502
4.597,-0.919,8.274,2.0,2017-05-19 10:32:21,54.419187436504785
4.597,-0.919,8.274,2.0,2017-05-19 10:32:22,50.22683426239765
4.597,-0.919,8.274,2.0,2017-05-19 10:32:23,49.80619090207754
4.597,-0.919,8.274,2.0,2017-05-19 10:32:24,54.120896742565066
4.597,-0.919,8.274,2.0,2017-05-19 10:32:25,52.14462489601387
4.597,-0.919,8.274,2.0,2017-05-19 10:32:26,48.624493217185574
4.75,-0.919,8.274,2.0,2017-05-19 10:32:27,50.36602349897371
4.597,-0.919,8.274,2.0,2017-05-19 10:32:28,51.52018537339036
4.597,-0.919,8.274,2.0,2017-05-19 10:32:29,50.584818261943305
4.597,-0.919,8.274,2.0,2017-05-19 10:32:30,53.940046189134215
4.597,-0.919,8.274,2.0,2017-05-19 10:32:31,53.95458763897026
4.597,-0.919,8.274,2.0,2017-05-19 10:32:33,50.42080028866116
4.75,-0.919,8.274,2.0,2017-05-19 10:32:34,48.025459601925206
4.597,-0.919,8.274,2.0,2017-05-19 10:32:35,56.34931983211825
4.597,-0.919,8.274,2.0,2017-05-19 10:32:36,53.00925657453908
4.75,-0.919,8.274,2.0,2017-05-19 10:32:37,56.35174088529836
4.597,-0.919,8.274,2.0,2017-05-19 10:32:38,51.88588443211293
4.75,-0.919,8.274,2.0,2017-05-19 10:32:39,50.620141397357926
4.75,-0.919,8.274,2.0,2017-05-19 10:32:40,50.47589446517072
4.597,-0.919,8.274,2.0,2017-05-19 10:32:41,49.450945406221706
4.75,-0.919,8.274,2.0,2017-05-19 10:32:42,48.88323983054341
4.597,-0.919,8.274,2.0,2017-05-19 10:32:43,48.38177441115474
4.597,-0.919,8.274,2.0,2017-05-19 10:32:44,49.20169095750715
4.597,-0.919,8.274,3.0,2017-05-19 10:32:45,49.571598188921655
4.597,-0.919,8.274,4.0,2017-05-19 10:32:46,47.60441850941882
4.597,-0.919,8.274,2.0,2017-05-19 10:32:48,48.53904190490983
4.75,-0.919,8.274,2.0,2017-05-19 10:32:49,52.38347674597495
4.597,-0.919,8.274,2.0,2017-05-19 10:32:50,51.206219127490364
4.597,-0.919,8.274,2.0,2017-05-19 10:32:51,50.45667086827106
4.75,-0.919,8.274,2.0,2017-05-19 10:32:52,48.417843267351785
4.597,-0.919,8.274,2.0,2017-05-19 10:32:53,51.630163964220834
4.75,-0.919,8.274,2.0,2017-05-19 10:32:54,51.45270699244747
4.75,-0.919,8.274,2.0,2017-05-19 10:32:55,50.07121321616555
4.597,-0.919,8.274,2.0,2017-05-19 10:32:56,51.409250008153855
4.597,-0.919,8.274,2.0,2017-05-19 10:32:57,50.10227718426282
4.75,-0.919,8.274,2.0,2017-05-19 10:32:58,48.58118660445563
4.75,-0.919,8.274,2.0,2017-05-19 10:32:59,49.63264795447189
4.597,-0.919,8.274,2.0,2017-05-19 10:33:00,51.42504282406299
4.75,-0.919,8.274,2.0,2017-05-19 10:33:01,51.107124379596726
4.75,-0.919,8.274,2.0,2017-05-19 10:33:02,50.40592637103578
4.75,-0.919,8.274,2.0,2017-05-19 10:33:03,50.72208031317519
4.597,-0.919,8.274,2.0,2017-05-19 10:33:05,50.30552882520725
4.75,-0.919,8.274,2.0,2017-05-19 10:33:06,47.99272082357324
4.597,-0.919,8.274,2.0,2017-05-19 10:33:07,49.83658404223681
4.75,-0.919,8.274,2.0,2017-05-19 10:33:08,50.44362753243803
4.597,-0.919,8.274,2.0,2017-05-19 10:33:09,50.14873679423782
4.75,-0.919,8.274,2.0,2017-05-19 10:33:10,50.99712756740935
4.597,-0.919,8.274,2.0,2017-05-19 10:33:11,51.91748712592993
4.597,-0.919,8.274,2.0,2017-05-19 10:33:12,52.82890844296588
4.75,-0.919,8.274,2.0,2017-05-19 10:33:13,49.76438293574282
4.597,-0.919,8.274,2.0,2017-05-19 10:33:15,50.130803799797256
4.597,-0.919,8.274,2.0,2017-05-19 10:33:16,51.13463661875781
4.597,-0.919,8.274,2.0,2017-05-19 10:33:17,49.32353330829361
4.597,-0.919,8.274,2.0,2017-05-19 10:33:18,50.75589134265894
4.597,-0.919,8.274,2.0,2017-05-19 10:33:19,51.0297866520152
4.75,-0.919,8.274,2.0,2017-05-19 10:33:20,51.96795204209637
4.75,-0.919,8.274,2.0,2017-05-19 10:33:21,47.832668722484215
4.75,-0.919,8.274,2.0,2017-05-19 10:33:22,48.78082234139784
4.597,-0.919,8.274,2.0,2017-05-19 10:33:23,51.46932121889094
4.75,-0.919,8.274,2.0,2017-05-19 10:33:24,49.24730456151189
4.75,-0.919,8.274,2.0,2017-05-19 10:33:25,49.36761842118762
4.75,-0.919,8.274,2.0,2017-05-19 10:33:26,50.592067036537784
4.75,-0.919,8.274,2.0,2017-05-19 10:33:27,50.79062454785898
4.597,-0.919,8.274,2.0,2017-05-19 10:33:28,50.72539908831139
4.597,-0.919,8.274,2.0,2017-05-19 10:33:30,50.796729757092635
4.597,-0.919,8.274,2.0,2017-05-19 10:33:31,51.781670044576
4.75,-0.919,8.274,2.0,2017-05-19 10:33:32,51.89470714560612
4.75,-0.919,8.274,2.0,2017-05-19 10:33:33,52.022183231502616
4.597,-0.919,8.274,2.0,2017-05-19 10:33:34,51.10750058239785
4.597,-0.919,8.274,2.0,2017-05-19 10:33:35,52.34005061056752
4.597,-0.919,8.274,2.0,2017-05-19 10:33:36,51.46247750675559
4.75,-0.919,8.274,2.0,2017-05-19 10:33:38,51.42201034761497
4.597,-0.919,8.274,2.0,2017-05-19 10:33:39,50.53389484372674
4.75,-0.919,8.274,2.0,2017-05-19 10:33:40,51.33316385221064
4.75,-0.919,8.274,2.0,2017-05-19 10:33:41,51.64477074870399
4.597,-0.919,8.274,2.0,2017-05-19 10:33:42,51.145547549673644
4.75,-0.919,8.274,2.0,2017-05-19 10:33:43,50.84123204794266
4.75,-0.919,8.274,2.0,2017-05-19 10:33:44,50.7949663965248
4.597,-0.919,8.274,2.0,2017-05-19 10:33:45,49.057434786332536
4.597,-0.919,8.274,2.0,2017-05-19 10:33:47,50.71341206431572
4.75,-0.919,8.274,2.0,2017-05-19 10:33:48,50.071361676479825
4.75,-0.919,8.274,0.0,2017-05-19 10:33:49,49.817075852284496
4.597,-0.919,8.274,2.0,2017-05-19 10:33:50,50.08130176963092
4.75,-0.919,8.274,2.0,2017-05-19 10:33:51,51.318187457368325
4.597,-0.919,8.274,2.0,2017-05-19 10:33:52,52.51726256519444
4.75,-0.919,8.274,2.0,2017-05-19 10:33:53,51.790625484371695
4.75,-0.919,8.274,2.0,2017-05-19 10:33:55,48.0953820979275
4.75,-0.919,8.274,2.0,2017-05-19 10:33:56,51.15659304663833
4.75,-0.919,8.274,2.0,2017-05-19 10:33:57,49.374309366547664
4.597,-0.919,8.274,2.0,2017-05-19 10:33:58,50.775810933580665
4.597,-0.919,8.274,2.0,2017-05-19 10:34:00,50.17482956219456
4.75,-0.919,8.274,2.0,2017-05-19 10:34:01,49.63608555365007
4.75,-0.919,8.274,2.0,2017-05-19 10:34:02,47.38678189035893
4.597,-0.919,8.274,2.0,2017-05-19 10:34:03,52.18766613953193
4.597,-0.919,8.274,2.0,2017-05-19 10:34:04,51.41920882124296
4.75,-0.919,8.274,2.0,2017-05-19 10:34:05,50.55360195569853
4.597,-0.919,8.274,2.0,2017-05-19 10:34:06,51.10257286808973
4.597,-0.919,8.274,2.0,2017-05-19 10:34:08,49.327593899514646
4.75,-0.919,8.274,2.0,2017-05-19 10:34:09,51.07687611073405
4.597,-0.919,8.274,2.0,2017-05-19 10:34:10,51.64746925608615
4.597,-0.919,8.274,2.0,2017-05-19 10:34:11,50.564871301769756
4.597,-0.919,8.274,2.0,2017-05-19 10:34:12,51.961126499658945
4.597,-0.919,8.274,2.0,2017-05-19 10:34:13,49.81386390298436
4.597,-0.919,8.274,2.0,2017-05-19 10:34:14,52.67902107804902
4.597,-0.919,8.274,2.0,2017-05-19 10:34:15,49.91060330810953
4.597,-0.919,8.274,2.0,2017-05-19 10:34:16,50.54878782341195
4.75,-0.919,8.274,2.0,2017-05-19 10:34:17,49.32232800120529
4.75,-0.919,8.274,2.0,2017-05-19 10:34:18,49.14908238367889
4.597,-0.919,8.274,2.0,2017-05-19 10:34:19,51.7759653591004
4.597,-0.919,8.274,2.0,2017-05-19 10:34:20,50.48768202918109
4.597,-0.919,8.274,2.0,2017-05-19 10:34:22,51.04021550919284
4.597,-0.919,8.274,2.0,2017-05-19 10:34:23,50.307816812589785
4.75,-0.919,8.274,2.0,2017-05-19 10:34:24,49.729330848763446
4.75,-0.919,8.274,2.0,2017-05-19 10:34:25,50.18089784843424
4.75,-0.919,8.274,2.0,2017-05-19 10:34:26,49.668747926172124
4.597,-0.919,8.274,2.0,2017-05-19 10:34:27,49.83402571237795
4.597,-0.919,8.274,2.0,2017-05-19 10:34:28,49.77058726047722
4.597,-0.919,8.274,2.0,2017-05-19 10:34:29,50.85412070907077
4.597,-0.919,8.274,2.0,2017-05-19 10:34:30,50.49960015061248
4.597,-0.919,8.274,2.0,2017-05-19 10:34:32,51.22252720041516
4.597,-0.919,8.274,2.0,2017-05-19 10:34:33,51.88805310781086
4.75,-0.919,8.274,2.0,2017-05-19 10:34:34,51.12567950043882
4.75,-0.919,8.274,2.0,2017-05-19 10:34:35,50.56059786457372
4.75,-0.919,8.274,0.0,2017-05-19 10:34:36,51.98143842160856
4.597,-0.919,8.274,2.0,2017-05-19 10:34:37,49.82112217090847
4.75,-0.919,8.274,2.0,2017-05-19 10:34:38,50.827949713486625
4.75,-0.919,8.274,2.0,2017-05-19 10:34:39,49.798624872524265
4.75,-0.919,8.274,2.0,2017-05-19 10:34:40,50.97286893044632
4.75,-0.919,8.274,2.0,2017-05-19 10:34:41,51.267555613834865
4.597,-0.919,8.274,2.0,2017-05-19 10:34:42,50.168349513903024
4.75,-0.919,8.274,2.0,2017-05-19 10:34:43,51.98153181489246
4.597,-0.919,8.274,2.0,2017-05-19 10:34:44,49.64006719140421
4.75,-0.919,8.274,2.0,2017-05-19 10:34:45,50.201504816032966
4.597,-0.919,8.274,2.0,2017-05-19 10:34:46,50.26737813272541
4.75,-0.919,8.274,0.0,2017-05-19 10:34:47,49.20395637368307
4.597,-0.919,8.274,2.0,2017-05-19 10:34:49,51.93308134243957
4.75,-0.919,8.274,2.0,2017-05-19 10:34:50,49.93457269571554
4.597,-0.919,8.274,2.0,2017-05-19 10:34:51,50.52035750779073
4.597,-0.919,8.274,2.0,2017-05-19 10:34:52,48.32847115547321
4.597,-0.919,8.274,2.0,2017-05-19 10:34:53,51.125007612820966
4.597,-0.919,8.274,2.0,2017-05-19 10:34:54,49.3563054299332
4.597,-0.919,8.274,2.0,2017-05-19 10:34:55,50.62482035645473
4.597,-0.919,8.274,2.0,2017-05-19 10:34:56,50.528033432344735
4.597,-0.919,8.274,2.0,2017-05-19 10:34:57,49.4718111673557
4.75,-0.919,8.274,2.0,2017-05-19 10:34:58,48.745203386074024
4.597,-0.919,8.274,2.0,2017-05-19 10:34:59,48.39407708441268
4.75,-0.919,8.274,2.0,2017-05-19 10:35:00,49.998979423778096
4.75,-0.919,8.274,0.0,2017-05-19 10:35:02,50.94148683764412
4.75,-0.919,8.274,2.0,2017-05-19 10:35:03,50.840212149425305
4.597,-0.919,8.274,2.0,2017-05-19 10:35:04,50.87992459721338
4.597,-0.919,8.274,2.0,2017-05-19 10:35:05,50.54390764040275
4.597,-0.919,8.274,2.0,2017-05-19 10:35:06,51.603650662182304
4.597,-0.919,8.274,2.0,2017-05-19 10:35:07,51.53144657766177
4.597,-0.919,8.274,2.0,2017-05-19 10:35:08,49.84693489196015
4.597,-0.919,8.274,2.0,2017-05-19 10:35:10,49.990017406033466
4.597,-0.919,8.274,0.0,2017-05-19 10:35:11,52.591442347207476
4.75,-0.919,8.274,0.0,2017-05-19 10:35:12,50.635665724243886
4.75,-0.919,8.274,2.0,2017-05-19 10:35:13,49.87809540038541
4.597,-0.919,8.274,2.0,2017-05-19 10:35:15,51.26681519653677
4.597,-0.919,8.274,2.0,2017-05-19 10:35:16,51.35495624722359
4.597,-0.919,8.274,2.0,2017-05-19 10:35:17,50.35807192661878
4.75,-0.919,8.274,2.0,2017-05-19 10:35:18,50.4203924072823
4.597,-0.919,8.274,2.0,2017-05-19 10:35:19,49.03552332282385
4.597,-0.919,8.274,2.0,2017-05-19 10:35:20,50.405701772017785
4.75,-0.919,8.274,2.0,2017-05-19 10:35:21,49.63923390444583
4.75,-0.919,8.274,2.0,2017-05-19 10:35:22,47.83406901420029
4.597,-0.919,8.274,2.0,2017-05-19 10:35:24,49.468072256609005
4.75,-0.919,8.274,2.0,2017-05-19 10:35:25,50.558680819967364
4.597,-0.919,8.274,2.0,2017-05-19 10:35:26,48.5831664840486
4.597,-0.919,8.274,2.0,2017-05-19 10:35:27,49.13696110180255
4.75,-0.919,8.274,2.0,2017-05-19 10:35:28,50.007110769207756
4.597,-0.919,8.274,2.0,2017-05-19 10:35:29,49.70655863991567
4.597,-0.919,8.274,0.0,2017-05-19 10:35:30,48.27645668130724
4.597,-0.919,8.274,2.0,2017-05-19 10:35:31,50.298673965860914
4.597,-0.919,8.274,0.0,2017-05-19 10:35:32,49.81982229283055
4.597,-0.919,8.274,2.0,2017-05-19 10:35:33,49.84768625700097
4.597,-0.919,8.274,2.0,2017-05-19 10:35:34,50.35939247377983
4.75,-0.919,8.274,2.0,2017-05-19 10:35:36,49.56001454428451
4.75,-0.919,8.274,2.0,2017-05-19 10:35:37,50.24668949625324
4.75,-0.919,8.274,2.0,2017-05-19 10:35:38,50.3089101743475
4.75,-0.919,8.274,2.0,2017-05-19 10:35:39,49.589124121679916
4.597,-0.919,8.274,2.0,2017-05-19 10:35:41,49.38290790904341
4.597,-0.919,8.274,0.0,2017-05-19 10:35:42,50.72673619807429
4.75,-0.919,8.274,0.0,2017-05-19 10:35:43,51.731623396573525
4.597,-0.919,8.274,2.0,2017-05-19 10:35:44,49.63733271575521
4.597,-0.919,8.274,2.0,2017-05-19 10:35:45,50.65813743109068
4.75,-0.919,8.274,2.0,2017-05-19 10:35:46,51.87641985574209
4.597,-0.919,8.274,2.0,2017-05-19 10:35:47,48.88466792399854
4.75,-0.919,8.274,0.0,2017-05-19 10:35:48,51.08816249520135
4.75,-0.919,8.274,2.0,2017-05-19 10:35:49,52.04163104599906
4.75,-0.919,8.274,2.0,2017-05-19 10:35:50,48.87241947405002
4.597,-0.919,8.274,2.0,2017-05-19 10:35:51,49.894472173429456
4.75,-0.919,8.274,2.0,2017-05-19 10:35:52,51.275371355415054
4.597,-0.919,8.274,2.0,2017-05-19 10:35:54,51.17709647551944
4.597,-0.919,8.274,2.0,2017-05-19 10:35:55,51.091883776950226
4.75,-0.919,8.274,2.0,2017-05-19 10:35:56,50.559053843794345
4.597,-0.919,8.274,0.0,2017-05-19 10:35:58,51.90164348728807
4.597,-0.919,8.274,2.0,2017-05-19 10:35:59,51.746432442975944
4.597,-0.919,8.274,0.0,2017-05-19 10:36:00,52.892055639120414
4.597,-0.919,8.274,2.0,2017-05-19 10:36:01,51.16430227612455
4.597,-0.919,8.274,2.0,2017-05-19 10:36:02,49.82731451529333
4.597,-0.919,8.274,2.0,2017-05-19 10:36:03,49.01509420873329
4.75,-0.919,8.274,0.0,2017-05-19 10:36:04,50.44017805982345
4.597,-0.919,8.274,2.0,2017-05-19 10:36:06,50.98598747622734
4.75,-0.919,8.274,2.0,2017-05-19 10:36:07,51.91274293112549
4.75,-0.919,8.274,2.0,2017-05-19 10:36:08,51.57761849537869
4.75,-0.919,8.274,0.0,2017-05-19 10:36:09,51.58743557760766
4.75,-0.919,8.274,2.0,2017-05-19 10:36:10,50.65360073016841
4.597,-0.919,8.274,2.0,2017-05-19 10:36:11,51.439932909018665
4.75,-0.919,8.274,2.0,2017-05-19 10:36:13,49.798805978265634
4.75,-0.919,8.274,0.0,2017-05-19 10:36:14,50.20398991695529
4.597,-0.919,8.274,2.0,2017-05-19 10:36:15,51.42533763707445
4.597,-0.919,8.274,2.0,2017-05-19 10:36:16,48.41419170109205
4.597,-0.919,8.274,2.0,2017-05-19 10:36:17,51.140464015014196
4.75,-0.919,8.274,2.0,2017-05-19 10:36:18,51.474848002654724
4.597,-0.919,8.274,2.0,2017-05-19 10:36:19,51.542753912931346
4.75,-0.919,8.274,2.0,2017-05-19 10:36:20,50.67449105700126
4.597,-0.919,8.274,2.0,2017-05-19 10:36:21,50.67706086543373
4.597,-0.919,8.274,2.0,2017-05-19 10:36:22,51.87892347125563
4.597,-0.919,8.274,2.0,2017-05-19 10:36:23,50.836831240303994
4.597,-0.919,8.274,2.0,2017-05-19 10:36:24,51.637400610012364
4.597,-0.919,8.274,2.0,2017-05-19 10:36:25,54.88016817856672
4.597,-0.919,8.274,2.0,2017-05-19 10:36:26,52.68635355333919
4.597,-0.919,8.274,2.0,2017-05-19 10:36:27,49.68237085224228
4.75,-0.919,8.274,2.0,2017-05-19 10:36:28,52.902286990122285
4.597,-0.919,8.274,2.0,2017-05-19 10:36:30,53.75924352369138
4.75,-0.919,8.274,2.0,2017-05-19 10:36:31,51.58117340587715
4.75,-0.919,8.274,2.0,2017-05-19 10:36:32,52.00902747712033
4.597,-0.919,8.274,2.0,2017-05-19 10:36:33,54.05947293932993
4.597,-0.919,8.274,2.0,2017-05-19 10:36:34,52.18018964726245
4.75,-0.919,8.274,2.0,2017-05-19 10:36:35,50.26704734601272
4.597,-0.919,8.274,2.0,2017-05-19 10:36:36,52.71849118082314
4.597,-0.919,8.274,2.0,2017-05-19 10:36:37,55.646381285740375
4.75,-0.919,8.274,0.0,2017-05-19 10:36:38,50.6239994426233
4.597,-0.919,8.274,2.0,2017-05-19 10:36:39,50.71531428381806
4.597,-0.919,8.274,2.0,2017-05-19 10:36:40,50.66951555210879
4.75,-0.919,8.274,2.0,2017-05-19 10:36:41,50.802040370008086
4.597,-0.919,8.274,2.0,2017-05-19 10:36:42,51.412114928178774
4.597,-0.919,8.274,2.0,2017-05-19 10:36:43,50.389118990049404
4.597,-0.919,8.274,2.0,2017-05-19 10:36:45,50.917774842233
4.597,-0.919,8.274,2.0,2017-05-19 10:36:46,49.84056337971165
4.75,-0.919,8.274,2.0,2017-05-19 10:36:47,51.29905083260914
4.597,-0.919,8.274,2.0,2017-05-19 10:36:48,50.756628984371154
4.597,-0.919,8.274,2.0,2017-05-19 10:36:49,49.95293889851558
4.597,-0.919,8.274,2.0,2017-05-19 10:36:50,54.62528037457922
4.597,-0.919,8.274,2.0,2017-05-19 10:36:51,57.57535149676503
4.597,-0.919,8.274,2.0,2017-05-19 10:36:52,56.80360086284359
4.597,-0.919,8.274,2.0,2017-05-19 10:36:54,49.488518527081936
4.597,-0.919,8.274,2.0,2017-05-19 10:36:55,49.475638743107666
4.597,-0.919,8.274,2.0,2017-05-19 10:36:56,52.96289111877806
4.75,-0.919,8.274,2.0,2017-05-19 10:36:57,48.9157721275311
4.75,-0.919,8.274,2.0,2017-05-19 10:36:58,53.24897512354881
4.597,-0.919,8.274,2.0,2017-05-19 10:36:59,52.050016210543674
4.597,-0.919,8.274,2.0,2017-05-19 10:37:00,52.45240392734121
4.597,-0.919,8.274,2.0,2017-05-19 10:37:01,50.740851124285385
4.597,-0.919,8.274,2.0,2017-05-19 10:37:03,51.33088034007453
4.597,-0.919,8.274,2.0,2017-05-19 10:37:04,51.975114655650174
4.597,-0.919,8.274,2.0,2017-05-19 10:37:05,52.761695336623674
4.75,-0.919,8.274,2.0,2017-05-19 10:37:06,51.10621881407211
4.597,-0.919,8.274,2.0,2017-05-19 10:37:07,53.06336497516904
4.75,-0.919,8.274,2.0,2017-05-19 10:37:08,57.17779471142137
4.75,-0.919,8.274,2.0,2017-05-19 10:37:09,55.30925969362825
4.597,-0.919,8.274,2.0,2017-05-19 10:37:10,51.437921435013365
4.597,-0.919,8.274,2.0,2017-05-19 10:37:11,52.38795351854933
4.75,-0.919,8.274,2.0,2017-05-19 10:37:12,50.99592297386344
4.597,-0.919,8.274,2.0,2017-05-19 10:37:13,54.720352574092736
4.597,-0.919,8.274,2.0,2017-05-19 10:37:15,50.14134164059455
4.597,-0.919,8.274,2.0,2017-05-19 10:37:16,52.267247469257676
4.597,-0.919,8.274,2.0,2017-05-19 10:37:17,51.59144751876564
4.597,-0.919,8.274,2.0,2017-05-19 10:37:18,52.131534343585216
4.597,-0.919,8.274,2.0,2017-05-19 10:37:19,50.73383154585656
4.597,-0.919,8.274,2.0,2017-05-19 10:37:20,50.41276261360197
4.75,-0.919,8.274,2.0,2017-05-19 10:37:21,50.610333802091326
4.75,-0.919,8.274,2.0,2017-05-19 10:37:22,49.848727129107395
4.597,-0.919,8.274,2.0,2017-05-19 10:37:23,50.52837593088489
4.597,-0.919,8.274,2.0,2017-05-19 10:37:24,53.981839919093716
4.75,-0.919,8.274,2.0,2017-05-19 10:37:25,52.82150840608264
4.597,-0.919,8.274,2.0,2017-05-19 10:37:26,52.849902747064874
4.75,-0.919,8.274,2.0,2017-05-19 10:37:27,50.92827418273779
4.597,-0.919,8.274,2.0,2017-05-19 10:37:28,51.52076325582718
4.597,-0.919,8.274,2.0,2017-05-19 10:37:30,51.342727865076625
4.597,-0.919,8.274,2.0,2017-05-19 10:37:31,52.49361271367917
4.597,-0.919,8.274,2.0,2017-05-19 10:37:32,55.51320685382629
4.75,-0.919,8.274,2.0,2017-05-19 10:37:33,57.40057238536566
4.75,-0.919,8.274,2.0,2017-05-19 10:37:34,51.22010256720305
4.597,-0.919,8.274,2.0,2017-05-19 10:37:35,51.36564979840803
4.75,-0.919,8.274,2.0,2017-05-19 10:37:36,51.55545513146127
4.597,-0.919,8.274,2.0,2017-05-19 10:37:38,47.4952701460404
4.597,-0.919,8.274,2.0,2017-05-19 10:37:39,50.2663555732267
4.597,-0.919,8.274,2.0,2017-05-19 10:37:40,49.95080978569866
4.597,-0.919,8.274,2.0,2017-05-19 10:37:41,50.10625714341121
4.597,-0.919,8.274,2.0,2017-05-19 10:37:43,49.928754744329765
4.75,-0.919,8.274,2.0,2017-05-19 10:37:44,48.600590138095725
4.75,-0.919,8.274,2.0,2017-05-19 10:37:45,52.588875165078036
4.597,-0.919,8.274,2.0,2017-05-19 10:37:46,52.282799452884475
4.597,-0.919,8.274,2.0,2017-05-19 10:37:47,51.166081797766445
4.597,-0.919,8.274,2.0,2017-05-19 10:37:48,49.60297685256252
4.597,-0.919,8.274,2.0,2017-05-19 10:37:50,51.6648061392294
4.597,-0.919,8.274,2.0,2017-05-19 10:37:51,50.357146379613994
4.597,-0.919,8.274,2.0,2017-05-19 10:37:52,50.94360149689937
4.597,-0.919,8.274,4.0,2017-05-19 10:37:54,49.456153562946014
4.75,-0.919,8.274,4.0,2017-05-19 10:37:55,50.144467412776336
4.597,-0.919,8.274,4.0,2017-05-19 10:37:56,51.979825135565264
4.597,-0.919,8.274,4.0,2017-05-19 10:37:57,50.32682988778748
4.75,-0.919,8.274,3.0,2017-05-19 10:37:58,52.22929518993065
4.75,-0.919,8.274,4.0,2017-05-19 10:38:00,52.1515644740628
4.75,-0.919,8.274,3.0,2017-05-19 10:38:01,53.0832496540546
4.597,-0.919,8.274,4.0,2017-05-19 10:38:02,50.183743954088634
4.597,-0.919,8.274,4.0,2017-05-19 10:38:04,56.478598605157835
4.597,-0.919,8.274,4.0,2017-05-19 10:38:05,61.71527953448337
4.75,-0.919,8.274,5.0,2017-05-19 10:38:06,58.48210490453184
4.597,-0.919,8.274,5.0,2017-05-19 10:38:08,57.197281607702564
4.75,-0.919,8.274,5.0,2017-05-19 10:38:09,53.127303355179045
4.75,-0.919,8.274,5.0,2017-05-19 10:38:10,53.790545812718804
4.597,-0.919,8.274,5.0,2017-05-19 10:38:11,52.754419400449706
4.75,-0.919,8.274,5.0,2017-05-19 10:38:12,50.93113881535156
4.597,-0.919,8.274,5.0,2017-05-19 10:38:13,53.45971919330065
4.597,-0.919,8.274,5.0,2017-05-19 10:38:14,52.92085623029257
4.597,-0.919,8.274,5.0,2017-05-19 10:38:15,50.65806243557209
4.597,-0.919,8.274,5.0,2017-05-19 10:38:17,51.75790759053197
4.597,-0.919,8.274,5.0,2017-05-19 10:38:18,52.12176572051629
4.75,-0.919,8.274,5.0,2017-05-19 10:38:19,50.34284140290651
4.597,-0.919,8.274,5.0,2017-05-19 10:38:20,51.722229306341134
4.597,-0.919,8.274,5.0,2017-05-19 10:38:21,51.510338565878506
4.597,-0.919,8.274,5.0,2017-05-19 10:38:22,52.52331868301738
4.597,-0.919,8.274,5.0,2017-05-19 10:38:23,52.63587274282111
4.597,-0.919,8.274,5.0,2017-05-19 10:38:24,51.11331637704605
4.75,-0.919,8.274,6.0,2017-05-19 10:38:25,50.4768423550637
4.597,-0.919,8.274,4.0,2017-05-19 10:38:26,51.94485402406186
4.597,-0.919,8.274,3.0,2017-05-19 10:38:27,53.244438385203345
4.75,-0.919,8.274,4.0,2017-05-19 10:38:28,52.43193188187558
4.75,-0.919,8.274,3.0,2017-05-19 10:38:29,52.266587468346046
4.597,-0.919,8.274,4.0,2017-05-19 10:38:31,49.69717588629307
4.75,-0.919,8.274,2.0,2017-05-19 10:38:32,51.18309914510431
4.75,-0.919,8.274,4.0,2017-05-19 10:38:33,52.2005232601974
4.75,-0.919,8.274,3.0,2017-05-19 10:38:34,53.559355451623574
4.597,-0.919,8.274,3.0,2017-05-19 10:38:35,51.48411124337577
4.597,-0.919,8.274,2.0,2017-05-19 10:38:36,51.226668186866455
4.597,-0.919,8.274,2.0,2017-05-19 10:38:37,49.57975975577732
4.597,-0.919,8.274,2.0,2017-05-19 10:38:38,51.56608374430694
4.597,-0.919,8.274,2.0,2017-05-19 10:38:40,56.30113355351645
4.597,-0.919,8.274,2.0,2017-05-19 10:38:41,54.406382323238034
4.75,-0.919,8.274,2.0,2017-05-19 10:38:42,52.52035609634188
4.597,-0.919,8.274,2.0,2017-05-19 10:38:43,52.534220932705445
4.597,-0.919,8.274,2.0,2017-05-19 10:38:44,54.68194954398487
4.597,-0.919,8.274,2.0,2017-05-19 10:38:46,61.478712676924985
4.75,-0.919,8.274,3.0,2017-05-19 10:38:47,54.04616926705323
4.597,-0.919,8.274,2.0,2017-05-19 10:38:48,51.82751816673843
4.597,-0.919,8.274,2.0,2017-05-19 10:38:49,50.55400408724341
4.75,-0.919,8.274,3.0,2017-05-19 10:38:51,67.52156036234267
4.597,-0.919,8.274,2.0,2017-05-19 10:38:52,63.442082761192815
4.75,-0.919,8.274,2.0,2017-05-19 10:38:53,55.82283403225687
4.597,-0.919,8.274,2.0,2017-05-19 10:38:54,50.412659933443116
4.597,-0.919,8.274,2.0,2017-05-19 10:38:55,50.88787451636805
4.75,-0.919,8.274,2.0,2017-05-19 10:38:56,55.11792128676212
4.75,-0.919,8.274,2.0,2017-05-19 10:38:57,53.945625277880765
4.597,-0.919,8.274,2.0,2017-05-19 10:38:59,52.25908624133845
4.597,-0.919,8.274,2.0,2017-05-19 10:39:00,53.3306909861276
4.597,-0.919,8.274,3.0,2017-05-19 10:39:01,56.37747921622776
4.75,-0.919,8.274,3.0,2017-05-19 10:39:02,55.00921168527687
4.597,-0.919,8.274,2.0,2017-05-19 10:39:03,53.186685372601055
4.75,-0.919,8.274,3.0,2017-05-19 10:39:04,55.4900836096885
4.597,-0.919,8.274,2.0,2017-05-19 10:39:05,49.8957850728562
4.597,-0.919,8.274,3.0,2017-05-19 10:39:06,50.98461826915019
4.75,-1.072,8.274,4.0,2017-05-19 10:39:07,68.70823926462694
4.597,-0.919,8.274,4.0,2017-05-19 10:39:08,58.14212990674845
4.597,-0.919,8.274,4.0,2017-05-19 10:39:09,61.42707220045898
4.597,-0.919,8.274,4.0,2017-05-19 10:39:10,56.39947100718579
4.75,-1.072,8.274,4.0,2017-05-19 10:39:12,77.96623570659064
4.597,-0.919,8.274,4.0,2017-05-19 10:39:13,63.3814720891123
4.597,-0.919,8.274,4.0,2017-05-19 10:39:14,55.6829199585071
4.597,-0.919,8.274,4.0,2017-05-19 10:39:15,54.09046827054552
4.75,-0.919,8.274,3.0,2017-05-19 10:39:16,48.69111850384256
4.597,-0.919,8.274,3.0,2017-05-19 10:39:17,48.9990363396797
4.597,-0.919,8.274,2.0,2017-05-19 10:39:19,52.50361708696772
4.597,-0.919,8.274,2.0,2017-05-19 10:39:20,55.003973837867576
4.597,-0.919,8.274,2.0,2017-05-19 10:39:21,51.99542527564532
4.597,-0.919,8.274,4.0,2017-05-19 10:39:22,54.856182870367284
4.75,-0.919,8.274,4.0,2017-05-19 10:39:23,58.01545291465626
4.597,-0.919,8.274,3.0,2017-05-19 10:39:25,51.37853632600045
4.75,-0.919,8.274,4.0,2017-05-19 10:39:26,54.52996657608338
4.597,-0.919,8.274,4.0,2017-05-19 10:39:27,55.566985836510895
4.75,-0.919,8.274,4.0,2017-05-19 10:39:28,53.6264875517613
4.597,-0.919,8.274,4.0,2017-05-19 10:39:29,50.79544996257346
4.597,-0.919,8.274,4.0,2017-05-19 10:39:30,49.93867761515945
4.75,-0.919,8.274,4.0,2017-05-19 10:39:31,55.35515757041723
4.597,-0.919,8.274,4.0,2017-05-19 10:39:32,51.840436842360056
4.75,-0.919,8.274,4.0,2017-05-19 10:39:33,53.710407931005406
4.597,-0.919,8.274,4.0,2017-05-19 10:39:35,53.26547124785348
4.597,-0.919,8.274,4.0,2017-05-19 10:39:36,48.51234033664256
4.597,-0.919,8.274,4.0,2017-05-19 10:39:37,47.92138328237457
4.597,-0.919,8.274,4.0,2017-05-19 10:39:38,48.191729612161886
4.597,-0.919,8.274,4.0,2017-05-19 10:39:39,48.9388108304949
4.597,-0.919,8.274,4.0,2017-05-19 10:39:40,48.65915333619299
4.75,-0.919,8.274,4.0,2017-05-19 10:39:41,41.11885923139633
4.597,-0.919,8.274,4.0,2017-05-19 10:39:42,48.98827899689779
4.597,-0.919,8.274,4.0,2017-05-19 10:39:43,80.25090050119135
4.597,-0.919,8.274,4.0,2017-05-19 10:39:46,59.62218081791306
4.75,-0.919,8.274,4.0,2017-05-19 10:39:47,49.58130118712865
4.75,-0.919,8.274,5.0,2017-05-19 10:39:48,51.48123081536567
4.597,-0.919,8.274,6.0,2017-05-19 10:39:50,51.18724143032442
4.75,-0.919,8.274,5.0,2017-05-19 10:39:51,50.393229251129966
4.597,-0.919,8.274,6.0,2017-05-19 10:39:52,50.6326619905117
4.597,-0.919,8.274,6.0,2017-05-19 10:39:53,55.040069850960464
4.597,-0.919,8.274,6.0,2017-05-19 10:39:54,53.34910148779613
4.597,-0.919,8.274,6.0,2017-05-19 10:39:55,50.483065146077244
4.597,-0.919,8.274,6.0,2017-05-19 10:39:56,50.702570029716526
4.75,-0.919,8.274,6.0,2017-05-19 10:39:57,50.19310289989191
4.75,-0.919,8.274,6.0,2017-05-19 10:39:58,48.801931725335315
4.597,-0.919,8.274,6.0,2017-05-19 10:39:59,51.62789009582089
4.75,-0.919,8.274,6.0,2017-05-19 10:40:00,50.473995995866865
4.75,-0.919,8.274,5.0,2017-05-19 10:40:02,52.62693399379401
4.75,-0.919,8.274,6.0,2017-05-19 10:40:03,51.505367145308966
4.597,-0.919,8.274,6.0,2017-05-19 10:40:04,49.47927965202915
4.75,-0.919,8.274,6.0,2017-05-19 10:40:05,48.77892229953234
4.597,-0.919,8.274,6.0,2017-05-19 10:40:06,50.112616337620906
4.597,-0.919,8.274,6.0,2017-05-19 10:40:07,51.357566304784044
4.597,-0.919,8.274,6.0,2017-05-19 10:40:08,51.64962698535362
4.597,-0.919,8.274,6.0,2017-05-19 10:40:10,50.914856633542335
4.597,-0.919,8.274,6.0,2017-05-19 10:40:12,50.48213476729223
4.597,-0.919,8.274,6.0,2017-05-19 10:40:13,50.40710455302241
4.597,-0.919,8.274,6.0,2017-05-19 10:40:14,50.85813916388947
4.75,-0.919,8.274,6.0,2017-05-19 10:40:15,52.53015822986334
4.75,-0.919,8.274,6.0,2017-05-19 10:40:16,51.52098910921424
4.597,-0.919,8.274,6.0,2017-05-19 10:40:17,50.41411968885642
4.597,-0.919,8.274,6.0,2017-05-19 10:40:18,49.44973397408742
4.597,-0.919,8.274,6.0,2017-05-19 10:40:19,48.60712199675716
4.75,-0.919,8.274,6.0,2017-05-19 10:40:20,52.45320732329147
4.597,-0.919,8.274,6.0,2017-05-19 10:40:22,50.103698505848854
4.597,-0.919,8.274,6.0,2017-05-19 10:40:23,50.88228355397202
4.75,-0.919,8.274,6.0,2017-05-19 10:40:24,51.86472806125351
4.597,-0.919,8.274,6.0,2017-05-19 10:40:25,50.72448784955762
4.597,-0.919,8.274,6.0,2017-05-19 10:40:26,51.5140332326971
4.597,-0.919,8.274,6.0,2017-05-19 10:40:28,51.20724006246845
4.597,-0.919,8.274,6.0,2017-05-19 10:40:29,49.80341906875141
4.597,-0.919,8.274,6.0,2017-05-19 10:40:30,48.676944829260115
4.597,-0.919,8.274,6.0,2017-05-19 10:40:31,52.179956988051885
4.597,-0.919,8.274,6.0,2017-05-19 10:40:32,50.34498534821948
4.597,-0.919,8.274,6.0,2017-05-19 10:40:33,50.070453879788445
4.597,-0.919,8.274,6.0,2017-05-19 10:40:34,51.2934486479333
4.75,-0.919,8.274,6.0,2017-05-19 10:40:35,51.48798985632322
4.597,-0.919,8.274,6.0,2017-05-19 10:40:36,51.38584759779678
4.75,-0.919,8.274,6.0,2017-05-19 10:40:38,53.45797793871366
4.597,-0.919,8.274,6.0,2017-05-19 10:40:39,52.477985703194825
4.597,-0.919,8.274,6.0,2017-05-19 10:40:40,51.356780900156735
4.597,-0.919,8.274,6.0,2017-05-19 10:40:41,49.56777348821957
4.597,-0.919,8.274,6.0,2017-05-19 10:40:42,52.164605928622436
4.75,-0.919,8.274,6.0,2017-05-19 10:40:43,50.97315595756301
4.597,-0.919,8.274,6.0,2017-05-19 10:40:44,51.76951639344434
4.597,-0.919,8.274,2.0,2017-05-19 10:40:46,50.5604672489296
4.75,-0.919,8.274,2.0,2017-05-19 10:40:47,49.67288383713295
4.75,-0.919,8.274,2.0,2017-05-19 10:40:48,49.84227310282491
4.75,-0.919,8.274,2.0,2017-05-19 10:40:49,67.25374183679622
4.597,-0.919,8.274,2.0,2017-05-19 10:40:50,71.38999265399997
4.597,-0.919,8.274,2.0,2017-05-19 10:40:51,52.24828407682497
4.597,-0.919,8.274,2.0,2017-05-19 10:40:53,52.202115313366335
4.597,-0.919,8.274,2.0,2017-05-19 10:40:54,51.146143927800395
4.75,-0.919,8.274,2.0,2017-05-19 10:40:55,51.53044756898965
4.597,-0.919,8.274,2.0,2017-05-19 10:40:56,49.09496774354706
4.75,-0.919,8.274,2.0,2017-05-19 10:40:57,55.10423999945408
4.75,-0.919,8.274,2.0,2017-05-19 10:40:58,49.86595322274012
4.75,-0.919,8.274,2.0,2017-05-19 10:40:59,50.9613705225004
4.597,-0.919,8.274,2.0,2017-05-19 10:41:01,50.69596787598129
4.597,-0.919,8.274,2.0,2017-05-19 10:41:02,48.34803324656794
4.597,-0.919,8.274,2.0,2017-05-19 10:41:03,59.03305421649526
4.597,-0.919,8.274,2.0,2017-05-19 10:41:04,49.575345144919815
4.597,-0.919,8.274,2.0,2017-05-19 10:41:05,49.83865424293214
4.597,-0.919,8.274,2.0,2017-05-19 10:41:06,51.51622323531987
4.597,-0.919,8.274,2.0,2017-05-19 10:41:07,53.406396272845676
4.597,-0.919,8.274,2.0,2017-05-19 10:41:08,47.793686207659235
4.75,-0.919,8.274,2.0,2017-05-19 10:41:10,56.55486931570651
4.597,-0.919,8.274,2.0,2017-05-19 10:41:11,51.65552302896813
4.597,-0.919,8.274,2.0,2017-05-19 10:41:12,49.009587760540576
4.75,-0.919,8.274,2.0,2017-05-19 10:41:13,49.73590113796679
4.597,-0.919,8.274,2.0,2017-05-19 10:41:14,50.55477515335626
4.597,-0.919,8.274,2.0,2017-05-19 10:41:15,51.892968102321205
4.597,-0.919,8.274,2.0,2017-05-19 10:41:16,50.04970207488917
4.75,-0.919,8.274,2.0,2017-05-19 10:41:17,51.48795526783939
4.597,-0.919,8.274,2.0,2017-05-19 10:41:19,49.576444842019995
4.597,-0.919,8.274,2.0,2017-05-19 10:41:20,50.76086961774503
4.597,-0.919,8.274,2.0,2017-05-19 10:41:21,50.613063112892156
4.597,-0.919,8.274,2.0,2017-05-19 10:41:22,51.104984652072034
4.597,-0.919,8.274,2.0,2017-05-19 10:41:23,52.333903282692845
4.597,-0.919,8.274,2.0,2017-05-19 10:41:24,51.025336809581894
4.597,-0.919,8.274,2.0,2017-05-19 10:41:25,48.30192061621405
4.75,-0.919,8.274,2.0,2017-05-19 10:41:26,50.7206371508764
4.597,-0.919,8.274,2.0,2017-05-19 10:41:27,49.00707653390938
4.597,-0.919,8.274,2.0,2017-05-19 10:41:28,48.16834485748416
4.597,-0.919,8.274,2.0,2017-05-19 10:41:30,49.337157480119764
4.597,-0.919,8.274,2.0,2017-05-19 10:41:31,47.8222842164474
4.597,-0.919,8.274,2.0,2017-05-19 10:41:32,49.16428350742003
4.597,-0.919,8.274,2.0,2017-05-19 10:41:33,48.352657775528144
4.597,-0.919,8.274,2.0,2017-05-19 10:41:35,50.65150085687361
4.597,-0.919,8.274,2.0,2017-05-19 10:41:36,51.51065486544829
4.597,-0.919,8.274,2.0,2017-05-19 10:41:37,49.864852348884064
4.597,-0.919,8.274,2.0,2017-05-19 10:41:38,48.36515521576472
4.597,-0.919,8.274,2.0,2017-05-19 10:41:39,50.851727884282845
4.597,-0.919,8.274,2.0,2017-05-19 10:41:40,51.28220002447176
4.597,-0.919,8.274,2.0,2017-05-19 10:41:42,49.19389149026672
4.597,-0.919,8.274,2.0,2017-05-19 10:41:43,51.95054194659445
4.597,-0.919,8.274,2.0,2017-05-19 10:41:44,51.18330140283547
4.597,-0.919,8.274,2.0,2017-05-19 10:41:45,51.25254899847466
4.597,-0.919,8.274,2.0,2017-05-19 10:41:46,52.03669006899129
4.597,-0.919,8.274,2.0,2017-05-19 10:41:47,50.891095116925335
4.597,-0.919,8.274,2.0,2017-05-19 10:41:48,51.024708922694714
4.75,-0.919,8.274,2.0,2017-05-19 10:41:49,51.70340295779313
4.597,-0.919,8.274,2.0,2017-05-19 10:41:50,52.13238123120399
4.597,-0.919,8.274,2.0,2017-05-19 10:41:51,50.44100344154654
4.597,-0.919,8.274,2.0,2017-05-19 10:41:52,51.64711168201805
4.597,-0.919,8.274,2.0,2017-05-19 10:41:54,49.621331800905864
4.75,-0.919,8.274,2.0,2017-05-19 10:41:55,50.918925079661136
4.597,-0.919,8.274,2.0,2017-05-19 10:41:56,52.21429113477765
4.597,-0.919,8.274,2.0,2017-05-19 10:41:57,50.01816851805277
4.597,-0.919,8.274,2.0,2017-05-19 10:41:59,49.96544587757961
4.597,-0.919,8.274,2.0,2017-05-19 10:42:00,48.43843872911819
4.597,-0.919,8.274,2.0,2017-05-19 10:42:01,50.91574143607307
4.597,-0.919,8.274,2.0,2017-05-19 10:42:02,52.63831582821658
4.597,-0.919,8.274,2.0,2017-05-19 10:42:03,49.606888808170375
4.597,-0.919,8.274,2.0,2017-05-19 10:42:04,49.496486154331485
4.597,-0.919,8.274,2.0,2017-05-19 10:42:05,49.27419786249858
4.597,-0.919,8.274,2.0,2017-05-19 10:42:06,51.0270764759146
4.597,-0.919,8.274,2.0,2017-05-19 10:42:07,51.53676658614165
4.597,-0.919,8.274,2.0,2017-05-19 10:42:08,51.33998137472944
4.597,-0.919,8.274,2.0,2017-05-19 10:42:10,48.745611750110285
4.597,-0.919,8.274,2.0,2017-05-19 10:42:11,51.08053225532149
4.75,-0.919,8.274,2.0,2017-05-19 10:42:12,49.45550930785063
4.597,-0.919,8.274,2.0,2017-05-19 10:42:13,51.03163444956502
4.597,-0.919,8.274,2.0,2017-05-19 10:42:14,51.80400530115129
4.597,-0.919,8.274,2.0,2017-05-19 10:42:15,51.02674734827662
4.597,-0.919,8.274,2.0,2017-05-19 10:42:17,50.057445384833755
4.597,-0.919,8.274,2.0,2017-05-19 10:42:18,50.58205404536115
4.597,-0.919,8.274,2.0,2017-05-19 10:42:20,51.41831132440005
4.597,-0.919,8.274,2.0,2017-05-19 10:42:21,52.23524981650211
4.597,-0.919,8.274,2.0,2017-05-19 10:42:22,52.00369838372464
4.597,-0.919,8.274,2.0,2017-05-19 10:42:23,50.80770239760872
4.597,-0.919,8.274,2.0,2017-05-19 10:42:24,51.27273712952304
4.597,-0.919,8.274,2.0,2017-05-19 10:42:25,51.32865209697937
4.597,-0.919,8.274,2.0,2017-05-19 10:42:26,49.81202277975284
4.597,-0.919,8.274,2.0,2017-05-19 10:42:27,51.03532619075529
4.597,-0.919,8.274,2.0,2017-05-19 10:42:29,49.756128273439316
4.597,-0.919,8.274,2.0,2017-05-19 10:42:30,50.92931831726081
4.597,-0.919,8.274,2.0,2017-05-19 10:42:31,49.18136406027814
4.75,-0.919,8.274,2.0,2017-05-19 10:42:32,51.919403854121086
4.597,-0.919,8.274,2.0,2017-05-19 10:42:34,51.4926532136295
4.597,-0.919,8.274,2.0,2017-05-19 10:42:35,51.82081259841109
4.597,-0.919,8.274,2.0,2017-05-19 10:42:36,47.8772166783837
4.597,-0.919,8.274,2.0,2017-05-19 10:42:38,48.92903939540949
4.75,-0.919,8.274,2.0,2017-05-19 10:42:39,49.95695865466091
4.75,-0.919,8.274,2.0,2017-05-19 10:42:40,48.87632787974026
4.597,-0.919,8.274,2.0,2017-05-19 10:42:41,48.70411514145344
4.597,-0.919,8.274,2.0,2017-05-19 10:42:43,51.96219861092036
4.597,-0.919,8.274,2.0,2017-05-19 10:42:44,52.40578442061519
4.597,-0.919,8.274,2.0,2017-05-19 10:42:45,49.70771256769819
4.597,-0.919,8.274,2.0,2017-05-19 10:42:46,49.481924613437926
4.597,-0.919,8.274,2.0,2017-05-19 10:42:47,50.20189906093968
4.597,-0.919,8.274,2.0,2017-05-19 10:42:48,49.13805245852913
4.597,-0.919,8.274,2.0,2017-05-19 10:42:49,46.37956389052143
4.597,-0.919,8.274,2.0,2017-05-19 10:42:51,49.02326977623615
4.597,-0.919,8.274,2.0,2017-05-19 10:42:52,48.88279926949266
4.597,-0.919,8.274,2.0,2017-05-19 10:42:53,52.6280372921115
4.597,-0.919,8.274,2.0,2017-05-19 10:42:54,49.63772190102396
4.597,-0.919,8.274,2.0,2017-05-19 10:42:55,49.81277524934083
4.597,-0.919,8.274,2.0,2017-05-19 10:42:57,51.49988860039259
4.597,-0.919,8.274,2.0,2017-05-19 10:42:58,51.817542019423854
4.597,-0.919,8.274,2.0,2017-05-19 10:42:59,51.3566828883723
4.597,-0.919,8.274,2.0,2017-05-19 10:43:00,51.075413744168365
4.597,-0.919,8.274,2.0,2017-05-19 10:43:01,49.46579335283258
4.597,-0.919,8.274,2.0,2017-05-19 10:43:02,51.500219496814324
4.75,-0.919,8.274,2.0,2017-05-19 10:43:03,51.63557700322775
4.597,-0.919,8.274,2.0,2017-05-19 10:43:04,52.097116759200375
4.597,-0.919,8.274,2.0,2017-05-19 10:43:05,49.11046839530705
4.597,-0.919,8.274,2.0,2017-05-19 10:43:07,51.454457254997436
4.597,-0.919,8.274,2.0,2017-05-19 10:43:08,49.850371552739446
4.597,-0.919,8.274,2.0,2017-05-19 10:43:09,50.46301007793784
4.597,-0.919,8.274,2.0,2017-05-19 10:43:10,51.210097958914375
4.597,-0.919,8.274,2.0,2017-05-19 10:43:11,49.259685171466344
4.597,-0.919,8.274,2.0,2017-05-19 10:43:12,49.80675368357829
4.597,-0.919,8.274,2.0,2017-05-19 10:43:14,52.22597584641166
4.75,-0.919,8.274,2.0,2017-05-19 10:43:15,50.14047266454328
4.75,-0.919,8.274,2.0,2017-05-19 10:43:16,48.555045805125296
4.597,-0.919,8.274,2.0,2017-05-19 10:43:17,48.89080488716591
4.597,-0.919,8.274,2.0,2017-05-19 10:43:18,49.38202926175556
4.597,-0.919,8.274,2.0,2017-05-19 10:43:20,50.473745805632944
4.597,-0.919,8.274,2.0,2017-05-19 10:43:22,50.40962458903866
4.75,-0.919,8.274,2.0,2017-05-19 10:43:23,49.52907809886508
4.75,-0.919,8.274,2.0,2017-05-19 10:43:24,47.809291605376394
4.597,-0.919,8.274,2.0,2017-05-19 10:43:25,50.05302694281356
4.597,-0.919,8.274,2.0,2017-05-19 10:43:26,48.552373331164176
4.597,-0.919,8.274,2.0,2017-05-19 10:43:28,48.419328775188106
4.597,-0.919,8.274,2.0,2017-05-19 10:43:29,47.25356317233461
4.597,-0.919,8.274,2.0,2017-05-19 10:43:30,49.72425426699936
4.597,-0.919,8.274,2.0,2017-05-19 10:43:31,48.96521618931474
4.597,-0.919,8.274,2.0,2017-05-19 10:43:32,51.356848623319415
4.597,-0.919,8.274,2.0,2017-05-19 10:43:34,48.690779104356096
4.597,-0.919,8.274,2.0,2017-05-19 10:43:35,50.32833878222487
4.597,-0.919,8.274,2.0,2017-05-19 10:43:36,50.274150018910724
4.597,-0.919,8.274,2.0,2017-05-19 10:43:37,51.17323548747059
4.597,-0.919,8.274,2.0,2017-05-19 10:43:38,49.48115707975496
4.597,-0.919,8.274,2.0,2017-05-19 10:43:39,50.6014800370837
4.597,-0.919,8.274,2.0,2017-05-19 10:43:40,50.45623714044504
4.597,-0.919,8.274,0.0,2017-05-19 10:43:41,49.65997878213763
4.597,-0.919,8.274,2.0,2017-05-19 10:43:42,50.91854986616815
4.75,-0.919,8.274,0.0,2017-05-19 10:43:43,50.867425730963845
4.75,-0.919,8.274,2.0,2017-05-19 10:43:45,49.200649085796755
4.597,-0.919,8.274,2.0,2017-05-19 10:43:46,50.105872265069785
4.597,-0.919,8.274,2.0,2017-05-19 10:43:47,48.02882135771058
4.597,-0.919,8.274,2.0,2017-05-19 10:43:48,49.437296075166586
4.597,-0.919,8.274,2.0,2017-05-19 10:43:50,49.69463949446929
4.597,-0.919,8.274,2.0,2017-05-19 10:43:51,47.552562123028046
4.597,-0.919,8.274,2.0,2017-05-19 10:43:52,48.3053698488732
4.75,-0.919,8.274,2.0,2017-05-19 10:43:54,48.78158456896398
4.597,-0.919,8.274,2.0,2017-05-19 10:43:55,50.55866029437384
4.597,-0.919,8.274,2.0,2017-05-19 10:43:56,51.04802624116513
4.75,-0.919,8.274,2.0,2017-05-19 10:43:57,49.95540086304743
4.597,-0.919,8.274,2.0,2017-05-19 10:43:59,49.55491915946162
4.597,-0.919,8.274,2.0,2017-05-19 10:44:00,51.03289626334615
4.597,-0.919,8.274,2.0,2017-05-19 10:44:02,48.56459505767656
4.597,-0.919,8.274,2.0,2017-05-19 10:44:03,50.427529172915314
4.597,-0.919,8.274,2.0,2017-05-19 10:44:04,49.082592510639664
4.597,-0.919,8.274,2.0,2017-05-19 10:44:05,49.41359415385952
4.597,-0.919,8.274,2.0,2017-05-19 10:44:06,49.06451530659972
4.75,-0.919,8.274,2.0,2017-05-19 10:44:07,49.484664239923255
4.597,-0.919,8.274,2.0,2017-05-19 10:44:08,49.894061106916894
4.75,-0.919,8.274,2.0,2017-05-19 10:44:09,50.30637323946385
4.75,-0.919,8.274,2.0,2017-05-19 10:44:10,51.6866310221146
4.75,-0.919,8.274,2.0,2017-05-19 10:44:11,51.664542498951334
4.597,-0.919,8.274,2.0,2017-05-19 10:44:12,50.78186432713924
4.597,-0.919,8.274,2.0,2017-05-19 10:44:14,53.77563081065557
4.597,-0.919,8.274,2.0,2017-05-19 10:44:15,51.2333206470357
4.597,-0.919,8.274,2.0,2017-05-19 10:44:16,49.558949436354254
4.75,-0.919,8.274,2.0,2017-05-19 10:44:17,50.97314413406926
4.597,-0.919,8.274,2.0,2017-05-19 10:44:18,51.3352260206264
4.75,-0.919,8.274,2.0,2017-05-19 10:44:19,50.966107678970694
4.597,-0.919,8.274,2.0,2017-05-19 10:44:20,50.48194759875194
4.597,-0.919,8.274,2.0,2017-05-19 10:44:21,49.56781351643643
4.597,-0.919,8.274,2.0,2017-05-19 10:44:23,51.38859422556122
4.597,-0.919,8.274,2.0,2017-05-19 10:44:24,50.04252475130567
4.597,-0.919,8.274,2.0,2017-05-19 10:44:25,49.16496273748844
4.597,-0.919,8.274,2.0,2017-05-19 10:44:27,50.409701900225734
4.75,-0.919,8.274,2.0,2017-05-19 10:44:28,50.17078149704811
4.597,-0.919,8.274,2.0,2017-05-19 10:44:30,50.31424055648645
4.597,-0.919,8.274,2.0,2017-05-19 10:44:31,49.769257567757286
4.597,-0.919,8.274,2.0,2017-05-19 10:44:32,49.34135461700072
4.597,-0.919,8.274,2.0,2017-05-19 10:44:34,51.66213569470008
4.597,-0.919,8.274,2.0,2017-05-19 10:44:35,51.7341904724709
4.597,-0.919,8.274,2.0,2017-05-19 10:44:36,51.8472196163998
4.597,-0.919,8.274,2.0,2017-05-19 10:44:37,51.152832219507246
4.75,-0.919,8.274,2.0,2017-05-19 10:44:38,51.608613887588845
4.597,-0.919,8.274,2.0,2017-05-19 10:44:39,52.36971795100242
4.597,-0.919,8.274,2.0,2017-05-19 10:44:40,48.620073893323124
4.75,-0.919,8.274,2.0,2017-05-19 10:44:42,51.71565089493762
4.75,-0.919,8.274,2.0,2017-05-19 10:44:43,50.82470179359807
4.75,-0.919,8.274,2.0,2017-05-19 10:44:44,49.75310953276714
4.597,-0.919,8.274,2.0,2017-05-19 10:44:45,50.641121592470135
4.75,-0.919,8.274,2.0,2017-05-19 10:44:46,50.05778971466881
4.597,-0.919,8.274,2.0,2017-05-19 10:44:47,48.582121257718
4.597,-0.919,8.274,2.0,2017-05-19 10:44:48,50.626828848710204
4.75,-0.919,8.274,2.0,2017-05-19 10:44:49,52.39358799451338
4.597,-0.919,8.274,2.0,2017-05-19 10:44:51,51.20727141037899
4.597,-0.919,8.274,2.0,2017-05-19 10:44:52,51.567678051183734
4.597,-0.919,8.274,2.0,2017-05-19 10:44:53,53.27493812969679
4.597,-0.919,8.274,2.0,2017-05-19 10:44:54,51.698456259820354
4.597,-0.919,8.274,2.0,2017-05-19 10:44:55,48.46102424538773
4.75,-0.919,8.274,2.0,2017-05-19 10:44:56,49.70403266335207
4.597,-0.919,8.274,2.0,2017-05-19 10:44:57,50.83694104343553
4.597,-0.919,8.274,2.0,2017-05-19 10:44:58,48.942014324522646
4.597,-0.919,8.274,2.0,2017-05-19 10:45:00,50.29194417500203
4.75,-0.919,8.274,2.0,2017-05-19 10:45:01,49.29597364923494
4.597,-0.919,8.274,2.0,2017-05-19 10:45:02,47.10279057849675
4.75,-0.919,8.274,2.0,2017-05-19 10:45:03,52.897421993499975
4.75,-0.919,8.274,2.0,2017-05-19 10:45:04,52.55323448778729
4.75,-0.919,8.274,2.0,2017-05-19 10:45:05,51.49535025890386
4.75,-0.919,8.274,2.0,2017-05-19 10:45:06,51.342663009731055
4.597,-0.919,8.274,2.0,2017-05-19 10:45:07,50.39275430176963
4.597,-0.919,8.274,2.0,2017-05-19 10:45:08,51.59904907060286
4.597,-0.919,8.274,2.0,2017-05-19 10:45:09,51.98604600806621
4.597,-0.919,8.274,2.0,2017-05-19 10:45:11,51.93811479016606
4.597,-0.919,8.274,2.0,2017-05-19 10:45:12,51.71516292749751
4.597,-0.919,8.274,2.0,2017-05-19 10:45:14,52.897095762421756
4.597,-0.919,8.274,2.0,2017-05-19 10:45:15,48.84192110314406
4.597,-0.919,8.274,2.0,2017-05-19 10:45:16,50.31587005902706
4.597,-0.919,8.274,2.0,2017-05-19 10:45:17,49.967803005603585
4.597,-0.919,8.274,2.0,2017-05-19 10:45:18,47.26000426030438
4.597,-0.919,8.274,2.0,2017-05-19 10:45:19,50.529182318146596
4.597,-0.919,8.274,2.0,2017-05-19 10:45:20,47.93247045932251
4.597,-0.919,8.274,2.0,2017-05-19 10:45:21,50.352099085355434
4.597,-0.919,8.274,2.0,2017-05-19 10:45:23,49.993033217389566
4.75,-0.919,8.274,2.0,2017-05-19 10:45:24,53.11613275187159
4.597,-0.919,8.274,2.0,2017-05-19 10:45:25,51.8900152763633
4.597,-0.919,8.274,2.0,2017-05-19 10:45:26,52.989125900444705
4.597,-0.919,8.274,2.0,2017-05-19 10:45:27,52.17857687868399
4.597,-0.919,8.274,2.0,2017-05-19 10:45:29,51.379107284899845
4.597,-0.919,8.274,2.0,2017-05-19 10:45:30,49.86766067693672
4.75,-0.919,8.274,2.0,2017-05-19 10:45:31,50.93722402191173
4.597,-0.919,8.274,2.0,2017-05-19 10:45:33,50.92438496238608
4.597,-0.919,8.274,2.0,2017-05-19 10:45:34,51.037025091449294
4.597,-0.919,8.274,2.0,2017-05-19 10:45:35,51.464971647895645
4.597,-0.919,8.274,2.0,2017-05-19 10:45:36,51.9794621582421
4.75,-0.919,8.274,0.0,2017-05-19 10:45:37,49.494907305448166
4.597,-0.919,8.274,2.0,2017-05-19 10:45:38,50.588042184014135
4.597,-0.919,8.274,2.0,2017-05-19 10:45:39,48.96407707268696
4.597,-0.919,8.274,2.0,2017-05-19 10:45:41,48.74190589842273
4.75,-0.919,8.274,2.0,2017-05-19 10:45:42,49.00301962523998
4.597,-0.919,8.274,2.0,2017-05-19 10:45:43,48.61729019440827
4.75,-0.919,8.274,2.0,2017-05-19 10:45:44,51.37367336655018
4.75,-0.919,8.274,2.0,2017-05-19 10:45:45,48.62536831030334
4.597,-0.919,8.274,2.0,2017-05-19 10:45:46,49.264520194759356
4.597,-0.919,8.274,2.0,2017-05-19 10:45:48,51.27679888004824
4.597,-0.919,8.274,2.0,2017-05-19 10:45:49,52.16965195486347
4.597,-0.919,8.274,2.0,2017-05-19 10:45:50,51.09921394932539
4.597,-0.919,8.274,2.0,2017-05-19 10:45:51,51.15412527691259
4.597,-0.919,8.274,2.0,2017-05-19 10:45:53,50.246883621290564
4.597,-0.919,8.274,2.0,2017-05-19 10:45:54,48.98345127624377
4.597,-0.919,8.274,2.0,2017-05-19 10:45:55,51.441850069802946
4.597,-0.919,8.274,2.0,2017-05-19 10:45:56,50.708130714581515
4.597,-0.919,8.274,2.0,2017-05-19 10:46:00,48.60367769698787
4.597,-0.919,8.274,2.0,2017-05-19 10:46:02,49.841091458416926
4.597,-0.919,8.274,2.0,2017-05-19 10:46:03,47.595592338863256
4.597,-0.919,8.274,2.0,2017-05-19 10:46:04,51.3362542933422
4.597,-0.919,8.274,2.0,2017-05-19 10:46:06,48.467993479192714
4.597,-0.919,8.274,2.0,2017-05-19 10:46:07,48.889492205940684
4.597,-0.919,8.274,2.0,2017-05-19 10:46:08,49.920745579182295
4.597,-0.919,8.274,2.0,2017-05-19 10:46:10,49.893244003648334
4.597,-0.919,8.274,2.0,2017-05-19 10:46:11,49.90253808226499
4.597,-0.919,8.274,2.0,2017-05-19 10:46:12,48.765257837715424
4.597,-0.919,8.274,2.0,2017-05-19 10:46:14,51.356213155805264
4.597,-0.919,8.274,2.0,2017-05-19 10:46:15,50.75421958288157
4.597,-0.919,8.274,2.0,2017-05-19 10:46:16,52.77092559330619
4.597,-0.919,8.274,2.0,2017-05-19 10:46:17,48.20566428004391
4.597,-0.919,8.274,2.0,2017-05-19 10:46:18,49.577293254551684
4.597,-0.919,8.274,2.0,2017-05-19 10:46:20,47.89708875338501
4.75,-0.919,8.274,2.0,2017-05-19 10:46:21,52.71287186229188
4.75,-0.919,8.274,2.0,2017-05-19 10:46:22,49.92430595762265
4.597,-0.919,8.274,2.0,2017-05-19 10:46:23,50.46248560027824
4.597,-0.919,8.274,2.0,2017-05-19 10:46:24,51.70855676257353
4.597,-0.919,8.274,2.0,2017-05-19 10:46:25,50.93529599623824
4.597,-0.919,8.274,2.0,2017-05-19 10:46:26,52.10096265010642
4.75,-0.919,8.274,2.0,2017-05-19 10:46:27,50.872055805110236
4.597,-0.919,8.274,2.0,2017-05-19 10:46:29,50.199939921050294
4.597,-0.919,8.274,2.0,2017-05-19 10:46:30,49.75021993942545
4.597,-0.919,8.274,2.0,2017-05-19 10:46:31,51.663571239599236
4.75,-0.919,8.274,2.0,2017-05-19 10:46:32,50.020452905733556
4.597,-0.919,8.274,2.0,2017-05-19 10:46:33,48.74395975898574
4.597,-0.919,8.274,2.0,2017-05-19 10:46:34,49.19615558817988
4.597,-0.919,8.274,2.0,2017-05-19 10:46:36,50.23288837991429
4.597,-0.919,8.274,2.0,2017-05-19 10:46:37,48.757834733419394
4.597,-0.919,8.274,2.0,2017-05-19 10:46:38,49.32262273674411
4.597,-0.919,8.274,2.0,2017-05-19 10:46:40,52.018450411191296
4.597,-0.919,8.274,2.0,2017-05-19 10:46:41,52.34581459636893
4.597,-0.919,8.274,2.0,2017-05-19 10:46:42,50.59681062828901
4.597,-0.919,8.274,2.0,2017-05-19 10:46:44,48.15673548996821
4.75,-0.919,8.274,2.0,2017-05-19 10:46:45,48.81705247910006
4.75,-0.919,8.274,2.0,2017-05-19 10:46:46,49.236986755261725
4.597,-0.919,8.274,2.0,2017-05-19 10:46:47,48.04522105016253
4.75,-0.919,8.274,2.0,2017-05-19 10:46:48,51.02206207526736
4.597,-0.919,8.274,2.0,2017-05-19 10:46:49,50.28188382294406
4.75,-0.919,8.274,2.0,2017-05-19 10:46:50,50.04817787404559
4.597,-0.919,8.274,2.0,2017-05-19 10:46:51,48.94673747828256
4.597,-0.919,8.274,2.0,2017-05-19 10:46:53,50.71550765979354
4.597,-0.919,8.274,2.0,2017-05-19 10:46:54,50.36123192343546
4.597,-0.919,8.274,2.0,2017-05-19 10:46:55,46.59328923556008
4.597,-0.919,8.274,2.0,2017-05-19 10:46:56,48.90006386201627
4.75,-0.919,8.274,2.0,2017-05-19 10:46:57,48.23184419439126
4.597,-0.919,8.274,2.0,2017-05-19 10:46:59,50.375579243496304
4.597,-0.919,8.274,2.0,2017-05-19 10:47:00,52.30124180838828
4.597,-0.919,8.274,2.0,2017-05-19 10:47:01,48.623665646795814
4.75,-0.919,8.274,2.0,2017-05-19 10:47:02,50.19408003540076
4.597,-0.919,8.274,2.0,2017-05-19 10:47:03,51.396176245884035
4.597,-0.919,8.274,2.0,2017-05-19 10:47:04,50.39403869011326
4.597,-0.919,8.274,2.0,2017-05-19 10:47:05,49.55359079556346
4.597,-0.919,8.274,2.0,2017-05-19 10:47:06,49.83672171993882
4.597,-0.919,8.274,2.0,2017-05-19 10:47:07,50.01109276699361
4.597,-0.919,8.274,2.0,2017-05-19 10:47:09,49.69324264568489
4.75,-0.919,8.274,2.0,2017-05-19 10:47:10,48.277462895936765
4.75,-0.919,8.274,2.0,2017-05-19 10:47:11,49.325413642519294
4.597,-0.919,8.274,2.0,2017-05-19 10:47:12,50.657853421009584
4.597,-0.919,8.274,2.0,2017-05-19 10:47:13,50.41718086676684
4.75,-0.919,8.274,2.0,2017-05-19 10:47:14,50.31127205393992
4.597,-0.919,8.274,2.0,2017-05-19 10:47:16,48.864012837308465
4.75,-0.919,8.274,2.0,2017-05-19 10:47:17,47.79967255245303
4.597,-0.919,8.274,2.0,2017-05-19 10:47:18,50.15710211919111
4.597,-0.919,8.274,2.0,2017-05-19 10:47:19,51.63618768859002
4.75,-0.919,8.274,2.0,2017-05-19 10:47:20,50.60424620964605
4.75,-0.919,8.274,2.0,2017-05-19 10:47:21,50.97655718359293
4.597,-0.919,8.274,2.0,2017-05-19 10:47:22,50.03761886281754
4.597,-0.919,8.274,2.0,2017-05-19 10:47:24,50.231830518741646
4.597,-0.919,8.274,2.0,2017-05-19 10:47:25,51.927837278853545
4.597,-0.919,8.274,2.0,2017-05-19 10:47:26,49.8416971705139
4.597,-0.919,8.274,2.0,2017-05-19 10:47:28,50.670459331720885
4.75,-0.919,8.274,2.0,2017-05-19 10:47:29,49.45933836001235
4.75,-0.919,8.274,2.0,2017-05-19 10:47:30,48.965395650883536
4.75,-0.919,8.274,2.0,2017-05-19 10:47:31,50.088781696143734
4.597,-0.919,8.274,2.0,2017-05-19 10:47:32,50.54210600003824
4.75,-0.919,8.274,2.0,2017-05-19 10:47:33,50.707134311445216
4.597,-0.919,8.274,2.0,2017-05-19 10:47:34,51.14910396590083
4.597,-0.919,8.274,2.0,2017-05-19 10:47:35,53.076850044827125
4.597,-0.919,8.274,2.0,2017-05-19 10:47:36,55.83058913304881
4.597,-0.919,8.274,2.0,2017-05-19 10:47:37,52.77569449901861
4.597,-0.919,8.274,2.0,2017-05-19 10:47:38,51.23069421173595
4.75,-0.919,8.274,2.0,2017-05-19 10:47:39,55.77141594920147
4.75,-0.919,8.274,2.0,2017-05-19 10:47:40,53.68970958339461
4.75,-0.919,8.274,2.0,2017-05-19 10:47:42,57.27594104665957
4.597,-0.919,8.274,2.0,2017-05-19 10:47:43,55.197423195910964
4.597,-0.919,8.274,2.0,2017-05-19 10:47:44,53.439989338318426
4.597,-0.919,8.274,2.0,2017-05-19 10:47:45,52.37269531478895
4.597,-0.919,8.274,2.0,2017-05-19 10:47:46,51.28357915467817
4.597,-0.919,8.274,2.0,2017-05-19 10:47:47,52.57626429407503
4.597,-0.919,8.274,2.0,2017-05-19 10:47:48,50.940127244652665
4.75,-0.919,8.274,2.0,2017-05-19 10:47:49,53.54215540302425
4.597,-0.919,8.274,2.0,2017-05-19 10:47:50,50.67048026608908
4.597,-0.919,8.274,2.0,2017-05-19 10:47:52,47.77685808336233
4.597,-0.919,8.274,2.0,2017-05-19 10:47:53,48.34878343504707
4.597,-0.919,8.274,2.0,2017-05-19 10:47:54,49.218601260479915
4.597,-0.919,8.274,2.0,2017-05-19 10:47:56,50.41178705406193
4.597,-0.919,8.274,2.0,2017-05-19 10:47:58,48.63154426802781
4.597,-0.919,8.274,2.0,2017-05-19 10:47:59,52.77658707017574
4.597,-0.919,8.274,2.0,2017-05-19 10:48:00,48.59343851488495
4.597,-0.919,8.274,2.0,2017-05-19 10:48:01,48.168775227160495
4.597,-0.919,8.274,2.0,2017-05-19 10:48:02,50.00085072670483
4.597,-0.919,8.274,2.0,2017-05-19 10:48:04,51.881088144137195
4.597,-0.919,8.274,2.0,2017-05-19 10:48:05,51.45698288432609
4.597,-0.919,8.274,2.0,2017-05-19 10:48:06,52.50009981523355
4.597,-0.919,8.274,2.0,2017-05-19 10:48:07,51.54551796506528
4.597,-0.919,8.274,2.0,2017-05-19 10:48:08,52.34541428766836
4.597,-0.919,8.274,2.0,2017-05-19 10:48:10,51.0789066117631
4.597,-0.919,8.274,2.0,2017-05-19 10:48:11,51.32440407787186
4.597,-0.919,8.274,2.0,2017-05-19 10:48:12,49.77252082753682
4.75,-0.919,8.274,2.0,2017-05-19 10:48:13,48.67946726144285
4.597,-0.919,8.274,2.0,2017-05-19 10:48:14,49.8879085402364
4.75,-0.919,8.274,2.0,2017-05-19 10:48:15,50.48279167595928
4.75,-0.919,8.274,2.0,2017-05-19 10:48:16,50.47957784068534
4.597,-0.919,8.274,2.0,2017-05-19 10:48:17,50.46811295524463
4.597,-0.919,8.274,2.0,2017-05-19 10:48:19,48.22441287442963
4.597,-0.919,8.274,2.0,2017-05-19 10:48:20,48.17000754516307
4.75,-0.919,8.274,2.0,2017-05-19 10:48:21,49.53674192159014
4.597,-0.919,8.274,2.0,2017-05-19 10:48:22,50.70343659326551
4.597,-0.919,8.274,2.0,2017-05-19 10:48:23,49.565149261095485
4.597,-0.919,8.274,2.0,2017-05-19 10:48:24,49.64665677773853
4.75,-0.919,8.274,2.0,2017-05-19 10:48:25,50.52368748477532
4.597,-0.919,8.274,2.0,2017-05-19 10:48:26,50.97434042171095
4.597,-0.919,8.274,2.0,2017-05-19 10:48:27,49.578423714996546
4.597,-0.919,8.274,2.0,2017-05-19 10:48:29,49.38757243187506
4.597,-0.919,8.274,2.0,2017-05-19 10:48:30,51.28053961881832
4.597,-0.919,8.274,2.0,2017-05-19 10:48:31,49.6598384680222
4.75,-0.919,8.274,2.0,2017-05-19 10:48:32,51.1960883696929
4.75,-0.919,8.274,2.0,2017-05-19 10:48:33,50.81483926124845
4.597,-0.919,8.274,2.0,2017-05-19 10:48:34,47.01554494088376
4.597,-0.919,8.274,2.0,2017-05-19 10:48:36,45.86101053097874
4.597,-0.919,8.274,2.0,2017-05-19 10:48:37,48.60181482597795
4.75,-0.919,8.274,0.0,2017-05-19 10:48:38,48.5862854319031
4.75,-0.919,8.274,0.0,2017-05-19 10:48:39,48.57779133843307
4.597,-0.919,8.274,2.0,2017-05-19 10:48:40,48.99665853206251
4.75,-0.919,8.274,2.0,2017-05-19 10:48:41,55.77784591384977
4.597,-0.919,8.274,2.0,2017-05-19 10:48:42,53.92640580331262
4.597,-0.919,8.274,2.0,2017-05-19 10:48:44,53.371689732160014
4.597,-0.919,8.274,2.0,2017-05-19 10:48:45,51.43891408519838
4.597,-0.919,8.274,2.0,2017-05-19 10:48:47,50.30287713724004
4.597,-0.919,8.274,2.0,2017-05-19 10:48:48,51.28415384815568
4.597,-0.919,8.274,2.0,2017-05-19 10:48:50,48.90075353064333
4.597,-0.919,8.274,2.0,2017-05-19 10:48:51,48.265855882195446
4.597,-0.919,8.274,2.0,2017-05-19 10:48:52,51.16358390954808
4.597,-0.919,8.274,2.0,2017-05-19 10:48:53,50.35655795163541
4.597,-0.919,8.274,2.0,2017-05-19 10:48:54,49.608517477968704
4.597,-0.919,8.274,2.0,2017-05-19 10:48:56,51.00050458145459
4.597,-0.919,8.274,2.0,2017-05-19 10:48:57,50.42481927744943
4.597,-0.919,8.274,2.0,2017-05-19 10:48:58,50.2844087870152
4.75,-0.919,8.274,2.0,2017-05-19 10:48:59,49.899258039043104
4.597,-0.919,8.274,2.0,2017-05-19 10:49:01,50.78066405195888
4.597,-0.919,8.274,2.0,2017-05-19 10:49:02,49.562521045713915
4.597,-0.919,8.274,2.0,2017-05-19 10:49:03,48.37282631939898
4.75,-0.919,8.274,2.0,2017-05-19 10:49:04,48.196993859648046
4.597,-0.919,8.274,2.0,2017-05-19 10:49:05,49.3863072376496
4.597,-0.919,8.274,2.0,2017-05-19 10:49:07,47.21761501929376
4.597,-0.919,8.274,2.0,2017-05-19 10:49:08,48.00481034021887
4.597,-0.919,8.274,2.0,2017-05-19 10:49:09,47.50960075887866
4.597,-0.919,8.274,2.0,2017-05-19 10:49:10,48.24664522138078
4.597,-0.919,8.274,2.0,2017-05-19 10:49:11,50.836890787300895
4.75,-0.919,8.274,2.0,2017-05-19 10:49:12,46.95772549796638
4.597,-0.919,8.274,2.0,2017-05-19 10:49:13,46.98372166694807
4.597,-0.919,8.274,2.0,2017-05-19 10:49:14,48.88348010178049
4.597,-0.919,8.274,2.0,2017-05-19 10:49:15,49.526017770266044
4.75,-0.919,8.274,0.0,2017-05-19 10:49:16,47.5887325625089
4.75,-0.919,8.274,2.0,2017-05-19 10:49:17,49.66753466184543
4.597,-0.919,8.274,2.0,2017-05-19 10:49:18,48.76022847979133
4.597,-0.919,8.274,2.0,2017-05-19 10:49:19,51.23824547738324
4.75,-0.919,8.274,2.0,2017-05-19 10:49:20,48.63290918966445
4.597,-0.919,8.274,2.0,2017-05-19 10:49:22,49.21764582953415
4.75,-0.919,8.274,2.0,2017-05-19 10:49:23,49.836731302257164
4.597,-0.919,8.274,2.0,2017-05-19 10:49:25,48.15098988633981
4.597,-0.919,8.274,2.0,2017-05-19 10:49:26,50.418992680062786
4.597,-0.919,8.274,2.0,2017-05-19 10:49:27,50.248128943697516
4.597,-0.919,8.274,2.0,2017-05-19 10:49:28,49.98675310774558
4.597,-0.919,8.274,2.0,2017-05-19 10:49:29,51.09208621140689
4.75,-0.919,8.274,2.0,2017-05-19 10:49:30,49.92319491338783
4.75,-0.919,8.274,2.0,2017-05-19 10:49:31,49.64666281377993
4.597,-0.919,8.274,2.0,2017-05-19 10:49:33,51.45776997475509
4.597,-0.919,8.274,2.0,2017-05-19 10:49:34,50.77185108796539
4.75,-0.919,8.274,2.0,2017-05-19 10:49:35,48.823161988204504
4.597,-0.919,8.274,2.0,2017-05-19 10:49:36,50.84709684592147
4.597,-0.919,8.274,2.0,2017-05-19 10:49:37,52.25629076451672
4.597,-0.919,8.274,2.0,2017-05-19 10:49:38,51.38833003158325
4.597,-0.919,8.274,2.0,2017-05-19 10:49:40,50.73062290290471
4.597,-0.919,8.274,2.0,2017-05-19 10:49:41,51.64379951865829
4.75,-0.919,8.274,2.0,2017-05-19 10:49:42,52.781634096313056
4.597,-0.919,8.274,2.0,2017-05-19 10:49:43,49.734466859855864
4.597,-0.919,8.274,2.0,2017-05-19 10:49:44,49.98348676276163
4.597,-0.919,8.274,2.0,2017-05-19 10:49:46,51.538598914907595
4.597,-0.919,8.274,2.0,2017-05-19 10:49:47,48.51474027880431
4.597,-0.919,8.274,2.0,2017-05-19 10:49:48,48.809084231269765
4.597,-0.919,8.274,2.0,2017-05-19 10:49:49,50.66101345912035
4.75,-0.919,8.274,2.0,2017-05-19 10:49:50,54.26927651960525
4.597,-0.919,8.274,2.0,2017-05-19 10:49:51,54.09183334327048
4.597,-0.919,8.274,2.0,2017-05-19 10:49:53,52.36513533977707
4.75,-0.919,8.274,2.0,2017-05-19 10:49:54,51.84587448484364
4.597,-0.919,8.274,2.0,2017-05-19 10:49:55,52.42160516037202
4.597,-0.919,8.274,2.0,2017-05-19 10:49:56,50.98143079507034
4.597,-0.919,8.274,2.0,2017-05-19 10:49:57,50.23772157029238
4.597,-0.919,8.274,2.0,2017-05-19 10:49:58,51.12610698261249
4.597,-0.919,8.274,2.0,2017-05-19 10:49:59,51.47223662916819
4.597,-0.919,8.274,2.0,2017-05-19 10:50:00,51.94873578887165
4.597,-0.919,8.274,2.0,2017-05-19 10:50:02,50.19366846593244
4.597,-0.919,8.274,2.0,2017-05-19 10:50:03,50.62310312467821
4.597,-0.919,8.274,2.0,2017-05-19 10:50:04,48.85046306002424
4.597,-0.919,8.274,2.0,2017-05-19 10:50:06,52.1209544026707
4.75,-0.919,8.274,2.0,2017-05-19 10:50:07,50.224799225514325
4.75,-0.919,8.274,2.0,2017-05-19 10:50:08,51.581449133688935
4.597,-0.919,8.274,2.0,2017-05-19 10:50:09,52.0197874732941
4.597,-0.919,8.274,2.0,2017-05-19 10:50:11,47.21791918309031
4.75,-0.919,8.274,2.0,2017-05-19 10:50:12,49.828275849422674
4.597,-0.919,8.274,2.0,2017-05-19 10:50:14,46.36355230722434
4.597,-0.919,8.274,2.0,2017-05-19 10:50:15,49.81589667645835
4.597,-0.919,8.274,2.0,2017-05-19 10:50:16,49.17873512692615
4.597,-0.919,8.274,2.0,2017-05-19 10:50:17,49.25677197311802
4.75,-0.919,8.274,2.0,2017-05-19 10:50:18,49.6369164938254
4.597,-0.919,8.274,2.0,2017-05-19 10:50:20,49.15165738592205
4.597,-0.919,8.274,2.0,2017-05-19 10:50:21,50.927010431075246
4.597,-0.919,8.274,2.0,2017-05-19 10:50:22,49.080120808436504
4.597,-0.919,8.274,2.0,2017-05-19 10:50:23,48.661597648093604
4.75,-0.919,8.274,2.0,2017-05-19 10:50:24,51.367202303403005
4.597,-0.919,8.274,2.0,2017-05-19 10:50:25,50.09280392719259
4.597,-0.919,8.274,2.0,2017-05-19 10:50:26,49.85486581197453
4.597,-0.919,8.274,2.0,2017-05-19 10:50:28,51.900865327913614
4.597,-0.919,8.274,2.0,2017-05-19 10:50:29,48.62021878409229
4.597,-0.919,8.274,2.0,2017-05-19 10:50:30,48.66596202424623
4.597,-0.919,8.274,2.0,2017-05-19 10:50:31,49.939101409419735
4.597,-0.919,8.274,2.0,2017-05-19 10:50:32,51.92642657402459
4.597,-0.919,8.274,2.0,2017-05-19 10:50:33,49.86631209433754
4.597,-0.919,8.274,2.0,2017-05-19 10:50:34,50.569421838188944
4.597,-0.919,8.274,2.0,2017-05-19 10:50:35,47.80796828386386
4.597,-0.919,8.274,2.0,2017-05-19 10:50:37,47.72716459222614
4.597,-0.919,8.274,2.0,2017-05-19 10:50:38,52.073932744483564
4.75,-0.919,8.274,2.0,2017-05-19 10:50:39,48.63669450897784
4.75,-0.919,8.274,2.0,2017-05-19 10:50:40,47.82696633849626
4.75,-0.919,8.274,2.0,2017-05-19 10:50:41,50.212410752600825
4.597,-0.919,8.274,2.0,2017-05-19 10:50:42,51.13888383432898
4.597,-0.919,8.274,2.0,2017-05-19 10:50:43,48.83863331603082
4.75,-0.919,8.274,2.0,2017-05-19 10:50:44,51.53078310965955
4.75,-0.919,8.274,2.0,2017-05-19 10:50:45,47.50797378359009
4.75,-0.919,8.274,2.0,2017-05-19 10:50:46,49.48986388853608
4.75,-0.919,8.274,2.0,2017-05-19 10:50:47,48.164504196171755
4.597,-0.919,8.274,2.0,2017-05-19 10:50:48,47.628792098011814
4.597,-0.919,8.274,2.0,2017-05-19 10:50:50,49.06517699384214
4.597,-0.919,8.274,2.0,2017-05-19 10:50:51,51.02565972117557
4.597,-0.919,8.274,2.0,2017-05-19 10:50:52,49.36524250996446
4.597,-0.919,8.274,2.0,2017-05-19 10:50:54,48.87204591345573
4.597,-0.919,8.274,2.0,2017-05-19 10:50:55,48.03346884925049
4.597,-0.919,8.274,2.0,2017-05-19 10:50:56,48.65763303050956
4.597,-0.919,8.274,2.0,2017-05-19 10:50:57,46.89905659299943
4.597,-0.919,8.274,2.0,2017-05-19 10:50:59,48.64463169564026
4.597,-0.919,8.274,2.0,2017-05-19 10:51:01,50.67480093643159
4.75,-0.919,8.274,2.0,2017-05-19 10:51:02,49.03932971968612
4.597,-0.919,8.274,2.0,2017-05-19 10:51:03,48.501444624034384
4.597,-0.919,8.274,2.0,2017-05-19 10:51:04,49.389575670551686
4.597,-0.919,8.274,2.0,2017-05-19 10:51:05,49.3887930457217
4.75,-0.919,8.274,2.0,2017-05-19 10:51:06,51.56648495431191
4.597,-0.919,8.274,2.0,2017-05-19 10:51:08,49.93078272314012
4.597,-0.919,8.274,2.0,2017-05-19 10:51:09,50.539768970145204
4.597,-0.919,8.274,2.0,2017-05-19 10:51:10,49.87640447206182
4.597,-0.919,8.274,2.0,2017-05-19 10:51:11,49.743036634162166
4.597,-0.919,8.274,2.0,2017-05-19 10:51:12,48.53938197322515
4.75,-0.919,8.274,2.0,2017-05-19 10:51:13,48.89821878788349
4.597,-0.919,8.274,2.0,2017-05-19 10:51:14,49.13446549449006
4.597,-0.919,8.274,2.0,2017-05-19 10:51:15,46.47655938408657
4.597,-0.919,8.274,2.0,2017-05-19 10:51:16,46.128460503860424
4.75,-0.919,8.274,2.0,2017-05-19 10:51:17,48.18054192077295
4.597,-0.919,8.274,2.0,2017-05-19 10:51:18,49.611598158351704
4.597,-0.919,8.274,2.0,2017-05-19 10:51:20,48.56000958218612
4.597,-0.919,8.274,2.0,2017-05-19 10:51:22,51.052364397685025
4.597,-0.919,8.274,2.0,2017-05-19 10:51:23,50.110491201689584
4.597,-0.919,8.274,2.0,2017-05-19 10:51:24,47.63897648026034
4.597,-0.919,8.274,2.0,2017-05-19 10:51:25,47.69302790722033
4.597,-0.919,8.274,2.0,2017-05-19 10:51:26,45.722394412709534
4.597,-0.919,8.274,2.0,2017-05-19 10:51:27,47.509293956286136
4.597,-0.919,8.274,2.0,2017-05-19 10:51:28,49.43479382730366
4.75,-0.919,8.274,2.0,2017-05-19 10:51:29,49.05887365923612
4.597,-0.919,8.274,2.0,2017-05-19 10:51:31,49.4676971759031
4.597,-0.919,8.274,2.0,2017-05-19 10:51:32,49.419841041234285
4.597,-0.919,8.274,2.0,2017-05-19 10:51:34,51.05835985640479
4.597,-0.919,8.274,2.0,2017-05-19 10:51:35,49.2270629179684
4.597,-0.919,8.274,2.0,2017-05-19 10:51:37,48.24418595060625
4.597,-0.919,8.274,2.0,2017-05-19 10:51:38,49.44000902616317
4.597,-0.919,8.274,2.0,2017-05-19 10:51:39,50.44652079877822
4.597,-0.919,8.274,2.0,2017-05-19 10:51:40,49.3142435332927
4.597,-0.919,8.274,2.0,2017-05-19 10:51:41,51.308425700289035
4.597,-0.919,8.274,2.0,2017-05-19 10:51:43,48.74790776575237
4.597,-0.919,8.274,2.0,2017-05-19 10:51:44,51.068267286954494
4.597,-0.919,8.274,2.0,2017-05-19 10:51:45,50.67036419537636
4.597,-0.919,8.274,2.0,2017-05-19 10:51:46,50.59964904964979
4.597,-0.919,8.274,2.0,2017-05-19 10:51:47,48.7017263091729
4.597,-0.919,8.274,2.0,2017-05-19 10:51:49,48.43250224297791
4.597,-0.919,8.274,2.0,2017-05-19 10:51:51,51.84212742413138
4.75,-0.919,8.274,2.0,2017-05-19 10:51:52,50.03340901541531
4.597,-0.919,8.274,2.0,2017-05-19 10:51:53,50.45797557806988
4.75,-0.919,8.274,2.0,2017-05-19 10:51:54,51.23072406186896
4.75,-0.919,8.274,2.0,2017-05-19 10:51:55,50.210171369856376
4.75,-0.919,8.274,2.0,2017-05-19 10:51:56,53.258675512320494
4.597,-0.919,8.274,2.0,2017-05-19 10:51:57,46.98389670774486
4.75,-0.919,8.274,2.0,2017-05-19 10:51:58,51.642639892239764
4.597,-0.919,8.274,2.0,2017-05-19 10:52:01,48.58194988205304
4.597,-0.919,8.274,2.0,2017-05-19 10:52:03,48.4137114509106
4.597,-0.919,8.274,2.0,2017-05-19 10:52:04,49.75073971368914
4.597,-0.919,8.274,2.0,2017-05-19 10:52:05,51.31068672309931
4.597,-0.919,8.274,2.0,2017-05-19 10:52:06,48.73532228834959
4.75,-0.919,8.274,2.0,2017-05-19 10:52:07,48.783151369155846
4.597,-0.919,8.274,2.0,2017-05-19 10:52:09,47.91933687688062
4.75,-0.919,8.274,2.0,2017-05-19 10:52:10,50.32049030470105
4.597,-0.919,8.274,2.0,2017-05-19 10:52:11,50.95723725806615
4.597,-0.919,8.274,2.0,2017-05-19 10:52:12,48.37226013335908
4.597,-0.919,8.274,2.0,2017-05-19 10:52:13,49.12794829768478
4.75,-0.919,8.274,2.0,2017-05-19 10:52:14,48.841850048879614
4.75,-0.919,8.274,2.0,2017-05-19 10:52:15,50.34425911579066
4.75,-0.919,8.274,2.0,2017-05-19 10:52:16,49.662460389205435
4.75,-0.919,8.274,2.0,2017-05-19 10:52:17,49.12942619176806
4.597,-0.919,8.274,2.0,2017-05-19 10:52:18,47.852021532446756
4.75,-0.919,8.274,2.0,2017-05-19 10:52:19,50.18977018553787
4.597,-0.919,8.274,2.0,2017-05-19 10:52:20,51.02905542986078
4.597,-0.919,8.274,2.0,2017-05-19 10:52:21,49.87694650080226
4.597,-0.919,8.274,2.0,2017-05-19 10:52:23,48.470814868466746
4.75,-0.919,8.274,2.0,2017-05-19 10:52:24,48.7702860617103
4.597,-0.919,8.274,2.0,2017-05-19 10:52:25,49.57329314891912
4.597,-0.919,8.274,2.0,2017-05-19 10:52:26,50.329379939644255
4.597,-0.919,8.274,2.0,2017-05-19 10:52:27,49.34101518541092
4.75,-0.919,8.274,2.0,2017-05-19 10:52:28,49.82695847960844
4.597,-0.919,8.274,2.0,2017-05-19 10:52:30,49.77229371343343
4.597,-0.919,8.274,2.0,2017-05-19 10:52:31,49.66759209518398
4.597,-0.919,8.274,2.0,2017-05-19 10:52:32,49.500117553170504
4.597,-0.919,8.274,2.0,2017-05-19 10:52:33,48.82728652500329
4.597,-0.919,8.274,2.0,2017-05-19 10:52:35,49.98326633048019
4.597,-0.919,8.274,2.0,2017-05-19 10:52:36,50.1504681232231
4.597,-0.919,8.274,2.0,2017-05-19 10:52:37,46.255212827547034
4.597,-0.919,8.274,2.0,2017-05-19 10:52:38,49.51666151462108
4.75,-0.919,8.274,2.0,2017-05-19 10:52:39,49.42206666304517
4.597,-0.919,8.274,2.0,2017-05-19 10:52:41,49.53161067692533
4.597,-0.919,8.274,2.0,2017-05-19 10:52:42,50.822240028297614
4.75,-0.919,8.274,2.0,2017-05-19 10:52:43,50.616934866377164
4.75,-0.919,8.274,2.0,2017-05-19 10:52:44,49.498774755569734
4.597,-0.919,8.274,2.0,2017-05-19 10:52:46,48.73836256450712
4.75,-0.919,8.274,0.0,2017-05-19 10:52:47,48.55872765575093
4.597,-0.919,8.274,2.0,2017-05-19 10:52:48,47.43964766276744
4.597,-0.919,8.274,2.0,2017-05-19 10:52:49,49.10995050938023
4.75,-0.919,8.274,2.0,2017-05-19 10:52:50,47.414441909053224
4.597,-0.919,8.274,2.0,2017-05-19 10:52:52,50.622612093507755
4.597,-0.919,8.274,2.0,2017-05-19 10:52:53,50.04172839022003
4.597,-0.919,8.274,0.0,2017-05-19 10:52:54,49.94748661374382
4.75,-0.919,8.274,2.0,2017-05-19 10:52:55,46.6319798080921
4.75,-0.919,8.274,2.0,2017-05-19 10:52:56,51.537853389353444
4.597,-0.919,8.274,2.0,2017-05-19 10:52:58,49.965389241534616
4.597,-0.919,8.274,2.0,2017-05-19 10:52:59,51.263787031982716
4.597,-0.919,8.274,2.0,2017-05-19 10:53:00,48.583722004944065
4.597,-0.919,8.274,2.0,2017-05-19 10:53:02,49.64070380868111
4.597,-0.919,8.274,2.0,2017-05-19 10:53:03,49.48966485077061
4.597,-0.919,8.274,2.0,2017-05-19 10:53:04,48.244212994301094
4.597,-0.919,8.274,2.0,2017-05-19 10:53:05,47.65010072668492
4.75,-0.919,8.274,2.0,2017-05-19 10:53:06,48.257485339317626
4.597,-0.919,8.274,2.0,2017-05-19 10:53:07,49.74909882065301
4.597,-0.919,8.274,2.0,2017-05-19 10:53:08,49.10569180888244
4.597,-0.919,8.274,2.0,2017-05-19 10:53:09,46.49469063938129
4.597,-0.919,8.274,2.0,2017-05-19 10:53:11,50.1463920275242
4.597,-0.919,8.274,2.0,2017-05-19 10:53:12,50.36078493613108
4.75,-0.919,8.274,2.0,2017-05-19 10:53:13,48.879472380785856
4.597,-0.919,8.274,2.0,2017-05-19 10:53:14,50.04391725940138
4.597,-0.919,8.274,2.0,2017-05-19 10:53:15,45.638926394705464
4.597,-0.919,8.274,2.0,2017-05-19 10:53:16,47.43940880942284
4.597,-0.919,8.274,2.0,2017-05-19 10:53:17,46.11619267948504
4.75,-0.919,8.274,2.0,2017-05-19 10:53:18,47.60251507581102
4.597,-0.919,8.274,2.0,2017-05-19 10:53:19,48.59905481055208
4.597,-0.919,8.274,2.0,2017-05-19 10:53:21,48.09381457404999
4.597,-0.919,8.274,2.0,2017-05-19 10:53:22,46.528732093377904
4.597,-0.919,8.274,2.0,2017-05-19 10:53:23,48.784735019697784
4.597,-0.919,8.274,2.0,2017-05-19 10:53:24,48.0921902599317
4.597,-0.919,8.274,2.0,2017-05-19 10:53:25,49.424282777308655
4.597,-0.919,8.274,2.0,2017-05-19 10:53:26,47.09534793484289
4.75,-0.919,8.274,2.0,2017-05-19 10:53:27,49.37580480324754
4.75,-0.919,8.274,2.0,2017-05-19 10:53:28,48.901998328144664
4.597,-0.919,8.274,2.0,2017-05-19 10:53:29,50.14019921775993
4.75,-0.919,8.274,2.0,2017-05-19 10:53:30,51.040906836675994
4.597,-0.919,8.274,2.0,2017-05-19 10:53:31,49.75341723274225
4.597,-0.919,8.274,2.0,2017-05-19 10:53:32,49.091172176688076
4.597,-0.919,8.274,2.0,2017-05-19 10:53:34,49.90886484209203
4.597,-0.919,8.274,2.0,2017-05-19 10:53:35,50.67372550077134
4.75,-0.919,8.274,2.0,2017-05-19 10:53:36,50.19857685227403
4.597,-0.919,8.274,2.0,2017-05-19 10:53:37,47.73118267445654
4.597,-0.919,8.274,2.0,2017-05-19 10:53:38,47.43255527124865
4.597,-0.919,8.274,2.0,2017-05-19 10:53:40,49.60933306879753
4.597,-0.919,8.274,2.0,2017-05-19 10:53:41,51.22118222735361
4.597,-0.919,8.274,2.0,2017-05-19 10:53:42,50.60139377627955
4.597,-0.919,8.274,2.0,2017-05-19 10:53:43,48.24979827856588
4.597,-0.919,8.274,2.0,2017-05-19 10:53:44,49.28284575648068
4.75,-0.919,8.274,2.0,2017-05-19 10:53:45,46.80777233204494
4.597,-0.919,8.274,2.0,2017-05-19 10:53:46,50.01939348406749
4.597,-0.919,8.274,2.0,2017-05-19 10:53:48,50.2008066698864
4.597,-0.919,8.274,2.0,2017-05-19 10:53:49,50.27918901918725
4.597,-0.919,8.274,2.0,2017-05-19 10:53:50,48.83277958442647
4.75,-0.919,8.274,2.0,2017-05-19 10:53:51,49.18219922242453
4.597,-0.919,8.274,2.0,2017-05-19 10:53:52,50.75870269518411
4.597,-0.919,8.274,2.0,2017-05-19 10:53:53,48.57643196103755
4.597,-0.919,8.274,2.0,2017-05-19 10:53:54,49.20531851130784
4.597,-0.919,8.274,2.0,2017-05-19 10:53:56,50.226665002242385
4.597,-0.919,8.274,2.0,2017-05-19 10:53:57,50.11866990410421
4.597,-0.919,8.274,2.0,2017-05-19 10:53:58,50.63627355983926
4.597,-0.919,8.274,2.0,2017-05-19 10:53:59,49.34805158081174
4.597,-0.919,8.274,2.0,2017-05-19 10:54:01,48.85873585207407
4.597,-0.919,8.274,2.0,2017-05-19 10:54:02,48.3951483279006
4.597,-0.919,8.274,2.0,2017-05-19 10:54:03,50.71935646722943
4.75,-0.919,8.274,2.0,2017-05-19 10:54:05,49.46685255044149
4.597,-0.919,8.274,2.0,2017-05-19 10:54:06,48.229094137160295
4.597,-0.919,8.274,2.0,2017-05-19 10:54:07,49.665949231170366
4.597,-0.919,8.274,2.0,2017-05-19 10:54:08,46.195635507899695
4.597,-0.919,8.274,2.0,2017-05-19 10:54:09,48.92550494328658
4.597,-0.919,8.274,2.0,2017-05-19 10:54:11,48.25004947394436
4.597,-0.919,8.274,2.0,2017-05-19 10:54:12,46.50811751518046
4.597,-0.919,8.274,2.0,2017-05-19 10:54:13,49.29618256257325
4.75,-0.919,8.274,2.0,2017-05-19 10:54:14,47.04070956845704
4.75,-0.919,8.274,2.0,2017-05-19 10:54:15,49.35240977304802
4.597,-0.919,8.274,2.0,2017-05-19 10:54:16,49.13043720620479
4.75,-0.919,8.274,2.0,2017-05-19 10:54:17,48.67703262103707
4.597,-0.919,8.274,2.0,2017-05-19 10:54:18,51.77696093663798
4.597,-0.919,8.274,2.0,2017-05-19 10:54:19,51.73884194571637
4.597,-0.919,8.274,2.0,2017-05-19 10:54:21,48.10492655407173
4.75,-0.919,8.274,2.0,2017-05-19 10:54:22,47.93037309973134
4.75,-0.919,8.274,2.0,2017-05-19 10:54:23,48.1403149795776
4.75,-0.919,8.274,2.0,2017-05-19 10:54:24,46.37137128673193
4.597,-0.919,8.274,2.0,2017-05-19 10:54:25,46.70105212386056
4.75,-0.919,8.274,2.0,2017-05-19 10:54:26,47.756677570812094
4.597,-0.919,8.274,2.0,2017-05-19 10:54:28,48.64352270521712
4.597,-0.919,8.274,2.0,2017-05-19 10:54:29,48.48359644195458
4.597,-0.919,8.274,2.0,2017-05-19 10:54:31,47.11695874099844
4.597,-0.919,8.274,2.0,2017-05-19 10:54:32,45.49623857982049
4.597,-0.919,8.274,2.0,2017-05-19 10:54:33,45.6012136375963
4.597,-0.919,8.274,2.0,2017-05-19 10:54:35,50.78895388483772
4.597,-0.919,8.274,2.0,2017-05-19 10:54:36,46.7655301260261
4.597,-0.919,8.274,2.0,2017-05-19 10:54:37,50.24489028542562
4.597,-0.919,8.274,2.0,2017-05-19 10:54:38,49.402378799713404
4.597,-0.919,8.274,2.0,2017-05-19 10:54:39,46.98915578398559
4.597,-0.919,8.274,2.0,2017-05-19 10:54:40,47.84610740727046
4.597,-0.919,8.274,2.0,2017-05-19 10:54:42,48.54027400355619
4.597,-0.919,8.274,2.0,2017-05-19 10:54:43,50.84441254809452
4.597,-0.919,8.274,2.0,2017-05-19 10:54:44,48.58942693089341
4.597,-0.919,8.274,2.0,2017-05-19 10:54:45,49.767044899457
4.597,-0.919,8.274,2.0,2017-05-19 10:54:46,49.384232740737204
4.597,-0.919,8.274,2.0,2017-05-19 10:54:48,47.53219726277103
4.597,-0.919,8.274,2.0,2017-05-19 10:54:49,51.99835914524135
4.597,-0.919,8.274,2.0,2017-05-19 10:54:51,46.815405033809334
4.597,-0.919,8.274,2.0,2017-05-19 10:54:52,49.609186653902064
4.597,-0.919,8.274,2.0,2017-05-19 10:54:54,48.66335917522892
4.75,-0.919,8.274,2.0,2017-05-19 10:54:55,46.899734193404086
4.597,-0.919,8.274,2.0,2017-05-19 10:54:56,48.9459152933605
4.597,-0.919,8.274,2.0,2017-05-19 10:54:57,47.01174875376509
4.597,-0.919,8.274,2.0,2017-05-19 10:54:59,46.06159357289808
4.75,-0.919,8.274,2.0,2017-05-19 10:55:00,48.4559455794411
4.597,-0.919,8.274,2.0,2017-05-19 10:55:01,48.2670508493436
4.597,-0.919,8.274,2.0,2017-05-19 10:55:02,62.2728092496084
4.597,-0.919,8.274,2.0,2017-05-19 10:55:03,60.736123922446595
4.75,-0.919,8.274,2.0,2017-05-19 10:55:04,56.74948693782348
4.597,-0.919,8.274,2.0,2017-05-19 10:55:05,51.127293072407305
4.597,-0.919,8.274,2.0,2017-05-19 10:55:06,51.31102673339015
4.75,-1.072,8.274,2.0,2017-05-19 10:55:07,46.68873466991911
4.75,-0.919,8.274,2.0,2017-05-19 10:55:08,48.08127761762573
4.597,-0.919,8.274,2.0,2017-05-19 10:55:09,50.2637824112083
4.597,-0.919,8.274,2.0,2017-05-19 10:55:11,52.781744461303795
4.597,-0.919,8.274,2.0,2017-05-19 10:55:12,51.74938742200634
4.597,-0.919,8.274,2.0,2017-05-19 10:55:13,52.159635996807395
4.597,-0.919,8.274,2.0,2017-05-19 10:55:14,46.85307871078532
4.597,-0.919,8.274,2.0,2017-05-19 10:55:15,53.51386753141974
4.75,-0.919,8.274,2.0,2017-05-19 10:55:16,56.14220439375024
4.597,-0.919,8.274,2.0,2017-05-19 10:55:18,52.29069748859935
4.75,-0.919,8.274,2.0,2017-05-19 10:55:19,48.68545935965415
4.597,-0.919,8.274,2.0,2017-05-19 10:55:20,49.93372859112831
4.75,-0.919,8.274,2.0,2017-05-19 10:55:21,55.14090120354371
4.597,-0.919,8.274,2.0,2017-05-19 10:55:22,62.1792927152056
4.75,-0.919,8.274,2.0,2017-05-19 10:55:23,58.275177406797184
4.597,-0.919,8.274,2.0,2017-05-19 10:55:24,54.47112985494792
4.597,-0.919,8.274,2.0,2017-05-19 10:55:25,50.62110208351682
4.597,-0.919,8.274,2.0,2017-05-19 10:55:26,47.850581602628004
4.597,-0.919,8.274,2.0,2017-05-19 10:55:28,51.08777383747651
4.597,-0.919,8.274,2.0,2017-05-19 10:55:29,50.60317394659697
4.597,-0.919,8.274,2.0,2017-05-19 10:55:30,49.31652900250664
4.597,-0.919,8.274,2.0,2017-05-19 10:55:31,48.50351788323109
4.597,-0.919,8.274,2.0,2017-05-19 10:55:32,48.9428504054207
4.597,-0.919,8.274,2.0,2017-05-19 10:55:33,50.429529566973486
4.597,-0.919,8.274,2.0,2017-05-19 10:55:35,49.321447799927725
4.75,-0.919,8.274,2.0,2017-05-19 10:55:36,49.109938181976545
4.597,-0.919,8.274,2.0,2017-05-19 10:55:37,47.77256927636451
4.597,-0.919,8.274,2.0,2017-05-19 10:55:38,47.78279009169648
4.75,-0.919,8.274,2.0,2017-05-19 10:55:39,47.23324399210149
4.597,-0.919,8.274,2.0,2017-05-19 10:55:41,49.35623979377898
4.597,-0.919,8.274,2.0,2017-05-19 10:55:42,48.36908038191265
4.597,-0.919,8.274,2.0,2017-05-19 10:55:43,47.40921607213327
4.75,-0.919,8.274,2.0,2017-05-19 10:55:44,48.51046119550196
4.597,-0.919,8.274,2.0,2017-05-19 10:55:45,45.82813741037957
4.597,-0.919,8.274,2.0,2017-05-19 10:55:46,48.83913529528797
4.597,-0.919,8.274,2.0,2017-05-19 10:55:47,49.425608681185686
4.75,-0.919,8.274,2.0,2017-05-19 10:55:48,52.58846613561305
4.597,-0.919,8.274,2.0,2017-05-19 10:55:49,47.85419020861742
4.597,-0.919,8.274,2.0,2017-05-19 10:55:51,47.77874254096041
4.597,-0.919,8.274,2.0,2017-05-19 10:55:52,49.60410585166436
4.75,-0.919,8.274,2.0,2017-05-19 10:55:53,50.61402018167865
4.597,-0.919,8.274,2.0,2017-05-19 10:55:54,50.42360945335336
4.597,-0.919,8.274,2.0,2017-05-19 10:55:55,50.57907249598824
4.597,-0.919,8.274,2.0,2017-05-19 10:55:56,50.881458712951556
4.597,-0.919,8.274,2.0,2017-05-19 10:55:57,50.988255269457134
4.75,-0.919,8.274,2.0,2017-05-19 10:55:58,47.36310979679281
4.75,-0.919,8.274,2.0,2017-05-19 10:55:59,51.11055495862655
4.597,-0.919,8.274,2.0,2017-05-19 10:56:01,49.7283001143855
4.597,-0.919,8.274,2.0,2017-05-19 10:56:02,49.717029587817656
4.75,-0.919,8.274,2.0,2017-05-19 10:56:03,54.65984232988096
4.597,-0.919,8.274,2.0,2017-05-19 10:56:04,52.168546251283125
4.597,-0.919,8.274,2.0,2017-05-19 10:56:06,46.84817460243935
4.597,-0.919,8.274,2.0,2017-05-19 10:56:07,46.21435203311833
4.597,-0.919,8.274,2.0,2017-05-19 10:56:08,47.55418273203379
4.597,-0.919,8.274,2.0,2017-05-19 10:56:09,48.078834822835034
4.597,-0.919,8.274,2.0,2017-05-19 10:56:10,47.73193066065802
4.597,-0.919,8.274,2.0,2017-05-19 10:56:11,47.99837377239215
4.597,-0.919,8.274,2.0,2017-05-19 10:56:12,49.2255275333508
4.75,-0.919,8.274,2.0,2017-05-19 10:56:13,48.45774353334711
4.597,-0.919,8.274,2.0,2017-05-19 10:56:15,48.938860908680894
4.75,-0.919,8.274,2.0,2017-05-19 10:56:16,48.77312771203526
4.75,-0.919,8.274,2.0,2017-05-19 10:56:17,46.22495115630847
4.597,-0.919,8.274,2.0,2017-05-19 10:56:18,46.695750439667975
4.597,-0.919,8.274,2.0,2017-05-19 10:56:19,47.357640239481555
4.597,-0.919,8.274,4.0,2017-05-19 10:56:21,42.79247258821847
4.597,-0.919,8.274,4.0,2017-05-19 10:56:22,49.30688720148246
4.597,-0.919,8.274,4.0,2017-05-19 10:56:24,49.700705446139196
4.597,-0.919,8.274,3.0,2017-05-19 10:56:25,47.724359736778595
4.597,-0.919,8.274,4.0,2017-05-19 10:56:26,52.57080017912397
