ACC_X,ACC_Y,ACC_Z,GYRO_X,GYRO_Y,GYRO_Z,LIGH_1,GRAV_X,GRAV_Y,GRAV_Z,LINACC_X,LINACC_Y,LINACC_Z,ROTVEC_X,ROTVEC_Y,ROTVEC_Z,TIME,VOICE
0.0,0.0,0.0,-0.015991472,1.1556504,1.282516,3000.0,0.0,0.0,0.0,0.0,0.0,0.0,0.0,0.0,0.0,2016-12-13 08:57:05,32.79461742970764
0.877,8.788,4.372,-0.69189763,-0.6684435,-0.081023455,5000.0,1.4855919,7.5712743,6.053032,-0.24748325,0.6292348,-2.1992772,0.40541634,-0.15603828,-0.15089639,2016-12-13 08:57:06,50.47624734086992
-0.123,4.616,9.261,-1.6066098,0.0053304904,1.0074627,5000.0,0.21477175,4.596691,8.6599455,0.95158875,0.116855145,0.6983299,0.23066576,-0.042923164,-0.13409221,2016-12-13 08:57:07,77.10809886719045
0.845,-0.722,8.038,0.2739872,0.51599145,0.7089552,800.0,-1.1520097,1.1595284,9.669476,0.78121495,-1.4201276,-2.2519517,0.05845809,0.059944674,0.047683086,2016-12-13 08:57:08,55.923525844671225
-0.877,0.383,10.28,-0.14605543,-0.104477614,-0.010660981,800.0,-0.52361864,0.8086611,9.759214,0.046281874,-0.4557462,0.14827919,0.0357853,0.035035856,0.1978817,2016-12-13 08:57:09,55.86906693558188
-0.915,0.456,10.087,0.0010660981,-0.0042643924,0.0010660981,800.0,-0.51607615,0.6346743,9.772473,0.030958235,-0.19197685,0.029445648,0.026538376,0.032221604,0.19763291,2016-12-13 08:57:10,76.66352887195177
-0.901,0.459,10.08,0.0010660981,0.0021321962,0.0,800.0,-0.5082266,0.5798676,9.77629,0.016524613,-0.11861509,0.036402702,0.023875635,0.031271234,0.19759272,2016-12-13 08:57:11,77.95080400278889
-0.903,0.474,10.067,0.0,-0.0031982942,0.0010660981,800.0,-0.5082266,0.5798676,9.77629,0.02729851,-0.11921364,0.023234367,0.023875635,0.031271234,0.19759272,2016-12-13 08:57:12,58.58591261320352
-0.894,0.461,10.117,0.0,0.0042643924,0.0021321962,800.0,-0.5082266,0.5798676,9.77629,0.039868057,-0.12579769,0.030417442,0.023875635,0.031271234,0.19759272,2016-12-13 08:57:13,74.5923290571769
-0.896,0.47,10.121,0.0010660981,-0.0021321962,0.0,800.0,-0.5082266,0.5798676,9.77629,0.047649235,-0.12819189,0.033410072,0.023875635,0.031271234,0.19759272,2016-12-13 08:57:14,71.18220594462838
-0.887,0.467,10.099,0.0010660981,-0.0010660981,0.0,800.0,-0.5082266,0.5798676,9.77629,0.047649235,-0.11262959,-0.012080193,0.023875635,0.031271234,0.19759272,2016-12-13 08:57:15,70.90105680501307
-0.884,0.462,10.081,0.0010660981,0.0010660981,0.0,800.0,-0.5082266,0.5798676,9.77629,0.041065156,-0.11681944,0.0022850037,0.023875635,0.031271234,0.19759272,2016-12-13 08:57:16,58.681438403813786
-0.889,0.469,10.112,0.0,0.0,0.0010660981,800.0,-0.5082266,0.5798676,9.77629,0.045853585,-0.12519914,0.0016870499,0.023875635,0.031271234,0.19759272,2016-12-13 08:57:17,73.81851322399798
-0.91,0.465,10.079,0.0,0.0,-0.0010660981,800.0,-0.5082266,0.5798676,9.77629,0.048247784,-0.12699479,0.026825905,0.023875635,0.031271234,0.19759272,2016-12-13 08:57:18,71.4244558699499
-0.894,0.47,10.212,-0.0010660981,-0.0042643924,-0.0010660981,800.0,-0.5082267,0.5819509,9.776167,0.061416,-0.115311444,0.07303715,0.02398,0.03129229,0.19758938,2016-12-13 08:57:19,59.143239371755115
-0.862,0.463,10.082,0.0010660981,0.0,0.0,800.0,-0.5016672,0.5795569,9.7766485,0.04946956,-0.109326124,-0.015431404,0.023926355,0.030939505,0.19758527,2016-12-13 08:57:20,65.18200850865368
-0.884,0.484,10.102,0.0,-0.0010660981,0.0010660981,800.0,-0.5016672,0.5795569,9.7766485,0.030315936,-0.11531162,0.006714821,0.023926355,0.030939505,0.19758527,2016-12-13 08:57:21,77.08307758667496
-0.867,0.476,10.092,0.0021321962,-0.0010660981,0.0,800.0,-0.5016672,0.5795569,9.7766485,0.037498564,-0.13147247,0.018087387,0.023926355,0.030939505,0.19758527,2016-12-13 08:57:22,62.20028868520678
-0.881,0.468,10.094,0.0,0.0010660981,-0.0010660981,800.0,-0.5016672,0.5795569,9.7766485,0.05545506,-0.11950147,0.025868416,0.023926355,0.030939505,0.19758527,2016-12-13 08:57:23,76.66049938935761
-0.862,0.462,10.092,0.0010660981,-0.0010660981,0.0010660981,800.0,-0.5016672,0.5795569,9.7766485,0.060243458,-0.107530475,-0.010044098,0.023926355,0.030939505,0.19758527,2016-12-13 08:57:25,57.17709268859919
-0.888,0.463,10.053,0.0010660981,0.0031982942,0.0,800.0,-0.50177234,0.58039045,9.776592,0.042990655,-0.13170749,0.004377365,0.023967048,0.030953193,0.19758406,2016-12-13 08:57:26,70.84141351648105
-0.863,0.468,10.091,0.0,0.0021321962,0.0,800.0,-0.50177234,0.58039045,9.776592,0.053764552,-0.12213069,-0.0010099411,0.023967048,0.030953193,0.19758406,2016-12-13 08:57:27,70.52008881855838
-0.876,0.459,10.112,0.0021321962,0.0,0.0010660981,800.0,-0.50177234,0.58039045,9.776592,0.047779053,-0.11913794,0.049268723,0.023967048,0.030953193,0.19758406,2016-12-13 08:57:28,55.64729403104862
-0.873,0.466,10.109,0.0,-0.0021321962,0.0,550.0,-0.50177234,0.58039045,9.776592,0.05496165,-0.12991184,-0.015375137,0.023967048,0.030953193,0.19758406,2016-12-13 08:57:29,76.17188228825245
-0.873,0.465,10.087,0.0010660981,0.0,0.0,800.0,-0.50177234,0.58039045,9.776592,0.065137,-0.12572199,0.021136284,0.023967048,0.030953193,0.19758406,2016-12-13 08:57:30,75.77253246721929
-0.875,0.46,10.115,0.0010660981,-0.0010660981,-0.0010660981,800.0,-0.50177234,0.58039045,9.776592,0.052567452,-0.13230604,0.004377365,0.023967048,0.030953193,0.19758406,2016-12-13 08:57:31,61.002744706013786
-0.881,0.46,10.097,0.0,0.0010660981,0.0010660981,800.0,-0.50177234,0.58039045,9.776592,0.06693265,-0.12572199,-0.008192062,0.023967048,0.030953193,0.19758406,2016-12-13 08:57:32,57.40625140111604
-0.866,0.468,10.096,0.0031982942,0.0,0.0010660981,800.0,-0.50177234,0.58039045,9.776592,0.0627428,-0.13589734,0.033107758,0.023967048,0.030953193,0.19758406,2016-12-13 08:57:33,77.66561863464429
-0.875,0.45,10.114,0.0,0.0010660981,0.0,800.0,-0.50177234,0.58039045,9.776592,0.051370353,-0.13350314,0.013954163,0.023967048,0.030953193,0.19758406,2016-12-13 08:57:34,58.50906701686774
-0.879,0.471,10.105,0.0,0.0010660981,0.0,800.0,-0.50177234,0.58039045,9.776592,0.0603486,-0.12871474,0.038495064,0.023967048,0.030953193,0.19758406,2016-12-13 08:57:35,67.45099095172867
-0.87,0.461,10.088,0.0010660981,0.0010660981,0.0,550.0,-0.50177234,0.58039045,9.776592,0.050173253,-0.12512344,0.02652359,0.023967048,0.030953193,0.19758406,2016-12-13 08:57:36,63.90191938451407
-0.868,0.47,10.082,0.0,0.0021321962,0.0,800.0,-0.50177234,0.58039045,9.776592,0.043589205,-0.12213069,0.06183815,0.023967048,0.030953193,0.19758406,2016-12-13 08:57:37,58.88416009802966
-0.855,0.466,10.097,0.0021321962,0.0010660981,0.0010660981,800.0,-0.50177234,0.58039045,9.776592,0.0543631,-0.11973649,0.018742561,0.023967048,0.030953193,0.19758406,2016-12-13 08:57:38,77.81122919891506
-0.873,0.466,10.073,0.0,0.0010660981,0.0,800.0,-0.50177234,0.58039045,9.776592,0.047779053,-0.12572199,0.015151024,0.023967048,0.030953193,0.19758406,2016-12-13 08:57:39,56.96992972759236
-0.868,0.457,10.102,0.0,0.0,0.0010660981,800.0,-0.50177234,0.58039045,9.776592,0.0675312,-0.13290459,0.02951622,0.023967048,0.030953193,0.19758406,2016-12-13 08:57:40,73.73853177783103
-0.844,0.46,10.099,0.0021321962,0.0010660981,0.0,800.0,-0.50177234,0.58039045,9.776592,0.0603486,-0.12093359,0.02053833,0.023967048,0.030953193,0.19758406,2016-12-13 08:57:41,77.36174926184279
-0.86,0.457,10.124,0.0010660981,0.0,0.0,800.0,-0.50177234,0.58039045,9.776592,0.06453845,-0.11794084,-0.0028057098,0.023967048,0.030953193,0.19758406,2016-12-13 08:57:42,76.87029995726479
-0.866,0.469,10.103,0.0010660981,-0.0010660981,0.0010660981,800.0,-0.50177234,0.58039045,9.776592,0.0675312,-0.13350314,-0.009987831,0.023967048,0.030953193,0.19758406,2016-12-13 08:57:43,79.71600001257377
-0.862,0.474,10.084,0.0,0.0010660981,0.0010660981,800.0,-0.50177234,0.58039045,9.776592,0.0615457,-0.12332779,0.02353096,0.023967048,0.030953193,0.19758406,2016-12-13 08:57:44,79.86984226905699
-0.857,0.452,10.09,0.0,0.0010660981,0.0,800.0,-0.50177234,0.58039045,9.776592,0.083692074,-0.12093359,0.011559486,0.023967048,0.030953193,0.19758406,2016-12-13 08:57:45,78.4610644757023
-0.866,0.46,10.102,0.0010660981,0.0,0.0,800.0,-0.50177234,0.58039045,9.776592,0.052567452,-0.13589734,0.03131199,0.023967048,0.030953193,0.19758406,2016-12-13 08:57:46,72.7255109732514
-0.87,0.462,10.096,0.0010660981,-0.0010660981,0.0,800.0,-0.50177234,0.58039045,9.776592,0.0675312,-0.13110894,0.006173134,0.023967048,0.030953193,0.19758406,2016-12-13 08:57:47,59.416271760489884
-0.859,0.442,10.085,0.0031982942,0.0,0.0,800.0,-0.50177234,0.58039045,9.776592,0.06094715,-0.15265676,0.036100388,0.023967048,0.030953193,0.19758406,2016-12-13 08:57:48,61.23978066124142
-0.854,0.466,10.084,0.0,0.0021321962,0.0,800.0,-0.50177234,0.58039045,9.776592,0.077706575,-0.12632054,0.021735191,0.023967048,0.030953193,0.19758406,2016-12-13 08:57:49,79.34029869430142
-0.858,0.465,10.087,0.0,0.0,0.0010660981,800.0,-0.50177234,0.58039045,9.776592,0.06453845,-0.12632054,-0.047696114,0.023967048,0.030953193,0.19758406,2016-12-13 08:57:50,56.82441053225733
-0.856,0.444,10.113,0.0010660981,0.0021321962,0.0010660981,800.0,-0.50177234,0.58039045,9.776592,0.0639399,-0.13709444,0.013355255,0.023967048,0.030953193,0.19758406,2016-12-13 08:57:51,76.98495309446275
-0.852,0.466,10.069,0.0,0.0,0.0010660981,800.0,-0.50177234,0.58039045,9.776592,0.06214425,-0.14068577,0.013355255,0.023967048,0.030953193,0.19758406,2016-12-13 08:57:52,78.48243303572312
-0.868,0.457,10.091,0.0031982942,0.0,0.0,800.0,-0.50177234,0.58039045,9.776592,0.052567452,-0.11973649,0.021735191,0.023967048,0.030953193,0.19758406,2016-12-13 08:57:53,76.86724867088473
-0.854,0.441,10.108,0.0010660981,0.0,0.0021321962,800.0,-0.50177234,0.58039045,9.776592,0.09027612,-0.13829154,0.037896156,0.023967048,0.030953193,0.19758406,2016-12-13 08:57:54,74.29344995003144
-0.866,0.451,10.09,0.0,0.0031982942,0.0,800.0,-0.50177234,0.58039045,9.776592,0.05735585,-0.13889009,0.009165764,0.023967048,0.030953193,0.19758406,2016-12-13 08:57:55,59.081627588576175
-0.851,0.463,10.072,0.0,0.0010660981,0.0010660981,800.0,-0.50177234,0.58039045,9.776592,0.07231963,-0.14547417,0.022932053,0.023967048,0.030953193,0.19758406,2016-12-13 08:57:56,80.61273378284157
-0.858,0.46,10.1,-0.0010660981,0.0021321962,0.0,800.0,-0.50177234,0.58039045,9.776592,0.0639399,-0.14667127,0.033107758,0.023967048,0.030953193,0.19758406,2016-12-13 08:57:57,61.53099718277174
-0.861,0.46,10.128,0.0010660981,0.0,0.0010660981,800.0,-0.50177234,0.58039045,9.776592,0.06334135,-0.12392634,0.006173134,0.023967048,0.030953193,0.19758406,2016-12-13 08:57:58,61.49541680816425
-0.848,0.457,10.161,-0.0010660981,0.0021321962,0.0,800.0,-0.50177234,0.58039045,9.776592,0.051968902,-0.13470024,0.009165764,0.023967048,0.030953193,0.19758406,2016-12-13 08:57:59,71.28452441367375
-0.851,0.464,10.1,0.0010660981,0.0,0.0,800.0,-0.50177234,0.58039045,9.776592,0.078903675,-0.12931329,-0.004002571,0.023967048,0.030953193,0.19758406,2016-12-13 08:58:00,80.4496862385134
-0.86,0.457,10.097,0.0021321962,0.0010660981,0.0010660981,800.0,-0.50177234,0.58039045,9.776592,0.077706575,-0.14188287,-0.0075941086,0.023967048,0.030953193,0.19758406,2016-12-13 08:58:01,57.95421117255814
-0.848,0.459,10.08,0.0010660981,0.0021321962,0.0,800.0,-0.50177234,0.58039045,9.776592,0.0687283,-0.12572199,0.007968903,0.023967048,0.030953193,0.19758406,2016-12-13 08:58:02,77.92447714558372
-0.86,0.462,10.06,0.0021321962,0.0,0.0,800.0,-0.50177234,0.58039045,9.776592,0.07052398,-0.13470024,-0.0075941086,0.023967048,0.030953193,0.19758406,2016-12-13 08:58:03,63.06345605094343
-0.86,0.459,10.075,0.0,0.0021321962,0.0,800.0,-0.50177234,0.58039045,9.776592,0.079502225,-0.12512344,-0.0034036636,0.023967048,0.030953193,0.19758406,2016-12-13 08:58:04,57.58996622302207
-0.85,0.453,10.094,0.0,0.0,0.0010660981,800.0,-0.50177234,0.58039045,9.776592,0.051968902,-0.14128432,-0.0022068024,0.023967048,0.030953193,0.19758406,2016-12-13 08:58:05,68.96184304017822
-0.876,0.448,10.1,0.0010660981,0.0,0.0010660981,800.0,-0.50177234,0.58039045,9.776592,0.05855295,-0.12332779,0.004377365,0.023967048,0.030953193,0.19758406,2016-12-13 08:58:06,58.258432637029344
-0.851,0.46,10.085,0.0031982942,0.0,0.0010660981,800.0,-0.50177234,0.58039045,9.776592,0.0687283,-0.12751764,0.02652359,0.023967048,0.030953193,0.19758406,2016-12-13 08:58:07,78.32961704532703
-0.844,0.456,10.071,0.0010660981,0.0,0.0,800.0,-0.50177234,0.58039045,9.776592,0.0687283,-0.13529879,0.043283463,0.023967048,0.030953193,0.19758406,2016-12-13 08:58:08,79.22059290956749
-0.849,0.441,10.076,0.0010660981,-0.0010660981,0.0,800.0,-0.50177234,0.58039045,9.776592,0.07351673,-0.14846691,-0.004600525,0.023967048,0.030953193,0.19758406,2016-12-13 08:58:09,76.8243694750571
-0.863,0.455,10.085,0.0,0.0010660981,0.0,800.0,-0.50177234,0.58039045,9.776592,0.0603486,-0.13470024,0.0049762726,0.023967048,0.030953193,0.19758406,2016-12-13 08:58:10,73.77588960202227
-0.857,0.457,10.067,-0.0010660981,0.0,0.0,800.0,-0.50177234,0.58039045,9.776592,0.076509476,-0.12811619,0.010961533,0.023967048,0.030953193,0.19758406,2016-12-13 08:58:11,80.1852531706893
-0.842,0.439,10.07,0.0,0.0,0.0010660981,800.0,-0.50177234,0.58039045,9.776592,0.06693265,-0.14667127,0.025326729,0.023967048,0.030953193,0.19758406,2016-12-13 08:58:12,80.57972389132357
-0.846,0.457,10.099,0.0010660981,0.0010660981,0.0,800.0,-0.50177234,0.58039045,9.776592,0.079502225,-0.13589734,0.02053833,0.023967048,0.030953193,0.19758406,2016-12-13 08:58:13,74.71154144624514
-0.858,0.441,10.094,0.0031982942,0.0,0.0,800.0,-0.50177234,0.58039045,9.776592,0.053166002,-0.13350314,-0.0063962936,0.023967048,0.030953193,0.19758406,2016-12-13 08:58:14,71.88540981655332
-0.846,0.47,10.066,0.0021321962,0.0,0.0,800.0,-0.50177234,0.58039045,9.776592,0.06453845,-0.14188287,-0.009987831,0.023967048,0.030953193,0.19758406,2016-12-13 08:58:16,67.27506401658296
-0.851,0.442,10.067,0.0010660981,0.0010660981,0.0,800.0,-0.50177234,0.58039045,9.776592,0.052567452,-0.12931329,0.027720451,0.023967048,0.030953193,0.19758406,2016-12-13 08:58:17,75.1553457756783
-0.854,0.453,10.084,0.0,-0.0010660981,0.0,800.0,-0.50177234,0.58039045,9.776592,0.07172108,-0.13051039,-0.006995201,0.023967048,0.030953193,0.19758406,2016-12-13 08:58:18,74.22851237701734
-0.833,0.441,10.087,0.0010660981,0.0010660981,0.0,800.0,-0.50177234,0.58039045,9.776592,0.08728337,-0.12332779,0.013954163,0.023967048,0.030953193,0.19758406,2016-12-13 08:58:19,73.94570996057931
-0.857,0.447,10.087,0.0,0.0010660981,0.0,800.0,-0.50177234,0.58039045,9.776592,0.081297874,-0.13470024,-0.008192062,0.023967048,0.030953193,0.19758406,2016-12-13 08:58:20,58.573603605282436
-0.831,0.441,10.104,0.0010660981,0.0,0.0010660981,800.0,-0.50177234,0.58039045,9.776592,0.09087467,-0.15205821,0.010362625,0.023967048,0.030953193,0.19758406,2016-12-13 08:58:21,79.01962086755334
-0.86,0.453,10.096,0.0,0.0031982942,0.0,800.0,-0.50177234,0.58039045,9.776592,0.0627428,-0.13709444,0.015151024,0.023967048,0.030953193,0.19758406,2016-12-13 08:58:22,75.39358012947794
-0.846,0.445,10.093,0.0,0.0010660981,0.0010660981,800.0,-0.50177234,0.58039045,9.776592,0.08788192,-0.14667127,0.028918266,0.023967048,0.030953193,0.19758406,2016-12-13 08:58:23,74.98690238707506
-0.837,0.445,10.078,0.0010660981,0.0,0.0,800.0,-0.50177234,0.58039045,9.776592,0.08608627,-0.14487562,-0.0028057098,0.023967048,0.030953193,0.19758406,2016-12-13 08:58:24,76.5927174805003
-0.853,0.459,10.069,0.0010660981,0.0,0.0010660981,800.0,-0.50177234,0.58039045,9.776592,0.083692074,-0.14128432,-0.0063962936,0.023967048,0.030953193,0.19758406,2016-12-13 08:58:25,57.79390933902029
-0.842,0.45,10.083,0.0010660981,0.0,0.0021321962,800.0,-0.50177234,0.58039045,9.776592,0.0591515,-0.14188287,-0.004002571,0.023967048,0.030953193,0.19758406,2016-12-13 08:58:26,80.29328815911154
-0.854,0.448,10.108,0.0,0.0021321962,0.0,800.0,-0.50177234,0.58039045,9.776592,0.0639399,-0.14786837,0.036100388,0.023967048,0.030953193,0.19758406,2016-12-13 08:58:27,77.49107942024948
-0.833,0.446,10.102,0.0,0.0010660981,0.0,800.0,-0.50177234,0.58039045,9.776592,0.09446597,-0.14966401,0.0025815964,0.023967048,0.030953193,0.19758406,2016-12-13 08:58:28,78.86039250600297
-0.836,0.456,10.109,0.0010660981,0.0,0.0,800.0,-0.50177234,0.58039045,9.776592,0.06453845,-0.13829154,0.019939423,0.023967048,0.030953193,0.19758406,2016-12-13 08:58:29,59.4563153616431
-0.866,0.441,10.077,0.0,0.0031982942,0.0,800.0,-0.50177234,0.58039045,9.776592,0.065137,-0.14547417,0.018742561,0.023967048,0.030953193,0.19758406,2016-12-13 08:58:30,71.12416406897484
-0.831,0.45,10.065,0.0,0.0021321962,0.0,800.0,-0.50177234,0.58039045,9.776592,0.07112253,-0.13709444,0.022334099,0.023967048,0.030953193,0.19758406,2016-12-13 08:58:31,78.24946304108167
-0.84,0.444,10.076,0.0021321962,0.0021321962,0.0,800.0,-0.50177234,0.58039045,9.776592,0.083093524,-0.14607272,-0.004002571,0.023967048,0.030953193,0.19758406,2016-12-13 08:58:32,78.54929031237438
-0.846,0.455,10.062,0.0,0.0010660981,0.0,800.0,-0.50177234,0.58039045,9.776592,0.083093524,-0.13470024,0.01455307,0.023967048,0.030953193,0.19758406,2016-12-13 08:58:33,77.6274074425588
-0.86,0.451,10.112,0.0,0.0010660981,0.0,800.0,-0.50177234,0.58039045,9.776592,0.08848047,-0.12751764,-0.0016078949,0.023967048,0.030953193,0.19758406,2016-12-13 08:58:34,60.32344497628506
-0.861,0.439,10.075,0.0021321962,0.0,0.0010660981,800.0,-0.50177234,0.58039045,9.776592,0.0591515,-0.13110894,0.0055742264,0.023967048,0.030953193,0.19758406,2016-12-13 08:58:35,75.40512143080736
-0.848,0.439,10.095,0.0,0.0042643924,0.0,800.0,-0.50177234,0.58039045,9.776592,0.075910926,-0.13589734,0.016946793,0.023967048,0.030953193,0.19758406,2016-12-13 08:58:36,71.08177493822056
-0.854,0.44,10.114,-0.0021321962,0.0021321962,0.0010660981,800.0,-0.50177234,0.58039045,9.776592,0.0615457,-0.14786837,-0.0051994324,0.023967048,0.030953193,0.19758406,2016-12-13 08:58:37,73.03393928420726
-0.851,0.471,10.06,0.0,0.0021321962,0.0,800.0,-0.50177234,0.58039045,9.776592,0.076509476,-0.13290459,-0.004600525,0.023967048,0.030953193,0.19758406,2016-12-13 08:58:38,75.2561559894326
-0.848,0.439,10.09,0.0021321962,0.0,0.0,800.0,-0.50177234,0.58039045,9.776592,0.075910926,-0.14367852,-0.00579834,0.023967048,0.030953193,0.19758406,2016-12-13 08:58:39,60.715701875999784
-0.843,0.435,10.073,0.0021321962,0.0010660981,0.0010660981,800.0,-0.50177234,0.58039045,9.776592,0.078903675,-0.13889009,-0.018367767,0.023967048,0.030953193,0.19758406,2016-12-13 08:58:40,69.07027499109982
-0.831,0.45,10.107,0.0021321962,0.0010660981,0.0021321962,800.0,-0.50177234,0.58039045,9.776592,0.09566307,-0.14068577,0.0049762726,0.023967048,0.030953193,0.19758406,2016-12-13 08:58:41,67.35132001475635
-0.846,0.438,10.104,0.0010660981,-0.0010660981,0.0010660981,800.0,-0.50177234,0.58039045,9.776592,0.081297874,-0.15026256,-0.009987831,0.023967048,0.030953193,0.19758406,2016-12-13 08:58:42,76.77389779665214
-0.846,0.443,10.088,0.0,0.0021321962,0.0,800.0,-0.50177234,0.58039045,9.776592,0.07172108,-0.13829154,1.8787384E-4,0.023967048,0.030953193,0.19758406,2016-12-13 08:58:43,60.086928531907105
-0.855,0.436,10.106,0.0,0.0010660981,0.0,800.0,-0.50177234,0.58039045,9.776592,0.08668482,-0.14607272,0.010961533,0.023967048,0.030953193,0.19758406,2016-12-13 08:58:44,72.16644480677736
-0.854,0.427,10.1,0.0010660981,0.0,0.0,800.0,-0.50177234,0.58039045,9.776592,0.0627428,-0.15744516,0.013954163,0.023967048,0.030953193,0.19758406,2016-12-13 08:58:45,69.63237204860772
-0.851,0.445,10.097,-0.0010660981,0.0,0.0010660981,800.0,-0.50177234,0.58039045,9.776592,0.06214425,-0.14966401,0.016347885,0.023967048,0.030953193,0.19758406,2016-12-13 08:58:46,61.25648507905801
-0.86,0.439,10.099,0.0010660981,0.0010660981,0.0,800.0,-0.50177234,0.58039045,9.776592,0.065137,-0.15445241,0.022334099,0.023967048,0.030953193,0.19758406,2016-12-13 08:58:47,78.26964125179913
-0.836,0.439,10.09,0.0010660981,0.0031982942,0.0,800.0,-0.50177234,0.58039045,9.776592,0.051370353,-0.15624806,-0.00879097,0.023967048,0.030953193,0.19758406,2016-12-13 08:58:48,72.50925606153643
-0.852,0.438,10.096,0.0,0.0010660981,0.0,800.0,-0.50177234,0.58039045,9.776592,0.09207177,-0.14487562,-0.006995201,0.023967048,0.030953193,0.19758406,2016-12-13 08:58:49,77.69611292483421
-0.837,0.446,10.092,0.0010660981,0.0,0.0,800.0,-0.50177234,0.58039045,9.776592,0.074713826,-0.14427707,-0.0010099411,0.023967048,0.030953193,0.19758406,2016-12-13 08:58:50,71.59515241856157
-0.855,0.446,10.091,0.0010660981,0.0021321962,0.0,800.0,-0.50177234,0.58039045,9.776592,0.076509476,-0.14188287,0.030713081,0.023967048,0.030953193,0.19758406,2016-12-13 08:58:51,74.69519425503256
-0.843,0.436,10.094,0.0,0.0010660981,0.0010660981,800.0,-0.50177234,0.58039045,9.776592,0.07231963,-0.15325531,0.009764671,0.023967048,0.030953193,0.19758406,2016-12-13 08:58:52,61.946227618612646
-0.832,0.436,10.102,0.0010660981,0.0,0.0010660981,800.0,-0.50177234,0.58039045,9.776592,0.0663341,-0.14607272,-0.021360397,0.023967048,0.030953193,0.19758406,2016-12-13 08:58:53,60.598595035309046
-0.848,0.442,10.094,0.0,0.0021321962,0.0,800.0,-0.50177234,0.58039045,9.776592,0.07411528,-0.14786837,0.013954163,0.023967048,0.030953193,0.19758406,2016-12-13 08:58:54,58.55291615075758
-0.849,0.435,10.09,0.0,-0.0021321962,0.0010660981,800.0,-0.50177234,0.58039045,9.776592,0.07351673,-0.13470024,-0.0016078949,0.023967048,0.030953193,0.19758406,2016-12-13 08:58:55,75.82928436243564
-0.848,0.448,10.067,0.0010660981,0.0,0.0,800.0,-0.50177234,0.58039045,9.776592,0.077706575,-0.16163501,0.036699295,0.023967048,0.030953193,0.19758406,2016-12-13 08:58:56,69.1111355498645
-0.836,0.454,10.079,0.0,-0.0010660981,0.0010660981,800.0,-0.50177234,0.58039045,9.776592,0.08907902,-0.15564951,0.03131199,0.023967048,0.030953193,0.19758406,2016-12-13 08:58:57,79.61075876243007
-0.849,0.426,10.09,0.0010660981,0.0,0.0010660981,800.0,-0.50177234,0.58039045,9.776592,0.08608627,-0.15864226,-0.0051994324,0.023967048,0.030953193,0.19758406,2016-12-13 08:58:58,60.36315167220225
-0.823,0.433,10.108,0.0021321962,0.0010660981,0.0010660981,800.0,-0.50177234,0.58039045,9.776592,0.08668482,-0.16941616,-0.0117836,0.023967048,0.030953193,0.19758406,2016-12-13 08:58:59,57.06573159800964
-0.845,0.433,10.093,0.0010660981,0.0,0.0010660981,800.0,-0.50177234,0.58039045,9.776592,0.081297874,-0.17240894,-0.029740334,0.023967048,0.030953193,0.19758406,2016-12-13 08:59:00,75.26588272212034
-0.848,0.44,10.084,0.0010660981,-0.0010660981,0.0010660981,800.0,-0.50177234,0.58039045,9.776592,0.09506452,-0.14068577,0.024727821,0.023967048,0.030953193,0.19758406,2016-12-13 08:59:01,70.42065247304406
-0.854,0.43,10.084,-0.0010660981,0.0021321962,0.0,800.0,-0.50177234,0.58039045,9.776592,0.07291818,-0.16462776,-0.006995201,0.023967048,0.030953193,0.19758406,2016-12-13 08:59:02,69.41526163660225
-0.852,0.438,10.083,0.0010660981,0.0,0.0,800.0,-0.50177234,0.58039045,9.776592,0.075910926,-0.15265676,-0.010586739,0.023967048,0.030953193,0.19758406,2016-12-13 08:59:03,78.85959398025992
-0.844,0.417,10.076,0.0021321962,-0.0042643924,0.0,800.0,-0.50177234,0.58039045,9.776592,0.08907902,-0.14667127,0.0175457,0.023967048,0.030953193,0.19758406,2016-12-13 08:59:04,63.10647640042869
-0.861,0.431,10.121,0.0,0.0010660981,0.0,800.0,-0.50177234,0.58039045,9.776592,0.075312376,-0.15684661,0.012158394,0.023967048,0.030953193,0.19758406,2016-12-13 08:59:05,72.16011478438561
-0.829,0.422,10.115,-0.0021321962,0.0031982942,0.0,800.0,-0.50177234,0.58039045,9.776592,0.075312376,-0.15924081,0.015749931,0.023967048,0.030953193,0.19758406,2016-12-13 08:59:06,72.03758993834555
-0.871,0.449,10.103,0.0031982942,0.0,0.0,800.0,-0.50177234,0.58039045,9.776592,0.065137,-0.16343066,0.013355255,0.023967048,0.030953193,0.19758406,2016-12-13 08:59:07,59.27815172414284
-0.84,0.427,10.104,0.0010660981,0.0042643924,0.0,800.0,-0.50177234,0.58039045,9.776592,0.082494974,-0.16103646,0.024727821,0.023967048,0.030953193,0.19758406,2016-12-13 08:59:08,70.40141843225128
-0.855,0.421,10.05,0.0,0.0021321962,0.0,800.0,-0.50177234,0.58039045,9.776592,0.08488917,-0.14966401,-0.028542519,0.023967048,0.030953193,0.19758406,2016-12-13 08:59:09,61.517778897713725
-0.851,0.412,10.073,0.0010660981,0.0021321962,0.0010660981,800.0,-0.50177234,0.58039045,9.776592,0.076509476,-0.17779589,-0.008192062,0.023967048,0.030953193,0.19758406,2016-12-13 08:59:10,71.5423385110907
-0.843,0.433,10.085,0.0021321962,0.0,0.0,800.0,-0.50177234,0.58039045,9.776592,0.075910926,-0.16821906,0.0031805038,0.023967048,0.030953193,0.19758406,2016-12-13 08:59:11,59.418222399356125
-0.819,0.427,10.105,0.0021321962,-0.0031982942,0.0,800.0,-0.50177234,0.58039045,9.776592,0.07231963,-0.15864226,-0.023156166,0.023967048,0.030953193,0.19758406,2016-12-13 08:59:12,74.05842444727945
-0.838,0.422,10.088,-0.0010660981,0.0021321962,0.0,800.0,-0.50177234,0.58039045,9.776592,0.081896424,-0.16343066,1.8787384E-4,0.023967048,0.030953193,0.19758406,2016-12-13 08:59:13,71.13409698155728
-0.826,0.446,10.093,0.0,-0.0021321962,0.0,800.0,-0.50177234,0.58039045,9.776592,0.077108026,-0.15924081,-0.0063962936,0.023967048,0.030953193,0.19758406,2016-12-13 08:59:14,76.35441399084665
-0.844,0.423,10.08,0.0,0.0010660981,0.0,800.0,-0.50177234,0.58039045,9.776592,0.080100775,-0.16941616,0.039093018,0.023967048,0.030953193,0.19758406,2016-12-13 08:59:15,78.09624178074702
-0.841,0.423,10.078,-0.0010660981,0.0031982942,0.0,800.0,-0.50177234,0.58039045,9.776592,0.083093524,-0.15325531,-0.011184692,0.023967048,0.030953193,0.19758406,2016-12-13 08:59:16,78.44289148510808
-0.863,0.43,10.091,0.0,0.0,0.0010660981,800.0,-0.50177234,0.58039045,9.776592,0.09985292,-0.15086111,0.0037784576,0.023967048,0.030953193,0.19758406,2016-12-13 08:59:17,81.47769843330153
-0.829,0.43,10.079,0.0,0.0010660981,0.0,800.0,-0.50177234,0.58039045,9.776592,0.08788192,-0.15804371,-0.032732964,0.023967048,0.030953193,0.19758406,2016-12-13 08:59:18,66.29106728267901
-0.838,0.42,10.085,0.0010660981,0.0010660981,0.0,800.0,-0.50177234,0.58039045,9.776592,0.06992543,-0.16522631,0.0013847351,0.023967048,0.030953193,0.19758406,2016-12-13 08:59:19,76.75999101818624
-0.846,0.423,10.083,-0.0010660981,0.0010660981,0.0,800.0,-0.50177234,0.58039045,9.776592,0.09446597,-0.17001471,-0.0010099411,0.023967048,0.030953193,0.19758406,2016-12-13 08:59:20,58.28394459956791
-0.857,0.412,10.088,0.0010660981,0.0021321962,0.0010660981,800.0,-0.50177234,0.58039045,9.776592,0.06932685,-0.17540169,0.027122498,0.023967048,0.030953193,0.19758406,2016-12-13 08:59:21,71.65419819340133
-0.854,0.429,10.087,0.0010660981,0.0,0.0010660981,800.0,-0.50177234,0.58039045,9.776592,0.080100775,-0.17181036,0.0055742264,0.023967048,0.030953193,0.19758406,2016-12-13 08:59:22,79.6694162902703
-0.842,0.417,10.074,-0.0010660981,0.0010660981,0.0,800.0,-0.50177234,0.58039045,9.776592,0.07411528,-0.16462776,-0.006995201,0.023967048,0.030953193,0.19758406,2016-12-13 08:59:24,59.406931496055726
-0.851,0.43,10.05,-0.0021321962,0.0031982942,0.0010660981,800.0,-0.50177234,0.58039045,9.776592,0.08488917,-0.16283211,0.0031805038,0.023967048,0.030953193,0.19758406,2016-12-13 08:59:25,76.51065503617795
-0.842,0.43,10.086,0.0010660981,-0.0010660981,0.0010660981,800.0,-0.50177234,0.58039045,9.776592,0.06932685,-0.16103646,-0.018367767,0.023967048,0.030953193,0.19758406,2016-12-13 08:59:26,74.01022655497097
-0.838,0.434,10.092,0.0,0.0010660981,0.0010660981,800.0,-0.50177234,0.58039045,9.776592,0.083692074,-0.16103646,0.015151024,0.023967048,0.030953193,0.19758406,2016-12-13 08:59:27,79.41814501073628
-0.845,0.424,10.093,0.0,0.0010660981,0.0010660981,800.0,-0.50177234,0.58039045,9.776592,0.07411528,-0.15684661,-0.0028057098,0.023967048,0.030953193,0.19758406,2016-12-13 08:59:28,80.52161157809678
-0.859,0.413,10.121,0.0,-0.0010660981,0.0,800.0,-0.50177234,0.58039045,9.776592,0.07411528,-0.16343066,0.0037784576,0.023967048,0.030953193,0.19758406,2016-12-13 08:59:29,71.1790186659437
-0.846,0.428,10.097,0.0031982942,-0.0010660981,0.0,800.0,-0.50177234,0.58039045,9.776592,0.083093524,-0.15804371,0.010362625,0.023967048,0.030953193,0.19758406,2016-12-13 08:59:30,78.76329021291015
-0.836,0.429,10.023,0.0010660981,0.0010660981,0.0,800.0,-0.50177234,0.58039045,9.776592,0.07231963,-0.17001471,0.025924683,0.023967048,0.030953193,0.19758406,2016-12-13 08:59:31,73.71096995065687
-0.836,0.421,10.102,0.0,0.0021321962,0.0,800.0,-0.50177234,0.58039045,9.776592,0.09566307,-0.15744516,-0.0010099411,0.023967048,0.030953193,0.19758406,2016-12-13 08:59:32,78.1525920764741
-0.839,0.414,10.099,0.0,0.0,0.0010660981,800.0,-0.50177234,0.58039045,9.776592,0.075910926,-0.16343066,-0.021959305,0.023967048,0.030953193,0.19758406,2016-12-13 08:59:33,61.43806180765659
-0.847,0.413,10.091,0.0021321962,-0.0010660981,0.0010660981,800.0,-0.50177234,0.58039045,9.776592,0.076509476,-0.16941616,-0.010586739,0.023967048,0.030953193,0.19758406,2016-12-13 08:59:34,69.51839073322411
-0.819,0.425,10.096,0.0,0.0021321962,0.0010660981,800.0,-0.50177234,0.58039045,9.776592,0.081896424,-0.17061326,0.049268723,0.023967048,0.030953193,0.19758406,2016-12-13 08:59:35,58.52382355039055
-0.855,0.44,10.08,0.0,0.0,0.0010660981,800.0,-0.50177234,0.58039045,9.776592,0.081896424,-0.15684661,-4.1103363E-4,0.023967048,0.030953193,0.19758406,2016-12-13 08:59:36,73.46102919835413
-0.827,0.431,10.075,0.0010660981,0.0021321962,0.0,800.0,-0.50177234,0.58039045,9.776592,0.08967757,-0.16762051,-0.014177322,0.023967048,0.030953193,0.19758406,2016-12-13 08:59:37,58.20236070695998
-0.843,0.434,10.058,0.0,0.0021321962,0.0010660981,800.0,-0.50177234,0.58039045,9.776592,0.08967757,-0.15924081,-0.038718224,0.023967048,0.030953193,0.19758406,2016-12-13 08:59:38,76.87637740827763
-0.835,0.419,10.107,-0.0010660981,0.0,0.0,800.0,-0.50177234,0.58039045,9.776592,0.09985292,-0.16043791,0.02951622,0.023967048,0.030953193,0.19758406,2016-12-13 08:59:39,74.8631377240867
-0.848,0.427,10.093,0.0021321962,-0.0010660981,0.0010660981,800.0,-0.50177234,0.58039045,9.776592,0.07231963,-0.16462776,0.010362625,0.023967048,0.030953193,0.19758406,2016-12-13 08:59:40,60.29549268600885
-0.841,0.438,10.111,0.0,-0.0010660981,0.0,800.0,-0.50177234,0.58039045,9.776592,0.0687283,-0.15864226,0.016347885,0.023967048,0.030953193,0.19758406,2016-12-13 08:59:41,69.99228264568858
-0.836,0.425,10.104,0.0010660981,-0.0010660981,0.0,800.0,-0.50177234,0.58039045,9.776592,0.075312376,-0.15924081,-0.026148796,0.023967048,0.030953193,0.19758406,2016-12-13 08:59:42,75.66463753715857
-0.826,0.426,10.071,0.0,0.0021321962,0.0,800.0,-0.50177234,0.58039045,9.776592,0.09686017,-0.16702196,0.02652359,0.023967048,0.030953193,0.19758406,2016-12-13 08:59:43,58.080416993051
-0.85,0.43,10.067,0.0,0.0021321962,0.0010660981,800.0,-0.50177234,0.58039045,9.776592,0.09027612,-0.15564951,-0.00579834,0.023967048,0.030953193,0.19758406,2016-12-13 08:59:44,72.88680939467415
-0.834,0.437,10.07,0.0021321962,0.0,0.0,800.0,-0.50177234,0.58039045,9.776592,0.08967757,-0.17300749,0.013355255,0.023967048,0.030953193,0.19758406,2016-12-13 08:59:45,57.49861321151239
-0.831,0.429,10.089,0.0,0.0,0.0010660981,800.0,-0.50177234,0.58039045,9.776592,0.07291818,-0.17061326,-0.020163536,0.023967048,0.030953193,0.19758406,2016-12-13 08:59:46,78.29006053561709
-0.829,0.428,10.117,0.0010660981,-0.0010660981,0.0,800.0,-0.50177234,0.58039045,9.776592,0.1016486,-0.16582486,-0.006995201,0.023967048,0.030953193,0.19758406,2016-12-13 08:59:47,79.92731618429899
-0.838,0.428,10.088,0.0,0.0,0.0010660981,800.0,-0.50177234,0.58039045,9.776592,0.08429062,-0.16283211,0.0037784576,0.023967048,0.030953193,0.19758406,2016-12-13 08:59:48,81.54665805418236
-0.833,0.417,10.081,0.0,0.0010660981,0.0,800.0,-0.50177234,0.58039045,9.776592,0.083093524,-0.17181036,0.016347885,0.023967048,0.030953193,0.19758406,2016-12-13 08:59:49,65.99682041169946
-0.849,0.426,10.109,0.0010660981,0.0010660981,0.0,800.0,-0.50177234,0.58039045,9.776592,0.0675312,-0.16283211,0.018143654,0.023967048,0.030953193,0.19758406,2016-12-13 08:59:50,60.76441008400961
-0.833,0.413,10.071,0.0,0.0021321962,0.0,800.0,-0.50177234,0.58039045,9.776592,0.09865582,-0.17420459,-0.006995201,0.023967048,0.030953193,0.19758406,2016-12-13 08:59:51,71.56509871354183
-0.824,0.413,10.051,0.0021321962,0.0,0.0,800.0,-0.50177234,0.58039045,9.776592,0.10045147,-0.17600024,0.013355255,0.023967048,0.030953193,0.19758406,2016-12-13 08:59:52,58.547283778160235
-0.858,0.427,10.089,0.0010660981,0.0,-0.0010660981,800.0,-0.50177234,0.58039045,9.776592,0.0639399,-0.16522631,-0.02375412,0.023967048,0.030953193,0.19758406,2016-12-13 08:59:53,79.20459150527581
-0.837,0.405,10.073,0.0010660981,0.0,0.0,800.0,-0.50177234,0.58039045,9.776592,0.10105002,-0.16343066,-0.0063962936,0.023967048,0.030953193,0.19758406,2016-12-13 08:59:54,61.11189291394687
-0.822,0.429,10.082,0.0010660981,0.0,-0.0010660981,800.0,-0.50177234,0.58039045,9.776592,0.09147322,-0.17360604,0.006173134,0.023967048,0.030953193,0.19758406,2016-12-13 08:59:55,60.472933717477446
-0.853,0.431,10.066,0.0010660981,0.0,0.0,800.0,-0.50177234,0.58039045,9.776592,0.082494974,-0.17420459,0.008566856,0.023967048,0.030953193,0.19758406,2016-12-13 08:59:56,71.93209914957804
-0.836,0.43,10.061,-0.0010660981,0.0,0.0010660981,800.0,-0.50177234,0.58039045,9.776592,0.09925437,-0.15564951,-0.012980461,0.023967048,0.030953193,0.19758406,2016-12-13 08:59:57,77.39393325223072
-0.821,0.421,10.067,0.0,0.0010660981,0.0,800.0,-0.50177234,0.58039045,9.776592,0.08548772,-0.17001471,-0.0051994324,0.023967048,0.030953193,0.19758406,2016-12-13 08:59:58,66.56927698507096
-0.827,0.424,10.069,0.0010660981,0.0,0.0,800.0,-0.50177234,0.58039045,9.776592,0.08548772,-0.15924081,-0.035725594,0.023967048,0.030953193,0.19758406,2016-12-13 08:59:59,69.28671218237562
-0.832,0.409,10.102,0.0010660981,0.0010660981,0.0,800.0,-0.50177234,0.58039045,9.776592,0.09566307,-0.16103646,0.007968903,0.023967048,0.030953193,0.19758406,2016-12-13 09:00:00,75.66948316120978
-0.832,0.419,10.061,0.0021321962,-0.0010660981,0.0,800.0,-0.50177234,0.58039045,9.776592,0.08429062,-0.17540169,0.018143654,0.023967048,0.030953193,0.19758406,2016-12-13 09:00:01,62.42619769572319
-0.842,0.411,10.088,0.0021321962,0.0,0.0,800.0,-0.50177234,0.58039045,9.776592,0.080699325,-0.17779589,1.8787384E-4,0.023967048,0.030953193,0.19758406,2016-12-13 09:00:02,71.65272298336737
-0.832,0.414,10.122,0.0,0.0,0.0010660981,800.0,-0.50177234,0.58039045,9.776592,0.09745872,-0.17061326,0.0067710876,0.023967048,0.030953193,0.19758406,2016-12-13 09:00:03,72.78734642120567
-0.832,0.41,10.087,0.0,0.0031982942,0.0010660981,800.0,-0.50177234,0.58039045,9.776592,0.080100775,-0.17540169,-0.0075941086,0.023967048,0.030953193,0.19758406,2016-12-13 09:00:04,74.69750446953884
-0.641,0.256,10.176,0.021321962,0.0074626864,-0.9765459,800.0,-0.5856699,0.5326417,9.774643,0.32381126,-0.13004714,-0.06370354,0.023636214,0.032759346,0.11266609,2016-12-13 09:00:05,67.70053815692422
-0.927,0.402,10.096,0.0,0.0021321962,0.0,800.0,-0.59596276,0.45987394,9.777717,0.091691256,-0.07523587,-0.003930092,0.022344423,0.03124027,0.03629427,2016-12-13 09:00:06,78.75047990380446
-0.898,0.392,10.078,0.0,-0.0010660981,0.0,800.0,-0.5833459,0.45177168,9.778855,0.112593174,-0.065936506,-0.017638206,0.021953955,0.03058109,0.036297865,2016-12-13 09:00:07,61.42903645747427
-0.908,0.403,10.087,0.0,0.0021321962,0.0,800.0,-0.5833459,0.45177168,9.778855,0.0868555,-0.064739406,-0.005068779,0.021953955,0.03058109,0.036297865,2016-12-13 09:00:08,76.38113629868543
-0.911,0.408,10.074,0.0031982942,-0.0021321962,0.0,800.0,-0.5833459,0.45177168,9.778855,0.109600425,-0.0743162,-0.0026741028,0.021953955,0.03058109,0.036297865,2016-12-13 09:00:09,73.92861703887351
-0.891,0.399,10.072,0.0010660981,0.0010660981,0.0,800.0,-0.5833459,0.45177168,9.778855,0.09164393,-0.068929255,-0.023024559,0.021953955,0.03058109,0.036297865,2016-12-13 09:00:10,74.72804742215348
-0.902,0.395,10.085,0.0010660981,0.0,-0.0042643924,800.0,-0.5833459,0.45177168,9.778855,0.09523523,-0.06354231,-0.0032730103,0.021953955,0.03058109,0.036297865,2016-12-13 09:00:11,79.73116714053333
-0.902,0.391,10.093,0.0,0.0010660981,0.0,800.0,-0.5834662,0.4516164,9.778855,0.11151636,-0.07416093,-0.017039299,0.021949885,0.030584011,0.036164936,2016-12-13 09:00:12,71.15688775126623
-0.893,0.405,10.05,0.0,0.0010660981,0.0010660981,800.0,-0.5834662,0.4516164,9.778855,0.09236276,-0.072963834,-0.0044698715,0.021949885,0.030584011,0.036164936,2016-12-13 09:00:13,63.20796411622759
-0.909,0.381,10.095,-0.0010660981,0.0021321962,0.0010660981,800.0,-0.58499706,0.44963154,9.778855,0.092098,-0.06140217,-0.012849808,0.021897903,0.030621251,0.034468547,2016-12-13 09:00:14,76.80900576930321
-0.915,0.389,10.058,0.0,0.0010660981,0.0010660981,800.0,-0.58499706,0.44963154,9.778855,0.09509075,-0.07397175,0.023661613,0.021897903,0.030621251,0.034468547,2016-12-13 09:00:15,78.58840560647778
-0.945,0.395,10.091,0.0021321962,0.0,0.0,800.0,-0.5851405,0.44944462,9.778854,0.059919715,-0.07079205,-0.018834114,0.021893011,0.030624745,0.03430902,2016-12-13 09:00:16,64.30572733799623
-0.912,0.393,10.106,0.0021321962,-0.0010660981,-0.0010660981,800.0,-0.5851405,0.44944462,9.778854,0.094037116,-0.057623953,-0.0068626404,0.021893011,0.030624745,0.03430902,2016-12-13 09:00:17,60.453700824960166
-0.924,0.401,10.045,0.0021321962,0.0010660981,-0.05010661,800.0,-0.5894171,0.44382122,9.778855,0.08514559,-0.06756285,-0.0122509,0.021746138,0.030729203,0.029527305,2016-12-13 09:00:18,70.74660620324036
-0.872,0.389,10.069,0.0,0.0010660981,0.0021321962,800.0,-0.5898658,0.44322455,9.778854,0.07063049,-0.07594445,-0.011651039,0.021730587,0.030740198,0.02902193,2016-12-13 09:00:19,74.44034438767014
-0.96,0.391,10.07,0.0,0.0010660981,0.0,800.0,-0.5904365,0.44246402,9.778854,0.069405556,-0.050643355,-0.012848854,0.021710776,0.030754194,0.028378304,2016-12-13 09:00:20,80.24880054115619
-0.931,0.383,10.085,0.0010660981,0.0010660981,0.0,800.0,-0.5904365,0.44246402,9.778854,0.074792504,-0.06500855,0.021867752,0.021710776,0.030754194,0.028378304,2016-12-13 09:00:21,79.6061589173924
-0.917,0.384,10.05,0.0010660981,0.0,0.0,800.0,-0.5904365,0.44246402,9.778854,0.08496791,-0.07937378,0.012290955,0.021710776,0.030754194,0.028378304,2016-12-13 09:00:22,75.34399084261777
-0.91,0.396,10.069,0.0,0.0010660981,0.0,800.0,-0.5904325,0.44066092,9.778936,0.10052621,-0.056621403,-0.02490139,0.021665797,0.030718202,0.026850095,2016-12-13 09:00:23,61.032921847344035
-0.911,0.4,10.084,0.0,0.0042643924,0.0,800.0,-0.5904325,0.44066092,9.778936,0.098132014,-0.054227203,-0.010536194,0.021665797,0.030718202,0.026850095,2016-12-13 09:00:24,78.55159912512978
-0.932,0.378,10.093,0.0,0.0,0.0010660981,800.0,-0.5904325,0.44066092,9.778936,0.098730564,-0.053628653,-0.00993824,0.021665797,0.030718202,0.026850095,2016-12-13 09:00:25,61.18321512858554
-0.93,0.383,10.079,0.0,0.0,0.0010660981,800.0,-0.5904325,0.44066092,9.778936,0.08077407,-0.063804,0.018792152,0.021665797,0.030718202,0.026850095,2016-12-13 09:00:26,74.62892684615865
-0.93,0.381,10.086,0.0,-0.0010660981,0.0,800.0,-0.5904325,0.44066092,9.778936,0.08376682,-0.063804,0.039143562,0.021665797,0.030718202,0.026850095,2016-12-13 09:00:27,57.767431190636586
-0.908,0.39,10.081,0.0,0.0,0.0010660981,800.0,-0.5904325,0.44066092,9.778936,0.10232186,-0.058417052,0.008617401,0.021665797,0.030718202,0.026850095,2016-12-13 09:00:28,70.95787471123157
-0.903,0.38,10.048,0.0010660981,0.0,0.0010660981,800.0,-0.5904325,0.44066092,9.778936,0.099927664,-0.07158518,-0.03268242,0.021665797,0.030718202,0.026850095,2016-12-13 09:00:29,60.791491555609554
-0.909,0.396,10.064,0.0,0.0031982942,0.0,800.0,-0.5904325,0.44066092,9.778936,0.08496392,-0.057219952,0.009215355,0.021665797,0.030718202,0.026850095,2016-12-13 09:00:31,79.55065020836768
-0.905,0.396,10.076,-0.0010660981,0.0,0.0010660981,800.0,-0.5904325,0.44066092,9.778936,0.10052621,-0.05961415,0.011610031,0.021665797,0.030718202,0.026850095,2016-12-13 09:00:32,58.93380495644248
-0.92,0.38,10.093,0.0021321962,0.0,0.0010660981,800.0,-0.5904325,0.44066092,9.778936,0.094540715,-0.06679678,0.019989967,0.021665797,0.030718202,0.026850095,2016-12-13 09:00:33,75.89745412727981
-0.912,0.398,10.045,0.0010660981,0.0,0.0010660981,800.0,-0.5904325,0.44066092,9.778936,0.096934915,-0.07697213,0.005624771,0.021665797,0.030718202,0.026850095,2016-12-13 09:00:34,76.43318892439643
-0.926,0.392,10.102,0.0010660981,0.0010660981,0.0,800.0,-0.5904325,0.44066092,9.778936,0.10172331,-0.0614098,0.014003754,0.021665797,0.030718202,0.026850095,2016-12-13 09:00:35,78.74014396824107
-0.928,0.386,10.08,0.0010660981,0.0,0.0,800.0,-0.5904325,0.44066092,9.778936,0.10411751,-0.05961415,0.008018494,0.021665797,0.030718202,0.026850095,2016-12-13 09:00:36,59.42603917784695
-0.903,0.393,10.093,0.0010660981,0.0021321962,0.0010660981,800.0,-0.5904325,0.44066092,9.778936,0.08017552,-0.07038808,-0.0021562576,0.021665797,0.030718202,0.026850095,2016-12-13 09:00:37,80.10178259949987
-0.916,0.401,10.067,0.0010660981,0.0010660981,0.0,800.0,-0.5904325,0.44066092,9.778936,0.11010301,-0.06081125,0.008018494,0.021665797,0.030718202,0.026850095,2016-12-13 09:00:38,78.39180233682416
-0.917,0.386,10.062,0.0,0.0010660981,0.0010660981,800.0,-0.5904325,0.44066092,9.778936,0.08376682,-0.049438804,0.0134058,0.021665797,0.030718202,0.026850095,2016-12-13 09:00:39,74.95914469684249
-0.922,0.401,10.039,0.0010660981,0.0,0.0010660981,800.0,-0.5904325,0.44066092,9.778936,0.093942136,-0.053628653,-0.009339333,0.021665797,0.030718202,0.026850095,2016-12-13 09:00:40,59.14260426530832
-0.918,0.397,10.064,0.0,0.0010660981,0.0,800.0,-0.5904325,0.44066092,9.778936,0.092146486,-0.0602127,-0.005747795,0.021665797,0.030718202,0.026850095,2016-12-13 09:00:41,75.5642276500088
-0.909,0.398,10.048,-0.0010660981,0.0010660981,0.0010660981,800.0,-0.5904325,0.44066092,9.778936,0.09094939,-0.051833004,0.011011124,0.021665797,0.030718202,0.026850095,2016-12-13 09:00:42,61.449309035297325
-0.914,0.386,10.078,0.0010660981,0.0010660981,0.0,800.0,-0.5904325,0.44066092,9.778936,0.097533464,-0.06739533,-0.004550934,0.021665797,0.030718202,0.026850095,2016-12-13 09:00:43,79.49047421849856
-0.909,0.377,10.041,0.0010660981,0.0010660981,0.0,800.0,-0.5904325,0.44066092,9.778936,0.10052621,-0.07457793,-0.018317223,0.021665797,0.030718202,0.026850095,2016-12-13 09:00:44,79.11243823055693
-0.924,0.375,10.108,0.0010660981,0.0,0.0,800.0,-0.5904325,0.44066092,9.778936,0.10471606,-0.063804,0.00742054,0.021665797,0.030718202,0.026850095,2016-12-13 09:00:45,75.68149170991504
-0.92,0.385,10.046,0.0021321962,0.0,0.0,800.0,-0.5904325,0.44066092,9.778936,0.09094939,-0.0614098,-0.02789402,0.021665797,0.030718202,0.026850095,2016-12-13 09:00:46,78.8374227965495
-0.932,0.386,10.078,0.0,0.0021321962,0.0010660981,800.0,-0.5904325,0.44066092,9.778936,0.10770881,-0.063804,0.019989967,0.021665797,0.030718202,0.026850095,2016-12-13 09:00:47,77.3553045061322
-0.917,0.39,10.08,0.0,0.0010660981,0.0,800.0,-0.5904325,0.44066092,9.778936,0.08855522,-0.06559968,0.003230095,0.021665797,0.030718202,0.026850095,2016-12-13 09:00:48,58.99487236511236
-0.925,0.386,10.054,0.0,0.0021321962,0.0,800.0,-0.5904325,0.44066092,9.778936,0.09094939,-0.059015602,-0.01891613,0.021665797,0.030718202,0.026850095,2016-12-13 09:00:49,79.90842163183179
-0.915,0.392,10.048,0.0,0.0010660981,-0.0021321962,800.0,-0.59127164,0.43953446,9.778937,0.09537983,-0.051903635,-0.014128685,0.021636505,0.030738842,0.02589776,2016-12-13 09:00:50,80.53834377408057
-0.93,0.371,10.087,0.0010660981,0.0,0.0,800.0,-0.5921737,0.43831828,9.778937,0.09508476,-0.06265849,0.00502491,0.021604905,0.030761056,0.024871211,2016-12-13 09:00:51,69.66105608132875
-0.917,0.379,10.079,-0.0010660981,0.0,0.0010660981,800.0,-0.5921737,0.43831828,9.778937,0.096281886,-0.072833836,-0.019515991,0.021604905,0.030761056,0.024871211,2016-12-13 09:00:52,61.54972160771447
-0.93,0.399,10.09,0.0010660981,0.0,0.0021321962,800.0,-0.5921737,0.43831828,9.778937,0.09209204,-0.079417884,0.0014333725,0.021604905,0.030761056,0.024871211,2016-12-13 09:00:53,59.81727633448095
-0.927,0.389,10.094,0.0,0.0021321962,0.0,800.0,-0.5921737,0.43831828,9.778937,0.08850074,-0.05667296,-0.015924454,0.021604905,0.030761056,0.024871211,2016-12-13 09:00:54,57.984910913218
-0.922,0.372,10.099,0.0021321962,0.0010660981,0.0010660981,800.0,-0.5921737,0.43831828,9.778937,0.08251524,-0.072833836,-0.008143425,0.021604905,0.030761056,0.024871211,2016-12-13 09:00:55,76.40972032391846
-0.926,0.383,10.053,0.0,0.0021321962,0.0010660981,800.0,-0.5921737,0.43831828,9.778937,0.09508476,-0.06924254,-0.005150795,0.021604905,0.030761056,0.024871211,2016-12-13 09:00:56,76.51547885902451
-0.941,0.393,10.072,0.0,0.0010660981,0.0,800.0,-0.5921737,0.43831828,9.778937,0.08670509,-0.05547586,-0.016522408,0.021604905,0.030761056,0.024871211,2016-12-13 09:00:57,58.464583083317486
-0.927,0.392,10.07,0.0,0.0021321962,0.0010660981,800.0,-0.5921737,0.43831828,9.778937,0.08670509,-0.05846861,0.007419586,0.021604905,0.030761056,0.024871211,2016-12-13 09:00:58,79.75243105131835
-0.917,0.383,10.088,0.0,0.0021321962,0.0,800.0,-0.5921737,0.43831828,9.778937,0.11543548,-0.06026426,0.009214401,0.021604905,0.030761056,0.024871211,2016-12-13 09:00:59,80.39695630683477
-0.927,0.375,10.098,0.0010660981,0.0,0.0,800.0,-0.5921737,0.43831828,9.778937,0.096281886,-0.06804544,-0.0075445175,0.021604905,0.030761056,0.024871211,2016-12-13 09:01:00,63.63643359097863
-0.931,0.379,10.079,0.0,0.0010660981,0.0,800.0,-0.5921737,0.43831828,9.778937,0.105260134,-0.06205991,0.011609077,0.021604905,0.030761056,0.024871211,2016-12-13 09:01:01,76.93754640873186
-0.922,0.395,10.07,0.0,0.0021321962,0.0,800.0,-0.592696,0.4376116,9.778935,0.083636105,-0.07152861,2.3841858E-4,0.021586556,0.030773934,0.024275396,2016-12-13 09:01:02,61.77612788121847
-0.939,0.383,10.065,0.0,0.0010660981,0.0,800.0,-0.592696,0.4376116,9.778935,0.081241906,-0.059557587,-0.0027542114,0.021586556,0.030773934,0.024275396,2016-12-13 09:01:03,59.8771971112463
-0.937,0.375,10.079,0.0010660981,0.0,0.0,800.0,-0.59486514,0.43465835,9.778935,0.07622838,-0.06737825,2.3841858E-4,0.02150996,0.03082752,0.021790987,2016-12-13 09:01:04,77.76332323657451
-0.91,0.399,10.075,0.0,0.0010660981,0.0,800.0,-0.59486514,0.43465835,9.778935,0.07443273,-0.06618115,0.014603615,0.02150996,0.03082752,0.021790987,2016-12-13 09:01:05,79.72485538570935
-0.936,0.393,10.091,0.0,0.0010660981,0.0,800.0,-0.59486514,0.43465835,9.778935,0.08819944,-0.06378695,-0.033280373,0.02150996,0.03082752,0.021790987,2016-12-13 09:01:06,78.54193375846556
-0.925,0.378,10.089,0.0,0.0,0.0010660981,800.0,-0.59486514,0.43465835,9.778935,0.090593636,-0.0679768,-0.030885696,0.02150996,0.03082752,0.021790987,2016-12-13 09:01:07,74.31392904988206
-0.911,0.383,10.076,0.0010660981,0.0021321962,0.0,800.0,-0.59486514,0.43465835,9.778935,0.091790736,-0.062589854,0.015202522,0.02150996,0.03082752,0.021790987,2016-12-13 09:01:08,60.85760924946704
-0.921,0.372,10.075,0.0,0.0021321962,0.0,800.0,-0.58864677,0.4289895,9.779561,0.06462306,-0.06589925,-0.0027809143,0.021266453,0.030476294,0.02051079,2016-12-13 09:01:09,80.95003751840767
-0.926,0.386,10.081,0.0021321962,0.0,0.0,800.0,-0.5717082,0.4169153,9.781091,0.05247289,-0.046642452,-0.0013179779,0.020667464,0.029598458,0.020511996,2016-12-13 09:01:10,58.495527876022024
-0.916,0.384,10.05,0.0,0.0010660981,0.0,800.0,-0.5708643,0.416304,9.781165,0.061804414,-0.03525722,-0.019349098,0.020637127,0.029554721,0.020512043,2016-12-13 09:01:11,72.47902727100778
-0.893,0.371,10.072,0.0010660981,0.0,0.0,800.0,-0.56784624,0.42041117,9.781163,0.07913703,-0.034576,-0.010967255,0.020743594,0.029480089,0.02411566,2016-12-13 09:01:12,74.07104387247679
0.109,0.405,11.126,-0.014925373,-0.08315565,0.80277187,800.0,-0.5718904,0.4414948,9.780001,0.16159129,0.08859101,-0.66402054,0.018999854,0.031587288,0.11556603,2016-12-13 09:01:13,60.28199885894221
-0.241,-0.558,10.096,0.0,0.0063965884,0.0010660981,550.0,0.14552936,-0.46318096,9.794624,0.034342214,-0.10746741,0.0019073486,-0.021922769,-0.011676278,0.18367188,2016-12-13 09:01:14,79.93787328761559
-0.256,-0.55,10.06,0.0,0.0,0.0010660981,550.0,0.15217139,-0.48614484,9.793411,0.019320488,-0.070736885,-0.02560997,-0.02294685,-0.012184555,0.18366434,2016-12-13 09:01:15,75.74895307693279
-0.246,-0.562,10.089,0.0,0.0021321962,0.0,800.0,0.15217139,-0.48614484,9.793411,0.022911787,-0.08570063,-0.008252144,-0.02294685,-0.012184555,0.18366434,2016-12-13 09:01:16,62.891621395241096
-0.231,-0.535,10.099,0.0010660981,-0.0031982942,0.0,800.0,0.15217139,-0.48614484,9.793411,0.017524838,-0.07612383,-0.029799461,-0.02294685,-0.012184555,0.18366434,2016-12-13 09:01:17,71.94336164193635
-0.258,-0.56,10.1,0.0010660981,0.0021321962,0.0010660981,550.0,0.15217139,-0.48614484,9.793411,0.0061523765,-0.08031368,-0.027405739,-0.02294685,-0.012184555,0.18366434,2016-12-13 09:01:18,71.56022907536135
-0.257,-0.55,10.091,0.0010660981,0.0031982942,0.0,550.0,0.15217139,-0.48614484,9.793411,0.011539325,-0.074926734,-0.0022659302,-0.02294685,-0.012184555,0.18366434,2016-12-13 09:01:19,78.64120322645475
-0.265,-0.547,10.072,0.0,-0.0021321962,0.0,550.0,0.15217139,-0.48614484,9.793411,-0.009409934,-0.066547036,-0.029201508,-0.02294685,-0.012184555,0.18366434,2016-12-13 09:01:20,58.72288940923471
-0.269,-0.56,10.106,0.0010660981,-0.0021321962,0.0010660981,550.0,0.15217139,-0.48614484,9.793411,0.007948026,-0.074926734,0.0037193298,-0.02294685,-0.012184555,0.18366434,2016-12-13 09:01:21,79.31671586321526
-0.264,-0.545,10.081,0.0010660981,-0.0031982942,0.0,550.0,0.15217139,-0.48614484,9.793411,0.0067509264,-0.073729634,-0.010645866,-0.02294685,-0.012184555,0.18366434,2016-12-13 09:01:22,60.19463050618658
-0.266,-0.552,10.073,0.0021321962,0.0042643924,0.0010660981,550.0,0.15217139,-0.48614484,9.793411,-0.005818635,-0.073131084,-0.021419525,-0.02294685,-0.012184555,0.18366434,2016-12-13 09:01:23,78.45174013957639
-0.245,-0.541,10.082,0.0010660981,0.0,0.0,550.0,0.1533185,-0.48614484,9.793393,0.02415888,-0.074926734,-0.021401405,-0.022936093,-0.012242104,0.18366568,2016-12-13 09:01:24,57.49975054247245
-0.269,-0.545,10.088,0.0010660981,-0.0021321962,0.0,550.0,0.1533185,-0.48614484,9.793393,0.002012521,-0.08091223,-0.023197174,-0.022936093,-0.012242104,0.18366568,2016-12-13 09:01:25,72.27307181205474
-0.266,-0.55,10.085,0.0021321962,0.0031982942,0.0010660981,550.0,0.1533185,-0.48614484,9.793393,-0.001578778,-0.074328184,-0.0022478104,-0.022936093,-0.012242104,0.18366568,2016-12-13 09:01:27,59.21063951851395
-0.263,-0.554,10.07,0.0,-0.0021321962,0.0010660981,550.0,0.1533185,-0.48614484,9.793393,0.00680092,-0.068941236,1.4591217E-4,-0.022936093,-0.012242104,0.18366568,2016-12-13 09:01:28,59.75034733281812
-0.256,-0.548,10.111,0.0,0.0021321962,0.0,550.0,0.1533185,-0.48614484,9.793393,-0.005170092,-0.08809483,0.010919571,-0.022936093,-0.012242104,0.18366568,2016-12-13 09:01:29,74.84827409643725
-0.282,-0.542,10.097,0.0010660981,0.0021321962,0.0,550.0,0.1533185,-0.48614484,9.793393,-0.0033744425,-0.08689773,-0.024992943,-0.022936093,-0.012242104,0.18366568,2016-12-13 09:01:30,80.2385923527037
-0.266,-0.557,10.094,0.0010660981,0.0010660981,0.0,550.0,0.1533185,-0.48614484,9.793393,-0.005170092,-0.072532535,-0.016613007,-0.022936093,-0.012242104,0.18366568,2016-12-13 09:01:31,74.98915910871636
-0.271,-0.562,10.099,0.0,0.0021321962,0.0,550.0,0.1533185,-0.48614484,9.793393,-0.005768642,-0.09108758,-0.0064382553,-0.022936093,-0.012242104,0.18366568,2016-12-13 09:01:32,73.7031891613328
-0.283,-0.547,10.082,0.0,0.0021321962,0.0,550.0,0.1533185,-0.48614484,9.793393,-0.009359941,-0.071335435,0.0013427734,-0.022936093,-0.012242104,0.18366568,2016-12-13 09:01:33,80.41039372074957
-0.268,-0.556,10.07,0.0010660981,0.0,0.0,550.0,0.1533185,-0.48614484,9.793393,0.010392219,-0.071933985,0.0025405884,-0.022936093,-0.012242104,0.18366568,2016-12-13 09:01:34,79.95449553137503
-0.284,-0.562,10.079,0.0,-0.0021321962,0.0010660981,550.0,0.1533185,-0.48614484,9.793393,-0.01594399,-0.07911658,-0.023197174,-0.022936093,-0.012242104,0.18366568,2016-12-13 09:01:35,73.38668985991148
-0.265,-0.547,10.087,0.0,0.0010660981,0.0010660981,550.0,0.1533185,-0.48614484,9.793393,2.168715E-4,-0.072532535,-0.007036209,-0.022936093,-0.012242104,0.18366568,2016-12-13 09:01:36,65.05550585356146
-0.271,-0.556,10.097,0.0010660981,-0.0010660981,0.0,550.0,0.1533185,-0.48614484,9.793393,2.168715E-4,-0.06355429,-0.0148181915,-0.022936093,-0.012242104,0.18366568,2016-12-13 09:01:37,58.98176028819666
-0.295,-0.552,10.088,0.0,0.0,0.0010660981,550.0,0.1533185,-0.48614484,9.793393,-0.024323702,-0.08151078,-0.024394989,-0.022936093,-0.012242104,0.18366568,2016-12-13 09:01:38,79.90801590204369
-0.28,-0.547,10.096,0.0,0.0010660981,0.0010660981,550.0,0.1533185,-0.48614484,9.793393,-0.008162841,-0.070138335,-0.012423515,-0.022936093,-0.012242104,0.18366568,2016-12-13 09:01:39,78.75691384466396
-0.288,-0.563,10.086,0.0,0.0010660981,0.0,550.0,0.1533185,-0.48614484,9.793393,-0.021330953,-0.07971513,-0.008831978,-0.022936093,-0.012242104,0.18366568,2016-12-13 09:01:40,79.37168752248363
-0.27,-0.546,10.119,0.0010660981,0.0021321962,0.0010660981,550.0,0.1533185,-0.48614484,9.793393,-0.005170092,-0.073131084,0.018102646,-0.022936093,-0.012242104,0.18366568,2016-12-13 09:01:41,70.7309241759098
-0.269,-0.549,10.1,0.0,0.0,0.0010660981,550.0,0.1533185,-0.48614484,9.793393,-0.010557041,-0.071335435,-0.0076351166,-0.022936093,-0.012242104,0.18366568,2016-12-13 09:01:42,74.15348113481078
-0.284,-0.547,10.087,0.0,0.0010660981,0.0,550.0,0.1533185,-0.48614484,9.793393,-0.01594399,-0.070736885,-0.010627747,-0.022936093,-0.012242104,0.18366568,2016-12-13 09:01:43,75.22689061628208
-0.275,-0.539,10.094,0.0,-0.0010660981,0.0,550.0,0.1533185,-0.48614484,9.793393,2.168715E-4,-0.08510208,-0.020204544,-0.022936093,-0.012242104,0.18366568,2016-12-13 09:01:44,62.383140390323284
-0.272,-0.547,10.087,0.0010660981,-0.0021321962,0.0,550.0,0.1533185,-0.48614484,9.793393,-0.020732403,-0.070138335,-0.0028467178,-0.022936093,-0.012242104,0.18366568,2016-12-13 09:01:45,76.70489865708993
-0.286,-0.549,10.107,0.0010660981,0.0031982942,0.0010660981,550.0,0.1533185,-0.48614484,9.793393,-0.015345439,-0.073729634,0.007926941,-0.022936093,-0.012242104,0.18366568,2016-12-13 09:01:46,68.70685530003685
-0.283,-0.546,10.066,0.0010660981,0.0,0.0,550.0,0.1533185,-0.48614484,9.793393,-0.027915,-0.06415284,-0.010627747,-0.022936093,-0.012242104,0.18366568,2016-12-13 09:01:47,80.695026293127
-0.272,-0.554,10.088,0.0,0.0,0.0010660981,550.0,0.1533185,-0.48614484,9.793393,-0.0075642914,-0.074926734,-0.005839348,-0.022936093,-0.012242104,0.18366568,2016-12-13 09:01:48,75.01241862817879
-0.286,-0.551,10.077,0.0,0.0031982942,-0.0010660981,550.0,0.15081356,-0.48614484,9.793432,-0.01164341,-0.05697024,-0.0118637085,-0.02295958,-0.012116435,0.18366276,2016-12-13 09:01:49,78.39068678922679
-0.282,-0.544,10.096,0.0,0.0010660981,0.0,550.0,0.15081356,-0.48614484,9.793432,-0.01164341,-0.08270788,-0.006477356,-0.02295958,-0.012116435,0.18366276,2016-12-13 09:01:50,57.88792395680928
-0.282,-0.536,10.08,0.0,0.0010660981,0.0010660981,550.0,0.15081356,-0.48614484,9.793432,-0.01164341,-0.073729634,0.006690979,-0.02295958,-0.012116435,0.18366276,2016-12-13 09:01:51,57.6993956876957
-0.295,-0.554,10.095,0.0010660981,-0.0021321962,0.0,550.0,0.15081356,-0.48614484,9.793432,-0.01224196,-0.068342686,-0.016652107,-0.02295958,-0.012116435,0.18366276,2016-12-13 09:01:52,59.7898576728014
-0.27,-0.546,10.079,0.0,0.0021321962,0.0010660981,550.0,0.15081356,-0.48614484,9.793432,-0.015833274,-0.07732093,-0.016054153,-0.02295958,-0.012116435,0.18366276,2016-12-13 09:01:53,59.677185715863075
-0.275,-0.552,10.081,0.0010660981,-0.0021321962,0.0,550.0,0.15081356,-0.48614484,9.793432,-0.020023122,-0.08091223,0.0013036728,-0.02295958,-0.012116435,0.18366276,2016-12-13 09:01:54,78.03726712771699
-0.278,-0.553,10.091,0.0010660981,-0.0010660981,0.0,550.0,0.15081356,-0.48614484,9.793432,-0.015833274,-0.066547036,-0.023236275,-0.02295958,-0.012116435,0.18366276,2016-12-13 09:01:55,78.18432885531608
-0.283,-0.547,10.099,0.0010660981,0.0,0.0,550.0,0.15081356,-0.48614484,9.793432,-0.022417322,-0.068342686,0.0019025803,-0.02295958,-0.012116435,0.18366276,2016-12-13 09:01:56,72.12282845247572
-0.269,-0.543,10.064,0.0,-0.0042643924,0.0,550.0,0.15081356,-0.48614484,9.793432,-0.031994127,-0.07971513,-0.0058784485,-0.02295958,-0.012116435,0.18366276,2016-12-13 09:01:57,68.07000360199666
-0.292,-0.557,10.1,0.0021321962,0.0021321962,0.0010660981,550.0,0.15081356,-0.48614484,9.793432,-0.00924921,-0.08570063,-0.0028858185,-0.02295958,-0.012116435,0.18366276,2016-12-13 09:01:58,78.95716119318392
-0.272,-0.547,10.078,0.0010660981,-0.0031982942,0.0,550.0,0.15185635,-0.4861448,9.793416,-0.0072992444,-0.06475142,-0.011847496,-0.022949802,-0.01216875,0.18366398,2016-12-13 09:01:59,76.71419656361115
-0.293,-0.551,10.088,0.0,0.0010660981,0.0010660981,550.0,0.15185635,-0.4861448,9.793416,-0.013883293,-0.08031371,-0.0094537735,-0.022949802,-0.01216875,0.18366398,2016-12-13 09:02:00,63.277559443108274
-0.276,-0.551,10.058,0.0010660981,0.0021321962,0.0,550.0,0.15185635,-0.4861448,9.793416,-0.018073156,-0.067744166,1.2302399E-4,-0.022949802,-0.01216875,0.18366398,2016-12-13 09:02:01,75.70807996476287
-0.274,-0.536,10.091,0.0,0.0021321962,0.0010660981,550.0,0.15185635,-0.4861448,9.793416,-0.013883293,-0.08031371,-0.011249542,-0.022949802,-0.01216875,0.18366398,2016-12-13 09:02:02,76.80083704807033
-0.272,-0.535,10.106,0.0,0.0010660981,0.0,550.0,0.15185635,-0.4861448,9.793416,-0.021664456,-0.08031371,-0.010052681,-0.022949802,-0.01216875,0.18366398,2016-12-13 09:02:03,74.67167341783903
-0.281,-0.55,10.089,0.0,0.0010660981,0.0,550.0,0.15185635,-0.4861448,9.793416,-0.020467356,-0.074926764,-0.0064611435,-0.022949802,-0.01216875,0.18366398,2016-12-13 09:02:04,58.508119418820215
-0.287,-0.548,10.1,0.0010660981,-0.0021321962,0.0010660981,550.0,0.15185635,-0.4861448,9.793416,-7.1519613E-4,-0.073131114,0.0067071915,-0.022949802,-0.01216875,0.18366398,2016-12-13 09:02:05,76.38109420228939
-0.291,-0.551,10.087,0.0,0.0,0.0010660981,550.0,0.15185635,-0.4861448,9.793416,-0.015678942,-0.07552531,-0.0070590973,-0.022949802,-0.01216875,0.18366398,2016-12-13 09:02:06,73.3571541941247
-0.291,-0.55,10.074,0.0010660981,0.0021321962,0.0010660981,550.0,0.15185635,-0.4861448,9.793416,-0.021664456,-0.07851806,7.2193146E-4,-0.022949802,-0.01216875,0.18366398,2016-12-13 09:02:07,75.97179565722351
-0.271,-0.556,10.077,0.0010660981,0.0,0.0010660981,550.0,0.15185635,-0.4861448,9.793416,-0.0067006946,-0.06295577,-0.005264282,-0.022949802,-0.01216875,0.18366398,2016-12-13 09:02:08,77.34238086273761
-0.283,-0.55,10.102,0.0021321962,0.0021321962,0.0010660981,550.0,0.15185635,-0.4861448,9.793416,-0.011489093,-0.08151081,-0.002869606,-0.022949802,-0.01216875,0.18366398,2016-12-13 09:02:09,75.35325378582242
-0.282,-0.536,10.063,0.0,0.0021321962,0.0010660981,550.0,0.15185635,-0.4861448,9.793416,-1.1663139E-4,-0.08869341,-4.7588348E-4,-0.022949802,-0.01216875,0.18366398,2016-12-13 09:02:10,75.72231757773986
-0.281,-0.553,10.085,0.0,0.0,0.0010660981,550.0,0.15185635,-0.4861448,9.793416,0.008861616,-0.08031371,0.0019187927,-0.022949802,-0.01216875,0.18366398,2016-12-13 09:02:11,74.45331810336026
-0.295,-0.551,10.07,0.0,0.0031982942,0.0,550.0,0.15185635,-0.4861448,9.793416,-0.025854304,-0.071335465,-0.01484108,-0.022949802,-0.01216875,0.18366398,2016-12-13 09:02:12,56.74142226735063
-0.278,-0.557,10.081,0.0,0.0042643924,0.0010660981,550.0,0.15122937,-0.4861448,9.793426,-0.025825873,-0.06415287,-0.022032738,-0.02295568,-0.012137295,0.18366325,2016-12-13 09:02:13,75.56177316639895
-0.268,-0.544,10.094,0.0021321962,-0.0010660981,0.0,550.0,0.15122937,-0.4861448,9.793426,-0.0012853146,-0.068342716,0.0066976547,-0.02295568,-0.012137295,0.18366325,2016-12-13 09:02:14,80.45455193274611
-0.284,-0.554,10.088,0.0,-0.0021321962,0.0010660981,550.0,0.15122937,-0.4861448,9.793426,-0.024628773,-0.08151081,0.0055007935,-0.02295568,-0.012137295,0.18366325,2016-12-13 09:02:15,74.79481816027943
-0.295,-0.557,10.082,0.0010660981,0.0,0.0,550.0,0.15122937,-0.4861448,9.793426,-0.024030223,-0.08749631,-0.014850616,-0.02295568,-0.012137295,0.18366325,2016-12-13 09:02:16,71.97769426582174
-0.293,-0.554,10.067,0.0,0.0010660981,0.0010660981,550.0,0.15122937,-0.4861448,9.793426,-0.03061428,-0.09288326,-0.040587425,-0.02295568,-0.012137295,0.18366325,2016-12-13 09:02:17,79.00090216936503
-0.294,-0.547,10.088,0.0,0.0010660981,0.0,550.0,0.15122937,-0.4861448,9.793426,-0.013854861,-0.069539815,-0.0076675415,-0.02295568,-0.012137295,0.18366325,2016-12-13 09:02:18,77.36842515081477
-0.298,-0.567,10.078,0.0,-0.0010660981,0.0010660981,550.0,0.15122937,-0.4861448,9.793426,-0.006672263,-0.071934015,-0.0076675415,-0.02295568,-0.012137295,0.18366325,2016-12-13 09:02:19,58.574194897533225
-0.272,-0.554,10.102,0.0,-0.0031982942,0.0010660981,550.0,0.15122937,-0.4861448,9.793426,-0.016249076,-0.070736915,-0.00946331,-0.02295568,-0.012137295,0.18366325,2016-12-13 09:02:20,77.326748859976
-0.283,-0.569,10.098,0.0010660981,0.0010660981,0.0010660981,550.0,0.15122937,-0.4861448,9.793426,-0.019241825,-0.09288326,-0.0046749115,-0.02295568,-0.012137295,0.18366325,2016-12-13 09:02:21,58.543094631853464
-0.277,-0.545,10.094,0.0,0.0031982942,0.0,550.0,0.15122937,-0.4861448,9.793426,-0.0090664625,-0.07612386,0.0013103485,-0.02295568,-0.012137295,0.18366325,2016-12-13 09:02:22,73.55255526688455
-0.295,-0.559,10.096,0.0021321962,-0.0021321962,0.0,550.0,0.15122937,-0.4861448,9.793426,-0.015650526,-0.08270791,-0.008864403,-0.02295568,-0.012137295,0.18366325,2016-12-13 09:02:23,60.46296175336836
-0.289,-0.553,10.082,0.0,0.0021321962,0.0010660981,550.0,0.15122937,-0.4861448,9.793426,-0.008467913,-0.071335465,0.001909256,-0.02295568,-0.012137295,0.18366325,2016-12-13 09:02:25,77.30756968977664
-0.287,-0.543,10.082,0.0,0.0010660981,0.0,550.0,0.15122937,-0.4861448,9.793426,-0.023431674,-0.08151081,-0.0046749115,-0.02295568,-0.012137295,0.18366325,2016-12-13 09:02:26,72.73568506441661
-0.286,-0.556,10.075,0.0,0.0021321962,0.0,550.0,0.15122937,-0.4861448,9.793426,-0.008467913,-0.08629921,-0.023229599,-0.02295568,-0.012137295,0.18366325,2016-12-13 09:02:27,74.30297351250209
-0.301,-0.562,10.089,0.0,0.0021321962,0.0,550.0,0.15122937,-0.4861448,9.793426,-0.015051961,-0.07971516,-0.019040108,-0.02295568,-0.012137295,0.18366325,2016-12-13 09:02:28,75.26485844890803
-0.291,-0.547,10.09,0.0010660981,0.0,0.0,550.0,0.15122937,-0.4861448,9.793426,-0.021037474,-0.071335465,-0.0076675415,-0.02295568,-0.012137295,0.18366325,2016-12-13 09:02:29,59.96324587004517
-0.29,-0.56,10.087,0.0,0.0021321962,0.0010660981,550.0,0.15122937,-0.4861448,9.793426,-0.016249076,-0.070736915,0.0013103485,-0.02295568,-0.012137295,0.18366325,2016-12-13 09:02:30,68.11876203996889
-0.283,-0.559,10.082,0.0,0.0010660981,0.0,550.0,0.15122937,-0.4861448,9.793426,-0.022234574,-0.07971516,0.0013103485,-0.02295568,-0.012137295,0.18366325,2016-12-13 09:02:31,75.83424837548128
-0.308,-0.551,10.088,0.0,0.0,0.0010660981,550.0,0.15122937,-0.4861448,9.793426,-0.016249076,-0.071934015,-0.024427414,-0.02295568,-0.012137295,0.18366325,2016-12-13 09:02:32,62.99874422791486
-0.294,-0.559,10.099,0.0,0.0021321962,0.0,550.0,0.15122937,-0.4861448,9.793426,-0.024030223,-0.08330646,0.0013103485,-0.02295568,-0.012137295,0.18366325,2016-12-13 09:02:33,78.89969580129932
-0.303,-0.556,10.088,0.0,0.0010660981,0.0010660981,550.0,0.15122937,-0.4861448,9.793426,-0.03300848,-0.08031371,-0.008864403,-0.02295568,-0.012137295,0.18366325,2016-12-13 09:02:34,79.29628633507195
-0.28,-0.551,10.081,0.0,0.0010660981,0.0,550.0,0.15122937,-0.4861448,9.793426,-0.017446175,-0.08091226,-0.005273819,-0.02295568,-0.012137295,0.18366325,2016-12-13 09:02:35,78.61869650528179
-0.301,-0.544,10.063,0.0,-0.0010660981,0.0,550.0,0.15122937,-0.4861448,9.793426,-0.012059212,-0.071335465,-0.011857033,-0.02295568,-0.012137295,0.18366325,2016-12-13 09:02:36,79.15732492514502
-0.283,-0.559,10.096,0.0010660981,0.0021321962,0.0010660981,550.0,0.15122937,-0.4861448,9.793426,-0.016249076,-0.08510211,-0.01245594,-0.02295568,-0.012137295,0.18366325,2016-12-13 09:02:37,78.81810134881594
-0.287,-0.56,10.079,0.0,-0.0010660981,0.0,550.0,0.15122937,-0.4861448,9.793426,-0.011460662,-0.07612386,0.0043029785,-0.02295568,-0.012137295,0.18366325,2016-12-13 09:02:38,75.93183075123486
-0.289,-0.555,10.088,0.0,0.0010660981,0.0,550.0,0.15122937,-0.4861448,9.793426,-0.024628773,-0.08749631,-0.020236969,-0.02295568,-0.012137295,0.18366325,2016-12-13 09:02:39,58.87619481889149
-0.289,-0.556,10.095,0.0,0.0031982942,0.0,800.0,0.15122937,-0.4861448,9.793426,-0.019241825,-0.07672241,-0.0106601715,-0.02295568,-0.012137295,0.18366325,2016-12-13 09:02:40,65.5065021681381
-0.293,-0.546,10.087,0.0010660981,0.0021321962,0.0,550.0,0.15122937,-0.4861448,9.793426,-0.015650526,-0.069539815,-0.00946331,-0.02295568,-0.012137295,0.18366325,2016-12-13 09:02:41,78.56975796225632
-0.273,-0.558,10.091,0.0010660981,-0.0031982942,0.0,550.0,0.15122937,-0.4861448,9.793426,-0.0012853146,-0.08091226,0.0013103485,-0.02295568,-0.012137295,0.18366325,2016-12-13 09:02:42,73.92100104016153
-0.307,-0.569,10.078,0.0010660981,0.0021321962,0.0,550.0,0.15060237,-0.4861448,9.793435,-0.03896554,-0.09228471,-0.03401375,-0.022961559,-0.012105839,0.18366252,2016-12-13 09:02:43,56.067305973182314
-0.283,-0.551,10.062,0.0021321962,0.0,0.0010660981,550.0,0.15206246,-0.4861448,9.793413,-0.021272019,-0.07612386,-0.02501297,-0.022947868,-0.012179091,0.18366423,2016-12-13 09:02:44,76.17533202486739
-0.274,-0.554,10.087,0.0,0.0021321962,0.0,550.0,0.15206246,-0.4861448,9.793413,-0.005111158,-0.07851806,-0.010647774,-0.022947868,-0.012179091,0.18366423,2016-12-13 09:02:45,76.96748007162606
-0.3,-0.557,10.088,0.0,-0.0010660981,0.0,550.0,0.15206246,-0.4861448,9.793413,-0.0015198588,-0.073729664,-0.011844635,-0.022947868,-0.012179091,0.18366423,2016-12-13 09:02:46,65.24801436719572
-0.283,-0.545,10.112,0.0,0.0010660981,0.0010660981,550.0,0.15206246,-0.4861448,9.793413,-0.0063082576,-0.07612386,-0.005859375,-0.022947868,-0.012179091,0.18366423,2016-12-13 09:02:47,72.2706403126766
-0.265,-0.555,10.09,0.0,0.0,-0.0010660981,550.0,0.15206246,-0.4861448,9.793413,-0.0027169585,-0.07911661,0.0067100525,-0.022947868,-0.012179091,0.18366423,2016-12-13 09:02:48,78.6615791857511
-0.278,-0.557,10.102,0.0,-0.0021321962,0.0010660981,550.0,0.15352155,-0.48614484,9.79339,-0.019139811,-0.074926734,-0.011821747,-0.022934187,-0.012252292,0.18366595,2016-12-13 09:02:49,77.75091182968738
-0.304,-0.56,10.088,0.0010660981,0.0,0.0,550.0,0.15352155,-0.48614484,9.79339,0.0012109131,-0.08629918,0.009126663,-0.022934187,-0.012252292,0.18366595,2016-12-13 09:02:50,61.41544611239852
-0.3,-0.548,10.092,0.0,0.0021321962,0.0010660981,550.0,0.15352155,-0.48614484,9.79339,-0.030512266,-0.074328184,-0.0028438568,-0.022934187,-0.012252292,0.18366595,2016-12-13 09:02:51,74.5478123564125
-0.286,-0.55,10.075,0.0010660981,0.0,0.0010660981,550.0,0.15352155,-0.48614484,9.79339,-0.016745597,-0.07791948,-0.017209053,-0.022934187,-0.012252292,0.18366595,2016-12-13 09:02:52,59.1775619060068
-0.289,-0.547,10.064,0.0,0.0010660981,0.0,550.0,0.15352155,-0.48614484,9.79339,-0.013752848,-0.069539785,-0.0022449493,-0.022934187,-0.012252292,0.18366595,2016-12-13 09:02:53,71.31711768219901
-0.277,-0.559,10.1,0.0,0.0031982942,0.0010660981,550.0,0.15352155,-0.48614484,9.79339,-0.016147047,-0.08689773,-0.016012192,-0.022934187,-0.012252292,0.18366595,2016-12-13 09:02:54,73.32270951938187
-0.281,-0.558,10.056,0.0,0.0010660981,0.0,550.0,0.15352155,-0.48614484,9.79339,-0.034103565,-0.071933985,-0.009428024,-0.022934187,-0.012252292,0.18366595,2016-12-13 09:02:55,75.09052493273504
-0.288,-0.566,10.096,0.0010660981,0.0,0.0021321962,550.0,0.15352155,-0.48614484,9.79339,-0.020336911,-0.08749628,-0.01780796,-0.022934187,-0.012252292,0.18366595,2016-12-13 09:02:56,79.76238495815956
-0.281,-0.56,10.091,0.0010660981,-0.0021321962,0.0,550.0,0.15352155,-0.48614484,9.79339,-0.013154298,-0.08151078,-0.043545723,-0.022934187,-0.012252292,0.18366595,2016-12-13 09:02:57,79.69445425781473
-0.282,-0.562,10.092,0.0010660981,0.0031982942,0.0,550.0,0.15352155,-0.48614484,9.79339,-0.02512531,-0.075525284,-0.019004822,-0.022934187,-0.012252292,0.18366595,2016-12-13 09:02:58,73.56871089198619
-0.272,-0.565,10.079,0.0010660981,0.0031982942,0.0,550.0,0.15352155,-0.48614484,9.79339,-0.0035775006,-0.08450353,-0.010624886,-0.022934187,-0.012252292,0.18366595,2016-12-13 09:02:59,79.01235097009454
-0.284,-0.552,10.083,0.0,0.0021321962,0.0,550.0,0.15352155,-0.48614484,9.79339,-0.002380401,-0.08031368,-0.005836487,-0.022934187,-0.012252292,0.18366595,2016-12-13 09:03:00,79.11587392560396
-0.265,-0.553,10.091,0.0021321962,0.0042643924,0.0,550.0,0.15352155,-0.48614484,9.79339,-0.035899214,-0.09168613,-0.02379322,-0.022934187,-0.012252292,0.18366595,2016-12-13 09:03:01,76.45999857497448
-0.272,-0.551,10.1,0.0010660981,0.0,0.0,550.0,0.15352155,-0.48614484,9.79339,-0.010161549,-0.070138335,-0.011223793,-0.022934187,-0.012252292,0.18366595,2016-12-13 09:03:02,60.59205759617723
-0.274,-0.554,10.093,0.0021321962,0.0021321962,0.0,550.0,0.15352155,-0.48614484,9.79339,-0.028118059,-0.074926734,-0.0046396255,-0.022934187,-0.012252292,0.18366595,2016-12-13 09:03:03,78.37489550985275
-0.298,-0.552,10.1,0.0,0.0031982942,0.0010660981,800.0,0.15352155,-0.48614484,9.79339,-0.019139811,-0.07672238,0.0037403107,-0.022934187,-0.012252292,0.18366595,2016-12-13 09:03:04,73.23980975970734
-0.293,-0.563,10.089,0.0,0.0010660981,0.0,800.0,0.15352155,-0.48614484,9.79339,-0.030512266,-0.09168613,-0.0034427643,-0.022934187,-0.012252292,0.18366595,2016-12-13 09:03:05,78.6730753955121
-0.276,-0.562,10.099,0.0010660981,0.0031982942,0.0,800.0,0.15352155,-0.48614484,9.79339,-0.031709366,-0.08929193,0.009725571,-0.022934187,-0.012252292,0.18366595,2016-12-13 09:03:06,75.32584274265919
-0.296,-0.548,10.062,0.0010660981,-0.0021321962,0.0,550.0,0.15352155,-0.48614484,9.79339,-0.017344147,-0.07672238,-0.010624886,-0.022934187,-0.012252292,0.18366595,2016-12-13 09:03:07,78.34786680841748
-0.278,-0.557,10.107,0.0010660981,0.0,0.0,550.0,0.15352155,-0.48614484,9.79339,-0.0071687996,-0.08869338,-0.0010480881,-0.022934187,-0.012252292,0.18366595,2016-12-13 09:03:08,78.04579185946882
-0.298,-0.56,10.094,0.0010660981,-0.0010660981,0.0,550.0,0.15352155,-0.48614484,9.79339,-0.031709366,-0.08390498,-0.014216423,-0.022934187,-0.012252292,0.18366595,2016-12-13 09:03:09,74.53479216608851
-0.283,-0.542,10.085,0.0,0.0010660981,0.0,550.0,0.15352155,-0.48614484,9.79339,-0.014351398,-0.07971513,-0.02558899,-0.022934187,-0.012252292,0.18366595,2016-12-13 09:03:10,57.74544370579218
-0.29,-0.553,10.085,0.0010660981,0.0,0.0010660981,550.0,0.15352155,-0.48614484,9.79339,-0.008365899,-0.08749628,0.0067329407,-0.022934187,-0.012252292,0.18366595,2016-12-13 09:03:11,78.8051400516492
-0.286,-0.548,10.096,0.0021321962,0.0,0.0010660981,550.0,0.15352155,-0.48614484,9.79339,-0.034103565,-0.06355429,0.0037403107,-0.022934187,-0.012252292,0.18366595,2016-12-13 09:03:12,78.42514966330606
-0.279,-0.566,10.101,0.0010660981,-0.0010660981,0.0010660981,550.0,0.15352155,-0.48614484,9.79339,-0.0071687996,-0.074926734,-0.017209053,-0.022934187,-0.012252292,0.18366595,2016-12-13 09:03:13,76.47912976195796
-0.336,-0.629,10.088,0.0,-0.0074626864,0.0010660981,550.0,0.15338689,-0.48618734,9.79339,-0.068684824,-0.15269578,-0.009428024,-0.022973845,-0.012052211,0.18393363,2016-12-13 09:03:14,60.649564890467076
-0.267,-0.558,10.09,0.0,0.0010660981,0.0,550.0,0.15074624,-0.4862298,9.793429,-0.001400739,-0.083221465,-0.00228405,-0.022961114,-0.012120225,0.18393523,2016-12-13 09:03:15,76.08172966269174
-0.292,-0.553,10.087,0.0010660981,-0.0021321962,0.0010660981,550.0,0.15074624,-0.4862298,9.793429,-0.027736954,-0.080827266,-0.024431229,-0.022961114,-0.012120225,0.18393523,2016-12-13 09:03:17,59.337550842596215
-0.294,-0.55,10.098,0.0,0.0010660981,0.0,550.0,0.15074624,-0.4862298,9.793429,-0.023547098,-0.07424322,7.0858E-4,-0.022961114,-0.012120225,0.18393523,2016-12-13 09:03:18,78.49780257344621
-0.297,-0.567,10.089,0.0010660981,0.0021321962,0.0010660981,550.0,0.15074624,-0.4862298,9.793429,-0.020554349,-0.07783452,-0.006474495,-0.022961114,-0.012120225,0.18393523,2016-12-13 09:03:19,77.90054653208887
-0.28,-0.553,10.085,0.0010660981,0.0,0.0,550.0,0.15074624,-0.4862298,9.793429,-0.010977536,-0.087411314,-0.02562809,-0.022961114,-0.012120225,0.18393523,2016-12-13 09:03:20,76.22631939004626
-0.295,-0.568,10.061,0.0010660981,0.0,0.0,550.0,0.15074624,-0.4862298,9.793429,-0.011576086,-0.07963017,-0.0016860962,-0.022961114,-0.012120225,0.18393523,2016-12-13 09:03:21,59.95545897066626
-0.295,-0.557,10.086,0.0,0.0,0.0010660981,550.0,0.15074624,-0.4862298,9.793429,-0.027736954,-0.089206964,-0.018445015,-0.022961114,-0.012120225,0.18393523,2016-12-13 09:03:22,77.43832901952129
-0.281,-0.563,10.076,-0.0010660981,0.0042643924,0.0,550.0,0.15074624,-0.4862298,9.793429,-0.010977536,-0.086812764,-0.020839691,-0.022961114,-0.012120225,0.18393523,2016-12-13 09:03:23,77.19152175283475
-0.278,-0.551,10.091,0.0010660981,0.0,0.0010660981,550.0,0.15074624,-0.4862298,9.793429,-0.007984787,-0.06825772,-0.023832321,-0.022961114,-0.012120225,0.18393523,2016-12-13 09:03:24,70.84657397583598
-0.283,-0.568,10.084,0.0010660981,0.0063965884,0.0,550.0,0.15053551,-0.48622975,9.79343,-0.012562454,-0.085615724,-0.0016870499,-0.022963092,-0.012109653,0.18393499,2016-12-13 09:03:25,74.32745083650236
-0.281,-0.58,10.086,0.0010660981,0.0,0.0,550.0,0.15053551,-0.48622975,9.79343,-0.011963904,-0.09818527,-0.0010881424,-0.022963092,-0.012109653,0.18393499,2016-12-13 09:03:26,61.21367845638673
-0.289,-0.566,10.085,0.0,-0.0021321962,0.0010660981,550.0,0.15053551,-0.48622975,9.79343,-0.0095697045,-0.07783458,-0.03879738,-0.022963092,-0.012109653,0.18393499,2016-12-13 09:03:27,76.85674359684053
-0.293,-0.546,10.085,0.0010660981,0.0,0.0,550.0,0.15053551,-0.48622975,9.79343,-0.018547967,-0.07304618,-0.01066494,-0.022963092,-0.012109653,0.18393499,2016-12-13 09:03:28,76.9393100846192
-0.28,-0.563,10.075,0.0,-0.0031982942,0.0,550.0,0.15053551,-0.48622975,9.79343,0.021554917,-0.083820075,0.007291794,-0.022963092,-0.012109653,0.18393499,2016-12-13 09:03:29,61.17430299250607
-0.289,-0.56,10.084,0.0,0.0,0.0010660981,550.0,0.15053551,-0.48622975,9.79343,-0.020343617,-0.083221525,-0.010066986,-0.022963092,-0.012109653,0.18393499,2016-12-13 09:03:30,75.81846246020356
-0.284,-0.566,10.09,0.0010660981,-0.0010660981,0.0,550.0,0.15053551,-0.48622975,9.79343,-0.013759553,-0.082622975,-0.005876541,-0.022963092,-0.012109653,0.18393499,2016-12-13 09:03:31,59.545385086946155
-0.28,-0.562,10.096,0.0010660981,0.0010660981,0.0,550.0,0.15053551,-0.48622975,9.79343,-0.016153768,-0.09339687,-0.01365757,-0.022963092,-0.012109653,0.18393499,2016-12-13 09:03:32,72.22489804497033
-0.298,-0.557,10.062,0.0,0.0021321962,0.0010660981,800.0,0.15372638,-0.50242233,9.792564,-0.007972181,-0.06583184,0.030901909,-0.023745166,-0.012422377,0.18395266,2016-12-13 09:03:33,60.141618402158
-0.294,-0.553,10.099,0.0,0.0021321962,0.0,800.0,0.15328783,-0.5039679,9.792493,-0.029081434,-0.055906594,0.003440857,-0.023826795,-0.012414948,0.18395351,2016-12-13 09:03:34,78.01381357485872
-0.308,-0.565,10.064,0.0,0.0,0.0010660981,800.0,0.15328783,-0.5039679,9.792493,-0.030278541,-0.07206744,-0.03127575,-0.023826795,-0.012414948,0.18395351,2016-12-13 09:03:35,69.75160324178759
-0.281,-0.546,10.097,0.0010660981,0.0,0.0,800.0,0.15328783,-0.5039679,9.792493,-0.015913323,-0.054110944,-0.0019464493,-0.023826795,-0.012414948,0.18395351,2016-12-13 09:03:36,75.6016066500888
-0.306,-0.544,10.088,0.0,0.0021321962,0.0,550.0,0.15328783,-0.5039679,9.792493,-0.023095936,-0.06428629,-0.008530617,-0.023826795,-0.012414948,0.18395351,2016-12-13 09:03:37,72.93973735323257
-0.28,-0.56,10.085,0.0,0.0021321962,0.0010660981,550.0,0.15328783,-0.5039679,9.792493,-0.038059697,-0.07206744,-0.009129524,-0.023826795,-0.012414948,0.18395351,2016-12-13 09:03:38,73.80551239011797
-0.286,-0.565,10.082,0.0010660981,0.0010660981,0.0010660981,550.0,0.15328783,-0.5039679,9.792493,-0.008730724,-0.062490642,0.019600868,-0.023826795,-0.012414948,0.18395351,2016-12-13 09:03:39,79.03544466171253
-0.266,-0.556,10.106,0.0,0.0031982942,0.0,550.0,0.15328783,-0.5039679,9.792493,-0.016511872,-0.07206744,0.003440857,-0.023826795,-0.012414948,0.18395351,2016-12-13 09:03:40,75.98917947139267
-0.286,-0.578,10.079,0.0010660981,0.0010660981,0.0,550.0,0.15328783,-0.5039679,9.792493,-0.009927824,-0.061892092,-0.009129524,-0.023826795,-0.012414948,0.18395351,2016-12-13 09:03:41,61.036627898233235
-0.296,-0.559,10.097,0.0,-0.0010660981,0.0,550.0,0.15328783,-0.5039679,9.792493,-0.024891585,-0.06608194,-0.016910553,-0.023826795,-0.012414948,0.18395351,2016-12-13 09:03:42,60.24361634227536
-0.297,-0.562,10.096,0.0021321962,-0.0021321962,0.0010660981,550.0,0.15328783,-0.5039679,9.792493,-0.023694485,-0.07446164,-0.013917923,-0.023826795,-0.012414948,0.18395351,2016-12-13 09:03:43,77.52525900166032
-0.311,-0.557,10.067,0.0,0.0010660981,0.0,550.0,0.15328783,-0.5039679,9.792493,-0.028482884,-0.07146889,-0.0133190155,-0.023826795,-0.012414948,0.18395351,2016-12-13 09:03:44,59.237998454979035
-0.308,-0.559,10.073,0.0,0.0010660981,0.0,550.0,0.15328783,-0.5039679,9.792493,-0.022497386,-0.06308919,-0.008530617,-0.023826795,-0.012414948,0.18395351,2016-12-13 09:03:45,79.87314367713577
-0.286,-0.559,10.087,0.0010660981,-0.0031982942,0.0010660981,550.0,0.15328783,-0.5039679,9.792493,-0.009927824,-0.061892092,-0.006734848,-0.023826795,-0.012414948,0.18395351,2016-12-13 09:03:46,60.35825245872555
-0.275,-0.542,10.096,0.0,0.0,0.0010660981,550.0,0.15328783,-0.5039679,9.792493,-0.024293035,-0.045132697,-0.0049390793,-0.023826795,-0.012414948,0.18395351,2016-12-13 09:03:47,78.50913343347146
-0.301,-0.547,10.092,0.0,-0.0010660981,0.0,550.0,0.15328783,-0.5039679,9.792493,-0.030278541,-0.058899343,-0.006734848,-0.023826795,-0.012414948,0.18395351,2016-12-13 09:03:48,63.77885093875982
-0.292,-0.549,10.081,0.0,0.0021321962,0.0,550.0,0.15328783,-0.5039679,9.792493,-0.024891585,-0.06907469,0.010024071,-0.023826795,-0.012414948,0.18395351,2016-12-13 09:03:49,75.42461841844955
-0.301,-0.567,10.079,0.0010660981,-0.0010660981,0.0010660981,550.0,0.15328783,-0.5039679,9.792493,-0.020701736,-0.055308044,-0.008530617,-0.023826795,-0.012414948,0.18395351,2016-12-13 09:03:50,60.66993227211637
-0.301,-0.557,10.07,0.0021321962,0.0010660981,0.0,800.0,0.15328783,-0.5039679,9.792493,-0.017708987,-0.061892092,0.015411377,-0.023826795,-0.012414948,0.18395351,2016-12-13 09:03:51,71.44310047707347
-0.281,-0.565,10.101,0.0010660981,0.0,0.0010660981,800.0,0.15328783,-0.5039679,9.792493,-0.026088685,-0.07266599,-0.015712738,-0.023826795,-0.012414948,0.18395351,2016-12-13 09:03:52,56.92696088555295
-0.269,-0.569,10.094,0.0,0.0,0.0010660981,800.0,0.15328783,-0.5039679,9.792493,-0.03386984,-0.06727904,-0.014515877,-0.023826795,-0.012414948,0.18395351,2016-12-13 09:03:53,77.3097338482261
-0.292,-0.568,10.082,0.0,0.0021321962,0.0010660981,550.0,0.15328783,-0.5039679,9.792493,-0.024293035,-0.07446164,-0.013917923,-0.023826795,-0.012414948,0.18395351,2016-12-13 09:03:54,78.25684572265786
-0.283,-0.581,10.082,0.0,0.0021321962,0.0010660981,550.0,0.15328783,-0.5039679,9.792493,-0.009329274,-0.07206744,-0.022895813,-0.023826795,-0.012414948,0.18395351,2016-12-13 09:03:55,73.3137494364678
-0.296,-0.565,10.077,0.0,0.0053304904,0.0021321962,550.0,0.15339117,-0.5039679,9.792492,-0.020206526,-0.06787759,-0.015711784,-0.023825824,-0.012420132,0.18395364,2016-12-13 09:03:56,61.22247916231822
-0.28,-0.577,10.077,0.0010660981,0.0021321962,0.0,550.0,0.15339117,-0.5039679,9.792492,-0.016016662,-0.07027179,-0.007930756,-0.023825824,-0.012420132,0.18395364,2016-12-13 09:03:57,73.68675560129867
-0.287,-0.566,10.073,0.0,0.0010660981,0.0010660981,550.0,0.15339117,-0.5039679,9.792492,-0.014221013,-0.07625729,0.008230209,-0.023825824,-0.012420132,0.18395364,2016-12-13 09:03:58,76.15455820192366
-0.282,-0.583,10.078,0.0,-0.0010660981,0.0,550.0,0.15339117,-0.5039679,9.792492,-0.03157898,-0.06787759,-0.017507553,-0.023825824,-0.012420132,0.18395364,2016-12-13 09:03:59,63.02066082616619
-0.277,-0.561,10.101,0.0,0.0031982942,0.0,550.0,0.15339117,-0.5039679,9.792492,-0.014221013,-0.07984859,0.013616562,-0.023825824,-0.012420132,0.18395364,2016-12-13 09:04:00,76.35691116935475
-0.265,-0.572,10.104,0.0,0.02771855,0.0010660981,550.0,0.14929834,-0.5045926,9.792522,0.0066312253,-0.07383692,0.006403923,-0.023875233,-0.01226042,0.18558343,2016-12-13 09:04:01,65.36229948757004
-0.284,-0.562,10.094,0.0021321962,-0.0010660981,0.0010660981,550.0,0.14345387,-0.50459266,9.792609,0.0088844,-0.07383686,-0.0050554276,-0.023930615,-0.0119673,0.18557629,2016-12-13 09:04:02,75.47644532592821
-0.28,-0.559,10.1,0.0,-0.0010660981,0.0010660981,550.0,0.14345387,-0.50459266,9.792609,-0.001889512,-0.064858615,0.0039224625,-0.023930615,-0.0119673,0.18557629,2016-12-13 09:04:03,79.77933281376885
-0.272,-0.565,10.094,0.0,-0.0021321962,0.0,550.0,0.14460088,-0.50459266,9.792592,0.0017518699,-0.07862526,-0.0020456314,-0.023919746,-0.012024827,0.18557769,2016-12-13 09:04:04,75.13788605772407
-0.297,-0.565,10.099,-0.0010660981,0.011727079,0.0,550.0,0.14345285,-0.50459266,9.792609,-0.0096696615,-0.066654265,-0.0044574738,-0.023930624,-0.011967249,0.18557629,2016-12-13 09:04:05,65.02109608289823
-0.271,-0.556,10.094,0.0010660981,0.0,0.0,550.0,0.14188552,-0.5045926,9.792632,0.008058533,-0.061865926,-0.0026845932,-0.023945473,-0.011888642,0.18557437,2016-12-13 09:04:06,79.14322434497014
-0.283,-0.557,10.081,0.0010660981,0.0,0.0,550.0,0.14188552,-0.5045926,9.792632,-0.009897977,-0.061267376,-0.007472992,-0.023945473,-0.011888642,0.18557437,2016-12-13 09:04:07,78.43554009394347
-0.275,-0.58,10.101,0.0,0.0010660981,0.0,550.0,0.14188552,-0.5045926,9.792632,0.0032701343,-0.07503402,-0.0026845932,-0.023945473,-0.011888642,0.18557437,2016-12-13 09:04:09,74.56927640110936
-0.269,-0.568,10.07,0.0,0.0010660981,0.0,550.0,0.14188552,-0.5045926,9.792632,-0.0045110136,-0.062464476,-0.015254021,-0.023945473,-0.011888642,0.18557437,2016-12-13 09:04:10,62.71790777263873
-0.285,-0.571,10.069,0.0,0.0,0.0010660981,550.0,0.14188552,-0.5045926,9.792632,-0.003912464,-0.07383692,-0.009268761,-0.023945473,-0.011888642,0.18557437,2016-12-13 09:04:11,77.50565306967647
-0.262,-0.573,10.084,0.0,0.0021321962,0.0,550.0,0.14188552,-0.5045926,9.792632,0.014642596,-0.07084417,-8.8882446E-4,-0.023945473,-0.011888642,0.18557437,2016-12-13 09:04:12,78.07397472361504
-0.28,-0.566,10.087,0.0,0.0010660981,0.0010660981,550.0,0.13571641,-0.5045925,9.79272,0.012431994,-0.07503414,-3.7765503E-4,-0.02400392,-0.01157924,0.18556683,2016-12-13 09:04:13,77.61148949732916
-0.269,-0.574,10.075,0.0010660981,0.0021321962,0.0,550.0,0.13570578,-0.5045925,9.79272,-7.2549284E-4,-0.07623124,-0.014144897,-0.02400402,-0.011578708,0.18556683,2016-12-13 09:04:14,62.653495136843375
-0.271,-0.565,10.091,0.0,0.0021321962,0.0,550.0,0.13570578,-0.5045925,9.79272,0.010646969,-0.0492965,-0.0129470825,-0.02400402,-0.011578708,0.18556683,2016-12-13 09:04:15,61.47529116958296
-0.287,-0.564,10.088,0.0010660981,-0.0010660981,0.0,550.0,0.13309318,-0.50459236,9.792754,0.027624786,-0.07742846,-0.0010108948,-0.024028769,-0.011447677,0.18556361,2016-12-13 09:04:16,74.95333170321219
-0.279,-0.575,10.078,0.0010660981,0.0,0.0010660981,550.0,0.13309318,-0.50459236,9.792754,0.022836387,-0.058873415,-0.012383461,-0.024028769,-0.011447677,0.18556361,2016-12-13 09:04:17,75.29053628235482
-0.292,-0.567,10.075,0.0021321962,-0.0010660981,0.0,550.0,0.15039928,-0.5045924,9.792504,0.010917231,-0.0858081,-0.013929367,-0.023864793,-0.012315637,0.1855848,2016-12-13 09:04:18,59.82803325900921
-0.277,-0.573,10.073,0.0,0.0021321962,0.0010660981,550.0,0.13380925,-0.5045925,9.792746,-0.0030188113,-0.06964719,-0.013571739,-0.024021987,-0.011483591,0.18556453,2016-12-13 09:04:19,60.913124445233635
-0.277,-0.562,10.094,-0.0021321962,0.0010660981,0.0021321962,550.0,0.13370292,-0.5045925,9.7927475,0.008459985,-0.07682979,0.013959885,-0.024022995,-0.011478258,0.18556441,2016-12-13 09:04:20,61.97656880794898
-0.284,-0.583,10.072,0.0,0.0031982942,0.0010660981,550.0,0.13370292,-0.5045925,9.7927475,0.0036715865,-0.08700514,-0.027938843,-0.024022995,-0.011478258,0.18556441,2016-12-13 09:04:21,78.52752222985042
-0.283,-0.572,10.071,0.0010660981,-0.0021321962,0.0010660981,550.0,0.13370292,-0.5045925,9.7927475,0.004868686,-0.07802689,-0.025544167,-0.024022995,-0.011478258,0.18556441,2016-12-13 09:04:22,59.74111304464739
-0.304,-0.565,10.083,0.0010660981,0.0,0.0010660981,550.0,0.13370292,-0.5045925,9.7927475,0.009058535,-0.07383704,-0.04050827,-0.024022995,-0.011478258,0.18556441,2016-12-13 09:04:23,73.76949420842807
-0.291,-0.565,10.07,0.0,0.0,0.0010660981,550.0,0.13370292,-0.5045925,9.7927475,0.0030730367,-0.06725299,-0.020157814,-0.024022995,-0.011478258,0.18556441,2016-12-13 09:04:24,79.07545703324155
-0.268,-0.558,10.091,0.0010660981,0.0010660981,0.0010660981,550.0,0.13370292,-0.5045925,9.7927475,0.0018759221,-0.06904864,0.004383087,-0.024022995,-0.011478258,0.18556441,2016-12-13 09:04:25,77.75934342082587
-0.28,-0.572,10.102,0.0,-0.0010660981,-0.0010660981,550.0,0.13370292,-0.5045925,9.7927475,0.008459985,-0.07922399,-0.0033979416,-0.024022995,-0.011478258,0.18556441,2016-12-13 09:04:26,78.15147000492173
-0.269,-0.57,10.079,0.0,-0.0021321962,0.0,550.0,0.13370292,-0.5045925,9.7927475,0.021029547,-0.07204139,-0.020755768,-0.024022995,-0.011478258,0.18556441,2016-12-13 09:04:27,79.40132529078794
-0.234,-0.551,10.117,0.0,-0.0042643924,0.0,550.0,0.14726059,-0.5045924,9.792553,0.039793596,-0.057077706,0.020738602,-0.02389453,-0.01215822,0.18558101,2016-12-13 09:04:28,78.74102270829763
-0.257,-0.577,10.098,0.0,0.0031982942,0.0,550.0,0.12951884,-0.50459224,9.792802,0.009651318,-0.07802713,-0.011832237,-0.024062626,-0.011268413,0.18555929,2016-12-13 09:04:29,79.40581114656443
-0.275,-0.577,10.083,0.0,0.0021321962,0.0,550.0,0.12951884,-0.50459224,9.792802,-0.0017211437,-0.07623148,-0.006444931,-0.024062626,-0.011268413,0.18555929,2016-12-13 09:04:30,78.68068784741449
-0.286,-0.558,10.102,0.0010660981,0.0,0.0,550.0,0.12951884,-0.50459224,9.792802,0.031797677,-0.07563293,-0.015423775,-0.024062626,-0.011268413,0.18555929,2016-12-13 09:04:31,71.3241090461444
-0.271,-0.557,10.1,0.0,0.011727079,0.0,550.0,0.12837078,-0.50459224,9.792818,0.022171825,-0.062464833,0.0037136078,-0.024073504,-0.011210835,0.18555787,2016-12-13 09:04:32,60.84663346617812
-0.276,-0.574,10.081,0.0,-0.0021321962,0.0010660981,550.0,0.12837078,-0.50459224,9.792818,0.022171825,-0.07623148,-0.001074791,-0.024073504,-0.011210835,0.18555787,2016-12-13 09:04:33,78.00751318356942
-0.281,-0.56,10.072,0.0010660981,0.0,0.0,550.0,0.12837078,-0.50459224,9.792818,0.007208064,-0.07802713,1.2207031E-4,-0.024073504,-0.011210835,0.18555787,2016-12-13 09:04:34,79.44183849250703
-0.264,-0.57,10.093,0.0010660981,0.020255864,0.0010660981,550.0,0.12805326,-0.50459224,9.792822,0.0374531,-0.08042133,-0.008260727,-0.024076512,-0.011194911,0.1855575,2016-12-13 09:04:35,69.61003236292548
-0.281,-0.587,10.081,0.0010660981,0.0,0.0010660981,550.0,0.12617142,-0.5045923,9.792846,0.021976978,-0.06964737,-0.019657135,-0.024094341,-0.0111005325,0.1855552,2016-12-13 09:04:36,78.31907716812269
-0.28,-0.566,10.068,0.0010660981,0.0010660981,0.0,550.0,0.12617142,-0.5045923,9.792846,0.015392929,-0.07144302,-0.028635979,-0.024094341,-0.0111005325,0.1855552,2016-12-13 09:04:37,62.310759641433
-0.278,-0.568,10.091,0.0010660981,0.0031982942,0.0010660981,550.0,0.12617142,-0.5045923,9.792846,0.010005981,-0.07563287,-0.0022993088,-0.024094341,-0.0111005325,0.1855552,2016-12-13 09:04:38,60.782981846802315
-0.278,-0.558,10.076,0.0010660981,0.0021321962,0.0,550.0,0.12617142,-0.5045923,9.792846,-1.693815E-4,-0.08461112,-0.013671875,-0.024094341,-0.0111005325,0.1855552,2016-12-13 09:04:39,67.67726927946396
-0.282,-0.587,10.069,0.0,0.0021321962,0.0,550.0,0.12617142,-0.5045923,9.792846,0.0076117665,-0.08520967,-0.0022993088,-0.024094341,-0.0111005325,0.1855552,2016-12-13 09:04:40,75.90854929542829
-0.263,-0.58,10.084,0.0,0.0,0.0010660981,550.0,0.12617142,-0.5045923,9.792846,0.021378428,-0.07503432,-0.0064888,-0.024094341,-0.0111005325,0.1855552,2016-12-13 09:04:41,74.32859179828897
-0.268,-0.569,10.081,0.0,0.0021321962,0.0,550.0,0.12617142,-0.5045923,9.792846,0.01240018,-0.061267674,0.00248909,-0.024094341,-0.0111005325,0.1855552,2016-12-13 09:04:42,74.97365145174831
-0.291,-0.575,10.079,0.0,0.0021321962,0.0010660981,550.0,0.12617142,-0.5045923,9.792846,0.008210316,-0.07982272,-0.011277199,-0.024094341,-0.0111005325,0.1855552,2016-12-13 09:04:43,62.41840341975493
-0.267,-0.571,10.097,0.0010660981,-0.0031982942,0.0010660981,550.0,0.12617142,-0.5045923,9.792846,0.027363941,-0.07802707,-0.013671875,-0.024094341,-0.0111005325,0.1855552,2016-12-13 09:04:44,61.24433302248992
-0.292,-0.571,10.064,0.0,0.0042643924,0.0,550.0,0.12617142,-0.5045923,9.792846,0.0034219176,-0.08042127,-0.0142707825,-0.024094341,-0.0111005325,0.1855552,2016-12-13 09:04:45,61.970566715458204
-0.281,-0.578,10.063,0.0,-0.0021321962,0.0,550.0,0.12617142,-0.5045923,9.792846,0.019582778,-0.095385075,-0.011876106,-0.024094341,-0.0111005325,0.1855552,2016-12-13 09:04:46,57.8603112227999
-0.261,-0.578,10.093,0.0010660981,-0.0031982942,0.0021321962,550.0,0.12617142,-0.5045923,9.792846,0.010604531,-0.097779274,0.0036859512,-0.024094341,-0.0111005325,0.1855552,2016-12-13 09:04:47,74.21552533150714
-0.283,-0.568,10.1,-0.0010660981,0.0,0.0,550.0,0.12617142,-0.5045923,9.792846,0.024969727,-0.06725317,-0.011277199,-0.024094341,-0.0111005325,0.1855552,2016-12-13 09:04:48,63.68778689892916
-0.289,-0.568,10.084,0.0010660981,0.0010660981,0.0,550.0,0.12617142,-0.5045923,9.792846,0.025568292,-0.08880097,-0.014868736,-0.024094341,-0.0111005325,0.1855552,2016-12-13 09:04:49,61.318070348573215
-0.283,-0.586,10.06,0.0,-0.0010660981,0.0,550.0,0.12617142,-0.5045923,9.792846,0.01599148,-0.07084447,-0.016065598,-0.024094341,-0.0111005325,0.1855552,2016-12-13 09:04:50,59.33329082167873
-0.269,-0.563,10.069,0.0,-0.0021321962,0.0,550.0,0.12617142,-0.5045923,9.792846,0.010005981,-0.08161837,-0.008883476,-0.024094341,-0.0111005325,0.1855552,2016-12-13 09:04:51,81.7945377117257
-0.264,-0.566,10.1,0.0010660981,0.0,0.0010660981,550.0,0.12617142,-0.5045923,9.792846,0.017787129,-0.08101982,-0.0028982162,-0.024094341,-0.0111005325,0.1855552,2016-12-13 09:04:52,77.41151858916994
-0.275,-0.568,10.072,0.0,0.0031982942,0.0,550.0,0.12617142,-0.5045923,9.792846,0.018385679,-0.07264012,-0.0022993088,-0.024094341,-0.0111005325,0.1855552,2016-12-13 09:04:53,60.13786846439433
-0.275,-0.568,10.092,0.0,-0.0021321962,0.0,550.0,0.12617142,-0.5045923,9.792846,0.0034219176,-0.07682997,0.0060806274,-0.024094341,-0.0111005325,0.1855552,2016-12-13 09:04:54,72.45740200278331
-0.301,-0.577,10.069,0.0,0.0021321962,0.0010660981,550.0,0.12617142,-0.5045923,9.792846,0.023772627,-0.07383722,-0.027438164,-0.024094341,-0.0111005325,0.1855552,2016-12-13 09:04:55,71.93897162134344
-0.26,-0.583,10.06,-0.0010660981,0.0,0.0021321962,550.0,0.12617142,-0.5045923,9.792846,0.01180163,-0.08640677,-0.039409637,-0.024094341,-0.0111005325,0.1855552,2016-12-13 09:04:56,77.98565113666628
3.693,1.333,3.865,1.098081,-0.81130064,1.761194,550.0,3.7069411,1.7092377,8.916697,0.20549083,-0.557258,-5.3738194,0.10135497,-0.18735571,0.062341988,2016-12-13 09:04:58,76.59327205966594
3.548,4.033,9.312,1.1002132,1.1791044,-0.69402987,2000.0,1.9816488,3.7152336,8.856663,0.43261135,0.67490363,-1.9158149,0.18419263,-0.073916696,0.06266728,2016-12-13 09:04:59,77.8957619660307
0.046,6.609,6.812,0.19402985,-0.11940298,0.10341151,2000.0,0.6423232,5.4821057,8.105819,-0.288872,1.0927405,-1.0243115,0.25852823,-0.14100124,-0.3568405,2016-12-13 09:05:00,71.74199742735907
1.347,7.675,6.712,-0.41364604,0.20255864,0.14285715,2000.0,2.7947917,6.4338984,6.853063,-0.36137795,0.8562155,-0.32701063,0.28959823,-0.25830966,-0.2886563,2016-12-13 09:05:01,55.45457254053523
0.116,6.766,7.112,-0.17590618,-0.1119403,0.018123668,3000.0,1.2097799,6.38099,7.347774,-0.64803314,0.48175907,-0.58768845,0.3036821,-0.1820576,-0.32304165,2016-12-13 09:05:02,73.84438749595441
1.833,6.195,9.356,0.5970149,-0.04904051,-0.2707889,2000.0,2.703762,5.2993784,7.7959375,-0.5043814,0.89658546,0.9244003,0.23483549,-0.21764675,-0.25784552,2016-12-13 09:05:03,78.73638365282413
2.523,6.406,6.916,0.04904051,-0.19616205,-0.26119402,2000.0,2.9141037,6.317507,6.911402,0.03107071,0.078971386,-0.29915857,0.2933738,-0.24808937,-0.24605313,2016-12-13 09:05:04,58.10808845461036
0.48,6.863,8.363,0.5575693,0.391258,-0.20575693,2000.0,1.7746444,6.2232842,7.3682933,-1.0177703,0.70507574,0.47972727,0.3108312,-0.1664498,-0.19859673,2016-12-13 09:05:05,55.51274367841068
3.553,7.334,5.592,0.6076759,0.31876332,0.41577825,3000.0,3.1176171,6.858442,6.277946,-1.5131956,0.31352806,-0.95520973,0.38956037,-0.16779904,0.018040609,2016-12-13 09:05:06,55.412610076944276
7.144,2.504,5.291,-0.63113004,-0.63646054,0.6801706,1250.0,7.2183623,2.3207052,6.2193203,0.62714434,0.213696,-1.2335677,0.21361238,-0.36538312,0.2532821,2016-12-13 09:05:07,60.49682582963432
7.573,0.912,5.81,0.06396589,0.12260128,-0.015991472,800.0,7.6384606,0.69842154,6.1103606,0.6338124,0.23964578,-0.73136044,0.19776145,-0.38502508,0.33396858,2016-12-13 09:05:08,77.9573866689173
7.434,1.017,6.018,-0.02238806,-0.051172707,0.0021321962,800.0,7.856613,0.8872873,5.8014407,0.017853737,0.1429568,-0.15106726,0.20976417,-0.40269607,0.32130915,2016-12-13 09:05:09,61.640022965801286
4.045,1.244,9.317,0.50959486,1.6289979,0.042643923,1250.0,5.9533806,1.0743265,7.7183847,-1.0602932,0.18755662,0.9055872,0.18174744,-0.2709977,0.37872186,2016-12-13 09:05:10,75.84850271333805
2.606,2.236,9.644,-0.37739873,-0.0074626864,-0.47654584,1250.0,4.5615716,1.4816897,8.553774,-0.5435648,0.047745466,0.16057873,0.15242884,-0.20160447,0.31655142,2016-12-13 09:05:11,75.5935044488024
2.093,-1.279,9.855,0.02771855,0.10660981,-0.22921109,800.0,3.363453,-0.66152257,9.188032,-0.8627715,-0.548009,0.39481735,0.01410579,-0.17703588,0.26600862,2016-12-13 09:05:12,72.46875605383013
3.3,1.541,9.682,-0.102345414,0.041577823,-0.14392324,800.0,3.391661,0.8871004,9.158607,0.38213706,0.58247966,0.08905506,0.0876918,-0.15922052,0.24099655,2016-12-13 09:05:13,76.3081014822398
-4.228,3.749,6.316,0.2782516,-0.17590618,-2.2793176,2000.0,-1.5434215,5.2250347,8.153969,-0.22535717,-1.3839979,0.025279999,0.2887367,0.029905057,-0.17510198,2016-12-13 09:05:14,75.59218700331147
-0.83,7.497,8.035,-0.5554371,-0.17697228,-0.18017058,2000.0,-0.0034327928,7.473107,6.3500423,-0.74362034,0.03824091,-0.07897234,0.37084746,-0.19674881,-0.42573476,2016-12-13 09:05:15,55.745194162401994