ACC_X,ACC_Y,ACC_Z,LIGH_1,GRAV_X,GRAV_Y,GRAV_Z,LINACC_X,LINACC_Y,LINACC_Z,TIME,VOICE
1.7908629,5.2768207,8.456321,31.0,1.4437568,4.154206,8.771504,0.43585113,1.0623871,-0.38136974,2017-06-07 08:25:24,52.31043680992586
4.4244847,4.673482,6.3206925,31.0,2.165635,5.0122876,8.158588,2.8057916,-1.0079057,-1.9068487,2017-06-07 08:25:25,74.51763368748182
4.76925,0.4213795,7.8912888,19.0,4.590057,3.9499006,7.722737,1.4028958,-5.47538,1.1304889,2017-06-07 08:25:26,78.78101062737214
6.0046577,-0.32561144,7.9391727,19.0,5.529861,0.61291564,8.076866,0.49033248,-1.3075534,-0.19068487,2017-06-07 08:25:27,82.22614153968499
7.1347213,0.4405331,7.4603324,25.0,5.693305,-0.24516624,7.9815235,1.1441091,0.7899802,-0.8989429,2017-06-07 08:25:28,65.00125232241562
7.517793,1.1300632,5.9567738,19.0,6.4560447,0.013620348,7.3822284,0.6810174,0.84446156,-1.4165161,2017-06-07 08:25:29,83.24984164494305
7.843405,1.2162545,5.9663506,19.0,7.300506,0.6810174,6.5105257,0.28602728,0.44947144,-0.46309182,2017-06-07 08:25:30,82.59786757871674
7.4986396,0.2681506,6.4547677,19.0,7.4911914,0.98066497,6.238119,0.095342435,-0.43585113,0.12258312,2017-06-07 08:25:31,77.92179084740306
7.479486,1.2449849,6.885724,19.0,7.518432,0.6810174,6.2517395,-0.42223078,0.040861044,0.4086104,2017-06-07 08:25:32,80.7510891319386
7.4986396,1.3311762,6.5218053,19.0,7.354988,0.98066497,6.4151835,0.12258312,0.29964766,0.095342435,2017-06-07 08:25:33,77.5910912039018
7.1826053,0.12449849,6.9144545,19.0,7.259645,1.0760074,6.4969053,0.14982383,-0.8580819,0.57205456,2017-06-07 08:25:34,83.5782252790371
7.326257,0.29688102,6.8186865,17.0,7.1643023,0.47671217,6.687591,0.05448139,-0.12258312,0.3405087,2017-06-07 08:25:35,84.00564285563804
7.3549876,-0.076614454,6.7324953,17.0,7.1098213,0.2043052,6.7556925,0.31326798,-0.24516624,0.027240695,2017-06-07 08:25:36,78.6924087502249
7.422025,-0.10534488,6.742072,17.0,7.191543,-0.013620348,6.6739707,0.21792556,-0.08172209,0.040861044,2017-06-07 08:25:37,83.03756565523783
7.28795,-0.1436521,6.8091097,22.0,7.218784,-0.08172209,6.64673,0.10896278,-0.013620348,0.17706451,2017-06-07 08:25:38,78.96618286762684
7.2592196,-0.17238252,6.847417,22.0,7.2051635,-0.095342435,6.6603503,0.05448139,-0.068101734,0.14982383,2017-06-07 08:25:39,71.65010105560211
7.2304893,-0.11492168,6.9144545,22.0,7.1779227,-0.095342435,6.687591,0.040861044,-0.027240695,0.21792556,2017-06-07 08:25:40,78.51112994448901
7.2113357,-0.19153613,6.9240313,22.0,7.1234417,-0.12258312,6.742072,0.08172209,-0.040861044,0.19068487,2017-06-07 08:25:41,80.75089194699096
7.2304893,-0.1436521,6.885724,22.0,7.096201,-0.13620347,6.769313,0.12258312,-0.013620348,0.14982383,2017-06-07 08:25:42,74.24166986661781
6.981492,-0.05746084,7.1347213,19.0,7.0825806,-0.14982383,6.782933,-0.13620347,-0.095342435,0.29964766,2017-06-07 08:25:43,79.98888682187528
6.6271505,0.05746084,7.4028716,25.0,6.891896,-0.08172209,6.973618,-0.17706451,0.10896278,0.43585113,2017-06-07 08:25:44,80.52557037479053
6.7324953,-0.30645782,7.374141,22.0,6.6331096,0.013620348,7.218784,0.14982383,-0.13620347,0.17706451,2017-06-07 08:25:45,69.95754543240164
6.6750345,-0.08619126,7.469909,22.0,6.6194887,-0.013620348,7.232404,0.17706451,-0.027240695,0.2043052,2017-06-07 08:25:46,81.55554962390116
6.6846113,-0.30645782,7.479486,19.0,6.6603503,-0.13620347,7.191543,0.29964766,-0.16344418,0.13620347,2017-06-07 08:25:47,77.84689630145229
7.1826053,-0.076614454,7.0006456,19.0,6.7284517,-0.16344418,7.1234417,0.36774936,0.095342435,0.013620348,2017-06-07 08:25:48,72.27817255509945
7.0964136,-0.1436521,6.933608,19.0,6.7556925,-0.38136974,7.096201,0.068101734,0.31326798,0.16344418,2017-06-07 08:25:49,78.52054900133582
6.847417,-0.05746084,7.1730285,17.0,6.7284517,-0.38136974,7.1234417,0.14982383,0.44947144,0.10896278,2017-06-07 08:25:50,79.78343908170247
6.933608,-0.7469909,7.5465236,19.0,6.782933,0.05448139,7.0825806,0.25878662,-0.6537767,-0.5992953,2017-06-07 08:25:51,82.53996643167972
6.9719152,-0.17238252,7.0102224,19.0,6.8782754,-0.040861044,6.9872384,0.095342435,-0.12258312,0.13620347,2017-06-07 08:25:52,78.64481207610478
7.019799,-0.1436521,7.1251445,19.0,6.8782754,-0.12258312,6.9872384,0.10896278,-0.027240695,0.12258312,2017-06-07 08:25:53,83.38230004968658
7.019799,-0.18195933,7.1826053,19.0,6.864655,-0.14982383,7.000859,0.13620347,-0.068101734,0.2043052,2017-06-07 08:25:54,83.60253423610615
7.086837,-0.22984336,7.0102224,19.0,6.8782754,-0.19068487,6.9872384,0.16344418,-0.05448139,-0.068101734,2017-06-07 08:25:55,82.15253948787262
7.067683,-0.2681506,7.1059904,17.0,6.8782754,-0.2043052,6.9872384,0.21792556,-0.013620348,0.013620348,2017-06-07 08:25:56,84.33570447372452
7.029376,-0.2681506,7.038953,17.0,6.9191365,-0.21792556,6.9463773,0.2043052,0.027240695,0.05448139,2017-06-07 08:25:58,82.28163538549994
7.038953,-0.2873042,7.144298,17.0,6.9191365,-0.21792556,6.9463773,0.095342435,-0.027240695,0.14982383,2017-06-07 08:25:59,80.10794145731819
7.1347213,-0.20111294,7.067683,17.0,6.9191365,-0.23154591,6.9463773,0.19068487,0.013620348,0.027240695,2017-06-07 08:26:00,82.60464896275481
7.1059904,-0.37349546,7.029376,14.0,6.932757,-0.24516624,6.932757,0.10896278,-0.13620347,-0.10896278,2017-06-07 08:26:01,75.51556581124196
6.895301,-0.60333884,7.240066,17.0,6.9191365,-0.32688835,6.932757,0.040861044,-0.21792556,0.29964766,2017-06-07 08:26:02,83.81581462043249
7.1251445,-0.36391866,7.029376,17.0,6.851035,-0.47671217,7.000859,0.12258312,0.0,0.068101734,2017-06-07 08:26:03,77.60516158876806
7.0006456,-0.49799395,7.0964136,19.0,6.864655,-0.47671217,6.9872384,0.17706451,0.027240695,0.08172209,2017-06-07 08:26:04,60.43956413332488
6.981492,-0.45968673,7.1347213,17.0,6.905516,-0.43585113,6.9599977,0.10896278,0.027240695,0.14982383,2017-06-07 08:26:05,78.73487303697456
7.0581064,-0.47884035,7.0581064,17.0,6.891896,-0.42223078,6.9599977,0.17706451,-0.027240695,0.08172209,2017-06-07 08:26:06,82.41576798807381
7.1251445,-0.4309563,7.067683,17.0,6.905516,-0.43585113,6.9463773,0.16344418,-0.027240695,0.08172209,2017-06-07 08:26:07,76.1125575125468
7.0581064,-0.45968673,7.029376,17.0,6.932757,-0.43585113,6.9191365,0.13620347,-0.013620348,0.14982383,2017-06-07 08:26:08,83.70885507463876
7.1251445,-0.4213795,6.9719152,17.0,6.932757,-0.43585113,6.9191365,0.068101734,-0.095342435,0.095342435,2017-06-07 08:26:09,70.76210336843785
7.153875,-0.4213795,7.086837,17.0,6.932757,-0.43585113,6.9191365,0.2043052,0.013620348,0.17706451,2017-06-07 08:26:10,61.144254615497616
7.067683,-0.46926352,7.029376,17.0,6.9463773,-0.44947144,6.905516,0.2043052,0.040861044,0.10896278,2017-06-07 08:26:11,66.90169960224517
7.038953,-0.50757074,6.981492,17.0,6.9599977,-0.42223078,6.891896,0.14982383,-0.013620348,0.14982383,2017-06-07 08:26:12,76.38640578768361
7.1826053,-0.4405331,7.019799,14.0,6.9599977,-0.42223078,6.891896,0.08172209,-0.13620347,0.05448139,2017-06-07 08:26:13,77.81662227195228
7.1059904,-0.49799395,6.9527617,17.0,6.973618,-0.46309182,6.8782754,0.12258312,-0.040861044,0.05448139,2017-06-07 08:26:14,84.63628737414518
6.8665705,-0.5267244,6.9048777,17.0,6.973618,-0.44947144,6.8782754,0.068101734,0.095342435,0.32688835,2017-06-07 08:26:15,84.47053585034213
6.7324953,-0.29688102,7.3645644,25.0,6.8237944,-0.43585113,7.028099,-0.068101734,0.31326798,0.3949901,2017-06-07 08:26:16,82.35289237321368
6.6654577,-0.48841715,7.335834,19.0,6.592248,-0.28602728,7.259645,0.19068487,-0.040861044,0.05448139,2017-06-07 08:26:17,80.2040553817454
6.435614,-0.23942018,7.6231384,19.0,6.551387,-0.27240694,7.300506,-0.095342435,-0.040861044,0.27240694,2017-06-07 08:26:18,79.73037228074172
6.157887,-0.61291564,7.9391727,19.0,6.5105257,-0.28602728,7.3277473,-0.13620347,0.027240695,0.61291564,2017-06-07 08:26:19,81.82145077388222
6.588843,-0.1340753,7.479486,19.0,6.4151835,-0.23154591,7.4230895,0.25878662,0.17706451,-0.05448139,2017-06-07 08:26:20,58.21775449794336
6.6175733,-0.095768064,7.4507556,22.0,6.4424243,-0.095342435,7.3958488,0.17706451,0.013620348,0.05448139,2017-06-07 08:26:21,78.10186101815142
6.7324953,-0.009576807,7.374141,22.0,6.5105257,-0.068101734,7.3277473,0.2043052,0.05448139,0.05448139,2017-06-07 08:26:22,83.58739834910479
6.7708025,0.009576807,7.345411,17.0,6.565007,-0.027240695,7.2868857,0.19068487,0.05448139,0.12258312,2017-06-07 08:26:23,80.67228745503294
6.483498,-0.4213795,7.441179,19.0,6.592248,-0.013620348,7.259645,-0.29964766,-0.62653595,0.49033248,2017-06-07 08:26:24,75.9299168901782
6.6750345,-0.12449849,7.4507556,19.0,6.469665,-0.19068487,7.3686085,0.14982383,0.08172209,0.095342435,2017-06-07 08:26:25,82.47166520035655
6.789956,-0.076614454,7.2687964,22.0,6.5105257,-0.16344418,7.3277473,0.31326798,0.040861044,0.0,2017-06-07 08:26:26,82.12932099247962
6.895301,-0.05746084,7.3645644,19.0,6.64673,-0.095342435,7.218784,0.19068487,0.027240695,0.08172209,2017-06-07 08:26:27,70.43533560517344
6.799533,-0.22026655,7.240066,19.0,6.701211,-0.068101734,7.1643023,0.068101734,-0.25878662,0.08172209,2017-06-07 08:26:28,83.29875870815192
6.847417,0.02873042,7.2687964,19.0,6.701211,-0.08172209,7.1643023,0.2043052,0.17706451,0.17706451,2017-06-07 08:26:29,83.88859516219249
6.943185,0.22984336,7.240066,19.0,6.7148314,0.040861044,7.1506824,0.2043052,0.14982383,0.12258312,2017-06-07 08:26:30,84.06282794594972
7.0006456,0.35434186,7.144298,19.0,6.742072,0.16344418,7.1234417,0.27240694,0.19068487,0.08172209,2017-06-07 08:26:31,83.61285860874162
7.0964136,0.45968673,7.153875,19.0,6.7965536,0.27240694,7.06896,0.27240694,0.08172209,-0.068101734,2017-06-07 08:26:32,79.79818122942325
7.240066,0.5746084,6.9527617,17.0,7.028099,0.36774936,6.8374147,0.16344418,0.21792556,0.013620348,2017-06-07 08:26:33,82.78651989422804
7.029376,0.5650316,6.9719152,19.0,7.1234417,0.44947144,6.7284517,0.027240695,0.13620347,0.3949901,2017-06-07 08:26:34,77.13562721555861
7.1251445,0.46926352,7.0485296,19.0,6.9872384,0.5448139,6.864655,0.08172209,-0.05448139,0.16344418,2017-06-07 08:26:35,83.47526411788297
7.067683,0.45968673,6.991069,22.0,6.973618,0.53119355,6.8782754,0.13620347,-0.05448139,0.21792556,2017-06-07 08:26:36,80.92046676957068
7.0581064,0.36391866,7.1826053,19.0,6.9463773,0.46309182,6.905516,0.027240695,-0.095342435,0.13620347,2017-06-07 08:26:37,83.3749238922386
7.019799,0.35434186,7.038953,22.0,6.891896,0.36774936,6.9599977,0.23154591,0.013620348,0.23154591,2017-06-07 08:26:38,80.71289955542463
7.086837,0.4213795,7.1251445,22.0,6.905516,0.35412902,6.9599977,0.14982383,0.05448139,0.16344418,2017-06-07 08:26:39,82.27393988842975
7.0006456,0.1436521,7.2113357,22.0,6.891896,0.36774936,6.9599977,0.2043052,-0.095342435,0.040861044,2017-06-07 08:26:40,78.61012922586332
6.9623384,0.11492168,7.28795,22.0,6.851035,0.24516624,7.0144787,0.095342435,-0.17706451,0.21792556,2017-06-07 08:26:41,83.85229200158933
6.799533,-1.0342951,7.469909,19.0,6.810174,0.08172209,7.05534,-0.14982383,-1.2258313,0.14982383,2017-06-07 08:26:42,79.8801335953115
6.742072,-0.9768343,7.422025,19.0,6.7556925,-0.55843425,7.0825806,0.027240695,-0.2043052,0.095342435,2017-06-07 08:26:43,84.03903527937803
7.201759,0.8810662,6.9623384,19.0,6.64673,-0.6946377,7.1779227,0.55843425,1.4573771,-0.2043052,2017-06-07 08:26:45,84.4423953263369
6.9527617,0.8810662,7.0964136,22.0,6.9463773,0.55843425,6.905516,0.35412902,0.2043052,-0.040861044,2017-06-07 08:26:46,79.92353335141884
6.5026517,0.45010993,7.642292,22.0,6.9463773,0.91256326,6.864655,-0.44947144,-0.49033248,0.7627395,2017-06-07 08:26:47,75.95430344297586
6.6079965,0.60333884,7.4603324,14.0,6.524146,0.5992953,7.300506,0.027240695,-0.095342435,0.23154591,2017-06-07 08:26:48,76.69026970592542
6.6271505,0.63206923,7.441179,14.0,6.4560447,0.5448139,7.354988,0.17706451,0.068101734,0.095342435,2017-06-07 08:26:49,83.80489131423913
6.6654577,0.6607997,7.4124484,14.0,6.483285,0.58567494,7.3413677,0.16344418,0.013620348,0.095342435,2017-06-07 08:26:50,84.47912269338764
6.6367273,0.62249243,7.4603324,14.0,6.5105257,0.61291564,7.314126,0.10896278,-0.040861044,0.13620347,2017-06-07 08:26:51,79.51731544018618
6.7133417,0.6512229,7.383718,14.0,6.524146,0.61291564,7.300506,0.16344418,0.040861044,0.095342435,2017-06-07 08:26:52,78.77813658692918
6.7133417,0.6512229,7.393295,14.0,6.551387,0.62653595,7.2732654,0.14982383,0.013620348,0.095342435,2017-06-07 08:26:53,83.34385347726042
6.6846113,0.63206923,7.4028716,14.0,6.565007,0.62653595,7.259645,0.13620347,0.040861044,0.10896278,2017-06-07 08:26:54,84.29771114657585
6.7133417,0.6512229,7.374141,14.0,6.5786276,0.6401563,7.2460246,0.13620347,0.027240695,0.10896278,2017-06-07 08:26:55,84.1206208620266
6.751649,0.6799533,7.3549876,14.0,6.5786276,0.6537767,7.2460246,0.17706451,0.05448139,0.05448139,2017-06-07 08:26:56,83.34193388874887
6.703765,0.7086837,7.345411,17.0,6.6058683,0.6810174,7.218784,0.10896278,0.013620348,0.19068487,2017-06-07 08:26:57,62.21850227300817
6.6175733,0.6703765,7.4986396,17.0,6.6058683,0.6946377,7.218784,0.19068487,0.17706451,-0.05448139,2017-06-07 08:26:58,66.86381950189093
6.7803793,0.8523358,7.2783732,17.0,6.592248,0.74911916,7.232404,0.16344418,0.068101734,0.12258312,2017-06-07 08:26:59,81.87449372884853
6.7324953,0.81402856,7.374141,17.0,6.6058683,0.8036005,7.2051635,0.14982383,0.027240695,0.095342435,2017-06-07 08:27:00,82.09913265298518
6.7324953,0.79487497,7.326257,17.0,6.6194887,0.7899802,7.191543,0.08172209,-0.027240695,0.19068487,2017-06-07 08:27:01,61.92173447025731
6.6846113,0.7661445,7.393295,19.0,6.5786276,0.7627395,7.232404,0.095342435,-0.027240695,0.16344418,2017-06-07 08:27:02,75.29057909213395
6.7229185,0.8331822,7.326257,19.0,6.551387,0.7354987,7.259645,0.095342435,-0.027240695,0.14982383,2017-06-07 08:27:03,79.840117709952
6.7803793,0.81402856,7.326257,17.0,6.565007,0.7354987,7.2460246,0.16344418,0.068101734,0.05448139,2017-06-07 08:27:04,68.78671038746108
6.7133417,0.7182605,7.3645644,17.0,6.6194887,0.7899802,7.2051635,0.19068487,0.040861044,0.095342435,2017-06-07 08:27:05,76.48313324163153
6.0046577,0.16280572,8.101978,19.0,6.6194887,0.7899802,7.191543,-0.7899802,-0.84446156,1.0079057,2017-06-07 08:27:06,82.01395653614865
6.0716953,0.22026655,8.025364,17.0,6.1291566,0.35412902,7.6546354,-0.05448139,-0.16344418,0.32688835,2017-06-07 08:27:07,82.39143400738305
6.042965,0.17238252,8.063671,19.0,5.88399,0.17706451,7.8453197,0.13620347,-0.013620348,0.21792556,2017-06-07 08:27:08,62.292653853121124
6.5218053,0.019153614,7.4028716,25.0,5.979333,0.19068487,7.7772183,0.38136974,-0.36774936,-0.19068487,2017-06-07 08:27:09,84.69105603178214
6.5122285,-0.40222588,7.6614456,22.0,6.26536,0.013620348,7.5456724,0.17706451,-0.42223078,-0.05448139,2017-06-07 08:27:10,80.35441827388723
6.540959,-1.043872,7.3071036,19.0,6.3743224,-0.36774936,7.4503303,0.17706451,-0.667397,0.05448139,2017-06-07 08:27:11,76.90536907529543
6.445191,-0.9768343,7.6710224,19.0,6.483285,-0.87170225,7.300506,0.23154591,0.13620347,0.12258312,2017-06-07 08:27:12,82.00549638339055
6.3206925,-0.7182605,7.6710224,22.0,6.428804,-0.8172208,7.3686085,-0.068101734,0.14982383,0.3405087,2017-06-07 08:27:13,80.1735514978252
5.8705826,-0.47884035,8.149862,25.0,6.2244987,-0.6401563,7.559293,-0.05448139,0.08172209,0.19068487,2017-06-07 08:27:14,79.8951461782307
6.129156,-0.22026655,7.97748,25.0,6.0474343,-0.46309182,7.7091165,0.24516624,-0.068101734,-0.05448139,2017-06-07 08:27:15,81.49049793613416
7.297527,0.29688102,6.799533,19.0,6.197258,-0.21792556,7.600154,0.7218784,-0.095342435,-0.43585113,2017-06-07 08:27:16,83.89622333113456
6.943185,0.4309563,7.2209125,25.0,6.851035,0.027240695,7.0144787,0.10896278,0.43585113,0.21792556,2017-06-07 08:27:17,82.46644166380163
6.9048777,0.4405331,7.2209125,25.0,6.9191365,0.38136974,6.932757,-0.08172209,0.10896278,0.36774936,2017-06-07 08:27:18,84.58229962652204
6.9048777,0.50757074,7.240066,22.0,6.742072,0.53119355,7.096201,0.13620347,0.068101734,0.16344418,2017-06-07 08:27:19,83.0960540743402
6.895301,0.61291564,7.249643,22.0,6.742072,0.55843425,7.096201,0.17706451,0.05448139,0.10896278,2017-06-07 08:27:20,83.67022541684389
6.8665705,0.60333884,7.2783732,22.0,6.7556925,0.57205456,7.0825806,0.095342435,0.0,0.19068487,2017-06-07 08:27:21,58.67417943715131
6.847417,0.5746084,7.249643,19.0,6.7284517,0.57205456,7.1098213,0.095342435,0.013620348,0.19068487,2017-06-07 08:27:22,55.594805244573465
6.8186865,0.59376204,7.3071036,25.0,6.701211,0.55843425,7.137062,0.14982383,0.05448139,0.10896278,2017-06-07 08:27:23,61.11859514883804
6.8665705,0.59376204,7.2209125,19.0,6.701211,0.55843425,7.137062,0.10896278,-0.027240695,0.17706451,2017-06-07 08:27:24,81.54602237676208
6.789956,0.50757074,7.345411,19.0,6.7148314,0.55843425,7.1234417,0.10896278,0.0,0.14982383,2017-06-07 08:27:25,80.21736821622872
6.8761473,0.58418524,7.2304893,19.0,6.7148314,0.5448139,7.137062,0.12258312,0.027240695,0.16344418,2017-06-07 08:27:26,79.5241839230747
6.7708025,0.36391866,7.326257,25.0,6.7148314,0.5448139,7.1234417,0.17706451,0.040861044,0.08172209,2017-06-07 08:27:27,83.3912525660266
6.6654577,0.30645782,7.4507556,22.0,6.6739707,0.47671217,7.1643023,0.0,-0.17706451,0.25878662,2017-06-07 08:27:28,82.66199495154038
6.9048777,0.29688102,7.240066,19.0,6.551387,0.32688835,7.2868857,0.3949901,0.13620347,-0.2043052,2017-06-07 08:27:29,78.7999247153327
6.7229185,0.10534488,7.374141,22.0,6.565007,0.24516624,7.2868857,0.16344418,-0.12258312,0.095342435,2017-06-07 08:27:31,82.65812713211018
6.6367273,-0.2777274,7.4124484,22.0,6.592248,0.040861044,7.259645,-0.040861044,-0.2043052,0.2043052,2017-06-07 08:27:32,79.19679416653365
6.751649,-0.20111294,7.326257,22.0,6.5105257,-0.10896278,7.3277473,0.17706451,-0.12258312,0.05448139,2017-06-07 08:27:33,78.05830327504576
6.8282633,-0.06703765,7.249643,25.0,6.524146,-0.14982383,7.3277473,0.23154591,0.027240695,-0.027240695,2017-06-07 08:27:34,82.43592306952155
6.847417,-0.076614454,7.249643,22.0,6.551387,-0.13620347,7.300506,0.25878662,0.095342435,-0.013620348,2017-06-07 08:27:35,57.34174874377928
6.799533,-0.02873042,7.3166804,22.0,6.6331096,-0.08172209,7.232404,0.095342435,-0.027240695,0.10896278,2017-06-07 08:27:36,73.73940929598616
6.789956,-0.038307227,7.28795,22.0,6.6739707,-0.05448139,7.191543,0.08172209,0.0,0.13620347,2017-06-07 08:27:37,79.99717948588078
6.7229185,-0.08619126,7.3549876,22.0,6.6739707,-0.040861044,7.191543,0.095342435,0.013620348,0.13620347,2017-06-07 08:27:38,84.18113618436982
6.9623384,0.019153614,7.1730285,22.0,6.64673,-0.040861044,7.218784,0.29964766,0.095342435,-0.05448139,2017-06-07 08:27:39,83.67308261106601
6.694188,-0.06703765,7.4028716,28.0,6.701211,-0.040861044,7.1643023,0.013620348,-0.19068487,0.23154591,2017-06-07 08:27:40,78.46665272531652
6.981492,0.16280572,7.153875,25.0,6.7148314,-0.027240695,7.137062,0.23154591,0.08172209,0.040861044,2017-06-07 08:27:41,82.83738455283523
6.9048777,0.16280572,7.240066,25.0,6.7284517,-0.013620348,7.137062,0.13620347,-0.040861044,0.12258312,2017-06-07 08:27:42,82.00191107084646
6.991069,0.20111294,7.1634517,22.0,6.7556925,0.05448139,7.1098213,0.21792556,-0.05448139,0.05448139,2017-06-07 08:27:43,80.82220134608171
6.9240313,0.22984336,7.240066,22.0,6.7556925,0.05448139,7.096201,0.25878662,-0.05448139,0.013620348,2017-06-07 08:27:44,82.50519016060548
6.991069,0.06703765,7.153875,22.0,6.7965536,0.08172209,7.06896,0.21792556,0.13620347,0.068101734,2017-06-07 08:27:45,77.6950731836001
7.0485296,0.1340753,7.019799,22.0,6.8374147,0.10896278,7.028099,0.28602728,0.3405087,-0.040861044,2017-06-07 08:27:46,82.13100301469672
6.885724,0.48841715,7.2304893,22.0,6.8374147,0.3405087,7.028099,0.040861044,0.24516624,0.2043052,2017-06-07 08:27:47,56.993628359814885
6.895301,0.5363012,7.249643,22.0,6.7284517,0.49033248,7.1234417,0.16344418,0.013620348,0.10896278,2017-06-07 08:27:48,77.65976129840392
6.9048777,0.5554548,7.2209125,22.0,6.742072,0.50395286,7.1098213,0.16344418,0.027240695,0.10896278,2017-06-07 08:27:49,79.56244619638846
6.9527617,0.5554548,7.192182,22.0,6.769313,0.53119355,7.06896,0.17706451,0.0,0.095342435,2017-06-07 08:27:50,80.75947322206346
6.9144545,0.5267244,7.2304893,19.0,6.782933,0.53119355,7.05534,0.13620347,0.013620348,0.14982383,2017-06-07 08:27:51,83.57582393942175
6.9048777,0.545878,7.240066,22.0,6.782933,0.53119355,7.05534,0.10896278,0.0,0.17706451,2017-06-07 08:27:52,75.38016027589917
6.933608,0.5746084,7.192182,22.0,6.769313,0.53119355,7.0825806,0.17706451,0.05448139,0.068101734,2017-06-07 08:27:53,83.3791383424235
6.9240313,0.61291564,7.201759,22.0,6.7965536,0.58567494,7.0417194,0.12258312,-0.013620348,0.13620347,2017-06-07 08:27:54,83.39729862800135
6.943185,0.6703765,7.1730285,19.0,6.7965536,0.58567494,7.05534,0.12258312,-0.027240695,0.14982383,2017-06-07 08:27:55,77.74022661569111
6.943185,0.5650316,7.1826053,19.0,6.782933,0.58567494,7.05534,0.17706451,-0.013620348,0.10896278,2017-06-07 08:27:56,78.84996508588812
6.9048777,0.62249243,7.2113357,19.0,6.810174,0.61291564,7.028099,0.10896278,0.05448139,0.13620347,2017-06-07 08:27:57,83.15572132498036
6.9144545,0.61291564,7.2304893,19.0,6.7965536,0.62653595,7.0417194,0.10896278,0.0,0.17706451,2017-06-07 08:27:58,74.57428366158268
6.9527617,0.6512229,7.1634517,19.0,6.769313,0.61291564,7.06896,0.16344418,0.013620348,0.12258312,2017-06-07 08:27:59,77.77254300147865
6.9623384,0.641646,7.1826053,19.0,6.7965536,0.61291564,7.05534,0.14982383,-0.013620348,0.12258312,2017-06-07 08:28:00,75.28979412554622
6.9240313,0.62249243,7.2113357,19.0,6.810174,0.62653595,7.028099,0.095342435,-0.040861044,0.19068487,2017-06-07 08:28:01,82.31661123710332
6.9240313,0.59376204,7.201759,19.0,6.782933,0.61291564,7.05534,0.16344418,0.027240695,0.13620347,2017-06-07 08:28:02,78.5235498075142
6.9623384,0.6607997,7.1634517,19.0,6.782933,0.61291564,7.05534,0.19068487,0.0,0.10896278,2017-06-07 08:28:03,78.39569720401828
6.9623384,0.641646,7.1634517,22.0,6.810174,0.6401563,7.028099,0.13620347,0.0,0.13620347,2017-06-07 08:28:04,83.29932540057081
6.493075,-0.25857377,7.5082164,25.0,6.810174,0.5992953,7.0417194,-0.31326798,-0.87170225,0.47671217,2017-06-07 08:28:05,78.97622877556995
6.4643445,-0.10534488,7.5561004,25.0,6.4969053,0.068101734,7.3413677,-0.040861044,-0.23154591,0.2043052,2017-06-07 08:28:06,77.88845012916562
6.4739213,0.047884032,7.6135616,22.0,6.3334613,-0.2043052,7.477571,0.13620347,0.14982383,0.10896278,2017-06-07 08:28:07,83.22609546605827
6.5122285,0.047884032,7.536947,22.0,6.401563,-0.027240695,7.43671,0.095342435,0.08172209,0.13620347,2017-06-07 08:28:08,83.84627895212816
6.5218053,0.08619126,7.5561004,22.0,6.401563,0.027240695,7.43671,0.095342435,-0.027240695,0.095342435,2017-06-07 08:28:09,82.80450995481385
6.588843,0.06703765,7.489063,19.0,6.401563,0.040861044,7.43671,0.14982383,0.05448139,0.12258312,2017-06-07 08:28:10,69.06745012537382
6.5601125,0.095768064,7.52737,19.0,6.4424243,0.095342435,7.3958488,0.13620347,-0.027240695,0.095342435,2017-06-07 08:28:11,76.53035020411676
6.540959,0.047884032,7.517793,19.0,6.4424243,0.08172209,7.3958488,0.08172209,-0.013620348,0.16344418,2017-06-07 08:28:12,82.98754839216075
6.655881,-0.18195933,7.3549876,25.0,6.4424243,0.095342435,7.3958488,0.3405087,0.31326798,-0.08172209,2017-06-07 08:28:13,83.44966297252876
6.3781533,-0.21068975,7.6614456,25.0,6.4424243,0.013620348,7.3958488,0.0,-0.05448139,0.13620347,2017-06-07 08:28:14,82.46977726990104
6.3685765,-0.30645782,7.6135616,22.0,6.2789803,-0.19068487,7.532052,0.05448139,-0.28602728,0.12258312,2017-06-07 08:28:15,80.27002146864544
6.7229185,-0.24899697,7.345411,25.0,6.2517395,-0.35412902,7.5456724,0.42223078,0.08172209,-0.16344418,2017-06-07 08:28:17,82.00779679249987
7.192182,0.22984336,6.991069,25.0,6.524146,-0.21792556,7.314126,0.6810174,0.43585113,-0.3405087,2017-06-07 08:28:18,79.42616437286955
7.07726,0.12449849,7.07726,25.0,6.8374147,0.040861044,7.028099,0.23154591,0.17706451,0.05448139,2017-06-07 08:28:19,82.93107167416976
7.1730285,0.23942018,6.981492,22.0,6.8782754,0.095342435,6.9872384,0.25878662,0.12258312,0.0,2017-06-07 08:28:20,77.66004020159289
7.4028716,0.62249243,6.83784,22.0,6.9463773,0.16344418,6.9191365,0.3405087,0.29964766,-0.24516624,2017-06-07 08:28:21,78.19804630750623
7.2592196,0.5554548,6.895301,19.0,7.0825806,0.4086104,6.769313,0.17706451,0.14982383,0.13620347,2017-06-07 08:28:22,82.53739207600515
7.2687964,0.545878,6.8761473,19.0,7.0825806,0.51757324,6.769313,0.19068487,0.040861044,0.095342435,2017-06-07 08:28:23,78.11829617173645
7.3166804,0.59376204,6.8091097,19.0,7.1098213,0.53119355,6.742072,0.2043052,0.05448139,0.068101734,2017-06-07 08:28:24,84.42957387076083
7.345411,0.58418524,6.789956,19.0,7.1643023,0.55843425,6.6739707,0.19068487,0.013620348,0.12258312,2017-06-07 08:28:25,80.28433398510892
7.3166804,0.59376204,6.8091097,19.0,7.1779227,0.57205456,6.6603503,0.12258312,0.0,0.19068487,2017-06-07 08:28:26,84.08364668665159
7.3549876,0.62249243,6.7708025,19.0,7.1643023,0.58567494,6.6739707,0.17706451,0.027240695,0.10896278,2017-06-07 08:28:27,83.01688246746218
7.3071036,0.6991069,6.8282633,25.0,7.1779227,0.5992953,6.6603503,0.2043052,-0.05448139,0.08172209,2017-06-07 08:28:28,79.49637525513012
7.2687964,0.6703765,6.895301,22.0,7.1643023,0.5992953,6.6603503,0.10896278,0.013620348,0.14982383,2017-06-07 08:28:29,75.7031757747628
7.3549876,0.62249243,6.7708025,22.0,7.1506824,0.6537767,6.687591,0.17706451,0.068101734,0.10896278,2017-06-07 08:28:30,67.6144675117345
7.374141,0.7278373,6.7708025,22.0,7.1779227,0.667397,6.64673,0.19068487,-0.040861044,0.068101734,2017-06-07 08:28:31,64.65151017203567
7.28795,0.62249243,6.8282633,22.0,7.2051635,0.6810174,6.6194887,0.095342435,-0.040861044,0.19068487,2017-06-07 08:28:32,70.70466056350834
7.3549876,0.7278373,6.751649,22.0,7.1779227,0.6537767,6.64673,0.13620347,-0.013620348,0.13620347,2017-06-07 08:28:33,55.49512450491568
7.3071036,0.641646,6.7803793,19.0,7.191543,0.6537767,6.64673,0.14982383,0.08172209,0.13620347,2017-06-07 08:28:34,57.19064312489856
7.2209125,0.7086837,6.885724,19.0,7.1779227,0.667397,6.64673,0.068101734,0.040861044,0.19068487,2017-06-07 08:28:35,78.02455588316361
7.2209125,0.7278373,6.895301,19.0,7.0825806,0.667397,6.742072,0.12258312,0.040861044,0.16344418,2017-06-07 08:28:36,82.6389899051638
7.153875,1.1875241,6.8569937,19.0,7.05534,0.74911916,6.769313,0.08172209,0.4086104,0.095342435,2017-06-07 08:28:37,59.479867121900085
7.1347213,1.1971009,6.847417,19.0,7.0144787,1.0351465,6.769313,0.12258312,0.14982383,0.10896278,2017-06-07 08:28:38,78.64858620866455
7.1155677,1.1683705,6.885724,19.0,7.0144787,1.1441091,6.7556925,0.05448139,-0.027240695,0.2043052,2017-06-07 08:28:39,83.60571504545678
6.991069,0.81402856,7.1059904,22.0,6.9872384,1.0896277,6.7965536,-0.013620348,-0.14982383,0.24516624,2017-06-07 08:28:40,70.10986285660417
6.742072,1.0055647,7.28795,19.0,6.891896,0.8989429,6.9191365,-0.23154591,-0.068101734,0.51757324,2017-06-07 08:28:41,77.56140497861884
6.799533,1.0151415,7.2304893,17.0,6.7148314,0.95342433,7.0825806,0.05448139,0.013620348,0.19068487,2017-06-07 08:28:42,83.60364763184423
6.8091097,1.0055647,7.240066,19.0,6.6739707,0.98066497,7.1234417,0.12258312,0.027240695,0.10896278,2017-06-07 08:28:43,82.35873411277467
6.8569937,1.0342951,7.201759,19.0,6.6739707,0.98066497,7.1234417,0.16344418,0.027240695,0.095342435,2017-06-07 08:28:44,77.14373261724484
6.847417,1.043872,7.1826053,19.0,6.701211,1.0079057,7.0825806,0.13620347,0.013620348,0.12258312,2017-06-07 08:28:45,83.24267919455473
6.8282633,0.92895025,7.2687964,19.0,6.701211,1.0079057,7.0825806,0.13620347,0.040861044,0.08172209,2017-06-07 08:28:46,77.95029105558028
7.192182,0.51714754,7.067683,17.0,6.8237944,1.0487667,6.973618,0.21792556,-0.667397,0.42223078,2017-06-07 08:28:47,82.23928643888439
7.6231384,0.22984336,6.799533,22.0,7.05534,0.55843425,6.782933,0.44947144,-0.095342435,-0.13620347,2017-06-07 08:28:48,79.27490231431958
7.3549876,0.8619126,6.703765,17.0,7.218784,0.57205456,6.6058683,0.13620347,0.27240694,0.10896278,2017-06-07 08:28:49,58.50426361021741
7.383718,0.9864111,6.6654577,17.0,7.232404,0.8853226,6.565007,0.16344418,0.10896278,0.08172209,2017-06-07 08:28:50,71.37641696658334
7.441179,1.0630256,6.6175733,19.0,7.232404,0.91256326,6.565007,0.19068487,0.13620347,0.068101734,2017-06-07 08:28:51,83.1027667600887
7.4603324,1.0726024,6.540959,19.0,7.259645,1.0079057,6.5105257,0.21792556,0.08172209,-0.013620348,2017-06-07 08:28:52,81.59850617962812
7.422025,1.1204864,6.655881,19.0,7.2868857,1.0215261,6.483285,0.16344418,0.10896278,0.13620347,2017-06-07 08:28:53,68.3771612277379
7.4986396,1.2354081,6.4643445,17.0,7.314126,1.1032481,6.4424243,0.16344418,0.08172209,0.08172209,2017-06-07 08:28:54,77.73877837308126
7.4986396,1.2258313,6.4739213,17.0,7.3277473,1.1441091,6.4151835,0.16344418,0.08172209,0.040861044,2017-06-07 08:28:55,82.86690981866528
7.489063,1.2162545,6.4547677,17.0,7.3277473,1.1577295,6.401563,0.16344418,0.05448139,0.095342435,2017-06-07 08:28:56,79.63632935493273
7.489063,1.2162545,6.4547677,19.0,7.3413677,1.1713499,6.401563,0.16344418,0.05448139,0.068101734,2017-06-07 08:28:57,84.49716842358833
7.489063,1.1971009,6.5218053,19.0,7.3413677,1.1713499,6.401563,0.12258312,0.013620348,0.13620347,2017-06-07 08:28:58,83.21611809547178
7.489063,1.2258313,6.5026517,19.0,7.3413677,1.1713499,6.401563,0.14982383,0.040861044,0.08172209,2017-06-07 08:28:59,81.95333992508792
7.5082164,1.2162545,6.4547677,19.0,7.3413677,1.1849703,6.387943,0.16344418,0.013620348,0.068101734,2017-06-07 08:29:00,58.75956498578903
7.489063,1.1971009,6.5026517,22.0,7.354988,1.1985906,6.3743224,0.12258312,0.013620348,0.10896278,2017-06-07 08:29:02,81.34964734751195
7.517793,0.7469909,6.5984197,28.0,7.354988,1.1985906,6.3743224,0.29964766,0.38136974,-0.17706451,2017-06-07 08:29:03,59.30758010011281
6.991069,0.40222588,7.2113357,28.0,7.314126,0.84446156,6.469665,-0.040861044,-0.31326798,0.49033248,2017-06-07 08:29:04,77.45171828202082
6.8761473,0.4309563,7.3071036,22.0,7.000859,0.44947144,6.851035,-0.08172209,0.21792556,0.25878662,2017-06-07 08:29:05,83.81987299998093
6.991069,0.6895301,7.1347213,19.0,6.810174,0.55843425,7.0417194,0.24516624,0.013620348,0.05448139,2017-06-07 08:29:06,83.76206831514544
7.019799,0.6607997,7.086837,25.0,6.8237944,0.57205456,7.028099,0.23154591,0.10896278,0.013620348,2017-06-07 08:29:07,79.96477478394755
6.981492,0.62249243,7.153875,22.0,6.8374147,0.58567494,7.000859,0.13620347,0.013620348,0.13620347,2017-06-07 08:29:08,76.52567445695253
7.1730285,0.6512229,6.933608,22.0,6.8782754,0.62653595,6.973618,0.23154591,0.13620347,0.027240695,2017-06-07 08:29:09,77.80545897585799
7.1826053,0.7278373,6.895301,22.0,6.891896,0.6401563,6.9463773,0.24516624,0.10896278,0.05448139,2017-06-07 08:29:10,83.29081990510937
7.1251445,0.6991069,7.029376,22.0,6.973618,0.6810174,6.864655,0.19068487,0.08172209,0.05448139,2017-06-07 08:29:11,62.76369680241919
7.07726,0.7278373,7.0006456,19.0,6.9872384,0.6810174,6.851035,0.14982383,-0.10896278,0.16344418,2017-06-07 08:29:12,61.570473657274285
7.153875,0.78529817,6.943185,22.0,6.9872384,0.6810174,6.851035,0.12258312,-0.05448139,0.16344418,2017-06-07 08:29:13,58.7502202582714
7.0485296,0.62249243,7.0964136,25.0,6.9872384,0.6810174,6.851035,0.24516624,-0.08172209,0.040861044,2017-06-07 08:29:14,78.73338982680562
7.144298,0.6895301,6.943185,25.0,6.9872384,0.6946377,6.851035,0.10896278,-0.05448139,0.16344418,2017-06-07 08:29:15,84.18653727872157
7.1155677,0.009576807,6.981492,28.0,6.9599977,0.6810174,6.8782754,0.25878662,-0.51757324,0.42223078,2017-06-07 08:29:16,81.53477554880024
6.2249246,1.9632454,7.517793,31.0,6.701211,0.44947144,7.1506824,-0.62653595,1.0896277,-2.083913,2017-06-07 08:29:17,84.42801332623445
6.579266,-0.40222588,7.642292,25.0,6.3198414,1.0079057,7.43671,-0.21792556,-1.2803127,0.46309182,2017-06-07 08:29:18,84.19653373713561
6.7803793,-0.4309563,7.422025,22.0,6.0065737,0.2043052,7.7499776,0.8989429,-0.6946377,-0.70825803,2017-06-07 08:29:19,81.87978708426904
6.646304,-0.16280572,7.536947,22.0,6.2108784,-0.25878662,7.5865335,0.3949901,0.095342435,-0.13620347,2017-06-07 08:29:20,81.94670027164788
6.4260373,0.047884032,7.651869,22.0,6.360702,-0.14982383,7.4639506,0.29964766,0.12258312,-0.095342435,2017-06-07 08:29:21,71.81639242539059
7.0102224,-0.22026655,7.1155677,19.0,6.469665,-0.040861044,7.3686085,0.3949901,-0.095342435,-0.14982383,2017-06-07 08:29:22,73.3469981540833
6.7803793,-0.10534488,7.345411,22.0,6.687591,-0.08172209,7.1643023,0.095342435,0.027240695,0.13620347,2017-06-07 08:29:23,71.87290191840486
6.8282633,-0.1436521,7.249643,22.0,6.701211,-0.095342435,7.1643023,0.13620347,-0.027240695,0.068101734,2017-06-07 08:29:24,75.33552175853113
6.83784,-0.18195933,7.249643,22.0,6.687591,-0.095342435,7.1643023,0.14982383,-0.068101734,0.10896278,2017-06-07 08:29:25,74.31033928123173
6.83784,-0.16280572,7.3071036,22.0,6.687591,-0.095342435,7.1643023,0.16344418,-0.068101734,0.095342435,2017-06-07 08:29:26,82.97985940922901
4.9895163,-1.2641385,9.069236,22.0,6.8782754,-0.24516624,6.9872384,-0.3949901,-1.0079057,-0.08172209,2017-06-07 08:29:27,76.76620460488257
8.437167,-1.0151415,7.73806,19.0,6.2244987,-0.95342433,7.518432,0.8580819,0.84446156,0.3949901,2017-06-07 08:29:28,69.56082868151297
9.950302,-0.32561144,3.4476504,22.0,7.1098213,-0.84446156,6.701211,2.7104492,0.58567494,-2.2473574,2017-06-07 08:29:29,77.64854926615092
9.662998,0.92895025,-1.541866,22.0,9.180114,-0.24516624,3.4187074,0.12258312,0.939804,-4.8488436,2017-06-07 08:29:30,82.36312524389461
8.781932,1.9632454,2.4229321,53.0,9.697687,0.95342433,-0.99428535,-3.4323275,1.1168685,2.5197642,2017-06-07 08:29:31,76.02703742019904
10.362105,-0.4309563,1.8866309,19.0,9.752169,0.91256326,-0.24516624,-0.32688835,-0.84446156,2.1520147,2017-06-07 08:29:32,79.99905115020138
9.634268,-0.12449849,2.0015526,22.0,9.779409,0.50395286,0.10896278,0.58567494,-0.92618364,1.7706451,2017-06-07 08:29:33,67.01867242792642
9.3661175,-0.15322891,3.1603463,25.0,9.779409,0.50395286,0.10896278,0.58567494,-0.92618364,1.7706451,2017-06-07 08:29:34,77.07140140839658
9.356541,-0.1340753,3.1603463,25.0,9.779409,0.50395286,0.10896278,0.58567494,-0.92618364,1.7706451,2017-06-07 08:29:35,81.90880272559995
9.375694,-0.1436521,3.1507695,22.0,9.779409,0.50395286,0.10896278,0.58567494,-0.92618364,1.7706451,2017-06-07 08:29:36,74.70693998509057
9.356541,-0.1436521,3.1507695,22.0,9.779409,0.50395286,0.10896278,0.58567494,-0.92618364,1.7706451,2017-06-07 08:29:37,71.829990941236
9.356541,-0.1436521,3.1507695,22.0,9.779409,0.50395286,0.10896278,0.58567494,-0.92618364,1.7706451,2017-06-07 08:29:38,81.8899155241268
9.3661175,-0.1436521,3.1603463,22.0,9.779409,0.50395286,0.10896278,0.58567494,-0.92618364,1.7706451,2017-06-07 08:29:39,78.0744538608342
9.356541,-0.16280572,3.1507695,22.0,9.779409,0.50395286,0.10896278,0.58567494,-0.92618364,1.7706451,2017-06-07 08:29:40,83.34188718261389
9.3661175,-0.1436521,3.1603463,22.0,9.779409,0.50395286,0.10896278,0.58567494,-0.92618364,1.7706451,2017-06-07 08:29:41,83.2651299183299
9.375694,-0.1436521,3.1411927,22.0,9.779409,0.50395286,0.10896278,0.58567494,-0.92618364,1.7706451,2017-06-07 08:29:42,81.97063488881662
9.375694,-0.15322891,3.1603463,22.0,9.779409,0.50395286,0.10896278,0.58567494,-0.92618364,1.7706451,2017-06-07 08:29:43,82.80596354635512
9.356541,-0.15322891,3.1603463,22.0,9.779409,0.50395286,0.10896278,0.58567494,-0.92618364,1.7706451,2017-06-07 08:29:44,71.9074265240599
9.356541,-0.1340753,3.1507695,22.0,9.779409,0.50395286,0.10896278,0.58567494,-0.92618364,1.7706451,2017-06-07 08:29:46,79.51682620255629
9.356541,-0.1340753,3.1603463,22.0,9.779409,0.50395286,0.10896278,0.58567494,-0.92618364,1.7706451,2017-06-07 08:29:47,71.07899931171485
9.356541,-0.1436521,3.1603463,22.0,9.779409,0.50395286,0.10896278,0.58567494,-0.92618364,1.7706451,2017-06-07 08:29:48,81.23691382550275
9.346964,-0.1436521,3.1603463,22.0,9.779409,0.50395286,0.10896278,0.58567494,-0.92618364,1.7706451,2017-06-07 08:29:49,78.71034033469996
9.3661175,-0.15322891,3.169923,22.0,9.779409,0.50395286,0.10896278,0.58567494,-0.92618364,1.7706451,2017-06-07 08:29:50,84.66670118510055
9.356541,-0.1436521,3.1794999,25.0,9.779409,0.50395286,0.10896278,0.58567494,-0.92618364,1.7706451,2017-06-07 08:29:51,84.99868763189136
9.356541,-0.1340753,3.1603463,25.0,9.779409,0.50395286,0.10896278,0.58567494,-0.92618364,1.7706451,2017-06-07 08:29:52,83.30788979019471
9.3661175,-0.1436521,3.169923,25.0,9.779409,0.50395286,0.10896278,0.58567494,-0.92618364,1.7706451,2017-06-07 08:29:53,55.53619046950303
9.356541,-0.15322891,3.1507695,25.0,9.779409,0.50395286,0.10896278,0.58567494,-0.92618364,1.7706451,2017-06-07 08:29:54,79.02161303605492
9.346964,-0.1340753,3.169923,25.0,9.779409,0.50395286,0.10896278,0.58567494,-0.92618364,1.7706451,2017-06-07 08:29:55,84.91968226290295
9.356541,-0.1436521,3.1603463,22.0,9.779409,0.50395286,0.10896278,0.58567494,-0.92618364,1.7706451,2017-06-07 08:29:56,83.19490705575706
9.356541,-0.1436521,3.1603463,22.0,9.779409,0.50395286,0.10896278,0.58567494,-0.92618364,1.7706451,2017-06-07 08:29:57,79.92441669999175
9.356541,-0.1436521,3.169923,22.0,9.779409,0.50395286,0.10896278,0.58567494,-0.92618364,1.7706451,2017-06-07 08:29:58,84.70896929128943
9.346964,-0.1340753,3.1603463,25.0,9.779409,0.50395286,0.10896278,0.58567494,-0.92618364,1.7706451,2017-06-07 08:29:59,82.8052257224486
9.3661175,-0.1436521,3.169923,25.0,9.779409,0.50395286,0.10896278,0.58567494,-0.92618364,1.7706451,2017-06-07 08:30:00,78.18512049792
9.3661175,-0.1436521,3.169923,25.0,9.779409,0.50395286,0.10896278,0.58567494,-0.92618364,1.7706451,2017-06-07 08:30:01,83.8503453087622
9.3661175,-0.1340753,3.1603463,25.0,9.779409,0.50395286,0.10896278,0.58567494,-0.92618364,1.7706451,2017-06-07 08:30:02,81.3507896785413
9.3661175,-0.15322891,3.169923,25.0,9.779409,0.50395286,0.10896278,0.58567494,-0.92618364,1.7706451,2017-06-07 08:30:03,82.26303566565873
9.356541,-0.1436521,3.169923,25.0,9.779409,0.50395286,0.10896278,0.58567494,-0.92618364,1.7706451,2017-06-07 08:30:04,77.53302110306942
9.3661175,-0.1340753,3.169923,25.0,9.779409,0.50395286,0.10896278,0.58567494,-0.92618364,1.7706451,2017-06-07 08:30:05,83.75641249427849
9.3661175,-0.1436521,3.169923,25.0,9.779409,0.50395286,0.10896278,0.58567494,-0.92618364,1.7706451,2017-06-07 08:30:06,78.00600888108264
9.356541,-0.1436521,3.1603463,19.0,9.779409,0.50395286,0.10896278,0.58567494,-0.92618364,1.7706451,2017-06-07 08:30:07,75.10084660312393
9.356541,-0.1436521,3.1603463,22.0,9.779409,0.50395286,0.10896278,0.58567494,-0.92618364,1.7706451,2017-06-07 08:30:08,74.05157635659349
9.346964,-0.1340753,3.1507695,19.0,9.779409,0.50395286,0.10896278,0.58567494,-0.92618364,1.7706451,2017-06-07 08:30:09,78.02151047609729
9.356541,-0.1436521,3.1603463,19.0,9.779409,0.50395286,0.10896278,0.58567494,-0.92618364,1.7706451,2017-06-07 08:30:10,83.87946695673877
9.3661175,-0.1340753,3.1794999,19.0,9.779409,0.50395286,0.10896278,0.58567494,-0.92618364,1.7706451,2017-06-07 08:30:11,83.64300797171478
9.3661175,-0.15322891,3.1603463,25.0,9.779409,0.50395286,0.10896278,0.58567494,-0.92618364,1.7706451,2017-06-07 08:30:12,83.46750377448299
9.356541,-0.1340753,3.169923,25.0,9.779409,0.50395286,0.10896278,0.58567494,-0.92618364,1.7706451,2017-06-07 08:30:13,83.96663984736173
9.3661175,-0.1340753,3.169923,25.0,9.779409,0.50395286,0.10896278,0.58567494,-0.92618364,1.7706451,2017-06-07 08:30:14,81.54051434296613
9.3661175,-0.15322891,3.1507695,25.0,9.779409,0.50395286,0.10896278,0.58567494,-0.92618364,1.7706451,2017-06-07 08:30:15,79.71272469429019
9.346964,-0.1340753,3.169923,17.0,9.779409,0.50395286,0.10896278,0.58567494,-0.92618364,1.7706451,2017-06-07 08:30:16,75.64399878420552
9.3661175,-0.1340753,3.1603463,22.0,9.779409,0.50395286,0.10896278,0.58567494,-0.92618364,1.7706451,2017-06-07 08:30:17,82.22611301657159
9.356541,-0.15322891,3.1507695,25.0,9.779409,0.50395286,0.10896278,0.58567494,-0.92618364,1.7706451,2017-06-07 08:30:18,82.21816410989118
9.356541,-0.1436521,3.1603463,22.0,9.779409,0.50395286,0.10896278,0.58567494,-0.92618364,1.7706451,2017-06-07 08:30:19,77.80345674643152
9.356541,-0.1436521,3.1507695,22.0,9.779409,0.50395286,0.10896278,0.58567494,-0.92618364,1.7706451,2017-06-07 08:30:20,57.17587042012149
9.3661175,-0.1436521,3.169923,22.0,9.779409,0.50395286,0.10896278,0.58567494,-0.92618364,1.7706451,2017-06-07 08:30:21,77.43786315616785
9.356541,-0.1340753,3.169923,22.0,9.779409,0.50395286,0.10896278,0.58567494,-0.92618364,1.7706451,2017-06-07 08:30:22,81.9017762054761
9.375694,-0.1436521,3.169923,22.0,9.779409,0.50395286,0.10896278,0.58567494,-0.92618364,1.7706451,2017-06-07 08:30:23,56.68518738881176
9.3661175,-0.15322891,3.169923,22.0,9.779409,0.50395286,0.10896278,0.58567494,-0.92618364,1.7706451,2017-06-07 08:30:24,59.67678616379382
9.356541,-0.15322891,3.1603463,22.0,9.779409,0.50395286,0.10896278,0.58567494,-0.92618364,1.7706451,2017-06-07 08:30:25,70.96323927422836
9.3661175,-0.1340753,3.1603463,22.0,9.779409,0.50395286,0.10896278,0.58567494,-0.92618364,1.7706451,2017-06-07 08:30:26,68.82045504750376
9.356541,-0.1340753,3.1603463,22.0,9.779409,0.50395286,0.10896278,0.58567494,-0.92618364,1.7706451,2017-06-07 08:30:27,66.04685900223002
9.3661175,-0.1340753,3.1603463,22.0,9.779409,0.50395286,0.10896278,0.58567494,-0.92618364,1.7706451,2017-06-07 08:30:28,77.49343517061841
9.346964,-0.1340753,3.1507695,25.0,9.779409,0.50395286,0.10896278,0.58567494,-0.92618364,1.7706451,2017-06-07 08:30:29,83.43538261713311
9.356541,-0.1340753,3.1603463,25.0,9.779409,0.50395286,0.10896278,0.58567494,-0.92618364,1.7706451,2017-06-07 08:30:31,82.388535918313
9.3661175,-0.1436521,3.169923,25.0,9.779409,0.50395286,0.10896278,0.58567494,-0.92618364,1.7706451,2017-06-07 08:30:32,84.10810111650801
9.346964,-0.1340753,3.169923,25.0,9.779409,0.50395286,0.10896278,0.58567494,-0.92618364,1.7706451,2017-06-07 08:30:33,83.59122498142571
9.356541,-0.1436521,3.1603463,25.0,9.779409,0.50395286,0.10896278,0.58567494,-0.92618364,1.7706451,2017-06-07 08:30:34,81.97422928917925
9.356541,-0.1436521,3.1794999,25.0,9.779409,0.50395286,0.10896278,0.58567494,-0.92618364,1.7706451,2017-06-07 08:30:35,83.7717765620644
9.356541,-0.1436521,3.169923,22.0,9.779409,0.50395286,0.10896278,0.58567494,-0.92618364,1.7706451,2017-06-07 08:30:36,77.793382195201
9.3661175,-0.15322891,3.169923,22.0,9.779409,0.50395286,0.10896278,0.58567494,-0.92618364,1.7706451,2017-06-07 08:30:37,83.12631062341872
9.3661175,-0.1436521,3.1794999,25.0,9.779409,0.50395286,0.10896278,0.58567494,-0.92618364,1.7706451,2017-06-07 08:30:38,81.80822622782777
9.356541,-0.1340753,3.169923,22.0,9.779409,0.50395286,0.10896278,0.58567494,-0.92618364,1.7706451,2017-06-07 08:30:39,57.85719775153282
9.356541,-0.15322891,3.169923,22.0,9.779409,0.50395286,0.10896278,0.58567494,-0.92618364,1.7706451,2017-06-07 08:30:40,56.65816199958652
9.356541,-0.1436521,3.1507695,22.0,9.779409,0.50395286,0.10896278,0.58567494,-0.92618364,1.7706451,2017-06-07 08:30:41,77.95023561204884
9.3661175,-0.15322891,3.169923,22.0,9.779409,0.50395286,0.10896278,0.58567494,-0.92618364,1.7706451,2017-06-07 08:30:42,82.54728705339373
9.356541,-0.1340753,3.1603463,22.0,9.779409,0.50395286,0.10896278,0.58567494,-0.92618364,1.7706451,2017-06-07 08:30:43,79.01594185536852
9.3661175,-0.1340753,3.1603463,22.0,9.779409,0.50395286,0.10896278,0.58567494,-0.92618364,1.7706451,2017-06-07 08:30:44,84.22924341949249
9.356541,-0.1436521,3.1603463,22.0,9.779409,0.50395286,0.10896278,0.58567494,-0.92618364,1.7706451,2017-06-07 08:30:45,85.22540471755336
9.356541,-0.1436521,3.1603463,22.0,9.779409,0.50395286,0.10896278,0.58567494,-0.92618364,1.7706451,2017-06-07 08:30:46,77.17987814942164
9.3661175,-0.1436521,3.169923,22.0,9.779409,0.50395286,0.10896278,0.58567494,-0.92618364,1.7706451,2017-06-07 08:30:47,81.42751332202485
9.375694,-0.15322891,3.1603463,22.0,9.779409,0.50395286,0.10896278,0.58567494,-0.92618364,1.7706451,2017-06-07 08:30:48,83.0153732264362
9.356541,-0.1340753,3.169923,22.0,9.779409,0.50395286,0.10896278,0.58567494,-0.92618364,1.7706451,2017-06-07 08:30:49,79.32099636856944
9.356541,-0.15322891,3.1794999,22.0,9.779409,0.50395286,0.10896278,0.58567494,-0.92618364,1.7706451,2017-06-07 08:30:50,82.71923866215262
9.3661175,-0.1436521,3.1794999,22.0,9.779409,0.50395286,0.10896278,0.58567494,-0.92618364,1.7706451,2017-06-07 08:30:51,80.42008681392274
9.356541,-0.1436521,3.169923,22.0,9.779409,0.50395286,0.10896278,0.58567494,-0.92618364,1.7706451,2017-06-07 08:30:52,80.93113600166157
9.346964,-0.1340753,3.1794999,22.0,9.779409,0.50395286,0.10896278,0.58567494,-0.92618364,1.7706451,2017-06-07 08:30:53,77.29776280808963
9.356541,-0.1340753,3.1603463,22.0,9.779409,0.50395286,0.10896278,0.58567494,-0.92618364,1.7706451,2017-06-07 08:30:54,84.06131247703738
9.3661175,-0.1340753,3.1794999,22.0,9.779409,0.50395286,0.10896278,0.58567494,-0.92618364,1.7706451,2017-06-07 08:30:55,84.4158263691317
9.356541,-0.15322891,3.1603463,22.0,9.779409,0.50395286,0.10896278,0.58567494,-0.92618364,1.7706451,2017-06-07 08:30:56,83.30670243435883
9.356541,-0.1436521,3.169923,22.0,9.779409,0.50395286,0.10896278,0.58567494,-0.92618364,1.7706451,2017-06-07 08:30:57,77.27124152760243
9.3661175,-0.1436521,3.1603463,22.0,9.779409,0.50395286,0.10896278,0.58567494,-0.92618364,1.7706451,2017-06-07 08:30:58,76.04700287930898
9.3661175,-0.1340753,3.1603463,22.0,9.779409,0.50395286,0.10896278,0.58567494,-0.92618364,1.7706451,2017-06-07 08:30:59,79.6468999083703
9.3661175,-0.1340753,3.169923,22.0,9.779409,0.50395286,0.10896278,0.58567494,-0.92618364,1.7706451,2017-06-07 08:31:00,84.1258735930682
9.3661175,-0.1436521,3.1507695,22.0,9.779409,0.50395286,0.10896278,0.58567494,-0.92618364,1.7706451,2017-06-07 08:31:01,84.23908362903981
9.3661175,-0.16280572,3.169923,22.0,9.779409,0.50395286,0.10896278,0.58567494,-0.92618364,1.7706451,2017-06-07 08:31:02,82.47948433312143
9.3661175,-0.1436521,3.169923,19.0,9.779409,0.50395286,0.10896278,0.58567494,-0.92618364,1.7706451,2017-06-07 08:31:03,78.00912500475067
9.356541,-0.15322891,3.169923,19.0,9.779409,0.50395286,0.10896278,0.58567494,-0.92618364,1.7706451,2017-06-07 08:31:04,84.17391929303582
9.3661175,-0.15322891,3.1603463,19.0,9.779409,0.50395286,0.10896278,0.58567494,-0.92618364,1.7706451,2017-06-07 08:31:05,82.7642896986353
9.3661175,-0.1436521,3.1794999,19.0,9.779409,0.50395286,0.10896278,0.58567494,-0.92618364,1.7706451,2017-06-07 08:31:06,82.8444155796025
9.356541,-0.1340753,3.1603463,19.0,9.779409,0.50395286,0.10896278,0.58567494,-0.92618364,1.7706451,2017-06-07 08:31:07,80.5653174804474
9.002198,-0.12449849,4.1276035,19.0,9.779409,0.50395286,0.10896278,0.58567494,-0.92618364,1.7706451,2017-06-07 08:31:08,77.66265562068016
9.011775,-0.1436521,4.0701427,19.0,9.779409,0.50395286,0.10896278,0.58567494,-0.92618364,1.7706451,2017-06-07 08:31:09,74.30193554629489
9.011775,-0.11492168,4.0797195,19.0,8.948568,0.040861044,4.0180025,0.068101734,-0.10896278,0.068101734,2017-06-07 08:31:10,80.18084867881264
9.002198,-0.12449849,4.0892963,19.0,8.934948,-0.10896278,4.031623,0.068101734,-0.013620348,0.068101734,2017-06-07 08:31:11,78.40655658882153
9.002198,-0.1340753,4.0892963,22.0,8.921328,-0.12258312,4.0588636,0.068101734,0.0,0.013620348,2017-06-07 08:31:12,83.85380648111918
9.002198,-0.11492168,4.0892963,25.0,8.921328,-0.10896278,4.0588636,0.08172209,0.0,0.027240695,2017-06-07 08:31:13,83.9013597788629
8.992621,-0.12449849,4.0797195,25.0,8.921328,-0.12258312,4.0452433,0.05448139,0.013620348,0.040861044,2017-06-07 08:31:15,81.84095809329375
9.002198,-0.11492168,4.10845,22.0,8.934948,-0.12258312,4.031623,0.068101734,0.0,0.05448139,2017-06-07 08:31:16,80.68894451678119
9.011775,-0.12449849,4.0797195,22.0,8.934948,-0.12258312,4.031623,0.068101734,0.013620348,0.068101734,2017-06-07 08:31:17,74.94573039849239
9.011775,-0.1340753,4.0797195,22.0,8.934948,-0.10896278,4.031623,0.08172209,0.0,0.05448139,2017-06-07 08:31:18,67.14117698597988
9.011775,-0.1340753,4.0797195,22.0,8.921328,-0.12258312,4.072484,0.08172209,0.0,0.027240695,2017-06-07 08:31:19,73.01915784927219
9.021352,-0.12449849,4.098873,22.0,8.921328,-0.12258312,4.0588636,0.08172209,0.0,0.013620348,2017-06-07 08:31:20,82.02685286194345
9.002198,-0.1340753,4.0701427,22.0,8.921328,-0.12258312,4.0588636,0.095342435,0.0,0.027240695,2017-06-07 08:31:21,80.67306515253506
9.011775,-0.12449849,4.0701427,22.0,8.921328,-0.12258312,4.0588636,0.068101734,0.0,0.013620348,2017-06-07 08:31:22,78.48231764858136
9.002198,-0.1340753,4.0892963,25.0,8.921328,-0.10896278,4.0588636,0.095342435,-0.013620348,0.013620348,2017-06-07 08:31:23,83.49456072006099
9.002198,-0.1340753,4.0701427,19.0,8.934948,-0.10896278,4.031623,0.068101734,-0.013620348,0.05448139,2017-06-07 08:31:24,79.45167221650989
9.011775,-0.1340753,4.0797195,22.0,8.934948,-0.12258312,4.0452433,0.068101734,0.0,0.040861044,2017-06-07 08:31:25,84.0047617764141
9.002198,-0.1340753,4.0892963,22.0,8.934948,-0.095342435,4.0452433,0.068101734,-0.027240695,0.040861044,2017-06-07 08:31:26,82.4668845079627
9.002198,-0.1340753,4.098873,19.0,8.934948,-0.095342435,4.031623,0.08172209,-0.027240695,0.05448139,2017-06-07 08:31:27,64.64850755405979
9.002198,-0.12449849,4.0892963,19.0,8.921328,-0.12258312,4.0452433,0.08172209,0.0,0.05448139,2017-06-07 08:31:28,70.06938016695278
9.002198,-0.11492168,4.098873,19.0,8.921328,-0.12258312,4.0588636,0.095342435,0.0,0.027240695,2017-06-07 08:31:29,78.03969240991182
9.011775,-0.11492168,4.0797195,22.0,8.921328,-0.10896278,4.0588636,0.095342435,-0.013620348,0.013620348,2017-06-07 08:31:30,82.08582596181492
9.011775,-0.12449849,4.0892963,22.0,8.921328,-0.10896278,4.0588636,0.08172209,0.0,0.040861044,2017-06-07 08:31:31,80.22844995261153
9.002198,-0.1340753,4.0892963,22.0,8.934948,-0.12258312,4.0452433,0.068101734,0.0,0.027240695,2017-06-07 08:31:32,73.21738351204087
8.992621,-0.11492168,4.0797195,22.0,8.921328,-0.10896278,4.0452433,0.08172209,-0.013620348,0.040861044,2017-06-07 08:31:33,81.59331228082367
8.992621,-0.12449849,4.0797195,22.0,8.921328,-0.12258312,4.0588636,0.08172209,0.0,0.013620348,2017-06-07 08:31:34,83.14022219556934
9.002198,-0.11492168,4.098873,19.0,8.921328,-0.10896278,4.0588636,0.068101734,0.0,0.027240695,2017-06-07 08:31:35,57.49296698404193
9.011775,-0.1340753,4.0892963,19.0,8.921328,-0.10896278,4.0588636,0.068101734,-0.013620348,0.027240695,2017-06-07 08:31:36,72.77756091936327
9.011775,-0.11492168,4.0797195,19.0,8.921328,-0.10896278,4.072484,0.08172209,-0.013620348,0.013620348,2017-06-07 08:31:37,81.81946574281088
8.992621,-0.12449849,4.098873,19.0,8.921328,-0.10896278,4.072484,0.08172209,-0.013620348,0.027240695,2017-06-07 08:31:38,65.0588797937887
9.002198,-0.11492168,4.098873,19.0,8.921328,-0.12258312,4.0588636,0.095342435,0.0,0.027240695,2017-06-07 08:31:39,83.87027296905686
9.002198,-0.12449849,4.0892963,22.0,8.921328,-0.10896278,4.0588636,0.08172209,-0.013620348,0.040861044,2017-06-07 08:31:40,84.17580346201136
8.992621,-0.1340753,4.0892963,22.0,8.921328,-0.12258312,4.0588636,0.08172209,0.0,0.040861044,2017-06-07 08:31:41,83.470489588953
8.992621,-0.10534488,4.098873,25.0,8.934948,-0.12258312,4.0452433,0.068101734,0.0,0.05448139,2017-06-07 08:31:42,80.87975526317103
9.011775,-0.12449849,4.0797195,25.0,8.921328,-0.12258312,4.0452433,0.068101734,0.0,0.027240695,2017-06-07 08:31:43,81.32158486815884
8.992621,-0.12449849,4.0892963,25.0,8.921328,-0.10896278,4.072484,0.08172209,-0.013620348,0.027240695,2017-06-07 08:31:44,80.68478425109232
9.011775,-0.12449849,4.098873,28.0,8.921328,-0.10896278,4.072484,0.095342435,-0.013620348,0.027240695,2017-06-07 08:31:45,57.63988733559685
9.002198,-0.12449849,4.0892963,25.0,8.921328,-0.10896278,4.072484,0.095342435,-0.013620348,0.0,2017-06-07 08:31:46,56.99723249317128
8.992621,-0.11492168,4.10845,25.0,8.921328,-0.10896278,4.072484,0.095342435,0.0,0.013620348,2017-06-07 08:31:47,79.07827568402945
8.992621,-0.11492168,4.0797195,28.0,8.921328,-0.10896278,4.072484,0.095342435,-0.013620348,0.027240695,2017-06-07 08:31:48,83.4709742330928
9.011775,-0.12449849,4.098873,31.0,8.921328,-0.10896278,4.072484,0.068101734,0.0,0.027240695,2017-06-07 08:31:49,56.812752939450554
8.992621,-0.12449849,4.0892963,28.0,8.921328,-0.12258312,4.0588636,0.095342435,0.0,0.027240695,2017-06-07 08:31:50,65.88017927679404
8.992621,-0.12449849,4.0797195,31.0,8.921328,-0.10896278,4.0588636,0.095342435,-0.013620348,0.040861044,2017-06-07 08:31:51,83.34814767223355
8.992621,-0.11492168,4.098873,31.0,8.921328,-0.10896278,4.0452433,0.08172209,-0.013620348,0.040861044,2017-06-07 08:31:52,77.2781881614749
9.002198,-0.11492168,4.098873,31.0,8.921328,-0.10896278,4.0588636,0.08172209,0.0,0.040861044,2017-06-07 08:31:53,80.50275195128182
9.011775,-0.12449849,4.098873,31.0,8.934948,-0.12258312,4.0452433,0.068101734,0.0,0.040861044,2017-06-07 08:31:54,84.12519078314878
9.002198,-0.11492168,4.0892963,34.0,8.934948,-0.12258312,4.0452433,0.068101734,0.0,0.040861044,2017-06-07 08:31:55,80.77723872414913
9.002198,-0.12449849,4.098873,25.0,8.934948,-0.13620347,4.031623,0.05448139,0.027240695,0.05448139,2017-06-07 08:31:56,76.2301596183051
9.002198,-0.12449849,4.0797195,28.0,8.934948,-0.12258312,4.031623,0.068101734,0.0,0.05448139,2017-06-07 08:31:57,80.77755743132266
9.002198,-0.12449849,4.0892963,31.0,8.921328,-0.10896278,4.0588636,0.08172209,-0.013620348,0.013620348,2017-06-07 08:31:58,78.50731579923328
9.011775,-0.11492168,4.098873,31.0,8.921328,-0.10896278,4.0588636,0.095342435,0.0,0.040861044,2017-06-07 08:31:59,77.67102607606665
8.992621,-0.12449849,4.098873,31.0,8.921328,-0.10896278,4.0588636,0.08172209,0.0,0.027240695,2017-06-07 08:32:01,74.12178884682693
9.011775,-0.1340753,4.098873,28.0,8.921328,-0.10896278,4.0588636,0.095342435,-0.013620348,0.013620348,2017-06-07 08:32:02,80.33950390373215
9.011775,-0.1340753,4.0892963,34.0,8.921328,-0.12258312,4.0588636,0.08172209,0.013620348,0.040861044,2017-06-07 08:32:03,82.07524785083274
9.002198,-0.12449849,4.098873,34.0,8.921328,-0.12258312,4.0452433,0.08172209,0.0,0.027240695,2017-06-07 08:32:04,79.37004782147142
9.002198,-0.1340753,4.0797195,34.0,8.921328,-0.10896278,4.0588636,0.095342435,-0.013620348,0.040861044,2017-06-07 08:32:05,78.74607880744755
9.002198,-0.12449849,4.098873,34.0,8.921328,-0.12258312,4.0588636,0.08172209,0.013620348,0.040861044,2017-06-07 08:32:06,82.15756124347152
9.011775,-0.1340753,4.0797195,34.0,8.921328,-0.10896278,4.0588636,0.08172209,-0.013620348,0.027240695,2017-06-07 08:32:07,84.46925858414558
9.002198,-0.11492168,4.0892963,34.0,8.921328,-0.12258312,4.0452433,0.095342435,0.0,0.040861044,2017-06-07 08:32:08,78.2405537265027
9.002198,-0.12449849,4.0892963,34.0,8.921328,-0.12258312,4.0452433,0.095342435,0.0,0.027240695,2017-06-07 08:32:09,78.6128114335077
9.002198,-0.11492168,4.0797195,34.0,8.921328,-0.10896278,4.072484,0.095342435,-0.013620348,0.013620348,2017-06-07 08:32:10,78.71977367376641
9.002198,-0.11492168,4.098873,28.0,8.921328,-0.12258312,4.0588636,0.068101734,0.0,0.027240695,2017-06-07 08:32:11,83.5162288831074
9.011775,-0.12449849,4.0892963,34.0,8.934948,-0.12258312,4.0452433,0.05448139,0.0,0.05448139,2017-06-07 08:32:12,77.86580381901214
9.002198,-0.1340753,4.098873,39.0,8.921328,-0.12258312,4.0588636,0.095342435,0.0,0.027240695,2017-06-07 08:32:13,83.15424687531312
9.011775,-0.12449849,4.098873,39.0,8.921328,-0.12258312,4.0588636,0.068101734,0.0,0.040861044,2017-06-07 08:32:14,84.30705035165414
9.002198,-0.1340753,4.0797195,39.0,8.921328,-0.12258312,4.0588636,0.095342435,0.0,0.027240695,2017-06-07 08:32:15,71.91582444505977
8.992621,-0.11492168,4.098873,36.0,8.921328,-0.10896278,4.0588636,0.068101734,-0.013620348,0.013620348,2017-06-07 08:32:16,77.50507608475333
9.011775,-0.12449849,4.0797195,39.0,8.921328,-0.10896278,4.0588636,0.08172209,-0.013620348,0.027240695,2017-06-07 08:32:17,82.01720906629014
9.002198,-0.12449849,4.0892963,36.0,8.921328,-0.10896278,4.0452433,0.08172209,0.0,0.05448139,2017-06-07 08:32:18,78.4452277840755
9.011775,-0.11492168,4.10845,36.0,8.921328,-0.12258312,4.0452433,0.08172209,0.0,0.05448139,2017-06-07 08:32:19,81.87042045805518
9.002198,-0.1340753,4.0892963,36.0,8.934948,-0.12258312,4.031623,0.068101734,0.0,0.05448139,2017-06-07 08:32:20,80.6652184179005
9.021352,-0.11492168,4.0892963,34.0,8.921328,-0.10896278,4.072484,0.095342435,-0.013620348,0.0,2017-06-07 08:32:21,80.64879133510745
8.992621,-0.11492168,4.0797195,34.0,8.921328,-0.10896278,4.072484,0.068101734,-0.013620348,0.027240695,2017-06-07 08:32:22,80.23412570783984
9.011775,-0.1340753,4.098873,36.0,8.921328,-0.10896278,4.072484,0.08172209,-0.013620348,0.027240695,2017-06-07 08:32:23,79.51379603631105
9.011775,-0.11492168,4.0892963,34.0,8.921328,-0.10896278,4.0588636,0.095342435,-0.013620348,0.040861044,2017-06-07 08:32:24,82.4815898158238
9.011775,-0.12449849,4.0892963,34.0,8.934948,-0.10896278,4.0452433,0.068101734,0.0,0.05448139,2017-06-07 08:32:25,83.16545328233003
8.992621,-0.12449849,4.098873,34.0,8.921328,-0.12258312,4.072484,0.08172209,0.0,0.027240695,2017-06-07 08:32:26,77.37425503865002
9.011775,-0.1340753,4.0797195,36.0,8.921328,-0.10896278,4.0588636,0.08172209,0.0,0.027240695,2017-06-07 08:32:27,83.74814661756983
8.992621,-0.1340753,4.0797195,28.0,8.921328,-0.10896278,4.0588636,0.068101734,-0.013620348,0.040861044,2017-06-07 08:32:28,77.88777407228937
9.002198,-0.12449849,4.0892963,28.0,8.934948,-0.12258312,4.0452433,0.08172209,0.0,0.027240695,2017-06-07 08:32:29,78.83328461482247
9.002198,-0.12449849,4.0892963,31.0,8.934948,-0.12258312,4.0452433,0.08172209,-0.013620348,0.027240695,2017-06-07 08:32:30,80.69345732360972
9.011775,-0.1436521,4.0892963,28.0,8.921328,-0.12258312,4.0452433,0.08172209,0.0,0.027240695,2017-06-07 08:32:31,82.37854967305839
9.002198,-0.1340753,4.0892963,31.0,8.921328,-0.12258312,4.0452433,0.095342435,0.0,0.040861044,2017-06-07 08:32:32,60.450807407161456
9.002198,-0.12449849,4.098873,25.0,8.934948,-0.12258312,4.0452433,0.05448139,0.0,0.05448139,2017-06-07 08:32:33,77.70132807529494
9.011775,-0.1436521,4.0892963,28.0,8.934948,-0.13620347,4.031623,0.08172209,0.013620348,0.040861044,2017-06-07 08:32:34,82.57075626078274
9.002198,-0.12449849,4.0797195,31.0,8.934948,-0.13620347,4.0180025,0.08172209,0.013620348,0.068101734,2017-06-07 08:32:35,76.80456899040368
9.011775,-0.1340753,4.0797195,28.0,8.934948,-0.10896278,4.031623,0.08172209,-0.013620348,0.040861044,2017-06-07 08:32:36,80.5098643860937
9.002198,-0.11492168,4.0797195,31.0,8.934948,-0.10896278,4.0452433,0.08172209,-0.013620348,0.040861044,2017-06-07 08:32:37,82.18637830132954
8.992621,-0.11492168,4.10845,25.0,8.934948,-0.12258312,4.0452433,0.068101734,0.013620348,0.040861044,2017-06-07 08:32:38,78.48274108170621
9.002198,-0.11492168,4.098873,31.0,8.934948,-0.12258312,4.0452433,0.08172209,0.0,0.040861044,2017-06-07 08:32:39,83.81755582065921
9.011775,-0.12449849,4.098873,28.0,8.921328,-0.12258312,4.0452433,0.095342435,0.0,0.05448139,2017-06-07 08:32:40,74.94301581673324
9.002198,-0.12449849,4.098873,31.0,8.921328,-0.10896278,4.0588636,0.08172209,-0.013620348,0.040861044,2017-06-07 08:32:41,79.82956678173109
9.002198,-0.11492168,4.0892963,28.0,8.921328,-0.10896278,4.0588636,0.068101734,-0.013620348,0.040861044,2017-06-07 08:32:42,58.53231368096846
8.963891,-0.12449849,4.0797195,22.0,8.921328,-0.10896278,4.0588636,0.08172209,-0.013620348,0.027240695,2017-06-07 08:32:43,75.43749277156098
9.002198,-0.1340753,4.0797195,25.0,8.934948,-0.10896278,4.0452433,0.068101734,-0.013620348,0.05448139,2017-06-07 08:32:44,79.91325916888141
8.992621,-0.11492168,4.10845,28.0,8.921328,-0.10896278,4.0588636,0.08172209,0.0,0.040861044,2017-06-07 08:32:45,82.49183236641747
9.002198,-0.11492168,4.098873,28.0,8.921328,-0.12258312,4.072484,0.068101734,-0.013620348,0.027240695,2017-06-07 08:32:47,76.04255022369074
8.992621,-0.12449849,4.098873,28.0,8.934948,-0.12258312,4.0452433,0.068101734,0.0,0.027240695,2017-06-07 08:32:48,83.6860115322336
9.002198,-0.1340753,4.098873,25.0,8.934948,-0.13620347,4.031623,0.05448139,0.027240695,0.05448139,2017-06-07 08:32:49,83.51257635015557
9.002198,-0.12449849,4.0892963,28.0,8.934948,-0.13620347,4.031623,0.08172209,0.013620348,0.068101734,2017-06-07 08:32:50,80.1708125749517
8.992621,-0.11492168,4.0797195,25.0,8.934948,-0.12258312,4.0452433,0.068101734,0.0,0.040861044,2017-06-07 08:32:51,82.90898813492305
9.011775,-0.1340753,4.098873,31.0,8.934948,-0.12258312,4.0452433,0.08172209,0.013620348,0.05448139,2017-06-07 08:32:52,81.63497146623136
8.992621,-0.12449849,4.0892963,31.0,8.921328,-0.12258312,4.0452433,0.08172209,0.013620348,0.05448139,2017-06-07 08:32:53,83.9717279870439
9.002198,-0.12449849,4.098873,25.0,8.921328,-0.12258312,4.072484,0.08172209,0.0,0.0,2017-06-07 08:32:54,82.90175045155445
9.002198,-0.11492168,4.098873,25.0,8.921328,-0.12258312,4.0588636,0.068101734,0.0,0.027240695,2017-06-07 08:32:55,77.24375381248112
9.002198,-0.12449849,4.0892963,28.0,8.921328,-0.12258312,4.0452433,0.08172209,0.0,0.040861044,2017-06-07 08:32:56,84.32361945199018
8.992621,-0.11492168,4.0892963,25.0,8.934948,-0.12258312,4.0452433,0.095342435,-0.013620348,0.040861044,2017-06-07 08:32:57,84.00845204584954
8.992621,-0.11492168,4.098873,25.0,8.921328,-0.12258312,4.0452433,0.068101734,0.0,0.05448139,2017-06-07 08:32:58,82.90909109429722
9.011775,-0.12449849,4.0892963,28.0,8.921328,-0.12258312,4.0588636,0.08172209,0.0,0.013620348,2017-06-07 08:32:59,78.68937927765624
9.002198,-0.12449849,4.0892963,25.0,8.921328,-0.12258312,4.0452433,0.08172209,0.0,0.040861044,2017-06-07 08:33:00,83.7375799349369
9.011775,-0.12449849,4.098873,28.0,8.921328,-0.10896278,4.0588636,0.08172209,-0.013620348,0.027240695,2017-06-07 08:33:01,81.4698961711227
8.992621,-0.12449849,4.10845,25.0,8.921328,-0.12258312,4.0452433,0.068101734,0.0,0.040861044,2017-06-07 08:33:02,77.06614034463843
9.002198,-0.11492168,4.098873,25.0,8.934948,-0.12258312,4.0452433,0.05448139,0.0,0.040861044,2017-06-07 08:33:03,68.27417213456823
8.992621,-0.1340753,4.098873,25.0,8.921328,-0.10896278,4.0588636,0.095342435,-0.013620348,0.040861044,2017-06-07 08:33:04,65.09053269515094
9.011775,-0.11492168,4.098873,25.0,8.921328,-0.10896278,4.0588636,0.08172209,-0.013620348,0.027240695,2017-06-07 08:33:05,81.72385298505603
8.992621,-0.11492168,4.0797195,25.0,8.921328,-0.10896278,4.072484,0.08172209,0.0,0.027240695,2017-06-07 08:33:06,82.52326035891218
8.992621,-0.12449849,4.098873,25.0,8.921328,-0.10896278,4.072484,0.08172209,0.0,0.013620348,2017-06-07 08:33:07,82.46396414639872
9.011775,-0.1340753,4.0892963,28.0,8.921328,-0.10896278,4.072484,0.095342435,-0.013620348,0.013620348,2017-06-07 08:33:08,79.68823778187624
9.002198,-0.1340753,4.0797195,28.0,8.921328,-0.10896278,4.072484,0.095342435,0.0,0.013620348,2017-06-07 08:33:09,58.95062150723051
9.002198,-0.12449849,4.0892963,28.0,8.921328,-0.12258312,4.0452433,0.08172209,0.0,0.027240695,2017-06-07 08:33:10,82.64622330490513
8.992621,-0.12449849,4.0797195,28.0,8.934948,-0.10896278,4.0452433,0.068101734,0.0,0.040861044,2017-06-07 08:33:11,82.02444229883992
9.002198,-0.11492168,4.10845,28.0,8.934948,-0.12258312,4.031623,0.068101734,0.013620348,0.068101734,2017-06-07 08:33:12,80.87814492929158
9.011775,-0.11492168,4.10845,28.0,8.934948,-0.12258312,4.0452433,0.068101734,0.0,0.05448139,2017-06-07 08:33:13,82.66748633378597
9.002198,-0.12449849,4.0892963,28.0,8.907707,-0.095342435,4.0861044,0.095342435,-0.027240695,0.013620348,2017-06-07 08:33:14,57.361788186317646
9.002198,-0.12449849,4.098873,28.0,8.921328,-0.10896278,4.0588636,0.095342435,-0.013620348,0.027240695,2017-06-07 08:33:15,77.78453226681299
8.992621,-0.1340753,4.098873,28.0,8.921328,-0.10896278,4.0588636,0.068101734,-0.013620348,0.040861044,2017-06-07 08:33:16,83.16703642281655
8.992621,-0.11492168,4.0892963,28.0,8.921328,-0.12258312,4.0588636,0.08172209,0.0,0.040861044,2017-06-07 08:33:17,77.26532717283877
9.002198,-0.11492168,4.0892963,28.0,8.921328,-0.10896278,4.072484,0.095342435,-0.013620348,0.027240695,2017-06-07 08:33:18,57.1753046309514
9.011775,-0.1340753,4.098873,28.0,8.921328,-0.10896278,4.072484,0.08172209,0.0,0.027240695,2017-06-07 08:33:19,66.30426602239015
8.992621,-0.11492168,4.0892963,25.0,8.921328,-0.10896278,4.0588636,0.068101734,-0.013620348,0.027240695,2017-06-07 08:33:20,81.2528796192758
9.002198,-0.12449849,4.098873,25.0,8.921328,-0.10896278,4.0588636,0.095342435,0.0,0.027240695,2017-06-07 08:33:21,63.698595563603064
8.992621,-0.12449849,4.098873,28.0,8.921328,-0.12258312,4.0588636,0.08172209,0.013620348,0.027240695,2017-06-07 08:33:22,74.49424200067926
9.002198,-0.12449849,4.0892963,28.0,8.921328,-0.12258312,4.0588636,0.08172209,0.0,0.040861044,2017-06-07 08:33:23,78.33808060074234
8.992621,-0.11492168,4.0892963,28.0,8.921328,-0.12258312,4.0588636,0.08172209,-0.013620348,0.027240695,2017-06-07 08:33:24,80.29870400077975
9.011775,-0.1340753,4.0892963,28.0,8.921328,-0.12258312,4.0588636,0.068101734,0.013620348,0.040861044,2017-06-07 08:33:25,85.02463212687915
9.002198,-0.11492168,4.1180267,28.0,8.921328,-0.10896278,4.072484,0.068101734,-0.013620348,0.027240695,2017-06-07 08:33:26,83.02572075982454
9.021352,-0.12449849,4.10845,28.0,8.921328,-0.12258312,4.0588636,0.095342435,0.0,0.040861044,2017-06-07 08:33:27,77.37842932651488
9.011775,-0.11492168,4.098873,28.0,8.907707,-0.10896278,4.0861044,0.095342435,-0.013620348,0.013620348,2017-06-07 08:33:28,83.60589795712322
8.992621,-0.11492168,4.098873,28.0,8.921328,-0.12258312,4.0452433,0.068101734,0.013620348,0.05448139,2017-06-07 08:33:29,84.17007819177513
8.992621,-0.12449849,4.0892963,28.0,8.921328,-0.12258312,4.072484,0.095342435,0.0,0.027240695,2017-06-07 08:33:30,82.04632556612152
9.002198,-0.1340753,4.0892963,28.0,8.921328,-0.12258312,4.0588636,0.08172209,0.0,0.040861044,2017-06-07 08:33:31,72.93128456597826
9.011775,-0.11492168,4.098873,25.0,8.921328,-0.12258312,4.0588636,0.08172209,0.0,0.027240695,2017-06-07 08:33:33,82.58471871031423
9.011775,-0.11492168,4.0797195,31.0,8.921328,-0.12258312,4.0452433,0.068101734,0.0,0.027240695,2017-06-07 08:33:34,84.32765220303226
9.002198,-0.12449849,4.098873,28.0,8.934948,-0.10896278,4.0452433,0.095342435,-0.013620348,0.040861044,2017-06-07 08:33:35,80.11663106324484
9.011775,-0.1340753,4.0797195,28.0,8.934948,-0.10896278,4.0452433,0.05448139,-0.013620348,0.027240695,2017-06-07 08:33:36,69.70589464549118
9.002198,-0.12449849,4.0797195,28.0,8.934948,-0.12258312,4.031623,0.08172209,0.0,0.068101734,2017-06-07 08:33:37,60.769910475773415
9.002198,-0.11492168,4.0892963,28.0,8.934948,-0.12258312,4.031623,0.068101734,0.013620348,0.05448139,2017-06-07 08:33:38,59.559697577681845
9.002198,-0.1340753,4.0892963,28.0,8.921328,-0.12258312,4.0452433,0.068101734,0.013620348,0.027240695,2017-06-07 08:33:39,59.38406791739945
8.992621,-0.12449849,4.0892963,28.0,8.921328,-0.10896278,4.0588636,0.068101734,-0.013620348,0.027240695,2017-06-07 08:33:40,78.41093735190286
8.992621,-0.12449849,4.0892963,28.0,8.921328,-0.10896278,4.0588636,0.08172209,0.0,0.040861044,2017-06-07 08:33:41,79.54153412448184
9.011775,-0.12449849,4.10845,31.0,8.921328,-0.10896278,4.0588636,0.08172209,0.0,0.040861044,2017-06-07 08:33:42,67.49076471301416
9.011775,-0.1340753,4.0892963,31.0,8.921328,-0.12258312,4.0588636,0.095342435,-0.013620348,-0.013620348,2017-06-07 08:33:43,76.48811356805565
9.011775,-0.1340753,4.0892963,31.0,8.921328,-0.10896278,4.0588636,0.068101734,-0.013620348,0.040861044,2017-06-07 08:33:44,80.98195431392858
9.011775,-0.12449849,4.098873,34.0,8.921328,-0.12258312,4.0588636,0.08172209,0.0,0.040861044,2017-06-07 08:33:45,84.00092504064317
9.002198,-0.12449849,4.0797195,36.0,8.934948,-0.12258312,4.0452433,0.068101734,0.013620348,0.05448139,2017-06-07 08:33:46,83.0413247152477
9.002198,-0.1340753,4.0797195,34.0,8.921328,-0.12258312,4.0588636,0.068101734,0.0,0.05448139,2017-06-07 08:33:47,82.67596872996023
9.002198,-0.1340753,4.0892963,31.0,8.934948,-0.12258312,4.0452433,0.068101734,0.013620348,0.05448139,2017-06-07 08:33:48,82.12065208056362
9.002198,-0.11492168,4.0892963,31.0,8.934948,-0.12258312,4.0452433,0.068101734,-0.013620348,0.040861044,2017-06-07 08:33:49,77.5626632088188
9.011775,-0.12449849,4.098873,28.0,8.921328,-0.10896278,4.0588636,0.095342435,-0.013620348,0.013620348,2017-06-07 08:33:50,71.786434839542
9.002198,-0.11492168,4.0797195,28.0,8.934948,-0.10896278,4.0452433,0.05448139,-0.013620348,0.040861044,2017-06-07 08:33:51,77.32623967639212
9.002198,-0.11492168,4.0892963,28.0,8.907707,-0.12258312,4.0861044,0.095342435,0.027240695,0.013620348,2017-06-07 08:33:52,81.83144456336335
8.992621,-0.11492168,4.098873,28.0,8.921328,-0.095342435,4.0588636,0.08172209,-0.027240695,0.027240695,2017-06-07 08:33:53,79.60413441667927
9.002198,-0.11492168,4.098873,28.0,8.921328,-0.10896278,4.072484,0.08172209,0.0,0.0,2017-06-07 08:33:54,77.7354538312957
8.992621,-0.12449849,4.0892963,28.0,8.921328,-0.10896278,4.072484,0.095342435,0.0,0.027240695,2017-06-07 08:33:55,83.89915742642648
9.002198,-0.1340753,4.0892963,31.0,8.934948,-0.12258312,4.0452433,0.068101734,0.0,0.040861044,2017-06-07 08:33:56,82.1206417634416
8.992621,-0.11492168,4.098873,28.0,8.921328,-0.10896278,4.072484,0.095342435,-0.013620348,0.013620348,2017-06-07 08:33:57,55.62921552419739
9.002198,-0.1340753,4.0892963,31.0,8.921328,-0.10896278,4.0588636,0.08172209,0.0,0.027240695,2017-06-07 08:33:58,61.25843034674078
9.011775,-0.11492168,4.098873,31.0,8.921328,-0.10896278,4.0588636,0.08172209,-0.013620348,0.027240695,2017-06-07 08:33:59,80.57428814970154
8.983045,-0.10534488,4.098873,31.0,8.921328,-0.10896278,4.0588636,0.08172209,0.0,0.05448139,2017-06-07 08:34:00,73.81563500496016
8.992621,-0.12449849,4.098873,34.0,8.921328,-0.10896278,4.072484,0.08172209,-0.013620348,0.027240695,2017-06-07 08:34:01,79.82914508208421
8.992621,-0.11492168,4.098873,36.0,8.921328,-0.10896278,4.072484,0.068101734,0.0,0.027240695,2017-06-07 08:34:02,81.35211868761388
8.992621,-0.12449849,4.10845,36.0,8.921328,-0.12258312,4.0588636,0.08172209,0.0,0.040861044,2017-06-07 08:34:03,83.83412576581173
8.992621,-0.12449849,4.098873,34.0,8.921328,-0.12258312,4.072484,0.08172209,0.0,0.027240695,2017-06-07 08:34:04,82.23322128183996
9.011775,-0.12449849,4.098873,34.0,8.921328,-0.12258312,4.0588636,0.08172209,0.0,0.040861044,2017-06-07 08:34:05,81.56913232824078
9.002198,-0.12449849,4.098873,34.0,8.921328,-0.12258312,4.0588636,0.08172209,0.013620348,0.040861044,2017-06-07 08:34:06,80.38802169936355
9.002198,-0.11492168,4.098873,34.0,8.921328,-0.12258312,4.072484,0.068101734,-0.027240695,0.013620348,2017-06-07 08:34:07,72.88819704976376
8.992621,-0.11492168,4.098873,34.0,8.921328,-0.095342435,4.072484,0.068101734,-0.027240695,0.027240695,2017-06-07 08:34:08,80.84066932266522
9.002198,-0.12449849,4.0892963,34.0,8.921328,-0.10896278,4.0588636,0.068101734,0.0,0.040861044,2017-06-07 08:34:09,83.75961041160338
8.992621,-0.12449849,4.0892963,34.0,8.921328,-0.12258312,4.0452433,0.068101734,0.0,0.05448139,2017-06-07 08:34:10,83.25341940163031
8.992621,-0.12449849,4.0892963,34.0,8.921328,-0.095342435,4.072484,0.05448139,-0.013620348,0.027240695,2017-06-07 08:34:11,71.01706443962446
9.002198,-0.12449849,4.098873,34.0,8.921328,-0.095342435,4.0588636,0.08172209,-0.027240695,0.040861044,2017-06-07 08:34:12,80.73726200342637
9.011775,-0.1340753,4.098873,34.0,8.921328,-0.095342435,4.072484,0.08172209,-0.027240695,0.013620348,2017-06-07 08:34:13,69.62219220092787
8.992621,-0.11492168,4.098873,34.0,8.921328,-0.12258312,4.0588636,0.068101734,0.013620348,0.040861044,2017-06-07 08:34:14,78.79124936851925
8.992621,-0.11492168,4.0892963,34.0,8.921328,-0.12258312,4.0588636,0.08172209,0.0,0.040861044,2017-06-07 08:34:15,70.60555234996363
9.002198,-0.12449849,4.10845,34.0,8.907707,-0.10896278,4.0861044,0.095342435,-0.013620348,0.013620348,2017-06-07 08:34:16,83.439593808072
8.992621,-0.12449849,4.0892963,34.0,8.921328,-0.095342435,4.0588636,0.08172209,-0.027240695,0.013620348,2017-06-07 08:34:18,84.4362613897532
9.011775,-0.12449849,4.098873,34.0,8.921328,-0.10896278,4.0588636,0.068101734,-0.013620348,0.040861044,2017-06-07 08:34:19,83.6763589266935
9.002198,-0.11492168,4.0892963,34.0,8.921328,-0.10896278,4.0588636,0.068101734,-0.013620348,0.040861044,2017-06-07 08:34:20,82.1750492692868
9.002198,-0.11492168,4.098873,34.0,8.921328,-0.10896278,4.0452433,0.095342435,-0.013620348,0.05448139,2017-06-07 08:34:21,74.5283861111542
8.992621,-0.12449849,4.098873,34.0,8.934948,-0.10896278,4.0452433,0.068101734,0.0,0.040861044,2017-06-07 08:34:22,80.84704896421
8.992621,-0.12449849,4.0797195,34.0,8.934948,-0.10896278,4.031623,0.08172209,-0.013620348,0.068101734,2017-06-07 08:34:23,82.66369475294721
8.992621,-0.1340753,4.098873,34.0,8.934948,-0.12258312,4.0452433,0.08172209,0.013620348,0.040861044,2017-06-07 08:34:24,75.45087214880697
8.992621,-0.11492168,4.10845,34.0,8.921328,-0.12258312,4.0588636,0.068101734,0.0,0.027240695,2017-06-07 08:34:25,81.93684464015595
9.011775,-0.12449849,4.0892963,34.0,8.921328,-0.10896278,4.0588636,0.08172209,-0.013620348,0.013620348,2017-06-07 08:34:26,70.6165074043342
9.002198,-0.12449849,4.0797195,36.0,8.921328,-0.10896278,4.0588636,0.08172209,0.0,0.040861044,2017-06-07 08:34:27,75.11601087950575
9.011775,-0.11492168,4.0892963,34.0,8.921328,-0.12258312,4.0588636,0.08172209,0.0,0.040861044,2017-06-07 08:34:28,78.87757291110613
9.011775,-0.12449849,4.098873,34.0,8.921328,-0.12258312,4.0588636,0.068101734,0.0,0.040861044,2017-06-07 08:34:29,75.07272445588298
8.983045,-0.12449849,4.0892963,28.0,8.921328,-0.12258312,4.0588636,0.068101734,0.013620348,0.040861044,2017-06-07 08:34:30,83.41754036993102
9.002198,-0.12449849,4.0892963,28.0,8.921328,-0.10896278,4.0588636,0.095342435,-0.013620348,0.040861044,2017-06-07 08:34:31,73.29099890422876
8.992621,-0.1340753,4.098873,31.0,8.921328,-0.12258312,4.0588636,0.08172209,0.0,0.027240695,2017-06-07 08:34:32,81.72344692952697
9.011775,-0.1340753,4.0892963,28.0,8.907707,-0.10896278,4.072484,0.08172209,0.0,0.013620348,2017-06-07 08:34:33,80.22123412504213
9.002198,-0.11492168,4.098873,28.0,8.921328,-0.10896278,4.0588636,0.08172209,0.0,0.013620348,2017-06-07 08:34:34,82.62896492969136
8.992621,-0.1340753,4.0797195,31.0,8.921328,-0.12258312,4.072484,0.068101734,0.0,0.0,2017-06-07 08:34:35,78.22748675230842
9.002198,-0.12449849,4.0892963,31.0,8.921328,-0.12258312,4.072484,0.068101734,-0.013620348,0.013620348,2017-06-07 08:34:36,77.17382329647181
8.992621,-0.11492168,4.0892963,31.0,8.921328,-0.10896278,4.0588636,0.08172209,-0.013620348,0.040861044,2017-06-07 08:34:37,78.5301327117436
8.992621,-0.1340753,4.0797195,31.0,8.921328,-0.10896278,4.0588636,0.08172209,-0.013620348,0.027240695,2017-06-07 08:34:38,81.10106613001665
8.992621,-0.11492168,4.0797195,31.0,8.921328,-0.10896278,4.0588636,0.095342435,-0.013620348,0.013620348,2017-06-07 08:34:39,77.94400823177466
9.011775,-0.1340753,4.0892963,34.0,8.921328,-0.10896278,4.0588636,0.068101734,0.0,0.027240695,2017-06-07 08:34:40,84.04446291235581
9.002198,-0.11492168,4.0892963,34.0,8.921328,-0.10896278,4.0588636,0.068101734,-0.013620348,0.040861044,2017-06-07 08:34:41,83.79421700898754
9.002198,-0.12449849,4.098873,34.0,8.921328,-0.12258312,4.0588636,0.08172209,0.0,0.040861044,2017-06-07 08:34:42,81.17298542097046
9.002198,-0.12449849,4.0892963,34.0,8.934948,-0.12258312,4.0452433,0.05448139,0.013620348,0.05448139,2017-06-07 08:34:43,77.59817355687481
8.992621,-0.12449849,4.10845,36.0,8.921328,-0.10896278,4.072484,0.068101734,-0.013620348,0.013620348,2017-06-07 08:34:44,81.41086977186927
9.011775,-0.12449849,4.0797195,39.0,8.921328,-0.12258312,4.0588636,0.08172209,0.0,0.027240695,2017-06-07 08:34:45,78.42732207506232
9.002198,-0.12449849,4.098873,39.0,8.921328,-0.10896278,4.0588636,0.08172209,-0.013620348,0.013620348,2017-06-07 08:34:46,83.83014238257225
9.011775,-0.1340753,4.0892963,39.0,8.921328,-0.12258312,4.0588636,0.08172209,0.0,0.040861044,2017-06-07 08:34:47,82.80913870048431
9.002198,-0.12449849,4.0892963,39.0,8.921328,-0.12258312,4.0452433,0.08172209,0.0,0.040861044,2017-06-07 08:34:48,77.28900271074005
9.002198,-0.12449849,4.1180267,28.0,8.934948,-0.12258312,4.031623,0.08172209,0.0,0.040861044,2017-06-07 08:34:49,76.05961192926019
9.528923,-0.22984336,2.3654714,34.0,8.934948,-0.10896278,4.0452433,0.3949901,-0.068101734,-0.7218784,2017-06-07 08:34:50,77.67129761577748
10.936713,0.1436521,0.62249243,25.0,9.493382,-0.16344418,2.4108014,1.1168685,-0.2043052,-1.648062,2017-06-07 08:34:51,83.392578940516
9.414001,0.78529817,4.060566,42.0,9.684067,0.31326798,1.484618,-0.57205456,0.58567494,2.1111538,2017-06-07 08:34:52,80.07422368132218
9.002198,0.9672575,4.003105,39.0,9.084772,0.74911916,3.609392,-0.013620348,0.14982383,0.3405087,2017-06-07 08:34:53,81.98233460427842
8.944737,1.0151415,3.964798,42.0,8.894087,0.8580819,4.031623,0.12258312,0.17706451,0.12258312,2017-06-07 08:34:54,83.93719185862014
9.002198,1.043872,4.0892963,36.0,8.907707,0.99428535,3.963521,0.040861044,0.027240695,0.0,2017-06-07 08:34:55,82.6640524267824
8.992621,0.8619126,4.060566,39.0,8.894087,1.0079057,3.9907618,0.08172209,-0.13620347,0.068101734,2017-06-07 08:34:56,77.90296803800832
8.159439,-1.0247183,5.6886234,5.0,8.853226,0.8989429,4.113345,-0.2043052,-0.58567494,0.5992953,2017-06-07 08:34:57,80.96028464791773
7.6135616,0.23942018,6.588843,17.0,8.308412,0.29964766,5.202973,-0.62653595,-0.05448139,1.1441091,2017-06-07 08:34:58,78.30604550394004
7.52737,0.6512229,6.5696893,14.0,7.518432,0.31326798,6.2926006,0.013620348,0.35412902,0.23154591,2017-06-07 08:34:59,84.14775102880974
7.489063,0.50757074,6.6175733,14.0,7.3958488,0.57205456,6.4151835,0.095342435,0.027240695,0.21792556,2017-06-07 08:35:00,84.08033817435253
7.4507556,0.63206923,6.6750345,14.0,7.3277473,0.57205456,6.483285,0.13620347,-0.027240695,0.17706451,2017-06-07 08:35:01,83.79325130579753
7.383718,0.5554548,6.7803793,14.0,7.300506,0.55843425,6.524146,0.10896278,0.027240695,0.19068487,2017-06-07 08:35:02,80.93121733112837
7.4124484,0.6607997,6.7324953,14.0,7.259645,0.55843425,6.565007,0.16344418,0.0,0.14982383,2017-06-07 08:35:03,83.14278438534602
7.441179,0.62249243,6.655881,14.0,7.232404,0.5992953,6.592248,0.17706451,0.027240695,0.16344418,2017-06-07 08:35:05,83.23998637337142
7.431602,0.842759,6.646304,14.0,7.2460246,0.58567494,6.5786276,0.14982383,0.08172209,0.12258312,2017-06-07 08:35:06,77.31982539350079
7.469909,0.7661445,6.655881,14.0,7.2732654,0.7218784,6.5377665,0.19068487,-0.013620348,0.095342435,2017-06-07 08:35:07,78.82455416318044
7.469909,0.62249243,6.6271505,14.0,7.314126,0.7218784,6.4969053,0.14982383,-0.08172209,0.16344418,2017-06-07 08:35:08,82.96262942183019
7.469909,0.6703765,6.655881,14.0,7.314126,0.667397,6.5105257,0.14982383,0.013620348,0.13620347,2017-06-07 08:35:09,56.280752945322675
7.479486,0.89064306,6.5601125,14.0,7.300506,0.667397,6.5105257,0.19068487,0.12258312,0.08172209,2017-06-07 08:35:10,72.37771993848978
7.7667904,0.2873042,6.4164605,14.0,7.300506,0.7354987,6.4969053,0.38136974,-0.32688835,-0.29964766,2017-06-07 08:35:11,79.91841941720386
7.929596,0.16280572,5.9663506,34.0,7.532052,0.46309182,6.2517395,0.36774936,-0.23154591,-0.19068487,2017-06-07 08:35:12,77.01918322516228
7.469909,-0.02873042,6.7324953,14.0,7.7499776,0.17706451,6.0065737,-0.25878662,-0.068101734,0.58567494,2017-06-07 08:35:13,84.45445335167031
7.565677,0.10534488,6.397307,14.0,7.477571,0.05448139,6.3470817,0.013620348,0.16344418,0.36774936,2017-06-07 08:35:14,81.98924414483903
7.632715,0.25857377,6.4068837,14.0,7.3958488,0.17706451,6.428804,0.23154591,0.013620348,-0.068101734,2017-06-07 08:35:15,79.38605477002125
7.7093296,0.32561144,6.196194,14.0,7.4639506,0.21792556,6.360702,0.17706451,-0.040861044,0.068101734,2017-06-07 08:35:16,81.15016363560494
7.690176,0.31603462,6.349423,14.0,7.4911914,0.23154591,6.3198414,0.19068487,0.08172209,0.013620348,2017-06-07 08:35:17,80.8038374445173
7.6710224,0.37349546,6.349423,14.0,7.5456724,0.28602728,6.26536,0.10896278,0.08172209,0.10896278,2017-06-07 08:35:18,79.58693417329583
7.6231384,0.24899697,6.4068837,14.0,7.5456724,0.36774936,6.238119,0.068101734,-0.068101734,0.19068487,2017-06-07 08:35:19,84.2647504291469
8.015787,1.6280571,5.315128,14.0,7.504812,0.28602728,6.306221,0.35412902,0.42223078,-0.32688835,2017-06-07 08:35:20,82.35704048024196
7.575254,1.3503298,6.3302693,31.0,7.763598,0.7763598,5.938472,-0.21792556,0.51757324,0.51757324,2017-06-07 08:35:21,71.39551381921665
7.603985,1.3215994,6.339846,28.0,7.7499776,1.2394516,5.8703694,-0.068101734,0.013620348,0.31326798,2017-06-07 08:35:22,82.35766122009213
7.575254,1.292869,6.3589997,31.0,7.504812,1.2666924,6.1836376,0.05448139,0.027240695,0.19068487,2017-06-07 08:35:23,84.12232740876351
7.6135616,1.0630256,6.1770406,11.0,7.4911914,1.2666924,6.2108784,0.095342435,0.43585113,0.21792556,2017-06-07 08:35:24,82.17534366441751
7.603985,1.1587936,6.301539,14.0,7.4639506,1.2666924,6.238119,0.16344418,-0.08172209,0.027240695,2017-06-07 08:35:25,80.31492290732982
7.6710224,1.1204864,6.196194,14.0,7.4911914,1.1304889,6.2244987,0.16344418,-0.013620348,0.027240695,2017-06-07 08:35:26,83.66046631411551
7.651869,1.1300632,6.2249246,14.0,7.518432,1.1304889,6.197258,0.14982383,0.0,0.013620348,2017-06-07 08:35:27,77.42783901034001
7.632715,1.3790601,6.3111157,14.0,7.518432,1.1304889,6.197258,0.16344418,0.040861044,-0.027240695,2017-06-07 08:35:28,68.23874332499176
7.6614456,1.1875241,6.2345014,11.0,7.518432,1.1304889,6.197258,0.13620347,-0.027240695,0.013620348,2017-06-07 08:35:29,70.08692428317246
7.680599,1.1013328,6.215348,14.0,7.532052,1.1304889,6.1836376,0.13620347,0.0,-0.013620348,2017-06-07 08:35:30,76.1497021890393
7.651869,1.1492168,6.215348,14.0,7.532052,1.1304889,6.1836376,0.10896278,0.05448139,0.013620348,2017-06-07 08:35:31,83.21661298655181
7.632715,1.043872,6.301539,11.0,7.532052,1.1304889,6.1836376,0.095342435,-0.12258312,0.08172209,2017-06-07 08:35:32,83.46104116714677
7.5465236,1.3215994,6.5122285,11.0,7.532052,1.0623871,6.1836376,0.027240695,-0.19068487,0.31326798,2017-06-07 08:35:33,81.97010528248896
7.192182,1.1587936,6.8569937,14.0,7.43671,1.0896277,6.306221,-0.14982383,0.17706451,0.28602728,2017-06-07 08:35:34,83.41722251587889