ACC_X,ACC_Y,ACC_Z,GYRO_X,GYRO_Y,GYRO_Z,LIGH_1,GRAV_X,GRAV_Y,GRAV_Z,LINACC_X,LINACC_Y,LINACC_Z,ROTVEC_X,ROTVEC_Y,ROTVEC_Z,TIME,VOICE
2.357316,0.836004,9.700756,0.026474081,-0.047686987,0.035513733,32.0,2.3149848,0.8492366,9.491578,-0.048311174,0.028780542,-0.22472587,0.12671603,-0.0027048183,0.9237489,2017-01-13 09:33:23,-14.662319122895365
2.259244,0.792948,9.74142,0.08268609,0.035409015,-0.00603427,35.0,2.1786802,0.8352775,9.5250225,-0.098503776,0.016017508,-0.3240373,0.11982614,-8.474028E-4,0.92446494,2017-01-13 09:33:25,49.615410906439045
2.396784,0.949624,9.583549,0.04358209,0.064737014,0.028181732,32.0,2.3130498,0.9858987,9.478829,-0.090910256,-0.011565277,-0.09754267,0.12928288,-4.2676693E-4,0.91091335,2017-01-13 09:33:26,37.800433440599036
2.220972,1.065636,9.772516,0.004478082,0.054961015,-0.037806265,33.0,2.1904984,1.0143187,9.504908,-0.07113778,-0.021417322,-0.19704409,0.12399268,0.0032280895,0.9109745,2017-01-13 09:33:27,30.38949473692012
2.079844,1.209156,9.803612,-0.09572592,0.17471701,0.011073731,32.0,2.0207884,1.1777319,9.523643,-0.19061565,-0.11873218,-0.09698212,0.119357854,0.013532272,0.9085745,2017-01-13 09:33:28,28.52683664370482
2.10496,1.325168,10.075104,-0.098169915,0.06962501,0.03795773,35.0,1.9401594,1.1777112,9.540397,-0.17197672,-0.17018077,-0.47251463,0.11548685,0.015425495,0.9097703,2017-01-13 09:33:29,52.27130898020772
1.954264,1.164904,9.778496,0.04113809,0.09406501,-0.013366267,34.0,1.8599844,1.1584321,9.558706,-0.09427973,-0.0064718267,-0.21978958,0.11116401,0.016856521,0.9126709,2017-01-13 09:33:31,29.019635605445604
2.5415,1.4029081,9.624212,-0.20326191,0.267589,0.0012977347,30.0,2.005905,1.7577754,9.436999,-0.42197514,0.19340748,-0.29844052,0.13459487,0.02704002,0.85895896,2017-01-13 09:33:32,62.02719735562223
1.384968,-1.5679561,9.69956,-6.369474,-1.1401551,-5.830086,27.0,2.9188695,2.242944,9.089543,1.3772255,3.4784122,-1.9339889,0.13175814,-0.13857158,0.10288075,2017-01-13 09:33:33,58.46802822316732
4.079556,1.707888,9.357504,-3.1878054E-4,0.010461934,-0.0011424497,51.0,2.014561,1.5360501,9.473779,-2.0697792,-0.16824995,0.11627427,0.055692602,-0.117771216,-0.20640497,2017-01-13 09:33:34,37.55168761789608
4.091516,1.741376,9.36468,-0.0028036982,0.009395666,-9.947494E-4,30.0,3.4564826,1.6536081,9.027109,-0.62666154,-0.07700404,-0.3208277,0.051305205,-0.19264816,-0.18116942,2017-01-13 09:33:36,15.135895177406889
4.089124,1.7162601,9.37664,0.0026588738,0.010383133,0.0036596432,31.0,3.6982715,1.6450698,8.932353,-0.3896569,-0.079562195,-0.42036712,0.055016868,-0.20383796,-0.15081865,2017-01-13 09:33:37,14.783212564896164
4.067596,1.706692,9.371856,-0.0019208714,0.011540577,0.001138635,33.0,3.76169,1.6372515,8.907272,-0.31547436,-0.0766165,-0.45142803,0.06104455,-0.20525378,-0.1183277,2017-01-13 09:33:38,13.742864048457067
4.077164,1.713868,9.36468,-0.0017625615,0.008162081,0.0011705607,36.0,3.7991228,1.6405134,8.890769,-0.28521717,-0.07574659,-0.48108724,0.06728553,-0.20535241,-0.08872045,2017-01-13 09:33:39,12.297498154728357
4.074772,1.713868,9.373053,8.920431E-4,0.009677492,-0.0013124049,45.0,3.8422792,1.6292344,8.874282,-0.23010084,-0.07984964,-0.48920217,0.072419085,-0.20565273,-0.060922418,2017-01-13 09:33:40,15.283742966633618
4.0759683,1.709084,9.363484,-0.0014222264,0.0064811,0.0011249036,32.0,3.8502975,1.6220248,8.872128,-0.23165071,-0.08825535,-0.49016136,0.0766527,-0.2043815,-0.038924832,2017-01-13 09:33:42,13.697483940971134
4.040088,1.701908,9.3886,0.02759283,0.0010306388,-0.008484535,35.0,3.8579702,1.6391802,8.865638,-0.23952597,-0.10817586,-0.50143445,0.081199534,-0.20343277,-0.021463664,2017-01-13 09:33:43,15.773548943559057
4.077164,1.7318081,9.347937,0.008037858,0.0030374825,-0.0011935234,32.0,3.8701494,1.6534119,8.857685,-0.20581892,-0.076004215,-0.50221187,0.084295675,-0.20317003,-0.010207823,2017-01-13 09:33:44,45.98771159391571
4.101084,1.754532,9.362288,4.6543777E-4,0.0053931475,-0.0011460036,30.0,3.8885553,1.6783015,8.8449335,-0.22090076,-0.09177856,-0.5053952,0.0871867,-0.2035496,-0.0026902524,2017-01-13 09:33:45,30.316995270581884
4.103476,1.778452,9.347937,-0.0020032078,0.0049388,0.0013167784,31.0,3.897103,1.6869048,8.839533,-0.21354894,-0.08556728,-0.5084037,0.08859781,-0.2036166,0.0018539281,2017-01-13 09:33:47,26.103430000273164
4.122612,1.773668,9.343152,-0.004244022,0.0044127665,0.0012429878,29.0,3.8979602,1.679189,8.840623,-0.2186717,-0.08371508,-0.50492054,0.08915542,-0.20323627,0.00647206,2017-01-13 09:33:48,29.982205871676378
4.121416,1.7700801,9.343152,-0.0016344786,0.0039744303,-0.0012429953,31.0,3.8986251,1.6801282,8.840152,-0.2060469,-0.085167766,-0.50539166,0.08931116,-0.20322704,0.006976934,2017-01-13 09:33:49,51.64636653309289
4.111848,1.765296,9.351524,8.698702E-4,0.0035870038,-0.0012728125,31.0,3.8966386,1.6823479,8.840606,-0.23314913,-0.100888185,-0.50972295,0.089525945,-0.20307557,0.0074598147,2017-01-13 09:33:50,40.06170230509595
4.1250043,1.778452,9.347937,-0.0014749244,0.003230404,0.001140818,27.0,3.9002333,1.6784331,8.839765,-0.22716303,-0.08447101,-0.5141519,0.089286916,-0.20328628,0.0072784224,2017-01-13 09:33:51,42.35927376234137
4.12022,1.7688841,9.350328,0.0010337755,0.0029550306,0.0011241958,23.0,3.901171,1.679114,8.839223,-0.2274211,-0.094554015,-0.5087141,0.08961666,-0.20320927,0.008681155,2017-01-13 09:33:53,24.730362469722365
4.121416,1.77606,9.343152,-0.001292795,2.389811E-4,-0.001319766,26.0,3.9032142,1.6847534,8.837246,-0.20982991,-0.082934596,-0.49873105,0.090254225,-0.2031749,0.010297022,2017-01-13 09:33:54,42.12756925148072
4.115436,1.766492,9.335977,0.0012114495,3.1627715E-5,-0.0013297722,25.0,3.9138598,1.6753273,8.834329,-0.19918431,-0.09475275,-0.50404024,0.089893356,-0.20370021,0.010866246,2017-01-13 09:33:55,44.660369782695014
4.1190243,1.766492,9.33478,-0.0011407137,0.0022722185,0.0010969862,28.0,3.9069157,1.6787928,8.836744,-0.20971623,-0.09009134,-0.5052122,0.090041935,-0.20333195,0.010757787,2017-01-13 09:33:56,34.53080232379885
4.116632,1.7688841,9.341956,-0.0010813326,0.0020579472,0.0010782704,26.0,3.8997965,1.6817567,8.839326,-0.21563949,-0.08593129,-0.50263095,0.09036892,-0.20286278,0.011634728,2017-01-13 09:33:57,37.71570042271195
4.12022,1.766492,9.345544,-0.0033908635,0.0019243397,-0.0013931841,28.0,3.9028344,1.6759526,8.839087,-0.21499358,-0.08097148,-0.51243806,0.09029617,-0.20292513,0.012731068,2017-01-13 09:33:59,32.64079141636839
4.121416,1.7425721,9.35272,-0.010282539,0.0065144747,9.267926E-4,30.0,3.895931,1.6671871,8.843788,-0.20156507,-0.08016893,-0.5125205,0.089884154,-0.20251697,0.013032812,2017-01-13 09:34:00,45.49555578960604
4.147728,1.8119401,9.33478,-7.443279E-4,0.0041649714,0.0010536537,22.0,3.93388,1.701218,8.820478,-0.22461219,-0.0891941,-0.5071254,0.09119914,-0.20484994,0.01041607,2017-01-13 09:34:01,25.75363772188759
4.169256,1.825096,9.318036,0.01115004,-0.012575157,-0.0037058815,32.0,3.949551,1.7069215,8.81237,-0.23166531,-0.07272665,-0.5295862,0.091888934,-0.2055496,0.012132432,2017-01-13 09:34:02,14.584607907306495
4.374968,1.6361281,9.385013,-0.012627274,-0.04415842,0.013534311,22.0,3.9489992,1.6606555,8.821452,-0.2513529,-0.09866057,-0.63651514,0.08950246,-0.2054761,0.012403713,2017-01-13 09:34:03,30.847999718926168
4.11424,1.725828,9.377836,-3.335327E-4,0.004368916,-0.0011289343,17.0,3.9409583,1.6627278,8.8246565,-0.2641779,-0.0726682,-0.52806354,0.08944865,-0.20510158,0.011695945,2017-01-13 09:34:05,17.593579452857348
4.157296,1.7963921,9.314448,0.0061199665,0.006676931,0.0038974956,32.0,3.9423969,1.7033596,8.816262,-0.2160954,-0.09183643,-0.52569443,0.09188262,-0.20506917,0.013056687,2017-01-13 09:34:06,33.9297194041749
4.116632,1.7318081,9.350328,-0.012629233,0.008459676,0.0058127195,49.0,3.9235215,1.6664388,8.831724,-0.19311054,-0.06536928,-0.5186042,0.09016737,-0.20390499,0.014337967,2017-01-13 09:34:07,36.037543111258394
4.12022,1.7342,9.351524,-0.0026888028,-0.001509849,-0.0015983805,53.0,3.913846,1.6526823,8.838599,-0.20278585,-0.091085754,-0.51172906,0.08959612,-0.20329632,0.015165749,2017-01-13 09:34:08,28.802954156759355
4.121416,1.741376,9.339564,-2.5678426E-4,8.5011125E-4,8.7697804E-4,61.0,3.91688,1.6533971,8.837122,-0.22247635,-0.08439108,-0.52157766,0.08927221,-0.20362385,0.013405947,2017-01-13 09:34:10,35.06005848152754
4.122612,1.738984,9.343152,0.0021856576,7.7750534E-4,-0.0015676171,45.0,3.9122293,1.6491063,8.839984,-0.22593087,-0.086289756,-0.4864245,0.088829875,-0.20345901,0.012411021,2017-01-13 09:34:11,24.20627685633984
4.13218,1.760512,9.347937,-0.0028715432,0.0032165237,9.498894E-4,54.0,3.9141963,1.657417,8.837557,-0.22396395,-0.073195,-0.5235358,0.08923124,-0.20358723,0.012217214,2017-01-13 09:34:12,35.148914486544605
4.128592,1.754532,9.35272,-4.671067E-4,0.003186848,-0.0014726296,56.0,3.911358,1.6538689,8.839479,-0.21005788,-0.0791352,-0.51324064,0.08914984,-0.20338221,0.012747935,2017-01-13 09:34:13,25.803914422514218
4.11424,1.747356,9.350328,-0.0054009706,0.0031049065,9.1219693E-4,19.0,3.9117284,1.6603191,8.838107,-0.19653176,-0.07388094,-0.52298516,0.089420706,-0.2034354,0.012412267,2017-01-13 09:34:14,11.44245735781098
4.134572,1.7342,9.361093,-0.0027455986,5.1836297E-4,9.792447E-4,24.0,3.90957,1.6372339,8.843365,-0.20467006,-0.08022212,-0.51653147,0.088250525,-0.20328721,0.01265761,2017-01-13 09:34:16,16.092837662609647
4.10826,1.7270241,9.314448,-3.0621886E-4,5.0228834E-4,-0.0014542118,21.0,3.904572,1.6420511,8.84468,-0.22402006,-0.08736498,-0.5223919,0.08844326,-0.20303841,0.012405434,2017-01-13 09:34:17,12.13999969440015
4.129788,1.725828,9.367072,-3.5411865E-4,5.3552166E-4,-0.0014663637,26.0,3.9088213,1.6320256,8.844659,-0.19704671,-0.11054639,-0.52241355,0.08778383,-0.20332706,0.0117426645,2017-01-13 09:34:18,17.26112482756588
4.111848,1.736592,9.345544,0.002033107,-0.0019338205,-0.0014518052,29.0,3.9065392,1.6332123,8.8454485,-0.21368074,-0.096203685,-0.5000947,0.08791469,-0.2031715,0.01208902,2017-01-13 09:34:19,13.108840706625022
4.115436,1.725828,9.34674,-4.6551228E-4,0.002878368,9.152442E-4,26.0,3.905113,1.6415912,8.844526,-0.20314708,-0.09380481,-0.5022136,0.088258035,-0.20313826,0.01162808,2017-01-13 09:34:21,11.621278205116532
4.13218,1.715064,9.357504,-4.86508E-4,-0.0019021183,-0.0014076903,26.0,3.9078844,1.6369914,8.844156,-0.19917993,-0.07807269,-0.5205238,0.08787886,-0.20334913,0.010950326,2017-01-13 09:34:22,19.584210881257192
4.116632,1.7210441,9.349133,-4.4820458E-4,-0.0020206496,-0.0014749169,38.0,3.8997977,1.638101,8.84752,-0.21683425,-0.082943074,-0.5016127,0.08806012,-0.20284846,0.011604677,2017-01-13 09:34:23,22.15363337570932
4.111848,1.7270241,9.353916,0.0019855946,-0.004359752,-0.0013921559,29.0,3.9062192,1.6314248,8.84592,-0.2032368,-0.08483531,-0.51278,0.08790926,-0.20311472,0.012518044,2017-01-13 09:34:24,22.86242385485878
4.116632,1.7270241,9.363484,0.001942113,-0.0018802658,-0.0013781041,27.0,3.9022071,1.6329371,8.847412,-0.22279724,-0.06777502,-0.51248485,0.0877443,-0.2029988,0.01137589,2017-01-13 09:34:25,34.38438200056771
4.110652,1.730612,9.357504,-5.4267794E-4,-0.0018951669,-0.0013750345,26.0,3.9004674,1.6361194,8.847591,-0.21496874,-0.095688716,-0.51828504,0.08845657,-0.2026669,0.014008223,2017-01-13 09:34:27,30.973861187013867
4.097496,1.7210441,9.359897,-5.7625026E-4,5.533807E-4,0.0010584891,30.0,3.8986254,1.6327823,8.849019,-0.21083061,-0.09065365,-0.51326984,0.08851149,-0.20246318,0.015136156,2017-01-13 09:34:28,31.5373062828493
4.115436,1.715064,9.3587,-5.99578E-4,5.3666905E-4,0.0010282472,32.0,3.89855,1.6329439,8.849022,-0.21210195,-0.07972806,-0.50848204,0.08859522,-0.20242614,0.015499121,2017-01-13 09:34:29,13.511067604195258
4.105868,1.713868,9.36468,-6.1772764E-4,0.0029818527,0.0035231411,27.0,3.9053588,1.6271492,8.847087,-0.21725306,-0.08432678,-0.5235726,0.0884711,-0.20272389,0.016308842,2017-01-13 09:34:30,27.358560995941225
4.110652,1.7342,9.369464,0.0018307418,5.839877E-4,-0.0013635606,31.0,3.9014797,1.6289213,8.848473,-0.20917232,-0.10527883,-0.5209914,0.08851349,-0.20253108,0.016099727,2017-01-13 09:34:31,29.21354166737833
4.1130443,1.7342,9.361093,0.0017903447,-0.0019003749,-0.0014119521,31.0,3.899457,1.6311729,8.84895,-0.19803923,-0.07671499,-0.51572955,0.08862822,-0.20242085,0.016099505,2017-01-13 09:34:33,13.820979865765594
4.1130443,1.719848,9.365876,-0.00307969,-0.0018964149,0.0010517314,21.0,3.8958766,1.6310986,8.85054,-0.20281507,-0.09353344,-0.5249042,0.08835983,-0.20233786,0.014858137,2017-01-13 09:34:34,43.54084830649228
4.116632,1.723436,9.355112,0.0018335804,-0.001894936,0.0010959432,26.0,3.8948245,1.6286544,8.851454,-0.22180736,-0.09478154,-0.50365853,0.08809121,-0.20233995,0.01419387,2017-01-13 09:34:35,44.31808841799035
4.10826,1.7222401,9.361093,-6.183386E-4,0.0029708073,0.0010152236,25.0,3.8952937,1.6279786,8.851372,-0.20818244,-0.0858895,-0.51809216,0.08799229,-0.20239332,0.013884765,2017-01-13 09:34:36,17.448046770962392
4.1190243,1.725828,9.362288,0.0018594936,5.158223E-4,0.0034307614,31.0,3.8886602,1.6301606,8.853887,-0.23036417,-0.09207959,-0.50361764,0.08788405,-0.20212342,0.012865315,2017-01-13 09:34:38,30.227911144776158
4.10228,1.715064,9.361093,-5.591586E-4,4.968792E-4,9.496808E-4,32.0,3.895915,1.6314869,8.850451,-0.22430502,-0.09075331,-0.50226855,0.08795518,-0.20252523,0.012809742,2017-01-13 09:34:39,22.60446405300479
4.089124,1.713868,9.373053,-6.0462207E-4,4.6749413E-4,8.3944947E-4,59.0,3.8897364,1.632693,8.852947,-0.21134792,-0.095526956,-0.5057529,0.088251896,-0.20208162,0.013986907,2017-01-13 09:34:40,51.68195802000406
4.092712,1.74018,9.349133,-0.003022246,-0.0018714815,9.396598E-4,40.0,3.9062374,1.6267045,8.846781,-0.20561054,-0.1027116,-0.52268356,0.08798369,-0.20297436,0.014070572,2017-01-13 09:34:41,49.78422565578878
4.097496,1.712672,9.368268,0.001863949,0.0029924773,9.0007484E-4,52.0,3.8948941,1.6299288,8.851188,-0.2217378,-0.103075325,-0.5158844,0.088067144,-0.20238385,0.013753499,2017-01-13 09:34:42,42.01155391127215
4.109456,1.729416,9.361093,-6.4655393E-4,5.6428835E-4,9.5047057E-4,38.0,3.893476,1.630963,8.851622,-0.22076398,-0.09127719,-0.5154501,0.08789416,-0.20240444,0.012669404,2017-01-13 09:34:44,31.969122965314142
4.111848,1.730612,9.362288,0.0041881874,0.0029634573,-0.0015372187,46.0,3.8911314,1.6366308,8.851606,-0.22430472,-0.091589175,-0.5202496,0.088157535,-0.20229176,0.0125183975,2017-01-13 09:34:45,48.46773405838614
4.110652,1.7270241,9.3587,-7.647276E-4,-0.0018594936,9.546131E-4,41.0,3.8952281,1.6340152,8.850287,-0.22857963,-0.09061682,-0.51558864,0.08794907,-0.20254855,0.01214422,2017-01-13 09:34:46,29.08059647726806
4.111848,1.7270241,9.363484,0.0016899556,6.0683116E-4,-0.001456514,30.0,3.8959384,1.6327565,8.850205,-0.1991659,-0.07991554,-0.5132786,0.088041544,-0.2025185,0.0129030915,2017-01-13 09:34:47,27.871407133468363
4.103476,1.7222401,9.356308,-7.9880655E-4,5.5246055E-4,9.917766E-4,57.0,3.8932385,1.6310484,8.851709,-0.22219752,-0.10554361,-0.5105787,0.08790628,-0.202388,0.012708098,2017-01-13 09:34:48,51.06122967014474
4.110652,1.7342,9.3742485,-8.407831E-4,-0.001902692,-0.0014536232,35.0,3.8933072,1.6269797,8.852429,-0.208973,-0.09167232,-0.50746673,0.08810567,-0.2022107,0.014702823,2017-01-13 09:34:50,41.25894605579096
4.1130443,1.717456,9.36468,0.0015924498,-0.0018769354,-0.0014148131,37.0,3.891032,1.6299969,8.852874,-0.23157997,-0.09583119,-0.51539457,0.0881461,-0.20213695,0.014150793,2017-01-13 09:34:51,40.90395360646478
4.103476,1.72822,9.359897,0.0015412793,5.1562116E-4,0.0010406822,58.0,3.8910818,1.6349977,8.85193,-0.22315818,-0.0860463,-0.5151427,0.08823961,-0.20221521,0.013329729,2017-01-13 09:34:52,25.243885145806203
4.110652,1.729416,9.379032,-9.148866E-4,-0.0019251816,-0.0014113113,34.0,3.8904312,1.6311431,8.852925,-0.2178291,-0.09348887,-0.50816697,0.08783878,-0.20226401,0.012382134,2017-01-13 09:34:53,55.29759732492849
4.115436,1.7222401,9.36468,0.0015147701,5.802624E-4,-0.0013417378,55.0,3.892078,1.6306523,8.852294,-0.2078104,-0.08441183,-0.5111907,0.08758326,-0.20245455,0.011261922,2017-01-13 09:34:55,39.797906398979805
4.116632,1.724632,9.367072,0.0015188605,5.254075E-4,0.0011015758,54.0,3.8901212,1.6315428,8.852988,-0.21455081,-0.079933226,-0.5104957,0.0878498,-0.20225133,0.012336306,2017-01-13 09:34:56,19.605952536798007
4.1070642,1.7222401,9.37066,-9.1498345E-4,-0.0018639565,0.0010885149,31.0,3.8937309,1.6341125,8.850927,-0.21094109,-0.09530352,-0.49820498,0.08802134,-0.20243646,0.012480023,2017-01-13 09:34:57,42.3662433916187
4.089124,1.7342,9.36468,-8.919388E-4,0.005288344,0.0033868477,34.0,3.8891811,1.624867,8.85463,-0.19994302,-0.10933307,-0.5100497,0.08779255,-0.2020693,0.013765864,2017-01-13 09:34:58,26.421397909496083
4.104672,1.7054961,9.373053,0.004125744,-0.011786282,-0.006263435,17.0,3.89435,1.6271157,8.851946,-0.20793022,-0.12980829,-0.5139304,0.088050805,-0.20229556,0.014394337,2017-01-13 09:34:59,13.871707605287185
4.122612,1.7342,9.347937,0.0013451874,6.625913E-4,0.0010567978,15.0,3.9028103,1.6460173,8.844721,-0.21501756,-0.085790716,-0.5044114,0.08896457,-0.20280544,0.013920485,2017-01-13 09:35:01,36.6118326328474
4.141748,1.7748641,9.357504,0.0037711412,0.0030227453,0.0033989623,34.0,3.8973606,1.6425976,8.847759,-0.2348197,-0.074858405,-0.51213765,0.08884899,-0.20247392,0.014280421,2017-01-13 09:35:02,39.459781385617866
4.128592,1.7330041,9.347937,0.0014145374,5.3085014E-4,9.354651E-4,36.0,3.9011128,1.6415001,8.846308,-0.20595132,-0.08193579,-0.5004314,0.08893495,-0.20261873,0.014939086,2017-01-13 09:35:03,26.085009619744103
4.128592,1.7581201,9.353916,0.0038174689,-0.004270714,-0.0015105754,36.0,3.9031425,1.6504502,8.843748,-0.21229368,-0.08853373,-0.51614803,0.08963794,-0.20263115,0.016031802,2017-01-13 09:35:04,39.595594830591445
4.1130443,1.7318081,9.344348,-0.0010951012,-0.0017836653,9.539798E-4,30.0,3.904649,1.650074,8.843153,-0.22155133,-0.13316198,-0.528703,0.089265,-0.20287047,0.014319865,2017-01-13 09:35:05,44.1482856988907
4.10228,1.724632,9.357504,-9.4754994E-4,5.156584E-4,-0.0015321523,40.0,3.898682,1.6487542,8.846031,-0.21436201,-0.10577771,-0.51506144,0.089064114,-0.20259689,0.013741364,2017-01-13 09:35:07,40.13087298606396
4.086732,1.706692,9.371856,-7.1334094E-4,-0.002062261,8.8553876E-4,42.0,3.892416,1.6298314,8.852296,-0.20268823,-0.08284049,-0.5219529,0.08789944,-0.20231718,0.012991269,2017-01-13 09:35:08,16.57666374344519
4.110652,1.730612,9.362288,0.0041032284,-0.0019514114,-0.003910832,38.0,3.8908544,1.6336884,8.852272,-0.21501376,-0.1040997,-0.5052321,0.08798825,-0.20228162,0.012452417,2017-01-13 09:35:09,22.887276754321736
4.098692,1.723436,9.3587,-0.0033872873,6.1266497E-4,0.0010333136,50.0,3.8964093,1.6364919,8.849309,-0.21783085,-0.10249197,-0.5165671,0.08799629,-0.20265105,0.01173329,2017-01-13 09:35:10,20.238550495005725
4.1250043,1.765296,9.35272,0.00879474,-0.006620355,-0.0013873056,33.0,3.8988187,1.6404457,8.847518,-0.23575346,-0.098538265,-0.51357496,0.088038996,-0.20285799,0.01091672,2017-01-13 09:35:12,13.922709115825185
4.122612,1.735396,9.355112,-0.003407061,0.0031375065,0.0010379106,36.0,3.8986406,1.6385818,8.847941,-0.21918723,-0.100402154,-0.49879825,0.08818665,-0.20274056,0.012100709,2017-01-13 09:35:13,22.353829409851702
4.103476,1.7342,9.353916,-9.1386586E-4,6.4620003E-4,9.933934E-4,37.0,3.899946,1.646962,8.845808,-0.21668607,-0.10159005,-0.51408875,0.08875152,-0.2027621,0.012681217,2017-01-13 09:35:14,16.656066387265724
4.0998883,1.7437681,9.363484,0.0015545636,0.0030773915,-0.0014288649,35.0,3.892328,1.6441867,8.84968,-0.22191198,-0.09240531,-0.49227616,0.0883613,-0.2024456,0.0115706595,2017-01-13 09:35:15,11.882196736013558
4.10228,1.7210441,9.351524,-7.910207E-4,5.776584E-4,0.0010060072,37.0,3.9022918,1.639202,8.846215,-0.19281244,-0.08423399,-0.5112889,0.08819611,-0.2029532,0.011958852,2017-01-13 09:35:16,32.97403551732655
4.0819483,1.712672,9.357504,-0.0029447079,0.002829671,-0.0014609694,32.0,3.8870268,1.624425,8.855658,-0.21644934,-0.09661899,-0.51500237,0.087236255,-0.20218065,0.011211788,2017-01-13 09:35:18,24.19750899065437
4.117828,1.741376,9.38262,0.010893941,-0.013706759,-0.006120339,15.0,3.9077194,1.6562814,8.840636,-0.23402853,-0.14369872,-0.5108885,0.08857212,-0.20348953,0.009398493,2017-01-13 09:35:19,14.568047563812495
4.097496,1.7700801,9.34674,-0.0013938397,0.0032586455,0.0036584735,13.0,3.8945525,1.6635575,8.84508,-0.32015142,-0.09934651,-0.5614596,0.08904989,-0.20272294,0.009950597,2017-01-13 09:35:20,13.03672662220795
4.115436,1.7342,9.363484,0.0015766993,-0.0018405579,-0.0039377436,18.0,3.8925047,1.6455795,8.849344,-0.21097149,-0.08264044,-0.5117483,0.088094935,-0.202604,0.00993303,2017-01-13 09:35:21,31.53493012427461
4.109456,1.68038,9.36468,-0.0033439398,6.5952167E-4,-0.0014303401,19.0,3.8942275,1.6436304,8.848948,-0.23077685,-0.103725605,-0.53606564,0.088323504,-0.20255429,0.011514458,2017-01-13 09:35:22,29.28213764423998
4.1130443,1.730612,9.34076,-0.0031544417,0.0031388327,-0.0011870712,21.0,3.8956952,1.6434114,8.848342,-0.20778088,-0.09437676,-0.5199258,0.088556014,-0.20252895,0.012677371,2017-01-13 09:35:24,18.833453123485032
4.085536,1.709084,9.367072,0.00448332,-0.0019214414,-0.0011698008,33.0,3.89102,1.62649,8.853524,-0.20767187,-0.08379004,-0.5111556,0.08762368,-0.20228201,0.012522774,2017-01-13 09:35:25,39.51718296909662
4.104672,1.730612,9.353916,0.01653891,-0.009245247,0.0035835803,32.0,3.890187,1.6212862,8.854845,-0.18817309,-0.06866189,-0.4978753,0.087244,-0.20227972,0.012021514,2017-01-13 09:35:26,42.68409641195576
4.105868,1.7377881,9.3587,0.0015952513,-0.0018497445,0.0010989383,35.0,3.8899796,1.6436725,8.850807,-0.21588849,-0.08215558,-0.5138731,0.08851548,-0.20223609,0.012463868,2017-01-13 09:35:27,39.461834152784874
4.10826,1.735396,9.357504,-8.948073E-4,6.0641393E-4,-0.0012771264,18.0,3.8893254,1.6417738,8.851448,-0.21534663,-0.09960224,-0.50366384,0.08847932,-0.20217125,0.012777791,2017-01-13 09:35:28,16.16430381940155
4.117828,1.7222401,9.373053,0.0015515387,-0.0017008334,0.0011706799,14.0,3.8936667,1.6362594,8.850561,-0.19784926,-0.08598068,-0.51053137,0.08841952,-0.20230927,0.0138540035,2017-01-13 09:35:30,19.594047680069725
4.117828,1.730612,9.349133,-0.0031736717,0.0030311085,0.0011186972,26.0,3.9142919,1.6393672,8.840882,-0.20353608,-0.09124489,-0.50825053,0.08859009,-0.20345098,0.01370578,2017-01-13 09:35:31,23.974409619861312
4.0066,1.713868,9.338368,-8.1238896E-4,-0.014112409,0.0133084245,12.0,3.913232,1.6358187,8.842009,-0.093367726,-0.07804931,-0.4963602,0.088074766,-0.20353357,0.012142282,2017-01-13 09:35:32,16.006475121562445
4.140552,1.725828,9.344348,0.0016681254,6.7549944E-4,-0.0013331994,19.0,3.9133134,1.6375571,8.841649,-0.22723873,-0.08827099,-0.5026982,0.088194616,-0.20352648,0.012276598,2017-01-13 09:35:33,22.301319663673993
4.134572,1.725828,9.359897,-7.946715E-4,6.4435974E-4,-0.001335971,19.0,3.9124746,1.6436865,8.840885,-0.2232935,-0.08333748,-0.52738315,0.08847752,-0.20349964,0.012090307,2017-01-13 09:35:35,19.759296906636056
4.140552,1.741376,9.34674,0.001675345,6.182566E-4,-0.0013535544,20.0,3.9156494,1.6415738,8.839871,-0.22251083,-0.09143033,-0.5176327,0.08852962,-0.20360388,0.0128469225,2017-01-13 09:35:36,18.214354789845988
4.146532,1.72822,9.329996,0.0016457364,6.077811E-4,-0.0013926327,18.0,3.9128506,1.6434035,8.840771,-0.22530952,-0.09438465,-0.50596917,0.08854003,-0.20348674,0.012458167,2017-01-13 09:35:37,11.581385955469605
4.1309843,1.730612,9.343152,0.001593031,5.131364E-4,0.0010565892,15.0,3.9103477,1.6439615,8.841773,-0.20628421,-0.08904256,-0.50616324,0.08877185,-0.20325989,0.013449789,2017-01-13 09:35:38,27.52760228474273
4.1309843,1.736592,9.345544,-0.0031013936,0.0029203482,-0.0013805628,19.0,3.9087934,1.6308484,8.84489,-0.20903438,-0.097371556,-0.50783086,0.08798604,-0.20321085,0.013010686,2017-01-13 09:35:39,20.045060977689914
4.1309843,1.74018,9.349133,0.001523152,-0.0019622669,-0.0013284534,15.0,3.9071312,1.6414373,8.843664,-0.232225,-0.09993878,-0.50666416,0.08849479,-0.20314352,0.012786691,2017-01-13 09:35:41,14.527116101749023
4.13218,1.709084,9.3587,0.0014383197,-0.0044698603,-0.0012739003,0.0,3.9172795,1.6187423,8.843358,-0.21609658,-0.1178497,-0.5129501,0.08757365,-0.20358066,0.014020505,2017-01-13 09:35:42,12.608676223082757
4.1262,1.676792,9.359897,-4.176721E-4,3.4416094E-4,-0.0012476444,30.0,3.903667,1.5954119,8.853612,-0.21176907,-0.08496815,-0.5110679,0.08602541,-0.20295586,0.012608479,2017-01-13 09:35:43,13.05607443026445
4.12022,1.6732041,9.362288,-7.889122E-4,5.6811795E-4,-0.0012765452,32.0,3.9108872,1.6138296,8.847085,-0.22488077,-0.076118484,-0.5152035,0.087257445,-0.20324953,0.013801979,2017-01-13 09:35:44,44.77677776051425
4.083144,1.713868,9.344348,-7.7180564E-4,0.015289988,-0.008692674,25.0,3.9021266,1.6143829,8.850851,-0.53144586,0.028486822,-0.78173375,0.08754068,-0.20265444,0.015100389,2017-01-13 09:35:45,48.156030842833815
4.139356,1.6732041,9.367072,-8.516684E-4,0.003003355,0.0011254027,31.0,3.9064882,1.6113943,8.849473,-0.20296793,-0.06420169,-0.514011,0.08731376,-0.20292568,0.014727523,2017-01-13 09:35:47,49.49707500807648
4.145336,1.6947321,9.351524,-9.1691315E-4,5.056858E-4,-0.0012943894,27.0,3.908568,1.6079744,8.849177,-0.22600423,-0.08556159,-0.5143074,0.08722972,-0.20299901,0.01517123,2017-01-13 09:35:48,43.240343068803085
3.706404,1.376596,8.520304,0.035508625,-0.22214696,0.17465687,32.0,3.8265562,1.3074661,8.934115,-0.08914778,-0.066737786,-0.3564128,0.07631617,-0.19662862,0.04004745,2017-01-13 09:35:49,36.36887243398014
-7.607756,-0.386308,2.046356,-5.5148153,3.094361,5.1995206,11.0,-8.652191,2.1727095,4.072999,-0.28377897,3.1618013,1.9811952,0.037659932,0.53936684,0.14755805,2017-01-13 09:35:50,17.394981758081386
1.6899481,3.0222921,9.296508,0.123492636,0.6430291,-0.08196313,31.0,0.39723817,1.72254,9.6460085,-1.1671298,-1.3428082,0.38179216,0.085035086,0.030976932,0.54243225,2017-01-13 09:35:52,54.26149988532333
0.082524,2.877576,9.63976,-0.018259369,0.37418905,-0.15039513,28.0,-0.32099977,1.7054813,9.651875,-0.51594776,-1.1278428,-0.16608956,0.06801641,0.05714135,0.4885795,2017-01-13 09:35:53,44.761139294396315
-0.710424,2.563028,8.930532,0.37522462,2.1338692,0.59746885,28.0,-1.0243623,1.3839971,9.654307,-0.45745835,-1.137171,0.49892685,0.037179057,0.07990692,0.47593582,2017-01-13 09:35:54,19.519320122701412
-3.8523161,1.666028,8.427016,0.123492636,0.67480105,0.6414609,23.0,-4.293329,0.5065772,8.802335,-0.39556468,-1.1510788,0.41837505,-0.076925606,0.21281046,0.43618947,2017-01-13 09:35:55,31.85358138742595
-2.8584402,2.313064,8.333728,0.8518046,1.740385,0.56814086,23.0,-3.7212048,1.2706848,8.983786,-1.1318647,-0.97181517,0.17883272,-0.039974585,0.20088927,0.4909922,2017-01-13 09:35:56,49.31224897176175
-2.23652,-0.59202003,4.241016,1.0375487,-0.5691949,-2.5821753,36.0,2.3681214,0.7798504,9.484421,2.0452015,0.8719424,-0.5392554,0.0196018,-0.12666862,-0.16250221,2017-01-13 09:35:58,46.78905592055493
1.8657601,1.4340041,9.798828,-0.0011273399,0.0026904978,-0.0012703314,18.0,1.7432258,1.6175469,9.513943,-0.13688625,0.19071883,-0.27770987,0.065416895,-0.10317262,-0.18055575,2017-01-13 09:35:59,45.176887010956065
1.863368,1.4136721,9.791653,0.0017251968,-1.2538582E-4,-0.0010092333,22.0,1.7332729,1.438737,9.544432,-0.12531127,0.03822101,-0.2627689,0.05701315,-0.100592695,-0.17507234,2017-01-13 09:36:00,32.496392138897306
1.832272,1.425632,9.808396,0.0040895045,-1.424551E-4,0.0014859736,23.0,1.734866,1.4175444,9.547315,-0.10338614,0.009852263,-0.2263976,0.05690206,-0.099923186,-0.16553044,2017-01-13 09:36:01,48.92318434593168
1.8442321,1.408888,9.782084,-0.001106143,-2.8958917E-4,-0.0035430938,30.0,1.7439579,1.4208388,9.545168,-0.09668606,0.011950842,-0.23332828,0.05804864,-0.09981122,-0.15519665,2017-01-13 09:36:02,42.1828973576805
1.8549961,1.389752,9.776104,0.003768362,0.0047076195,0.0014688,27.0,1.7587428,1.4118987,9.54378,-0.09625322,0.022146804,-0.23232348,0.05855387,-0.09987016,-0.14465502,2017-01-13 09:36:04,36.81321105155639
1.893268,1.3969281,9.806005,-0.0033654198,-3.543496E-5,-7.568598E-4,19.0,1.7871925,1.3842961,9.54254,-0.08454744,-0.021003917,-0.19409634,0.057993438,-0.10051204,-0.1343867,2017-01-13 09:36:05,28.257290424510124
1.846624,1.4232401,9.790456,0.0013078898,-1.04509294E-4,0.0014630705,27.0,1.7820344,1.3904142,9.542615,-0.04664967,-0.030433718,-0.2598007,0.059386857,-0.099675864,-0.12407907,2017-01-13 09:36:06,35.84672812390299
1.8274881,1.4029081,9.802416,-0.0011630431,-1.5427172E-4,0.0013950467,31.0,1.7817258,1.3930925,9.542281,-0.046958297,-0.011011516,-0.24219549,0.0603128,-0.099203944,-0.11627474,2017-01-13 09:36:07,40.404187109571964
1.862172,1.419652,9.784476,-0.0036033988,-1.08622015E-4,-0.0010157228,31.0,1.7821335,1.3854901,9.543314,-0.044158585,-0.025789984,-0.24116263,0.06066208,-0.098724954,-0.108888656,2017-01-13 09:36:09,14.061574761282845
1.834664,1.39932,9.7940445,-0.0011206493,-0.002568651,-9.820387E-4,30.0,1.7861965,1.3900987,9.5418825,-0.073583566,-0.01878931,-0.25574937,0.06125767,-0.09872643,-0.10507786,2017-01-13 09:36:10,15.534421016558955
1.84782,1.422044,9.785672,0.0013795868,0.0024124756,0.0014648363,25.0,1.7860632,1.3869678,9.542362,-0.042620853,-0.023116233,-0.24570203,0.061381914,-0.09852497,-0.10223333,2017-01-13 09:36:11,40.08066123029827
1.845428,1.419652,9.7940445,0.0012942776,-6.397441E-5,0.0014628768,27.0,1.7871724,1.3861524,9.5422735,-0.04509952,-0.04426365,-0.25775018,0.061453287,-0.09850356,-0.10104261,2017-01-13 09:36:12,37.23019551980966
1.834664,1.424436,9.798828,0.0014344752,-0.0023627281,-6.7885965E-4,19.0,1.790276,1.3808588,9.5424595,-0.043192077,-0.026833355,-0.26952538,0.06137765,-0.09850266,-0.0989259,2017-01-13 09:36:13,38.7185484676926
1.84184,1.394536,9.7940445,-0.001047872,1.4178455E-5,-7.1965903E-4,22.0,1.794199,1.3776209,9.542191,-0.054817047,-0.033659108,-0.25663728,0.06124517,-0.09865456,-0.098398976,2017-01-13 09:36:15,42.72486667632964
1.8394481,1.4053,9.79524,0.0013782382,-2.1904707E-6,-7.0121884E-4,20.0,1.7910007,1.3761501,9.543004,-0.04485928,-0.018385844,-0.24745208,0.061284013,-0.09842007,-0.09740718,2017-01-13 09:36:16,19.194458442291747
1.834664,1.420848,9.796436,0.0010973886,0.0022425987,0.0038582012,28.0,1.7901655,1.3855972,9.541794,-0.054066524,-0.04960282,-0.23789866,0.06187252,-0.09836536,-0.096401855,2017-01-13 09:36:17,35.237897650888655
1.8382521,1.416064,9.774908,0.0012251884,-1.0738894E-4,-9.685382E-4,26.0,1.7864786,1.3843951,9.542659,-0.037421383,-0.04602087,-0.24660102,0.061817344,-0.09817557,-0.09651218,2017-01-13 09:36:18,30.491074355685512
1.8538,1.45314,9.779693,0.0011814311,0.0023149736,0.001507096,22.0,1.7861891,1.3836207,9.542827,-0.06521891,-0.037227176,-0.2524135,0.061816502,-0.09813284,-0.09613445,2017-01-13 09:36:20,30.357798345210433
1.843036,1.4136721,9.792849,-0.0013978779,-1.7786771E-4,-9.834319E-4,37.0,1.7877843,1.3993086,9.540239,-0.04568375,-0.038283408,-0.23706104,0.06247277,-0.09838886,-0.09755029,2017-01-13 09:36:21,29.159637541100047
1.8502121,1.4232401,9.780889,-0.005992897,-0.0024662577,-0.0032576248,28.0,1.792087,1.3848412,9.541542,-0.0461651,-0.025242724,-0.25250235,0.06168854,-0.09854578,-0.0977678,2017-01-13 09:36:22,12.466101252495447
1.840644,1.442376,9.77132,-0.0036250874,-8.742884E-5,-9.069219E-4,26.0,1.7842822,1.3939911,9.541673,-0.040813804,-0.029249037,-0.2404121,0.062198155,-0.0981911,-0.09773824,2017-01-13 09:36:23,19.207356193177002
1.83586,1.4232401,9.798828,0.0036927387,-7.240102E-5,-8.9312345E-4,28.0,1.7855598,1.3874557,9.542385,-0.06345628,-0.03458835,-0.24926703,0.061960034,-0.09815639,-0.096699834,2017-01-13 09:36:24,24.06900944699693
1.8382521,1.420848,9.811984,0.003697358,0.0024093688,-9.048283E-4,29.0,1.7883216,1.3844455,9.542305,-0.027206426,-0.035206486,-0.23977907,0.061821356,-0.09826455,-0.096410096,2017-01-13 09:36:26,12.6130934473902
1.8394481,1.41726,9.797632,0.0013198033,-2.7101487E-5,-0.003308557,27.0,1.7888298,1.3768035,9.543319,-0.053010292,-0.047632545,-0.26148996,0.06142351,-0.0982519,-0.096445486,2017-01-13 09:36:27,12.688648864224588
1.851408,1.404104,9.8072,-0.006117396,0.0024348497,-8.9206547E-4,24.0,1.7846701,1.3945376,9.541521,-0.07391396,-0.0083705,-0.26687574,0.062417183,-0.098091625,-0.0957959,2017-01-13 09:36:28,18.67698762107121
1.8394481,1.406496,9.780889,0.0038373247,2.8114766E-5,0.0016872138,27.0,1.7862798,1.3753666,9.544003,-0.05436419,-0.03232552,-0.25602117,0.061349045,-0.09812066,-0.09657499,2017-01-13 09:36:29,37.838645142272085
1.825096,1.425632,9.806005,0.005910471,-1.0669231E-5,-0.0032730326,28.0,1.7867249,1.3915782,9.54157,-0.049135055,-0.036445964,-0.24649464,0.06221712,-0.09820631,-0.09618467,2017-01-13 09:36:31,46.454329392782896
1.8334681,1.432808,9.786868,-0.001401417,4.4111162E-5,0.0016380996,37.0,1.7887169,1.3851861,9.542126,-0.05431918,-0.039249916,-0.24952656,0.061874013,-0.0982785,-0.0962437,2017-01-13 09:36:32,37.883000066511755
1.8382521,1.422044,9.798828,-0.0014086068,-0.00243558,0.001612477,35.0,1.7899593,1.3892969,9.541295,-0.04829276,-0.03274711,-0.25753334,0.062109713,-0.09834527,-0.095934875,2017-01-13 09:36:33,31.019657874084015
1.834664,1.41726,9.804809,-0.0014000982,8.165836E-6,-8.466691E-4,37.0,1.7875502,1.3879347,9.5419445,-0.04711378,-0.049657326,-0.23774844,0.062057726,-0.09820954,-0.09586897,2017-01-13 09:36:34,42.26676163828447
1.83586,1.44118,9.7940445,0.0010633096,-6.3329935E-6,0.0016382337,36.0,1.7871403,1.3859909,9.542303,-0.047523823,-0.039641105,-0.26011282,0.06201617,-0.09814248,-0.09530273,2017-01-13 09:36:35,16.184873197217613
1.843036,1.422044,9.785672,0.0010779947,-2.758205E-5,0.0016331598,37.0,1.7855455,1.3879688,9.542315,-0.05749065,-0.029291268,-0.24455403,0.062137924,-0.098062575,-0.09517314,2017-01-13 09:36:37,37.8199624762386
1.840644,1.420848,9.798828,-0.0013482422,-3.482029E-5,-7.572025E-4,35.0,1.7873241,1.3837967,9.542587,-0.05212401,-0.056187313,-0.23471244,0.061802715,-0.09820334,-0.09631024,2017-01-13 09:36:38,23.47110754107333
1.84184,1.4292201,9.809592,0.0011023432,-3.355369E-5,-7.4448436E-4,37.0,1.788067,1.3875499,9.5419035,-0.06094912,-0.024926206,-0.2581202,0.06196388,-0.09827937,-0.09659008,2017-01-13 09:36:39,11.287285908458713
1.82988,1.431612,9.800024,-0.0013750046,-2.0101666E-5,0.0016990378,35.0,1.7917702,1.3876314,9.541197,-0.04648191,-0.0439806,-0.23969197,0.06201648,-0.09842936,-0.09592774,2017-01-13 09:36:40,14.049238735922433
1.837056,1.419652,9.788064,-0.0013948381,-2.7026981E-5,-7.369146E-4,37.0,1.7883401,1.385605,9.542133,-0.045128014,-0.020891106,-0.24473464,0.061948832,-0.09822882,-0.09572489,2017-01-13 09:36:41,11.62390525116036
1.84782,1.41726,9.803612,0.0010378063,-7.044524E-6,0.0017273799,35.0,1.7864375,1.389097,9.541984,-0.045834552,-0.030555006,-0.25445232,0.062102675,-0.09817092,-0.09606924,2017-01-13 09:36:43,11.073027350502723
1.83586,1.428024,9.779693,-0.0014312938,-0.0024597868,-6.914139E-4,37.0,1.7906668,1.3923283,9.54072,-0.047585342,-0.04287176,-0.24136488,0.062072217,-0.09851775,-0.097838886,2017-01-13 09:36:44,48.915853436299244
1.8334681,1.425632,9.796436,9.819046E-4,-3.4347177E-6,-6.778091E-4,36.0,1.7902504,1.3868042,9.541601,-0.050393533,-0.046003774,-0.2428747,0.06188019,-0.0984101,-0.09694271,2017-01-13 09:36:45,31.633611527661625
1.82988,1.448356,9.78926,-0.0014370382,3.1642616E-5,0.0017575771,37.0,1.7881649,1.3888459,9.541697,-0.041715138,-0.05951003,-0.24756314,0.061965037,-0.0983323,-0.097242124,2017-01-13 09:36:46,40.04747002509344
1.8286841,1.4292201,9.797632,-0.0013419092,-0.0023671277,-7.067919E-4,35.0,1.7918061,1.3856906,9.541472,-0.050033905,-0.02678557,-0.25137597,0.061888576,-0.098438546,-0.09621076,2017-01-13 09:36:48,52.56197780372964
1.8538,1.431612,9.78328,0.0010942742,0.0024669021,-6.9746375E-4,33.0,1.787449,1.3884008,9.541895,-0.04721505,-0.027663229,-0.24616906,0.06211508,-0.09818595,-0.09553696,2017-01-13 09:36:49,29.246366079770777
1.8239,1.414868,9.782084,-0.0036927313,-0.002436053,0.0017832369,32.0,1.7900305,1.3774112,9.543003,-0.05180954,-0.03267273,-0.2450608,0.061481893,-0.09829656,-0.09611473,2017-01-13 09:36:50,43.70383287544465
1.825096,1.4184561,9.779693,-0.0013027713,0.0024118312,0.0017542765,37.0,1.7819209,1.3903612,9.542644,-0.04676321,-0.02091887,-0.2346569,0.062248155,-0.097906955,-0.09547002,2017-01-13 09:36:51,45.458737929218536
1.846624,1.420848,9.790456,0.003544636,-2.8777868E-5,-6.554648E-4,34.0,1.786239,1.3856149,9.542526,-0.06038506,-0.03523308,-0.24792963,0.061990466,-0.09810071,-0.09540985,2017-01-13 09:36:53,34.24649427019154
1.845428,1.428024,9.786868,0.0011157617,-6.1906874E-5,-6.4201653E-4,37.0,1.7881258,1.3855757,9.54218,-0.062086456,-0.03407631,-0.24349253,0.062042102,-0.09815838,-0.09478068,2017-01-13 09:36:54,52.330215615490935
1.834664,1.4340041,9.798828,0.0035267398,-8.121878E-5,-6.0479343E-4,36.0,1.7909743,1.3882077,9.541262,-0.04488573,-0.031444356,-0.25756606,0.062248137,-0.09826599,-0.09393328,2017-01-13 09:36:55,43.568164212759115
1.766492,1.478256,9.8072,0.052375935,0.12700705,0.011608586,37.0,1.7657584,1.3942757,9.545077,-0.06531769,-0.027768297,-0.2382032,0.06272843,-0.09696238,-0.093392506,2017-01-13 09:36:56,14.58357473379882
2.7783082,0.546572,9.43644,-0.41198406,-0.18826894,2.1158924,37.0,2.4581451,0.059225813,9.493387,0.26228914,-0.3007702,0.15023558,0.0021063525,-0.12636268,-0.007361905,2017-01-13 09:36:57,29.90174468003046
3.770988,0.058604002,9.994972,-0.33622006,-1.244077,0.089816585,24.0,3.4134977,-0.33848986,9.187157,0.6662854,0.39824614,-1.3950527,-0.016864495,-0.17692082,0.003743362,2017-01-13 09:36:59,51.94780418030736
-0.441324,0.064584,9.882548,0.0010519326,0.048799057,-6.1140954E-4,18.0,-0.036792397,-0.3644467,9.799808,0.3674556,-0.3943467,0.017723288,-0.018541025,0.0022687695,-0.021141032,2017-01-13 09:37:00,42.7155315744743
-0.331292,0.052624002,9.718697,-0.011051469,-0.009895101,-6.096363E-4,20.0,-0.18638097,-0.19024485,9.803035,0.16045903,-0.23808485,0.05683014,-0.009466382,0.009737064,-0.024348803,2017-01-13 09:37:01,17.60552055002332
-0.35282,0.069368005,9.717501,0.0011981502,-0.002610214,-6.747097E-4,19.0,-0.2804091,-0.061305676,9.80245,0.0664309,-0.11751767,0.0837538,-0.0027286543,0.014379545,-0.02770637,2017-01-13 09:37:02,39.14118488165834
-0.35042801,0.058604002,9.736636,0.0012377277,-1.7727911E-4,-6.828904E-4,21.0,-0.3212353,-0.008213336,9.801385,0.047132704,-0.057249334,0.07790449,1.0704531E-4,0.016385645,-0.032085367,2017-01-13 09:37:03,32.7997779156061
-0.36478,0.055016,9.717501,0.0011851266,-1.8278137E-4,-6.378293E-4,19.0,-0.3429262,0.011393373,9.800647,0.020657808,-0.054386627,0.06640286,0.0012249484,0.017453762,-0.03684185,2017-01-13 09:37:05,31.382480994763796
-0.369564,0.072956,9.717501,0.0012106076,-1.9591674E-4,-6.599426E-4,21.0,-0.35548598,0.022461519,9.80018,-0.002665968,-0.037338484,0.07669979,0.0018852032,0.018065784,-0.04085619,2017-01-13 09:37:06,48.85211036122408
-0.36119202,0.058604002,9.725872,-0.001241222,-1.9371882E-4,0.0017492548,19.0,-0.35740748,0.027681256,9.800097,-0.009371457,-0.018962746,0.05987375,0.0022333371,0.018143399,-0.045158792,2017-01-13 09:37:07,42.77526822852793
-0.367172,0.052624002,9.705541,0.0012125671,-0.0026096813,0.0017460808,21.0,-0.36163712,0.03244947,9.799927,0.013906872,-0.026154531,0.07525077,0.002543219,0.018340118,-0.048274223,2017-01-13 09:37:08,42.561754506067004
-0.365976,0.057408,9.7198925,0.00364995,0.0022664703,-0.0031257942,19.0,-0.36783943,0.04708355,9.799636,0.0029205636,-0.016304458,0.06658757,0.0033541727,0.018611152,-0.050970487,2017-01-13 09:37:10,15.232179053771555
-0.379132,0.055016,9.716304,-0.0012004375,-1.8952787E-4,-6.581247E-4,21.0,-0.3718588,0.048065394,9.7994795,0.0024892231,-0.009342605,0.06403963,0.0034640795,0.018804334,-0.053594746,2017-01-13 09:37:11,43.153600507571674
-0.365976,0.055016,9.728264,0.0012528896,-1.6282126E-4,0.0017580912,19.0,-0.3716009,0.051938113,9.79947,0.0063351216,-0.006665888,0.07240181,0.0036779677,0.018777221,-0.054519057,2017-01-13 09:37:12,22.015997989936167
-0.367172,0.053820003,9.716304,0.0012437701,0.0023117922,0.0017530397,21.0,-0.36368152,0.049801365,9.799779,-0.0024895153,-0.007606635,0.06912205,0.0035720584,0.01837494,-0.055874374,2017-01-13 09:37:13,32.48306440758855
-0.3887,0.057408,9.717501,-0.001234144,-1.3220683E-4,-7.0382655E-4,19.0,-0.3734453,0.04805434,9.799419,-0.0050773034,-0.018921664,0.060391635,0.0035410523,0.018871594,-0.057465084,2017-01-13 09:37:14,22.808268115355066
-0.369564,0.050232,9.7198925,-0.0012172163,-8.1758946E-5,-7.262677E-4,21.0,-0.37493935,0.046749696,9.799368,-0.007767346,-0.013050306,0.0878478,0.0034915635,0.018949198,-0.058125935,2017-01-13 09:37:16,13.041992713333396
-0.342056,-0.075348005,9.822748,-0.025553897,-0.009832472,-0.0031637102,19.0,-0.35907874,0.04780978,9.799957,0.087029286,-0.03112622,-0.0036544309,0.003500901,0.018137863,-0.05826129,2017-01-13 09:37:17,43.56487878781418
-0.387504,0.010764,9.717501,0.0012608767,-0.012247566,0.0016720518,20.0,-0.3699577,0.054894425,9.799516,0.017546324,0.044130426,0.08201544,0.003896048,0.018670402,-0.058373567,2017-01-13 09:37:18,37.531332783766224
-0.37076,0.050232,9.728264,-0.0035941899,-6.524846E-5,-7.542744E-4,18.0,-0.3837727,0.045764178,9.799031,-0.009424685,-0.0044678207,0.06359072,0.0034494167,0.019405227,-0.057189558,2017-01-13 09:37:19,57.72034504790383
-0.37195602,0.053820003,9.749792,-0.0011470392,-0.0024573654,-8.1568956E-4,20.0,-0.37434667,0.046926685,9.799391,-0.0011946532,-0.009285318,0.09265432,0.0034684394,0.018924082,-0.056523565,2017-01-13 09:37:21,30.838761848406094
-0.392288,0.081328005,9.749792,-0.0011426359,-0.004907541,0.00163351,18.0,-0.3688036,0.052890748,9.79957,-0.029139586,0.021794746,0.09402911,0.0037513142,0.018625548,-0.056267634,2017-01-13 09:37:22,29.91949930985991
-0.35042801,0.043056,9.72348,0.003774114,-0.0024787113,0.0016285703,20.0,-0.37938273,0.05694734,9.799143,0.0033372547,-0.014812661,0.070879124,0.004006199,0.019148998,-0.05720223,2017-01-13 09:37:23,38.05596887513447
-0.362388,0.074152,9.705541,0.0061467215,-0.009700421,-7.84643E-4,18.0,-0.36363408,0.06364733,9.799702,0.032241937,0.017003326,0.057084993,0.0042983308,0.01832809,-0.057041343,2017-01-13 09:37:24,18.640774786811058
-0.35999602,0.056212,9.706737,0.0012963787,-0.0023996122,0.001659289,21.0,-0.3801175,0.053644907,9.799134,-0.018925505,0.003412909,0.06608546,0.0038307533,0.019197935,-0.05671048,2017-01-13 09:37:25,14.552167320723179
-0.37076,0.045448,9.736636,0.0013278946,-0.0023781136,-7.983744E-4,18.0,-0.37873706,0.0545038,9.799184,0.007570947,0.015035799,0.056567106,0.0038695633,0.01912533,-0.056662474,2017-01-13 09:37:27,46.495222279807564
-0.369564,0.045448,9.724676,-0.0010892674,1.2103468E-4,-8.0475956E-4,17.0,-0.38386777,0.05609502,9.798973,-0.00473576,-0.01207698,0.09941315,0.0039681485,0.0193815,-0.0568023,2017-01-13 09:37:28,27.93778111072549
-0.386308,0.070564,9.704344,0.006216772,0.0025907084,-8.0157816E-4,15.0,-0.38287732,0.05420992,9.799024,0.0034306687,0.026701922,0.054015085,0.003884658,0.019333431,-0.057595365,2017-01-13 09:37:29,34.24467368251678
-0.381524,0.08372,9.7569685,-0.0060029626,-0.016910672,-7.590875E-4,17.0,-0.37756038,0.05227299,9.799241,-0.018760376,-0.0039390107,0.079348266,0.0037835177,0.019065727,-0.05828206,2017-01-13 09:37:30,46.63320950259554
-0.374348,0.069368005,9.710324,0.008620307,-0.0022931024,-7.2677433E-4,17.0,-0.38280013,0.053272612,9.799031,-0.020412127,6.4860925E-4,0.09707915,0.0038641086,0.019326793,-0.059010096,2017-01-13 09:37:32,52.32320497119714
-0.3887,0.072956,9.688796,0.0013245866,0.0025768764,-7.0926547E-4,17.0,-0.37894273,0.055115767,9.799171,-0.011770736,0.012059765,0.06373159,0.003936483,0.019126834,-0.058497295,2017-01-13 09:37:33,22.979356772189973
-0.377936,0.07774,9.649328,0.006211154,0.0074827783,-7.702559E-4,16.0,-0.3852362,0.056789692,9.798916,-0.022848194,0.012537689,0.12327567,0.0040203445,0.019446535,-0.05746211,2017-01-13 09:37:34,51.4146741748026
-0.461656,0.059800003,9.820356,-0.0060156807,-0.03893003,-0.0031932518,17.0,-0.37976688,0.052660972,9.799153,0.023285124,0.010800969,0.09361235,0.0037976725,0.01917936,-0.057648815,2017-01-13 09:37:35,44.08966715333459
-0.342056,0.045448,9.710324,-0.0011921301,0.002577316,0.0017462671,15.0,-0.37992588,0.055047955,9.799133,-0.0043818685,-0.026280046,0.06130115,0.0039357147,0.019177157,-0.05848406,2017-01-13 09:37:36,25.43978364914131
-0.38511202,0.050232,9.731853,-0.0012057349,-0.0022746325,-6.925389E-4,17.0,-0.381728,0.054572742,9.7990675,-0.0037919763,-0.008815266,0.087546766,0.0039119925,0.019271348,-0.058229543,2017-01-13 09:37:38,10.835767987502328
-0.357604,0.04186,9.733048,-0.015926786,0.0148264915,-6.3440204E-4,15.0,-0.40148878,0.05779718,9.798257,-0.104880765,-0.109642826,0.254177,0.004151112,0.020264884,-0.05902567,2017-01-13 09:37:39,14.114519999361288
-0.48079202,0.02392,9.441224,-0.0012999997,0.0026754998,-6.3522905E-4,17.0,-0.37680802,0.055713393,9.799251,-6.8023735E-5,-0.031594615,-0.2830296,0.0039712223,0.019014109,-0.059058663,2017-01-13 09:37:40,28.47022285495131
-0.379132,0.051428,9.717501,0.0011683553,2.3430958E-4,-6.351024E-4,15.0,-0.38302985,0.052784797,9.799026,0.0032781449,-0.0010352066,0.07554478,0.0038478633,0.01933839,-0.05941756,2017-01-13 09:37:41,42.585289256476635
-0.37315202,0.066976,9.72348,-0.0013314411,-0.0046326183,-6.1189383E-4,18.0,-0.382106,0.059370253,9.799026,-0.0065620253,0.009138255,0.08272154,0.004170775,0.019273467,-0.058924284,2017-01-13 09:37:42,35.16701760631723
-0.49275202,0.12558,9.81318,0.0011342913,2.230443E-4,0.0018499047,15.0,-0.37973315,0.064470984,9.799084,-6.011442E-4,0.027394984,0.061251465,0.0044204444,0.019137973,-0.058775447,2017-01-13 09:37:44,28.938078002753016
-0.36119202,0.04784,9.718697,0.0010801479,6.9562346E-5,-5.8110803E-4,17.0,-0.38862813,0.053453624,9.798802,-0.0071041333,-0.017110376,0.06575404,0.0038838119,0.019624447,-0.058649886,2017-01-13 09:37:45,38.63496364308463
-0.374348,0.049036,9.715108,0.0010985285,1.1522323E-4,0.0018235222,14.0,-0.38417646,0.05151605,9.7989855,-0.011024448,0.0024800487,0.089857385,0.003770964,0.0194037,-0.058605164,2017-01-13 09:37:46,17.256899513551964
-0.36478,0.034684002,9.722284,-0.0013541654,-0.002354607,-6.3090026E-4,17.0,-0.38646948,0.049090423,9.79891,-0.006141462,-0.011905579,0.06825345,0.0036437197,0.019529704,-0.058062196,2017-01-13 09:37:47,50.00755807443212
-0.363584,0.059800003,9.706737,0.0011074692,1.2716651E-4,0.0018171892,15.0,-0.38244322,0.05076928,9.79906,-0.015271219,5.3728063E-4,0.09471593,0.0037264011,0.01931792,-0.058535114,2017-01-13 09:37:49,43.65324852518416
-0.369564,0.049036,9.7198925,0.001137957,9.0721995E-5,-6.202683E-4,17.0,-0.38633198,0.054857325,9.798883,-0.015571992,0.009409323,0.08018705,0.0039478587,0.019503424,-0.058622573,2017-01-13 09:37:50,55.1828747631314
-0.391092,0.051428,9.713912,0.0035429373,0.0025243275,-6.3046813E-4,17.0,-0.38456365,0.058379006,9.798935,-0.026959648,0.021303006,0.07665011,0.0041293246,0.019401258,-0.059007246,2017-01-13 09:37:51,47.46087597118319
-0.393484,0.058604002,9.7198925,-0.0013662428,-0.0023653395,-6.119609E-4,18.0,-0.3843218,0.055922933,9.798957,0.009162198,-0.0026810695,0.07906418,0.00402724,0.019391423,-0.06022572,2017-01-13 09:37:52,20.943748986499205
-0.38272,0.056212,9.724676,-0.0038486943,1.6044825E-5,-5.777925E-4,17.0,-0.38779467,0.053458657,9.798834,-0.015838644,-0.007537346,0.096882164,0.003898364,0.019578652,-0.059505872,2017-01-13 09:37:53,12.393141457047694
-0.387504,0.052624002,9.733048,0.0010155886,0.002449952,-5.825907E-4,16.0,-0.38151515,0.05224666,9.7990885,-0.0035791371,0.0020146598,0.08517595,0.0038113073,0.019263785,-0.05918114,2017-01-13 09:37:55,35.96486811541663
-0.391092,0.060996,9.72348,-0.0014585108,-4.7162175E-5,-5.4077804E-4,15.0,-0.38028112,0.051456444,9.79914,-0.00832509,0.0072044423,0.0864239,0.0037751442,0.019201795,-0.059586305,2017-01-13 09:37:56,14.661113704939234
-0.393484,0.055016,9.734244,-0.0015677884,0.004780598,0.0019221157,16.0,-0.37648332,0.05332027,9.799277,-0.022467304,-0.0064797313,0.097325236,0.0038474654,0.019004969,-0.05900874,2017-01-13 09:37:57,13.592312993014989
-0.37315202,0.058604002,9.710324,8.716285E-4,-9.01185E-5,-5.461499E-4,14.0,-0.38350058,0.052608885,9.799008,-0.011544563,-0.002407116,0.06715631,0.0038332737,0.019364292,-0.059053507,2017-01-13 09:37:58,46.44648346247849
-0.37195602,0.056212,9.709128,-0.0015520975,0.0024034977,-5.3825974E-4,15.0,-0.38461062,0.052924484,9.798964,-0.012654607,-0.0032875156,0.089835174,0.0038501336,0.019420378,-0.058922175,2017-01-13 09:37:59,35.56740179613784
-0.3887,0.052624002,9.722284,-0.0040234253,-0.0024740547,-5.4971874E-4,14.0,-0.38299578,0.055932894,9.799009,0.020056225,-0.007455111,0.058785368,0.003995589,0.019329695,-0.058775775,2017-01-13 09:38:01,24.16004681051185
-0.386308,0.063388005,9.712716,0.003306128,0.002464179,0.0018889084,17.0,-0.37908006,0.058011893,9.79915,-0.015496041,0.006583895,0.09719839,0.0040844083,0.019125178,-0.058501277,2017-01-13 09:38:02,39.63404063624
-0.386308,0.044252,9.721088,-0.0039901286,0.0024529248,-6.0518086E-4,14.0,-0.38594088,0.055642705,9.798896,3.671163E-4,0.011390702,0.07780746,0.0040235054,0.019473586,-0.060510047,2017-01-13 09:38:03,20.926274525602892
-0.38272,0.06578,9.695972,-0.0015741661,3.381446E-5,-0.0030590743,20.0,-0.38214168,0.050687548,9.79907,-0.02453768,-0.025856454,0.11505846,0.003741028,0.019299,-0.05955326,2017-01-13 09:38:04,12.921392074300455
-0.40066,0.056212,9.724676,8.491352E-4,1.609698E-5,-5.94452E-4,17.0,-0.3953396,0.055081446,9.798524,0.0017324133,0.0012614394,0.07265139,0.0040001418,0.01995872,-0.05931722,2017-01-13 09:38:06,12.095464293845488
-0.386308,0.050232,9.716304,8.25122E-4,0.002448067,0.0018641725,19.0,-0.39436516,0.058930878,9.79854,0.0027068479,-0.009241122,0.07386369,0.004189569,0.019898213,-0.059137486,2017-01-13 09:38:07,24.113960835326903
-0.238004,0.057408,9.648132,8.1241876E-4,-0.01466012,0.004280828,17.0,-0.39885747,0.0536801,9.798389,-0.17640145,-0.0898399,-0.07578736,0.003930445,0.02014387,-0.058870293,2017-01-13 09:38:08,15.626761423553317
-0.381524,0.04186,9.736636,-0.0015578344,0.007307209,-5.798638E-4,20.0,-0.39187145,0.044790298,9.7987175,0.0028085911,-0.0018537062,0.06686463,0.0034440858,0.019816982,-0.05822659,2017-01-13 09:38:09,11.740791240187844
-0.368368,0.112424,9.762948,-0.0015310943,-0.012219161,-6.009266E-4,17.0,-0.40701282,0.05531576,9.798044,-0.015920842,-0.0068762423,0.067387775,0.0040239245,0.02055712,-0.0581748,2017-01-13 09:38:10,33.88584916829152
-0.380328,0.025116,9.767733,-0.0064239874,9.466335E-5,-0.003046371,19.0,-0.39580765,0.05753883,9.79849,-0.021459626,0.0025228285,0.09294892,0.004112069,0.019978138,-0.05858828,2017-01-13 09:38:12,32.400634373058715
-0.39468002,0.057408,9.737832,-0.0014930516,-0.0024409182,0.0018501878,17.0,-0.3980415,0.045072738,9.798467,0.0014225437,-0.0039632595,0.0845546,0.003466011,0.020132247,-0.057690736,2017-01-13 09:38:13,21.924008239346293
-0.40783602,0.002392,9.766536,-0.018515088,-0.01699803,-0.0030087754,19.0,-0.39683312,0.05190814,9.798481,0.028942894,-0.02822386,0.15034838,0.0038138337,0.020049965,-0.05785898,2017-01-13 09:38:14,15.208083746897305
-0.393484,0.04784,9.742617,0.0010764003,-0.0022333376,-5.782917E-4,15.0,-0.3966433,0.05297901,9.798483,0.020760683,0.018295009,0.06065116,0.0038701743,0.020036679,-0.057977635,2017-01-13 09:38:15,57.75865684245431
-0.365976,0.059800003,9.768929,-0.0013765544,1.8174946E-4,0.0018721074,20.0,-0.40397438,0.05379007,9.79818,-0.02245039,0.0011660664,0.07230711,0.003960068,0.020402465,-0.05929254,2017-01-13 09:38:17,55.62845999321966
-0.35999602,0.076544,9.71152,9.7519904E-4,-0.011932302,-5.751923E-4,16.0,-0.40483204,0.057769805,9.7981205,-0.024504036,-0.012794194,0.06746435,0.004191603,0.020428736,-0.06057894,2017-01-13 09:38:18,30.41857421450103
-0.403052,0.066976,9.686404,0.0082840845,0.012498401,-5.5859983E-4,15.0,-0.40616646,0.058306795,9.798063,-0.037798475,0.020034794,0.085346624,0.0042353217,0.020492505,-0.061175585,2017-01-13 09:38:19,22.32209171668771
-0.398268,0.052624002,9.716304,0.001038909,-0.002127234,-0.0029915795,17.0,-0.40018755,0.054844365,9.798329,-0.010291531,0.0010243609,0.08082886,0.004028112,0.020201288,-0.060569223,2017-01-13 09:38:20,62.072801063094474
-0.379132,0.055016,9.695972,9.99853E-4,-0.002164483,-5.297959E-4,17.0,-0.4016259,0.052760463,9.798282,-0.010533925,0.00611646,0.050882045,0.003928251,0.020280628,-0.06065608,2017-01-13 09:38:21,39.53764692401294
-0.405444,0.056212,9.742617,-0.0040417314,-0.0025152005,-5.480945E-4,17.0,-0.41393092,0.06074518,9.797723,-0.0072909244,-0.020582825,0.07902619,0.0043686717,0.02088345,-0.060456593,2017-01-13 09:38:23,54.07761274229894
-0.434148,0.07774,9.689992,-0.0064264312,0.024186905,-5.0055236E-4,18.0,-0.42909008,0.065963656,9.797036,-0.05593805,-0.016560346,0.12976795,0.0046807113,0.021639492,-0.060435597,2017-01-13 09:38:24,50.17637622057003
-0.41262,0.056212,9.707932,9.6033514E-4,-0.0026124641,0.001938805,16.0,-0.4211924,0.053486686,9.797456,-0.008572415,-0.002725315,0.08952303,0.004039891,0.021272153,-0.06131395,2017-01-13 09:38:25,38.22802894519789
-0.404248,0.052624002,9.712716,9.3489885E-4,-1.6653538E-4,0.0019438565,19.0,-0.42418948,0.054866146,9.797318,0.0027825069,-0.014501856,0.08101532,0.0041253828,0.021419337,-0.061587933,2017-01-13 09:38:26,45.34027036133439
-0.437736,0.082524,9.762948,-0.0015190393,-0.005035728,-4.5133382E-4,18.0,-0.42876357,0.058427997,9.797098,-0.053219587,-0.0025680056,0.108302556,0.004317981,0.021641714,-0.061444774,2017-01-13 09:38:27,28.79908054723729
-0.308568,0.078936,9.691188,0.030249514,-0.019577648,0.0044118613,19.0,-0.40890726,0.05773925,9.797952,-0.028579248,0.02783925,0.23593174,0.0042181415,0.020633202,-0.061327476,2017-01-13 09:38:29,38.228118873434276
-0.428168,0.059800003,9.698364,-0.0014598966,-0.0024559423,0.0019597858,16.0,-0.42253846,0.05359597,9.797398,-0.0027424307,-0.0097920345,0.07032909,0.0040543736,0.021339467,-0.061533786,2017-01-13 09:38:30,19.258718454192977
-0.410228,0.049036,9.716304,-0.0014398843,3.426522E-5,-5.013421E-4,17.0,-0.4219653,0.05533847,9.797411,-0.008149295,0.00510647,0.08708675,0.00412239,0.021308476,-0.060649645,2017-01-13 09:38:31,22.310323121602448
-0.365976,0.043056,9.705541,9.5155835E-4,1.039356E-5,-0.0051961094,17.0,-0.420972,0.052813917,9.797468,-0.029879993,0.020521918,0.056048635,0.004016355,0.021260878,-0.061848987,2017-01-13 09:38:32,37.686650501828495
-0.368368,0.0897,9.718697,0.0057820007,0.0072582513,0.0021624789,17.0,-0.4129703,0.055568013,9.797794,-0.049386293,0.0041400134,0.11976269,0.0041107633,0.020848785,-0.060868368,2017-01-13 09:38:33,23.757100409879776
-0.428168,0.086112,9.685208,0.0058309734,-0.0024926998,-3.7956983E-4,15.0,-0.42889708,0.057141803,9.7971,-0.017473077,0.010497799,0.076011814,0.0042011407,0.021662645,-0.059058443,2017-01-13 09:38:35,39.198975483411346
-0.43654,0.062192,9.71152,-0.0014835298,-1.7326325E-5,0.0020638928,13.0,-0.43541357,0.061741177,9.796784,-0.026381556,-0.001646831,0.102007836,0.0044881385,0.021973968,-0.060564604,2017-01-13 09:38:36,21.65382873611254
-0.447304,0.064584,9.643348,0.0034126714,4.217401E-5,0.0020377114,17.0,-0.43261734,0.055878293,9.796945,-0.0379373,-0.008705709,0.057916183,0.0042123394,0.021843635,-0.06199482,2017-01-13 09:38:37,31.865695506545613
-0.43295202,0.049036,9.724676,-0.0039504766,5.275756E-5,-3.8879365E-4,15.0,-0.43594813,0.053908445,9.796808,-0.006584128,-0.0011075549,0.07691548,0.0041188607,0.022020182,-0.06182421,2017-01-13 09:38:38,21.50834362256846
-0.42458,0.050232,9.731853,9.823218E-4,0.0025423877,-4.2339414E-4,15.0,-0.43514046,0.054221768,9.796842,-0.008168475,-0.001990233,0.09488953,0.004153976,0.021973971,-0.06281033,2017-01-13 09:38:39,48.700171762566164
-0.43175602,0.063388005,9.715108,9.471923E-4,-0.0048050433,-4.17538E-4,14.0,-0.43216482,0.054352827,9.796973,-0.0075847926,0.008904826,0.08425649,0.004146649,0.021822868,-0.0626071,2017-01-13 09:38:41,33.43982357654876
-0.429364,0.049036,9.705541,9.223074E-4,-0.002406478,-4.3433905E-4,16.0,-0.43949658,0.05561517,9.7966385,-0.005348558,0.0077751735,0.08153028,0.004222762,0.02219441,-0.062085483,2017-01-13 09:38:42,19.183672448802767
-0.441324,0.055016,9.701952,-0.0014949664,5.4027885E-5,-4.5915693E-4,15.0,-0.44344682,0.060704544,9.796431,-0.017670792,0.010472545,0.075342536,0.004512182,0.02237589,-0.062880374,2017-01-13 09:38:43,26.07778487301065
-0.434148,0.068172,9.707932,-0.0014341846,4.768744E-5,-4.3587387E-4,15.0,-0.4396264,0.053709663,9.796645,-0.011458419,-0.0036983385,0.08392858,0.0041397396,0.022204526,-0.06269474,2017-01-13 09:38:44,42.66097502843796
-0.426972,0.056212,9.710324,0.0010147467,-0.0023936555,-4.3595582E-4,16.0,-0.43854278,0.056402173,9.796677,-0.011570794,0.013346169,0.074392684,0.004262332,0.02214286,-0.06219986,2017-01-13 09:38:45,19.141447434335547
-0.42458,0.052624002,9.721088,0.0010858551,-0.0047859214,0.0020201728,15.0,-0.44029006,0.05567498,9.796605,-0.019298026,0.013814978,0.052792847,0.004249388,0.02223061,-0.06303084,2017-01-13 09:38:47,13.8141124348156
-0.43175602,0.044252,9.717501,-0.006282419,-0.004841257,0.0019594654,16.0,-0.433342,0.063221,9.796868,0.041470002,-0.025283007,0.09132746,0.004629485,0.021848673,-0.06387122,2017-01-13 09:38:48,46.122754479471844
-0.434148,0.053820003,9.715108,-0.0013219714,-0.0023335628,-5.044937E-4,15.0,-0.4364233,0.052863326,9.796792,-0.021411292,0.008611322,0.081684016,0.0041093463,0.022039851,-0.06373352,2017-01-13 09:38:49,42.47921195250094
-0.416208,0.04784,9.71152,-0.0013171062,-0.0023458935,0.0018970296,15.0,-0.44061056,0.056025993,9.796588,-0.024402548,0.008185997,0.08506781,0.0042759185,0.02224434,-0.06337313,2017-01-13 09:38:50,17.208212270581186
-0.416208,0.049036,9.713912,0.0011649653,1.1328235E-4,-5.450547E-4,15.0,-0.43344927,0.05149489,9.796931,-0.011261253,0.014418891,0.06866729,0.004027048,0.021893404,-0.06359846,2017-01-13 09:38:52,44.94227965274636
-0.41979602,0.0131560005,9.81916,-0.015873812,-0.009670727,-5.5586547E-4,16.0,-0.4371811,0.058987394,9.796723,0.010122896,-0.07496461,0.18088381,0.004406124,0.022062024,-0.062947474,2017-01-13 09:38:53,28.873744097046206
-0.41860002,0.046644002,9.689992,0.0012200698,8.393079E-5,0.0018462837,12.0,-0.44292095,0.062696494,9.796443,-0.01953695,0.029208492,0.046650693,0.0046039447,0.022344364,-0.06252604,2017-01-13 09:38:54,14.270541712083629
-0.43175602,0.038272,9.742617,-0.001210928,0.0025556274,-5.817637E-4,14.0,-0.4389994,0.057278875,9.796653,-0.013223384,0.004654872,0.08274083,0.0043149255,0.022162063,-0.062493272,2017-01-13 09:38:55,37.35507128203999
-0.43654,0.06578,9.721088,-0.0012298077,-0.002323795,-5.535409E-4,11.0,-0.44259194,0.057038262,9.796493,-0.0060519204,-0.0087417355,0.07540391,0.0043163216,0.02234536,-0.062590025,2017-01-13 09:38:56,31.77909730410775
-0.416208,0.046644002,9.705541,-0.0012743697,-0.0023289397,-0.0029091015,14.0,-0.44401705,0.051537406,9.796457,-0.0038890433,-0.010654597,0.08493688,0.0040464597,0.022434477,-0.06283779,2017-01-13 09:38:58,50.91646616736181
-0.422188,0.072956,9.669661,0.008470334,-0.00718157,0.0019480735,13.0,-0.42400533,0.05502638,9.797326,0.034062684,-0.01673362,0.069062434,0.004156404,0.021404916,-0.06268077,2017-01-13 09:38:59,49.60769010083596
-0.43654,0.060996,9.698364,-0.0012673512,1.4576688E-4,-4.798174E-4,15.0,-0.4410743,0.054172534,9.796577,0.0074256933,-0.0032354656,0.08266484,0.004157354,0.022278758,-0.062220633,2017-01-13 09:39:00,28.84521012135099
-0.435344,0.060996,9.712716,0.0011604577,0.0025796406,-0.0029073358,12.0,-0.43690506,0.049599003,9.796787,0.006810959,-0.011396999,0.084070615,0.0039036055,0.022082305,-0.061872955,2017-01-13 09:39:01,44.78153018503832
-0.434148,0.058604002,9.71152,0.0011312366,1.420565E-4,-4.5767426E-4,14.0,-0.4425985,0.060570423,9.796472,-0.02639047,0.015122422,0.08255904,0.004483009,0.022337064,-0.06200392,2017-01-13 09:39:03,36.13794660951235
-0.401856,0.066976,9.69956,-0.0012974888,-0.0072061867,-4.625693E-4,13.0,-0.43734732,0.049225565,9.796771,-0.027119296,-0.009378435,0.09481939,0.003881451,0.0221068,-0.06166785,2017-01-13 09:39:04,47.70960600439598
-0.428168,0.081328005,9.748596,0.0011591688,-0.0022864603,-4.8383325E-4,13.0,-0.46412322,0.05502937,9.795507,-0.0311712,0.004797372,0.11867139,0.004265909,0.023451384,-0.061864436,2017-01-13 09:39:05,39.26174778008847
-0.41860002,0.046644002,9.72348,-0.001319021,-0.0023132488,-4.965067E-4,13.0,-0.43625298,0.051124725,9.796808,-0.0068889926,-3.0327553E-4,0.07691548,0.0039843824,0.02204335,-0.0621073,2017-01-13 09:39:06,35.66518739869524
-0.401856,0.069368005,9.674444,0.003552623,-0.004730366,0.0019678995,15.0,-0.44217992,0.060287535,9.796492,-0.010423925,-0.02582447,0.10769524,0.0044763526,0.022314826,-0.06240945,2017-01-13 09:39:07,24.050841064561993
-0.447304,0.058604002,9.750988,0.0011343062,0.0025804974,-4.695803E-4,13.0,-0.43821457,0.05306882,9.79671,-0.018418541,-0.010319186,0.101933606,0.004087651,0.022137443,-0.06202104,2017-01-13 09:39:09,53.443078127133106
-0.411424,0.04186,9.728264,0.0011552796,1.3744086E-4,0.0019851625,14.0,-0.43737337,0.051036946,9.796759,0.018302659,-0.013547057,0.084041975,0.003985517,0.022100314,-0.0621997,2017-01-13 09:39:10,52.51534436320645
-0.438932,0.059800003,9.779693,0.006057851,-0.004793629,-4.5727193E-4,13.0,-0.4277633,0.053481955,9.797171,0.0027967182,0.027169952,0.04139818,0.0040887315,0.02160142,-0.06262984,2017-01-13 09:39:11,49.93576437307591
-0.40066,0.0,9.539296,0.018236555,0.024478827,0.004440643,13.0,-0.44455507,0.057487253,9.7964,0.0015529651,-0.052544747,-0.17943536,0.004337615,0.022445416,-0.062241416,2017-01-13 09:39:12,27.858100021787497
-0.464048,0.06578,9.716304,0.0011517182,0.002397798,-4.6986341E-4,13.0,-0.44378918,0.061127402,9.796413,0.0202588,-0.004652598,0.08130524,0.0045047416,0.022398038,-0.061540894,2017-01-13 09:39:13,59.63887417655233
-0.44371602,0.059800003,9.712716,0.0010963902,0.002381619,-4.3130666E-4,14.0,-0.43607587,0.052820202,9.796808,0.0076401397,-0.006979799,0.084092245,0.004077289,0.022027638,-0.062431987,2017-01-13 09:39:15,55.40148752903971
-0.483184,0.062192,9.676836,0.0010553449,-4.740432E-5,0.002000101,14.0,-0.4367148,0.055608008,9.796764,0.0464692,-0.006583995,0.119928695,0.0042275074,0.022050101,-0.06271619,2017-01-13 09:39:16,31.029750704118378
-0.43654,0.04784,9.721088,0.0010372177,0.0023975968,-4.229322E-4,19.0,-0.43844622,0.055267848,9.796689,-0.0066902186,0.0038398476,0.08277649,0.0042177867,0.02213897,-0.06280825,2017-01-13 09:39:17,46.20055841896387
-0.411424,0.039468,9.7198925,-0.0014541745,-7.953867E-5,-4.178062E-4,18.0,-0.4402239,0.051453426,9.796629,-0.028799905,0.011985425,0.07673662,0.0040124427,0.022244759,-0.06205007,2017-01-13 09:39:18,25.202198996919627
-0.45687202,0.056212,9.724676,-0.0014554113,-1.2917817E-4,-4.1599572E-4,18.0,-0.43554977,0.053005002,9.796829,-0.015753742,0.0063610002,0.082917355,0.004066272,0.02200373,-0.061581906,2017-01-13 09:39:20,29.806521612448474
-0.441324,0.066976,9.705541,0.0010006502,-7.5083226E-5,-4.015565E-4,19.0,-0.4371174,0.053694468,9.796757,0.0065986314,-0.0037135317,0.07925649,0.004118391,0.022079147,-0.062128227,2017-01-13 09:39:21,47.04392957846515
-0.49036002,0.031096,9.811984,0.0058137104,0.026744803,-4.002303E-4,19.0,-0.4396306,0.059567366,9.796611,0.010065394,-0.010996633,0.13532266,0.0044306125,0.02218748,-0.062366746,2017-01-13 09:39:22,27.22087369143172
-0.452088,0.057408,9.718697,-0.0015144795,-0.0025342219,-4.1623414E-4,16.0,-0.44286898,0.054244705,9.796496,0.009219043,-0.0031632956,0.077799864,0.004156831,0.022371763,-0.061778903,2017-01-13 09:39:23,31.328070042466205
-0.40903202,0.072956,9.658896,0.010689922,-0.007387653,0.002037406,18.0,-0.43792948,0.05134338,9.796734,0.0033945378,-0.00486862,0.06607728,0.00399846,0.02212846,-0.062000267,2017-01-13 09:39:24,40.961991565042304
-0.49275202,0.06578,9.706737,-0.0040351823,0.009676632,-3.8590282E-4,16.0,-0.44720507,0.0582509,9.796275,0.00249094,-0.04938911,0.12900749,0.0043869177,0.02257756,-0.06232984,2017-01-13 09:39:26,39.905602665287425
-0.39587602,0.046644002,9.657701,0.008236326,-0.0074073374,0.0020681918,18.0,-0.44148588,0.057079315,9.796543,-0.0061418638,-0.03620869,0.06708324,0.0043144026,0.022288995,-0.06256899,2017-01-13 09:39:27,56.48801312110966
-0.458068,0.07176,9.698364,0.0033878088,0.0023633763,0.0020365715,16.0,-0.43812624,0.05223071,9.79672,-0.0039782193,0.005586705,0.09596388,0.004044335,0.022135662,-0.06200413,2017-01-13 09:39:28,60.3593508418447
-0.450892,0.046644002,9.724676,9.178445E-4,0.004839834,-3.6756694E-4,19.0,-0.4434485,0.05408637,9.796471,-0.023652496,-0.015281635,0.10049802,0.0041691074,0.022398341,-0.062603205,2017-01-13 09:39:29,22.011489857692133
-0.441324,0.053820003,9.7198925,8.738488E-4,-6.349012E-5,-3.5074353E-4,19.0,-0.44252524,0.051965524,9.796523,-0.005985212,0.0101055205,0.106531456,0.0040848656,0.022353234,-0.063793205,2017-01-13 09:39:30,12.994366424694778
-0.43295202,0.06578,9.703148,8.550063E-4,0.0023651011,0.0020804778,21.0,-0.43908635,0.04835378,9.796697,-0.018094314,5.1378104E-4,0.08517653,0.0038849732,0.022190718,-0.06357476,2017-01-13 09:39:32,15.688431550040033
-0.44252002,0.06578,9.727068,-0.0016243756,-8.6735934E-5,-3.6396086E-4,19.0,-0.44097918,0.053210717,9.796588,-8.511735E-4,-0.0077852835,0.10539982,0.0041262726,0.0222736,-0.06303491,2017-01-13 09:39:33,57.69778506371661
-0.435344,0.055016,9.698364,-0.004044071,-0.002512563,-3.591478E-4,21.0,-0.44397986,0.052834876,9.796453,-0.006243863,2.1087084E-4,0.08732523,0.0040916395,0.022432217,-0.061915174,2017-01-13 09:39:34,44.77260172804333
-0.43175602,0.066976,9.698364,8.349195E-4,-5.969405E-5,-3.620535E-4,20.0,-0.43931454,0.05079426,9.796676,-0.013538513,0.004150256,0.085154906,0.003965657,0.022202382,-0.06158496,2017-01-13 09:39:35,14.343068711831656
-0.426972,0.052624002,9.710324,7.72357E-4,-7.3160976E-5,0.002127476,21.0,-0.4411212,0.05243846,9.796584,-0.0021891806,0.0069904574,0.091043375,0.0040789787,0.022284862,-0.06265678,2017-01-13 09:39:37,36.23088702623213
-0.447304,0.063388005,9.718697,7.926896E-4,-0.0024873726,0.0021082684,19.0,-0.4386939,0.05471454,9.796681,-0.00932992,-0.019437462,0.11625732,0.0041981195,0.022151893,-0.06315509,2017-01-13 09:39:38,18.646107252291895
-0.426972,0.051428,9.715108,7.379055E-4,-4.3477863E-5,-3.020987E-4,21.0,-0.43992573,0.05291953,9.796636,0.008574279,-0.0032924702,0.07913491,0.004108363,0.022220837,-0.063048616,2017-01-13 09:39:39,35.22711866104149
-0.446108,0.055016,9.712716,6.955117E-4,-4.7199428E-5,-2.8582662E-4,19.0,-0.44071713,0.04953679,9.796617,-0.0017851299,-0.006675208,0.08390052,0.0039134026,0.022276474,-0.061913665,2017-01-13 09:39:40,20.733961176388092
-0.446108,0.057408,9.713912,7.0840865E-4,0.0023755655,-2.8330833E-4,21.0,-0.44216606,0.05259647,9.796536,-0.002038045,-2.7536462E-5,0.08142858,0.004067055,0.022341821,-0.06161553,2017-01-13 09:39:41,17.322052230360253
-0.44491202,0.033488,9.710324,-0.0017729551,-0.0049490742,0.0021619722,18.0,-0.44120014,0.060292676,9.796536,-0.00944412,4.9267436E-4,0.08023323,0.0044437177,0.022270871,-0.06107544,2017-01-13 09:39:43,28.61090233241365
-0.428168,0.066976,9.681621,0.003105551,-0.0024960972,-2.7157366E-4,15.0,-0.43814078,0.057279173,9.796691,-0.012364757,0.028575173,0.08397476,0.0043035178,0.022120029,-0.06210171,2017-01-13 09:39:44,41.774824182877325
-0.417404,0.04784,9.733048,6.7558885E-4,-0.002528336,-2.432391E-4,15.0,-0.44247398,0.056300905,9.796502,0.025162024,-0.0058910996,0.08019874,0.004269541,0.022343403,-0.062193815,2017-01-13 09:39:45,16.906891590976734
-0.452088,0.053820003,9.736636,-0.0018249676,0.0023457482,-2.1917373E-4,19.0,-0.44218877,0.05028365,9.796547,0.003919256,-0.01071235,0.08861469,0.003956157,0.022349047,-0.061917294,2017-01-13 09:39:46,12.524121059919144
-0.426972,0.045448,9.710324,6.212592E-4,-1.08812004E-4,-2.2803247E-4,19.0,-0.44196838,0.053309392,9.796541,-0.011408333,0.0090573905,0.07066928,0.0040939376,0.022331128,-0.06122299,2017-01-13 09:39:47,36.32856113897175
-0.43654,0.049036,9.722284,6.4276904E-4,0.0047679543,-2.2727996E-4,17.0,-0.4412919,0.052562937,9.796575,-0.004751871,0.004722937,0.08744623,0.00407958,0.022294309,-0.06237564,2017-01-13 09:39:49,25.340459472733027
-0.4485,0.053820003,9.715108,6.772727E-4,0.0023189448,-2.2301823E-4,19.0,-0.4463935,0.053809877,9.796338,-0.0050694854,-0.0047941254,0.08601356,0.004162993,0.022549465,-0.0625384,2017-01-13 09:39:50,34.59424000768968
-0.453284,0.064584,9.707932,6.7266077E-4,-1.09728426E-4,-2.361983E-4,17.0,-0.4435174,0.054781895,9.796463,-0.004585392,-0.0038221064,0.08733459,0.004195281,0.022401402,-0.062182322,2017-01-13 09:39:51,18.11946602591426
-0.435344,0.055016,9.725872,6.456822E-4,-1.3642386E-4,-2.7448684E-4,17.0,-0.44779316,0.05306836,9.796278,-0.0028811449,4.4435536E-4,0.09313012,0.0041153375,0.02262573,-0.061903913,2017-01-13 09:39:52,11.07402104569503
-0.4485,0.056212,9.715108,6.928146E-4,-1.3823807E-4,-2.9706955E-4,18.0,-0.44561568,0.056990065,9.796356,0.005276333,-0.004005939,0.08961948,0.0042936914,0.02250521,-0.061266348,2017-01-13 09:39:53,11.6451549984237
-0.44252002,0.062192,9.713912,-0.0017034635,-1.340732E-4,-3.3231825E-4,16.0,-0.43878224,0.04977099,9.796702,-0.013006234,0.0067149876,0.08039923,0.0039030053,0.022180054,-0.061185017,2017-01-13 09:39:55,30.49043418522311
-0.44371602,0.046644002,9.721088,6.992072E-4,-1.1842325E-4,-3.3254176E-4,20.0,-0.44238368,0.053483963,9.796521,0.0013323446,0.0020559644,0.08260931,0.004126037,0.022347702,-0.062201325,2017-01-13 09:39:56,44.03647027363266
-0.44252002,0.052624002,9.715108,6.611347E-4,-1.472123E-4,-3.2308698E-4,19.0,-0.44216615,0.051006496,9.796543,3.5385494E-4,-0.001617509,0.07904256,0.0040024775,0.022343898,-0.062345892,2017-01-13 09:39:57,35.783786195699676
-0.43175602,0.051428,9.713912,6.471798E-4,0.0022850148,-3.515929E-4,20.0,-0.44345725,0.0519252,9.796481,-0.009309242,-0.013854799,0.095725395,0.0040550325,0.022406423,-0.06242062,2017-01-13 09:39:58,44.21663009879613
-0.437736,0.04784,9.721088,6.070435E-4,0.0022587888,-3.375113E-4,20.0,-0.44463503,0.049619813,9.79644,-0.006899039,0.0017798144,0.07535189,0.0039248094,0.022476649,-0.061682064,2017-01-13 09:40:00,33.06912330039041
-0.434148,0.058604002,9.700756,6.176084E-4,-1.5516207E-4,-3.214404E-4,20.0,-0.44235414,0.054066274,9.79652,-0.009402145,0.0026382762,0.08380407,0.0041470826,0.022345928,-0.061821744,2017-01-13 09:40:01,44.949376724613415
-0.446108,0.04784,9.701952,5.805418E-4,-0.0025839247,-2.8772652E-4,19.0,-0.4425615,0.053488273,9.796514,0.0035465136,0.0056482763,0.094561614,0.004116857,0.02235858,-0.061756607,2017-01-13 09:40:02,45.05531302939849
-0.441324,0.050232,9.724676,-0.0018460676,-9.299442E-5,-2.983287E-4,18.0,-0.44250405,0.054004498,9.796514,-0.004768055,0.0025764995,0.10532559,0.0041489652,0.022352913,-0.062025003,2017-01-13 09:40:03,25.992645738045702
-0.43175602,0.040664002,9.707932,5.9606135E-4,-0.0025449619,-3.2754987E-4,17.0,-0.4434164,0.052427925,9.79648,-0.0044843787,-0.0025880758,0.077783495,0.004067051,0.022405187,-0.061822068,2017-01-13 09:40:04,38.711052444560615
-0.411424,0.037076,9.706737,5.922094E-4,-0.0025641434,-0.002750747,18.0,-0.4457607,0.051779177,9.796378,0.045795318,0.008723176,0.07648586,0.004064495,0.022522472,-0.06284352,2017-01-13 09:40:06,37.073547384212006
-0.43175602,0.066976,9.672052,5.2689016E-4,-0.0026167072,-2.89537E-4,14.0,-0.4430398,0.050509073,9.796509,0.0054602018,-0.008094929,0.089772046,0.0039911247,0.022387976,-0.06284426,2017-01-13 09:40:07,40.21065560834059
-0.416208,0.045448,9.709128,0.0029532686,-1.9774213E-4,-2.765432E-4,16.0,-0.44301546,0.052990094,9.7964945,-4.954554E-4,-0.005613908,0.074210316,0.004089102,0.022383967,-0.061585885,2017-01-13 09:40:08,23.3663755241339
-0.437736,0.050232,9.712716,5.4533035E-4,-2.0540878E-4,-2.6551634E-4,19.0,-0.44164452,0.05304014,9.796557,-0.0015165055,-0.004367863,0.074272856,0.004088547,0.022313766,-0.061640166,2017-01-13 09:40:09,29.244150828344793
-0.43175602,0.044252,9.710324,5.377829E-4,0.0022008643,-0.0026570484,21.0,-0.44416365,0.05402672,9.796437,-0.002839644,0.0061867214,0.094485044,0.0041553527,0.022437364,-0.062024735,2017-01-13 09:40:10,11.815421379792937
-0.438932,0.056212,9.715108,5.060509E-4,-2.3081154E-4,-1.9647926E-4,19.0,-0.4363065,0.04970733,9.796815,0.0074095093,-0.002916673,0.07811843,0.0039009412,0.022052592,-0.061588563,2017-01-13 09:40:12,35.271595952263375
-0.435344,0.055016,9.71152,5.3456426E-4,-1.895316E-4,-1.8212199E-4,21.0,-0.44245034,0.04780126,9.796549,-0.00591032,0.007137259,0.08741993,0.0038292136,0.022370443,-0.06185427,2017-01-13 09:40:13,16.212452711944973
-0.438932,0.050232,9.685208,-0.0019442588,-1.4694408E-4,-8.075684E-5,21.0,-0.4379637,0.043016396,9.796772,-0.012187683,0.0011563944,0.11395605,0.0036165677,0.022149723,-0.063885294,2017-01-13 09:40:14,16.44588590884496
-0.44371602,0.056212,9.643348,4.7397614E-4,0.0024508834,-0.0021902174,19.0,-0.44488657,0.046700787,9.796443,-0.010738544,-0.008315212,0.15548691,0.0039195586,0.02247424,-0.06800607,2017-01-13 09:40:15,24.40898325374272
-0.44252002,0.053820003,9.646936,4.7278404E-4,-0.0022569075,5.4095685E-4,19.0,-0.44217232,0.046170346,9.796568,3.4768094E-4,0.011486346,0.15680853,0.0039078128,0.022333603,-0.06910799,2017-01-13 09:40:17,36.55621114168995
-0.44491202,0.063388005,9.664876,-0.0019372329,2.7962402E-4,-0.001732938,17.0,-0.44261622,0.04895466,9.796535,-0.013252244,-0.0012773402,0.12806992,0.004022708,0.022351509,-0.0678436,2017-01-13 09:40:18,22.746065483786676
-0.422188,0.060996,9.678032,5.4538995E-4,4.3840706E-4,-0.0016218871,19.0,-0.44343388,0.050731093,9.79649,-0.0056978827,-0.007872907,0.12563363,0.004098286,0.022390226,-0.06705744,2017-01-13 09:40:19,37.62079627703717
-0.43175602,0.043056,9.681621,5.8362633E-4,4.748702E-4,-0.0015596673,17.0,-0.44744793,0.048071843,9.79632,-0.008515936,-0.005748161,0.11828794,0.0039660227,0.022605551,-0.06658509,2017-01-13 09:40:20,20.22471868053859
-0.441324,0.050232,9.679228,6.2562525E-4,5.121492E-4,8.768663E-4,21.0,-0.4467205,0.053953573,9.796323,-0.0065924935,-0.009434435,0.10633096,0.0042301393,0.022554714,-0.06513818,2017-01-13 09:40:21,32.19406197298954
-0.438932,0.051428,9.69956,-0.0017894208,-0.0018910691,-0.0015586987,19.0,-0.4457497,0.05065667,9.796384,0.0015542803,-0.0043593324,0.11595979,0.0040728366,0.022513755,-0.0657458,2017-01-13 09:40:23,28.045899463592434
-0.450892,0.051428,9.691188,7.2517246E-4,5.844757E-4,8.819401E-4,21.0,-0.44831106,0.048474576,9.796278,-0.0010070582,-0.008933426,0.08954174,0.0039568404,0.02265385,-0.065148756,2017-01-13 09:40:24,23.600502651230748
-0.438932,0.050232,9.69956,0.003192544,6.27771E-4,8.870065E-4,19.0,-0.44869423,0.05255489,9.796239,-0.01215422,0.011890888,0.12179449,0.0041508107,0.022662558,-0.06449019,2017-01-13 09:40:25,11.574603097958178
-0.435344,0.060996,9.6876,7.638186E-4,-0.001751259,9.2841685E-4,18.0,-0.44401935,0.05421493,9.796444,-0.00269534,-0.0031930741,0.08970716,0.0041776747,0.022426963,-0.06261198,2017-01-13 09:40:26,13.71392595418352
-0.4485,0.060996,9.701952,7.895678E-4,-0.0017888397,-0.0015522316,21.0,-0.4514831,0.05249583,9.796111,-0.017335093,0.0010678301,0.0798077,0.0040933713,0.022816265,-0.06170714,2017-01-13 09:40:27,22.502674844910302
-0.450892,0.056212,9.712716,7.94366E-4,-0.0018442497,8.392036E-4,22.0,-0.44702017,0.05154205,9.796321,0.0038718365,-0.0070619513,0.07403671,0.0040332577,0.022591526,-0.061818153,2017-01-13 09:40:29,21.193931573166928
-0.44491202,0.04784,9.716304,7.798895E-4,0.0029565394,7.8718364E-4,20.0,-0.44659248,0.053342983,9.796331,-0.0028764687,0.005502986,0.07404665,0.0041163145,0.022565397,-0.06149696,2017-01-13 09:40:30,13.444805421914591
-0.437736,0.034684002,9.697168,0.003238596,0.0028975978,6.6330284E-4,21.0,-0.4437862,0.047173124,9.796491,0.0023218305,-0.016214885,0.058658525,0.0037862845,0.02244302,-0.06117936,2017-01-13 09:40:31,30.7446393887224
-0.425776,0.04186,9.710324,-0.0016233847,3.7375838E-4,5.636439E-4,19.0,-0.44845188,0.053748086,9.796244,-0.02267587,0.011888084,0.08591946,0.0041251956,0.022662032,-0.060722582,2017-01-13 09:40:32,26.41796434995048
-0.41979602,0.044252,9.710324,7.8749657E-4,2.8824806E-4,4.9396604E-4,21.0,-0.44676942,0.056222368,9.796307,-0.013817403,0.0035983624,0.07402269,0.0042562396,0.022566743,-0.061178498,2017-01-13 09:40:34,11.222478858257691
-0.44252002,0.053820003,9.727068,-0.0016468018,-0.002232898,3.8861483E-4,19.0,-0.44539732,0.053176645,9.796386,0.01865067,-0.0078193545,0.09084464,0.004098998,0.02250598,-0.061271146,2017-01-13 09:40:35,12.760442197692722
-0.411424,0.040664002,9.745008,-0.0016747266,-0.0047444776,3.0982494E-4,21.0,-0.45328742,0.04995929,9.796042,-0.010767405,0.0045112898,0.121598676,0.0039498117,0.02291961,-0.06083053,2017-01-13 09:40:36,11.365409773952553
-0.43654,0.068172,9.710324,-0.0016904324,-0.0023433678,2.470091E-4,19.0,-0.44554013,0.05272509,9.796383,-0.00421612,-0.0058789114,0.07649054,0.0040642973,0.02251686,-0.060732163,2017-01-13 09:40:37,18.390641686261002
-0.438932,0.053820003,9.712716,-0.0016841665,1.11460686E-4,-0.002264753,19.0,-0.44113973,0.049922645,9.796597,-0.0022077393,-0.0038973591,0.08388006,0.003906966,0.022301598,-0.06068693,2017-01-13 09:40:38,11.601964491050358
-0.441324,0.052624002,9.706737,0.0031622201,0.0024664402,1.8540025E-4,19.0,-0.4460379,0.053170417,9.796358,-0.013085875,-0.0018455823,0.08722996,0.0041196956,0.022535153,-0.06211279,2017-01-13 09:40:40,11.758084231733934
-0.441324,0.044252,9.740224,-0.0017115027,0.0024460703,1.4080107E-4,19.0,-0.4499545,0.05382736,9.796176,-0.03015848,0.02273136,0.082263276,0.0041579725,0.022733925,-0.061779305,2017-01-13 09:40:41,11.2973645433547
-0.43295202,0.055016,9.667268,0.003207624,-5.3204596E-5,0.002524376,20.0,-0.45061848,0.050282437,9.796164,-0.01766648,-0.0047335634,0.12889527,0.003981988,0.02277849,-0.061882887,2017-01-13 09:40:42,18.772610842901972
-0.43175602,0.070564,9.724676,-0.0016809776,0.004844904,-3.2410026E-6,21.0,-0.444294,0.05480849,9.796428,-0.012537994,-0.01575551,0.07175123,0.004179333,0.022444557,-0.061303314,2017-01-13 09:40:43,22.484929164091824
-0.44371602,0.055016,9.703148,7.657781E-4,-1.1958182E-5,0.0023691654,19.0,-0.4466269,0.052937426,9.796332,-0.01367489,0.0039014278,0.07404782,0.004076215,0.022571962,-0.060632017,2017-01-13 09:40:44,24.78835535497892
-0.42458,0.027508,9.644545,8.128658E-4,0.0024098791,0.00231269,21.0,-0.45036316,0.051382646,9.796169,0.018468846,-0.0048293564,0.05953297,0.0040006028,0.022768475,-0.060279444,2017-01-13 09:40:46,18.614830705727794
-0.387504,0.016744,9.664876,8.784905E-4,4.3213367E-6,-1.2169033E-4,19.0,-0.44486603,0.052110184,9.796417,0.01678999,-0.019649819,0.04542963,0.004016797,0.022486953,-0.060106188,2017-01-13 09:40:47,32.82839757787223
-0.43175602,0.045448,9.71152,-0.001511626,7.532537E-5,-1.8133968E-4,20.0,-0.445496,0.054240935,9.796375,-0.013739991,0.008792931,0.08485504,0.004126077,0.02251272,-0.06005621,2017-01-13 09:40:48,29.997539432004746
-0.42099202,0.04784,9.712716,-0.0015207455,0.0024883635,-2.1842122E-4,16.0,-0.445093,0.050537143,9.796414,-0.0025729924,-0.0068708584,0.077718034,0.0039209477,0.02250621,-0.059375957,2017-01-13 09:40:49,17.150235105909758
-0.449696,0.056212,9.742617,-0.0014916435,0.0026173815,-2.411902E-4,18.0,-0.4496082,0.052319176,9.7962,-0.002304222,0.0056751734,0.12414719,0.004045595,0.022727208,-0.06026375,2017-01-13 09:40:50,11.046444590727727
-0.446108,0.040664002,9.740224,-0.0015871748,0.0074533448,-2.4695694E-4,17.0,-0.4732483,0.048814576,9.795103,-0.027140265,0.008150574,0.05487959,0.0039660633,0.023937782,-0.06134956,2017-01-13 09:40:52,12.659549913819133
-0.46524402,0.060996,9.704344,8.960813E-4,0.009793002,-2.2681057E-4,17.0,-0.44471392,0.049751565,9.796436,0.009766119,0.0031075603,0.056212302,0.0039227083,0.022481833,-0.06128009,2017-01-13 09:40:53,13.386082149205528
-0.453284,0.050232,9.710324,-0.0014175922,-0.004794404,-2.631694E-4,17.0,-0.45350504,0.050676186,9.796028,-2.2105887E-4,4.4418641E-4,0.08570377,0.003987669,0.022928353,-0.060860388,2017-01-13 09:40:54,11.099119116172618
-0.437736,0.060996,9.701952,0.0010374859,-0.0047713257,-2.510175E-4,19.0,-0.4524047,0.0480469,9.796093,0.008055297,-0.023713099,0.09772856,0.0038771848,0.022875942,-0.062028617,2017-01-13 09:40:55,10.11054756441611
-0.452088,0.059800003,9.707932,0.0010242686,5.438924E-5,-2.6595592E-4,17.0,-0.44682747,0.048068963,9.796348,-0.0031114465,-0.0081430385,0.08482698,0.003859537,0.022592027,-0.06198053,2017-01-13 09:40:57,23.608676894955906
-0.437736,0.045448,9.670856,9.710267E-4,0.0024393909,-0.0027165338,18.0,-0.44749123,0.05096318,9.796304,-0.014539215,-0.008836824,0.06564707,0.0040158452,0.022615464,-0.062284283,2017-01-13 09:40:58,12.749872407295852
-0.44252002,0.049036,9.685208,9.5319E-4,-0.0073705316,-0.002684638,18.0,-0.4583715,0.053101495,9.795789,-0.014655462,4.7749045E-4,0.077092595,0.004159137,0.023162814,-0.062276002,2017-01-13 09:40:59,11.695389713833748
-0.459264,0.056212,9.728264,-0.0015189871,-1.0142848E-4,-2.5202334E-4,19.0,-0.4458741,0.053306494,9.796363,-0.005746106,-0.0017095073,0.096803255,0.004116373,0.022528164,-0.061681844,2017-01-13 09:41:00,10.82525916284168
-0.437736,0.04784,9.716304,8.558035E-4,-1.625605E-4,-2.4138391E-4,18.0,-0.4464107,0.049104623,9.796363,0.010461334,-0.0154793775,0.08125439,0.0039063436,0.022568325,-0.061777595,2017-01-13 09:41:01,20.400681976550498
-0.438932,0.04784,9.715108,-0.0016299114,-1.5706569E-4,-2.309978E-4,17.0,-0.44792253,0.051744115,9.796279,-0.003010507,-0.009251886,0.09073826,0.0040284637,0.022640042,-0.0610278,2017-01-13 09:41:03,18.402421333886487
-0.450892,0.056212,9.704344,7.787347E-4,-1.748018E-4,-2.297163E-4,16.0,-0.44806018,0.049967755,9.796283,-0.001952157,-0.012224248,0.09193887,0.003952043,0.022650212,-0.061625864,2017-01-13 09:41:04,11.480625354554377
-0.435344,0.051428,9.707932,7.681623E-4,-1.7276034E-4,-2.2797287E-4,18.0,-0.44883233,0.047124043,9.796261,-0.006312325,-0.0043039583,0.084740475,0.003803451,0.02269952,-0.061350193,2017-01-13 09:41:05,11.169020609505413
-0.440128,0.056212,9.705541,-0.00414297,-2.0200014E-4,-1.9276887E-4,16.0,-0.45285875,0.049135704,9.796065,-0.010338731,0.012059705,0.08574118,0.003921615,0.022897758,-0.061486855,2017-01-13 09:41:06,11.486351851901063
-0.461656,0.040664002,9.717501,-0.0041865557,-1.6696379E-4,-0.0026283115,18.0,-0.45241416,0.045827046,9.796102,0.009241876,0.0051630456,0.07501286,0.0037451861,0.022886567,-0.061198696,2017-01-13 09:41:07,11.264206105165949
-0.453284,0.053820003,9.707932,-0.0017418787,0.002292186,-1.8902868E-4,15.0,-0.4500911,0.049864545,9.796189,-0.007571093,-0.0015634545,0.08227672,0.003965825,0.022751769,-0.062180076,2017-01-13 09:41:09,11.59433241302706
-0.44252002,0.056212,9.710324,6.5632164E-4,-0.0050735734,0.0022419244,16.0,-0.4436034,0.04750309,9.796497,0.013268647,0.004447088,0.08497721,0.0038392572,0.02242642,-0.06281414,2017-01-13 09:41:10,12.5279142321186
-4.364204,0.577668,11.023532,1.1859952,-0.24457212,4.276784,15.0,-2.901958,-0.32004327,9.361977,1.2900217,-0.6477473,-1.8301913,0.009492796,0.1502729,-0.17010562,2017-01-13 09:41:11,10.967742747722575
6.5325522,1.7222401,8.223696,0.5065632,0.78190786,0.35416391,65.0,4.889152,0.7219715,8.470263,-1.646988,-0.9799365,-0.97096103,0.19745816,-0.17072523,0.6301644,2017-01-13 09:41:12,16.955466570995704
4.770844,0.83122003,9.301292,0.08130721,-0.48408413,-0.01732409,18.0,3.2628293,-0.42670318,9.238088,-1.4565868,-1.1885552,-0.41721946,0.08646889,-0.14666891,0.6062959,2017-01-13 09:41:14,36.027081923256866
4.560348,1.589484,9.379032,-1.1993488,-0.6502761,0.12198391,18.0,2.948082,0.5541733,9.336599,-1.3670859,-0.9527867,-0.6655489,0.11786965,-0.100362614,0.62093556,2017-01-13 09:41:15,32.039054861918004
4.561544,1.132612,9.13744,0.21083921,-0.12726012,-0.049096093,11.0,3.0549507,-0.20977746,9.316312,-1.3499174,-1.0876415,-0.35932842,0.08979738,-0.13014129,0.6151405,2017-01-13 09:41:16,44.36641136967161
4.6500483,2.7292721,8.82648,6.5520406E-4,0.25155988,-0.027100094,13.0,3.1469831,1.603366,9.148558,-1.591569,-1.225174,0.10679741,0.1669675,-0.07533426,0.61489123,2017-01-13 09:41:17,16.826614673842048
3.865472,0.33607602,9.472321,-0.23885679,-0.022168119,-0.16885209,12.0,2.4487555,-0.5370814,9.480798,-1.4047565,-0.90066546,0.037182022,0.055115066,-0.11651684,0.60623276,2017-01-13 09:41:18,18.7612308100126
3.5246122,0.582452,9.733048,0.054423206,-0.16392012,0.051107906,13.0,2.153752,-0.374555,9.559887,-1.3397636,-0.87089497,0.040923547,0.05042298,-0.10019441,0.59217584,2017-01-13 09:41:20,13.309564607914457
3.909724,1.408888,9.22116,-0.045780797,0.060927883,0.055995908,13.0,2.566939,0.4570989,9.4536915,-1.384645,-0.92308515,0.20143501,0.09906269,-0.09045715,0.6032992,2017-01-13 09:41:21,13.933009408784686
3.937232,0.551356,9.66368,0.0984152,-0.029500116,-0.0710921,20.0,2.3194757,-0.26043585,9.524841,-1.6213443,-0.7675399,-0.22973523,0.06204027,-0.10256354,0.60541695,2017-01-13 09:41:22,15.606980534698952
3.7685962,0.52026004,9.2881365,0.18151122,-0.07349211,-0.03198809,37.0,2.4148345,-0.3506536,9.498211,-1.4147574,-0.86373764,-0.07337796,0.059562717,-0.11035546,0.5917873,2017-01-13 09:41:23,13.310949948842296
3.4205601,0.410228,9.811984,0.051979207,0.14402388,0.014447909,16.0,2.048096,-0.3073031,9.585472,-1.513592,-0.86942315,-0.037544426,0.04769584,-0.09487942,0.5734827,2017-01-13 09:41:24,14.218673128027763
3.5006921,0.32411602,9.590724,-0.011564799,-0.009948116,-0.01732409,17.0,2.1964326,-0.3591573,9.550764,-1.2815354,-0.6426093,-0.18587212,0.049111787,-0.10312437,0.56629926,2017-01-13 09:41:26,24.576793970867644
2.8094041,0.473616,9.96268,0.47967923,1.0702999,-0.26172408,19.0,2.0032856,-0.1176872,9.599134,-1.0249865,-0.4573512,-0.7929098,0.053050056,-0.08812516,0.56210524,2017-01-13 09:41:27,12.65264758430038
4.1680603,0.45567602,10.039225,-0.1093248,-0.09060012,0.112207904,51.0,2.2901847,0.06574439,9.535257,-1.6733595,-0.3265436,-0.31141046,0.0652392,-0.09788292,0.5268164,2017-01-13 09:41:28,13.997007559036497
3.3117242,0.868296,9.5596285,-0.116656795,0.14891188,-0.019768089,43.0,2.0344603,0.30138388,9.588563,-1.4088237,-0.5752842,-0.0057493574,0.068871245,-0.07985073,0.53212535,2017-01-13 09:41:29,16.972446719724907
3.1610281,0.925704,9.589528,0.0324272,0.031599883,0.075547904,41.0,1.73075,0.36607853,9.64577,-1.339382,-0.55484146,-0.026282443,0.06329878,-0.06477554,0.5335736,2017-01-13 09:41:30,11.948502525003688
2.976844,0.84318,9.455576,-0.004232794,-0.051496115,0.038887907,41.0,1.9328245,0.17497905,9.612699,-1.1121914,-0.686141,0.05785481,0.0608332,-0.07866473,0.5352615,2017-01-13 09:41:32,13.070738062627198
3.144284,0.571688,9.6876,-0.016452797,0.0047158822,-0.078424096,41.0,2.0289783,0.0913485,9.594025,-1.0901897,-0.47435954,-0.09237959,0.05922587,-0.08563428,0.5283699,2017-01-13 09:41:33,17.840556204578654
3.267472,0.596804,9.791653,0.022651203,0.0047158822,-0.09797609,40.0,2.0412219,0.24378327,9.588763,-1.2262504,-0.35302076,-0.20288931,0.06413377,-0.08364225,0.5072375,2017-01-13 09:41:34,13.014539044159424
-2.5415,-0.564512,9.054916,-3.7753248,-0.7920281,-3.944832,45.0,3.6797733,-2.0217295,8.862409,6.9209332,-3.9843655,-0.35755554,-0.17802085,-0.12826362,-0.41913167,2017-01-13 09:41:35,13.664959172399039
0.50710404,-0.718796,9.7940445,-0.0017851964,-1.5762076E-4,-2.2342801E-4,32.0,0.10593371,-0.88161826,9.766367,-0.3975823,-0.1735862,-0.013325931,-0.04404637,0.010668284,-0.34930664,2017-01-13 09:41:36,21.4260880198813
0.498732,-0.721188,9.784476,-0.0017645359,-0.0025607161,-2.5573373E-4,31.0,0.47206143,-0.70805836,9.769657,-0.026670566,0.013129677,-0.014819384,-0.04219292,-0.010289862,-0.34146434,2017-01-13 09:41:38,12.618898748106286
0.527436,-0.710424,9.75936,-0.0041692853,-0.004995089,-2.905801E-4,35.0,0.4732165,-0.70139676,9.7700815,-0.01953549,0.0066352733,0.043013796,-0.041755047,-0.010999526,-0.3293587,2017-01-13 09:41:39,11.640797091091752
0.493948,-0.7176,9.806005,7.849112E-4,-0.0049545765,-3.1627715E-4,34.0,0.48178056,-0.7080274,9.769186,-0.016951427,0.0035926178,-0.03681845,-0.04206996,-0.011845639,-0.31713185,2017-01-13 09:41:40,17.68509474713554
0.49155602,-0.70564,9.796436,8.211881E-4,-6.309897E-5,-3.8579106E-4,33.0,0.48094788,-0.70626163,9.769353,-0.0130001325,0.020906376,-0.033062898,-0.041837506,-0.012296956,-0.30664518,2017-01-13 09:41:41,16.66421081244081
0.50232,-0.702052,9.811984,8.4744394E-4,-6.496906E-5,-4.3872744E-4,31.0,0.48403946,-0.70022804,9.769637,-0.0039285715,0.007804025,-0.030386955,-0.04148416,-0.012895626,-0.2985312,2017-01-13 09:41:42,13.603796391840465
0.498732,-0.716404,9.800024,8.35225E-4,-2.366677E-5,-4.6245754E-4,32.0,0.48376244,-0.7061278,9.769225,-0.022145562,0.003100231,-0.016447278,-0.041683815,-0.013063067,-0.29233506,2017-01-13 09:41:44,15.420396771913857
0.49275202,-0.712816,9.804809,-0.0016230047,-1.6991049E-5,-4.7025084E-4,30.0,0.48291582,-0.706884,9.769213,-0.011032193,-0.0036360184,-0.028419456,-0.04161453,-0.01330668,-0.2855352,2017-01-13 09:41:45,22.78387367758057
0.5083,-0.704444,9.814376,-0.001625061,7.934868E-6,-4.8718601E-4,32.0,0.48927096,-0.7062271,9.768944,0.0072829234,0.0077849547,-0.023904607,-0.041635476,-0.013748609,-0.2827407,2017-01-13 09:41:46,24.897511760033236
0.503516,-0.714012,9.788064,-0.0015792176,1.9416213E-5,0.0019398034,31.0,0.48748684,-0.7082006,9.768889,-0.02081318,0.0070073945,-0.02156652,-0.0416798,-0.013713793,-0.2808783,2017-01-13 09:41:47,11.733114925786206
0.495144,-0.715208,9.798828,8.7735057E-4,0.0,-5.086437E-4,33.0,0.49069086,-0.70617986,9.768876,-0.009237126,0.010224164,-0.032343935,-0.041607004,-0.013958915,-0.27951404,2017-01-13 09:41:49,56.554919508438246
0.493948,-0.69607204,9.80122,-0.0015521348,-1.404807E-5,0.001894787,31.0,0.49027893,-0.7060945,9.768903,0.0011149024,0.001937544,-0.027533904,-0.04158967,-0.013961528,-0.27901644,2017-01-13 09:41:50,25.96666881211292
0.50710404,-0.716404,9.786868,-0.0015292391,-5.275756E-5,0.0019159988,32.0,0.4875644,-0.71084255,9.768694,-0.021931628,0.010345453,-0.02176175,-0.041783012,-0.013763531,-0.2789546,2017-01-13 09:41:51,11.469754398142236
0.49155602,-0.70922804,9.803612,9.139478E-4,-5.6061894E-5,-5.569309E-4,30.0,0.49175814,-0.70767707,9.768714,-0.0045818845,3.5495093E-4,-0.028918637,-0.04168124,-0.014033137,-0.27851772,2017-01-13 09:41:52,14.050907815427617
0.486772,-0.716404,9.810788,8.806288E-4,-7.899478E-5,-5.42745E-4,33.0,0.49290395,-0.70886296,9.76857,0.004935922,0.0051491265,-0.03623802,-0.041773986,-0.014018433,-0.2797579,2017-01-13 09:41:54,13.724193180909683
0.485576,-0.71162003,9.809592,8.482188E-4,-5.122274E-5,-5.364865E-4,31.0,0.4984723,-0.7073234,9.768399,-0.007435703,0.0090806205,-0.016077274,-0.041777987,-0.014314295,-0.2797341,2017-01-13 09:41:55,22.540786292524878
0.50232,-0.734344,9.802416,8.4582716E-4,-1.8164515E-5,0.0018986389,32.0,0.49975577,-0.7093405,9.768187,-0.014524236,0.007063509,-0.031837154,-0.04189391,-0.014352728,-0.27963418,2017-01-13 09:41:56,46.72907506657066
0.504712,-0.718796,9.788064,-0.0015534312,1.0352582E-5,-5.720034E-4,30.0,0.4938033,-0.71132135,9.768345,-0.010908676,0.007474647,-0.019718846,-0.041901376,-0.014045818,-0.27933565,2017-01-13 09:41:57,43.477822397649206
0.497536,-0.7176,9.806005,9.4311684E-4,-0.002403468,-5.7638437E-4,32.0,0.48986962,-0.7129032,9.76843,-0.008862375,0.0058927843,-0.03159458,-0.04191661,-0.013848801,-0.27891672,2017-01-13 09:41:58,18.55508508281091
0.473616,-0.70085603,9.782084,-0.0014686063,5.6125224E-5,0.0018314123,30.0,0.49299863,-0.70754844,9.7686615,-0.012909385,-7.1238604E-4,0.0057137017,-0.04168543,-0.014117097,-0.27802682,2017-01-13 09:42:00,40.45532311577608
0.499928,-0.715208,9.80122,-0.0014592558,-0.002354119,0.0017922893,33.0,0.4939618,-0.71108586,9.768355,-0.008358188,-0.011425869,-0.044824645,-0.04188449,-0.014079568,-0.2788176,2017-01-13 09:42:01,48.819026271867365
0.48438,-0.716404,9.809592,-0.0014500022,9.642914E-5,-6.4308196E-4,31.0,0.49482673,-0.71074337,9.768335,-0.0146693075,-0.007495324,-0.046041038,-0.041879967,-0.014127067,-0.2788123,2017-01-13 09:42:02,42.275561952578556
0.49634,-0.715208,9.791653,-0.0014249608,9.36538E-5,-6.4103305E-4,32.0,0.50075936,-0.71480364,9.767736,-0.0015606369,0.0051883627,-0.032287236,-0.042152807,-0.014393304,-0.2780547,2017-01-13 09:42:03,41.97671376513596
0.513084,-0.725972,9.798828,0.0010228083,1.3878196E-4,-6.5012276E-4,29.0,0.4971534,-0.71072334,9.76822,-0.0051665893,-0.0050832946,-0.024628831,-0.041896835,-0.014286711,-0.27777445,2017-01-13 09:42:04,44.389145458446805
0.49634,-0.708032,9.7940445,0.0010361373,1.372993E-4,-6.5378845E-4,31.0,0.49725288,-0.71564704,9.767855,-0.018223092,0.0067369803,-0.0297773,-0.042129472,-0.014253047,-0.2770613,2017-01-13 09:42:06,30.07134919372616
0.49634,-0.716404,9.803612,0.0010310337,1.0741502E-4,-6.2562525E-4,29.0,0.50012565,-0.71583694,9.767694,-0.0045863413,-6.289456E-4,-0.026350247,-0.042182367,-0.014383221,-0.2772436,2017-01-13 09:42:07,55.32091419432808
0.504712,-0.724776,9.81318,9.893999E-4,6.423518E-5,-6.272346E-4,32.0,0.491776,-0.7105152,9.768506,-9.7600545E-4,0.004692761,-0.023146482,-0.041776054,-0.014126783,-0.27546024,2017-01-13 09:42:08,48.865794939820375
0.510692,-0.7176,9.791653,-0.001449272,4.6901405E-5,-6.136969E-4,31.0,0.49661937,-0.7098004,9.768314,-0.0021126082,-0.0041604075,-0.042474285,-0.041827466,-0.014321708,-0.27667126,2017-01-13 09:42:09,26.509474945515947
0.515476,-0.712816,9.788064,0.0010340437,-0.0024015494,-6.540939E-4,33.0,0.49975023,-0.7098727,9.768149,-0.006157792,-0.012604703,-0.03546236,-0.041878592,-0.014465154,-0.2768794,2017-01-13 09:42:10,11.84658165566776
0.513084,-0.64584,9.902881,0.0034003705,0.0024503693,0.0017939284,31.0,0.5040483,-0.71638143,9.767453,-0.087971754,-0.047817398,-0.11389877,-0.042246226,-0.01462195,-0.27601475,2017-01-13 09:42:12,44.01682015251512
0.519064,-0.714012,9.806005,8.979142E-4,-5.445257E-5,-6.1669946E-4,33.0,0.49965677,-0.70554906,9.768468,-0.013427235,0.016834961,-0.024380408,-0.041645117,-0.0145782875,-0.2755753,2017-01-13 09:42:13,30.15895709870225
0.49634,-0.708032,9.796436,-0.0015615374,-8.3208084E-5,0.0018371344,31.0,0.49532187,-0.7126235,9.768173,-0.009390089,0.0037805415,-0.029458735,-0.04193476,-0.0142564075,-0.2757964,2017-01-13 09:42:14,45.034021176817916
0.504712,-0.718796,9.7940445,8.703396E-4,-1.0019913E-4,0.0018368587,33.0,0.49745598,-0.7098395,9.768269,-0.0024720163,-0.0041994974,-0.024580315,-0.041827355,-0.0144026335,-0.275743,2017-01-13 09:42:15,48.06341008690451
0.515476,-0.703248,9.802416,8.626357E-4,-7.5392425E-5,-5.7668984E-4,31.0,0.50167406,-0.7132548,9.767804,0.023274055,-0.0052227764,-0.031024083,-0.04207876,-0.014492235,-0.27732283,2017-01-13 09:42:17,48.85344564334969
0.499928,-0.716404,9.7940445,-0.004008226,-6.28829E-5,-5.903393E-4,33.0,0.49588487,-0.7154141,9.7679405,-0.0076311524,-2.0611704E-4,-0.027300095,-0.042083815,-0.014233015,-0.27606338,2017-01-13 09:42:18,42.90122187862381
0.5083,-0.715208,9.791653,8.923933E-4,-0.002464138,0.0018339306,31.0,0.50066674,-0.7121292,9.767937,-0.0076332716,0.003078823,-0.023715807,-0.041993633,-0.014503771,-0.2762947,2017-01-13 09:42:19,15.287259317960206
0.49634,-0.708032,9.802416,8.188784E-4,-2.56598E-5,-5.6523085E-4,33.0,0.50104225,-0.711592,9.767959,0.004702223,-0.0035599575,-0.034457564,-0.04199454,-0.014466127,-0.27774966,2017-01-13 09:42:20,49.58397172356968
0.503516,-0.727168,9.798828,-0.0016535744,-2.1334738E-5,-5.488172E-4,31.0,0.49728623,-0.71472096,9.7679205,-0.024169762,0.0016830578,-0.016555998,-0.0420786,-0.0142850485,-0.2766676,2017-01-13 09:42:21,46.65030886218757
0.50949603,-0.716404,9.78926,7.99112E-4,-2.4009496E-5,0.0019065365,33.0,0.49958584,-0.7118652,9.768012,-0.0134981815,0.012910847,-0.02842413,-0.041966554,-0.014450951,-0.2763754,2017-01-13 09:42:23,51.39914329600941
0.517868,-0.704444,9.8072,7.819012E-4,0.00240013,-5.445406E-4,31.0,0.49891537,-0.71157104,9.768068,-0.004600626,0.008420988,-0.025976153,-0.04193947,-0.0144313015,-0.2761675,2017-01-13 09:42:24,51.559301788045325
0.497536,-0.716404,9.79524,-0.001661174,-4.865229E-5,-5.779341E-4,33.0,0.5028881,-0.71067256,9.76793,-6.2792265E-4,0.0129074855,-0.03328969,-0.04194174,-0.014667093,-0.27552074,2017-01-13 09:42:25,49.49097921461665
0.510692,-0.716404,9.784476,7.519126E-4,-7.8976154E-5,-5.5835396E-4,31.0,0.498538,-0.71251655,9.768019,-0.0073700175,0.003887436,-0.03320143,-0.041995313,-0.014356428,-0.27715126,2017-01-13 09:42:26,36.92079909160313
0.50949603,-0.716404,9.785672,7.608533E-4,-1.1111051E-4,0.0018849894,33.0,0.49944964,-0.71197194,9.768011,0.0019136152,0.015196108,-0.03560089,-0.04198332,-0.014403613,-0.2772707,2017-01-13 09:42:28,23.181836203545934
0.51428,-0.710424,9.792849,-0.0017144904,0.0023189262,-5.53526E-4,31.0,0.49884206,-0.7098763,9.768196,1.1007278E-4,0.02685973,-0.016280688,-0.041876607,-0.014389349,-0.27759495,2017-01-13 09:42:29,12.96639485518728
0.495144,-0.7176,9.811984,-0.0017546341,-1.6213953E-4,-4.997477E-4,33.0,0.5030524,-0.7107384,9.767917,0.007908436,0.0068615563,-0.044068277,-0.041978557,-0.014584591,-0.27757135,2017-01-13 09:42:30,18.06742887684718
0.49634,-0.7176,9.804809,6.6795945E-4,-1.7034635E-4,0.0019402876,31.0,0.5007746,-0.7060675,9.768373,-0.014701383,0.0055525196,-0.028064065,-0.041739307,-0.014474146,-0.27906537,2017-01-13 09:42:31,24.51414613168728
0.510692,-0.716404,9.788064,6.4686686E-4,-1.9223243E-4,-4.531145E-4,33.0,0.49826527,-0.7143456,9.767899,-0.019602709,0.008038418,-0.016577626,-0.042103436,-0.014251865,-0.27863988,2017-01-13 09:42:32,55.961155615938864
0.5083,-0.716404,9.782084,6.6144764E-4,-1.8687174E-4,-4.5396388E-4,31.0,0.49675858,-0.71198964,9.768146,-0.01034549,0.0056103873,-0.023506548,-0.041951668,-0.014254472,-0.27765822,2017-01-13 09:42:34,21.13848731573471
0.50710404,-0.702052,9.804809,6.3326955E-4,-1.611188E-4,-4.213676E-4,32.0,0.49972954,-0.7119542,9.768,0.020133529,8.6180447E-4,-0.032024786,-0.041986067,-0.014418631,-0.27724692,2017-01-13 09:42:35,49.95284716508385
0.501124,-0.71999204,9.79524,-0.0017870069,-1.1575222E-4,-4.029572E-4,30.0,0.49750668,-0.7124295,9.768076,-0.010793343,0.003974457,-0.030751698,-0.041968293,-0.014330782,-0.27660936,2017-01-13 09:42:36,34.84337243350649
0.511888,-0.72358,9.791653,6.575361E-4,-0.002570875,-0.0028121322,30.0,0.49928012,-0.71172667,9.768037,-0.014999892,0.0010893296,-0.014047231,-0.041970644,-0.014393577,-0.2773896,2017-01-13 09:42:37,49.395883828511174
0.50949603,-0.72956,9.802416,6.5196306E-4,-9.831041E-5,-3.2807887E-4,29.0,0.49988547,-0.7125787,9.767945,-0.014394546,0.014589301,-0.03088263,-0.042022716,-0.014406483,-0.277497,2017-01-13 09:42:39,25.93431021154875
0.50710404,-0.721188,9.80122,-0.0017442778,-8.250028E-5,-3.7914515E-4,31.0,0.5006372,-0.7155839,9.767686,-0.0064668944,0.0056041037,-0.03353402,-0.04216508,-0.01444736,-0.27643618,2017-01-13 09:42:40,54.4806780716398
0.499928,-0.70922804,9.788064,-0.001697965,-0.0024911016,-3.7929416E-4,29.0,0.49963075,-0.7110818,9.768067,0.0068787634,0.0017342034,-0.039133158,-0.041923013,-0.014480691,-0.27599806,2017-01-13 09:42:41,50.212887811802744
0.50232,-0.725972,9.79524,7.728711E-4,-1.0997057E-5,-3.7828088E-4,31.0,0.5028482,-0.71188915,9.767844,0.006508176,-0.0014651772,-0.033376202,-0.04202409,-0.014581535,-0.27703992,2017-01-13 09:42:42,23.91947665771717
0.487968,-0.712816,9.796436,7.6530874E-4,1.6447157E-5,-0.0028078556,29.0,0.5035962,-0.7154226,9.767546,0.01562818,-0.0026066024,-0.02889058,-0.04220993,-0.014563479,-0.2771478,2017-01-13 09:42:43,13.03272011800005
0.52026004,-0.72238404,9.79524,7.485822E-4,-2.9429793E-6,-3.4868717E-4,31.0,0.499953,-0.7122485,9.767964,-0.0059549995,0.0053515173,-0.028471477,-0.042009227,-0.014409333,-0.2776145,2017-01-13 09:42:45,24.217902407698194
0.50949603,-0.69846404,9.804809,-0.001734376,-7.1041286E-6,-3.561601E-4,29.0,0.4982445,-0.714853,9.767862,-0.0028795376,0.012315073,-0.040534254,-0.042112492,-0.014289558,-0.27759355,2017-01-13 09:42:46,20.237988431427716
0.504712,-0.70683604,9.780889,7.0670247E-4,1.1481345E-5,-3.3685565E-4,31.0,0.5025273,-0.71988434,9.767274,-0.009360753,0.013263752,-0.030358315,-0.042418905,-0.0144331865,-0.27748093,2017-01-13 09:42:47,34.580450102585296
0.497536,-0.715208,9.802416,7.08133E-4,1.064688E-5,-3.495887E-4,29.0,0.4996847,-0.71385056,9.767862,9.5269765E-4,-0.0022305355,-0.028573768,-0.04207068,-0.0144126555,-0.27672046,2017-01-13 09:42:48,47.34448733916132
0.498732,-0.71999204,9.797632,6.8668276E-4,1.39549375E-5,0.0020921156,31.0,0.4999714,-0.71187824,9.767991,-0.008328633,-0.007434242,-0.03203297,-0.041979108,-0.014450962,-0.27680343,2017-01-13 09:42:49,41.496409179174705
0.50949603,-0.718796,9.79524,0.003139004,7.811934E-6,-3.504753E-4,30.0,0.50319827,-0.71638626,9.767495,-3.177607E-4,0.0024097646,-0.025353054,-0.04225391,-0.014523622,-0.27730003,2017-01-13 09:42:51,27.52671038573293
0.50949603,-0.718796,9.792849,6.8098307E-4,-2.6486814E-6,0.0020895302,32.0,0.50307494,-0.7122225,9.767808,-0.0040291096,0.007769465,-0.025040334,-0.042057127,-0.01454916,-0.27792493,2017-01-13 09:42:52,53.278357896920994
0.501124,-0.715208,9.798828,7.079616E-4,-2.4851412E-5,-3.85575E-4,30.0,0.50418764,-0.7114714,9.767804,-0.0017203941,0.0013446196,-0.020260114,-0.042020533,-0.014659086,-0.2769039,2017-01-13 09:42:53,43.228968864855865
0.504712,-0.70922804,9.7773,7.5277686E-4,7.6293945E-6,-3.798008E-4,32.0,0.5003457,-0.7152407,9.767727,0.013573694,0.008339301,-0.031101242,-0.04215539,-0.01440487,-0.27718857,2017-01-13 09:42:54,38.61653695248651
0.50710404,-0.716404,9.7940445,7.3505193E-4,2.8811395E-5,0.0020372868,29.0,0.50208664,-0.71547353,9.76762,-0.013389351,9.304858E-4,-0.037187867,-0.042189352,-0.014493432,-0.27704096,2017-01-13 09:42:56,12.815792672748856
0.511888,-0.712816,9.78926,7.382557E-4,2.4847686E-5,0.0020462945,29.0,0.49975818,-0.71352845,9.767881,0.0153781865,-0.0031044688,-0.03573007,-0.042056717,-0.014418428,-0.27677488,2017-01-13 09:42:57,42.560192723858734
0.505908,-0.718796,9.790456,-0.0016323924,6.1597675E-5,-4.4421852E-4,28.0,0.50265115,-0.71655697,9.767511,3.3116818E-4,-0.009720964,-0.03849252,-0.042252026,-0.014501627,-0.2771354,2017-01-13 09:42:58,41.60392992679191
0.497536,-0.70564,9.800024,8.5550547E-4,1.982972E-5,-4.5771897E-4,29.0,0.49858806,-0.71702665,9.767685,0.0034440395,-0.008994623,-0.031143326,-0.04220672,-0.014327031,-0.27642384,2017-01-13 09:42:59,15.091342382738908
0.503516,-0.72358,9.798828,-0.0016244724,-0.002430424,-4.625693E-4,27.0,0.49903533,-0.7127523,9.767976,-0.0032846844,0.0036517275,-0.0332441,-0.041992422,-0.014440274,-0.27571598,2017-01-13 09:43:00,42.97917629828723
0.503516,-0.70683604,9.821552,-0.0016015321,-8.158386E-7,-4.7963858E-4,30.0,0.50000095,-0.7143545,9.767809,-0.008299079,-0.0015385346,-0.016667642,-0.04210503,-0.014406149,-0.27706003,2017-01-13 09:43:02,51.19258158097666
0.5083,-0.72358,9.790456,-0.0016736388,-9.026378E-6,-5.031526E-4,27.0,0.500326,-0.71223867,9.767947,-0.0067780796,0.008949323,-0.029684944,-0.041979045,-0.014529316,-0.275293,2017-01-13 09:43:03,52.3175958226184
0.50949603,-0.7176,9.78328,7.703081E-4,9.596348E-6,-0.0029335245,29.0,0.5015688,-0.71556675,9.76764,-0.007927213,0.0020332595,-0.015640052,-0.04215767,-0.01455074,-0.27512816,2017-01-13 09:43:04,30.701724799203085
0.49275202,-0.70922804,9.800024,7.528588E-4,-0.0024339072,0.0019233078,27.0,0.5050114,-0.7125121,9.767685,0.008671382,0.0050878976,-0.040711366,-0.0420733,-0.014713573,-0.2762467,2017-01-13 09:43:05,11.73851819083584
0.515476,-0.714012,9.779693,7.856935E-4,-1.4439225E-5,-5.105138E-4,29.0,0.50212526,-0.71553093,9.767614,-0.006174743,0.0032650663,-0.03360592,-0.04218637,-0.014513,-0.27662036,2017-01-13 09:43:06,45.37383795745623
0.50949603,-0.716404,9.7940445,7.3910505E-4,7.4878335E-7,-4.919842E-4,27.0,0.499341,-0.7132038,9.767928,0.0030010084,8.0824766E-4,-0.028508302,-0.04201104,-0.014471833,-0.27519214,2017-01-13 09:43:08,45.34172810427699
0.501124,-0.70922804,9.788064,7.324293E-4,-7.770956E-6,0.0019511059,29.0,0.50219285,-0.7156569,9.767601,-0.008499132,0.0019430969,-0.021658875,-0.042176966,-0.014562552,-0.27552757,2017-01-13 09:43:09,29.801090545751233
0.504712,-0.710424,9.791653,-0.0017051101,1.04010105E-5,-5.054325E-4,27.0,0.50051063,-0.71232045,9.767933,0.0041706003,0.0016916064,-0.03209142,-0.041986525,-0.014534749,-0.2753496,2017-01-13 09:43:10,53.46635889722775
0.50949603,-0.71999204,9.7940445,7.1325153E-4,0.0024715848,-5.20356E-4,32.0,0.5009599,-0.7135365,9.767819,-0.010928148,0.0028675182,-0.032204818,-0.042069543,-0.014490707,-0.27646783,2017-01-13 09:43:11,22.98618577294888
0.50710404,-0.72238404,9.80122,6.4890087E-4,2.8904527E-5,-4.883632E-4,30.0,0.5005564,-0.7131999,9.767865,-0.0041555488,0.0044000614,-0.017806875,-0.042042676,-0.014489054,-0.2761622,2017-01-13 09:43:13,52.477986129878246
0.503516,-0.712816,9.785672,6.5790117E-4,-1.5445054E-5,-4.4801086E-4,32.0,0.5022593,-0.7157206,9.767593,0.0011352877,-0.006492577,-0.04080372,-0.042183656,-0.014557339,-0.2757,2017-01-13 09:43:14,37.06454150671207
0.51428,-0.708032,9.785672,6.5362453E-4,0.0024047196,-4.3662637E-4,30.0,0.50121754,-0.7113191,9.767969,-0.020238487,0.011064926,-0.023683073,-0.041960724,-0.014544847,-0.2762345,2017-01-13 09:43:15,24.208369500495742
0.499928,-0.71999204,9.800024,-0.0017427951,0.0024259053,-4.5903772E-4,30.0,0.5045187,-0.71428263,9.767582,-0.008565328,0.003317381,-0.021678165,-0.04215562,-0.014657778,-0.27639812,2017-01-13 09:43:16,15.420640251468727
0.505908,-0.710424,9.780889,7.470697E-4,-0.0024337322,0.0019665435,29.0,0.50711787,-0.7199167,9.767035,0.010777853,-0.01308065,-0.023421792,-0.04248701,-0.01465446,-0.27755666,2017-01-13 09:43:17,10.994810113737639
0.50710404,-0.718796,9.808396,8.164272E-4,6.63884E-5,-4.843548E-4,31.0,0.5017029,-0.71576923,9.767619,-0.0018131139,0.011398834,-0.026425065,-0.04221495,-0.014422146,-0.2781388,2017-01-13 09:43:19,30.10464767210117
0.501124,-0.70922804,9.78328,8.968115E-4,8.439273E-5,-5.5594E-4,31.0,0.49946007,-0.7120499,9.768005,0.0019240634,-0.0028218525,-0.029627077,-0.042007934,-0.014342719,-0.27864856,2017-01-13 09:43:20,21.005758224530243
0.50232,-0.72238404,9.802416,9.182468E-4,8.31373E-5,-5.894527E-4,32.0,0.5040322,-0.71644753,9.767449,0.007692162,-0.008415508,-0.020614918,-0.042271502,-0.014555754,-0.2774792,2017-01-13 09:43:21,12.884439868425952
0.493948,-0.7176,9.804809,8.956194E-4,0.0025042444,-5.72674E-4,30.0,0.50297534,-0.7110419,9.767899,-0.0053247022,0.001774024,-0.011793898,-0.041999962,-0.014554595,-0.2780721,2017-01-13 09:43:22,12.544706578820533
0.50232,-0.702052,9.791653,-0.0015602931,7.2315335E-5,-0.0030036941,32.0,0.5049345,-0.70995986,9.767877,0.008594481,0.004052198,-0.027363224,-0.04197949,-0.014652493,-0.2783809,2017-01-13 09:43:23,40.41626387132638
0.510692,-0.72238404,9.790456,-0.0015368909,1.2971833E-4,0.0018504634,30.0,0.500964,-0.7135758,9.767817,0.00701598,0.004024214,-0.040579848,-0.042093106,-0.014427563,-0.27789986,2017-01-13 09:43:25,33.311614755555674
0.5083,-0.715208,9.786868,-0.0015591234,9.750575E-5,-5.94981E-4,32.0,0.5020366,-0.71465576,9.767682,-0.006263444,0.0041402415,-0.017989831,-0.042152543,-0.014490714,-0.2773104,2017-01-13 09:43:26,25.85577483332076
0.515476,-0.70085603,9.7940445,-0.0015013069,9.404123E-5,-5.8844686E-4,30.0,0.5031879,-0.71145433,9.767858,0.0020638737,-0.0034223027,-0.022598201,-0.042021718,-0.014563565,-0.27797145,2017-01-13 09:43:27,32.15508993206039
0.513084,-0.715208,9.788064,9.4529986E-4,0.0025484376,-6.0313195E-4,30.0,0.5018515,-0.71403515,9.767737,0.012687487,0.008348872,-0.0083668465,-0.04212452,-0.014475604,-0.27764815,2017-01-13 09:43:28,40.635692894025325
0.5083,-0.72238404,9.791653,9.004548E-4,-0.0023507923,0.0018319488,30.0,0.5039828,-0.7166979,9.767432,-0.015081213,9.021365E-4,-0.027808044,-0.0422902,-0.014529125,-0.27794808,2017-01-13 09:43:30,25.342728167438104
0.49155602,-0.71162003,9.802416,9.3794614E-4,8.2243234E-5,0.0018230304,32.0,0.50207865,-0.7138571,9.767739,-0.0050253905,-0.004629048,-0.035872694,-0.042120684,-0.014484411,-0.27775878,2017-01-13 09:43:31,50.23069721796279
0.49155602,-0.708032,9.7940445,9.484589E-4,9.950623E-5,-6.512031E-4,30.0,0.5036662,-0.7146193,9.767603,-0.0070257704,-0.0018033232,-0.018069325,-0.04218358,-0.014543184,-0.2779464,2017-01-13 09:43:32,48.583187230383025
0.50949603,-0.724776,9.798828,-0.0014827922,4.792586E-5,-6.5499544E-4,32.0,0.4972532,-0.71244884,9.768088,-0.012242811,0.0039551673,-0.023563832,-0.041972633,-0.01429757,-0.27707845,2017-01-13 09:43:33,33.09753226703941
0.504712,-0.71999204,9.791653,-0.0014634281,1.417473E-5,0.001783222,30.0,0.5014597,-0.7136815,9.767784,-0.002056275,-0.0044534723,-0.02626023,-0.042100128,-0.014465625,-0.2775521,2017-01-13 09:43:34,10.923738139091148
0.510692,-0.71999204,9.78926,0.0010004193,3.5241246E-5,0.0017952695,32.0,0.5044895,-0.7154716,9.767497,-0.0038105713,0.0021283904,-0.025351299,-0.042226378,-0.014602712,-0.27723587,2017-01-13 09:43:36,43.677721557953326
0.50232,-0.72238404,9.808396,0.0010070354,-0.0024078563,-6.5620244E-4,30.0,0.49880913,-0.7124262,9.768011,-0.009490882,-0.0043941434,-0.015269466,-0.04200688,-0.014335452,-0.27796355,2017-01-13 09:43:37,47.88179257101656
0.49036002,-0.70922804,9.797632,9.935051E-4,6.6660345E-5,0.0017588809,32.0,0.5044075,-0.7122632,9.7677355,-0.0110684335,0.0017488165,-0.037073303,-0.042090505,-0.014578228,-0.2787385,2017-01-13 09:43:38,29.683885383456392
0.50710404,-0.715208,9.790456,9.648055E-4,3.6295503E-5,-0.0031113774,30.0,0.49839255,-0.7104013,9.768181,-0.01588745,0.00241466,-0.01868775,-0.041912753,-0.014310867,-0.27871695,2017-01-13 09:43:39,14.05824415425659
0.505908,-0.712816,9.802416,9.911731E-4,6.393343E-5,-6.485805E-4,32.0,0.5024974,-0.7168476,9.767499,0.007353395,-0.010011545,-0.034917,-0.04227269,-0.014464933,-0.27770397,2017-01-13 09:43:41,13.812173502096366
0.493948,-0.70922804,9.79524,-0.0014304146,1.3099983E-4,0.0017801598,30.0,0.5020292,-0.7184077,9.767409,-2.9079965E-4,-0.016355654,-0.023047114,-0.04236403,-0.014356886,-0.2791303,2017-01-13 09:43:42,12.553196265140725
0.50232,-0.716404,9.798828,0.0010504574,1.2898073E-4,0.0017926767,32.0,0.5005532,-0.71611905,9.767652,0.006605207,-0.00330306,-0.03117606,-0.042221114,-0.014344968,-0.278499,2017-01-13 09:43:43,12.178179674970334
0.5083,-0.715208,9.79524,0.0010371655,1.4872104E-4,0.0017949864,30.0,0.505982,-0.71748376,9.767272,0.009641944,-0.008255715,-0.031556,-0.0423435,-0.01465592,-0.27704298,2017-01-13 09:43:44,12.687963731077893
0.51428,-0.721188,9.792849,-0.0014111847,1.2506172E-4,0.0018006116,32.0,0.50076866,-0.71523416,9.767706,-0.01351137,0.005953867,-0.025142625,-0.04214883,-0.014461457,-0.27637443,2017-01-13 09:43:45,16.530522627247784
0.49155602,-0.70922804,9.804809,-0.0014032274,1.3259426E-4,0.0017877892,30.0,0.5046688,-0.71420884,9.767579,-0.0012392595,0.015351226,-0.028856678,-0.042150576,-0.014676372,-0.27616602,2017-01-13 09:43:47,19.024639653486936
0.53102404,-0.714012,9.786868,0.0010539368,-0.0023001991,-6.498918E-4,32.0,0.50141305,-0.7119225,9.767915,-0.008082988,0.018833514,-0.03210954,-0.041950908,-0.014667295,-0.27345717,2017-01-13 09:43:48,13.951488596717638
0.5083,-0.716404,9.791653,0.0010481849,1.40775E-4,0.0018240437,29.0,0.5040712,-0.7166737,9.76743,5.551497E-4,-0.00505363,-0.019437691,-0.0422201,-0.014736397,-0.2733442,2017-01-13 09:43:49,18.147559767151105
0.511888,-0.71999204,9.790456,-0.0014332533,1.0060519E-4,-6.0167164E-4,31.0,0.5018165,-0.7147508,9.767688,-0.0076795216,0.001653174,-0.02874854,-0.042103086,-0.014626196,-0.27394575,2017-01-13 09:43:50,20.91148093343258
0.517868,-0.718796,9.78926,-0.0014628023,6.201863E-5,-5.6085736E-4,31.0,0.5043968,-0.7181806,9.767303,-0.013471221,6.154285E-4,-0.021956395,-0.042310737,-0.014696947,-0.27412546,2017-01-13 09:43:52,17.48407602836173
0.505908,-0.716404,9.796436,9.3963E-4,5.8993697E-5,0.0018998086,31.0,0.5038887,-0.712192,9.767767,-0.0056072823,0.0018200551,-0.008337621,-0.04202834,-0.014701149,-0.2753758,2017-01-13 09:43:53,20.719035719760633
0.511888,-0.7176,9.791653,8.6467713E-4,9.248778E-5,-5.518198E-4,29.0,0.5017551,-0.71302843,9.767817,-0.006544928,-0.0014084055,-0.034599606,-0.04204829,-0.014558764,-0.27596822,2017-01-13 09:43:54,13.554500234650765
0.50232,-0.716404,9.792849,8.543357E-4,6.947294E-5,-5.1072985E-4,31.0,0.50299937,-0.71370053,9.767703,-0.002908654,0.017055545,-0.021557167,-0.04212388,-0.01453824,-0.27761143,2017-01-13 09:43:55,12.989255323449889
0.501124,-0.721188,9.800024,8.238256E-4,6.606802E-5,0.0019111782,29.0,0.50441337,-0.7152665,9.767516,-0.011062589,0.0047254944,-0.025332594,-0.042223986,-0.014576532,-0.2778122,2017-01-13 09:43:56,13.877963699101807
0.49634,-0.71999204,9.79524,-0.0015610531,-0.0023645721,-5.268678E-4,31.0,0.50074995,-0.71584064,9.767661,-0.012334033,5.63333E-4,-0.016815526,-0.04218122,-0.014443647,-0.27656406,2017-01-13 09:43:58,17.107518348841253
0.50232,-0.716404,9.796436,-0.0015242025,-0.0024156608,0.0019334927,29.0,0.5027233,-0.716814,9.76749,0.0015992154,0.0019820407,-0.0361217,-0.042261228,-0.014514467,-0.27684146,2017-01-13 09:43:59,22.032496740111917
0.51428,-0.714012,9.785672,8.7889284E-4,4.7199428E-5,-5.0587207E-4,31.0,0.50134,-0.71326965,9.767819,0.0038039589,-4.5366207E-4,-0.02742109,-0.04205797,-0.014524294,-0.27621263,2017-01-13 09:44:00,18.64373163618297
0.498732,-0.71162003,9.80122,9.2149526E-4,2.8591603E-5,-5.212873E-4,29.0,0.50048864,-0.71246415,9.767921,0.0029526027,-0.005628142,-0.030906595,-0.04199524,-0.014525997,-0.27547887,2017-01-13 09:44:01,18.801825409407115
0.50232,-0.714012,9.784476,8.892864E-4,6.0554594E-5,0.0019479245,31.0,0.5043834,-0.7158252,9.767475,0.0068473816,0.0017748277,-0.044509005,-0.042219725,-0.014657517,-0.2757581,2017-01-13 09:44:02,11.522943178026097
0.50710404,-0.7176,9.806005,8.5292757E-4,6.67423E-5,-5.0430745E-4,29.0,0.50160646,-0.7171979,9.767519,-7.135551E-4,-0.009165888,-0.021740707,-0.042247027,-0.014504466,-0.275701,2017-01-13 09:44:04,12.878104744959
0.511888,-0.72358,9.790456,8.629933E-4,5.4597855E-5,-5.0248206E-4,32.0,0.50194067,-0.71622914,9.767572,-0.009947394,0.007350874,-0.022883449,-0.042206977,-0.014526289,-0.27588788,2017-01-13 09:44:05,17.011445061240465
0.529828,-0.710424,9.786868,8.688569E-4,-0.002342552,-5.0159544E-4,31.0,0.4976883,-0.7131752,9.768013,0.016896263,-0.00633914,-0.023639234,-0.04199867,-0.014355021,-0.27601817,2017-01-13 09:44:06,35.05366885834205
0.516672,-0.718796,9.776104,8.184165E-4,-0.0023956187,-4.983619E-4,33.0,0.50202686,-0.71220416,9.767862,-0.005077194,0.0018079262,-0.034554012,-0.042011555,-0.014583947,-0.2759629,2017-01-13 09:44:07,26.701370918399515
0.515476,-0.702052,9.80122,-0.0016179234,0.0024781898,-4.7704577E-4,31.0,0.49905205,-0.7180011,9.7675905,-0.016423933,-0.015949119,-0.033629883,-0.0422609,-0.014336833,-0.27640563,2017-01-13 09:44:09,15.906293985704947
0.493948,-0.697268,9.770124,8.4195286E-4,8.714199E-5,0.001913175,31.0,0.51243955,-0.71582335,9.767057,0.031647515,0.012540625,-0.0353589,-0.04233975,-0.015035537,-0.27614862,2017-01-13 09:44:10,45.211169923777746
0.493948,-0.724776,9.800024,8.964762E-4,1.2651831E-4,-5.6967884E-4,31.0,0.5015198,-0.7181119,9.767457,-0.009172171,-0.022039836,-0.015823592,-0.04229597,-0.014471997,-0.27604952,2017-01-13 09:44:11,31.476038713870054
0.50232,-0.72238404,9.810788,-0.0015217662,1.164861E-4,-5.4391474E-4,33.0,0.49372023,-0.71164656,9.768327,-0.0026197906,-0.0072025517,-0.02212883,-0.041858867,-0.014207004,-0.275443,2017-01-13 09:44:12,15.252346680843745
0.495144,-0.710424,9.808396,8.766055E-4,8.469075E-5,0.0019002557,31.0,0.5042692,-0.7157677,9.767486,-0.010010851,0.012596301,-0.027754853,-0.042217992,-0.014644921,-0.27593553,2017-01-13 09:44:13,13.27877542656724
0.50232,-0.728364,9.798828,8.878857E-4,-0.002335582,0.0018838868,32.0,0.5045346,-0.71785444,9.76732,-0.0013734073,-0.002646423,-0.024332477,-0.042336073,-0.014594388,-0.27670997,2017-01-13 09:44:15,20.963260373514238
0.50710404,-0.70922804,9.778496,8.283183E-4,6.555021E-5,-0.0030189976,31.0,0.5025115,-0.718746,9.767359,-0.012964477,0.009617942,-0.007549685,-0.042355068,-0.014471117,-0.2769695,2017-01-13 09:44:16,16.372003745029247
0.513084,-0.727168,9.815572,-0.001601845,4.8346817E-5,-5.659312E-4,33.0,0.50342286,-0.7140969,9.767652,0.0011028467,-0.0012809067,-0.03476444,-0.04215563,-0.014535271,-0.27802378,2017-01-13 09:44:17,24.31684088975225
0.5083,-0.7176,9.78926,8.121729E-4,3.132969E-5,-5.484745E-4,31.0,0.5042696,-0.7141548,9.767605,-0.0040304246,0.003445245,-0.021655368,-0.042170696,-0.01457554,-0.27803335,2017-01-13 09:44:18,14.265144382496223
0.497536,-0.715208,9.808396,-0.0016183257,-0.0024071597,-5.5477023E-4,33.0,0.50037277,-0.71505636,9.767738,-0.01869122,0.008523645,5.8452188E-6,-0.04215029,-0.014398367,-0.2774263,2017-01-13 09:44:19,21.305693244382454
0.510692,-0.70683604,9.806005,-0.0016217232,-3.1255186E-6,0.0019052923,31.0,0.5010844,-0.7074361,9.768256,-0.009607604,-6.000848E-4,-0.03774784,-0.041801095,-0.014498213,-0.27841386,2017-01-13 09:44:21,23.90876485529391
0.501124,-0.70683604,9.802416,8.367747E-4,4.647672E-5,-5.418956E-4,33.0,0.503249,-0.7095834,9.76799,0.0021249563,-0.002747399,-0.03442542,-0.04193188,-0.014589777,-0.27804795,2017-01-13 09:44:22,38.26908623470918
0.517868,-0.721188,9.808396,8.848533E-4,7.980317E-5,0.0018797889,31.0,0.5028709,-0.7137812,9.767703,-0.014997078,0.0074068424,-0.04069383,-0.042126697,-0.01452882,-0.2776565,2017-01-13 09:44:23,39.771638137304365
0.50710404,-0.72358,9.800024,-0.0014866441,-0.0023333654,-5.686581E-4,31.0,0.50191903,-0.7145661,9.767694,-0.005185038,0.009013913,-0.032329906,-0.042139787,-0.014505648,-0.27686793,2017-01-13 09:44:24,16.050818807998322
0.5083,-0.71162003,9.82514,9.657219E-4,6.657466E-5,-5.797446E-4,29.0,0.50232226,-0.7141256,9.767707,-0.005977759,-0.0025055532,-0.057432782,-0.04213571,-0.014497281,-0.27765095,2017-01-13 09:44:25,16.210321802868247
0.48916402,-0.702052,9.780889,0.0033772737,0.0049738437,-6.397888E-4,30.0,0.5040935,-0.7115366,9.767804,0.005361527,0.0024754503,-0.09201953,-0.042028874,-0.014634966,-0.27732825,2017-01-13 09:44:27,25.387253875948346
0.515476,-0.718796,9.780889,-0.001459226,1.14578754E-4,0.001769051,29.0,0.5086748,-0.71411484,9.767378,-0.0044092312,0.0034851388,-0.029058337,-0.042215332,-0.014838382,-0.27698058,2017-01-13 09:44:28,15.878556005521496
0.529828,-0.721188,9.79524,9.980202E-4,1.2015179E-4,-7.1086735E-4,30.0,0.50440806,-0.7135891,9.767637,-0.008675949,0.006402926,-0.031190673,-0.042125344,-0.014646716,-0.27674967,2017-01-13 09:44:29,13.379075200458141
0.511888,-0.702052,9.796436,-0.0014456436,9.2256814E-5,-7.221028E-4,32.0,0.50598055,-0.71446157,9.767492,-0.014279468,-0.0016455753,-0.031335633,-0.04219582,-0.014696343,-0.2770946,2017-01-13 09:44:30,18.370875943875834
0.513084,-0.71999204,9.79524,9.6331537E-4,4.8872083E-5,-7.051751E-4,33.0,0.50242794,-0.71082705,9.767942,-0.030988099,0.0043809186,-0.016533786,-0.041982703,-0.014527627,-0.2781448,2017-01-13 09:44:32,13.38744329962224
0.519064,-0.710424,9.803612,-0.0014418662,5.6739897E-5,-7.2268397E-4,31.0,0.5045638,-0.71374595,9.767619,-1.481763E-4,0.00505005,-0.03001286,-0.04215128,-0.014605985,-0.2778007,2017-01-13 09:44:33,23.30794121773942
0.481988,-0.714012,9.796436,0.0010374933,-0.002343379,-7.362664E-4,33.0,0.5050364,-0.7176346,9.76731,-0.003263605,0.010729338,0.0031663552,-0.042350646,-0.014569172,-0.2779098,2017-01-13 09:44:34,24.413959274859224
0.50232,-0.708032,9.797632,-0.0037859008,-0.002302263,0.0017003492,31.0,0.5077531,-0.716244,9.767271,0.011413046,0.0013560178,-0.035144377,-0.04231872,-0.014728905,-0.27775538,2017-01-13 09:44:35,20.357384315900543
0.511888,-0.72358,9.79524,0.0011043176,1.864843E-4,-7.5987726E-4,33.0,0.5005207,-0.7148406,9.767748,-0.024523288,0.0027593817,-0.017924365,-0.042164832,-0.014341119,-0.2789641,2017-01-13 09:44:36,15.84401904566548
0.50949603,-0.7176,9.798828,-0.0013286695,2.4709105E-4,-7.0209056E-4,31.0,0.5087921,-0.7099929,9.767674,0.0040801456,0.005215104,-0.023978258,-0.04206989,-0.01474539,-0.28056422,2017-01-13 09:44:38,26.98658591785451
0.501124,-0.728364,9.796436,0.0011432841,2.969317E-4,0.0016980171,32.0,0.50142115,-0.7182461,9.767451,-0.0056829047,0.0017458939,-0.030181203,-0.042321045,-0.0144070145,-0.27737105,2017-01-13 09:44:39,16.27989578774445
0.515476,-0.721188,9.786868,-0.0012836531,2.8374046E-4,-7.7706575E-4,30.0,0.5018907,-0.71340823,9.767782,-0.013585239,0.0077797673,-0.019086394,-0.042073827,-0.014545754,-0.27629483,2017-01-13 09:44:40,20.087124231758516
0.50710404,-0.714012,9.80122,0.0011859313,2.8238818E-4,-7.711947E-4,31.0,0.50001496,-0.71397215,9.767836,-0.010677023,-0.0011561844,-0.021424482,-0.042088628,-0.014405872,-0.27720544,2017-01-13 09:44:41,14.0418871559714
