ACC_X,ACC_Y,ACC_Z,GYRO_X,GYRO_Y,GYRO_Z,LIGH_1,GRAV_X,GRAV_Y,GRAV_Z,LINACC_X,LINACC_Y,LINACC_Z,ROTVEC_X,ROTVEC_Y,ROTVEC_Z,TIME,VOICE
-1.039505,1.2748718,9.532059,0.0,0.0,0.0,0.0,0.0,0.0,0.0,0.0,0.0,0.0,0.0,0.0,0.0,2017-01-07 23:26:15,34.43769694689248
-1.0591125,1.255249,9.600708,-0.001163218,-0.003270924,0.0044715684,10.0,-1.0704714,1.2613839,9.666096,-0.021704726,0.021932302,0.14547269,0.065681286,-0.053272847,-0.9791524,2017-01-07 23:26:16,41.974861674157815
-1.0296936,1.2160187,9.512451,-0.0011101807,1.1090398E-4,0.005292963,10.0,-1.0439123,1.2455981,9.671046,-0.022386305,-0.0074738786,0.123182505,0.06432358,-0.052658472,-0.97910815,2017-01-07 23:26:17,48.6815706517517
-1.0198975,1.1865997,9.54187,0.0,0.0,0.0,10.0,-1.0199311,1.2437631,9.6738405,-0.012025356,0.03155213,0.05787484,0.063052304,-0.05283665,-0.97923255,2017-01-07 23:26:18,48.24781257242197
-1.0198975,1.2160187,9.424194,0.0,0.0,0.0,9.0,-1.027657,1.2416288,9.673297,-0.0061309854,0.02941782,0.12543371,0.06358442,-0.052544292,-0.97896916,2017-01-07 23:26:19,64.0107604080952
-1.0493164,1.255249,9.728195,0.00160918,4.0273042E-4,0.0016797992,9.0,-1.0345377,1.2232316,9.674908,-0.04025231,-0.057081137,0.14066434,0.06369557,-0.051653206,-0.97909313,2017-01-07 23:26:20,53.02910602264508
-1.0525818,1.2748718,9.584366,5.527352E-4,-9.454432E-4,-0.0065869326,9.0,-1.0326312,1.2578077,9.670676,0.01613561,-0.008884525,0.095571876,0.06407258,-0.053166945,-0.9784573,2017-01-07 23:26:21,59.43360440385371
-1.039505,1.2748718,9.42746,0.0014184047,-0.0011945758,-0.010122035,7.0,-1.0463167,1.2693366,9.667699,-0.011182605,0.0023122127,0.07901614,0.06493116,-0.053549405,-0.9781962,2017-01-07 23:26:22,49.20287384578424
-1.0493164,1.2062225,9.483032,0.0,0.0,0.0,7.0,-1.0387024,1.2586011,9.669924,-0.017176319,0.060010497,0.19016196,0.06452509,-0.05294528,-0.9779443,2017-01-07 23:26:23,62.43358533315252
-1.0198975,1.2160187,9.483032,0.0,0.0,0.0,7.0,-1.0240424,1.2449756,9.673251,-0.016136648,0.005524018,0.16624822,0.063434415,-0.05269462,-0.9789045,2017-01-07 23:26:24,58.3875834229579
-1.0525818,1.2225647,9.518982,0.0,0.0,0.0,6.0,-1.0470072,1.2542062,9.6696,-0.011860858,0.028374927,0.14897586,0.06463517,-0.053066056,-0.9790259,2017-01-07 23:26:25,43.48857360548446
-1.039505,1.2356415,9.561478,0.0014007136,0.0013368926,0.005938383,7.0,-1.0584985,1.2644346,9.667015,-0.02335209,0.011362586,0.17363283,0.06547591,-0.05330592,-0.97833896,2017-01-07 23:26:26,54.30616493682806
-0.9904785,1.2650604,9.394775,0.0016658001,-0.0035405308,-0.014954927,7.0,-1.0226811,1.2636849,9.670968,-0.028395815,0.037853535,0.6270572,0.06368378,-0.0534918,-0.97818696,2017-01-07 23:26:27,59.4992953134238
-0.9741211,1.2356415,9.532059,-0.0031170384,5.086854E-4,0.0057635955,7.0,-1.0393615,1.2630996,9.669266,-0.0042151045,-0.0035927573,0.135023,0.064280145,-0.053306628,-0.97877187,2017-01-07 23:26:28,65.49952415014275
-1.0591125,1.2356415,9.54187,6.043254E-4,9.7605825E-4,8.7870186E-4,8.0,-1.0473499,1.2576528,9.669114,-0.012203467,0.01820113,0.17573191,0.06467512,-0.053340714,-0.9792101,2017-01-07 23:26:29,50.399149710580524
-1.0198975,1.2160187,9.561478,0.0,0.0,0.0,8.0,-1.031582,1.2488344,9.671951,-0.023676306,0.036623493,0.16494885,0.063749775,-0.052798416,-0.9786367,2017-01-07 23:26:30,46.48596368760711
-0.9904785,1.2356415,9.561478,4.0134977E-4,5.413184E-4,-0.0035752857,8.0,-1.0407996,1.2260793,9.673875,-0.01927353,-0.013372199,0.13963184,0.064073876,-0.051679887,-0.9789794,2017-01-07 23:26:31,44.38807373439246
-1.0296936,1.2356415,9.639938,0.0012080021,-9.369785E-5,0.006958537,8.0,-1.0435519,1.250852,9.670406,-0.008405581,0.025020655,0.24512552,0.064441495,-0.052886497,-0.97877306,2017-01-07 23:26:32,52.031348668953996
-1.0002747,1.2487183,9.518982,7.604264E-4,-4.5834176E-4,0.0014136344,8.0,-1.0268495,1.2573649,9.67135,-0.03256416,0.004292937,0.16434698,0.06383622,-0.053153988,-0.9782376,2017-01-07 23:26:33,48.30181206243072
-1.039505,1.2487183,9.584366,0.0,0.0,0.0,8.0,-1.0390898,1.2669313,9.668794,-0.04480441,0.05472029,0.08006859,0.064612925,-0.05348683,-0.97812563,2017-01-07 23:26:34,59.26125697695949
-0.9904785,1.2356415,9.5811,0.0,0.0,0.0,8.0,-1.0516057,1.248123,9.669887,-0.029370535,0.02300491,0.13562821,0.06476624,-0.05271005,-0.97903943,2017-01-07 23:26:35,50.491202146148936
-1.0296936,1.2258301,9.532059,0.0,0.0,0.0,8.0,-1.0375015,1.2553099,9.67048,-0.015975373,0.029478608,0.09537569,0.06420334,-0.053162053,-0.9788681,2017-01-07 23:26:36,46.7443172222014
-1.039505,1.2748718,9.532059,0.0011885295,-9.5304206E-4,-0.004145593,8.0,-1.039809,1.2683752,9.668527,0.008957786,0.042543843,0.06618222,0.06446009,-0.053736564,-0.9786539,2017-01-07 23:26:37,49.63609293261443
-1.0493164,1.2062225,9.355545,0.0,0.0,0.0,8.0,-1.0295116,1.2517768,9.671792,0.019255241,0.053186193,0.4099555,0.063539006,-0.053268276,-0.9795329,2017-01-07 23:26:38,48.86334734210515
-1.0525818,1.2356415,9.558212,0.0029429009,-6.4851396E-4,-0.014480164,8.0,-1.04036,1.251514,9.670665,0.008406724,0.025682699,0.12280176,0.064289086,-0.053000335,-0.97899866,2017-01-07 23:26:39,62.49870499001949
-0.9871979,1.261795,9.492844,0.0015563358,-0.002859064,-0.010146992,8.0,-1.0408866,1.2599574,9.669512,-0.060221657,0.006885408,0.21699032,0.06437033,-0.05334394,-0.9787723,2017-01-07 23:26:40,43.557761936636545
-1.010086,1.2650604,9.7968445,-0.004261868,0.002131879,0.01668102,8.0,-1.037564,1.2388473,9.672596,-0.016038034,-6.043697E-4,-0.10681381,0.063817106,-0.052271426,-0.97933906,2017-01-07 23:26:41,55.86500338621039
-1.0002747,1.2650604,9.561478,0.0018568705,9.80193E-4,0.004985129,8.0,-1.0319502,1.2633569,9.670027,-0.051285278,-0.030576054,0.17664386,0.06394043,-0.053726614,-0.9790156,2017-01-07 23:26:42,53.79506989544325
-1.039505,1.2356415,9.675888,-0.0020582287,1.3578385E-4,-0.0011483183,8.0,-1.0352285,1.2497193,9.671448,-0.027779078,0.008127712,0.001228691,0.0639454,-0.05280156,-0.9791459,2017-01-07 23:26:43,44.03200191741973
-1.0525818,1.2356415,9.532059,-0.0019835331,0.0024418214,0.014500097,8.0,-1.041032,1.2627306,9.669134,-0.005885538,0.036899284,0.17575186,0.064637,-0.053170186,-0.97820425,2017-01-07 23:26:44,62.257402935472626
-1.0198975,1.2454376,9.483032,0.0,0.0,0.0,8.0,-1.0565814,1.2595897,9.667856,-0.04867566,0.033758454,0.18809448,0.06545042,-0.052770056,-0.97771287,2017-01-07 23:26:45,57.407271826456
-1.0002747,1.2454376,9.5516815,-3.5803157E-4,-4.973401E-5,0.0063463664,9.0,-1.0236257,1.2506964,9.672557,-0.043954905,-0.0026939965,0.111007825,0.063481234,-0.052968144,-0.9786669,2017-01-07 23:26:46,44.33418777336745
-1.0591125,1.2062225,9.4339905,0.0,0.0,0.0,9.0,-1.0233308,1.2541211,9.672144,0.025435898,0.041910168,0.26048416,0.06352871,-0.05324531,-0.97892153,2017-01-07 23:26:47,44.53529159994481
-1.039505,1.2356415,9.5451355,5.083356E-4,-9.24212E-4,-0.001293876,9.0,-1.0409296,1.262541,9.669169,-0.0050452813,0.03718702,0.12132368,0.064339094,-0.053545684,-0.9789322,2017-01-07 23:26:48,60.335057786296595
-1.0525818,1.2487183,9.532059,-9.106892E-4,7.07575E-4,0.006887458,9.0,-1.041358,1.2679982,9.66841,-0.006211623,0.028546596,0.13416673,0.064681195,-0.05350765,-0.97813994,2017-01-07 23:26:49,60.88641091434674
-1.0133514,1.261795,9.571289,-7.299453E-4,2.4654955E-4,0.0041016093,9.0,-1.0420858,1.2522345,9.670387,-0.0069393404,-8.374511E-4,0.13614362,0.0642503,-0.053117104,-0.9793489,2017-01-07 23:26:50,46.58081625782057
-1.0133514,1.2356415,9.571289,-5.486943E-4,-5.786843E-4,-2.4643657E-4,11.0,-1.0406533,1.258286,9.669754,-0.01912722,0.0052140392,0.10827029,0.06442524,-0.053151254,-0.97857356,2017-01-07 23:26:51,61.06272472857269
-1.039505,1.2487183,9.584366,4.3915547E-4,8.5454143E-4,0.00588279,13.0,-1.0374094,1.257703,9.670178,-0.0022629572,0.031871665,0.10869427,0.064339034,-0.05312485,-0.9783787,2017-01-07 23:26:52,58.995841229757986
-1.0493164,1.1964111,9.532059,0.0,0.0,0.0,13.0,-1.0210464,1.2730997,9.669907,4.7967164E-4,0.06088868,0.2173852,0.06347761,-0.054138042,-0.97888815,2017-01-07 23:26:53,44.69408411228641
-1.010086,1.255249,9.483032,0.0029558367,-6.8461016E-4,-0.0027412546,12.0,-1.0357252,1.2494955,9.671423,-0.04143985,-0.017196791,0.16442014,0.06417894,-0.052771244,-0.9783761,2017-01-07 23:26:54,58.67156586454897
-1.0264282,1.2748718,9.46669,6.772408E-4,0.0012719466,-0.0042575807,12.0,-1.0396752,1.2554537,9.670227,-0.018149171,-0.011238616,0.20408575,0.06430415,-0.05318678,-0.9789919,2017-01-07 23:26:56,53.04060589329566
-1.0002747,1.2748718,9.518982,-3.867364E-4,-0.0010327643,4.20924E-4,11.0,-1.0406901,1.259279,9.669621,-0.03186907,-0.0075441254,0.13549352,0.06423813,-0.05339945,-0.9790838,2017-01-07 23:26:57,50.77075263645898
-1.0296936,1.2944794,9.512451,0.0,0.0,0.0,11.0,-1.022824,1.2677118,9.670425,-0.0012980023,-0.012600942,0.14980303,0.063670814,-0.05384964,-0.97860414,2017-01-07 23:26:58,48.28826792377123
-0.9904785,1.2160187,9.571289,-0.0014947087,3.9281516E-5,-0.0062900456,11.0,-1.0345864,1.2493643,9.671561,-0.026680697,0.023533007,0.12369793,0.06421961,-0.05244675,-0.9781448,2017-01-07 23:26:59,45.680642490852044
-1.0264282,1.261795,9.492844,-9.1665745E-4,0.004074012,0.0151618775,11.0,-1.0242094,1.2487215,9.6727495,0.038177643,-0.017970853,0.0023027565,0.06361393,-0.052989867,-0.9790176,2017-01-07 23:27:00,51.70331866872378
-1.0264282,1.2487183,9.518997,0.0012594594,-0.0012608019,-0.0072975797,11.0,-1.0439857,1.2585565,9.669359,0.0047810255,0.032725226,0.14873646,0.06473302,-0.053035993,-0.978169,2017-01-07 23:27:01,61.72352371041355
-1.0493164,1.2062225,9.443802,0.0013804698,-0.0019949432,-0.005046264,11.0,-1.0295796,1.2620933,9.670444,0.005566727,0.049882323,0.20430188,0.063709326,-0.053706646,-0.9792342,2017-01-07 23:27:02,46.403237861301776
-1.0296936,1.2160187,9.5811,0.0,0.0,0.0,11.0,-1.0256164,1.2588845,9.671283,-0.01771065,0.046673633,0.20514151,0.06360144,-0.05344788,-0.9789308,2017-01-07 23:27:03,62.98290872376927
-1.0002747,1.255249,9.296707,0.0,0.0,0.0,11.0,-1.0332456,1.250411,9.67157,-0.052923806,0.024813864,0.45052722,0.06413974,-0.05271768,-0.97820455,2017-01-07 23:27:04,62.49020804761362
-1.0264282,1.2487183,9.571289,-2.7068664E-4,-4.7552682E-4,-0.0025821163,11.0,-1.0210793,1.2356645,9.674757,4.4683449E-4,-0.0037871825,0.11327317,0.06309656,-0.05239746,-0.9792372,2017-01-07 23:27:05,47.92511687630296
-1.0133514,1.2356415,9.5451355,-0.0014183505,0.0015412731,0.0077270116,11.0,-1.0417302,1.255729,9.669971,-0.0058893827,0.030437848,0.12211177,0.0643457,-0.05317646,-0.97906786,2017-01-07 23:27:06,58.77497852669777
-1.0264282,1.261795,9.532059,0.0016427471,1.5099764E-4,-0.0070870114,11.0,-1.0367668,1.2651863,9.669272,-0.028861146,0.012114308,0.13502882,0.06426524,-0.05366786,-0.97884625,2017-01-07 23:27:07,44.457235270600144
-1.0656586,1.2748718,9.558212,-1.1518885E-4,9.3947776E-4,0.0046257577,11.0,-1.050641,1.2729805,9.666751,0.0117461365,0.0062881047,0.118887074,0.06525116,-0.05364229,-0.9779745,2017-01-07 23:27:08,46.09114566287205
-1.0133514,1.2879486,9.571289,-0.0021005992,8.5592334E-4,0.011371591,11.0,-1.0370225,1.2658159,9.669162,-0.029116776,-0.014496871,0.09405721,0.06438346,-0.053491794,-0.9783042,2017-01-07 23:27:09,51.05035188727143
-1.0198975,1.2160187,9.492844,0.0,0.0,0.0,11.0,-1.0257895,1.2634356,9.670671,-0.04512457,0.06484504,0.21815,0.06375918,-0.053514723,-0.9786145,2017-01-07 23:27:10,38.6355221709386
-1.0591125,1.2454376,9.54187,0.0020506608,-1.8013353E-4,-0.005897119,11.0,-1.0350171,1.257671,9.67044,-0.013491077,0.00459907,0.0817146,0.06420856,-0.0533362,-0.9786539,2017-01-07 23:27:11,61.529104618914225
-1.0198975,1.2258301,9.532059,-9.2083233E-4,-0.0017788172,-9.298293E-4,11.0,-1.0379326,1.253794,9.67063,-0.03189058,0.042722266,0.13603887,0.06419786,-0.052953444,-0.9786294,2017-01-07 23:27:12,56.875676049415766
-1.010086,1.2160187,9.50264,0.0013676855,8.75252E-4,-0.0059733046,11.0,-1.0395039,1.2665665,9.6687975,-0.0061667324,0.014440549,0.12061456,0.064572565,-0.053547323,-0.9783519,2017-01-07 23:27:13,48.633585169107775
-1.039505,1.261795,9.558212,0.0014393091,-0.001277049,0.0019902077,11.0,-1.0359558,1.2598033,9.670061,-8.09394E-4,0.0067314063,0.1221974,0.064201675,-0.05333005,-0.97853804,2017-01-07 23:27:14,63.36721622086088
-1.039505,1.2094879,9.50592,0.0016194789,0.0014984297,-0.0012066403,11.0,-1.0459638,1.2642827,9.6684,-0.024437692,0.024831008,0.16139664,0.06472908,-0.053577576,-0.97886693,2017-01-07 23:27:15,47.314548404314635
-1.039505,1.2879486,9.518997,-6.891276E-5,-4.778262E-4,-0.007903641,11.0,-1.0547363,1.2602465,9.667973,-0.005969501,-0.020066092,0.120109126,0.06503372,-0.053303175,-0.97907156,2017-01-07 23:27:16,47.40743500742235
-1.0198975,1.255249,9.512451,-7.030049E-4,-0.0010429746,0.0010975773,10.0,-1.0477575,1.2613742,9.668585,-0.053472064,0.021922637,0.14796168,0.06470579,-0.053351466,-0.97884893,2017-01-07 23:27:17,59.15366902384042
-1.039505,1.2356415,9.571289,0.0,0.0,0.0,11.0,-1.0283175,1.2542318,9.6716,0.0068289824,0.028400593,0.1509777,0.06368928,-0.053196788,-0.9790152,2017-01-07 23:27:18,47.3338246304743
-1.039505,1.2356415,9.522263,0.0020359445,-0.001794632,-0.0112735275,11.0,-1.0325094,1.2513343,9.671529,0.002636947,0.025503028,0.1509062,0.06371711,-0.053214528,-0.9794816,2017-01-07 23:27:19,48.518176013893466
-1.039505,1.2487183,9.5451355,9.980938E-5,0.0012535484,0.0051269433,10.0,-1.0437188,1.2436962,9.671312,0.018668331,-0.022996182,0.17792992,0.06458604,-0.052296337,-0.97822946,2017-01-07 23:27:20,61.869798608775106
-1.0198975,1.2160187,9.590912,-0.0012746211,-7.2877953E-4,0.0027563805,11.0,-1.057502,1.254656,9.668397,0.0048850444,0.015204323,0.02519149,0.065389305,-0.052588657,-0.97793823,2017-01-07 23:27:21,59.18582068173304
-1.039505,1.2356415,9.505905,0.001704307,3.431146E-4,0.0013617325,11.0,-1.0526357,1.2471011,9.669907,-0.01755727,0.005658068,0.13591251,0.06497263,-0.05239351,-0.9784381,2017-01-07 23:27:22,56.74726870117552
-1.039505,1.2356415,9.584366,0.0012485315,-4.764116E-4,-0.008889789,11.0,-1.0450431,1.2514063,9.670175,0.0037236903,0.025575042,0.14955115,0.06455543,-0.052865215,-0.9788233,2017-01-07 23:27:23,51.526073215169184
-1.0002747,1.1964111,9.512451,0.0,0.0,0.0,11.0,-1.0286077,1.2360779,9.673906,-0.032386046,0.04882987,0.18102078,0.06350289,-0.05217672,-0.97887284,2017-01-07 23:27:24,60.97968618175912
-1.039505,1.261795,9.518982,0.0032962179,6.6381844E-4,-0.0010620254,11.0,-1.0363772,1.2419971,9.672318,-0.0012307693,0.002545502,0.08359422,0.06394341,-0.052657917,-0.9791999,2017-01-07 23:27:25,47.78364198499398
-1.0264282,1.2487183,9.571289,0.0,0.0,0.0,10.0,-1.0470849,1.2581762,9.669074,-0.037370745,0.017173618,0.10798848,0.06458939,-0.053025853,-0.97862643,2017-01-07 23:27:26,60.02393304679696
-1.039505,1.2356415,9.532059,0.0,0.0,0.0,11.0,-1.0444258,1.2582724,9.66935,-0.009279402,0.03244112,0.13510613,0.0645371,-0.053249575,-0.9788213,2017-01-07 23:27:27,48.535573777776065
-1.039505,1.2356415,9.584366,-5.0683774E-4,0.002237126,0.007715504,11.0,-1.0502911,1.2614608,9.668299,-0.0151445735,0.035629544,0.10681465,0.0653154,-0.052870605,-0.9775281,2017-01-07 23:27:28,50.20376002342825
-1.0525818,1.2356415,9.505905,4.76092E-4,-9.236893E-4,-0.009496546,11.0,-1.0432141,1.2536329,9.670083,-0.008067649,0.027801627,0.16308089,0.06413808,-0.053373545,-0.9799666,2017-01-07 23:27:29,61.742507083151175
-1.0264282,1.2356415,9.571289,-0.0016909458,6.230346E-4,0.005301208,11.0,-1.0536733,1.2572006,9.668486,-0.032147147,0.031369343,0.1070017,0.0651853,-0.052820675,-0.97815704,2017-01-07 23:27:30,54.855255180921475
-1.0493164,1.255249,9.532059,0.0,0.0,0.0,10.0,-1.0267313,1.2463813,9.672785,0.009266101,0.0066883857,0.1386617,0.06354109,-0.052848477,-0.97908133,2017-01-07 23:27:31,36.81744418231878
-1.0264282,1.2356415,9.597443,0.0017499888,-0.001251032,-0.009387463,11.0,-1.044153,1.2533189,9.670022,-0.049867667,0.013867353,0.13577867,0.064562485,-0.052966014,-0.97864413,2017-01-07 23:27:32,60.13691049854469
-1.0296936,1.2258301,9.522263,-5.2128325E-4,-3.4570313E-4,0.0046799863,11.0,-1.0507735,1.2576729,9.668739,-0.029247398,-0.0090194065,0.12087559,0.0649089,-0.05306824,-0.97856754,2017-01-07 23:27:33,61.07547266500963
-1.039505,1.2454376,9.561478,0.0,0.0,0.0,11.0,-1.0359944,1.2415351,9.6724205,-0.014468294,0.029324086,0.09731599,0.06396174,-0.05235168,-0.978805,2017-01-07 23:27:34,64.17760292748906
-1.039505,1.261795,9.492828,5.506441E-4,4.965861E-4,9.184429E-4,12.0,-1.0333478,1.2462842,9.672092,0.0017985608,0.0068326197,0.124228306,0.063913226,-0.05271617,-0.9788361,2017-01-07 23:27:35,60.948472189128424
-1.0296936,1.255249,9.532059,5.7639397E-4,-4.2424703E-4,-0.0025405723,11.0,-1.0546906,1.2540156,9.668788,-0.04678482,0.014564,0.16178569,0.06502878,-0.05291493,-0.97880036,2017-01-07 23:27:36,56.55403732593471
-1.039505,1.261795,9.558212,0.0018895072,-9.1951306E-4,-0.008579726,10.0,-1.0380162,1.2566533,9.670249,-0.0028698207,-0.010039021,0.122386105,0.06436266,-0.053093236,-0.9784171,2017-01-07 23:27:37,63.51686803825456
-1.0656586,1.2487183,9.715118,-7.7325327E-4,-8.0050016E-4,-9.226563E-4,11.0,-1.0439072,1.256334,9.669658,-0.02238111,0.003261996,-7.889227E-4,0.06456257,-0.052842192,-0.9782657,2017-01-07 23:27:38,58.17754435718185
-1.039505,1.2356415,9.561478,0.0,0.0,0.0,11.0,-1.0347944,1.2428957,9.672373,3.5196013E-4,0.030684749,0.12450929,0.06374877,-0.05274257,-0.9795124,2017-01-07 23:27:39,61.010167349464915
-1.039505,1.261795,9.558212,0.0014267042,3.7844607E-4,0.0038133226,10.0,-1.042142,1.2455508,9.671243,-0.006995662,-0.0075212643,0.13699904,0.06417445,-0.052960984,-0.97944313,2017-01-07 23:27:40,53.52232471167578
-1.039505,1.2356415,9.558212,-2.4700494E-5,1.2602363E-4,-0.004254056,10.0,-1.0453129,1.2549778,9.669682,-0.023786766,0.015526252,0.108197965,0.064482994,-0.053159274,-0.9791976,2017-01-07 23:27:41,43.554153593430236
-1.039505,1.261795,9.558212,1.4327334E-4,5.05554E-4,-0.001592026,10.0,-1.048381,1.2630277,9.668301,-0.014038606,0.010013354,0.1339639,0.06499915,-0.05324836,-0.9783361,2017-01-07 23:27:42,46.626923285253135
-1.039505,1.2454376,9.54187,-0.0010532581,-8.6427544E-4,-0.0015243716,11.0,-1.0485857,1.2524823,9.669651,1.8112386E-4,-5.8961374E-4,0.08092568,0.064748235,-0.052622337,-0.9783863,2017-01-07 23:27:43,47.10462243922805
-1.0591125,1.2356415,9.512451,-9.0774556E-4,-2.5157628E-4,0.005194189,11.0,-1.0319309,1.245743,9.672313,-0.02402515,0.019911777,0.17893001,0.06390391,-0.05255141,-0.9784568,2017-01-07 23:27:44,40.954069274950704
-1.0002747,1.261795,9.492844,0.0010346348,2.4111898E-4,9.805146E-4,11.0,-1.0389478,1.2455959,9.671581,-0.0038014187,-0.021096306,0.16457893,0.064072475,-0.05279937,-0.97922915,2017-01-07 23:27:45,42.758185511360054
-1.010086,1.1964111,9.590912,0.0,0.0,0.0,12.0,-1.0473536,1.2639514,9.668292,-0.05306825,0.051740423,0.079567306,0.06484829,-0.05327358,-0.9783566,2017-01-07 23:27:46,45.67827007920847
-1.039505,1.2487183,9.492844,0.0070018945,0.013424289,0.012180404,10.0,-1.063379,1.2828212,9.664057,-0.028232563,0.056990005,0.19791484,0.06611047,-0.05446003,-0.9787405,2017-01-07 23:27:47,56.13165576764512
-1.039505,1.2748718,9.571289,0.0036294435,-0.0020617836,-0.001667238,11.0,-1.0545291,1.2474035,9.669661,-0.033002988,-0.0056684595,0.12179753,0.064952984,-0.05266622,-0.97878844,2017-01-07 23:27:48,48.127370279155954
-1.039505,1.261795,9.5451355,2.5098843E-5,1.1753977E-4,0.0023577383,11.0,-1.0363659,1.2513705,9.671113,-0.0012194426,0.025539191,0.08238797,0.06420328,-0.0528778,-0.978501,2017-01-07 23:27:49,47.30898082177188
-1.0656586,1.3010101,9.571289,5.869438E-4,-9.85148E-4,-0.0069389325,10.0,-1.0430176,1.2599565,9.669282,0.01936955,-0.033976465,0.1077981,0.0642807,-0.053603657,-0.97962505,2017-01-07 23:27:50,54.70155819021222
-1.0133514,1.2748718,9.518982,-7.6861173E-4,1.2423749E-4,0.003352198,10.0,-1.0483638,1.2717247,9.667163,-0.013581484,0.0054874397,0.11920048,0.06482664,-0.05392097,-0.9789677,2017-01-07 23:27:51,50.918584650203016
-1.0493164,1.1669922,9.561478,0.0,0.0,0.0,11.0,-1.0459142,1.2589457,9.669101,-0.038008366,0.046734836,0.17571862,0.06470655,-0.05288951,-0.97862995,2017-01-07 23:27:52,49.36690913396176
-1.0296936,1.2258301,9.5516815,0.0,0.0,0.0,11.0,-1.0337318,1.2471384,9.671941,-0.0122057535,0.021307148,0.124077015,0.0638494,-0.05288942,-0.9791156,2017-01-07 23:27:53,47.26662749265485
-1.0918121,1.2487183,9.479767,4.1012917E-4,9.118817E-4,0.0031854387,11.0,-1.0395011,1.2526635,9.6706085,0.050126728,0.013211857,0.19084698,0.06412835,-0.053187247,-0.9793924,2017-01-07 23:27:54,55.35762245708082
-1.0493164,1.2650604,9.620331,-0.0022948794,-7.146805E-4,0.009578993,11.0,-1.0446298,1.2619929,9.668842,-0.009483387,0.008920999,0.052876946,0.06452843,-0.053400334,-0.978876,2017-01-07 23:27:55,40.52977624858697
-1.039505,1.2487183,9.5451355,6.388034E-4,-8.854545E-4,-0.0070965984,11.0,-1.032038,1.2492301,9.671852,-0.0105119385,0.0097786095,0.1376084,0.063991874,-0.052712645,-0.9783829,2017-01-07 23:27:56,48.8855692634833
-1.010086,1.2258301,9.54187,0.0,0.0,0.0,10.0,-1.0397093,1.2512915,9.670764,0.00905744,0.03908056,0.08203965,0.06416657,-0.052940648,-0.9791137,2017-01-07 23:27:57,53.34872161158544
-1.0198975,1.2258301,9.50264,-8.61509E-6,0.0019513392,0.007108636,11.0,-1.0315058,1.2533221,9.671379,0.0036405583,0.0138705745,0.10989551,0.0640347,-0.05294242,-0.97839874,2017-01-07 23:27:58,56.18769903561262
-1.0002747,1.2160187,9.522263,0.0,0.0,0.0,11.0,-1.0271049,1.2561507,9.671481,-0.032819476,0.057560183,0.15085799,0.06334589,-0.053620156,-0.9798919,2017-01-07 23:27:59,49.21928217463427
-0.9904785,1.1865997,9.463425,-3.131515E-4,6.383428E-4,0.0030410304,11.0,-1.0296917,1.2331806,9.674162,-0.07626738,-0.019891305,0.16715933,0.06374746,-0.05187549,-0.97827816,2017-01-07 23:28:00,40.73007918007277
-1.010086,1.2258301,9.512451,0.0,0.0,0.0,11.0,-1.0214405,1.2389739,9.674296,0.013705973,0.026762893,0.15367366,0.06318828,-0.052569784,-0.97921556,2017-01-07 23:28:01,55.7505788365133
-1.0198975,1.2454376,9.620331,-9.885196E-4,2.0907838E-4,0.006838156,11.0,-1.0336157,1.2495167,9.671646,-0.039330374,0.010065103,0.11016238,0.06403014,-0.052720938,-0.9784402,2017-01-07 23:28:02,51.68617335010857
-1.039505,1.2062225,9.355545,-8.448908E-4,6.847067E-4,-0.0017312914,11.0,-1.0363144,1.241849,9.672346,-0.042029046,0.016017666,0.13810222,0.06379685,-0.05269608,-0.97964394,2017-01-07 23:28:03,42.62096844989735
-0.9904785,1.2062225,9.492844,0.0,0.0,0.0,11.0,-1.0286745,1.2407938,9.673296,-0.0071484167,0.028582964,0.15267359,0.06343454,-0.05264963,-0.9793484,2017-01-07 23:28:04,52.192467667457834
-1.039505,1.2487183,9.532059,0.0011123472,0.0012176639,2.5819827E-4,11.0,-1.0263157,1.2514019,9.67218,0.011931728,-0.01752537,0.11131292,0.06373303,-0.052969653,-0.9785606,2017-01-07 23:28:05,53.515455403740674
-1.0296936,1.255249,9.532059,-7.0713594E-4,2.4490722E-4,-3.6966367E-4,11.0,-1.0394286,1.2532028,9.670547,-0.017902581,1.30829E-4,0.12268289,0.06444574,-0.052680723,-0.9782547,2017-01-07 23:28:06,42.901384862622685
-1.010086,1.255249,9.561478,-0.0011577227,6.15047E-4,0.0017771046,11.0,-1.0291004,1.2595234,9.670829,-0.007574365,0.020071806,0.10934518,0.063831,-0.053370535,-0.9787734,2017-01-07 23:28:07,54.21405038757215
-1.010086,1.2258301,9.50264,0.0010800952,-7.22332E-4,-0.008697264,11.0,-1.0358999,1.2556059,9.670613,-0.014373835,0.04339501,0.19085112,0.06433263,-0.052902233,-0.9780928,2017-01-07 23:28:08,57.79624167330844
-1.0656586,1.2748718,9.5451355,0.0028425267,-0.0013075381,-0.01018667,11.0,-1.0471226,1.2641912,9.668285,-0.0391931,0.008540774,0.21610415,0.06483919,-0.05344172,-0.9785367,2017-01-07 23:28:09,45.25568696249442
-1.039505,1.2748718,9.597443,-5.534028E-4,-6.61127E-4,0.005274489,11.0,-1.0472847,1.2718816,9.667259,-0.012138311,0.0051892037,0.09215515,0.064966045,-0.053693507,-0.9782039,2017-01-07 23:28:10,54.54010445282026
-1.0002747,1.2454376,9.571289,4.0169558E-4,-0.002565362,-0.0089244135,11.0,-1.0377091,1.2801832,9.667197,-0.029803446,0.040731564,0.16019453,0.06431459,-0.054467235,-0.9790357,2017-01-07 23:28:11,48.02739855271027
-1.0264282,1.2748718,9.610519,4.5527422E-4,7.3926366E-4,0.0057423133,11.0,-1.0185292,1.2522506,9.672893,0.0029174138,-0.016220925,0.043528747,0.06322452,-0.053146277,-0.9788031,2017-01-07 23:28:12,55.09855419858509
-1.0525818,1.2487183,9.518982,-0.0,-0.0,-0.0,11.0,-1.0376275,1.2654526,9.669145,0.024759725,0.03962134,0.12128128,0.06452227,-0.053364206,-0.9779924,2017-01-07 23:28:13,59.32542133617424
-1.0002747,1.2258301,9.50264,0.0,0.0,0.0,11.0,-1.0286546,1.2641432,9.670274,-0.047989506,0.051932357,0.13603055,0.06373857,-0.053354748,-0.97853297,2017-01-07 23:28:14,42.17476322059522
-1.010086,1.2356415,9.512451,8.1835105E-4,-0.0027639375,-0.01568369,11.0,-1.0270667,1.244957,9.672933,-0.019160992,0.005505313,0.15230948,0.06345506,-0.05272199,-0.97903293,2017-01-07 23:28:15,48.75635780537423
-1.0198975,1.2650604,9.590912,-0.002123588,0.0016819537,0.012862228,11.0,-1.0396949,1.2549678,9.670288,-0.01816881,0.02913652,0.054322608,0.0643962,-0.052903965,-0.97840726,2017-01-07 23:28:16,43.34359157811821
-1.0002747,1.255249,9.561478,0.0,0.0,0.0,11.0,-1.0439991,1.2527733,9.670109,-0.02247297,0.026942044,0.16310665,0.064849935,-0.05251407,-0.9777564,2017-01-07 23:28:17,59.2340846961565
-1.0296936,1.2454376,9.54187,0.0,0.0,0.0,11.0,-1.0366056,1.2453418,9.6718645,-0.0150795225,0.033130806,0.124001354,0.06383466,-0.052896634,-0.97960466,2017-01-07 23:28:18,47.29728611373483
-1.010086,1.2356415,9.522263,-4.656062E-4,-9.598461E-4,-5.0522346E-4,10.0,-1.0410455,1.2483035,9.671005,-0.033139847,0.008851896,0.13676213,0.06437738,-0.052507617,-0.9782216,2017-01-07 23:28:19,41.92212829890944
-1.0296936,1.2356415,9.522263,7.781875E-5,0.0018204227,0.0034650832,10.0,-1.0420592,1.2526535,9.670334,-0.03415343,0.013201882,0.14971076,0.064442046,-0.05297693,-0.9788752,2017-01-07 23:28:20,55.57822126637156
-1.0296936,1.2160187,9.5516815,0.0,0.0,0.0,10.0,-1.0334255,1.2431971,9.672481,0.0017209364,0.017365756,0.12461737,0.06377399,-0.052668523,-0.9791626,2017-01-07 23:28:21,45.423658459075455
-1.039505,1.2356415,9.561478,0.0,0.0,0.0,10.0,-1.0313569,1.2422436,9.672825,-0.037071574,0.016412336,0.13858105,0.06383883,-0.052400522,-0.9784092,2017-01-07 23:28:22,44.57662234966617
-0.9806671,1.2454376,9.522263,-6.359815E-4,-8.8372134E-4,-0.0067962,10.0,-1.0229287,1.234651,9.674691,-0.015022992,0.036060378,0.14044736,0.06341499,-0.051937107,-0.97830623,2017-01-07 23:28:23,44.348141566016245
-1.0264282,1.2487183,9.518982,0.0012438135,0.0010477925,-9.1565284E-4,11.0,-1.038591,1.2583814,9.669964,-0.030685268,0.005309433,0.14934082,0.064223796,-0.053473007,-0.97924274,2017-01-07 23:28:24,61.18577709945892
-1.0264282,1.261795,9.5451355,-0.0012125864,0.0013004289,0.008890782,11.0,-1.03464,1.2658355,9.669414,0.014126829,0.040004265,0.06706924,0.06446051,-0.05331201,-0.9777583,2017-01-07 23:28:25,50.91926841114617
-0.9871979,1.2487183,9.571289,8.340116E-4,-0.0035712412,-0.006229056,11.0,-1.0437207,1.2512314,9.67034,-0.063055724,0.011779805,0.108855546,0.064319104,-0.05286522,-0.9787207,2017-01-07 23:28:26,61.71757156602878
-1.0133514,1.3010101,9.558212,-0.0016650439,0.0036831757,0.0120247165,10.0,-1.0246669,1.2631048,9.670834,-0.016761178,-0.0035875614,0.13659003,0.0637415,-0.053595036,-0.9788205,2017-01-07 23:28:27,54.631226772141076
-1.0493164,1.2454376,9.532059,0.0,0.0,0.0,10.0,-1.0454528,1.2681948,9.667942,-0.037547193,0.042363547,0.024735928,0.06465676,-0.053866226,-0.97910494,2017-01-07 23:28:28,55.47662444313245
-0.9610443,1.1964111,9.247665,1.0995088E-5,-0.0014176625,2.8306924E-4,11.0,-1.0417733,1.2461622,9.671203,-0.033867564,0.0067105195,0.20506172,0.06446294,-0.052379217,-0.9780418,2017-01-07 23:28:29,57.54240205799512
-1.0656586,1.2748718,9.571289,-0.0013984842,0.0011558726,-9.6134807E-4,11.0,-1.0262783,1.2630196,9.670674,0.008868107,0.03718827,0.12281008,0.06396019,-0.053354543,-0.978605,2017-01-07 23:28:30,56.64808243103421
-1.0296936,1.2258301,9.522263,4.1381997E-4,-0.002157242,0.002220016,11.0,-1.049553,1.2727427,9.6669,-0.014406568,0.033291146,0.13265623,0.06472542,-0.05407921,-0.9791385,2017-01-07 23:28:31,45.787091994590085
-1.0002747,1.2356415,9.532059,0.0,0.0,0.0,11.0,-1.0307992,1.2633983,9.670144,-0.03651386,0.037566938,0.14952122,0.064014584,-0.05350029,-0.9784906,2017-01-07 23:28:32,46.5957694331733
-1.0133514,1.261795,9.532059,7.374928E-4,3.883365E-4,8.3584874E-4,11.0,-1.0330408,1.2654318,9.669639,-0.02513496,-0.001260593,0.13539544,0.064158574,-0.05366041,-0.9785731,2017-01-07 23:28:33,51.94106588973524
-0.9904785,1.255249,9.5811,-8.217422E-4,-0.0023947973,-0.013886649,11.0,-1.0412756,1.2713269,9.667982,-0.060610607,0.031875305,0.1337386,0.064726025,-0.053449154,-0.97784114,2017-01-07 23:28:34,48.997189249865336
-1.039505,1.2356415,9.522263,0.0,0.0,0.0,11.0,-1.038841,1.2576638,9.670031,-0.044555638,0.031832594,0.17664802,0.064177856,-0.05337953,-0.9792018,2017-01-07 23:28:35,45.07420347352594
-1.039505,1.2650604,9.50264,3.2684206E-5,-0.0010107869,-0.002834427,10.0,-1.0209966,1.2419001,9.673967,5.2955083E-4,-0.024792146,0.09886307,0.06311137,-0.052748106,-0.97925997,2017-01-07 23:28:36,53.01409168226699
-1.0296936,1.2748718,9.522263,-0.0015317735,-3.5855293E-4,0.0026978736,11.0,-1.0268122,1.2544472,9.671733,-0.0189064,0.0149956625,0.16473022,0.06359425,-0.053127736,-0.97884905,2017-01-07 23:28:37,54.40043982205299
-1.0296936,1.2160187,9.5516815,0.0,0.0,0.0,11.0,-1.0372838,1.2588292,9.670046,-0.042998366,0.032998003,0.13580278,0.06413498,-0.05339059,-0.97912496,2017-01-07 23:28:38,42.992753897115904
-1.039505,1.255249,9.620331,5.5660188E-5,0.0024042374,0.0067653786,11.0,-1.0394526,1.238227,9.672472,-0.031546827,-0.014844986,0.1654701,0.06438667,-0.05199131,-0.978067,2017-01-07 23:28:39,54.61595587530867
-0.9904785,1.255249,9.600708,-3.428322E-4,-2.5918562E-4,-7.155145E-4,11.0,-1.0418614,1.2477572,9.670989,-0.020335438,-0.005314733,0.05502341,0.064313434,-0.052731544,-0.9789178,2017-01-07 23:28:40,53.71911379576899
-1.039505,1.2487183,9.5451355,0.0,0.0,0.0,11.0,-1.0463233,1.2397709,9.671534,0.0024434575,0.013939679,0.13729084,0.06464838,-0.05212135,-0.97839236,2017-01-07 23:28:41,56.83243154797631
-1.0525818,1.2356415,9.518982,0.0014540796,-7.91333E-4,-0.008424257,11.0,-1.0449421,1.2550951,9.669707,0.0038245916,0.042884164,0.1354636,0.064532734,-0.053135395,-0.97901887,2017-01-07 23:28:42,23.97646760914497
-1.068924,1.2454376,9.532059,8.9814106E-4,-9.696513E-4,0.0038695286,11.0,-1.0340296,1.245147,9.672166,-0.012503469,-0.007924974,0.15154299,0.06373149,-0.05289516,-0.9793209,2017-01-07 23:28:43,52.0343825584507
-1.0296936,1.2650604,9.522263,0.0011353786,-0.001537647,-0.015362403,8.0,-1.037447,1.2475643,9.671489,0.02494012,0.021733096,0.13724512,0.06418028,-0.052671805,-0.9787493,2017-01-07 23:28:44,50.60896523962943
-1.0198975,1.2356415,9.522263,-3.6788344E-5,6.827028E-4,0.008647157,8.0,-1.0436761,1.2607983,9.669102,-0.022150107,0.0077263927,0.14847875,0.06458871,-0.053337023,-0.97861093,2017-01-07 23:28:45,59.03195476071182
-1.039505,1.2487183,9.5451355,-0.0010063773,7.614131E-4,-7.0531585E-4,8.0,-1.0464398,1.2531394,9.669797,-0.011293378,0.040928483,0.12193386,0.06468948,-0.052827165,-0.9786549,2017-01-07 23:28:46,50.44134960310405
-1.0264282,1.2487183,9.532059,0.0010348271,-3.3209476E-4,-9.5334236E-4,8.0,-1.0460002,1.2598792,9.66897,-0.010853819,0.0068072644,0.1483474,0.06456732,-0.05342899,-0.9791259,2017-01-07 23:28:47,57.215476755311784
-1.0493164,1.1964111,9.522263,0.0,0.0,0.0,8.0,-1.0337892,1.2549962,9.670918,-0.02588346,0.05640558,0.12305448,0.06396422,-0.053076003,-0.97890073,2017-01-07 23:28:48,37.530029420978174
-1.0002747,1.255249,9.620331,0.0,0.0,0.0,8.0,-1.0375893,1.237449,9.672772,-0.08416492,0.011617801,0.17938972,0.06368024,-0.052528188,-0.97973615,2017-01-07 23:28:49,57.78791526903809
-0.95124817,1.255249,9.5516815,-2.9597146E-4,0.001879411,0.0018294634,8.0,-1.0222542,1.2516046,9.672584,-0.027968932,-0.0014673837,0.09747975,0.06354809,-0.05294521,-0.9785225,2017-01-07 23:28:50,31.5608705126296
-1.039505,1.261795,9.584366,0.0019886948,1.2894583E-4,-0.0042804186,8.0,-1.024593,1.2712548,9.669773,0.0105534,0.01818284,0.053808022,0.06380231,-0.053995643,-0.978552,2017-01-07 23:28:51,51.575745184073455
-1.0296936,1.2258301,9.54187,0.0,0.0,0.0,8.0,-1.0414133,1.2417896,9.671804,-0.019887254,0.029578678,0.15118137,0.064240545,-0.052307274,-0.9788701,2017-01-07 23:28:52,50.248989845745776
-1.0002747,1.2356415,9.54187,0.0,0.0,0.0,8.0,-1.0274282,1.2437801,9.673045,-0.046763103,0.017948927,0.13880135,0.06354855,-0.05271862,-0.9789578,2017-01-07 23:28:53,53.60585308331592
-1.0591125,1.2258301,9.610519,0.0,0.0,0.0,8.0,-1.0305314,1.2413303,9.67303,-0.022625724,0.0154990265,0.13878639,0.063788906,-0.05229717,-0.97848034,2017-01-07 23:28:54,44.17868473382385
-1.010086,1.2356415,9.50264,-3.695322E-4,2.5673336E-5,0.006454701,8.0,-1.0136833,1.2535368,9.673236,0.007842777,4.648118E-4,0.16623324,0.06290644,-0.05333202,-0.9790658,2017-01-07 23:28:55,58.39504671449545
-1.039505,1.2454376,9.561478,-0.0010303983,1.9989708E-4,0.0019429427,8.0,-1.0392766,1.2575283,9.67,-0.004130206,0.004456291,0.1493774,0.06444867,-0.053020902,-0.9782675,2017-01-07 23:28:56,43.029433656963825
-1.0296936,1.2454376,9.659546,-9.685527E-4,-0.0031562238,-0.011931836,8.0,-1.025781,1.2495329,9.672478,0.022985792,-0.017159276,-0.011589433,0.06352034,-0.052856006,-0.9787691,2017-01-07 23:28:57,51.31736276526748
-1.0264282,1.261795,9.532059,0.0,0.0,0.0,8.0,-1.0401216,1.2539308,9.670378,-0.0049751387,0.014479101,0.16337517,0.064390995,-0.053109102,-0.97877884,2017-01-07 23:28:58,53.99299034977464
-1.0133514,1.2356415,9.518997,-2.6326175E-4,2.820717E-4,7.4013555E-4,8.0,-1.0431684,1.2641047,9.668725,-0.021642378,0.038273454,0.12086146,0.06463578,-0.053421486,-0.97854084,2017-01-07 23:28:59,54.46161161385892
-1.0002747,1.2160187,9.473221,0.0013126187,9.27524E-5,-0.00923865,9.0,-1.0499969,1.2677523,9.667508,-0.0148504935,0.028300732,0.16050546,0.065209284,-0.053376865,-0.9780463,2017-01-07 23:29:00,45.337181864757994
-1.0133514,1.2356415,9.571289,2.970626E-4,-9.2221954E-4,0.0052559343,9.0,-1.0216348,1.2569258,9.671959,0.027132,0.0038537919,0.13771565,0.06346079,-0.053294968,-0.9784464,2017-01-07 23:29:01,44.42275802669934
-1.0264282,1.2487183,9.872025,0.0,0.0,0.0,11.0,-1.04499,1.2645376,9.668471,-0.023463903,0.06594695,0.1478486,0.06467389,-0.05322453,-0.9784246,2017-01-07 23:29:02,50.27218951459231
-1.0656586,1.2487183,9.688965,0.001567948,-9.093546E-4,-9.646782E-4,11.0,-1.0383836,1.2574481,9.670108,0.0103830835,0.0043760687,0.026901515,0.06422475,-0.0533276,-0.97885066,2017-01-07 23:29:03,56.513085250219305
-1.0264282,1.2748718,9.584366,0.0013816077,-8.8009005E-4,-0.0026589497,11.0,-1.0403787,1.263667,9.669083,-0.005232328,0.024215417,0.10759858,0.064503275,-0.053458788,-0.978435,2017-01-07 23:29:04,53.54789808353834
-1.0525818,1.2487183,9.479767,0.0017828034,-4.4990765E-4,-0.012496311,12.0,-1.0500454,1.2707368,9.6671095,0.012341778,0.031285275,0.1737276,0.06503237,-0.053812057,-0.9787919,2017-01-07 23:29:05,47.56327501862573
-1.0198975,1.2650604,9.522263,-0.0021723884,-0.003967688,0.0019803345,12.0,-1.0321828,1.2505027,9.671672,-0.024277143,-0.0025692985,0.15104835,0.063794784,-0.0526979,-0.9783562,2017-01-07 23:29:06,50.1394263517045
-1.0002747,1.2487183,9.584366,1.5143963E-4,0.0025156704,0.004638466,12.0,-1.0410782,1.2615099,9.669288,-0.046792824,0.008437898,0.10780392,0.06468148,-0.053239595,-0.97824794,2017-01-07 23:29:07,59.742777263022504
-1.0264282,1.2356415,9.558212,2.5523617E-4,0.0011000242,0.0017043577,12.0,-1.0367832,1.2589731,9.670081,-0.0016368692,0.019521473,0.108597,0.064497896,-0.053034075,-0.9779366,2017-01-07 23:29:08,52.12213575813995
-1.039505,1.2356415,9.532059,4.3885046E-4,4.6774498E-4,9.909438E-4,12.0,-1.0475848,1.26069,9.668693,-0.026058767,0.034858704,0.20255113,0.06481109,-0.053273268,-0.97864586,2017-01-07 23:29:09,46.677188184920375
-0.9904785,1.2258301,9.639938,4.1015085E-4,2.1670092E-4,0.005281233,12.0,-1.0513427,1.2569573,9.668772,0.011044398,-0.023355313,-0.30132276,0.06520085,-0.052717227,-0.9775845,2017-01-07 23:29:10,55.90669265560414
-1.0525818,1.261795,9.571289,0.002152187,-0.0013897816,-0.009241079,12.0,-1.0135362,1.2513279,9.673536,0.035230614,-0.0017441094,0.1120528,0.06296376,-0.05324499,-0.97897047,2017-01-07 23:29:11,56.44653158106709
-1.0264282,1.2356415,9.558212,-0.0014525574,7.7486585E-4,0.009701924,9.0,-1.0418144,1.2572854,9.66976,-0.020288365,0.004213338,0.108276114,0.06415913,-0.053459335,-0.979643,2017-01-07 23:29:12,46.516852971750595
-1.0296936,1.2748718,9.590912,-0.0014225905,-4.7220386E-4,0.004704977,7.0,-1.0308839,1.2492677,9.67197,-0.0502189,-0.031045023,0.12410611,0.063700855,-0.05288375,-0.97890556,2017-01-07 23:29:13,41.59306896958437
-1.0002747,1.2454376,9.5811,-2.954496E-4,-5.397644E-4,-0.010238124,9.0,-1.0219995,1.2567027,9.671949,-0.014093785,0.0036306866,0.1104658,0.06331597,-0.053422626,-0.97931516,2017-01-07 23:29:14,54.463997035176064
-1.0002747,1.2454376,9.326126,3.7996736E-4,-3.5260344E-4,0.0013495598,9.0,-1.0124829,1.26005,9.672515,-0.018197492,0.020598447,0.056549713,0.06287398,-0.053720336,-0.979227,2017-01-07 23:29:15,47.363933147825094
-1.0296936,1.2356415,9.54187,-0.0013588683,0.0013916903,0.004538746,9.0,-1.0308169,1.2566184,9.671025,-0.009290833,0.030787105,0.13678208,0.06397957,-0.053078283,-0.978532,2017-01-07 23:29:16,49.69878996310921
-1.039505,1.2748718,9.571289,0.0029108063,-1.1586911E-4,-0.0036208583,9.0,-1.0376877,1.2613217,9.669678,-0.0025412415,-0.0053706393,0.10819381,0.06429958,-0.053554676,-0.9787897,2017-01-07 23:29:17,58.69688298261299
-1.0002747,1.2650604,9.600708,6.0004607E-4,-0.0020601994,-0.011726772,9.0,-1.0393461,1.2803026,9.667006,-0.04506066,0.027230615,0.07828042,0.06466457,-0.054105256,-0.97805756,2017-01-07 23:29:18,53.15908453209073
-1.010086,1.1964111,9.4339905,1.1263694E-4,-0.0012200117,7.6739857E-4,9.0,-1.020124,1.2524804,9.672695,0.0014021251,0.0130287595,0.13845137,0.063306004,-0.053097203,-0.97869575,2017-01-07 23:29:19,62.294185333302536
-1.0296936,1.2356415,9.522263,-5.763934E-4,0.0017752855,0.011646643,9.0,-1.012537,1.2459953,9.67433,-0.0046312837,0.0065437355,0.09922553,0.06288326,-0.05288394,-0.97882724,2017-01-07 23:29:20,45.944751238601455
-1.010086,1.284668,9.5516815,1.7432703E-4,0.0028139974,0.0076766973,8.0,-1.0185583,1.2715852,9.670367,-0.010652535,0.004892838,0.09526346,0.063560866,-0.0540266,-0.9784758,2017-01-07 23:29:21,44.47685004456176
-1.0656586,1.261795,9.688965,0.0,0.0,0.0,8.0,-1.020165,1.2686077,9.6705885,0.042222224,0.015535813,1.4215572E-4,0.06358389,-0.05370697,-0.9782316,2017-01-07 23:29:22,45.581687412452716
-1.0133514,1.261795,9.558212,2.703592E-4,-1.631382E-5,0.0026255213,8.0,-1.0326709,1.265595,9.669657,0.0024755672,0.0397637,0.121793374,0.064021915,-0.053731773,-0.9788436,2017-01-07 23:29:23,52.8602246841609
-1.068924,1.2356415,9.5516815,6.4763054E-4,-0.0021867466,-0.0024383331,9.0,-1.0366935,1.2668076,9.669067,-0.015167434,0.040976282,0.080342926,0.064168714,-0.053749587,-0.9788079,2017-01-07 23:29:24,39.295831388768185
-1.0198975,1.255249,9.5516815,-2.491571E-4,3.086463E-4,0.005769138,9.0,-1.0267211,1.2511607,9.672169,-0.046056066,0.02532949,0.11068445,0.063619085,-0.05299471,-0.97870475,2017-01-07 23:29:25,46.13499785986634
-1.0296936,1.2650604,9.5811,0.0013323282,9.398958E-4,0.0045856684,9.0,-1.0221957,1.2660043,9.670716,-0.027910322,0.012932326,0.15009317,0.06371794,-0.053717673,-0.97826123,2017-01-07 23:29:26,41.63902401165389
-1.0002747,1.2748718,9.54187,5.0265713E-5,-0.0029516886,-0.0072999257,9.0,-1.015536,1.2593242,9.672289,-0.034870967,0.0062522544,0.13804568,0.0629263,-0.05359368,-0.97906995,2017-01-07 23:29:27,38.52865751670179
-1.0264282,1.261795,9.558212,-3.0249203E-4,3.984303E-4,-0.003882853,8.0,-1.0127,1.2750454,9.6705265,-0.01841457,0.008353104,0.14990363,0.06319411,-0.05430995,-0.9788094,2017-01-07 23:29:28,50.923708552885934
-1.0002747,1.2258301,9.532059,0.0,0.0,0.0,9.0,-1.0209402,1.2646568,9.671024,-0.02665482,0.025205206,0.12316089,0.06343312,-0.053779688,-0.97879654,2017-01-07 23:29:29,43.73673573796932
-1.0264282,1.2748718,9.558212,0.0010583668,0.0013091026,-0.0047394163,9.0,-1.0238235,1.2659894,9.670546,-0.029538153,-7.028811E-4,0.12268205,0.06386951,-0.053630296,-0.9782879,2017-01-07 23:29:31,55.466275785626394
-1.010086,1.2454376,9.600708,0.0,0.0,0.0,9.0,-1.0350578,1.2644916,9.669545,-0.013531707,0.05228068,0.12168197,0.06419928,-0.053441294,-0.978509,2017-01-07 23:29:32,55.6326378491599
-1.0493164,1.255249,9.532059,4.6422362E-4,-7.531488E-4,0.003325762,9.0,-0.9990536,1.2613695,9.673739,0.02247245,0.0355381,0.19397771,0.061985735,-0.05417774,-0.9798787,2017-01-07 23:29:33,51.11545634354943
-1.0264282,1.2748718,9.597443,4.142675E-4,0.0024279593,0.010001807,9.0,-1.0322369,1.2567747,9.670853,0.0029095162,-0.037158344,0.095748946,0.06409395,-0.05326949,-0.97859496,2017-01-07 23:29:34,55.04339262883805
-1.010086,1.2258301,9.463425,-3.2693386E-4,-7.3313207E-4,-0.0023718518,4.0,-1.0287498,1.2578578,9.671083,-0.03446445,0.0047858055,0.13684027,0.0637842,-0.053249616,-0.9786319,2017-01-07 23:29:35,38.31844588947562
-1.0198975,1.2356415,9.571289,-0.0017178158,5.545379E-4,0.002808621,7.0,-1.0178897,1.2642064,9.671404,-0.023604399,0.024754839,0.10992046,0.06333724,-0.05360401,-0.97867155,2017-01-07 23:29:36,51.15363987920266
-1.0198975,1.2454376,9.522263,0.0,0.0,0.0,12.0,-1.0379915,1.259017,9.669946,-0.04370613,0.033185776,0.3127667,0.064359,-0.05322925,-0.9785329,2017-01-07 23:29:37,27.129617036173862
-1.0198975,1.2356415,9.522263,5.3048437E-4,-0.001464894,-0.0021305855,12.0,-1.028947,1.2544147,9.671511,-0.021041334,0.028583381,0.110026866,0.063748054,-0.05311797,-0.97864085,2017-01-07 23:29:38,38.74272181851716
-1.0002747,1.255249,9.5516815,0.0,0.0,0.0,12.0,-1.0216708,1.2511715,9.672703,-0.0137651,0.06620124,0.20656058,0.06351242,-0.052892007,-0.9783672,2017-01-07 23:29:39,50.11024704296513
-1.0264282,1.261795,9.5451355,0.0,0.0,0.0,13.0,-1.020981,1.2398748,9.674229,-0.026695557,0.04128429,0.19446738,0.063335426,-0.05226111,-0.97831863,2017-01-07 23:29:40,58.735896790358524
-1.0198975,1.2258301,9.610519,0.002612055,4.3443698E-4,-0.008427092,12.0,-1.0350115,1.262083,9.669866,-0.040726162,0.02263144,0.0130392555,0.06426251,-0.053425718,-0.978507,2017-01-07 23:29:41,43.323494877662334
-1.039505,1.1768036,9.483032,0.0,0.0,0.0,11.0,-1.0243732,1.251664,9.672351,-0.016467411,0.053073443,0.2743115,0.06340605,-0.053144585,-0.9791938,2017-01-07 23:29:42,57.9075871435502
-1.0133514,1.2487183,9.571289,0.0035188214,1.391063E-5,-0.0029185398,12.0,-1.0391005,1.2545801,9.670403,-0.003954174,-0.012112229,0.09529837,0.064419106,-0.053118873,-0.9784528,2017-01-07 23:29:43,58.109014530466595
-0.9904785,1.2258301,9.64975,0.003987235,9.197905E-4,-0.007648313,12.0,-1.0462786,1.275584,9.666881,-0.092854194,0.04975274,-0.030806227,0.06477007,-0.054442413,-0.979358,2017-01-07 23:29:44,52.55633025931131
-1.0525818,1.2748718,9.532059,0.0020924134,8.429341E-4,0.004312555,12.0,-1.0244844,1.2748781,9.669308,-0.0029583564,0.021806147,0.12144422,0.06377466,-0.054366067,-0.9787977,2017-01-07 23:29:45,50.844734782732615
-1.0296936,1.2356415,9.5516815,-0.0010601729,1.6780042E-4,0.0035750973,15.0,-1.0571475,1.2726264,9.666088,-0.049241785,0.019554414,0.15908556,0.06538484,-0.053732097,-0.97852093,2017-01-07 23:29:46,47.00469853225832
-1.0296936,1.2650604,9.54187,0.0,0.0,0.0,14.0,-1.0282979,1.2506856,9.672062,-0.020392178,0.024854286,0.16505943,0.06341906,-0.053226076,-0.9796313,2017-01-07 23:29:47,49.82795180418735
-1.0198975,1.2650604,9.54187,0.0,0.0,-0.0,11.0,-1.0184311,1.2560725,9.672409,0.016715351,0.03024124,0.15178573,0.06327435,-0.05327809,-0.97870755,2017-01-07 23:29:48,54.1932619841793
-1.0198975,1.2356415,9.5516815,0.0,0.0,0.0,10.0,-1.0179794,1.2291273,9.675917,-0.06455501,0.030536776,0.15529308,0.06279888,-0.052068006,-0.9793651,2017-01-07 23:29:49,42.85113317931185
-1.010086,1.255249,9.532059,0.001218034,6.5968576E-4,0.0031503397,10.0,-1.018166,1.2370942,9.674882,-0.010260255,-0.0023575197,0.113397874,0.06304072,-0.052437436,-0.9789603,2017-01-07 23:29:50,51.04114597569155
-1.010086,1.2356415,9.5516815,-0.0018998256,3.603698E-4,0.006310791,11.0,-1.0131123,1.2343235,9.675766,-0.032447252,-0.01874845,0.1551426,0.06270985,-0.052300528,-0.97904587,2017-01-07 23:29:51,39.40933500375123
-1.0525818,1.2094879,9.5451355,0.0013993734,0.0016743834,-0.009739742,11.0,-1.0568497,1.2406788,9.670273,-0.035323724,0.042088173,0.12240939,0.064852715,-0.052541744,-0.9796769,2017-01-07 23:29:52,39.74541243406663
-1.0525818,1.2094879,9.558212,4.7251172E-4,-0.0024928926,-0.00692118,11.0,-1.0328293,1.257918,9.67064,0.015937444,0.03208677,0.15001751,0.06374062,-0.053482346,-0.97938997,2017-01-07 23:29:53,56.794508202595104
-1.0002747,1.2356415,9.558212,0.0017729033,-7.237521E-4,-0.0071672983,11.0,-1.0356258,1.2538844,9.670866,-0.027720055,0.014432754,0.13662246,0.064130895,-0.053082712,-0.9787179,2017-01-07 23:29:54,60.11053802073201
-1.039505,1.2062225,9.522263,0.0010907837,-0.0018244355,-0.0046106945,8.0,-1.0337447,1.254907,9.670935,-0.012218638,0.0018350352,0.068589725,0.063902214,-0.05324715,-0.9790765,2017-01-07 23:29:55,51.30899477280208
-1.0002747,1.2225647,9.597443,7.7120133E-4,2.867651E-4,0.0033416229,7.0,-1.038921,1.2620047,9.6694565,-0.017394956,0.049793784,0.13521338,0.06429205,-0.053540636,-0.97889924,2017-01-07 23:29:56,39.79306368691981
-0.9871979,1.2487183,9.584366,0.0031333996,4.4269833E-5,-0.008466944,4.0,-1.0370706,1.2657111,9.66917,-0.02916489,0.012639182,0.12130705,0.06438534,-0.05372381,-0.9786483,2017-01-07 23:29:57,48.03211105109924
-0.9904785,1.284668,9.257477,-5.2498706E-4,-0.0013057069,0.0031405329,6.0,-1.0321927,1.2765652,9.668265,-0.037907362,0.00987286,0.18850347,0.064022645,-0.054269973,-0.9787899,2017-01-07 23:29:58,37.78656125735037
-1.0002747,1.261795,9.532059,-0.0011488281,2.3029944E-4,1.4317957E-4,5.0,-1.0299841,1.2641406,9.670134,-0.022078406,0.051929653,0.1767511,0.06400531,-0.053452525,-0.9784358,2017-01-07 23:29:59,56.41725766838735
-1.0133514,1.2487183,9.571289,-6.4731285E-4,-3.8962578E-4,3.5475323E-4,5.0,-1.0254107,1.2749175,9.669205,-0.017504899,0.035465777,0.094100446,0.06361539,-0.054307424,-0.9792159,2017-01-07 23:30:00,48.0763001959745
-1.010086,1.255249,9.532059,0.0,0.0,0.0,5.0,-1.0228666,1.2778659,9.669085,-0.0013405036,0.06565506,0.16208246,0.063180566,-0.054810055,-0.9800629,2017-01-07 23:30:01,34.72560521744741
-1.0002747,1.2748718,9.522263,0.0,0.0,0.0,5.0,-1.0095661,1.2622738,9.672531,-0.02890105,0.036442474,0.12466724,0.062764086,-0.05384157,-0.9791735,2017-01-07 23:30:02,40.64891443342829
-1.0296936,1.255249,9.50264,7.813736E-4,0.001062847,0.004758503,5.0,-1.0222491,1.246037,9.673303,-0.014343387,-0.007034942,0.111818366,0.06352167,-0.05263916,-0.97827536,2017-01-07 23:30:03,50.01243458086166
-1.0002747,1.2356415,9.512451,-0.0025837943,0.0014432207,0.0070541953,5.0,-1.0181974,1.2625585,9.671587,-0.010291742,0.0094864005,0.1509644,0.06336536,-0.053547017,-0.97862923,2017-01-07 23:30:04,54.821257404871474
-0.9904785,1.255249,9.590912,0.0014547257,-8.391793E-4,-0.0063539976,6.0,-1.0259694,1.25849,9.671296,-0.0316841,0.019038372,0.13705309,0.063377656,-0.053735357,-0.97976017,2017-01-07 23:30:05,51.23303413278484
-1.0133514,1.2356415,9.42746,4.5987454E-4,0.0029309045,0.0076209554,5.0,-1.0217868,1.2533981,9.672401,-0.02750142,3.2608528E-4,0.20625964,0.06316292,-0.053534035,-0.97981495,2017-01-07 23:30:06,42.269670853245785
-1.0002747,1.2748718,9.532059,5.2526343E-4,2.5929481E-4,-0.0025736329,5.0,-1.0287201,1.2700598,9.669493,-0.0071940357,0.016987922,0.14886945,0.06378492,-0.054177657,-0.97939247,2017-01-07 23:30:07,62.098674481383526
-1.0133514,1.2487183,9.505905,0.0,0.0,0.0,5.0,-1.0265656,1.2654061,9.670331,-0.005039462,0.039574884,0.2450507,0.06369979,-0.053783733,-0.97895324,2017-01-07 23:30:08,55.714552883783675
-1.0002747,1.2258301,9.512451,-0.0011248617,9.0377167E-4,0.009911554,6.0,-1.0336843,1.2735946,9.668498,-0.03939896,0.02052259,0.1478752,0.0642363,-0.05396878,-0.97847766,2017-01-07 23:30:09,58.22283198748531
-1.0198975,1.2160187,9.473221,0.0013889949,-0.0011010536,-0.0032850897,5.0,-1.006579,1.2659974,9.672355,-0.025914012,0.026545815,0.21983427,0.06273968,-0.05400016,-0.9788103,2017-01-07 23:30:10,41.36265098495993
-1.144104,1.431778,7.557663,0.0024833558,-0.0018683217,-0.012384036,6.0,-1.0202552,1.258904,9.671847,-0.025969815,-0.075890064,-0.08032131,0.06318267,-0.053872533,-0.979546,2017-01-07 23:30:11,48.381200261877204
-1.0264282,1.261795,9.597443,-0.004657087,0.008011419,0.018602978,6.0,-1.0473273,1.3636637,9.654736,0.015059882,0.11059164,0.038770273,0.06611146,-0.058081966,-0.97783154,2017-01-07 23:30:12,46.93921799250835
-1.0002747,1.2748718,9.558212,-8.9425227E-4,-9.624301E-4,0.0032884865,5.0,-1.0329134,1.2717643,9.66882,-0.038628116,0.0050719874,0.10733672,0.064009376,-0.054021448,-0.9788817,2017-01-07 23:30:13,54.1993657223115
-1.0493164,1.2748718,9.54187,-0.0017020658,7.965902E-4,-0.004331506,6.0,-1.0209405,1.2579267,9.671902,-0.01303489,0.018475048,0.13765912,0.06325651,-0.0534829,-0.9794568,2017-01-07 23:30:14,39.31961775994571
-1.0198975,1.255249,9.5516815,1.1860893E-4,-0.0012810747,-0.007945779,14.0,-1.0171428,1.260821,9.6719265,-0.050098147,0.0077490457,0.13768323,0.06303472,-0.05375349,-0.97942257,2017-01-07 23:30:15,41.38604493748719
-1.1179657,1.3533173,9.558212,0.003738142,0.007946929,0.008805365,18.0,-1.0550909,1.2894889,9.664078,0.10263862,-0.07254587,0.12983474,0.065770425,-0.05498142,-0.97885853,2017-01-07 23:30:16,43.377235846424355
-1.1865997,1.431778,9.5811,0.0018159981,0.0070418287,-2.4890518E-4,14.0,-1.1599959,1.3687464,9.641128,0.079455696,-0.006908685,0.18860656,0.07161814,-0.058105364,-0.9790182,2017-01-07 23:30:17,43.35285644866009
-1.2487183,1.470993,9.558212,6.5101235E-4,0.0023716195,0.0048896344,9.0,-1.23888,1.4310532,9.622248,-0.013048815,9.166343E-4,0.14248575,0.076118976,-0.060150817,-0.97767526,2017-01-07 23:30:18,52.22115492783911
-1.2454376,1.4415741,9.522263,-7.869935E-4,5.993582E-4,0.0032961858,9.0,-1.2576023,1.4497521,9.617019,-0.01815073,0.033235967,0.096395716,0.07733666,-0.060696967,-0.97713405,2017-01-07 23:30:19,54.93063108476314
-1.2356415,1.431778,9.532059,7.197769E-4,-5.9745926E-4,-0.0021675655,12.0,-1.2548424,1.4426442,9.618448,-0.029011097,-0.001112618,0.08420523,0.07663529,-0.061022993,-0.9786499,2017-01-07 23:30:20,44.47667220902091
-1.255249,1.431778,9.512451,6.415927E-4,0.0010624278,-0.0020082286,12.0,-1.2698873,1.4387058,9.617064,0.010425377,0.035810046,0.15092283,0.07780249,-0.06019988,-0.97747993,2017-01-07 23:30:21,42.98636511710562
-1.2356415,1.431778,9.54187,8.4788876E-4,-0.0017704157,-0.005439393,12.0,-1.2514787,1.4461251,9.618363,0.0015933287,-0.011252125,0.15222217,0.07700882,-0.0605653,-0.97705966,2017-01-07 23:30:22,53.51951069979389
-1.2356415,1.4121552,9.522263,-7.725197E-4,3.902358E-4,-8.026666E-4,12.0,-1.2681534,1.4463133,9.616151,-0.028701844,0.029797109,0.15000921,0.07773346,-0.06056768,-0.9774622,2017-01-07 23:30:23,43.99742133334085
-1.2748718,1.431778,9.5451355,-0.0020938301,0.0017668487,0.009377551,12.0,-1.2725451,1.4271846,9.618428,-0.0058528045,-0.0029519135,0.097805634,0.07766316,-0.059678897,-0.9778346,2017-01-07 23:30:24,52.16925813429009
-1.255249,1.4415741,9.571289,4.673291E-4,-0.001576623,-2.873178E-4,12.0,-1.266959,1.4586146,9.61445,-0.054748036,0.028478114,-0.0015146651,0.07774177,-0.061179884,-0.97726196,2017-01-07 23:30:25,43.48994463724131
-1.2356415,1.4579163,9.50592,0.0,-0.0,0.0,12.0,-1.2596308,1.4411922,9.61804,0.0070615443,-0.016185073,0.09741741,0.07737633,-0.060243797,-0.9771357,2017-01-07 23:30:26,58.63216692881651
-1.261795,1.4056244,9.518982,-0.0012387416,0.0018166587,0.010788264,12.0,-1.2624168,1.4593799,9.614932,-0.036585566,0.015623102,0.067068405,0.07748507,-0.061392322,-0.9776257,2017-01-07 23:30:27,53.92290109857197
-1.2879486,1.4448547,9.532059,0.002081199,-0.0015506477,-0.0115151685,12.0,-1.2568505,1.4569433,9.61603,0.023462137,0.02680685,0.09540728,0.07725885,-0.06129205,-0.97751987,2017-01-07 23:30:28,42.195239486488845
-1.261795,1.4448547,9.492844,2.458372E-4,6.8871357E-4,-0.0026699493,12.0,-1.2725226,1.4542621,9.614375,-0.0058302553,0.010505288,0.10737246,0.078134984,-0.06087949,-0.9772556,2017-01-07 23:30:29,49.511788091701334
-1.2356415,1.431778,9.414383,-0.0013426641,-0.0030359835,0.004879928,12.0,-1.2705332,1.4411677,9.616609,-0.04470195,0.024651652,0.13684691,0.077578805,-0.060326945,-0.9775061,2017-01-07 23:30:30,56.753585327158824
-1.2748718,1.4415741,9.50264,-0.0011094572,0.0012816637,0.0047857417,12.0,-1.249591,1.4383839,9.619769,-0.010139402,0.008247525,0.1127669,0.076518565,-0.060620643,-0.9782245,2017-01-07 23:30:31,58.671068980912295
-1.255249,1.4415741,9.453613,0.001369658,-6.786508E-4,-0.0066063516,12.0,-1.2588913,1.4529691,9.6163645,-0.005819448,0.009212169,0.10936265,0.0772256,-0.061189014,-0.97781855,2017-01-07 23:30:32,41.081454794998606
-1.2748718,1.4121552,9.522263,-7.5007766E-4,-0.0011029876,0.0017599735,12.0,-1.2624698,1.4384444,9.618079,-0.023018211,0.0083079,0.111076824,0.076858364,-0.060777623,-0.978774,2017-01-07 23:30:33,54.035382142485055
-1.2454376,1.4415741,9.453613,5.7124166E-4,8.691003E-4,-0.004605634,12.0,-1.2517235,1.4407414,9.61914,-0.012271946,0.010604942,0.24834022,0.07677328,-0.06065973,-0.9779971,2017-01-07 23:30:34,40.93969679848811
-1.261795,1.431778,9.5451355,-0.003275291,0.001379519,0.0024075978,12.0,-1.277648,1.422881,9.618389,-0.024576,-0.0072554494,0.05690552,0.07805938,-0.05907835,-0.97730505,2017-01-07 23:30:35,56.23953213769194
-1.261795,1.4448547,9.453613,0.01249459,-8.449921E-4,7.872531E-4,12.0,-1.2586153,1.3921783,9.62539,-0.005543346,-0.09243957,0.1864892,0.076487556,-0.05898916,-0.9785632,2017-01-07 23:30:36,50.82504498557994
-1.255249,1.4219666,9.483032,-6.3051446E-4,6.9945696E-4,0.004150505,11.0,-1.2637454,1.4654813,9.61383,-0.037914116,0.048965167,0.106827125,0.07783535,-0.06140996,-0.97695494,2017-01-07 23:30:37,55.301890328757764
-1.2454376,1.431778,9.492844,-0.0010694066,3.9584993E-4,-8.88644E-4,11.0,-1.2616273,1.4532678,9.61596,-0.03579612,0.03675162,0.13619849,0.07728342,-0.061199624,-0.9780146,2017-01-07 23:30:38,47.62155758160583
-1.2944794,1.4219666,9.571289,-0.0027865863,0.0019171047,0.008816682,11.0,-1.2528584,1.4441881,9.618475,-0.027027149,0.054912742,0.12509288,0.076672465,-0.06079844,-0.9783687,2017-01-07 23:30:39,45.94443772186235
-1.2258301,1.4415741,9.1888275,0.0010828968,9.274331E-5,0.0037610545,12.0,-1.2479575,1.4443728,9.619084,-0.008505859,6.159042E-4,0.18018362,0.07665018,-0.060773063,-0.97762585,2017-01-07 23:30:40,50.225337871911826
-1.2356415,1.431778,9.492844,-0.0022195776,0.0017570002,0.008113803,10.0,-1.2686541,1.4497961,9.61556,-0.0564432,0.019659577,0.1085571,0.077422746,-0.061161116,-0.9785567,2017-01-07 23:30:41,56.25145645648849
-1.2356415,1.4448547,9.532059,0.0012118873,-5.5301018E-5,-0.004713293,11.0,-1.2742546,1.4568557,9.613752,-0.0348029,0.040339492,0.03864807,0.078094624,-0.061158966,-0.97755975,2017-01-07 23:30:42,51.78350327655697
-1.2160187,1.4121552,9.375153,2.8822882E-4,-4.706674E-4,-0.0055089924,11.0,-1.2439835,1.4432706,9.619764,-0.031772636,0.026754374,0.12638226,0.07635703,-0.06080684,-0.9779638,2017-01-07 23:30:43,61.4978405490881
-1.255249,1.4513855,9.532059,-4.9868616E-4,0.0010011957,-0.0030329863,10.0,-1.2538532,1.4315345,9.620235,-7.81233E-4,-0.0122223785,0.085992575,0.07668209,-0.060215794,-0.97827905,2017-01-07 23:30:44,41.67684630926239
-1.2487183,1.470993,9.518982,0.0020024232,5.1974214E-4,0.0024839994,12.0,-1.2648107,1.4417975,9.617269,-0.025359105,-0.0019592135,0.11026629,0.07761857,-0.060452793,-0.97725946,2017-01-07 23:30:45,60.18826817591726
-1.2356415,1.4579163,9.518982,6.798401E-4,5.230712E-4,-0.0026320347,12.0,-1.25107,1.4496496,9.617887,-0.025238773,0.005892708,0.12450431,0.076863036,-0.061073493,-0.97778463,2017-01-07 23:30:46,51.71416298831906
-1.2650604,1.4415741,9.483032,0.0,-0.0,0.0,12.0,-1.2614051,1.4489322,9.616644,-0.035573848,0.03241608,0.16412336,0.07731654,-0.060839426,-0.9777088,2017-01-07 23:30:47,47.00514843773017
-1.2258301,1.4219666,9.443802,-8.346646E-4,0.0023249695,0.010729363,12.0,-1.2488629,1.4326189,9.620725,-0.023031618,0.029723017,0.16820349,0.076549724,-0.060238022,-0.9778879,2017-01-07 23:30:48,48.56850131618236
-1.2748718,1.3729248,9.483032,0.0012879847,3.8061122E-4,-0.0044489396,12.0,-1.2668571,1.430811,9.618641,-0.013785157,0.041535556,0.13887866,0.07752353,-0.059905745,-0.9776548,2017-01-07 23:30:49,51.74513960117403
-1.255249,1.4023438,9.492844,0.0014080291,-5.270402E-4,-0.0013855381,13.0,-1.2719465,1.443028,9.616144,-0.03249495,0.012891487,0.1908636,0.077646665,-0.060751677,-0.97814727,2017-01-07 23:30:50,56.935169305421134
-1.2650604,1.431778,9.483032,3.5622597E-4,-1.6435642E-4,7.367238E-4,13.0,-1.2475938,1.4395741,9.619851,0.005478191,0.050298706,0.112848364,0.07644804,-0.060661573,-0.978069,2017-01-07 23:30:51,51.666141948146205
-1.2454376,1.4611969,9.5516815,6.7377987E-4,6.509013E-4,0.003891762,12.0,-1.2485423,1.4394885,9.6197405,-0.022711039,0.02297249,0.15359885,0.07624306,-0.06103854,-0.9788513,2017-01-07 23:30:52,57.35543119079711
-1.255249,1.431778,9.483032,-6.2250637E-4,-2.6672165E-4,0.007933387,12.0,-1.2517332,1.434545,9.620065,-0.025901958,0.0044085938,0.14030272,0.07669871,-0.060231056,-0.9776052,2017-01-07 23:30:53,54.44878329759507
-1.2650604,1.4219666,9.522263,6.026492E-4,-2.7700354E-4,-0.0025547615,12.0,-1.2534759,1.4450729,9.618261,-0.0140243685,0.028556881,0.084018186,0.07680517,-0.060891334,-0.9780232,2017-01-07 23:30:54,47.68033666849729
-1.2879486,1.470993,9.584366,4.2492413E-4,0.0012382331,0.007942093,10.0,-1.2558677,1.448596,9.61742,0.024444968,-0.008781234,0.042315852,0.07673418,-0.06141992,-0.9787155,2017-01-07 23:30:55,53.53643802255206
-1.0002747,1.261795,9.50592,-0.008582064,-0.009639548,-0.002626685,16.0,-1.0837638,1.3355095,9.65465,-0.062237706,0.027956149,0.13402708,0.06673291,-0.05645277,-0.9786366,2017-01-07 23:30:56,38.843717863932895
-1.010086,1.255249,9.463425,-0.0014001833,-6.56723E-4,0.001044779,18.0,-1.0421396,1.2945814,9.664802,-0.061474662,0.014268777,0.17141986,0.06487105,-0.05485184,-0.97819173,2017-01-07 23:30:57,53.49963513173459
-0.9904785,1.284668,9.561478,0.0015067611,-5.106007E-5,-0.0027350453,18.0,-1.0341747,1.2883245,9.666493,-0.026268985,0.008011847,0.15949124,0.06437102,-0.054897264,-0.9787337,2017-01-07 23:30:58,56.02387066049266
-1.0198975,1.2748718,9.532059,7.766034E-4,-0.0015096724,-7.753305E-4,16.0,-1.0253184,1.2808138,9.668435,-0.04465342,0.027741773,0.09333064,0.06364154,-0.054717988,-0.9792613,2017-01-07 23:30:59,41.9731071641749
-1.0002747,1.284668,9.5516815,0.0,-0.0,-0.0,16.0,-1.0126946,1.2801971,9.669847,-0.032029618,0.02712514,0.10836257,0.063099094,-0.054713298,-0.9790966,2017-01-07 23:31:00,51.666550356240805
-1.0133514,1.2748718,9.558212,3.1681635E-4,0.0017853611,0.0067438283,16.0,-1.0190136,1.3003381,9.666494,0.016132805,0.047266155,0.13225138,0.06412689,-0.055129606,-0.9773541,2017-01-07 23:31:01,55.38228012623655
-1.010086,1.284668,9.532059,2.4192141E-4,-0.0021404885,-0.0028106733,16.0,-1.0224699,1.2971833,9.666554,-0.041804902,0.0032502536,0.13231124,0.06389503,-0.05521968,-0.9781934,2017-01-07 23:31:02,48.54864532987687
-1.0002747,1.3238983,9.532059,-8.5324206E-4,-1.2651092E-4,-0.0016550936,15.0,-1.017109,1.2889823,9.668217,-0.03644403,-0.004950719,0.12035353,0.06335982,-0.05513344,-0.9791945,2017-01-07 23:31:03,41.62245064778389
-1.0198975,1.3042908,9.698776,0.0010340109,-8.466154E-4,-0.014113019,15.0,-1.0178802,1.2937876,9.667494,0.0036458578,0.013474867,-0.11191563,0.063343994,-0.055527747,-0.97961956,2017-01-07 23:31:04,44.66454776496392
-1.0133514,1.2879486,9.5451355,0.002243982,5.628113E-4,-4.7028172E-4,16.0,-1.01797,1.3008814,9.666531,-0.010064272,0.034189075,0.11866761,0.063393906,-0.055990737,-0.9796738,2017-01-07 23:31:05,48.75314998188963
-1.0264282,1.2879486,9.5451355,-1.2508819E-4,9.664793E-4,0.0027221937,16.0,-1.032607,1.3059387,9.664296,-0.038321566,0.025626063,0.11643302,0.06439528,-0.055781502,-0.97884685,2017-01-07 23:31:06,47.49522657624632
-0.9806671,1.2454376,9.5516815,9.665931E-5,-7.6550955E-4,3.1831468E-4,16.0,-1.0149332,1.2953398,9.667595,-0.034268156,0.015027149,0.14697239,0.06350475,-0.05527389,-0.97847867,2017-01-07 23:31:07,61.50932278177635
-0.9806671,1.2944794,9.590912,2.3961715E-4,-0.0038175983,-0.014766803,16.0,-1.0074021,1.2989703,9.667896,-0.02673702,0.00503728,0.10641229,0.0628577,-0.055694234,-0.9791608,2017-01-07 23:31:08,36.02883013334933
-1.0133514,1.2748718,9.532059,0.0011553112,0.0019449517,-0.0013598311,16.0,-1.0159885,1.2975435,9.667189,0.0055375267,0.03085122,0.13294552,0.063601665,-0.055455316,-0.9786856,2017-01-07 23:31:09,48.58783736567747
-1.0264282,1.3010101,9.558212,2.3440589E-4,-4.9477693E-4,-0.0019698432,15.0,-1.0345659,1.2882334,9.666464,5.804692E-4,-0.00569953,0.15946132,0.064452395,-0.054712202,-0.9784259,2017-01-07 23:31:10,39.04678811678442
-1.010086,1.284668,9.375153,0.001465779,0.0014334144,1.13162474E-4,15.0,-1.047074,1.3033006,9.663096,-0.03916827,0.03660832,0.12885293,0.06544709,-0.055336084,-0.97798854,2017-01-07 23:31:11,54.5925104256089
-1.0002747,1.2748718,9.571289,-0.0022614682,0.0027280163,0.011009326,14.0,-1.0215422,1.2945147,9.667009,-0.027256802,0.0142019605,0.051044714,0.063884966,-0.05511084,-0.9785233,2017-01-07 23:31:12,49.55386693861711
-1.0296936,1.2454376,9.50264,7.1483373E-4,-0.0012541922,-8.382733E-4,11.0,-1.0169264,1.3050565,9.666078,-0.022641001,0.038364068,0.1318349,0.06344937,-0.05604013,-0.97926545,2017-01-07 23:31:13,57.14917770784609
-0.9904785,1.2944794,9.590912,0.0016709995,-7.879619E-5,8.2759483E-4,12.0,-1.0187532,1.2934455,9.667446,-0.038088173,-0.0141079165,0.13320324,0.063411,-0.05552478,-0.97945666,2017-01-07 23:31:14,47.532479375631
-1.0525818,1.261795,9.675888,-1.2012153E-4,0.0020354383,0.0028952833,12.0,-1.0170767,1.2930967,9.66767,-0.009171019,0.01278404,0.17428792,0.06360045,-0.055271417,-0.9788335,2017-01-07 23:31:15,44.39700339538402
-0.9741211,1.2879486,9.5451355,-6.446809E-4,-7.167253E-4,0.00541159,11.0,-1.024225,1.3067012,9.665087,-0.016319228,0.040008835,0.089982085,0.06384893,-0.055956274,-0.9790092,2017-01-07 23:31:16,53.596045874498785
-0.9871979,1.3271637,9.636673,-1.8959731E-4,8.525989E-4,8.015344E-4,11.0,-1.0236511,1.3095089,9.664766,-0.029365757,0.015575924,0.10328237,0.06367535,-0.05641047,-0.9799303,2017-01-07 23:31:17,49.426282478121344
-1.0002747,1.2748718,9.375153,0.0010684631,5.8807357E-4,-0.0036252826,11.0,-1.0207912,1.3068321,9.665431,-0.026505807,0.04013977,0.2946323,0.063719705,-0.056158155,-0.97936547,2017-01-07 23:31:18,59.53046471758345
-1.0133514,1.3140869,9.558212,-0.0012381469,0.003096695,0.0176279,11.0,-1.0269656,1.3074601,9.664693,-0.032680232,-9.321176E-5,0.08958804,0.06446872,-0.05559768,-0.9778087,2017-01-07 23:31:19,57.09903639787108
-1.0198975,1.2748718,9.639938,8.4250397E-4,-6.87315E-4,-0.006877626,11.0,-1.0220183,1.3163885,9.664005,-0.014112593,0.022455512,-0.074542806,0.06391864,-0.056441866,-0.97896045,2017-01-07 23:31:20,50.34842267951666
-1.039505,1.3010101,9.532059,-5.9024437E-4,-3.6001095E-4,-0.0038534142,11.0,-1.0246361,1.2911593,9.66713,-0.003110072,0.02446689,0.13288735,0.063982815,-0.054897565,-0.9784416,2017-01-07 23:31:21,51.58742823271006
-1.0002747,1.2879486,9.414383,7.479501E-4,-0.0015522862,0.0016138016,11.0,-1.0252905,1.3154746,9.663783,-0.03100512,0.035161927,0.27936345,0.06422029,-0.05620552,-0.97826725,2017-01-07 23:31:22,44.5158513123853
-1.0264282,1.261795,9.50592,0.0013649294,-0.0030729466,-0.009903122,13.0,-1.0260106,1.314132,9.66389,0.009135791,0.04743959,0.14326636,0.064237304,-0.056070637,-0.9781978,2017-01-07 23:31:23,48.35257342220574
-1.0002747,1.2748718,9.492844,-0.0020991587,2.3615631E-4,0.005818485,16.0,-1.0294716,1.3043352,9.664848,-0.035186242,0.037643004,0.21232745,0.06425703,-0.05552912,-0.9785057,2017-01-07 23:31:24,59.52711972691957
-1.010086,1.2944794,9.512451,-0.001158341,-3.8622014E-4,-0.0011383182,16.0,-1.0148076,1.269937,9.670979,0.020338764,0.003244746,0.10949482,0.06324111,-0.053953614,-0.97864383,2017-01-07 23:31:25,51.61500953368413
-1.0296936,1.2356415,9.443802,-0.0012267709,-0.002350758,-0.0033290323,14.0,-1.0237308,1.2705568,9.669956,-0.04306581,0.04472554,0.12209265,0.06337732,-0.05409797,-0.9792901,2017-01-07 23:31:26,48.9915467118763
-1.0198975,1.2356415,9.5516815,7.838944E-4,0.0023061011,0.004295457,14.0,-1.0247808,1.2745291,9.669322,0.010365729,0.035077445,0.107838005,0.06368502,-0.05436961,-0.9791824,2017-01-07 23:31:27,54.49459091424309
-1.0493164,1.2356415,9.5516815,0.0,0.0,0.0,18.0,-1.041795,1.2704712,9.668038,-0.04750963,0.07188061,0.18827653,0.06471881,-0.053677477,-0.9781718,2017-01-07 23:31:28,41.332693865427274
-1.010086,1.2454376,9.590912,0.0033432692,-8.8352617E-4,-0.00804214,18.0,-1.0257843,1.2678353,9.670096,-0.004258125,0.028383655,0.16309336,0.06374684,-0.05393276,-0.9788164,2017-01-07 23:31:29,41.66217157676515
-1.039505,1.284668,9.865494,8.100305E-5,-1.3634253E-4,0.0054069487,18.0,-1.0144478,1.2700971,9.670995,0.020698622,-0.023835918,0.15037166,0.06314353,-0.05414373,-0.9788955,2017-01-07 23:31:30,58.12554067407919
-1.0002747,1.3010101,9.479767,-0.0013517796,-0.0023266668,0.0029635748,18.0,-1.0167555,1.2651575,9.6714,-0.022470165,-0.042395867,-0.067148216,0.06316286,-0.053718243,-0.97861934,2017-01-07 23:31:31,57.409276038996595
-1.0525818,1.261795,9.558212,3.454709E-4,0.0018315092,0.0027700139,17.0,-1.0289584,1.2852412,9.66746,-0.007432313,0.018548932,0.10597668,0.064069204,-0.054815702,-0.9789625,2017-01-07 23:31:32,58.08938803608025
-1.0493164,1.2356415,9.492844,2.428411E-4,-0.0019470559,-0.003956871,17.0,-1.0340527,1.2976943,9.665254,-0.026147094,0.058242697,0.13101022,0.06422595,-0.055422217,-0.97914845,2017-01-07 23:31:33,54.240362667310016
-0.9708557,1.255249,9.590912,0.0010762345,8.352692E-5,-0.0015225324,17.0,-1.0475208,1.2542963,9.669531,-0.025994753,-0.012396021,0.12166784,0.06469389,-0.05300911,-0.97880304,2017-01-07 23:31:34,50.949879650894474
-0.9904785,1.2454376,9.571289,1.9064292E-4,2.3018804E-4,-0.0028758883,17.0,-1.0248402,1.2659222,9.670447,-0.04417531,-0.014390462,0.013621179,0.06359999,-0.05386527,-0.979107,2017-01-07 23:31:35,63.46645803584879
-1.0525818,1.261795,9.597443,-9.6169446E-4,0.0015557393,0.002239394,17.0,-1.0206906,1.2580413,9.671914,0.014455824,0.018589564,0.12405041,0.06326498,-0.053569186,-0.97945154,2017-01-07 23:31:36,54.6662558135272
-1.0525818,1.2748718,9.5451355,0.0021059138,-0.0021311224,-0.011013701,17.0,-1.0364588,1.2652209,9.6693,-0.0013124465,-0.0014714365,0.14867744,0.06441041,-0.053464703,-0.9781167,2017-01-07 23:31:37,43.999844437418425
-1.0002747,1.2748718,9.479767,-7.198057E-4,-0.0014775171,2.924223E-4,18.0,-1.046159,1.2753567,9.666923,-0.038253292,0.022284677,0.1599202,0.06466551,-0.054108407,-0.9789529,2017-01-07 23:31:38,52.04871379886602
-1.0296936,1.2160187,9.463425,0.0,0.0,0.0,18.0,-1.0440795,1.2515926,9.670255,-0.008933158,0.03938171,0.20411317,0.06457733,-0.052730527,-0.9789579,2017-01-07 23:31:39,50.39595937794266
-1.0198975,1.2944794,9.50264,3.8669785E-4,-0.0013555071,-0.0035557253,18.0,-1.0457543,1.2618357,9.66874,-0.024228303,-0.01847692,0.1617383,0.0645479,-0.05348753,-0.9790628,2017-01-07 23:31:40,54.5893216631614
-1.0656586,1.2879486,9.571289,0.0012281642,7.843165E-4,-8.143389E-4,18.0,-1.0468205,1.2721897,9.66727,-0.011674123,-0.035363626,0.11940582,0.06479436,-0.05414476,-0.97912234,2017-01-07 23:31:41,57.924852176436744
-1.0198975,1.2454376,9.532059,0.0,0.0,0.0,18.0,-1.0246443,1.2735726,9.669462,-0.0031182815,0.047741253,0.12159885,0.06343147,-0.054205522,-0.9793243,2017-01-07 23:31:42,51.48568852754197
-1.0493164,1.2356415,9.610519,0.0012499198,7.790678E-4,0.0026244032,18.0,-1.0368394,1.2628706,9.669567,0.011927363,0.009798561,0.08084255,0.06412863,-0.05381187,-0.9793336,2017-01-07 23:31:43,53.01600880386627
-1.0885315,1.2160187,9.50264,0.0,0.0,0.0,18.0,-1.0343289,1.2647657,9.669587,-0.012802952,0.025314111,0.21706598,0.0640041,-0.053787984,-0.9791218,2017-01-07 23:31:44,53.56683930708779
-1.039505,1.2160187,9.5516815,0.0,0.0,0.0,18.0,-1.027341,1.2518802,9.6720085,0.035046063,0.03966924,0.08328413,0.063674994,-0.052953247,-0.9787331,2017-01-07 23:31:45,54.29246869797044
-1.0198975,1.2454376,9.483032,7.8913564E-4,-2.959296E-5,0.005084284,18.0,-1.0414933,1.2523116,9.67044,-0.033587616,0.012860001,0.20429772,0.06420628,-0.053152245,-0.9793263,2017-01-07 23:31:46,54.584764692045255
-1.0656586,1.2879486,9.505905,0.001216295,-6.9952605E-4,-0.008478129,17.0,-1.0435884,1.2598072,9.66924,0.0051782927,0.006735251,0.121376045,0.06470774,-0.05316517,-0.97832674,2017-01-07 23:31:47,59.218531148527596
-1.0918121,1.261795,9.558212,4.510463E-4,6.1262655E-4,0.0063109635,18.0,-1.0491625,1.2857397,9.665222,0.026844883,0.032667655,0.15821932,0.06525861,-0.054405402,-0.97810173,2017-01-07 23:31:48,59.93706858224328
-1.0198975,1.255249,9.532059,-1.174523E-5,-0.0013371292,-0.0029431337,18.0,-1.0425065,1.2675074,9.668351,-0.007359988,0.028055804,0.17496876,0.06458389,-0.053613618,-0.97854936,2017-01-07 23:31:49,52.58403997279104
-1.039505,1.2748718,9.5516815,-0.0021262835,8.84E-4,0.007198935,18.0,-1.0420476,1.2451292,9.671308,-0.006901203,0.005677604,0.15068424,0.064326406,-0.052470684,-0.97875845,2017-01-07 23:31:50,44.267063044312785
-1.0525818,1.261795,9.571289,8.274345E-4,-0.00300359,-0.009913542,18.0,-1.0392153,1.2535539,9.670524,-0.04492994,4.8185387E-4,0.14990114,0.06385788,-0.053402685,-0.97990185,2017-01-07 23:31:51,61.48551228374786
-1.039505,1.2160187,9.492844,-0.002126521,0.0015130381,-0.0012444634,18.0,-1.0584357,1.2629737,9.6672125,-0.023289328,0.023522096,0.119349286,0.06529509,-0.053270444,-0.9790329,2017-01-07 23:31:52,45.349740317507724
-1.0296936,1.255249,9.561478,3.9527702E-4,-0.0021578243,-2.5348517E-4,18.0,-1.0456699,1.2526984,9.669939,-0.051384512,0.02686712,0.12207603,0.06447256,-0.052923474,-0.97871286,2017-01-07 23:31:54,54.64833268208896
-1.010086,1.2356415,9.561478,-3.1235893E-4,3.161472E-4,7.0650893E-4,19.0,-1.0499427,1.2598358,9.668549,-0.0284167,0.020384176,0.07982418,0.0646594,-0.053467993,-0.9795048,2017-01-07 23:31:55,50.80126285388526
-1.0493164,1.2650604,9.532059,0.0013681065,0.0010234514,0.0013991202,18.0,-1.0386043,1.2597095,9.669789,0.010162472,0.020257918,0.012962773,0.06437513,-0.053386852,-0.97875667,2017-01-07 23:31:56,51.49523506194093
-0.9871979,1.3533173,9.64975,0.0012122104,-0.0016470817,0.002503548,18.0,-1.0297477,1.2771608,9.6684475,-0.049082693,0.010468502,0.106963456,0.06400877,-0.054300748,-0.97863305,2017-01-07 23:31:57,58.78280775861263
-1.0133514,1.3010101,9.50592,-5.875168E-4,-8.322401E-4,5.962755E-4,15.0,-1.0265903,1.2777517,9.668705,-0.018684646,-0.016181333,0.16170256,0.06361952,-0.054592952,-0.9793494,2017-01-07 23:31:58,46.8722481516048
-1.0002747,1.261795,9.623596,-0.0016800505,-6.608064E-4,0.0015212302,12.0,-1.0291803,1.2709695,9.669324,-0.034894865,0.017897593,0.012497234,0.06382353,-0.05404127,-0.9790509,2017-01-07 23:31:59,47.44329335831458
-1.0133514,1.2487183,9.584366,4.3741945E-4,6.9920166E-4,-0.0026425694,12.0,-1.0217447,1.264055,9.671019,-0.013838985,-0.0026373628,0.12315507,0.063529186,-0.053742737,-0.97886515,2017-01-07 23:32:00,58.88080182647958
-1.0264282,1.2748718,9.584366,8.13951E-4,-6.5488945E-5,0.008306656,12.0,-1.0175468,1.2672232,9.671046,-0.009641026,5.309018E-4,0.09594182,0.06290718,-0.054400243,-0.9800953,2017-01-07 23:32:01,47.13174052251259
-0.9904785,1.2258301,9.483032,0.0,0.0,0.0,14.0,-1.0183926,1.266816,9.67101,-0.03772759,0.05460515,0.1640078,0.0632508,-0.0540386,-0.97930914,2017-01-07 23:32:02,45.783644423112015
-0.9610443,1.2454376,9.54187,-2.088313E-4,-9.456793E-4,-0.003195126,18.0,-1.0045826,1.2580312,9.673601,0.003323098,0.03220004,0.15297869,0.06231056,-0.053822335,-0.97969306,2017-01-07 23:32:03,51.790500246130684
-1.0002747,1.255249,9.492844,-6.0317887E-4,0.0015989474,0.008666429,17.0,-1.0081007,1.253971,9.673761,-0.054676436,0.0145194195,0.12589844,0.06258925,-0.05348324,-0.97931296,2017-01-07 23:32:04,39.27365122554881
-1.068924,1.255249,9.600708,0.0013062187,-0.0012784547,-0.00779444,17.0,-0.9994163,1.274557,9.671972,0.035730135,0.021485051,0.083248384,0.062550254,-0.054359164,-0.9785323,2017-01-07 23:32:05,44.39536566970066
-0.9806671,1.284668,9.512451,1.8326865E-4,5.5048184E-4,0.004216262,15.0,-1.0150521,1.2643684,9.671681,-0.048007485,-0.0023238512,0.12381847,0.062843814,-0.054173075,-0.9798902,2017-01-07 23:32:06,52.50415829117382
-1.0002747,1.2487183,9.46669,5.3437613E-4,8.7221834E-4,-0.0010216129,13.0,-0.99432236,1.2653044,9.673713,-3.699374E-5,-0.0013878888,0.13946973,0.06223916,-0.05394649,-0.97858083,2017-01-07 23:32:07,52.4737986720412
-0.9806671,1.2650604,9.5516815,-0.0019661274,-8.3742855E-4,0.0056882952,13.0,-1.0092056,1.2663231,9.672038,-0.028540568,0.013251138,0.1241751,0.062911764,-0.05381021,-0.9785374,2017-01-07 23:32:08,59.47507314310255
-1.039505,1.2487183,9.518997,8.215994E-4,0.002367047,0.002637961,13.0,-1.0088264,1.2630762,9.6725025,0.039940353,0.010004209,0.15187968,0.062942065,-0.053864796,-0.9789789,2017-01-07 23:32:09,61.9669288310682
-1.039505,1.2454376,9.639938,-0.0014195842,-0.0022122175,0.001686501,13.0,-1.0275731,1.2612238,9.670771,-0.0060470216,0.021772167,0.12290734,0.06350477,-0.053609625,-0.9792389,2017-01-07 23:32:10,50.55842523758894
-1.010086,1.255249,9.50264,0.0016257827,-0.0022296743,-0.0057869754,13.0,-1.0126444,1.2619306,9.672254,-0.0047386284,0.00885865,0.17887099,0.062871635,-0.053849462,-0.979116,2017-01-07 23:32:11,56.45469053380201
-0.9741211,1.2879486,9.479767,4.93501E-4,-8.1066607E-4,-0.004569671,13.0,-1.0147226,1.2811375,9.66951,-0.020437172,0.055306163,0.121646225,0.063180126,-0.054742977,-0.97914654,2017-01-07 23:32:12,47.67786897574627
-1.0591125,1.255249,9.571289,-9.924686E-4,5.5553776E-4,0.0012219131,13.0,-1.0180376,1.2748697,9.66999,-0.023752164,0.049038425,0.1766073,0.06329869,-0.0543783,-0.97918326,2017-01-07 23:32:13,47.493329054162885
-1.0264282,1.2748718,9.479767,-1.8853041E-4,-0.001454164,0.005094749,14.0,-0.9956966,1.2654736,9.67355,0.025829427,0.012401632,0.20740852,0.06187251,-0.054331005,-0.97966856,2017-01-07 23:32:14,46.851765269648894
-0.9904785,1.2454376,9.708588,-0.0016829552,6.655862E-4,-0.0015159268,14.0,-1.0142031,1.2611444,9.672193,-0.033538047,0.008072429,0.15156959,0.06297922,-0.0536942,-0.9792712,2017-01-07 23:32:15,57.27045308610718
-0.9610443,1.2454376,9.473221,5.957207E-4,-9.2042243E-4,4.373596E-4,13.0,-1.0085812,1.2669165,9.672027,-6.754475E-4,0.027464943,0.11054229,0.06251302,-0.054380514,-0.9798184,2017-01-07 23:32:16,55.23050800382626
-1.0264282,1.261795,9.68898,-2.933674E-4,0.002783405,0.0058875834,14.0,-1.0180272,1.2636608,9.671462,-0.010121529,0.03782953,0.082737125,0.06319114,-0.053951614,-0.9795239,2017-01-07 23:32:17,55.51399670472213
-1.0264282,1.2879486,9.623596,5.655974E-4,-1.3721315E-4,0.0040473947,15.0,-1.0187662,1.2700742,9.670544,0.03000068,0.0033820178,0.08181935,0.063258424,-0.05425186,-0.97921264,2017-01-07 23:32:18,56.97020197347389
-0.9904785,1.2356415,9.5516815,0.0,0.0,0.0,15.0,-1.009021,1.2785375,9.67045,-0.0011153197,0.052706208,0.13620679,0.06286471,-0.054611605,-0.97913116,2017-01-07 23:32:19,52.95423914941927
-1.010086,1.2356415,9.5811,-0.0,-0.0,-0.0,16.0,-1.0155858,1.2576594,9.672501,-0.021300497,0.01820778,0.16549836,0.0630701,-0.05350512,-0.9790231,2017-01-07 23:32:20,48.55104955034679
-0.9708557,1.2650604,9.512451,-9.015412E-4,0.0011105817,0.0073745754,15.0,-1.0009792,1.2492157,9.6751175,-0.006693789,0.009764061,0.18173487,0.06217137,-0.053308945,-0.97938305,2017-01-07 23:32:21,47.52865152306177
-1.0002747,1.2062225,9.532059,4.4308184E-4,6.1236165E-4,-0.0046607093,15.0,-1.0044363,1.2607788,9.673259,-0.010150833,0.007706856,0.11177513,0.0627686,-0.05352095,-0.97833586,2017-01-07 23:32:22,39.013714674381966
-1.039505,1.2487183,9.571289,9.438587E-4,7.5592217E-4,-7.922931E-4,15.0,-0.99946076,1.2599127,9.673888,0.022065312,0.0068408283,0.11240362,0.062074613,-0.054156043,-0.9800805,2017-01-07 23:32:23,48.51864319631964
-1.0525818,1.2748718,9.532059,3.0895032E-4,7.3066703E-4,-0.0014687967,16.0,-1.026612,1.2837012,9.667914,-0.005086016,0.017008808,0.16091198,0.063794084,-0.054872897,-0.9793942,2017-01-07 23:32:24,42.02454315520694
-1.0002747,1.3042908,9.5811,-7.718606E-4,-0.001889679,0.0035430891,15.0,-1.0131385,1.2792202,9.6699295,-0.03247354,-0.028333154,0.12206604,0.06287707,-0.05481102,-0.979505,2017-01-07 23:32:25,38.9247873233834
-1.039505,1.2258301,9.512451,0.0,0.0,0.0,16.0,-1.0046148,1.2772069,9.671085,-0.0103294635,0.03775523,0.27304542,0.06265536,-0.05461968,-0.9790842,2017-01-07 23:32:26,37.61493859402571
-0.9806671,1.2258301,9.532059,0.0,0.0,0.0,16.0,-1.0141567,1.2521344,9.6733675,-0.0334917,0.039923523,0.15274508,0.062746935,-0.053385835,-0.9795605,2017-01-07 23:32:27,61.23782869508208
-1.0002747,1.2356415,9.571289,0.0017503432,9.40051E-4,-0.0022603848,15.0,-1.0137248,1.261094,9.672249,-0.019439485,0.021642378,0.13800578,0.0630343,-0.053823348,-0.9792016,2017-01-07 23:32:28,41.16298223801309
-0.9871979,1.2879486,9.64975,7.95551E-4,9.08474E-5,-2.3562112E-4,16.0,-1.0177712,1.277968,9.669608,-0.009865482,0.011275712,0.06726377,0.063301966,-0.05466235,-0.9792589,2017-01-07 23:32:29,54.14312582228722
-0.95124817,1.2454376,9.561478,-4.0131723E-5,-0.0022278419,-0.006349713,16.0,-1.0170808,1.2769622,9.669815,-0.036415763,0.03751051,0.094710626,0.06302568,-0.054656714,-0.97958976,2017-01-07 23:32:30,57.509427709468866
-1.0133514,1.3010101,9.558212,-9.704945E-5,0.0013096306,0.004298714,15.0,-1.0079455,1.2613741,9.672815,-3.9799448E-5,-0.03255896,0.12495239,0.062702924,-0.05388655,-0.97923934,2017-01-07 23:32:31,57.37554548108223
-1.0002747,1.2748718,9.518982,-4.9429724E-4,0.0010713725,3.4282173E-5,16.0,-1.0060155,1.2781544,9.670813,-0.011730134,0.025082381,0.15019044,0.062708504,-0.054776527,-0.9795638,2017-01-07 23:32:32,48.11982719491134
-0.9806671,1.3042908,9.738007,-0.0019716432,-9.6415446E-5,-0.0017521554,16.0,-0.99396026,1.2710183,9.673001,0.027565844,0.017946329,0.15237847,0.06205044,-0.054349072,-0.97929674,2017-01-07 23:32:33,51.185677045107525
-1.010086,1.2160187,9.5811,-2.1261732E-4,9.485512E-4,0.0017986324,15.0,-1.002145,1.2712715,9.672123,-0.007859715,0.031819917,0.16512011,0.06259857,-0.054287538,-0.9789611,2017-01-07 23:32:34,39.360720187020625
-0.9806671,1.255249,9.532059,0.0010022603,-0.0019513244,-0.006225197,16.0,-1.0030233,1.28063,9.670797,-0.022358248,0.041178398,0.1365543,0.062474996,-0.054966975,-0.9794971,2017-01-07 23:32:35,32.68688617861658
-1.0198975,1.2454376,9.600708,-0.0011670331,0.0022566586,0.009616301,16.0,-0.9968284,1.269958,9.672845,-0.016163357,0.01688598,0.15222217,0.062034663,-0.054557435,-0.97982025,2017-01-07 23:32:36,56.044033583010375
-0.9708557,1.2356415,9.532059,0.0,0.0,0.0,15.0,-1.0001645,1.2573531,9.674147,-0.019499548,0.045142133,0.18076473,0.062176682,-0.053753335,-0.97940874,2017-01-07 23:32:37,54.88161521941279
-0.9904785,1.255249,9.571289,3.6732E-4,0.0017406793,0.0010252327,16.0,-1.0085224,1.2568889,9.67334,-0.041477676,0.031057596,0.12547612,0.06258926,-0.053722568,-0.9795941,2017-01-07 23:32:38,51.69669273475481
-1.0198975,1.2356415,9.894913,0.0,0.0,0.0,15.0,-0.9952037,1.2509841,9.675485,-0.04177934,0.038773183,0.18210231,0.061794963,-0.0536508,-0.9798854,2017-01-07 23:32:39,48.63128945993709
-1.0133514,1.3010101,9.610519,0.0026103822,8.957689E-4,-8.623047E-4,15.0,-1.0087678,1.2571079,9.6732855,-8.6218276E-4,-0.03682519,0.070940696,0.06287452,-0.053601228,-0.97877896,2017-01-07 23:32:40,44.39761512361119
-1.0133514,1.2487183,9.597443,-0.0019642892,6.303206E-4,0.006405311,15.0,-1.0147995,1.2695438,9.671031,0.006726522,0.04371247,0.055065807,0.063171506,-0.053983714,-0.9788466,2017-01-07 23:32:41,54.07402002493528
-0.9904785,1.2748718,9.532059,0.0015986369,-0.0015517623,-0.0065123076,15.0,-1.0048248,1.2496686,9.674661,-0.0105393715,-0.0034033202,0.14041744,0.062224336,-0.053495318,-0.9797593,2017-01-07 23:32:42,46.89202104146905
-1.0002747,1.2356415,9.522263,-0.0012608758,0.0012647477,0.008529245,15.0,-1.0005214,1.2638773,9.67326,-0.019856391,0.038045984,0.12539631,0.06225445,-0.054061547,-0.9794264,2017-01-07 23:32:43,42.8392766682652
-0.9806671,1.255249,9.522263,0.0013110616,-0.0016220282,-0.0011061283,15.0,-0.9965475,1.2626288,9.673834,0.011358221,0.023177203,0.20769201,0.06193768,-0.05418809,-0.9795925,2017-01-07 23:32:44,49.56357822517161
-0.9806671,1.255249,9.522263,-4.6535922E-4,0.0010753475,0.006730836,15.0,-1.0059388,1.2668241,9.672313,-0.025273688,0.013752216,0.15169014,0.06248514,-0.054287255,-0.9796645,2017-01-07 23:32:45,52.60133783506503
-0.9904785,1.2160187,9.453613,1.5491885E-5,5.1680673E-4,-0.0029646934,15.0,-1.0097324,1.2708721,9.671386,-0.001826722,0.03142047,0.15076321,0.06283582,-0.054312952,-0.9792984,2017-01-07 23:32:46,45.41048323184731
-1.039505,1.261795,9.532059,3.2185114E-4,1.9254101E-5,7.698786E-4,15.0,-1.0136324,1.2695456,9.671153,0.021514043,0.002853298,0.1369101,0.062946975,-0.054302704,-0.9794702,2017-01-07 23:32:47,64.08875992762381
-1.0198975,1.2258301,9.610519,-4.6916434E-4,-0.0010125514,0.0031466454,15.0,-1.0192348,1.2757224,9.669752,-0.038569823,0.049891155,0.14912884,0.06335709,-0.054300625,-0.978797,2017-01-07 23:32:48,44.21577262453837
-1.0264282,1.2487183,9.518982,-7.535894E-4,9.853799E-4,0.0053958064,15.0,-1.0004321,1.2666137,9.672912,0.04833461,0.027162137,0.11142765,0.062141687,-0.054387342,-0.97997326,2017-01-07 23:32:49,54.27572727410853
-0.9806671,1.255249,9.5811,0.0018944846,-0.0022927618,-0.01086043,18.0,-1.0089052,1.2807367,9.670172,-0.028240148,0.027664773,0.026965529,0.06292513,-0.054756716,-0.97898364,2017-01-07 23:32:50,39.2215367578913
-0.9708557,1.2356415,9.571289,-0.0015010907,0.0018405417,0.003628951,13.0,-1.0056279,1.2558193,9.67378,-0.05220357,-0.010873043,0.16677776,0.062380876,-0.053683102,-0.9797738,2017-01-07 23:32:51,51.44609080782764
-1.0133514,1.261795,9.518997,0.0011450686,-0.002041925,-0.010595157,12.0,-0.9838064,1.2733077,9.673738,0.010478997,0.02023568,0.16673537,0.061424144,-0.054806277,-0.9796966,2017-01-07 23:32:52,43.11379473824579
-0.9871979,1.2748718,9.558212,0.001257824,9.79388E-4,-0.002933502,12.0,-1.0119172,1.2774565,9.670292,-0.004011535,0.03800494,0.16328871,0.06329169,-0.054402485,-0.9784739,2017-01-07 23:32:53,45.48483494842532
-1.0133514,1.2748718,9.571289,-3.677149E-4,-0.001306977,-0.011873286,12.0,-1.0153695,1.2684877,9.671109,-0.007463799,0.0017953396,0.12324569,0.06296372,-0.0542394,-0.97966564,2017-01-07 23:32:54,54.56292249314991
-1.0264282,1.2748718,9.584366,-2.0590717E-4,-9.934999E-4,-0.0015664998,12.0,-1.0225016,1.2765689,9.669295,-0.014595797,0.009876601,0.1078114,0.06352052,-0.054422867,-0.97906667,2017-01-07 23:32:55,49.42703690336473
-1.010086,1.2160187,9.512451,0.0,0.0,0.0,14.0,-1.0090231,1.2680403,9.671832,-0.014737745,0.055829376,0.15120962,0.062652886,-0.05424231,-0.9794004,2017-01-07 23:32:56,47.13708947952015
-0.9806671,1.2454376,9.473221,-7.223587E-4,-5.1837135E-4,0.005952855,13.0,-1.0043263,1.2661228,9.672572,-0.023661343,0.026671138,0.13832916,0.06235433,-0.054206524,-0.9795251,2017-01-07 23:32:57,45.37113685631616
-1.010086,1.2748718,9.492844,0.0015049587,2.410346E-4,0.0023109291,13.0,-1.0086924,1.2633284,9.672483,-0.02802733,-0.016984181,0.11099951,0.06276956,-0.05390545,-0.97902346,2017-01-07 23:32:58,43.0083669160619
-1.010086,1.2062225,9.532059,-9.556636E-4,-4.885027E-4,0.0012785774,13.0,-0.99958,1.2744164,9.671975,-0.032535374,0.04858515,0.1513518,0.06246861,-0.054392654,-0.9787572,2017-01-07 23:32:59,45.976103430737034
-0.9806671,1.2454376,9.512451,1.5409218E-4,-3.131541E-4,-0.0043230015,13.0,-1.0015826,1.2642573,9.673101,-0.04815837,0.011185307,0.12523752,0.062614344,-0.053732365,-0.9783865,2017-01-07 23:33:00,47.80617751261269
-1.010086,1.284668,9.630127,-8.994982E-4,0.0015491311,0.0041224496,13.0,-0.9979678,1.2570263,9.674417,0.023558259,-0.03690666,0.15379338,0.062128406,-0.05370789,-0.9793292,2017-01-07 23:33:01,40.93864582635186
-0.9806671,1.255249,9.473221,0.0,0.0,0.0,13.0,-0.98727363,1.2560768,9.675637,-0.006608682,0.04386585,0.1277739,0.061368573,-0.053858027,-0.97976875,2017-01-07 23:33:02,43.83260066821872
-1.0002747,1.2356415,9.571289,-6.999774E-4,0.0018736164,0.006033789,13.0,-1.0048113,1.2520701,9.674352,-0.010525863,0.0126185035,0.085626796,0.06237439,-0.053452183,-0.9794795,2017-01-07 23:33:03,50.11204800817566
-1.0198975,1.2454376,9.463425,2.502495E-4,0.0015208448,0.0064970353,13.0,-1.026961,1.2705829,9.669611,-0.019055206,0.031131273,0.32605204,0.063967705,-0.053865828,-0.9783403,2017-01-07 23:33:04,50.8778000593623
-1.0264282,1.2356415,9.754349,6.2405295E-4,7.6539087E-4,-0.0010558176,13.0,-1.0041788,1.2640026,9.672865,0.0037270156,-0.016310085,0.16586247,0.0627177,-0.053856105,-0.97871846,2017-01-07 23:33:05,58.87683824710862
-0.9741211,1.2748718,9.5451355,0.0012308955,-0.0011562853,-0.00834278,13.0,-1.0215027,1.2719399,9.67001,-0.027217314,0.0052475,0.14938737,0.0635857,-0.054083254,-0.9786185,2017-01-07 23:33:06,60.14599509086238
-1.0133514,1.2748718,9.571289,-5.515677E-4,0.0012257734,0.0024200503,13.0,-1.0164051,1.282217,9.669189,-0.008499416,0.015524694,0.107705824,0.06341363,-0.05467936,-0.97883505,2017-01-07 23:33:07,44.93973890389096
-0.9904785,1.255249,9.492844,4.4958977E-4,-0.0028036216,-0.005927166,13.0,-1.0116209,1.2827322,9.669623,-0.030955862,0.029660355,0.2579636,0.062977985,-0.05485143,-0.9790474,2017-01-07 23:33:08,52.8803840535764
-0.9806671,1.2944794,9.5516815,-0.00268572,0.002435041,0.0026572505,13.0,-1.0091507,1.2657299,9.672121,0.012375238,0.012657991,0.1514981,0.06291011,-0.053825986,-0.9789972,2017-01-07 23:33:09,57.50653988625287
-1.0264282,1.2748718,9.5451355,0.0017780841,0.0013168886,-0.0036356167,13.0,-1.0101247,1.2830598,9.669737,0.025021797,-0.010873146,0.10825283,0.06314116,-0.054914627,-0.9790259,2017-01-07 23:33:10,47.90833404979982
-0.9610443,1.2944794,9.5516815,0.0,0.0,0.0,14.0,-1.0069972,1.2675945,9.672101,-0.012711923,0.05538358,0.124237455,0.06261642,-0.053982977,-0.9789927,2017-01-07 23:33:11,49.64211451173224
-0.9806671,1.2258301,9.522263,-8.4586564E-4,-4.784693E-4,-0.001357301,16.0,-0.99729097,1.2626508,9.673754,-0.016625984,0.009578885,0.16675116,0.062028658,-0.054031223,-0.9794986,2017-01-07 23:33:12,42.687748729241555
-1.0002747,1.255249,9.561478,6.541092E-4,-8.4173644E-4,-0.0038583786,16.0,-1.0068692,1.2727839,9.671434,0.0010364483,0.033332296,0.21891317,0.06254211,-0.054595202,-0.9796981,2017-01-07 23:33:13,40.16413209348254
-1.0296936,1.255249,9.532059,0.0,0.0,0.0,16.0,-1.0028583,1.2722179,9.671925,-0.022193335,0.06000697,0.1785426,0.06271078,-0.054089285,-0.9782664,2017-01-07 23:33:14,48.399665502312494
-0.9904785,1.255249,9.50264,0.001266511,-0.002190142,-0.0046331543,16.0,-1.0031326,1.2790107,9.6710005,-0.022467569,0.025938641,0.17761818,0.062473696,-0.054862075,-0.97934055,2017-01-07 23:33:15,44.96745281596395
-0.9904785,1.2454376,9.54187,-0.0028442591,0.0034999582,0.011529487,16.0,-1.0076421,1.2533723,9.673888,2.6363236E-4,3.0041827E-4,0.12602396,0.06262132,-0.053400777,-0.9794507,2017-01-07 23:33:16,47.23120585995566
-1.010086,1.2258301,9.561478,-0.001152389,0.0016865585,0.005279627,17.0,-1.0248904,1.2666517,9.670345,-0.003364352,0.040820517,0.1497224,0.06360605,-0.053879723,-0.9791955,2017-01-07 23:33:17,38.637127320847256
-0.9806671,1.2258301,9.54187,0.0,0.0,0.0,17.0,-1.0107497,1.2618606,9.672461,-0.04370509,0.049649652,0.124597415,0.062685154,-0.05389994,-0.9794623,2017-01-07 23:33:18,57.94229693576988
-0.9904785,1.2748718,9.50264,0.0018552133,0.0012481904,-0.0038991922,17.0,-1.0120581,1.2580351,9.672822,-0.017772686,0.018583432,0.15219891,0.06306313,-0.053439982,-0.9786019,2017-01-07 23:33:19,48.68594984874142
-1.0296936,1.2356415,9.5811,-3.5048043E-4,-6.515989E-4,-0.0033609543,18.0,-1.0227897,1.2642782,9.670878,-0.014883954,0.024826543,0.12301541,0.063120775,-0.054106493,-0.9801605,2017-01-07 23:33:20,53.78860372073398
-1.0133514,1.2748718,9.610519,5.2518764E-4,-3.1110752E-4,-0.0010103139,18.0,-1.0038031,1.2647161,9.672811,0.0041025644,-0.0019761515,0.1794288,0.06244681,-0.054098707,-0.97938764,2017-01-07 23:33:21,36.680735970091966
-1.0133514,1.2748718,9.5451355,0.001073087,0.001965276,0.0013974608,18.0,-1.0150979,1.2701272,9.670923,0.03366898,0.017055258,0.13667981,0.06317906,-0.0543204,-0.9793661,2017-01-07 23:33:22,57.707204259382706
-0.9806671,1.2748718,9.5811,-0.0011850691,-0.0017666939,-0.0010236113,18.0,-1.0157,1.2584641,9.672383,-0.021414699,-0.008228198,0.110899754,0.062996455,-0.05347056,-0.9789523,2017-01-07 23:33:23,48.24419076290512
-1.0198975,1.2258301,9.453613,-0.0010102533,6.1627507E-4,0.0026381167,18.0,-1.0012501,1.2591641,9.6738,-0.0069647995,0.019712469,0.15317737,0.062374905,-0.05364917,-0.979016,2017-01-07 23:33:24,50.299907905511134
-1.010086,1.2944794,9.54187,0.0012926627,-0.0010171701,-0.009223625,18.0,-1.0251384,1.2606522,9.6711035,-0.01723264,0.02120053,0.17772126,0.063601166,-0.053569388,-0.9789383,2017-01-07 23:33:25,27.95493323150729
-1.010086,1.2356415,9.669357,0.0,0.0,0.0,18.0,-1.0103427,1.2595222,9.672808,-0.0024370146,0.07455205,0.16580595,0.06272837,-0.053639922,-0.97930586,2017-01-07 23:33:26,47.875870072287356
-0.9610443,1.2879486,9.597443,3.3975238E-4,-0.0013926781,-1.8716742E-4,18.0,-0.99140483,1.265864,9.67394,-0.010739824,-8.283065E-4,0.16693655,0.06183766,-0.054195415,-0.9791476,2017-01-07 23:33:27,47.86527283384535
-1.0133514,1.2748718,9.532059,1.5067973E-4,8.439867E-4,0.001657813,18.0,-1.0088208,1.277939,9.670549,0.039945967,0.05210766,0.1499269,0.06305385,-0.05449291,-0.97866476,2017-01-07 23:33:28,51.664384399613596
-1.010086,1.284668,9.532059,6.657134E-4,-0.0012084896,-0.0026745312,18.0,-1.0133114,1.2800723,9.669799,-0.019026008,0.02700034,0.14917623,0.062922165,-0.054931298,-0.97973806,2017-01-07 23:33:29,45.911544261691304
-1.0296936,1.2062225,9.532059,0.0,0.0,0.0,18.0,-1.0055648,1.2621199,9.672966,0.0023408933,0.049908925,0.13872321,0.062352315,-0.05387834,-0.9795735,2017-01-07 23:33:30,34.86732360896448
-1.0296936,1.2258301,9.473221,0.0029574262,9.617405E-4,0.0012146778,18.0,-1.0182439,1.2709824,9.67048,0.016902503,0.017910374,0.12261637,0.06354558,-0.05401247,-0.9783574,2017-01-07 23:33:31,46.09383123902482
-1.0198975,1.2454376,9.571289,-3.3928294E-4,-0.0044003534,-0.008431452,17.0,-1.0091358,1.264463,9.672288,-0.02847084,0.03863165,0.1244245,0.0625761,-0.054044135,-0.9794863,2017-01-07 23:33:32,53.29034391306007
-1.0264282,1.3140869,9.584366,0.0017334231,0.0011632297,0.0040672245,17.0,-1.0105499,1.2719699,9.671157,0.024596473,-0.008342712,0.13691343,0.06287482,-0.054453377,-0.9793492,2017-01-07 23:33:33,33.48855901771324
-1.0002747,1.3140869,9.28363,-0.0011058375,0.0012602427,0.0047922633,18.0,-1.0272923,1.2837192,9.66784,-0.033006836,0.0034064378,0.2016982,0.06403426,-0.054573435,-0.9785804,2017-01-07 23:33:34,53.97482727358708
-0.9871979,1.2748718,9.532059,9.810951E-4,-0.0018194683,-0.0014131655,18.0,-1.0137575,1.2810565,9.669622,-0.019472113,7.438236E-4,0.1626195,0.06306235,-0.05485472,-0.97930306,2017-01-07 23:33:35,57.60981701491997
-0.9904785,1.2356415,9.375153,-0.0011035881,-4.155721E-4,5.232124E-5,18.0,-1.0133479,1.2781036,9.670055,-0.03268283,0.025031669,0.25839505,0.062996686,-0.05462026,-0.9792977,2017-01-07 23:33:36,52.58099878041513
-0.9708557,1.255249,9.639938,3.350934E-4,-3.9402943E-4,0.0041411663,18.0,-0.99558926,1.2699779,9.67297,-0.014924273,0.0032855845,0.15234771,0.06204753,-0.054471973,-0.97941196,2017-01-07 23:33:37,57.85901746567778
-0.95124817,1.2356415,9.571289,-4.1673135E-4,-2.068262E-4,0.0057032597,18.0,-0.99835366,1.2713574,9.672503,-0.004068272,0.00466516,0.097399116,0.06236411,-0.054275867,-0.978739,2017-01-07 23:33:38,51.137296115217616
-0.9904785,1.2454376,9.50264,-1.1342408E-4,9.320763E-4,-0.0042342083,18.0,-0.99574065,1.2692077,9.673056,-0.0014553297,0.0025154704,0.08433077,0.062126506,-0.05434822,-0.9793329,2017-01-07 23:33:39,53.79773390208151
-1.0002747,1.2748718,9.532074,9.2784886E-4,9.6224895E-4,0.004528432,18.0,-1.004079,1.2750914,9.671419,-0.02341392,0.022019485,0.10993542,0.06254301,-0.05473506,-0.9795324,2017-01-07 23:33:40,47.56573608950453
-1.0296936,1.255249,9.473221,8.7643194E-4,-0.0013357353,-0.0050313585,18.0,-1.0152061,1.2687143,9.671097,-0.06178173,0.015642324,0.17771462,0.06294254,-0.054288656,-0.9795413,2017-01-07 23:33:41,45.823614117355234
-1.0198975,1.2356415,9.54187,-0.002388723,5.162143E-4,0.0043712403,18.0,-1.0083734,1.2677978,9.671932,-4.6761753E-4,0.014725899,0.1513094,0.06261792,-0.054165322,-0.97955745,2017-01-07 23:33:42,53.362914580045604
-0.9806671,1.2748718,9.571289,9.6600637E-4,-4.1149397E-4,-0.0012977644,19.0,-0.9891313,1.2743006,9.673064,-0.008466267,0.02122859,0.09796026,0.06186942,-0.05466239,-0.97912437,2017-01-07 23:33:43,38.99275697419272
-0.9904785,1.2748718,9.571289,-1.4071692E-4,5.4545264E-4,-0.0029562507,18.0,-1.0070784,1.2597144,9.673122,0.014447615,0.020262804,0.15249984,0.06251384,-0.053862177,-0.97960824,2017-01-07 23:33:44,53.12928252070506
-0.9904785,1.2944794,9.483032,0.0019096924,-0.0021609766,-0.0103264,18.0,-0.9980087,1.2788926,9.671545,-0.017343726,-0.0014199986,0.15092283,0.06256821,-0.054539397,-0.97832364,2017-01-07 23:33:45,51.01081163720896
-0.9806671,1.2454376,9.522263,-1.8263556E-4,-8.043402E-4,-0.01271397,18.0,-1.0015572,1.2792277,9.671135,-0.03451256,0.026155822,0.13689181,0.062456645,-0.054815277,-0.97941613,2017-01-07 23:33:46,56.77570596523276
-1.010086,1.2748718,9.561478,-2.1719684E-4,5.8184913E-4,0.0017600113,19.0,-0.98504215,1.2705251,9.673978,-0.0043771076,0.017453149,0.12611458,0.061395284,-0.05473781,-0.97996557,2017-01-07 23:33:47,50.41151288534824
-0.95124817,1.2748718,9.561478,0.0010748331,5.5147044E-4,-0.0014226652,19.0,-1.0037619,1.2640584,9.672901,0.0041438187,-0.0026339334,0.11141684,0.06247784,-0.054061722,-0.9793139,2017-01-07 23:33:48,40.37023393219358
-0.9904785,1.2160187,9.492844,4.0647126E-4,-0.0013335454,-0.0073341858,19.0,-1.0009283,1.2733576,9.671975,-0.020263217,0.020285664,0.13773227,0.062319763,-0.054594684,-0.97951657,2017-01-07 23:33:49,55.79224904709968
-1.0002747,1.2454376,9.610519,0.0018147833,-2.750128E-4,-0.008142374,19.0,-1.0153017,1.269851,9.670938,-0.02101629,0.016779052,0.082213394,0.06329386,-0.05402195,-0.9786362,2017-01-07 23:33:50,52.723561892138086
-1.0133514,1.3010101,9.584366,9.1553543E-4,0.001731104,0.0028299298,19.0,-1.0193622,1.2803131,9.66913,-0.025076872,0.013620763,0.12126715,0.063415706,-0.05475372,-0.97927755,2017-01-07 23:33:51,46.279266288141194
-1.010086,1.2650604,9.522263,-8.1854506E-4,6.6030014E-4,0.003168713,19.0,-1.0254518,1.2779067,9.668806,-0.003925701,0.0112143,0.1481828,0.063897766,-0.054268703,-0.9784921,2017-01-07 23:33:52,29.737319034821024
-0.9610443,1.284668,9.522263,-9.092479E-4,-4.5452354E-4,0.0046108784,19.0,-1.0004789,1.2731631,9.672048,-0.03343424,0.020091135,0.15142411,0.062349617,-0.054511175,-0.9792783,2017-01-07 23:33:53,48.97126574077077
-1.039505,1.261795,9.532059,1.0928043E-4,0.0020245055,0.0025178404,18.0,-0.99167156,1.2867475,9.671156,0.029854469,0.03367553,0.15053293,0.062229943,-0.05516607,-0.9789393,2017-01-07 23:33:54,43.72592567130293
-0.9708557,1.255249,9.50264,-5.705389E-4,-0.0014631902,5.659047E-4,19.0,-1.0159945,1.2766992,9.669963,-0.033093814,0.03645328,0.13605966,0.062866226,-0.054683704,-0.97972864,2017-01-07 23:33:55,42.268809672951505
-0.9904785,1.284668,9.54187,0.0022620019,-0.0018513874,-0.014426436,19.0,-0.9991636,1.27645,9.671749,-0.0048004575,-0.0047092205,0.16486655,0.062314868,-0.054757547,-0.97938204,2017-01-07 23:33:56,47.486008790145775
-1.0002747,1.255249,9.532059,-0.0015060889,7.553918E-4,-0.003533819,18.0,-1.0009195,1.2826533,9.670748,-0.020254489,0.02958138,0.1637451,0.06239631,-0.05506116,-0.97963727,2017-01-07 23:33:57,47.693876816849
-1.0133514,1.3271637,9.558212,0.003722723,3.0563393E-4,0.0022041039,18.0,-1.0135041,1.2856313,9.669042,-0.0055984207,-0.03554236,0.121178195,0.06321346,-0.055104464,-0.9790662,2017-01-07 23:33:58,55.53565987687061
-0.9904785,1.284668,9.492844,-0.0031418446,-7.3540735E-4,-1.9512625E-4,19.0,-1.0022849,1.2913709,9.669445,-0.007999481,0.024678463,0.17606278,0.062533975,-0.05525482,-0.97934717,2017-01-07 23:33:59,39.99089742669993
-1.0002747,1.2650604,9.5516815,-9.88301E-4,0.0018725812,0.013830496,18.0,-1.0053201,1.2852981,9.669939,-0.011034735,0.018605774,0.16293707,0.06267555,-0.05517283,-0.97945225,2017-01-07 23:34:00,56.82653652426307
-0.9708557,1.284668,9.54187,7.2184205E-4,-0.0019735957,-0.004389843,19.0,-0.9924539,1.2818048,9.671733,-0.025409192,0.0014921156,0.13748953,0.06203149,-0.055029113,-0.97923386,2017-01-07 23:34:01,49.400043181949655
-1.0002747,1.2356415,9.571289,0.0,0.0,0.0,17.0,-0.9990411,1.2838144,9.670789,-0.0035560753,0.05957655,0.109215505,0.062444936,-0.055069685,-0.9788679,2017-01-07 23:34:02,45.501150750978084
-1.0002747,1.261795,9.571289,0.00292059,-1.9592164E-6,-0.0057680593,9.0,-1.0191118,1.2863202,9.66836,-0.03844668,0.033248227,0.13411686,0.06352942,-0.055004157,-0.9790049,2017-01-07 23:34:03,41.749852359381364
-1.039505,1.2258301,9.50264,-0.0016354728,0.0019330955,0.0030078245,18.0,-1.0157727,1.2851173,9.668871,-0.035107683,-0.008815734,0.14824763,0.06357117,-0.054618068,-0.97826153,2017-01-07 23:34:04,45.28945903886467
-1.0264282,1.2879486,9.532059,0.0014368771,-6.218712E-4,-0.006382976,18.0,-1.0293764,1.2755522,9.668699,-0.02147071,-0.032001145,0.13445604,0.06388987,-0.054375667,-0.9791207,2017-01-07 23:34:05,48.540053862332826
-0.9871979,1.2356415,9.532059,-0.0011064314,-5.041691E-4,0.006957796,17.0,-1.0189463,1.2834593,9.668758,-0.02608911,0.030682672,0.14794505,0.06345774,-0.054848384,-0.97915095,2017-01-07 23:34:06,50.29704779881587
-1.010086,1.255249,9.522263,-5.018649E-4,2.9235945E-5,-0.0019817445,13.0,-1.037598,1.2634637,9.669408,-0.029692259,0.037632406,0.10792363,0.0641381,-0.053553663,-0.9789783,2017-01-07 23:34:07,46.642960825703014
-0.9708557,1.2454376,9.532059,-2.790891E-4,3.888357E-4,0.0027265928,14.0,-1.0056871,1.2513182,9.674357,-0.052262805,-0.028994467,0.140114,0.062533684,-0.053262938,-0.97897744,2017-01-07 23:34:08,35.86501506160302
-0.9708557,1.2650604,9.561478,-7.7886845E-4,2.304786E-4,-0.0018762401,14.0,-1.0073861,1.2746125,9.671139,-0.040341467,0.021540541,0.09603492,0.062720165,-0.054521874,-0.97933894,2017-01-07 23:34:09,52.9445586469756
-0.9871979,1.2487183,9.50592,-1.3955335E-4,0.0019959805,0.0044366037,15.0,-1.008732,1.2946687,9.668335,-0.013062323,0.05578199,0.12053974,0.06293939,-0.055591177,-0.97929966,2017-01-07 23:34:10,41.04105399522904
-0.9871979,1.3010101,9.558212,0.001065647,-4.8909377E-4,-0.003735235,15.0,-1.0039518,1.281021,9.670649,-0.02328673,7.0838863E-4,0.122785136,0.06247047,-0.055084005,-0.97977996,2017-01-07 23:34:11,56.70791884763836
-0.9806671,1.2454376,9.50264,-8.88227E-4,5.1506393E-4,0.0010177316,14.0,-0.98642355,1.2657846,9.6744585,-0.0057585537,-9.0769754E-4,0.15383577,0.061690807,-0.054161813,-0.9791186,2017-01-07 23:34:12,49.66171966016478
-1.010086,1.255249,9.571289,0.001496424,-0.0010391065,-0.009777969,15.0,-1.0120952,1.2749048,9.6706085,-0.017809888,0.008212507,0.08188419,0.06301146,-0.05448331,-0.9791598,2017-01-07 23:34:13,48.92720097519742
-1.0002747,1.2748718,9.50264,-2.9981785E-4,0.0017839255,0.0037807864,15.0,-1.000133,1.2696193,9.672548,-0.01946806,0.030167669,0.1519254,0.062376797,-0.054326046,-0.9792539,2017-01-07 23:34:14,53.435433994867594
-0.9610443,1.2944794,9.512451,-9.730578E-6,-3.059464E-4,0.0021965785,16.0,-1.0013963,1.2676241,9.672679,-0.034351703,-0.012688542,0.15205675,0.06257043,-0.05400051,-0.97856337,2017-01-07 23:34:15,52.847937443986936
-1.0002747,1.2454376,9.561478,-0.0013949733,5.9015915E-4,-0.0028558443,16.0,-1.0018506,1.2636914,9.673146,0.0060551274,0.024239836,0.1389036,0.06231479,-0.05404453,-0.97950363,2017-01-07 23:34:16,53.67037022347734
-0.9708557,1.255249,9.50264,7.3374715E-4,-0.0013364773,0.0019863264,15.0,-1.0066388,1.2623641,9.672824,-0.03959411,0.022912532,0.13858022,0.06224902,-0.05428333,-0.9802889,2017-01-07 23:34:17,56.03966832743353
-1.039505,1.2879486,9.518982,1.1068652E-4,0.0019153063,0.0049179504,14.0,-0.99143094,1.2784477,9.672281,0.028754009,-0.0013879928,0.1514582,0.061865706,-0.055033986,-0.97975755,2017-01-07 23:34:18,36.53162647472079
-1.0133514,1.2748718,9.584366,-2.8726555E-4,-0.0014849681,-0.008208512,14.0,-1.014279,1.2833726,9.669261,-0.0063733147,0.016680332,0.107776485,0.063019894,-0.055026256,-0.9796577,2017-01-07 23:34:19,60.412680551945456
-0.9904785,1.2748718,9.443802,-4.71439E-4,-5.077874E-4,0.0036678794,15.0,-1.008781,1.2893665,9.669038,-0.027057907,0.008868107,0.29837322,0.06290364,-0.05528051,-0.9792769,2017-01-07 23:34:20,54.859267334765974
-1.0296936,1.2356415,9.50264,0.0,0.0,0.0,15.0,-1.0013608,1.2806293,9.67097,-0.0070753647,0.054798022,0.20482811,0.062379234,-0.054754782,-0.97934693,2017-01-07 23:34:21,39.93902148949173
-0.9806671,1.2258301,9.512451,0.0,0.0,0.0,14.0,-1.0049919,1.2735864,9.671524,-0.023491338,0.062312216,0.19172484,0.06265676,-0.054453272,-0.9789142,2017-01-07 23:34:23,53.07165649683684
-0.9806671,1.2454376,9.659546,-5.4948898E-5,0.0017697647,0.0068575065,15.0,-0.9951668,1.2616483,9.674104,-8.8140706E-4,0.022196662,-0.050824415,0.062033597,-0.05401629,-0.979304,2017-01-07 23:34:24,36.29437633639765
-1.0133514,1.2748718,9.5451355,0.0017266282,9.5003255E-4,0.001944116,15.0,-1.0070665,1.2670395,9.672167,8.3932147E-4,3.4728393E-4,0.13792348,0.062764354,-0.054278165,-0.97924066,2017-01-07 23:34:25,60.00313056891798
-1.0133514,1.2356415,9.571289,-2.3629355E-4,-0.0016543408,-0.007276069,15.0,-1.012611,1.2823695,9.669567,-0.0053276187,0.030401686,0.14873396,0.06316233,-0.054721422,-0.9788735,2017-01-07 23:34:26,50.071614171965145
-1.0002747,1.2650604,9.5811,-0.0011575212,5.778887E-4,0.0045408932,15.0,-1.0153506,1.2772847,9.669953,-0.034685582,0.024212819,0.10846981,0.0629936,-0.054754198,-0.97979045,2017-01-07 23:34:27,47.62417051981338
-0.9806671,1.2650604,9.561478,0.0,0.0,0.0,15.0,-1.0051726,1.2689636,9.672112,-0.010887175,0.05675266,0.1514898,0.06258103,-0.054237455,-0.9791447,2017-01-07 23:34:28,48.54863736792609
-1.0002747,1.2879486,9.5451355,0.0033520234,7.618203E-4,-0.0057850946,15.0,-1.0044501,1.265977,9.672578,-0.025511654,0.0022892475,0.15138255,0.06266163,-0.054344673,-0.97933054,2017-01-07 23:34:29,49.035241209635274
-0.9871979,1.261795,9.518982,-8.8354707E-4,5.7922476E-5,0.0044067544,15.0,-1.0062058,1.2852248,9.669857,-0.0391612,-0.008708285,0.14923441,0.062777646,-0.055030305,-0.97906125,2017-01-07 23:34:30,40.89314101354148
-1.010086,1.284668,9.5811,-0.0015050115,-9.5566164E-4,-0.004753791,15.0,-0.99886036,1.274327,9.67206,0.009045386,0.021255087,0.11057638,0.06204968,-0.05465438,-0.9798852,2017-01-07 23:34:31,52.53438822083305
-0.9708557,1.3042908,9.522263,5.2284735E-4,-0.0012065405,-0.0030688182,15.0,-0.99566174,1.268752,9.673123,-0.014996702,-0.011560648,0.11163963,0.061843015,-0.054611158,-0.9800647,2017-01-07 23:34:32,52.5054777608544
-0.9904785,1.2650604,9.561478,-3.3971627E-4,-7.4354827E-4,-1.6852563E-4,15.0,-0.98785937,1.2777821,9.672735,0.006426,0.011089809,0.1929735,0.06149166,-0.05515731,-0.9801786,2017-01-07 23:34:33,52.253839196759245
-1.0002747,1.2454376,9.473221,0.0,0.0,0.0,15.0,-0.99688065,1.262985,9.673754,0.01102507,0.03715367,0.18037152,0.06230833,-0.05383682,-0.97871554,2017-01-07 23:34:34,51.29929458616925
-0.9806671,1.284668,9.453613,0.002390282,-0.001113975,-0.0071322843,15.0,-1.0146329,1.2704265,9.670933,-0.033967946,0.0037341856,0.21841104,0.06308232,-0.054280877,-0.9791975,2017-01-07 23:34:35,55.963865812930926
-1.0002747,1.2650604,9.571289,-5.9136667E-4,8.352058E-4,-0.002704216,15.0,-1.0153207,1.2765656,9.670053,-0.007414959,0.037113972,0.12218825,0.063076906,-0.05460951,-0.97973526,2017-01-07 23:34:36,45.172532610743936
-1.0133514,1.2748718,9.571289,4.0649547E-4,-0.0019601367,-0.0043569272,15.0,-1.0000647,1.270689,9.672416,-0.007068195,0.0039713196,0.16528222,0.06212851,-0.05460532,-0.9798874,2017-01-07 23:34:37,46.29312249988165
-1.0002747,1.2748718,9.623596,-4.9012844E-5,6.804195E-4,0.006095486,16.0,-0.99665874,1.2884454,9.670418,-0.0025234718,0.021073133,0.040906765,0.062422205,-0.055237062,-0.97893333,2017-01-07 23:34:38,58.794578331252154
-0.9806671,1.2748718,9.718384,9.402351E-4,-9.985226E-4,-0.0107959965,18.0,-1.0092474,1.2883369,9.6691265,-0.028582446,0.03526491,0.012300212,0.06271713,-0.055451896,-0.9799647,2017-01-07 23:34:39,55.193389431549676
-1.0002747,1.2650604,9.532059,-0.0012649767,8.1722817E-4,0.0067677484,18.0,-1.0008138,1.2647384,9.673118,-0.020148806,0.05252758,0.20697623,0.062455863,-0.053828213,-0.9786717,2017-01-07 23:34:40,48.649099899049645
-1.0002747,1.2356415,9.54187,6.2129024E-4,-1.9765841E-5,-0.0056512137,19.0,-0.994762,1.273428,9.672602,-4.7665814E-4,0.020356014,0.13835825,0.062339544,-0.054322604,-0.9785285,2017-01-07 23:34:41,47.301776703921746
-0.9218292,1.2944794,9.600708,6.5363204E-4,6.202186E-4,7.625208E-4,14.0,-0.9922326,1.2741911,9.672761,-0.025187958,-0.006121529,0.08403648,0.061868336,-0.054803103,-0.9797167,2017-01-07 23:34:42,41.26290273029011
-1.0133514,1.3140869,9.623596,3.6390743E-4,0.0019912054,-0.0018884025,14.0,-1.0033373,1.2850528,9.670178,-0.009051932,-0.022500508,0.054212872,0.06289829,-0.054845702,-0.97852725,2017-01-07 23:34:43,42.63208614690118
-0.9904785,1.284668,9.5811,-4.3485424E-4,0.0016473803,0.004481878,15.0,-1.0004116,1.2961156,9.669005,0.0074940384,0.015802978,0.13476197,0.062684715,-0.055605978,-0.97902566,2017-01-07 23:34:44,58.46909653742827
-0.95124817,1.284668,9.54187,9.966921E-4,-4.6424696E-4,-0.005917607,15.0,-0.99892247,1.2895676,9.670034,-0.01825745,0.009254878,0.12217079,0.06263143,-0.05519682,-0.97870606,2017-01-07 23:34:45,48.51904327120343
-0.9904785,1.2650604,9.50264,2.6014528E-5,7.355055E-4,0.0031477676,15.0,-0.9986834,1.2825938,9.670986,-0.0043980987,0.029521836,0.15036336,0.062355634,-0.05505687,-0.9793685,2017-01-07 23:34:46,47.57338020917699
-1.0133514,1.2748718,9.558212,-1.412116E-4,0.0019980571,-0.0019108162,15.0,-1.0092183,1.3044448,9.666969,-0.0013126543,0.037752528,0.11910572,0.06309924,-0.05607363,-0.97939754,2017-01-07 23:34:47,40.70438249348777
-1.0133514,1.2879486,9.584366,-9.413862E-4,1.7899742E-4,0.0030873676,15.0,-1.0194936,1.3127757,9.664763,-0.012052997,0.046962623,0.13035181,0.064011045,-0.05604932,-0.978186,2017-01-07 23:34:48,48.38897762560432
-1.039505,1.3042908,9.512451,-4.2755852E-4,-2.5820258E-4,0.0035057988,14.0,-1.0128474,1.2930263,9.668124,0.008678669,-0.028147353,0.2019825,0.06322607,-0.055358257,-0.9790219,2017-01-07 23:34:49,50.60511462858148
-0.9904785,1.2650604,9.571289,-4.0642548E-4,-0.0019844885,-0.00899393,15.0,-0.9913153,1.2877133,9.671063,0.00276549,0.008696543,0.10938675,0.06221503,-0.055193763,-0.9787348,2017-01-07 23:34:50,41.19157080994164
-1.0002747,1.2748718,9.561478,-2.1340603E-4,-0.001558652,0.0024259284,15.0,-0.98469704,1.2907593,9.671334,-0.004032006,0.01044668,0.1098498,0.06173766,-0.055516314,-0.97914016,2017-01-07 23:34:51,43.00051278709547
-0.9741211,1.3010101,9.571289,8.42013E-4,0.0011384006,0.007967581,15.0,-1.0000907,1.3034817,9.668047,-0.019425664,-0.0040715975,0.09294324,0.06255094,-0.056230396,-0.9795611,2017-01-07 23:34:52,54.79359209789256
-0.9904785,1.2650604,9.561478,-0.0017222216,8.2091166E-4,0.0036166545,14.0,-0.9992023,1.2767326,9.671707,0.008703401,-0.0035800799,0.13746458,0.062235113,-0.054819945,-0.9796729,2017-01-07 23:34:53,45.14460254094303
-1.0198975,1.2748718,9.5811,4.8321194E-4,0.0015301364,0.0017316366,14.0,-1.0112594,1.2980664,9.667614,-0.029232848,0.030677268,0.10636657,0.062947825,-0.05586014,-0.9797518,2017-01-07 23:34:54,48.201647055135396
-1.0198975,1.284668,9.54187,-0.0023023596,0.0048539257,0.014566698,15.0,-1.0107944,1.2922329,9.668444,0.010731614,0.011920194,0.13420083,0.06353374,-0.05491588,-0.97790885,2017-01-07 23:34:55,53.2375020859407
-0.9871979,1.2879486,9.584366,3.7443082E-4,-0.0025299424,-0.008857389,14.0,-1.0265708,1.2999299,9.66575,-0.034282807,0.034064274,0.13118313,0.06387727,-0.055788923,-0.97955894,2017-01-07 23:34:56,47.22871619308806
-0.9871979,1.2879486,9.571289,5.991064E-4,3.8441003E-4,4.3585815E-4,15.0,-1.0157079,1.2998284,9.666911,-0.021422494,0.019515757,0.11904752,0.06355963,-0.055558868,-0.9786449,2017-01-07 23:34:57,50.254004045019855
-0.9806671,1.2650604,9.5516815,-0.0016899474,5.9033866E-4,0.010991071,14.0,-1.0083338,1.2952915,9.668292,-0.026004106,0.02800312,0.10706156,0.0631451,-0.055326976,-0.9785241,2017-01-07 23:34:58,41.467200045538476
-0.9708557,1.3140869,9.571289,0.0013564987,1.8773528E-4,-0.007466142,14.0,-1.0016878,1.2850863,9.670344,0.0062179617,0.0047735437,0.12248088,0.062662095,-0.0550401,-0.9789948,2017-01-07 23:34:59,53.16424246630541
-1.0002747,1.2944794,9.54187,-7.5176737E-4,0.0017059081,0.0043380004,14.0,-1.0133085,1.2982192,9.667379,-0.0190232,0.004286182,0.1331359,0.06314952,-0.055818044,-0.97964585,2017-01-07 23:35:00,44.258260363089136
-1.0002747,1.2454376,9.483032,-0.0017759902,-0.0018891523,-0.0015276452,15.0,-0.9949272,1.2915667,9.670179,-0.027882578,0.052115142,0.13593662,0.06250895,-0.05512175,-0.97824657,2017-01-07 23:35:01,45.77701213130705
-0.93162537,1.2258301,9.5516815,7.170182E-4,7.3889346E-4,-0.0068054153,14.0,-0.99788105,1.2859954,9.670618,-0.058077056,0.019303044,0.109134026,0.06253577,-0.05502826,-0.9788098,2017-01-07 23:35:02,50.713651317119556
-0.9708557,1.255249,9.571289,-1.4169476E-4,0.0027918501,0.0033159687,15.0,-1.0022452,1.2833277,9.670521,-0.03520048,0.016635442,0.14989781,0.06294419,-0.054638945,-0.97814095,2017-01-07 23:35:03,45.80364124932725
-1.010086,1.2748718,9.5516815,0.0011210204,0.0016984397,1.9659597E-4,14.0,-1.0002786,1.286651,9.670282,0.0076270495,0.033579096,0.21776178,0.06279443,-0.054949604,-0.9784273,2017-01-07 23:35:04,52.05708818610874
-1.010086,1.2944794,9.590912,3.5261747E-4,-0.0012184047,-0.00406259,14.0,-1.007532,1.2969644,9.668153,-0.026867015,0.0030314084,0.21563113,0.06304062,-0.055548627,-0.9788646,2017-01-07 23:35:05,53.55084623903879
-0.9806671,1.2650604,9.522263,0.0,0.0,0.0,15.0,-1.0122311,1.2785764,9.670109,-0.045186404,0.039124727,0.12224561,0.0629782,-0.054592635,-0.97913206,2017-01-07 23:35:06,57.3251507557363
-0.9806671,1.2454376,9.512451,0.0017375734,0.001235384,0.003064002,14.0,-1.0016671,1.2737077,9.671853,0.0062385374,-0.020225288,0.1239889,0.0626208,-0.05442354,-0.9787752,2017-01-07 23:35:07,48.643897963887774
-1.0264282,1.2748718,9.584366,-7.0031727E-4,0.003965023,0.004775126,14.0,-1.0001419,1.2905501,9.669778,0.035004497,0.023857845,0.12191391,0.062579095,-0.05542472,-0.9793744,2017-01-07 23:35:08,52.59293450688464
-0.9904785,1.284668,9.561478,-1.07260494E-4,-0.0013780729,-0.0060912305,14.0,-1.0119143,1.2899928,9.668626,-0.031249216,0.009680098,0.13438289,0.06325917,-0.055057514,-0.97865206,2017-01-07 23:35:09,50.57243265968238
-1.0198975,1.2650604,9.5516815,7.66103E-4,9.852964E-5,-0.005017993,14.0,-1.0064282,1.2781497,9.670773,-0.012142884,-0.0021628868,0.16377005,0.06286721,-0.054699298,-0.9790269,2017-01-07 23:35:10,51.816078227745564
-0.9806671,1.2454376,9.512451,-7.931472E-4,-9.632105E-4,-0.003314098,14.0,-0.9939077,1.2782642,9.672052,3.7773102E-4,0.025192115,0.1514291,0.06186789,-0.0550407,-0.9799731,2017-01-07 23:35:11,45.20201854173311
-0.9708557,1.2944794,9.5516815,0.0023470947,-7.316841E-4,-0.008484294,14.0,-0.99744314,1.273805,9.6722765,-0.0031577693,0.0071126707,0.17889425,0.06224353,-0.0546222,-0.9792974,2017-01-07 23:35:12,43.4502344144699
-1.0002747,1.2748718,9.561478,-7.3067157E-4,1.9050772E-4,9.0728723E-4,14.0,-1.0004216,1.2958792,9.669036,-0.006136285,0.02918692,0.14841308,0.06276422,-0.05545066,-0.97863173,2017-01-07 23:35:13,51.48755752865243
-1.0198975,1.2356415,9.561478,6.9318956E-4,3.1344997E-4,-0.0077928477,15.0,-1.0080457,1.2815791,9.67015,-0.027380668,0.042127557,0.108665995,0.062905595,-0.054829847,-0.9791395,2017-01-07 23:35:14,54.46017666052693
-1.0002747,1.2944794,9.522263,8.6093E-4,3.303933E-4,0.003519434,15.0,-1.0117441,1.2883202,9.668868,-0.031079106,0.035248175,0.1073841,0.0631203,-0.055178348,-0.97911274,2017-01-07 23:35:15,47.95411493923004
-1.010086,1.2748718,9.5516815,-0.0013606003,8.0239515E-5,0.007527475,14.0,-1.0124633,1.2903696,9.668519,-0.031798303,0.010056999,0.10703577,0.06327723,-0.05508315,-0.9786597,2017-01-07 23:35:16,44.57161321247309
-0.9806671,1.2944794,9.532059,-3.6421823E-4,0.0010225414,0.002928338,14.0,-1.0095527,1.2858719,9.669421,-0.015267297,0.005559245,0.01259533,0.063246295,-0.054752752,-0.97828436,2017-01-07 23:35:17,46.211178134557144
-1.0002747,1.2944794,9.571289,-0.0011707151,7.280911E-4,0.0025415304,14.0,-1.0050879,1.2858936,9.669885,-0.03804318,0.005580963,0.1628822,0.06284303,-0.054913245,-0.978898,2017-01-07 23:35:18,58.64038056131442
-1.0264282,1.261795,9.558212,0.0011595648,1.05549065E-4,-0.009371153,14.0,-1.0020626,1.3057814,9.667533,0.033083837,0.066329785,0.1332897,0.06264198,-0.056294814,-0.97971857,2017-01-07 23:35:19,46.98735041759698
-1.0133514,1.2748718,9.5451355,0.001058778,-2.0831136E-4,0.002682473,14.0,-1.0232844,1.3029349,9.665695,-0.0017583458,0.036242645,0.13145165,0.063982315,-0.05567586,-0.9785351,2017-01-07 23:35:20,42.4934218087752
-1.010086,1.2944794,9.571289,-8.76133E-4,-7.855488E-4,0.0016719262,14.0,-1.0153029,1.2902364,9.66824,-0.009314837,0.011243811,0.17447911,0.06341293,-0.055048816,-0.9786684,2017-01-07 23:35:21,49.63251463192272
-0.9871979,1.261795,9.5451355,-1.5699983E-4,-9.26246E-4,-0.008459994,14.0,-1.0221131,1.3012698,9.666043,-0.02782771,0.048197858,0.11817963,0.063909896,-0.055406522,-0.97844,2017-01-07 23:35:22,54.01686977974208
-0.9904785,1.2944794,9.512451,9.826785E-4,-0.0012702895,-0.0048881755,14.0,-1.0012224,1.2818048,9.670829,0.0066832933,0.015112463,0.13658506,0.062427446,-0.05502368,-0.97943807,2017-01-07 23:35:23,40.85460126360057
-1.0002747,1.2748718,9.54187,-5.310582E-4,3.4193735E-4,-5.4564467E-4,14.0,-1.0094479,1.296556,9.668006,-0.01516255,0.029863717,0.13376272,0.06281161,-0.05583739,-0.9799962,2017-01-07 23:35:24,49.89502979518109
-0.9806671,1.2650604,9.571289,3.5244416E-4,-2.9384607E-4,-7.0150004E-4,14.0,-1.0156951,1.3001006,9.666876,-0.021409713,0.01978791,0.11901261,0.06345455,-0.055676904,-0.9789584,2017-01-07 23:35:25,44.821027057344196
-0.9871979,1.3140869,9.532059,-3.9577013E-4,2.1800154E-4,7.017929E-4,8.0,-1.0087277,1.3009734,9.667488,-0.014442315,0.034281146,0.22858724,0.06277102,-0.05614181,-0.9801392,2017-01-07 23:35:26,48.14824038117186
-1.0002747,1.2487183,9.610519,0.0023987417,-0.0014784031,-0.010106182,7.0,-1.0045079,1.3039855,9.667521,0.030638507,0.037293226,0.16051959,0.06279125,-0.056271017,-0.9795147,2017-01-07 23:35:27,54.552752680517216
-1.0002747,1.3140869,9.532059,8.696504E-4,6.9490816E-5,-0.0018490301,6.0,-1.0123945,1.3001505,9.667216,-0.018109163,0.0062175468,0.11935262,0.0633634,-0.055666607,-0.978773,2017-01-07 23:35:28,55.51040842118571
-0.9806671,1.3042908,9.512451,2.867792E-4,-2.818686E-4,-0.0011097982,7.0,-1.0064906,1.320377,9.6650915,-0.012691139,0.04036859,0.15799652,0.06303233,-0.056931715,-0.97941005,2017-01-07 23:35:29,48.37727170952114
-0.9806671,1.2650604,9.54187,-9.027314E-4,1.460369E-4,7.4638694E-4,7.0,-1.0010294,1.2976245,9.668738,-0.00674398,0.030932171,0.1889765,0.062531166,-0.05581358,-0.9795424,2017-01-07 23:35:30,58.60948519767206
-0.9708557,1.255249,9.5516815,3.6473884E-4,7.020361E-4,0.011417046,8.0,-0.9990476,1.2874302,9.670306,-0.059243605,0.04797849,0.17692402,0.06252546,-0.05521755,-0.97865736,2017-01-07 23:35:31,54.36275772911952
-0.9708557,1.2356415,9.571289,8.827526E-4,-0.0010099636,-0.008730874,16.0,-0.9959679,1.2920055,9.670014,-0.028923286,0.038933627,0.13577119,0.062481444,-0.055340804,-0.97874445,2017-01-07 23:35:32,39.25282540073014
-1.010086,1.284668,9.5811,3.8544685E-4,0.0025604013,0.007934931,17.0,-0.9898607,1.2867731,9.671338,0.004424701,0.020080743,0.15071501,0.06216571,-0.05523043,-0.9789334,2017-01-07 23:35:33,54.90273278582818
-0.9904785,1.284668,9.5811,0.0014099354,-0.0015518803,-0.0038872329,17.0,-0.9974762,1.2999293,9.668797,-0.016811162,0.0059962072,0.107312605,0.062672496,-0.05569344,-0.9784186,2017-01-07 23:35:34,46.038462169624765
-1.0296936,1.2748718,9.5516815,-3.8089915E-4,0.001081509,8.804943E-4,17.0,-1.0008202,1.293376,9.669329,-0.020155147,0.026683709,0.17594722,0.06272564,-0.05541876,-0.97894216,2017-01-07 23:35:35,50.069835622021834
-0.9806671,1.2454376,9.5516815,0.0027171767,-0.0020928236,-0.011045298,16.0,-1.0035343,1.29473,9.668867,-0.050109997,0.014417272,0.13462314,0.06264261,-0.05573853,-0.979412,2017-01-07 23:35:36,42.600513033894
-0.9708557,1.2748718,9.50264,-0.0010474521,0.0013958537,0.0059389765,16.0,-1.0022943,1.2872233,9.669998,-0.021629285,0.034151457,0.122134216,0.062637046,-0.055159017,-0.97915965,2017-01-07 23:35:37,48.90585059278649
-0.9806671,1.284668,9.54187,0.0011875747,-0.0021380642,-0.008148189,17.0,-0.99486446,1.2929624,9.669998,-5.791183E-4,0.053510826,0.13575539,0.062188927,-0.0556291,-0.97938764,2017-01-07 23:35:38,50.88786068842489
-0.9806671,1.284668,9.590912,-9.1525074E-4,6.9085084E-4,-2.7997367E-4,16.0,-0.99003655,1.2706319,9.673454,-0.02299182,0.03118032,0.07110945,0.061746318,-0.054541193,-0.979703,2017-01-07 23:35:39,47.38037045044842
-1.0002747,1.3140869,9.597443,9.957405E-4,6.0280436E-4,-1.961425E-4,17.0,-0.98392165,1.3004068,9.67012,-0.030497286,-0.0071465466,0.122257255,0.061644264,-0.056311373,-0.9798811,2017-01-07 23:35:40,60.60196995019638
-1.0002747,1.3402405,9.610519,0.0018089088,-0.0012443196,-0.010327023,17.0,-0.9908561,1.3085334,9.668317,0.003429299,0.014600474,0.0932126,0.062359914,-0.056312308,-0.9788287,2017-01-07 23:35:41,54.99466048139585
-0.95124817,1.2454376,9.492844,-3.6158715E-4,-7.2831166E-4,-0.0011953379,16.0,-0.9980463,1.2976558,9.669043,-0.058242284,0.017343206,0.13479938,0.062268313,-0.05584792,-0.97945523,2017-01-07 23:35:42,50.4380930405107
-0.9806671,1.2944794,9.54187,-0.0019633623,0.0021747916,0.014923544,16.0,-0.9899114,1.2940696,9.67036,-0.009246358,0.013756996,0.20421876,0.06215754,-0.055531625,-0.97885305,2017-01-07 23:35:43,54.620100390058795
-1.0296936,1.2650604,9.492844,1.2082263E-4,-8.749736E-4,-0.0029955357,16.0,-0.98303,1.3047733,9.669622,-0.0023650015,0.024460657,0.17624068,0.06200148,-0.056028944,-0.9785185,2017-01-07 23:35:44,55.086914691516895
-1.0002747,1.3140869,9.473221,-0.0014171813,0.002176868,0.014891699,16.0,-0.98479456,1.2842802,9.672187,-0.0041294782,-0.050513916,0.26052654,0.06177936,-0.05516035,-0.9790601,2017-01-07 23:35:45,51.205526820608
-0.9806671,1.2748718,9.54187,6.388968E-4,-0.0024727145,-0.014805427,16.0,-1.0020988,1.2952653,9.668944,-0.035054166,0.014952745,0.12108093,0.06268655,-0.05556087,-0.9790921,2017-01-07 23:35:46,45.46810339352386
-1.0264282,1.3140869,9.5451355,0.0011352245,0.0017545506,0.0016123087,16.0,-1.0050242,1.296704,9.668448,0.016501807,-0.01084935,0.12058464,0.06285764,-0.055812974,-0.9793995,2017-01-07 23:35:47,47.01153405115636
-0.9741211,1.2748718,9.518982,1.8511174E-4,-6.752839E-4,-0.0028053147,16.0,-1.0087731,1.3085684,9.666458,-0.04172842,0.0010149379,0.11859445,0.063376285,-0.055918254,-0.9782231,2017-01-07 23:35:48,57.77358372414575
-0.9904785,1.2944794,9.590912,-8.084135E-4,-0.0011981588,2.9978464E-5,15.0,-0.9972407,1.3016584,9.668588,-0.030196039,-0.005894994,0.17520484,0.06253148,-0.05580282,-0.97874075,2017-01-07 23:35:49,44.30137128715082
-1.0133514,1.3140869,9.518982,-0.0016639997,-9.673442E-5,0.0032339636,15.0,-1.0008706,1.2941183,9.669225,-0.006585198,1.8528046E-4,0.14860179,0.06252238,-0.055542678,-0.97931194,2017-01-07 23:35:50,52.41137928617728
-1.0133514,1.3010101,9.532059,0.002019699,5.0541287E-4,-0.016593017,15.0,-1.0031502,1.2994903,9.668268,0.004755462,0.03279807,0.14764494,0.06287609,-0.055855095,-0.97931635,2017-01-07 23:35:51,39.214701412257696
-0.95124817,1.2650604,9.512451,-5.913193E-4,8.841229E-4,0.008689232,14.0,-1.0093917,1.3111305,9.666047,-0.055967372,0.044438213,0.1045626,0.063278414,-0.056233007,-0.97876877,2017-01-07 23:35:52,60.06628079093878
-0.9610443,1.2748718,9.479767,-8.2063634E-4,0.0020450624,0.0074201194,15.0,-0.99665993,1.3025506,9.668529,-0.043235604,0.049478505,0.18876618,0.062588595,-0.055921912,-0.978931,2017-01-07 23:35:53,50.168007311139405
-1.0002747,1.3140869,9.584366,0.0018743073,-9.2063745E-4,-0.003415093,15.0,-1.0031176,1.2996217,9.668254,-0.008832152,-0.021551972,0.12039011,0.062820084,-0.055865515,-0.97899145,2017-01-07 23:35:54,55.13712756990092
