ACC_X,ACC_Y,ACC_Z,GYRO_X,GYRO_Y,GYRO_Z,LIGH_1,GRAV_X,GRAV_Y,GRAV_Z,LINACC_X,LINACC_Y,LINACC_Z,ROTVEC_X,ROTVEC_Y,ROTVEC_Z,TIME,VOICE
0.099999994,0.13,9.7699995,0.01,0.0,0.0,160.0,0.07,0.12,9.8,-0.04,-0.01,0.02,0.0072999997,1.0E-4,0.5523,2017-06-01 10:28:59,12.575754626790856
0.07,0.12,9.78,0.01,0.0,0.0,160.0,0.08,0.12,9.8,-0.01,0.0,-0.01,0.0074,0.0,0.551,2017-06-01 10:29:00,45.639333557813984
0.06,0.11,9.76,0.01,0.0,0.0,160.0,0.07,0.13,9.8,-0.01,0.01,0.01,0.0077,2.9999999E-4,0.55189997,2017-06-01 10:29:01,50.79275301191197
0.12,-0.03,9.87,0.01,0.0,0.0,160.0,0.089999996,0.17,9.8,-0.08,-0.01,0.21,0.0099,7.0E-4,0.5336,2017-06-01 10:29:02,43.314758347898575
0.08,0.049999997,9.0199995,0.01,0.0,0.0,160.0,0.089999996,0.16,9.8,0.099999994,-0.03,-0.39,0.0094,4.9999997E-4,0.5401,2017-06-01 10:29:03,54.00465779165853
0.03,0.089999996,9.38,0.01,0.0,0.0,160.0,0.08,0.14999999,9.8,-0.11,0.12,-0.06,0.0089,7.0E-4,0.54289997,2017-06-01 10:29:04,55.70194686803621
0.06,0.099999994,9.7699995,0.01,0.0,0.0,160.0,0.08,0.14999999,9.8,-0.03,-0.02,-0.02,0.0088,8.0E-4,0.5446,2017-06-01 10:29:05,49.96912306574478
0.08,0.13,9.73,0.01,0.0,0.0,160.0,0.08,0.14,9.8,0.0,-0.049999997,-0.02,0.008599999,4.9999997E-4,0.5453,2017-06-01 10:29:06,50.267511207608806
0.22,0.32,8.96,0.01,0.0,0.0,160.0,0.08,0.14999999,9.8,0.06,0.16,-0.42999998,0.0088,5.9999997E-4,0.5459,2017-06-01 10:29:07,48.31766662573648
0.049999997,0.13,9.69,0.01,0.0,0.0,160.0,0.08,0.14999999,9.8,-0.02,-0.04,-0.01,0.0087,5.9999997E-4,0.5463,2017-06-01 10:29:08,58.862730282097715
0.089999996,0.08,9.69,0.01,0.0,0.0,160.0,0.08,0.14,9.8,0.0,-0.07,-0.08,0.008599999,4.9999997E-4,0.5469,2017-06-01 10:29:09,37.5043991322221
0.089999996,0.16,9.74,0.01,0.0,0.0,160.0,0.08,0.14,9.8,0.01,0.0,0.01,0.008599999,4.0E-4,0.5477,2017-06-01 10:29:10,44.34465965814844
0.049999997,-0.04,10.11,0.01,0.0,0.0,160.0,0.08,0.14,9.8,0.02,0.0,0.16,0.0087,4.0E-4,0.54789996,2017-06-01 10:29:11,34.93072840332562
0.06,0.14999999,9.8,0.01,-0.01,0.0,160.0,0.07,0.14,9.8,0.01,0.049999997,-0.17999999,0.0083,7.0E-4,0.54789996,2017-06-01 10:29:12,60.05668910851725
0.14,0.11,9.809999,0.01,-0.02,0.0,40.0,0.14,0.22,9.8,-0.29999998,0.39,0.35999998,0.0138,-5.9999997E-4,0.505,2017-06-01 10:29:13,49.73148711470141
5.14,0.56,7.8199997,-0.24,-0.08,0.01,40.0,5.06,-0.12,8.389999,0.16,0.62,-1.0799999,0.1463,-0.2244,0.54609996,2017-06-01 10:29:14,56.797761076966694
4.27,-0.32999998,8.65,0.0,-0.02,0.01,40.0,4.3399997,0.14,8.78,-0.02,-0.14999999,-0.19999999,0.124299996,-0.1907,0.5045,2017-06-01 10:29:15,55.34518573537063
4.04,-0.42,8.78,-0.03,0.08,0.0,40.0,4.0299997,0.06,8.929999,-0.049999997,0.11,0.41,0.106699996,-0.1812,0.4834,2017-06-01 10:29:16,36.52440030836682
3.6399999,-0.38,8.9,-0.02,0.0,0.01,40.0,3.72,-0.02,9.07,-0.01,-0.03,0.19,0.092599995,-0.17,0.47509998,2017-06-01 10:29:17,54.12357034456103
6.2999997,-1.4399999,7.74,0.03,-0.07,0.07,40.0,5.8799996,-0.63,7.8199997,0.099999994,-0.08,-0.39999998,0.124699995,-0.2927,0.4637,2017-06-01 10:29:18,51.628528115107684
4.25,-0.89,8.46,0.13,0.48,-0.14999999,40.0,4.61,-0.26999998,8.639999,-0.26999998,-0.02,-0.06,0.1016,-0.2207,0.4581,2017-06-01 10:29:19,49.36693659855927
0.72999996,-0.26,11.389999,0.0,-0.13,0.0,40.0,0.34,0.7,9.7699995,-0.17,-0.049999997,1.38,0.039899997,1.0E-4,0.44869998,2017-06-01 10:29:20,41.702559554069836
0.08,0.11,9.7699995,0.01,0.0,0.0,160.0,0.13,0.61,9.78,0.0,0.049999997,0.049999997,0.0309,0.0083,0.45949998,2017-06-01 10:29:21,51.24648775833177
0.12,0.12,9.91,0.01,0.0,0.0,160.0,0.11,0.5,9.79,-0.01,0.06,0.14,0.0255,0.0066,0.46409997,2017-06-01 10:29:22,37.82188877871159
0.16,0.22,9.67,0.01,0.0,0.0,160.0,0.11,0.42999998,9.79,-0.03,-0.01,-0.25,0.0221,0.0050999997,0.46769997,2017-06-01 10:29:23,46.25667919430679
0.11,0.099999994,9.75,0.01,0.0,0.0,160.0,0.11,0.37,9.79,-0.03,0.03,0.02,0.0198,0.0039,0.4707,2017-06-01 10:29:24,47.054795674506934
0.13,0.13,9.73,0.01,0.0,0.0,160.0,0.11,0.34,9.8,-0.01,0.01,-0.03,0.018,0.0030999999,0.473,2017-06-01 10:29:25,24.799128408681433
0.13,0.13,9.74,0.01,0.0,0.0,160.0,0.11,0.29999998,9.8,-0.02,0.04,0.0,0.0165,0.0023999999,0.4746,2017-06-01 10:29:26,35.077269055692575
0.099999994,0.12,9.73,0.01,0.0,0.0,160.0,0.11,0.28,9.8,-0.01,0.02,0.02,0.0154,0.0018,0.47579998,2017-06-01 10:29:27,40.182988655576665
0.099999994,0.08,9.76,0.01,0.0,0.0,160.0,0.11,0.26,9.8,0.03,0.02,-0.06,0.0144,0.0013,0.477,2017-06-01 10:29:28,40.34234590619678
0.07,0.17,9.76,0.01,0.0,0.0,160.0,0.099999994,0.24,9.8,0.03,-0.01,0.02,0.013499999,9.999999E-4,0.4784,2017-06-01 10:29:29,33.308857913849145
0.11,0.14,9.73,0.01,0.0,0.0,160.0,0.099999994,0.22,9.8,0.0,0.0,0.0,0.0128,5.9999997E-4,0.47939998,2017-06-01 10:29:30,42.34448594074831
0.04,0.13,9.99,0.01,0.0,0.0,160.0,0.11,0.21,9.8,-0.02,0.01,0.13,0.0122,2.9999999E-4,0.4802,2017-06-01 10:29:31,45.92764502775972
0.099999994,0.13,9.73,0.01,0.0,0.0,160.0,0.099999994,0.19999999,9.8,0.02,0.0,0.02,0.0117,0.0,0.48099998,2017-06-01 10:29:32,44.67106709467806
0.089999996,0.12,9.75,0.01,0.0,0.0,160.0,0.099999994,0.19,9.8,0.02,0.0,-0.01,0.0112,-1.0E-4,0.48189998,2017-06-01 10:29:33,44.85843030870505
0.099999994,0.099999994,9.71,0.01,0.0,0.0,160.0,0.099999994,0.17999999,9.8,0.0,0.01,0.0,0.0109,-2.9999999E-4,0.4825,2017-06-01 10:29:34,33.62950149119104
0.099999994,0.13,9.75,0.01,0.0,0.0,160.0,0.099999994,0.17,9.8,0.02,0.0,0.02,0.0106,-4.0E-4,0.4829,2017-06-01 10:29:35,33.860992245844734
0.13,0.14,9.63,0.01,0.0,0.0,160.0,0.11,0.17,9.8,0.01,-0.02,0.03,0.0103,-7.0E-4,0.4834,2017-06-01 10:29:36,34.66732403378686
0.06,0.089999996,9.809999,0.01,0.0,0.0,160.0,0.099999994,0.16,9.8,-0.07,0.0,0.01,0.01,-8.0E-4,0.4838,2017-06-01 10:29:37,46.958161031603886
-0.03,0.13,9.65,0.01,0.0,0.0,160.0,0.099999994,0.14999999,9.8,0.04,-0.01,-0.089999996,0.0098,-9.0E-4,0.4843,2017-06-01 10:29:38,38.24379593333318
0.099999994,0.16,9.75,0.01,0.0,0.0,160.0,0.099999994,0.14999999,9.8,0.01,-0.02,0.08,0.0095999995,-9.999999E-4,0.48479998,2017-06-01 10:29:39,56.487817717015986
0.089999996,0.099999994,9.75,0.01,0.0,0.0,160.0,0.099999994,0.14999999,9.8,0.0,0.0,0.0,0.0094,-9.999999E-4,0.4852,2017-06-01 10:29:40,51.11687711223819
0.03,0.07,9.73,0.01,0.0,0.0,160.0,0.099999994,0.14,9.8,-0.03,0.0,-0.06,0.0092,-0.0011999999,0.4858,2017-06-01 10:29:41,52.08402507172145
0.13,0.17999999,9.67,0.01,0.0,0.0,160.0,0.099999994,0.14,9.8,0.04,-0.049999997,0.089999996,0.009,-0.0011999999,0.486,2017-06-01 10:29:43,68.84754446855109
0.089999996,0.08,9.73,0.01,0.0,0.0,160.0,0.099999994,0.14,9.8,-0.049999997,0.03,0.089999996,0.0089,-0.0013,0.48619998,2017-06-01 10:29:44,57.132132502666565
0.02,0.17999999,9.88,0.01,0.0,0.0,160.0,0.099999994,0.13,9.8,-0.03,-0.089999996,0.099999994,0.0088,-0.0013,0.4865,2017-06-01 10:29:45,53.22181090326542
0.12,0.13,9.75,0.01,0.0,0.0,160.0,0.099999994,0.13,9.8,0.0,0.0,-0.04,0.0088,-0.0014,0.4868,2017-06-01 10:29:46,47.7805550277802
0.13,0.13,9.83,0.01,0.0,0.0,160.0,0.099999994,0.13,9.8,0.03,-0.01,0.04,0.0087,-0.0014,0.487,2017-06-01 10:29:47,50.62967207820946
0.12,0.099999994,9.78,0.01,0.0,0.0,160.0,0.099999994,0.13,9.8,0.01,-0.01,0.0,0.008599999,-0.0015,0.4872,2017-06-01 10:29:48,28.89989592991872
0.049999997,0.14999999,9.76,0.01,0.0,0.0,160.0,0.099999994,0.13,9.8,0.0,0.0,0.03,0.0084999995,-0.0015,0.4872,2017-06-01 10:29:49,50.27706343634996
0.14999999,0.19,9.83,0.01,0.0,0.0,160.0,0.099999994,0.13,9.8,-0.02,-0.01,0.04,0.0084999995,-0.0015,0.4872,2017-06-01 10:29:50,38.99042081721496
0.049999997,0.099999994,9.78,0.01,0.0,0.0,160.0,0.099999994,0.13,9.8,0.0,0.0,-0.02,0.0084999995,-0.0015,0.4872,2017-06-01 10:29:51,57.64584231886364
0.089999996,0.11,9.76,0.01,0.0,0.0,160.0,0.099999994,0.13,9.8,-0.01,0.03,0.0,0.0084999995,-0.0015,0.4874,2017-06-01 10:29:52,56.557394064356515
0.01,0.08,9.54,0.01,0.0,0.0,160.0,0.099999994,0.13,9.8,-0.02,0.03,0.14999999,0.0084,-0.0014,0.48729998,2017-06-01 10:29:53,55.58870310092079
0.17,0.13,9.71,0.01,0.0,0.0,160.0,0.099999994,0.13,9.8,-0.06,0.02,0.13,0.0084,-0.0014,0.4874,2017-06-01 10:29:54,47.500768857654506
0.089999996,0.13,9.76,0.01,0.0,0.0,90.0,0.099999994,0.12,9.8,0.02,-0.02,0.0,0.0083,-0.0014,0.4877,2017-06-01 10:29:55,56.95764854106101
0.11,0.16,9.78,0.01,0.0,0.0,160.0,0.099999994,0.12,9.8,-0.08,0.049999997,0.13,0.0083,-0.0014,0.4879,2017-06-01 10:29:56,54.41280665081747
0.099999994,0.06,9.66,0.01,0.0,0.0,160.0,0.099999994,0.13,9.8,0.03,0.0,0.19,0.0083,-0.0013,0.48799998,2017-06-01 10:29:57,44.02244131940637
-0.14,0.37,10.429999,0.01,0.0,0.0,160.0,0.099999994,0.13,9.8,0.06,0.08,0.19,0.0084,-0.0014,0.4879,2017-06-01 10:29:58,42.81826715569756
0.08,0.08,9.719999,0.01,0.0,0.0,160.0,0.099999994,0.12,9.8,0.0,0.02,0.11,0.0083,-0.0014,0.4879,2017-06-01 10:29:59,59.41076919888897
0.13,0.12,9.8,0.01,0.0,0.0,160.0,0.099999994,0.12,9.8,0.0,0.049999997,0.11,0.0082,-0.0015,0.4877,2017-06-01 10:30:00,48.345732033175636
0.07,0.089999996,9.69,0.01,0.0,0.0,160.0,0.099999994,0.12,9.8,0.04,0.01,-0.14,0.0082,-0.0015,0.4877,2017-06-01 10:30:01,66.47329122517638
0.14,0.02,9.99,0.01,0.0,0.0,160.0,0.099999994,0.12,9.8,-0.08,0.0,0.12,0.0082,-0.0015,0.4876,2017-06-01 10:30:02,57.49927809129226
0.089999996,0.099999994,9.75,0.01,0.0,0.0,160.0,0.099999994,0.12,9.8,0.02,-0.02,0.0,0.0082,-0.0015,0.4876,2017-06-01 10:30:03,58.2594482913776
0.14,0.17,9.809999,0.01,0.0,0.0,160.0,0.099999994,0.12,9.8,0.0,0.0,-0.16,0.0082,-0.0015,0.4874,2017-06-01 10:30:04,60.28665526001892
0.089999996,0.13,9.719999,0.01,0.0,0.0,160.0,0.099999994,0.12,9.8,-0.049999997,0.0,-0.04,0.0082,-0.0015,0.4872,2017-06-01 10:30:05,40.15488362962081
0.099999994,0.12,9.71,0.01,0.0,0.0,160.0,0.099999994,0.12,9.8,-0.02,0.02,0.01,0.0081,-0.0015,0.48709998,2017-06-01 10:30:06,46.70046708661063
0.06,0.089999996,9.809999,0.01,0.0,0.0,160.0,0.099999994,0.12,9.8,0.0,0.01,0.04,0.0081,-0.0015,0.487,2017-06-01 10:30:07,42.19924989868573
0.08,0.17999999,9.76,0.01,0.0,0.0,160.0,0.099999994,0.12,9.8,0.049999997,-0.03,-0.02,0.0082,-0.0015,0.4869,2017-06-01 10:30:08,62.53732071148653
0.06,0.099999994,9.8,0.01,0.0,0.0,160.0,0.099999994,0.12,9.8,0.04,-0.049999997,0.26999998,0.0081,-0.0015,0.4872,2017-06-01 10:30:09,55.081445590066366
-0.28,-0.66999996,9.82,0.01,-0.01,0.0,160.0,0.099999994,0.12,9.8,-0.06,0.049999997,0.0,0.0081,-0.0015,0.4874,2017-06-01 10:30:10,60.43667240228821
0.14,0.13,9.78,0.01,0.0,0.0,160.0,0.099999994,0.12,9.8,0.0,0.0,0.0,0.0082,-0.0016,0.48729998,2017-06-01 10:30:11,59.740831600515236
0.049999997,0.16,9.719999,0.01,0.0,0.0,160.0,0.099999994,0.12,9.8,0.02,0.049999997,0.01,0.0082,-0.0016999999,0.48709998,2017-06-01 10:30:12,62.11478918493771
0.11,0.13,9.7,0.01,0.0,0.0,160.0,0.099999994,0.12,9.8,-0.01,0.01,0.02,0.0083,-0.0016999999,0.487,2017-06-01 10:30:13,56.68826093109375
0.049999997,0.21,9.7,0.01,0.0,0.0,160.0,0.099999994,0.12,9.8,0.02,0.049999997,-0.16,0.0082,-0.0016999999,0.48659998,2017-06-01 10:30:14,40.66929679254261
0.0,0.089999996,9.91,0.01,0.0,0.0,160.0,0.11,0.12,9.8,0.049999997,-0.08,-0.14,0.0084999995,-0.0021,0.4865,2017-06-01 10:30:15,63.03333500853586
0.19,-0.11,9.9,0.01,0.0,0.0,160.0,0.11,0.12,9.8,0.04,-0.099999994,-0.14999999,0.0084999995,-0.0022,0.48619998,2017-06-01 10:30:16,58.87898979466893
0.08,0.14,9.74,0.01,0.0,0.0,160.0,0.11,0.12,9.8,0.0,-0.049999997,0.01,0.0084999995,-0.0021,0.4863,2017-06-01 10:30:17,61.24394827095256
0.14999999,0.13,9.78,0.01,0.0,0.0,160.0,0.11,0.12,9.8,0.02,0.02,-0.01,0.0084999995,-0.0021,0.48619998,2017-06-01 10:30:18,64.93341531530416
0.099999994,0.14,9.809999,0.01,0.0,0.0,160.0,0.11,0.12,9.8,0.0,-0.01,0.0,0.0084999995,-0.0021,0.486,2017-06-01 10:30:19,59.73725675198985
0.12,0.11,9.5199995,0.01,0.0,0.0,160.0,0.11,0.12,9.8,-0.13,0.11,0.099999994,0.008599999,-0.0021,0.486,2017-06-01 10:30:20,56.170517626180114
0.099999994,0.16,9.91,0.01,0.0,0.0,160.0,0.11,0.12,9.8,0.0,-0.02,0.0,0.008599999,-0.0022,0.48589998,2017-06-01 10:30:21,59.40247461200451
0.01,0.16,9.92,0.01,0.0,0.0,160.0,0.11,0.12,9.8,0.14999999,-0.04,-0.25,0.0084999995,-0.0021,0.48589998,2017-06-01 10:30:22,45.00094056371132
0.11,0.12,9.75,0.01,0.0,0.0,160.0,0.11,0.12,9.8,0.02,0.0,-0.01,0.0084999995,-0.0019999999,0.48589998,2017-06-01 10:30:23,42.38629568798252
0.14,0.19,9.49,0.01,0.0,0.0,160.0,0.11,0.12,9.8,0.07,0.11,-0.28,0.0084,-0.0019999999,0.4858,2017-06-01 10:30:24,46.081388188666736
0.11,0.14999999,9.78,0.01,0.0,0.0,160.0,0.11,0.12,9.8,0.0,0.0,0.0,0.0084,-0.0019999999,0.486,2017-06-01 10:30:25,40.18918148722359
0.11,0.14,9.78,0.01,0.0,0.0,160.0,0.11,0.12,9.8,-0.01,-0.02,0.0,0.0084,-0.0019999999,0.4858,2017-06-01 10:30:26,31.417448699004602
0.14999999,0.17,9.7,0.01,0.0,0.0,160.0,0.11,0.12,9.8,0.03,-0.06,0.08,0.0084,-0.0019999999,0.4858,2017-06-01 10:30:27,27.029141292653907
0.089999996,0.16,9.78,0.01,0.0,0.0,160.0,0.11,0.12,9.8,0.0,0.0,0.06,0.0084,-0.0019999999,0.48589998,2017-06-01 10:30:28,45.31551110503283
0.12,0.14,9.74,0.01,0.0,0.0,160.0,0.11,0.12,9.8,0.03,-0.03,0.01,0.0084,-0.0019999999,0.4856,2017-06-01 10:30:29,44.026370452374415
0.16,0.04,9.559999,0.01,0.0,0.0,160.0,0.11,0.12,9.8,0.0,-0.07,0.0,0.0084,-0.0019999999,0.48529997,2017-06-01 10:30:30,36.84725909328644
0.12,0.12,9.719999,0.01,0.0,0.0,160.0,0.11,0.12,9.8,0.0,-0.01,0.0,0.0084,-0.0019999999,0.48549998,2017-06-01 10:30:31,42.55852708202696
0.11,0.14999999,10.01,0.01,0.0,0.0,160.0,0.11,0.12,9.8,-0.099999994,0.11,0.04,0.0084,-0.0018,0.48549998,2017-06-01 10:30:33,27.846103284439515
0.07,0.13,9.7699995,0.01,0.0,0.0,160.0,0.11,0.12,9.8,-0.01,0.07,0.02,0.0083,-0.0016999999,0.48549998,2017-06-01 10:30:33,49.627556779475526
0.08,0.08,9.719999,0.01,0.0,0.0,160.0,0.11,0.12,9.8,0.01,-0.01,-0.02,0.0083,-0.0018,0.4852,2017-06-01 10:30:35,38.89863688800816
0.11,0.089999996,9.73,0.01,0.0,0.0,160.0,0.11,0.12,9.8,-0.01,0.0,0.0,0.0083,-0.0018,0.48499998,2017-06-01 10:30:36,42.2856045041728
0.14,0.11,9.8,0.01,0.0,0.0,160.0,0.11,0.12,9.8,0.089999996,-0.04,0.049999997,0.0083,-0.0018,0.4849,2017-06-01 10:30:37,40.80029955322636
0.13,0.16,9.78,0.01,0.0,0.0,160.0,0.099999994,0.12,9.8,0.0,0.0,-0.049999997,0.0083,-0.0016999999,0.48479998,2017-06-01 10:30:38,43.69876576317526
0.08,0.07,9.82,0.01,0.0,0.0,160.0,0.099999994,0.12,9.8,-0.03,-0.049999997,0.049999997,0.0083,-0.0016999999,0.48459998,2017-06-01 10:30:39,48.04308426537655
-0.049999997,0.17999999,9.79,0.01,0.0,0.0,160.0,0.099999994,0.12,9.8,-0.02,0.01,0.16,0.0083,-0.0016,0.48439997,2017-06-01 10:30:40,50.154374033979934
0.099999994,0.089999996,9.74,0.01,0.0,0.0,160.0,0.099999994,0.12,9.8,-0.02,-0.049999997,0.02,0.0083,-0.0016,0.48459998,2017-06-01 10:30:41,50.38374043030346
0.11,0.11,9.76,0.01,0.0,0.0,160.0,0.11,0.12,9.8,0.01,-0.01,-0.049999997,0.0083,-0.0018,0.4845,2017-06-01 10:30:42,41.930195082560935
0.07,0.17,9.74,0.01,0.0,0.0,160.0,0.11,0.12,9.8,0.03,0.0,0.03,0.0083,-0.0018,0.48459998,2017-06-01 10:30:43,38.80738416846576
0.08,0.17,9.73,0.01,0.0,0.0,160.0,0.11,0.12,9.8,0.0,-0.11,0.06,0.0083,-0.0018,0.4847,2017-06-01 10:30:44,32.90239443560821
0.08,0.11,9.719999,0.01,0.0,0.0,160.0,0.099999994,0.12,9.8,-0.01,0.01,0.02,0.0083,-0.0016999999,0.4849,2017-06-01 10:30:45,44.03297758664495
0.13,0.08,9.78,0.01,0.0,0.0,160.0,0.099999994,0.12,9.8,0.03,0.089999996,-0.089999996,0.0083,-0.0016999999,0.4849,2017-06-01 10:30:46,44.52299522130997
0.12,0.11,9.84,0.01,0.0,0.0,160.0,0.099999994,0.12,9.8,-0.01,0.03,0.0,0.0082,-0.0016999999,0.4851,2017-06-01 10:30:47,46.77924780613634
0.089999996,0.11,9.7699995,0.01,0.0,0.0,160.0,0.099999994,0.12,9.8,0.0,-0.01,-0.01,0.0082,-0.0016999999,0.4852,2017-06-01 10:30:48,43.50446814932222
0.12,0.14,9.73,0.01,0.0,0.0,160.0,0.099999994,0.12,9.8,-0.01,0.0,-0.01,0.0082,-0.0016999999,0.48529997,2017-06-01 10:30:49,34.26378446777512
0.11,0.11,9.75,0.01,0.0,0.0,160.0,0.099999994,0.12,9.8,-0.03,-0.02,0.01,0.0082,-0.0016999999,0.48549998,2017-06-01 10:30:50,38.221493642205644
0.11,0.19,9.66,0.01,0.0,0.0,160.0,0.099999994,0.12,9.8,0.0,0.01,-0.089999996,0.0082,-0.0016,0.4854,2017-06-01 10:30:51,33.308665879066034
0.099999994,0.089999996,9.8,0.01,0.0,0.0,160.0,0.099999994,0.12,9.8,-0.02,0.01,-0.03,0.0082,-0.0016,0.48529997,2017-06-01 10:30:52,38.715265881712654
0.17999999,0.21,9.55,0.01,0.0,0.0,160.0,0.099999994,0.12,9.8,-0.04,-0.01,0.31,0.0083,-0.0014,0.4852,2017-06-01 10:30:53,33.45272428809529
0.03,0.16,9.9,0.01,0.0,0.0,160.0,0.099999994,0.12,9.8,0.14999999,-0.049999997,-0.17999999,0.0083,-0.0014,0.48499998,2017-06-01 10:30:54,48.752740551325495
0.14,0.16,9.809999,0.01,0.0,0.0,160.0,0.099999994,0.12,9.8,0.0,0.03,0.0,0.0082,-0.0013,0.4854,2017-06-01 10:30:55,43.80291657206696
0.06,0.14999999,9.7,0.01,0.0,0.0,160.0,0.099999994,0.12,9.8,0.01,-0.02,0.04,0.0082,-0.0013,0.48529997,2017-06-01 10:30:56,41.57153524335201
0.11,0.089999996,9.75,0.01,0.0,0.0,160.0,0.099999994,0.12,9.8,0.0,-0.01,0.03,0.0082,-0.0014,0.48529997,2017-06-01 10:30:57,32.948301242501245
0.06,0.17,9.82,0.01,0.0,0.0,160.0,0.099999994,0.12,9.8,0.0,-0.03,0.02,0.0082,-0.0015,0.4852,2017-06-01 10:30:58,36.01810115307077
0.049999997,0.11,9.7699995,0.01,0.0,0.0,160.0,0.099999994,0.12,9.8,0.049999997,0.0,0.03,0.0083,-0.0014,0.48529997,2017-06-01 10:30:59,42.766424982122246
0.099999994,0.099999994,9.8,0.01,0.0,0.0,160.0,0.099999994,0.12,9.8,-0.04,0.02,0.03,0.0083,-0.0015,0.48529997,2017-06-01 10:31:00,43.0029251122364
0.0,0.29999998,9.86,0.01,0.0,0.0,160.0,0.099999994,0.12,9.8,0.01,-0.12,-0.01,0.0082,-0.0016,0.4851,2017-06-01 10:31:01,40.684001866542935
0.11,0.14999999,9.76,0.01,0.0,0.0,160.0,0.099999994,0.12,9.8,0.02,-0.02,0.02,0.0082,-0.0016,0.48479998,2017-06-01 10:31:02,44.269592427015425
0.089999996,0.08,9.71,0.01,0.0,0.0,160.0,0.099999994,0.12,9.8,-0.01,0.0,0.03,0.0082,-0.0016999999,0.4851,2017-06-01 10:31:03,38.436659267364554
-0.01,0.04,10.13,0.01,0.0,0.0,160.0,0.099999994,0.12,9.8,0.14999999,0.0,-0.39,0.0082,-0.0016999999,0.48529997,2017-06-01 10:31:04,42.17303824768934
0.08,0.089999996,9.78,0.01,0.0,0.0,160.0,0.099999994,0.12,9.8,0.02,0.0,-0.06,0.0082,-0.0016999999,0.48549998,2017-06-01 10:31:05,47.56920603365668
0.089999996,0.11,9.7699995,0.01,0.0,0.0,160.0,0.099999994,0.12,9.8,0.04,-0.01,0.0,0.0082,-0.0016,0.48549998,2017-06-01 10:31:06,36.11369250056183
0.089999996,0.099999994,9.7699995,0.01,0.0,0.0,160.0,0.099999994,0.12,9.8,-0.01,0.0,-0.03,0.0083,-0.0015,0.48569998,2017-06-01 10:31:07,29.513242353268456
0.099999994,0.11,9.63,0.01,0.0,0.0,160.0,0.099999994,0.12,9.8,0.049999997,0.02,-0.099999994,0.0083,-0.0015,0.48569998,2017-06-01 10:31:08,30.76094046682475
0.13,0.14,9.74,0.01,0.0,0.0,160.0,0.099999994,0.12,9.8,0.02,-0.049999997,-0.02,0.0083,-0.0015,0.486,2017-06-01 10:31:09,46.47336859412148
0.08,0.07,9.99,0.01,0.0,0.0,160.0,0.099999994,0.12,9.8,0.07,0.07,-0.26,0.0083,-0.0014,0.486,2017-06-01 10:31:10,30.775517090072046
0.13,0.11,9.7,0.01,0.0,0.0,160.0,0.099999994,0.12,9.8,-0.03,0.0,0.02,0.0083,-0.0015,0.48569998,2017-06-01 10:31:11,50.07797714962222
0.07,0.14,9.91,0.01,0.0,0.0,160.0,0.099999994,0.12,9.8,0.0,0.02,0.0,0.0082,-0.0015,0.48569998,2017-06-01 10:31:12,29.895527925704037
0.089999996,0.32,9.61,0.01,0.0,0.0,160.0,0.099999994,0.12,9.8,0.02,-0.02,-0.06,0.0082,-0.0015,0.486,2017-06-01 10:31:13,47.26673335829328
0.13,0.099999994,9.78,0.01,0.0,0.0,160.0,0.099999994,0.12,9.8,-0.02,0.03,-0.06,0.0082,-0.0015,0.4858,2017-06-01 10:31:14,49.41960118031795
0.06,0.08,10.0,0.01,0.0,0.0,160.0,0.099999994,0.12,9.8,0.0,-0.01,-0.01,0.0082,-0.0016,0.48569998,2017-06-01 10:31:15,38.06039330349618
0.06,0.12,9.7699995,0.01,0.0,0.0,160.0,0.099999994,0.12,9.8,0.03,-0.02,0.03,0.0082,-0.0016,0.48549998,2017-06-01 10:31:16,49.36768318896632
0.07,0.14,9.73,0.01,0.0,0.0,160.0,0.099999994,0.12,9.8,0.01,0.0,0.0,0.0082,-0.0015,0.4854,2017-06-01 10:31:17,21.581297551567697
0.11,0.089999996,9.7699995,0.01,0.0,0.0,160.0,0.099999994,0.12,9.8,0.01,0.049999997,-0.03,0.0082,-0.0015,0.4854,2017-06-01 10:31:19,44.21904029604811
0.14,0.08,9.37,0.01,0.0,0.0,160.0,0.099999994,0.12,9.8,-0.08,0.16,0.32999998,0.0082,-0.0015,0.4854,2017-06-01 10:31:20,34.88627270899554
0.22999999,0.16,9.3,0.01,0.0,0.0,160.0,0.099999994,0.12,9.8,-0.07,-0.02,0.24,0.0082,-0.0015,0.48499998,2017-06-01 10:31:21,43.080898533827764
0.13,0.32999998,9.55,0.01,0.0,0.0,160.0,0.099999994,0.12,9.8,0.01,0.049999997,0.11,0.0082,-0.0015,0.4849,2017-06-01 10:31:22,48.0065681880271
0.11,0.14999999,9.74,0.01,0.0,0.0,160.0,0.099999994,0.12,9.8,0.0,0.0,0.02,0.0082,-0.0015,0.48459998,2017-06-01 10:31:23,48.61582064381989
0.03,0.13,9.809999,0.01,0.0,0.0,160.0,0.099999994,0.12,9.8,-0.01,-0.049999997,0.0,0.0082,-0.0016,0.4847,2017-06-01 10:31:24,41.531072202903076
0.07,0.07,9.84,0.01,0.0,0.0,160.0,0.099999994,0.12,9.8,0.03,-0.049999997,0.16,0.0082,-0.0015,0.48479998,2017-06-01 10:31:25,47.36010805992383
0.089999996,0.099999994,9.679999,0.01,0.0,0.0,160.0,0.099999994,0.12,9.8,0.03,0.04,0.03,0.0082,-0.0016,0.48479998,2017-06-01 10:31:26,47.64375712896086
0.13,0.13,9.71,0.01,0.0,0.0,160.0,0.099999994,0.12,9.8,0.0,-0.03,0.17999999,0.0082,-0.0015,0.48459998,2017-06-01 10:31:27,35.224065326962005
0.099999994,0.11,9.74,0.01,0.0,0.0,160.0,0.099999994,0.12,9.8,0.0,0.0,-0.03,0.0082,-0.0015,0.4847,2017-06-01 10:31:28,35.087219422112696
0.07,0.11,9.78,0.01,0.0,0.0,160.0,0.099999994,0.12,9.8,0.0,0.04,-0.02,0.0083,-0.0015,0.4849,2017-06-01 10:31:29,36.61464382948073
0.12,0.089999996,9.7699995,0.01,0.0,0.0,160.0,0.099999994,0.12,9.8,0.02,-0.01,-0.01,0.0083,-0.0015,0.48479998,2017-06-01 10:31:30,34.43216523288798
0.11,0.08,9.719999,0.01,0.0,0.0,160.0,0.099999994,0.12,9.8,0.0,0.04,0.0,0.0083,-0.0015,0.4849,2017-06-01 10:31:31,42.12114744060983
0.099999994,0.13,9.75,0.01,0.0,0.0,160.0,0.099999994,0.12,9.8,-0.01,0.02,-0.02,0.0082,-0.0014,0.4849,2017-06-01 10:31:32,27.750996446672985
0.12,0.13,9.719999,0.01,0.0,0.0,160.0,0.099999994,0.12,9.8,0.0,-0.01,0.0,0.0082,-0.0014,0.4851,2017-06-01 10:31:33,31.438457597590972
0.17999999,0.22,9.5,0.01,0.0,0.0,160.0,0.099999994,0.12,9.8,0.099999994,-0.01,-0.39,0.0082,-0.0015,0.48529997,2017-06-01 10:31:34,41.19799004180568
0.0,0.089999996,10.09,0.01,0.0,0.0,160.0,0.099999994,0.12,9.8,0.07,0.13,-0.35999998,0.0083,-0.0014,0.48529997,2017-06-01 10:31:35,47.04405657277094
0.07,0.049999997,9.76,0.01,0.0,0.0,160.0,0.099999994,0.12,9.8,-0.01,-0.03,-0.03,0.0083,-0.0015,0.48549998,2017-06-01 10:31:36,48.37311515837175
0.049999997,0.089999996,9.71,0.01,0.0,0.0,160.0,0.099999994,0.12,9.8,0.06,0.0,-0.01,0.0083,-0.0015,0.48569998,2017-06-01 10:31:37,44.78428502211817
0.099999994,0.089999996,9.84,0.01,0.0,0.0,160.0,0.099999994,0.12,9.8,-0.06,-0.02,0.31,0.0083,-0.0014,0.48589998,2017-06-01 10:31:38,37.39010123949242
0.14999999,0.07,9.639999,0.01,0.0,0.0,160.0,0.099999994,0.13,9.8,-0.06,-0.06,0.21,0.0083,-0.0014,0.4858,2017-06-01 10:31:39,50.155870235890134
0.099999994,0.14,9.75,0.01,0.0,0.0,160.0,0.099999994,0.13,9.8,0.01,0.0,0.01,0.0084,-0.0014,0.4861,2017-06-01 10:31:40,47.946075246526604
-0.01,0.31,9.88,0.01,0.0,0.0,160.0,0.099999994,0.12,9.8,0.06,-0.17,-0.19999999,0.0083,-0.0014,0.486,2017-06-01 10:31:41,46.652413274981356
0.11,0.13,9.809999,0.01,0.0,0.0,160.0,0.099999994,0.12,9.8,0.0,0.0,-0.02,0.0083,-0.0013,0.48589998,2017-06-01 10:31:42,34.206307448401105
0.049999997,0.089999996,9.8,0.01,0.0,0.0,160.0,0.099999994,0.12,9.8,0.0,-0.07,0.06,0.0083,-0.0013,0.486,2017-06-01 10:31:43,34.577199045705186
0.14999999,0.13,9.66,0.01,0.0,0.0,160.0,0.099999994,0.12,9.8,-0.02,-0.01,0.04,0.0082,-0.0013,0.4861,2017-06-01 10:31:44,44.84804007887729
0.089999996,0.12,9.7699995,0.01,0.0,0.0,160.0,0.099999994,0.12,9.8,0.01,-0.01,0.03,0.0082,-0.0013,0.48619998,2017-06-01 10:31:45,40.74114297445889
0.11,0.13,9.559999,0.01,0.0,0.0,160.0,0.099999994,0.12,9.8,0.03,0.03,-0.16,0.0082,-0.0013,0.486,2017-06-01 10:31:46,42.957148818234614
0.089999996,0.02,9.87,0.01,0.0,0.0,160.0,0.099999994,0.12,9.8,-0.03,-0.08,0.24,0.0082,-0.0014,0.4865,2017-06-01 10:31:47,42.01467457814492
0.11,0.26999998,9.54,0.01,0.0,0.0,160.0,0.099999994,0.12,9.8,0.07,0.099999994,-0.42999998,0.0082,-0.0013,0.48639998,2017-06-01 10:31:48,46.837800866072996
0.03,0.13,9.92,0.01,0.0,0.0,160.0,0.099999994,0.12,9.8,-0.01,-0.04,-0.06,0.0082,-0.0013,0.48639998,2017-06-01 10:31:49,48.59576493298536
0.089999996,0.14999999,9.78,0.01,0.0,0.0,160.0,0.099999994,0.12,9.8,0.01,0.01,0.01,0.0081,-0.0014,0.486,2017-06-01 10:31:50,48.97725324703923
0.14,0.099999994,9.59,0.01,0.0,0.0,160.0,0.099999994,0.12,9.8,-0.04,0.0,0.11,0.0081,-0.0014,0.4858,2017-06-01 10:31:51,36.90257702265065
0.19999999,0.08,9.59,0.01,0.0,0.0,160.0,0.099999994,0.12,9.8,-0.04,0.0,0.14,0.0082,-0.0014,0.4858,2017-06-01 10:31:52,47.04530252837501
0.16,0.14999999,9.7,0.01,0.0,0.0,160.0,0.099999994,0.12,9.8,0.01,0.0,-0.02,0.0081,-0.0015,0.48589998,2017-06-01 10:31:53,43.518283785196594
0.099999994,0.13,9.7,0.01,0.0,0.0,160.0,0.099999994,0.12,9.8,-0.02,0.0,-0.07,0.0082,-0.0015,0.48569998,2017-06-01 10:31:54,39.46228155124153
0.07,0.24,9.96,0.01,0.0,0.0,160.0,0.099999994,0.12,9.8,0.04,-0.04,0.0,0.0083,-0.0014,0.4856,2017-06-01 10:31:55,34.82825170334867
0.08,0.11,9.65,0.01,0.0,0.0,160.0,0.099999994,0.13,9.8,0.0,-0.06,-0.11,0.0084,-0.0014,0.48529997,2017-06-01 10:31:56,46.10673499660827
0.07,0.089999996,9.75,0.01,0.0,0.0,160.0,0.099999994,0.12,9.8,0.0,0.03,0.0,0.0083,-0.0014,0.4854,2017-06-01 10:31:57,48.74467440561962
0.19999999,0.19,9.45,0.01,0.0,0.0,160.0,0.099999994,0.13,9.8,-0.12,0.049999997,0.31,0.0084,-0.0014,0.4851,2017-06-01 10:31:58,29.57184836367814
0.11,0.14999999,9.78,0.01,0.0,0.0,160.0,0.099999994,0.13,9.8,-0.01,-0.01,0.01,0.0084,-0.0014,0.4849,2017-06-01 10:31:59,43.34912613905744
0.099999994,0.11,9.7699995,0.01,0.0,0.0,160.0,0.099999994,0.12,9.8,-0.02,-0.01,0.03,0.0083,-0.0014,0.4849,2017-06-01 10:32:00,45.110904808599315
0.08,0.12,9.719999,0.01,0.0,0.0,160.0,0.099999994,0.12,9.8,-0.01,0.0,-0.03,0.0083,-0.0014,0.4851,2017-06-01 10:32:01,24.487002826288823
0.12,0.11,9.78,0.01,0.0,0.0,160.0,0.099999994,0.12,9.8,-0.03,0.04,0.12,0.0082,-0.0015,0.4852,2017-06-01 10:32:02,30.842260231103907
0.14999999,0.089999996,9.57,0.01,0.0,0.0,160.0,0.099999994,0.12,9.8,0.049999997,-0.04,-0.12,0.0082,-0.0016,0.4854,2017-06-01 10:32:04,46.222778583164015
0.07,0.13,9.88,0.01,0.0,0.0,160.0,0.099999994,0.12,9.8,0.01,0.0,0.03,0.0082,-0.0015,0.4854,2017-06-01 10:32:04,50.287443114224004
0.12,0.099999994,9.7699995,0.01,0.0,0.0,160.0,0.099999994,0.12,9.8,0.01,0.02,0.049999997,0.0083,-0.0014,0.48569998,2017-06-01 10:32:06,43.8412347661458
0.099999994,0.089999996,9.76,0.01,0.0,0.0,160.0,0.099999994,0.12,9.8,0.01,0.02,0.0,0.0082,-0.0014,0.486,2017-06-01 10:32:07,38.31578604651062
0.06,0.099999994,9.73,0.01,0.0,0.0,160.0,0.099999994,0.12,9.8,-0.03,0.02,-0.01,0.0082,-0.0014,0.48589998,2017-06-01 10:32:08,43.93521255828613
0.12,0.13,9.71,0.0,0.0,0.0,160.0,0.099999994,0.12,9.8,0.01,-0.01,0.0,0.0083,-0.0014,0.486,2017-06-01 10:32:09,25.778619018360054
0.099999994,0.13,9.7699995,0.0,0.0,0.0,160.0,0.099999994,0.12,9.8,0.07,0.049999997,-0.41,0.0083,-0.0014,0.4858,2017-06-01 10:32:10,21.987644447484342
0.099999994,0.08,9.65,0.0,0.0,0.0,160.0,0.099999994,0.12,9.8,0.03,0.02,0.0,0.0083,-0.0014,0.48589998,2017-06-01 10:32:11,48.09138794518432
0.089999996,0.11,9.73,0.0,0.0,0.0,160.0,0.099999994,0.12,9.8,-0.01,0.0,0.01,0.0083,-0.0015,0.486,2017-06-01 10:32:12,46.335375020452716
0.08,0.13,9.75,0.0,0.0,0.0,160.0,0.099999994,0.12,9.8,-0.02,0.01,0.0,0.0083,-0.0015,0.486,2017-06-01 10:32:13,25.314389984354982
0.02,0.24,10.05,0.0,0.0,0.0,160.0,0.099999994,0.13,9.8,-0.07,0.049999997,0.32999998,0.0084,-0.0014,0.48589998,2017-06-01 10:32:14,32.77869648433493
0.13,0.16,9.74,0.0,0.0,0.0,160.0,0.099999994,0.13,9.8,0.0,0.0,0.0,0.0084,-0.0014,0.48619998,2017-06-01 10:32:15,45.649296986694694
0.089999996,0.13,9.73,0.0,0.0,0.0,160.0,0.099999994,0.13,9.8,-0.02,0.0,0.03,0.0084,-0.0014,0.48619998,2017-06-01 10:32:16,35.84424431462547
0.16,0.17,9.599999,0.0,0.0,0.0,160.0,0.099999994,0.13,9.8,0.04,0.0,-0.22,0.0084999995,-0.0014,0.4858,2017-06-01 10:32:17,34.59868032114606
0.14999999,0.099999994,9.679999,0.0,0.0,0.0,160.0,0.099999994,0.13,9.8,0.0,-0.02,-0.03,0.0084999995,-0.0014,0.4861,2017-06-01 10:32:18,48.9426503597097
0.099999994,0.12,9.69,0.0,0.0,0.0,160.0,0.099999994,0.13,9.8,0.0,0.0,0.0,0.0084,-0.0013,0.486,2017-06-01 10:32:19,39.450284743963905
0.08,0.12,9.74,0.0,0.0,0.0,160.0,0.099999994,0.13,9.8,0.01,0.04,0.01,0.0084,-0.0013,0.48569998,2017-06-01 10:32:20,40.52431917918235
0.14999999,0.14,9.73,0.0,0.0,0.0,160.0,0.099999994,0.13,9.8,0.03,-0.01,0.0,0.0084,-0.0013,0.48569998,2017-06-01 10:32:21,25.769832365405513
0.04,0.19,10.059999,0.0,0.0,0.0,160.0,0.099999994,0.13,9.8,0.06,0.02,-0.35,0.0084,-0.0014,0.48569998,2017-06-01 10:32:22,38.64609277076477
0.07,0.13,9.71,0.0,0.0,0.0,160.0,0.099999994,0.13,9.8,0.04,-0.02,0.0,0.0084,-0.0013,0.48569998,2017-06-01 10:32:23,46.00779194250046
0.11,0.089999996,9.76,0.0,0.0,0.0,160.0,0.099999994,0.13,9.8,-0.04,0.0,0.01,0.0084,-0.0014,0.48549998,2017-06-01 10:32:24,31.372709495280926
0.14,0.16,9.79,0.0,0.0,0.0,160.0,0.099999994,0.13,9.8,0.01,0.0,0.12,0.0084,-0.0014,0.4858,2017-06-01 10:32:25,29.051188752424586
0.13,0.14,9.719999,0.0,0.0,0.0,160.0,0.099999994,0.12,9.8,-0.01,0.0,-0.01,0.0083,-0.0014,0.4858,2017-06-01 10:32:26,45.44276198917102
0.11,0.099999994,9.679999,0.0,0.0,0.0,160.0,0.099999994,0.12,9.8,0.01,-0.02,0.049999997,0.0083,-0.0014,0.48569998,2017-06-01 10:32:27,46.69923341982006
0.11,0.14,9.73,0.0,0.0,0.0,160.0,0.099999994,0.12,9.8,0.0,0.0,0.01,0.0083,-0.0014,0.4856,2017-06-01 10:32:28,38.099189793976926
0.04,0.19999999,9.87,0.0,0.0,0.0,160.0,0.099999994,0.12,9.8,0.07,-0.06,-0.13,0.0083,-0.0015,0.4856,2017-06-01 10:32:29,28.711223639847905
0.22999999,0.19,9.37,0.0,0.0,0.0,160.0,0.099999994,0.13,9.8,0.07,0.04,-0.22999999,0.0084,-0.0015,0.48569998,2017-06-01 10:32:30,48.20594284966799
0.08,0.19,10.01,0.0,0.0,0.0,160.0,0.099999994,0.13,9.8,0.0,0.089999996,0.14999999,0.0084,-0.0014,0.48569998,2017-06-01 10:32:31,47.42556127047081
0.12,0.16,9.79,0.0,0.0,0.0,160.0,0.099999994,0.13,9.8,0.02,0.0,-0.01,0.0084,-0.0014,0.48569998,2017-06-01 10:32:32,43.488430042968844
0.099999994,0.14,9.75,0.0,0.0,0.0,160.0,0.099999994,0.13,9.8,0.0,-0.02,0.0,0.0084999995,-0.0014,0.4858,2017-06-01 10:32:33,46.05606305830311
0.17,0.14999999,9.71,0.0,0.0,0.0,160.0,0.099999994,0.13,9.8,-0.02,0.02,0.03,0.0084999995,-0.0014,0.48569998,2017-06-01 10:32:34,24.220599330669792
0.099999994,0.13,9.8,0.0,0.0,0.0,160.0,0.099999994,0.13,9.8,0.0,-0.02,0.02,0.0084999995,-0.0014,0.4858,2017-06-01 10:32:35,42.7487532027597
0.08,0.089999996,9.74,0.0,0.0,0.0,160.0,0.099999994,0.13,9.8,-0.02,0.02,0.02,0.0084999995,-0.0013,0.486,2017-06-01 10:32:36,40.52639280526765
0.11,0.14999999,9.78,0.0,0.0,0.0,160.0,0.099999994,0.13,9.8,-0.02,0.0,0.0,0.0084999995,-0.0013,0.486,2017-06-01 10:32:37,31.945650160102236
0.089999996,0.099999994,9.7,0.0,0.0,0.0,160.0,0.099999994,0.13,9.8,0.049999997,0.02,-0.13,0.0084999995,-0.0014,0.4858,2017-06-01 10:32:38,26.318468881539804
0.08,0.12,9.73,0.0,0.0,0.0,160.0,0.099999994,0.13,9.8,0.01,-0.02,-0.02,0.0084999995,-0.0013,0.4861,2017-06-01 10:32:39,38.184220511631096
0.099999994,0.19,9.65,0.0,0.0,0.0,160.0,0.099999994,0.13,9.8,-0.13,0.06,0.39999998,0.0084999995,-0.0011999999,0.486,2017-06-01 10:32:40,40.113739514019485
0.13,0.12,9.639999,0.0,0.0,0.0,160.0,0.099999994,0.13,9.8,-0.02,0.049999997,0.0,0.0084999995,-0.0011999999,0.486,2017-06-01 10:32:41,45.10543452494902
0.089999996,0.12,9.8,0.0,0.0,0.0,160.0,0.099999994,0.13,9.8,-0.01,0.0,-0.06,0.0084999995,-0.0011,0.486,2017-06-01 10:32:42,38.76904962003136
0.07,0.089999996,9.71,0.0,0.0,0.0,160.0,0.099999994,0.13,9.8,-0.01,0.0,-0.02,0.0084999995,-0.0011999999,0.4856,2017-06-01 10:32:43,41.5903672476422
0.07,0.08,9.9,0.0,0.0,0.0,160.0,0.099999994,0.13,9.8,0.04,-0.02,-0.089999996,0.0084,-0.0011,0.4856,2017-06-01 10:32:44,41.45410627333811
0.12,0.14999999,9.809999,0.0,0.0,0.0,160.0,0.099999994,0.13,9.8,-0.01,0.04,0.04,0.0084,-0.0011,0.4856,2017-06-01 10:32:45,44.69196750205221
0.07,0.13,9.78,0.0,0.0,0.0,160.0,0.099999994,0.13,9.8,0.01,-0.03,0.02,0.0084,-0.0011,0.4856,2017-06-01 10:32:46,32.92756066851471
0.11,0.14,9.76,0.0,0.0,0.0,160.0,0.099999994,0.13,9.8,-0.03,-0.01,0.01,0.0083,-0.0011,0.48569998,2017-06-01 10:32:47,29.647221810541943
0.06,0.11,9.8,0.0,0.0,0.0,160.0,0.099999994,0.13,9.8,0.03,0.0,0.0,0.0084,-0.0011,0.48549998,2017-06-01 10:32:48,20.823224520115765
0.16,0.04,9.66,0.0,0.0,0.0,160.0,0.099999994,0.13,9.8,0.049999997,-0.01,0.06,0.0084,-0.0013,0.48549998,2017-06-01 10:32:50,29.201503424364248
0.11,0.14,9.76,0.0,0.0,0.0,160.0,0.099999994,0.13,9.8,0.0,-0.03,0.03,0.0084999995,-0.0011999999,0.4852,2017-06-01 10:32:51,42.96832319662951
0.08,0.08,9.96,0.0,0.0,0.0,160.0,0.099999994,0.13,9.8,0.01,0.06,-0.07,0.0084999995,-0.0011999999,0.4852,2017-06-01 10:32:52,44.9206786034493
0.099999994,0.14,9.7699995,0.0,0.0,0.0,160.0,0.099999994,0.13,9.8,-0.03,0.0,0.02,0.0084,-0.0011999999,0.4854,2017-06-01 10:32:53,46.27439760468043
0.13,0.16,9.719999,0.0,0.0,0.0,160.0,0.099999994,0.13,9.8,0.06,-0.04,-0.049999997,0.0084,-0.0013,0.48569998,2017-06-01 10:32:54,34.30592288320205
0.13,0.13,9.7699995,0.0,0.0,0.0,160.0,0.099999994,0.13,9.8,-0.049999997,0.02,0.02,0.0084,-0.0013,0.48589998,2017-06-01 10:32:55,33.579882302138465
0.089999996,0.11,9.7699995,0.0,0.0,0.0,160.0,0.099999994,0.13,9.8,0.03,-0.02,0.06,0.0084,-0.0013,0.48589998,2017-06-01 10:32:56,35.958160207720034
0.08,0.14,10.12,0.0,0.0,0.0,160.0,0.089999996,0.13,9.8,0.0,-0.17,0.049999997,0.0083,-9.999999E-4,0.48619998,2017-06-01 10:32:57,38.33593356212872
0.14,0.099999994,9.66,0.0,0.0,0.0,90.0,0.089999996,0.13,9.8,0.089999996,-0.07,-0.01,0.0081,-8.0E-4,0.4861,2017-06-01 10:32:58,43.5540949939615
0.099999994,0.12,9.719999,0.0,0.0,0.0,160.0,0.089999996,0.13,9.8,0.0,0.01,0.0,0.0082,-8.0E-4,0.48589998,2017-06-01 10:32:59,43.48697857558797
0.07,0.089999996,9.71,0.0,0.0,0.0,90.0,0.099999994,0.13,9.8,-0.02,0.01,-0.049999997,0.0084,-0.0013,0.4858,2017-06-01 10:33:00,35.86048475451322
0.12,0.08,9.679999,0.0,0.0,0.0,90.0,0.099999994,0.13,9.8,0.04,0.0,-0.12,0.0083,-0.0013,0.48589998,2017-06-01 10:33:01,46.608211843605446
0.19,0.13,9.87,0.0,-0.13,0.0,40.0,0.19999999,0.12,9.8,0.0,-0.02,0.08,0.0106999995,-0.0058,0.48569998,2017-06-01 10:33:02,48.86125672552109
0.75,0.089999996,9.69,0.0,0.0,0.0,40.0,0.72999996,0.11,9.7699995,-0.02,-0.01,0.01,0.0232,-0.0297,0.4845,2017-06-01 10:33:03,47.22762937359094
0.7,0.08,9.66,0.0,0.0,0.0,40.0,0.71,0.11,9.7699995,0.01,-0.01,-0.06,0.022699999,-0.029199999,0.48349997,2017-06-01 10:33:04,28.983131870178703
0.66999996,0.099999994,10.0,0.0,0.01,0.0,40.0,0.71,0.11,9.78,0.06,-0.049999997,0.03,0.022499999,-0.029,0.4827,2017-06-01 10:33:05,49.03437956422272
0.61,0.13,10.05,0.0,0.0,0.0,40.0,0.69,0.099999994,9.78,0.08,0.099999994,-0.26,0.0219,-0.028199999,0.48229998,2017-06-01 10:33:06,44.36191060309977
0.62,0.11,9.65,0.0,0.0,0.0,40.0,0.68,0.099999994,9.78,0.02,-0.01,-0.07,0.021699999,-0.0278,0.482,2017-06-01 10:33:07,50.91252706403359
0.61,0.11,9.69,0.0,0.0,0.0,40.0,0.66999996,0.099999994,9.78,0.02,-0.06,0.06,0.021499999,-0.0275,0.4815,2017-06-01 10:33:08,44.44717444002414
-0.07,0.19,10.32,0.0,-0.32,0.0,40.0,0.13,0.13,9.8,-0.19999999,0.06,0.84999996,0.0092,-0.0026999998,0.48189998,2017-06-01 10:33:09,44.66281743025985
0.12,-0.01,9.74,0.0,0.0,0.0,160.0,0.17,0.13,9.8,0.049999997,0.11,-0.26,0.010199999,-0.0044,0.48229998,2017-06-01 10:33:10,49.04426443006848
0.07,0.13,9.679999,0.0,-0.02,0.0,160.0,0.14999999,0.13,9.8,-0.01,0.049999997,-0.08,0.0099,-0.0037999998,0.48259997,2017-06-01 10:33:11,49.14495372998396
0.14,0.14999999,9.87,0.0,-0.01,0.0,160.0,0.17,0.13,9.8,0.02,0.0,-0.02,0.0103,-0.0045,0.4829,2017-06-01 10:33:12,44.65676162014658
0.12,0.12,9.71,0.0,0.0,0.0,160.0,0.13,0.13,9.8,0.03,-0.03,-0.11,0.0094,-0.0029,0.48319998,2017-06-01 10:33:13,45.71048904656534
0.08,0.099999994,9.75,0.0,0.0,0.0,160.0,0.13,0.13,9.8,0.0,0.02,-0.01,0.0092,-0.0026,0.4838,2017-06-01 10:33:14,41.60126964641626
0.22999999,0.06,9.63,0.0,0.0,0.0,160.0,0.12,0.13,9.8,0.03,-0.03,-0.19,0.009,-0.0023999999,0.4843,2017-06-01 10:33:15,25.823863257025607
0.14999999,0.07,9.73,0.0,0.0,0.0,160.0,0.12,0.13,9.8,0.0,0.0,-0.04,0.0089,-0.0023,0.4845,2017-06-01 10:33:16,42.09192645532017
0.13,0.17,9.71,0.0,0.0,0.0,160.0,0.12,0.13,9.8,0.02,-0.02,-0.02,0.0088,-0.0019999999,0.48499998,2017-06-01 10:33:17,42.87421105163858
0.0,0.07,10.0199995,0.0,0.0,0.0,160.0,0.11,0.13,9.8,-0.03,0.01,0.17,0.0087,-0.0019999999,0.48499998,2017-06-01 10:33:18,38.19336326271593
0.16,0.19,9.58,0.0,0.0,0.0,160.0,0.11,0.13,9.8,0.0,-0.02,0.16,0.0087,-0.0018999999,0.4854,2017-06-01 10:33:19,47.49230206206547
-0.01,0.16,9.849999,0.0,0.0,0.0,160.0,0.11,0.13,9.8,0.04,0.0,-0.03,0.0087,-0.0018999999,0.4856,2017-06-01 10:33:20,43.3952872636244
0.089999996,0.14,9.73,0.0,0.0,0.0,160.0,0.11,0.13,9.8,0.0,-0.01,0.0,0.008599999,-0.0018,0.48549998,2017-06-01 10:33:21,35.594469816236874
0.089999996,0.099999994,9.74,0.0,0.0,0.0,160.0,0.11,0.13,9.8,0.0,0.0,0.02,0.008599999,-0.0018,0.48569998,2017-06-01 10:33:22,39.13180890016183
0.06,0.08,9.719999,0.0,0.0,0.0,160.0,0.11,0.13,9.8,0.04,0.0,-0.02,0.008599999,-0.0016999999,0.4858,2017-06-01 10:33:23,39.0296156697736
0.08,0.16,9.7,0.0,0.0,0.0,160.0,0.11,0.12,9.8,0.01,0.0,0.01,0.0084999995,-0.0016999999,0.48589998,2017-06-01 10:33:24,44.62405617290128
0.089999996,0.12,9.71,0.0,0.0,0.0,160.0,0.11,0.12,9.8,0.01,-0.02,0.02,0.0084,-0.0016999999,0.48589998,2017-06-01 10:33:25,42.525645839194326
0.12,0.13,9.76,0.0,0.0,0.0,160.0,0.099999994,0.12,9.8,0.03,0.0,0.0,0.0084,-0.0016999999,0.4861,2017-06-01 10:33:26,23.722393667823923
0.03,0.07,9.88,0.0,0.0,0.0,160.0,0.099999994,0.12,9.8,0.03,-0.06,-0.099999994,0.0083,-0.0016999999,0.486,2017-06-01 10:33:27,39.69918144346692
0.19,0.0,9.74,0.0,0.0,0.0,160.0,0.099999994,0.12,9.8,0.04,-0.06,-0.06,0.0083,-0.0016,0.4861,2017-06-01 10:33:28,39.53450151536171
0.089999996,0.12,9.75,0.0,0.0,0.0,160.0,0.099999994,0.12,9.8,0.0,0.0,-0.049999997,0.0082,-0.0016,0.4861,2017-06-01 10:33:29,41.27634809355499
0.12,0.11,9.76,0.0,0.0,0.0,160.0,0.099999994,0.12,9.8,0.0,0.0,-0.02,0.0083,-0.0016,0.48639998,2017-06-01 10:33:30,44.25860113261207
0.06,0.08,9.73,0.0,0.0,0.0,160.0,0.099999994,0.12,9.8,-0.06,0.0,0.049999997,0.0083,-0.0015,0.4863,2017-06-01 10:33:31,37.03080360792361
0.07,0.12,9.71,0.0,0.0,0.0,160.0,0.099999994,0.12,9.8,-0.03,0.0,0.08,0.0083,-0.0016,0.48619998,2017-06-01 10:33:32,41.95117251496776
0.099999994,0.11,9.73,0.0,0.0,0.0,160.0,0.099999994,0.12,9.8,0.0,0.0,0.01,0.0083,-0.0015,0.48639998,2017-06-01 10:33:33,38.83863910126885
0.06,0.12,9.87,0.0,0.0,0.0,160.0,0.099999994,0.12,9.8,0.04,0.0,-0.12,0.0082,-0.0015,0.48639998,2017-06-01 10:33:34,29.596994380274847
0.08,0.089999996,9.809999,0.0,0.0,0.0,160.0,0.099999994,0.12,9.8,0.02,0.03,-0.11,0.0083,-0.0015,0.4865,2017-06-01 10:33:36,40.39769185418212
0.11,0.14999999,9.719999,0.0,0.0,0.0,160.0,0.099999994,0.12,9.8,0.06,-0.06,0.08,0.0083,-0.0015,0.48639998,2017-06-01 10:33:36,38.51867990160812
0.11,0.12,9.82,0.0,0.0,0.0,160.0,0.099999994,0.12,9.8,0.01,0.04,-0.17,0.0082,-0.0014,0.4863,2017-06-01 10:33:38,39.15221855670402
0.13,0.11,9.65,0.0,0.0,0.0,160.0,0.099999994,0.12,9.8,0.0,0.0,0.01,0.0082,-0.0014,0.48619998,2017-06-01 10:33:39,46.393249839965726
0.06,0.14,9.74,0.0,0.0,0.0,160.0,0.099999994,0.12,9.8,0.0,0.0,0.07,0.0082,-0.0014,0.486,2017-06-01 10:33:40,43.26353725435122
0.089999996,0.089999996,9.76,0.0,0.0,0.0,160.0,0.099999994,0.12,9.8,-0.02,0.0,-0.03,0.0082,-0.0014,0.48589998,2017-06-01 10:33:41,37.6248668040594
0.12,0.08,9.679999,0.0,0.0,0.0,160.0,0.099999994,0.12,9.8,0.03,0.0,-0.089999996,0.0081,-0.0015,0.4854,2017-06-01 10:33:42,30.86533961308893
0.08,0.12,9.67,0.0,0.0,0.0,160.0,0.099999994,0.12,9.8,-0.04,0.0,0.03,0.0081,-0.0014,0.48529997,2017-06-01 10:33:43,44.219808406829586
0.11,0.13,9.74,0.0,0.0,0.0,160.0,0.099999994,0.12,9.8,0.0,0.0,0.0,0.0081,-0.0015,0.4852,2017-06-01 10:33:44,33.34504602788326
0.08,0.13,9.69,0.0,0.0,0.0,160.0,0.099999994,0.12,9.8,0.01,0.02,-0.03,0.007999999,-0.0015,0.4851,2017-06-01 10:33:45,25.675891901820492
0.11,0.11,9.719999,0.0,0.0,0.0,160.0,0.099999994,0.12,9.8,0.01,0.03,0.01,0.007999999,-0.0015,0.4851,2017-06-01 10:33:46,37.77158321604055
0.11,0.099999994,9.75,0.0,0.0,0.0,160.0,0.099999994,0.12,9.8,0.0,0.0,0.02,0.0081,-0.0015,0.48529997,2017-06-01 10:33:47,36.09713916297879
0.06,0.12,9.75,0.0,0.0,0.0,160.0,0.099999994,0.12,9.8,0.03,0.0,0.03,0.0081,-0.0015,0.48549998,2017-06-01 10:33:48,34.76935593733379
0.08,0.11,9.809999,0.0,0.0,0.0,160.0,0.099999994,0.12,9.8,-0.04,0.0,0.07,0.007999999,-0.0015,0.4854,2017-06-01 10:33:49,36.12579922979201
0.08,0.17,9.809999,0.0,0.0,0.0,160.0,0.099999994,0.12,9.8,0.03,0.01,-0.049999997,0.007999999,-0.0014,0.48549998,2017-06-01 10:33:50,36.602167819974206
0.089999996,0.08,9.719999,0.0,0.0,0.0,160.0,0.099999994,0.12,9.8,0.0,-0.01,-0.08,0.007999999,-0.0014,0.4854,2017-06-01 10:33:51,42.99130325465727
0.14,0.14999999,9.73,0.0,0.0,0.0,160.0,0.099999994,0.12,9.8,0.0,0.0,-0.01,0.0081,-0.0014,0.4854,2017-06-01 10:33:52,36.263437763295045
0.099999994,0.12,9.719999,0.0,0.0,0.0,160.0,0.099999994,0.12,9.8,-0.01,0.03,0.01,0.007999999,-0.0014,0.48549998,2017-06-01 10:33:53,27.5877739586269
0.089999996,0.089999996,9.75,0.0,0.0,0.0,160.0,0.099999994,0.12,9.8,0.0,0.02,0.0,0.007999999,-0.0014,0.48549998,2017-06-01 10:33:54,40.40579086517557
0.07,0.16,9.71,0.0,0.0,0.0,160.0,0.099999994,0.12,9.8,-0.02,0.08,0.22999999,0.007999999,-0.0014,0.48549998,2017-06-01 10:33:55,33.540523246392304
0.19999999,0.08,9.55,0.0,0.0,0.0,160.0,0.089999996,0.12,9.8,0.04,-0.04,-0.12,0.007999999,-0.0013,0.4856,2017-06-01 10:33:56,41.55331914922209
0.089999996,0.13,9.69,0.0,0.0,0.0,160.0,0.099999994,0.12,9.8,0.0,-0.01,0.03,0.007999999,-0.0014,0.4858,2017-06-01 10:33:57,41.5071276723469
0.07,0.16,9.889999,0.0,0.0,0.0,160.0,0.099999994,0.12,9.8,-0.03,0.099999994,0.16,0.007999999,-0.0014,0.4858,2017-06-01 10:33:58,34.9481514100382
0.14999999,0.11,9.73,0.0,0.0,0.0,160.0,0.099999994,0.12,9.8,0.0,0.0,-0.01,0.007999999,-0.0014,0.48569998,2017-06-01 10:33:59,42.7361473193604
0.04,0.14999999,9.7699995,0.0,0.0,0.0,160.0,0.099999994,0.12,9.8,0.01,-0.02,0.0,0.007999999,-0.0014,0.486,2017-06-01 10:34:00,30.857771499615318
0.099999994,0.11,9.73,0.0,0.0,0.0,160.0,0.099999994,0.12,9.8,-0.04,0.04,0.0,0.007999999,-0.0013,0.48589998,2017-06-01 10:34:01,38.8849814959203
0.08,0.12,9.74,0.0,0.0,0.0,160.0,0.099999994,0.12,9.8,-0.02,0.0,0.0,0.007999999,-0.0013,0.4858,2017-06-01 10:34:02,32.6803240301743
0.04,0.06,9.73,0.0,0.0,0.0,160.0,0.099999994,0.12,9.8,-0.02,0.0,-0.01,0.007999999,-0.0013,0.48569998,2017-06-01 10:34:03,21.93004959498671
0.14,0.14,9.67,0.0,0.0,0.0,160.0,0.099999994,0.12,9.8,0.0,-0.03,-0.01,0.0081,-0.0013,0.4856,2017-06-01 10:34:04,23.447414050703586
0.099999994,0.13,9.7,0.0,0.0,0.0,160.0,0.099999994,0.12,9.8,-0.049999997,0.0,-0.01,0.0081,-0.0013,0.48549998,2017-06-01 10:34:05,47.13459483916442
0.07,0.14,9.73,0.0,0.0,0.0,160.0,0.099999994,0.12,9.8,-0.04,0.0,0.03,0.0081,-0.0014,0.4854,2017-06-01 10:34:06,49.48603446518124
0.08,0.11,9.83,0.0,0.0,0.0,160.0,0.099999994,0.12,9.8,-0.04,0.01,0.13,0.0081,-0.0014,0.48529997,2017-06-01 10:34:07,34.32639889437294
0.04,0.16,9.92,0.0,0.0,0.0,160.0,0.099999994,0.12,9.8,0.0,0.0,-0.049999997,0.0082,-0.0014,0.4852,2017-06-01 10:34:08,47.291181186323676
0.099999994,0.16,9.75,0.0,0.0,0.0,160.0,0.099999994,0.12,9.8,-0.01,0.02,0.02,0.0082,-0.0015,0.4852,2017-06-01 10:34:09,46.38213113731431
0.11,0.11,9.78,0.0,0.0,0.0,160.0,0.099999994,0.12,9.8,0.0,0.0,0.099999994,0.0082,-0.0015,0.48499998,2017-06-01 10:34:10,36.1562090354003
0.14,0.14999999,9.55,0.0,0.0,0.0,160.0,0.099999994,0.12,9.8,0.01,0.01,-0.11,0.0082,-0.0014,0.48479998,2017-06-01 10:34:11,54.004793562861906
0.049999997,0.13,9.73,0.0,0.0,0.0,160.0,0.099999994,0.12,9.8,0.01,-0.02,0.06,0.0082,-0.0014,0.4847,2017-06-01 10:34:12,47.088030502658775
0.12,0.14,9.73,0.0,0.0,0.0,160.0,0.099999994,0.12,9.8,0.0,0.0,0.01,0.0082,-0.0014,0.48479998,2017-06-01 10:34:13,43.17671564940311
0.089999996,0.099999994,9.9,0.0,0.0,0.0,160.0,0.099999994,0.12,9.8,0.01,-0.08,0.01,0.0081,-0.0014,0.4847,2017-06-01 10:34:14,37.75177584569882
0.089999996,0.13,9.719999,0.0,0.0,0.0,160.0,0.099999994,0.12,9.8,0.02,-0.01,-0.04,0.0081,-0.0014,0.4849,2017-06-01 10:34:15,43.77711355862506
0.099999994,0.19,9.92,0.0,0.0,0.0,160.0,0.099999994,0.12,9.8,0.02,-0.08,0.13,0.0081,-0.0014,0.48499998,2017-06-01 10:34:16,35.73424188517641
0.08,0.12,9.71,0.0,0.0,0.0,160.0,0.099999994,0.12,9.8,0.01,0.0,-0.04,0.0081,-0.0013,0.4852,2017-06-01 10:34:17,39.90579770670726
0.099999994,0.13,9.76,0.0,0.0,0.0,160.0,0.099999994,0.12,9.8,0.02,-0.03,-0.03,0.0082,-0.0013,0.48549998,2017-06-01 10:34:18,22.959749184695347
0.14,0.099999994,9.74,0.0,0.0,0.0,160.0,0.099999994,0.12,9.8,-0.01,-0.01,0.0,0.0082,-0.0013,0.486,2017-06-01 10:34:19,43.86441989227296
0.099999994,0.13,9.679999,0.0,0.0,0.0,160.0,0.099999994,0.12,9.8,-0.01,-0.02,-0.02,0.0081,-0.0013,0.4861,2017-06-01 10:34:20,30.939470655059985
0.11,0.07,9.71,0.0,0.0,0.0,160.0,0.099999994,0.12,9.8,0.04,-0.01,-0.11,0.0082,-0.0011999999,0.4861,2017-06-01 10:34:21,26.392734064085616
0.08,0.12,9.7699995,0.0,0.0,0.0,160.0,0.099999994,0.12,9.8,-0.01,0.02,-0.03,0.0082,-0.0013,0.4863,2017-06-01 10:34:22,42.76880242876377
0.22,0.13,9.54,0.0,0.0,0.0,160.0,0.099999994,0.12,9.8,0.08,0.04,-0.17,0.0081,-0.0013,0.4865,2017-06-01 10:34:23,39.20557216367766
0.16,0.14999999,9.679999,0.0,0.0,0.0,160.0,0.099999994,0.12,9.8,-0.01,0.02,0.049999997,0.0082,-0.0013,0.4865,2017-06-01 10:34:25,40.48051236683275
0.08,0.16,9.719999,0.0,0.0,0.0,160.0,0.099999994,0.12,9.8,0.02,0.0,0.02,0.0082,-0.0013,0.48639998,2017-06-01 10:34:26,43.085186858538584
0.16,0.12,9.65,0.0,0.0,0.0,160.0,0.099999994,0.12,9.8,0.02,-0.06,-0.14,0.0082,-0.0013,0.4863,2017-06-01 10:34:27,38.77668856170321
0.12,0.14999999,9.51,0.0,0.0,0.0,160.0,0.099999994,0.12,9.8,0.03,-0.11,-0.06,0.0081,-0.0013,0.48639998,2017-06-01 10:34:28,46.737876452071134
0.08,0.089999996,9.75,0.0,0.0,0.0,160.0,0.099999994,0.12,9.8,-0.049999997,0.01,0.03,0.0082,-0.0013,0.48659998,2017-06-01 10:34:29,41.07367857776236
0.12,0.14999999,9.719999,0.0,0.0,0.0,160.0,0.099999994,0.12,9.8,0.02,0.0,0.0,0.0082,-0.0013,0.4867,2017-06-01 10:34:30,33.15030537942745
0.12,0.089999996,9.67,0.0,0.0,0.0,160.0,0.099999994,0.12,9.8,0.01,-0.04,-0.08,0.0082,-0.0013,0.4869,2017-06-01 10:34:31,29.581460986653333
0.06,0.12,9.76,0.0,0.0,0.0,160.0,0.099999994,0.12,9.8,0.0,0.0,-0.04,0.0082,-0.0013,0.487,2017-06-01 10:34:32,41.45320799619008
0.08,0.07,9.83,0.0,0.0,0.0,160.0,0.099999994,0.12,9.8,0.0,-0.049999997,-0.08,0.0082,-0.0013,0.487,2017-06-01 10:34:33,40.206073861708106
0.089999996,0.13,9.73,0.0,0.0,0.0,160.0,0.099999994,0.12,9.8,-0.01,0.01,-0.03,0.0082,-0.0013,0.4869,2017-06-01 10:34:34,42.28642929247102
0.089999996,0.14,9.75,0.0,0.0,0.0,160.0,0.099999994,0.12,9.8,0.06,-0.03,0.0,0.0082,-0.0013,0.48709998,2017-06-01 10:34:35,28.844867059690785
0.13,0.14999999,9.66,0.0,0.0,0.0,160.0,0.099999994,0.12,9.8,-0.04,-0.01,0.17,0.0082,-0.0013,0.487,2017-06-01 10:34:36,42.8988468777299
0.12,0.11,9.8,0.0,0.0,0.0,160.0,0.099999994,0.12,9.8,0.04,0.0,0.049999997,0.0082,-0.0014,0.48709998,2017-06-01 10:34:37,44.59275575132943
0.11,0.12,9.7699995,0.0,0.0,0.0,160.0,0.099999994,0.12,9.8,0.04,0.0,0.02,0.0082,-0.0014,0.487,2017-06-01 10:34:38,41.6622225608748
0.12,0.13,9.74,0.0,0.0,0.0,160.0,0.099999994,0.12,9.8,0.0,0.01,0.06,0.0082,-0.0014,0.48659998,2017-06-01 10:34:39,38.044358126937354
0.07,0.07,9.69,0.0,0.0,0.0,160.0,0.099999994,0.12,9.8,0.04,-0.02,-0.02,0.0082,-0.0014,0.48619998,2017-06-01 10:34:40,39.5020230967043
0.11,0.089999996,9.75,0.0,0.0,0.0,160.0,0.099999994,0.12,9.8,0.0,0.0,0.02,0.0082,-0.0014,0.48619998,2017-06-01 10:34:41,48.272355992355656
0.089999996,0.14,9.87,0.0,0.0,0.0,160.0,0.099999994,0.12,9.8,-0.01,0.02,0.03,0.0082,-0.0014,0.4863,2017-06-01 10:34:42,32.687792430901595
0.089999996,0.14,9.75,0.0,0.0,0.0,160.0,0.099999994,0.12,9.8,-0.01,0.0,0.01,0.0082,-0.0014,0.486,2017-06-01 10:34:43,40.286029807889925
0.11,0.07,9.66,0.0,0.0,0.0,160.0,0.099999994,0.12,9.8,-0.049999997,0.0,0.17,0.0082,-0.0013,0.48589998,2017-06-01 10:34:44,32.53484480411124
0.11,0.13,9.74,0.0,0.0,0.0,160.0,0.099999994,0.12,9.8,0.03,0.0,0.0,0.0081,-0.0013,0.48549998,2017-06-01 10:34:45,45.27345335514739
0.11,0.12,9.7,0.0,0.0,0.0,160.0,0.099999994,0.12,9.8,0.0,-0.01,0.0,0.0081,-0.0013,0.48549998,2017-06-01 10:34:46,37.1910144287467
0.08,0.089999996,9.849999,0.0,0.0,0.0,160.0,0.099999994,0.12,9.8,0.0,-0.04,0.0,0.0081,-0.0013,0.4854,2017-06-01 10:34:47,25.207930332931518
0.049999997,0.12,9.7699995,0.0,0.0,0.0,160.0,0.089999996,0.12,9.8,-0.01,0.0,0.0,0.007999999,-0.0011999999,0.4854,2017-06-01 10:34:48,49.46355604812812
0.14999999,0.11,9.76,0.0,0.0,0.0,160.0,0.089999996,0.12,9.8,0.04,0.0,-0.12,0.007999999,-0.0011999999,0.4854,2017-06-01 10:34:49,46.680757646465736
0.099999994,0.14999999,9.809999,0.0,0.0,0.0,160.0,0.089999996,0.12,9.8,-0.03,-0.01,0.02,0.0081,-0.0011999999,0.48529997,2017-06-01 10:34:50,41.796611162277635
0.11,0.13,9.78,0.0,0.0,0.0,160.0,0.089999996,0.12,9.8,-0.04,0.03,0.0,0.0081,-0.0011999999,0.4852,2017-06-01 10:34:51,46.07104509873089
0.07,0.14999999,9.67,0.0,0.0,0.0,160.0,0.089999996,0.12,9.8,0.03,0.0,-0.02,0.0081,-0.0011999999,0.4854,2017-06-01 10:34:52,22.890416989324084
0.11,0.14999999,9.8,0.0,0.0,0.0,160.0,0.089999996,0.12,9.8,0.08,-0.01,-0.12,0.0081,-0.0011,0.48549998,2017-06-01 10:34:53,45.82053092972817
0.089999996,0.14,9.73,0.0,0.0,0.0,160.0,0.089999996,0.12,9.8,0.0,0.03,0.049999997,0.0081,-0.0011999999,0.48549998,2017-06-01 10:34:54,42.69621741349581
0.14999999,0.08,9.61,0.0,0.0,0.0,160.0,0.089999996,0.12,9.8,-0.06,0.01,0.16,0.0081,-0.0011999999,0.48529997,2017-06-01 10:34:55,43.72111826136732
0.099999994,0.11,9.76,0.0,0.0,0.0,160.0,0.099999994,0.12,9.8,-0.01,-0.01,0.01,0.0082,-0.0011999999,0.4852,2017-06-01 10:34:56,43.15065175844832
0.049999997,0.089999996,9.84,0.0,0.0,0.0,160.0,0.099999994,0.12,9.8,0.01,-0.02,-0.03,0.0082,-0.0011999999,0.4854,2017-06-01 10:34:57,40.17791070177707
0.089999996,0.13,9.75,0.0,0.0,0.0,160.0,0.099999994,0.13,9.8,0.0,0.0,0.02,0.0083,-0.0011999999,0.4854,2017-06-01 10:34:58,44.24087879108238
0.12,0.14,9.71,0.0,0.0,0.0,160.0,0.099999994,0.12,9.8,0.03,0.0,-0.03,0.0082,-0.0011999999,0.4856,2017-06-01 10:34:59,40.04234232358776
0.099999994,0.12,9.7699995,0.0,0.0,0.0,160.0,0.099999994,0.12,9.8,0.01,0.0,0.02,0.0082,-0.0011999999,0.48549998,2017-06-01 10:35:00,44.54315806983659
0.06,0.14999999,9.83,0.0,0.0,0.0,160.0,0.099999994,0.12,9.8,0.0,0.07,0.14,0.0082,-0.0013,0.48529997,2017-06-01 10:35:01,44.82178188924637
0.17,0.08,9.54,0.0,0.0,0.0,160.0,0.099999994,0.12,9.8,0.01,0.049999997,-0.08,0.0081,-0.0013,0.48499998,2017-06-01 10:35:02,44.98784268201742
0.14,0.14999999,9.62,0.0,0.0,0.0,160.0,0.099999994,0.12,9.8,0.01,0.01,0.03,0.0081,-0.0013,0.4851,2017-06-01 10:35:03,42.44342654420832
0.11,0.13,9.76,0.0,0.0,0.0,160.0,0.099999994,0.12,9.8,-0.02,0.02,0.01,0.0081,-0.0013,0.4852,2017-06-01 10:35:04,41.52177253675518
0.089999996,0.14999999,9.7,0.0,0.0,0.0,160.0,0.089999996,0.12,9.8,-0.01,-0.03,0.03,0.0081,-0.0011999999,0.4852,2017-06-01 10:35:05,42.040896838333666
0.08,0.12,9.75,0.0,0.0,0.0,160.0,0.089999996,0.12,9.8,-0.01,0.01,-0.08,0.0081,-0.0011999999,0.48479998,2017-06-01 10:35:06,40.26670452063876
0.099999994,0.19,9.75,0.0,0.0,0.0,160.0,0.099999994,0.12,9.8,0.03,-0.02,0.06,0.0082,-0.0011999999,0.48479998,2017-06-01 10:35:07,22.75992555082231
0.04,0.17999999,9.98,0.0,0.0,0.0,160.0,0.099999994,0.12,9.8,0.06,-0.04,-0.19999999,0.0082,-0.0011999999,0.48499998,2017-06-01 10:35:09,64.10836851388429
0.13,0.12,9.76,0.0,0.0,0.0,160.0,0.099999994,0.12,9.8,0.01,0.01,-0.02,0.0082,-0.0013,0.48499998,2017-06-01 10:35:09,46.067721105787314
0.07,0.12,9.75,0.0,0.0,0.0,160.0,0.099999994,0.12,9.8,0.0,-0.01,0.02,0.0082,-0.0013,0.4851,2017-06-01 10:35:11,27.17160777655211
0.12,0.089999996,9.67,0.0,0.0,0.0,160.0,0.099999994,0.12,9.8,0.0,0.0,-0.02,0.0082,-0.0013,0.48499998,2017-06-01 10:35:12,52.77944621822176
0.03,0.13,9.7699995,0.0,0.0,0.0,160.0,0.099999994,0.12,9.8,-0.01,-0.01,0.04,0.0083,-0.0013,0.48499998,2017-06-01 10:35:13,43.462622577079095
0.17999999,0.14,9.58,0.0,0.0,0.0,160.0,0.099999994,0.13,9.8,0.07,0.049999997,-0.19,0.0083,-0.0013,0.4852,2017-06-01 10:35:14,58.116570834835535
0.08,0.11,9.76,0.0,0.0,0.0,160.0,0.099999994,0.13,9.8,-0.01,0.0,0.0,0.0083,-0.0013,0.4851,2017-06-01 10:35:15,50.495993321564285
0.07,0.16,9.84,0.0,0.0,0.0,160.0,0.099999994,0.13,9.8,0.02,-0.01,-0.049999997,0.0083,-0.0013,0.48479998,2017-06-01 10:35:16,54.184435588340094
0.14,0.089999996,9.639999,0.0,0.0,0.0,160.0,0.099999994,0.13,9.8,-0.01,0.06,0.04,0.0083,-0.0013,0.48459998,2017-06-01 10:35:17,41.22523405293676
0.11,0.08,9.63,0.0,0.0,0.0,160.0,0.099999994,0.12,9.8,0.07,0.0,-0.22,0.0083,-0.0014,0.48479998,2017-06-01 10:35:18,42.68449049910249
0.11,0.13,9.7699995,0.0,0.0,0.0,160.0,0.099999994,0.12,9.8,0.04,0.03,-0.03,0.0083,-0.0014,0.48499998,2017-06-01 10:35:19,40.81698485507574
0.099999994,0.13,9.75,0.0,0.0,0.0,160.0,0.099999994,0.12,9.8,0.01,-0.02,0.0,0.0083,-0.0014,0.4851,2017-06-01 10:35:20,27.47382217410589
0.089999996,0.08,9.73,0.0,0.0,0.0,160.0,0.099999994,0.12,9.8,0.0,0.02,-0.02,0.0083,-0.0014,0.48529997,2017-06-01 10:35:21,34.24287787702215
0.16,0.099999994,9.559999,0.0,0.0,0.0,160.0,0.099999994,0.12,9.8,0.04,-0.06,-0.19999999,0.0083,-0.0014,0.4854,2017-06-01 10:35:22,33.746545651556794
0.089999996,0.11,9.76,0.0,0.0,0.0,160.0,0.099999994,0.13,9.8,0.0,0.01,-0.01,0.0083,-0.0014,0.4854,2017-06-01 10:35:23,41.65019744750309
0.089999996,0.13,9.599999,0.0,0.0,0.0,160.0,0.099999994,0.12,9.8,-0.03,-0.03,0.07,0.0083,-0.0014,0.4856,2017-06-01 10:35:24,32.228929385331206
0.11,0.13,9.74,0.0,0.0,0.0,160.0,0.099999994,0.12,9.8,0.01,0.0,-0.01,0.0083,-0.0014,0.4854,2017-06-01 10:35:25,36.41020418392452
0.099999994,0.11,9.76,0.0,0.0,0.0,160.0,0.099999994,0.12,9.8,-0.02,0.049999997,0.13,0.0082,-0.0014,0.4858,2017-06-01 10:35:26,22.34568194185431
0.06,0.11,9.94,0.0,0.0,0.0,160.0,0.099999994,0.12,9.8,-0.07,0.0,0.22999999,0.0082,-0.0014,0.48569998,2017-06-01 10:35:27,37.05548098958316
0.089999996,0.08,9.719999,0.0,0.0,0.0,160.0,0.099999994,0.12,9.8,0.049999997,0.0,-0.02,0.0083,-0.0013,0.4856,2017-06-01 10:35:28,40.74381611537929
0.099999994,0.08,9.75,0.0,0.0,0.0,160.0,0.099999994,0.12,9.8,0.0,-0.01,-0.06,0.0083,-0.0014,0.48569998,2017-06-01 10:35:29,34.24945727583458
0.089999996,0.17999999,9.76,0.0,0.0,0.0,160.0,0.099999994,0.13,9.8,0.02,0.0,0.02,0.0083,-0.0014,0.48529997,2017-06-01 10:35:30,47.260553135942914
0.06,0.089999996,9.84,0.0,0.0,0.0,160.0,0.099999994,0.12,9.8,-0.03,0.0,-0.04,0.0083,-0.0014,0.4854,2017-06-01 10:35:31,25.121860088656657
0.099999994,0.13,9.73,0.0,0.0,0.0,160.0,0.099999994,0.12,9.8,-0.02,-0.03,0.03,0.0083,-0.0014,0.48529997,2017-06-01 10:35:32,44.98706618379067
0.099999994,0.089999996,9.73,0.0,0.0,0.0,160.0,0.099999994,0.12,9.8,0.01,0.049999997,0.03,0.0083,-0.0014,0.48529997,2017-06-01 10:35:33,23.872837844673924
0.14,0.16,9.809999,0.0,0.0,0.0,160.0,0.099999994,0.13,9.8,-0.04,-0.03,0.04,0.0083,-0.0014,0.4856,2017-06-01 10:35:34,51.070911512971776
0.08,0.11,9.73,0.0,0.0,0.0,160.0,0.099999994,0.13,9.8,0.0,0.02,0.12,0.0084,-0.0013,0.48569998,2017-06-01 10:35:35,44.30852655425643
0.099999994,0.16,9.73,0.0,0.0,0.0,160.0,0.099999994,0.13,9.8,0.02,-0.01,-0.01,0.0084,-0.0013,0.4856,2017-06-01 10:35:36,37.757003810858635
0.099999994,0.14,9.73,0.0,0.0,0.0,160.0,0.099999994,0.13,9.8,0.0,-0.04,0.12,0.0083,-0.0013,0.4854,2017-06-01 10:35:37,30.158482779890075
0.11,0.12,9.639999,0.0,0.0,0.0,160.0,0.099999994,0.13,9.8,0.0,0.08,-0.049999997,0.0083,-0.0011999999,0.48549998,2017-06-01 10:35:38,61.83680548014759
0.06,0.13,9.74,0.0,0.0,0.0,160.0,0.099999994,0.13,9.8,0.03,0.01,0.02,0.0083,-0.0013,0.48569998,2017-06-01 10:35:39,60.584814936916594
0.07,0.13,9.66,0.0,0.0,0.0,160.0,0.099999994,0.13,9.8,0.0,0.02,0.02,0.0083,-0.0011999999,0.48619998,2017-06-01 10:35:40,56.11255144146652
0.089999996,0.11,9.78,0.0,0.0,0.0,160.0,0.099999994,0.12,9.8,0.01,-0.07,0.0,0.0082,-0.0013,0.486,2017-06-01 10:35:41,56.451752179039005
0.08,0.11,9.67,0.0,0.0,0.0,160.0,0.099999994,0.13,9.8,-0.01,0.0,0.02,0.0083,-0.0011999999,0.4861,2017-06-01 10:35:42,38.009784481591474
0.13,0.11,9.86,0.0,0.0,0.0,160.0,0.099999994,0.13,9.8,0.04,-0.07,-0.14999999,0.0083,-0.0011999999,0.48589998,2017-06-01 10:35:43,56.488389356103916
0.03,0.14,9.71,0.0,0.0,0.0,160.0,0.089999996,0.13,9.8,-0.04,0.01,-0.03,0.0082,-0.0011999999,0.4856,2017-06-01 10:35:44,55.98478152362769
0.08,0.14,9.76,0.0,0.0,0.0,160.0,0.099999994,0.13,9.8,0.0,-0.01,0.0,0.0082,-0.0011999999,0.4852,2017-06-01 10:35:45,43.9440305871142
0.089999996,0.13,9.7,0.0,0.0,0.0,160.0,0.089999996,0.13,9.8,-0.01,0.0,0.0,0.0083,-0.0011999999,0.48499998,2017-06-01 10:35:46,58.33476964205588
0.07,0.13,9.73,0.0,0.0,0.0,160.0,0.099999994,0.13,9.8,0.0,0.0,0.01,0.0083,-0.0011999999,0.4849,2017-06-01 10:35:47,56.75077053409828
0.12,0.17,9.719999,0.0,0.0,0.0,160.0,0.099999994,0.13,9.8,-0.01,-0.03,0.03,0.0083,-0.0011999999,0.48499998,2017-06-01 10:35:48,57.95126355507626
0.049999997,0.099999994,9.74,0.0,0.0,0.0,160.0,0.099999994,0.13,9.8,0.01,0.01,0.08,0.0082,-0.0011999999,0.4851,2017-06-01 10:35:49,54.58237910433021
0.07,0.11,9.74,0.0,0.0,0.0,160.0,0.089999996,0.13,9.8,-0.11,0.03,0.12,0.0083,-0.0011999999,0.4854,2017-06-01 10:35:50,43.835589456509254
0.099999994,0.099999994,9.719999,0.0,0.0,0.0,160.0,0.089999996,0.13,9.8,-0.03,0.0,-0.04,0.0082,-0.0011,0.48529997,2017-06-01 10:35:51,42.95108662805753
0.03,0.22999999,9.719999,0.0,0.0,0.0,160.0,0.089999996,0.13,9.8,0.0,0.0,0.0,0.0082,-0.0011999999,0.4854,2017-06-01 10:35:52,35.36616508020201
0.13,0.17,9.639999,0.0,0.0,0.0,160.0,0.089999996,0.13,9.8,0.0,-0.01,0.0,0.0082,-0.0011,0.48569998,2017-06-01 10:35:53,47.27028672123423
0.11,0.099999994,9.67,0.0,0.0,0.0,160.0,0.089999996,0.13,9.8,-0.02,-0.04,0.02,0.0083,-0.0011,0.4858,2017-06-01 10:35:54,45.10711993294426
0.06,0.17,9.84,0.0,0.0,0.0,160.0,0.089999996,0.13,9.8,0.01,-0.08,-0.07,0.0083,-0.0011,0.4856,2017-06-01 10:35:56,42.7457959442591
0.049999997,0.14,9.84,0.0,0.0,0.0,160.0,0.099999994,0.13,9.8,0.02,-0.08,-0.13,0.0084,-0.0011,0.48549998,2017-06-01 10:35:57,39.67742623638219
0.08,0.12,9.639999,0.0,0.0,0.0,160.0,0.089999996,0.13,9.8,0.02,-0.01,-0.03,0.0084,-0.0011,0.4856,2017-06-01 10:35:58,40.83650265379912
0.11,0.099999994,9.73,0.0,0.0,0.0,160.0,0.089999996,0.13,9.8,0.02,0.02,-0.089999996,0.0084,-0.0011,0.48569998,2017-06-01 10:35:59,37.1329066231553
0.17,0.22,9.559999,0.0,0.0,0.0,160.0,0.089999996,0.13,9.8,0.02,-0.04,-0.13,0.0083,-0.0011,0.48589998,2017-06-01 10:36:00,33.85465227861856
0.08,0.14,9.719999,0.0,0.0,0.0,160.0,0.099999994,0.13,9.8,0.0,0.0,0.04,0.0083,-0.0011999999,0.48569998,2017-06-01 10:36:01,44.992634314153676
0.12,0.04,9.639999,0.0,0.0,0.0,160.0,0.099999994,0.13,9.8,-0.049999997,0.0,-0.03,0.0083,-0.0011999999,0.4858,2017-06-01 10:36:02,23.718648290487153
0.13,0.099999994,9.679999,0.0,0.0,0.0,160.0,0.099999994,0.13,9.8,0.01,-0.049999997,0.06,0.0083,-0.0011999999,0.486,2017-06-01 10:36:03,40.24771951637468
0.06,0.14999999,9.75,0.0,0.0,0.0,160.0,0.099999994,0.13,9.8,0.0,0.03,-0.06,0.0083,-0.0011999999,0.486,2017-06-01 10:36:04,42.16389143751812
0.099999994,0.12,9.74,0.0,0.0,0.0,160.0,0.099999994,0.13,9.8,0.03,0.0,0.0,0.0083,-0.0011999999,0.4856,2017-06-01 10:36:05,40.19794345982003
0.099999994,0.13,9.74,0.0,0.0,0.0,160.0,0.099999994,0.13,9.8,0.0,0.0,0.02,0.0083,-0.0011999999,0.48549998,2017-06-01 10:36:06,29.259513202951453
0.11,0.14,9.719999,0.0,0.0,0.0,160.0,0.099999994,0.13,9.8,0.0,0.01,-0.04,0.0083,-0.0011999999,0.4856,2017-06-01 10:36:07,18.894111379313326
0.049999997,0.17,9.969999,0.0,0.0,0.0,160.0,0.099999994,0.13,9.8,-0.01,0.0,0.02,0.0083,-0.0011999999,0.48549998,2017-06-01 10:36:08,25.5573546504799
0.099999994,0.11,9.61,0.0,0.0,0.0,160.0,0.099999994,0.13,9.8,-0.049999997,-0.02,0.02,0.0083,-0.0011999999,0.4856,2017-06-01 10:36:09,43.14436438685835
0.06,0.099999994,9.75,0.0,0.0,0.0,160.0,0.099999994,0.13,9.8,0.01,-0.01,-0.06,0.0083,-0.0011999999,0.4858,2017-06-01 10:36:10,44.22909187645337
0.089999996,0.06,9.7,0.0,0.0,0.0,160.0,0.099999994,0.13,9.8,0.01,-0.089999996,-0.03,0.0083,-0.0011999999,0.4854,2017-06-01 10:36:11,49.69456206027279
0.12,0.07,9.719999,0.0,0.0,0.0,160.0,0.099999994,0.13,9.8,0.04,-0.02,-0.01,0.0083,-0.0013,0.48549998,2017-06-01 10:36:12,51.10841949713957
0.099999994,0.13,9.86,0.0,0.0,0.0,160.0,0.099999994,0.13,9.8,0.02,0.02,-0.089999996,0.0083,-0.0013,0.48549998,2017-06-01 10:36:13,31.29916363783568
0.099999994,0.16,9.69,0.0,0.0,0.0,160.0,0.099999994,0.13,9.8,0.0,-0.04,0.03,0.0083,-0.0011999999,0.4856,2017-06-01 10:36:14,44.83226641945993
0.11,0.089999996,9.74,0.0,0.0,0.0,160.0,0.099999994,0.13,9.8,0.0,-0.01,0.0,0.0083,-0.0011999999,0.48549998,2017-06-01 10:36:15,37.680470440506895
0.08,0.099999994,9.69,0.0,0.0,0.0,160.0,0.099999994,0.13,9.8,0.08,0.04,0.14,0.0083,-0.0013,0.48569998,2017-06-01 10:36:16,42.19567029170467
0.099999994,0.11,9.84,0.0,0.0,0.0,160.0,0.099999994,0.13,9.8,-0.01,0.03,-0.08,0.0083,-0.0013,0.4856,2017-06-01 10:36:17,44.97361032266291
0.03,0.14,9.7699995,0.0,0.0,0.0,160.0,0.099999994,0.13,9.8,-0.01,-0.02,-0.01,0.0083,-0.0013,0.4856,2017-06-01 10:36:18,30.264231320893657
0.08,0.11,9.7699995,0.0,0.0,0.0,160.0,0.099999994,0.13,9.8,0.01,0.0,-0.03,0.0083,-0.0011999999,0.4856,2017-06-01 10:36:19,49.44154263178092
0.12,0.089999996,9.76,0.0,0.0,0.0,160.0,0.099999994,0.13,9.8,0.01,0.01,-0.07,0.0083,-0.0011999999,0.4854,2017-06-01 10:36:20,42.77134482480498
0.11,0.11,9.74,0.0,0.0,0.0,160.0,0.099999994,0.13,9.8,0.01,0.01,-0.01,0.0083,-0.0011999999,0.4854,2017-06-01 10:36:21,39.387243079241394
0.11,0.13,9.73,0.0,0.0,0.0,160.0,0.099999994,0.13,9.8,-0.03,-0.01,-0.01,0.0083,-0.0011999999,0.48549998,2017-06-01 10:36:22,31.36459208489132
0.12,0.13,9.7699995,0.0,0.0,0.0,160.0,0.099999994,0.13,9.8,0.0,0.01,0.01,0.0083,-0.0011999999,0.4852,2017-06-01 10:36:23,41.80160889910435
0.049999997,0.11,9.69,0.0,0.0,0.0,160.0,0.099999994,0.12,9.8,0.03,0.01,0.03,0.0082,-0.0011999999,0.4854,2017-06-01 10:36:24,42.11870442617786
0.099999994,0.19,9.929999,0.0,0.0,0.0,160.0,0.099999994,0.12,9.8,-0.03,0.089999996,0.17999999,0.0082,-0.0011999999,0.4856,2017-06-01 10:36:25,29.51758583901431
0.16,0.28,10.5,0.0,0.0,0.0,160.0,0.089999996,0.12,9.8,-0.03,-0.24,0.01,0.0081,-0.0011999999,0.4854,2017-06-01 10:36:26,43.17609457190397
0.089999996,0.14999999,9.679999,0.0,0.0,0.0,160.0,0.089999996,0.12,9.8,-0.02,-0.01,0.0,0.0082,-0.0011999999,0.48499998,2017-06-01 10:36:27,49.21519550068655
0.01,0.19999999,9.9,0.0,0.0,0.0,160.0,0.089999996,0.12,9.8,-0.08,0.12,0.17999999,0.0082,-0.0011999999,0.4851,2017-06-01 10:36:28,40.74240754158356
0.06,0.11,9.71,0.0,0.0,0.0,160.0,0.089999996,0.12,9.8,0.0,-0.03,-0.02,0.0082,-0.0011999999,0.48499998,2017-06-01 10:36:29,41.97418972817794
0.049999997,0.14,9.75,0.0,0.0,0.0,160.0,0.089999996,0.13,9.8,0.0,0.01,0.0,0.0082,-0.0011,0.4849,2017-06-01 10:36:30,41.21241817308355
0.12,0.13,9.74,0.0,0.0,0.0,160.0,0.089999996,0.12,9.8,0.01,-0.02,-0.01,0.0082,-0.0011,0.48499998,2017-06-01 10:36:31,27.932295353910547
0.12,0.06,9.639999,0.0,0.0,0.0,160.0,0.089999996,0.12,9.8,-0.01,0.02,0.0,0.0082,-0.0011999999,0.48499998,2017-06-01 10:36:32,29.30889859764061
0.11,0.089999996,9.719999,0.0,0.0,0.0,160.0,0.089999996,0.13,9.8,-0.049999997,0.0,0.13,0.0082,-0.0011,0.4849,2017-06-01 10:36:33,48.20401350987921
0.089999996,0.08,9.75,0.0,0.0,0.0,160.0,0.099999994,0.13,9.8,0.04,-0.01,0.0,0.0082,-0.0011999999,0.48499998,2017-06-01 10:36:34,43.589137292924924
0.19999999,0.19,9.61,0.0,0.0,0.0,160.0,0.089999996,0.13,9.8,0.0,0.08,-0.03,0.0083,-0.0011999999,0.48529997,2017-06-01 10:36:35,33.21117013875388
0.099999994,0.11,9.73,0.0,0.0,0.0,160.0,0.089999996,0.13,9.8,0.0,-0.01,0.0,0.0083,-0.0011,0.4852,2017-06-01 10:36:36,42.224287644714934
0.11,0.11,9.559999,0.0,0.0,0.0,160.0,0.089999996,0.13,9.8,-0.099999994,-0.01,0.22,0.0083,-0.0011,0.4851,2017-06-01 10:36:37,39.00035444909975
0.06,0.13,9.7699995,0.0,0.0,0.0,160.0,0.089999996,0.13,9.8,0.0,0.0,0.01,0.0083,-0.0011,0.4851,2017-06-01 10:36:38,50.92194926739356
0.06,0.11,9.99,0.0,0.0,0.0,160.0,0.089999996,0.13,9.8,-0.06,0.02,0.12,0.0083,-0.0011,0.48499998,2017-06-01 10:36:39,43.353351738457235
0.12,0.14999999,9.809999,0.0,0.0,0.0,160.0,0.099999994,0.13,9.8,-0.02,0.01,0.06,0.0084,-0.0013,0.48479998,2017-06-01 10:36:40,44.74240400997311
0.06,0.16,9.86,0.0,0.0,0.0,160.0,0.099999994,0.13,9.8,-0.01,0.0,0.06,0.0084,-0.0013,0.48479998,2017-06-01 10:36:42,44.09452567148759
0.11,0.14,9.74,0.0,0.0,0.0,160.0,0.099999994,0.13,9.8,-0.03,0.01,0.0,0.0083,-0.0013,0.48499998,2017-06-01 10:36:42,38.70405334237947
0.14,0.07,9.5,0.0,0.0,0.0,160.0,0.099999994,0.13,9.8,0.0,-0.01,-0.12,0.0083,-0.0013,0.4851,2017-06-01 10:36:44,41.688955209657365
0.099999994,0.13,9.719999,0.0,0.0,0.0,160.0,0.099999994,0.13,9.8,0.01,0.01,0.0,0.0083,-0.0011999999,0.48549998,2017-06-01 10:36:45,50.03060985376584
0.12,0.14999999,9.74,0.0,0.0,0.0,160.0,0.099999994,0.13,9.8,0.01,0.0,-0.02,0.0084,-0.0011999999,0.48549998,2017-06-01 10:36:46,44.758638558142934
0.099999994,0.14,9.69,0.0,0.0,0.0,160.0,0.099999994,0.13,9.8,0.01,-0.06,0.0,0.0083,-0.0011999999,0.48549998,2017-06-01 10:36:47,44.30592791869269
0.17,0.13,9.62,0.0,0.0,0.0,160.0,0.099999994,0.13,9.8,0.06,0.0,-0.19999999,0.0084,-0.0011,0.4852,2017-06-01 10:36:48,43.55029781451405
0.089999996,0.099999994,9.75,0.0,0.0,0.0,160.0,0.099999994,0.13,9.8,0.0,0.03,0.089999996,0.0084,-0.0011999999,0.48529997,2017-06-01 10:36:49,40.55943389002281
0.07,0.06,9.809999,0.0,0.0,0.0,160.0,0.099999994,0.13,9.8,0.0,0.03,-0.03,0.0084,-0.0011,0.48549998,2017-06-01 10:36:50,42.635890781861846
0.12,0.13,9.7699995,0.0,0.0,0.0,160.0,0.089999996,0.13,9.8,-0.03,-0.03,0.01,0.0083,-0.0011,0.4854,2017-06-01 10:36:51,40.10997943832201
0.13,0.13,9.63,0.0,0.0,0.0,160.0,0.089999996,0.13,9.8,-0.04,0.04,0.13,0.0083,-0.0011,0.48549998,2017-06-01 10:36:52,36.19799988727057
0.11,0.12,9.71,0.0,0.0,0.0,160.0,0.089999996,0.13,9.8,-0.03,0.0,0.049999997,0.0083,-0.0011,0.4852,2017-06-01 10:36:53,46.79136072641637
0.07,0.12,9.73,0.0,0.0,0.0,160.0,0.089999996,0.13,9.8,0.01,-0.01,0.0,0.0083,-0.0011,0.4851,2017-06-01 10:36:54,41.571223346965496
0.089999996,0.049999997,9.639999,0.0,0.0,0.0,160.0,0.089999996,0.13,9.8,0.02,-0.01,-0.01,0.0083,-0.0011,0.4851,2017-06-01 10:36:55,27.367714298779298
0.07,0.13,9.84,0.0,0.0,0.0,160.0,0.089999996,0.13,9.8,-0.03,0.01,0.04,0.0083,-9.999999E-4,0.4851,2017-06-01 10:36:56,42.93898552119746
0.099999994,0.13,9.74,0.0,0.0,0.0,160.0,0.089999996,0.13,9.8,0.06,0.08,-0.11,0.0083,-0.0011,0.4849,2017-06-01 10:36:57,35.18699354523436
0.12,0.17999999,9.73,0.0,0.0,0.0,160.0,0.089999996,0.13,9.8,-0.03,-0.07,0.02,0.0083,-9.999999E-4,0.4849,2017-06-01 10:36:58,42.81472072040295
0.11,0.16,9.75,0.0,0.0,0.0,160.0,0.089999996,0.13,9.8,-0.07,-0.06,0.21,0.0083,-0.0011,0.4847,2017-06-01 10:36:59,45.92197789120669
0.07,0.12,9.76,0.0,0.0,0.0,160.0,0.089999996,0.13,9.8,0.049999997,-0.03,0.0,0.0084,-9.999999E-4,0.4845,2017-06-01 10:37:00,46.81847626220312
0.099999994,0.11,9.86,0.0,0.0,0.0,160.0,0.089999996,0.13,9.8,0.01,0.0,-0.17,0.0084,-0.0011,0.4842,2017-06-01 10:37:01,49.01116228112058
0.12,0.07,9.69,0.0,0.0,0.0,160.0,0.089999996,0.13,9.8,0.0,0.04,0.04,0.0084,-9.999999E-4,0.48439997,2017-06-01 10:37:02,47.45179800918622
0.089999996,0.13,9.76,0.0,0.0,0.0,160.0,0.089999996,0.13,9.8,-0.01,0.0,0.04,0.0084,-9.999999E-4,0.48439997,2017-06-01 10:37:03,41.65510744437532
0.03,0.17999999,9.969999,0.0,0.0,0.0,160.0,0.089999996,0.13,9.8,0.01,0.0,0.01,0.0084,-9.999999E-4,0.48409998,2017-06-01 10:37:04,42.27745393376512
0.099999994,0.14999999,9.71,0.0,0.0,0.0,160.0,0.089999996,0.13,9.8,-0.02,0.02,-0.02,0.0084999995,-9.999999E-4,0.4842,2017-06-01 10:37:05,41.50805892232887
0.099999994,0.12,9.87,0.0,0.0,0.0,160.0,0.089999996,0.13,9.8,0.0,0.0,0.01,0.0084999995,-9.0E-4,0.48409998,2017-06-01 10:37:06,46.65183743659518
0.07,0.19,9.76,0.0,0.0,0.0,160.0,0.089999996,0.13,9.8,-0.07,-0.03,0.25,0.0084,-9.0E-4,0.48389998,2017-06-01 10:37:07,45.22405488235276
0.17,0.07,9.66,0.0,0.0,0.0,160.0,0.089999996,0.13,9.8,-0.02,0.02,0.04,0.0084,-9.999999E-4,0.48389998,2017-06-01 10:37:08,46.438583656728355
0.06,0.16,9.76,0.0,0.0,0.0,160.0,0.089999996,0.13,9.8,-0.04,-0.03,0.089999996,0.0084,-9.999999E-4,0.48389998,2017-06-01 10:37:09,46.23707295728871
0.089999996,0.13,9.74,0.0,0.0,0.0,160.0,0.089999996,0.13,9.8,0.01,0.02,-0.06,0.0084,-9.0E-4,0.4838,2017-06-01 10:37:10,43.81339618813495
0.049999997,0.17,9.73,0.0,0.0,0.0,160.0,0.089999996,0.13,9.8,-0.02,-0.02,-0.01,0.0084,-9.999999E-4,0.48349997,2017-06-01 10:37:11,38.68439563427329
0.07,0.08,9.76,0.0,0.0,0.0,160.0,0.089999996,0.13,9.8,0.03,0.01,0.0,0.0084,-9.999999E-4,0.48349997,2017-06-01 10:37:12,33.7890246513054
0.08,0.13,9.76,0.0,0.0,0.0,160.0,0.089999996,0.13,9.8,0.03,0.01,-0.04,0.0084,-9.999999E-4,0.48349997,2017-06-01 10:37:13,25.734031224418015
0.12,0.11,9.559999,0.0,0.0,0.0,160.0,0.089999996,0.13,9.8,0.0,-0.01,0.01,0.0084,-0.0011,0.48349997,2017-06-01 10:37:14,40.624040027669686
0.089999996,0.14999999,9.7699995,0.0,0.0,0.0,160.0,0.089999996,0.13,9.8,0.0,-0.03,0.0,0.0084,-0.0011,0.4834,2017-06-01 10:37:15,47.069703951587236
0.099999994,0.099999994,9.809999,0.0,0.0,0.0,160.0,0.089999996,0.13,9.8,0.01,0.03,-0.06,0.0083,-0.0011,0.4834,2017-06-01 10:37:16,31.193889690276674
0.099999994,0.14999999,9.71,0.0,0.0,0.0,160.0,0.089999996,0.13,9.8,0.0,0.04,-0.01,0.0083,-0.0011,0.4834,2017-06-01 10:37:17,43.083426705366
0.11,0.0,9.67,0.0,0.0,0.0,160.0,0.089999996,0.13,9.8,-0.049999997,-0.02,0.17999999,0.0083,-0.0011,0.4836,2017-06-01 10:37:18,37.30613779180932
0.06,0.13,9.74,0.0,0.0,0.0,160.0,0.089999996,0.13,9.8,0.01,-0.03,0.04,0.0084,-0.0011,0.4838,2017-06-01 10:37:19,46.74972553208387
0.099999994,0.13,9.73,0.0,0.0,0.0,160.0,0.099999994,0.13,9.8,-0.02,0.0,0.03,0.0084,-0.0011,0.4842,2017-06-01 10:37:20,34.972835189157664
0.089999996,0.14,9.73,0.0,0.0,0.0,160.0,0.099999994,0.13,9.8,0.03,0.03,0.01,0.0084,-0.0011,0.4842,2017-06-01 10:37:21,42.84954272656186
0.11,0.11,9.71,0.0,0.0,0.0,160.0,0.099999994,0.13,9.8,0.01,0.02,-0.03,0.0084,-0.0011999999,0.48439997,2017-06-01 10:37:22,47.70045068797961
0.08,0.13,9.76,0.0,0.0,0.0,160.0,0.099999994,0.13,9.8,-0.01,-0.06,0.089999996,0.0084,-0.0011999999,0.48459998,2017-06-01 10:37:23,30.735092843604974
0.11,0.13,9.75,0.0,0.0,0.0,160.0,0.099999994,0.13,9.8,-0.04,0.02,0.03,0.0084,-0.0011999999,0.4847,2017-06-01 10:37:24,35.70892580547237
0.13,0.16,9.59,0.0,0.0,0.0,160.0,0.099999994,0.13,9.8,-0.03,-0.08,0.13,0.0084,-0.0011999999,0.48439997,2017-06-01 10:37:25,42.80950445821912
0.14999999,0.14999999,9.74,0.0,0.0,0.0,160.0,0.099999994,0.13,9.8,0.04,0.02,-0.089999996,0.0084,-0.0011999999,0.4845,2017-06-01 10:37:26,37.4909370505291
0.099999994,0.14999999,9.57,0.0,0.0,0.0,160.0,0.099999994,0.13,9.8,0.02,-0.01,0.03,0.0084,-0.0011999999,0.48439997,2017-06-01 10:37:27,48.77099157180625
0.099999994,0.08,9.62,0.0,0.0,0.0,160.0,0.099999994,0.13,9.8,0.14,0.08,-0.29,0.0084,-0.0011999999,0.4845,2017-06-01 10:37:28,44.67333015208051
0.06,0.11,9.76,0.0,0.0,0.0,160.0,0.099999994,0.13,9.8,0.01,-0.02,0.04,0.0084,-0.0011999999,0.48459998,2017-06-01 10:37:30,43.315614110527285
0.089999996,0.14999999,9.74,0.0,0.0,0.0,160.0,0.099999994,0.13,9.8,0.02,-0.01,0.01,0.0084,-0.0011999999,0.4845,2017-06-01 10:37:31,43.97413769537252
0.12,0.14,9.719999,0.0,0.0,0.0,160.0,0.099999994,0.13,9.8,0.03,0.0,-0.049999997,0.0084,-0.0011999999,0.48459998,2017-06-01 10:37:32,34.16085552574927
0.08,0.16,9.719999,0.0,0.0,0.0,160.0,0.099999994,0.13,9.8,-0.02,-0.01,0.04,0.0083,-0.0011999999,0.4842,2017-06-01 10:37:33,30.81965808834489
0.08,0.14999999,9.75,0.0,0.0,0.0,160.0,0.099999994,0.13,9.8,0.0,0.0,0.0,0.0084,-0.0011,0.484,2017-06-01 10:37:34,32.56134253795221
0.089999996,0.11,9.679999,0.0,0.0,0.0,160.0,0.099999994,0.13,9.8,0.02,0.01,0.04,0.0084,-0.0011,0.48389998,2017-06-01 10:37:35,26.857426130667545
0.03,0.17999999,9.98,0.0,0.0,0.0,160.0,0.099999994,0.13,9.8,0.0,-0.01,-0.099999994,0.0084,-0.0011,0.48369998,2017-06-01 10:37:36,40.496202161551615
0.13,0.11,9.809999,0.0,-0.01,0.0,160.0,0.099999994,0.13,9.8,0.049999997,-0.01,-0.25,0.0084,-0.0011,0.4838,2017-06-01 10:37:37,43.597373690358864
0.04,0.17999999,9.809999,0.0,0.0,0.0,160.0,0.099999994,0.13,9.8,-0.08,0.01,0.14999999,0.0084,-0.0013,0.48349997,2017-06-01 10:37:38,54.28721528731803
0.04,0.14999999,9.71,0.0,0.0,0.0,160.0,0.099999994,0.13,9.8,0.06,0.01,-0.16,0.0084,-0.0013,0.4831,2017-06-01 10:37:39,45.45230442628168
0.11,0.14999999,9.78,0.0,0.0,0.0,160.0,0.089999996,0.12,9.8,0.03,0.0,-0.06,0.0079,-0.0011999999,0.4964,2017-06-01 10:37:40,48.038325358025446
0.089999996,0.099999994,9.66,0.0,0.0,0.0,160.0,0.089999996,0.12,9.8,-0.049999997,0.03,0.25,0.007999999,-0.0011,0.49699998,2017-06-01 10:37:41,32.465298353636804
-0.049999997,0.19999999,9.969999,0.0,-0.03,0.0,160.0,0.08,0.12,9.8,-0.13,-0.04,0.31,0.0075999997,-4.9999997E-4,0.4978,2017-06-01 10:37:42,46.092214858417336
0.13,0.19,9.75,0.0,0.0,0.0,160.0,0.099999994,0.11,9.8,-0.02,0.01,-0.02,0.0078,-0.0013,0.5093,2017-06-01 10:37:43,43.60144883964162
0.089999996,0.099999994,9.79,0.0,0.0,0.0,160.0,0.099999994,0.12,9.8,0.03,0.0,0.0,0.0079,-0.0014,0.5097,2017-06-01 10:37:44,36.79430292238155
0.08,0.089999996,9.809999,0.0,0.0,0.0,160.0,0.099999994,0.12,9.8,0.089999996,-0.01,-0.17999999,0.007999999,-0.0014,0.5104,2017-06-01 10:37:45,37.175654363465526
0.14,0.16,9.559999,0.0,0.0,0.0,160.0,0.099999994,0.12,9.8,-0.01,-0.04,0.11,0.0081,-0.0014,0.5107,2017-06-01 10:37:46,41.99086251723881
0.099999994,0.12,9.7699995,0.0,0.0,0.0,160.0,0.099999994,0.12,9.8,0.03,-0.01,0.06,0.0082,-0.0013,0.5111,2017-06-01 10:37:47,37.83580000777912
0.06,0.16,9.71,0.0,0.0,0.0,160.0,0.099999994,0.12,9.8,-0.01,-0.03,0.03,0.0082,-0.0013,0.5114,2017-06-01 10:37:48,34.53706441525695
0.19,0.12,9.48,0.0,0.0,0.0,160.0,0.099999994,0.12,9.8,0.04,-0.02,-0.04,0.0082,-0.0013,0.5117,2017-06-01 10:37:49,46.7049742218314
0.099999994,0.12,9.79,0.0,0.0,0.0,160.0,0.099999994,0.12,9.8,-0.02,0.0,0.04,0.0083,-0.0013,0.5117,2017-06-01 10:37:50,47.4435548793024
0.099999994,0.16,9.7,0.0,0.0,0.0,160.0,0.099999994,0.12,9.8,-0.01,-0.08,-0.22999999,0.0083,-0.0014,0.5119,2017-06-01 10:37:51,46.44173556513245
0.08,0.17,9.7699995,0.0,0.0,0.0,160.0,0.099999994,0.12,9.8,-0.03,0.07,0.22999999,0.0084,-0.0013,0.5121,2017-06-01 10:37:52,42.52823531427603
0.08,0.19999999,9.76,0.0,0.0,0.0,160.0,0.099999994,0.12,9.8,0.0,-0.089999996,0.0,0.0084,-0.0014,0.5121,2017-06-01 10:37:53,50.252105648127845
0.13,0.08,9.7699995,0.0,0.0,0.0,160.0,0.099999994,0.12,9.8,-0.02,-0.03,-0.01,0.0084999995,-0.0013,0.5122,2017-06-01 10:37:54,49.380751240961345
0.03,0.13,9.73,0.0,0.0,0.0,160.0,0.089999996,0.12,9.8,-0.03,0.03,0.01,0.0081,-7.0E-4,0.5121,2017-06-01 10:37:55,39.123507256992276
0.049999997,0.16,9.809999,0.0,0.0,0.0,160.0,0.089999996,0.13,9.8,0.03,-0.04,-0.12,0.0081,-7.0E-4,0.51199996,2017-06-01 10:37:56,37.648200041439665
0.13,0.14999999,9.7699995,0.0,0.0,0.0,160.0,0.089999996,0.13,9.8,0.0,0.0,0.0,0.0082,-8.0E-4,0.51159996,2017-06-01 10:37:57,46.733593834113464
0.12,0.17999999,9.719999,0.0,0.0,0.0,160.0,0.089999996,0.13,9.8,0.0,-0.01,0.0,0.0083,-8.0E-4,0.5115,2017-06-01 10:37:58,35.49215866863904
0.03,0.17999999,9.87,0.0,0.0,0.0,160.0,0.089999996,0.13,9.8,-0.02,-0.04,0.03,0.0084,-8.0E-4,0.51129997,2017-06-01 10:37:59,40.295186017673814
0.089999996,0.13,9.8,0.0,0.0,0.0,160.0,0.089999996,0.13,9.8,-0.02,0.04,0.02,0.0084,-9.0E-4,0.51129997,2017-06-01 10:38:00,42.56014403407313
0.08,0.14,9.7699995,0.0,0.0,0.0,160.0,0.099999994,0.13,9.8,0.03,-0.04,0.0,0.0084,-9.0E-4,0.5111,2017-06-01 10:38:01,37.006366307148355
0.16,0.14,9.7699995,0.0,0.0,0.0,160.0,0.099999994,0.13,9.8,-0.099999994,0.049999997,0.14,0.0084999995,-9.0E-4,0.51089996,2017-06-01 10:38:02,35.34332056029693
0.07,0.099999994,9.86,0.0,0.0,0.0,160.0,0.099999994,0.13,9.8,0.03,0.01,0.0,0.0084999995,-9.999999E-4,0.5108,2017-06-01 10:38:03,43.172096773291756
0.089999996,0.12,9.76,0.0,0.0,0.0,160.0,0.099999994,0.13,9.8,-0.01,0.0,0.0,0.008599999,-0.0011,0.5107,2017-06-01 10:38:04,44.487845403231454
0.099999994,0.099999994,9.71,0.0,0.0,0.0,160.0,0.099999994,0.13,9.8,0.02,0.0,-0.03,0.008599999,-0.0011,0.5105,2017-06-01 10:38:05,38.831104560973976
0.089999996,0.11,9.74,0.0,0.0,0.0,160.0,0.099999994,0.13,9.8,0.0,-0.04,0.01,0.008599999,-0.0011999999,0.5106,2017-06-01 10:38:06,35.63466136796724
0.14999999,0.16,9.79,0.0,0.0,0.0,160.0,0.099999994,0.13,9.8,0.03,0.08,-0.17,0.008599999,-0.0011999999,0.5107,2017-06-01 10:38:07,44.038838114890815
0.14,0.12,9.7699995,0.0,0.0,0.0,160.0,0.099999994,0.13,9.8,0.0,-0.049999997,-0.01,0.0087,-0.0011999999,0.5108,2017-06-01 10:38:08,45.377871315540816
0.13,0.13,9.76,0.0,0.0,0.0,160.0,0.099999994,0.13,9.8,-0.01,0.0,0.03,0.0087,-0.0011999999,0.511,2017-06-01 10:38:09,41.21059914274409
0.11,0.13,9.75,0.0,0.0,0.0,160.0,0.099999994,0.13,9.8,0.01,0.01,-0.02,0.0087,-0.0011999999,0.51129997,2017-06-01 10:38:10,39.26321089563254
0.24,0.08,9.57,0.0,0.0,0.0,160.0,0.099999994,0.13,9.8,0.01,0.0,0.0,0.0087,-0.0013,0.5118,2017-06-01 10:38:11,41.37321466835965
0.07,0.12,9.719999,0.0,0.0,0.0,160.0,0.099999994,0.13,9.8,0.03,0.01,0.02,0.0087,-0.0011999999,0.5118,2017-06-01 10:38:12,50.3276543368965
0.11,0.13,9.76,0.0,0.0,0.0,160.0,0.099999994,0.13,9.8,0.0,0.01,0.03,0.0087,-0.0013,0.51199996,2017-06-01 10:38:13,56.322104133800195
0.13,0.01,9.96,0.0,0.0,0.0,160.0,0.099999994,0.13,9.8,-0.03,0.02,-0.16,0.0087,-0.0011999999,0.51199996,2017-06-01 10:38:14,45.142726128705746
0.03,0.17,9.98,0.0,0.0,0.0,160.0,0.099999994,0.13,9.8,-0.02,0.03,-0.03,0.0087,-0.0013,0.5117,2017-06-01 10:38:15,49.948516863374515
0.01,0.02,9.99,0.0,0.0,0.0,160.0,0.11,0.13,9.8,0.01,-0.01,-0.04,0.008599999,-0.0013,0.51199996,2017-06-01 10:38:16,42.04994264809681
0.11,0.12,9.76,0.0,0.0,0.0,160.0,0.11,0.13,9.8,0.0,0.0,-0.03,0.0087,-0.0013,0.5119,2017-06-01 10:38:17,33.79093142353747
0.089999996,0.13,9.75,0.0,0.0,0.0,160.0,0.11,0.13,9.8,0.01,-0.04,0.0,0.0087,-0.0013,0.5121,2017-06-01 10:38:18,35.41972226226405
0.03,0.13,9.95,0.0,0.0,0.0,160.0,0.11,0.13,9.8,0.0,0.049999997,-0.06,0.0088,-0.0013,0.5123,2017-06-01 10:38:19,36.89586397084617
0.089999996,0.099999994,9.849999,0.0,0.0,0.0,160.0,0.11,0.13,9.8,-0.02,-0.049999997,0.0,0.0087,-0.0014,0.5124,2017-06-01 10:38:20,46.33476829318242
0.06,0.14,9.79,0.0,0.0,0.0,160.0,0.11,0.13,9.8,0.03,-0.07,-0.07,0.0087,-0.0014,0.5121,2017-06-01 10:38:21,39.63808848223933
0.14999999,0.21,9.69,0.0,0.0,0.0,160.0,0.11,0.13,9.8,-0.01,0.04,0.0,0.0087,-0.0014,0.5123,2017-06-01 10:38:22,44.94887342258537
0.089999996,0.17,9.76,0.0,0.0,0.0,160.0,0.11,0.13,9.8,0.03,-0.03,-0.03,0.0087,-0.0013,0.5122,2017-06-01 10:38:23,50.55218552982695
0.11,0.12,9.78,0.0,0.0,0.0,160.0,0.11,0.13,9.8,0.0,-0.03,-0.03,0.0087,-0.0013,0.5125,2017-06-01 10:38:24,53.367186076560024
0.06,0.24,9.73,0.0,0.0,0.0,160.0,0.11,0.13,9.8,0.06,0.0,-0.12,0.0087,-0.0013,0.5125,2017-06-01 10:38:25,46.42653254189553
0.17,0.19,9.66,0.0,0.0,0.0,160.0,0.11,0.13,9.8,-0.03,-0.02,0.17,0.0087,-0.0014,0.5125,2017-06-01 10:38:26,52.47965814321361
0.099999994,0.11,9.74,0.0,0.0,0.0,160.0,0.11,0.13,9.8,0.0,0.04,-0.049999997,0.0087,-0.0014,0.51269996,2017-06-01 10:38:27,53.91811675902436
0.08,0.17,9.76,0.0,0.0,0.0,160.0,0.11,0.13,9.8,0.03,0.0,-0.02,0.008599999,-0.0014,0.5129,2017-06-01 10:38:28,51.34369959549494
0.0,0.13,9.94,0.0,0.0,0.0,160.0,0.11,0.13,9.8,-0.049999997,-0.02,0.13,0.0087,-0.0014,0.5128,2017-06-01 10:38:29,59.039806348215215
0.14,0.17999999,9.679999,0.0,0.0,0.0,160.0,0.11,0.13,9.8,-0.049999997,-0.02,-0.06,0.0087,-0.0014,0.5125,2017-06-01 10:38:30,50.015968843720636
0.099999994,0.16,9.61,0.0,0.0,0.0,160.0,0.11,0.13,9.8,0.02,0.02,0.049999997,0.0087,-0.0014,0.5125,2017-06-01 10:38:31,62.10132677409132
0.08,0.13,9.76,0.0,0.0,0.0,160.0,0.11,0.13,9.8,-0.04,0.01,0.02,0.0087,-0.0013,0.5121,2017-06-01 10:38:32,44.97623036689824
0.11,0.16,9.7699995,0.0,0.0,0.0,160.0,0.11,0.13,9.8,0.01,-0.03,0.03,0.008599999,-0.0014,0.51159996,2017-06-01 10:38:33,31.17238595427611
0.13,0.14,9.82,0.0,0.0,0.0,160.0,0.11,0.13,9.8,0.01,0.01,0.02,0.0087,-0.0013,0.51129997,2017-06-01 10:38:34,43.2976760645332
0.13,0.13,9.73,0.0,0.0,0.0,160.0,0.11,0.13,9.8,0.0,0.01,0.01,0.008599999,-0.0014,0.51129997,2017-06-01 10:38:35,45.63636867827518
0.14,0.16,9.71,0.0,0.0,0.0,160.0,0.11,0.13,9.8,0.03,-0.04,-0.16,0.0087,-0.0014,0.5112,2017-06-01 10:38:36,46.95343064304911
0.08,0.14,9.86,0.0,0.0,0.0,160.0,0.11,0.13,9.8,0.0,-0.01,-0.06,0.0089,-0.0016,0.51129997,2017-06-01 10:38:37,62.23787440025558
0.089999996,0.14,9.71,0.0,0.0,0.0,160.0,0.11,0.13,9.8,-0.049999997,-0.02,0.13,0.0088,-0.0016,0.5112,2017-06-01 10:38:38,55.81731012176988
0.12,0.19999999,9.67,0.0,-0.04,0.0,160.0,0.07,0.13,9.8,-0.03,0.06,0.17999999,0.0077,2.0E-4,0.5114,2017-06-01 10:38:39,55.70794438345891
0.12,0.11,9.78,0.0,0.0,0.0,160.0,0.07,0.13,9.8,0.01,0.0,-0.07,0.0079,0.0,0.51129997,2017-06-01 10:38:40,46.94130315365274
0.06,0.32,11.62,0.0,0.03,0.0,160.0,0.06,0.13,9.8,0.0,0.02,-0.22,0.0069999998,0.0016,0.5115,2017-06-01 10:38:41,42.65995726850172
0.08,0.11,9.83,0.0,0.0,0.0,160.0,0.08,0.13,9.8,0.01,0.049999997,-0.08,0.007999999,0.0,0.51159996,2017-06-01 10:38:42,56.536514872236594
0.14,0.14,9.62,0.0,0.0,0.0,160.0,0.08,0.13,9.8,0.08,0.01,-0.22,0.0083,-2.9999999E-4,0.5115,2017-06-01 10:38:43,52.67464459840012
0.13,0.19,9.67,0.0,0.0,0.0,160.0,0.089999996,0.13,9.8,0.0,0.0,0.0,0.0084,-4.9999997E-4,0.5111,2017-06-01 10:38:44,47.80944472959065
0.099999994,0.11,9.76,0.0,0.0,0.0,160.0,0.089999996,0.13,9.8,0.0,-0.01,0.03,0.0084999995,-5.9999997E-4,0.5111,2017-06-01 10:38:45,51.359848527612435
0.14,0.14,9.74,0.0,0.0,0.0,160.0,0.089999996,0.13,9.8,0.0,0.02,0.0,0.008599999,-7.0E-4,0.5111,2017-06-01 10:38:46,39.99623943483587
0.19999999,0.01,9.45,0.0,0.0,0.0,160.0,0.099999994,0.13,9.8,0.06,-0.03,-0.19999999,0.0087,-8.0E-4,0.511,2017-06-01 10:38:47,30.297352154807406
0.08,0.17999999,9.67,0.0,0.0,0.0,160.0,0.099999994,0.13,9.8,0.0,-0.01,0.01,0.0087,-9.0E-4,0.5112,2017-06-01 10:38:48,43.118185287137855
0.089999996,0.049999997,9.969999,0.0,0.0,0.0,160.0,0.099999994,0.13,9.8,-0.04,-0.11,0.17999999,0.0087,-9.0E-4,0.51089996,2017-06-01 10:38:49,30.784093768107297
0.13,0.14,9.71,0.0,0.0,0.0,160.0,0.099999994,0.13,9.8,0.07,0.01,-0.19999999,0.0088,-9.999999E-4,0.5107,2017-06-01 10:38:50,46.10423477385639
0.08,0.14,9.76,0.0,0.0,0.0,160.0,0.099999994,0.13,9.8,-0.02,-0.03,0.04,0.0089,-0.0011,0.5112,2017-06-01 10:38:51,45.42812581774946
0.03,0.049999997,10.04,0.0,0.0,0.0,160.0,0.099999994,0.13,9.8,-0.07,-0.08,0.45999998,0.0088,-9.0E-4,0.511,2017-06-01 10:38:53,32.190972105095895
0.049999997,0.11,9.929999,0.0,0.0,0.0,160.0,0.099999994,0.13,9.8,0.02,0.03,-0.57,0.0087,-9.0E-4,0.5108,2017-06-01 10:38:54,47.090614398316916
0.22,0.099999994,9.76,0.0,0.0,0.0,160.0,0.089999996,0.13,9.8,0.03,0.04,-0.07,0.008599999,-8.0E-4,0.511,2017-06-01 10:38:55,42.14638801772753
0.12,0.08,9.69,0.0,0.0,0.0,160.0,0.089999996,0.13,9.8,0.08,-0.01,-0.17,0.0084999995,-7.0E-4,0.511,2017-06-01 10:38:56,43.57623549862307
0.12,0.12,9.79,0.0,0.0,0.0,160.0,0.089999996,0.13,9.8,0.0,0.0,0.01,0.0084999995,-7.0E-4,0.51089996,2017-06-01 10:38:57,43.58204021234549
0.13,0.099999994,9.73,0.0,0.0,0.0,160.0,0.099999994,0.13,9.8,0.0,0.0,0.01,0.008599999,-8.0E-4,0.5108,2017-06-01 10:38:58,35.460182267006104
0.08,0.17,9.73,0.0,0.0,0.0,160.0,0.099999994,0.13,9.8,0.02,0.0,0.01,0.008599999,-9.0E-4,0.5106,2017-06-01 10:38:59,34.91388781670005
0.11,0.08,9.61,0.0,0.0,0.0,160.0,0.099999994,0.13,9.8,-0.04,-0.03,0.17,0.008599999,-9.0E-4,0.5106,2017-06-01 10:39:00,20.801838284120542
0.089999996,0.16,9.719999,0.0,0.0,0.0,160.0,0.099999994,0.13,9.8,0.01,0.0,0.08,0.008599999,-9.999999E-4,0.5106,2017-06-01 10:39:01,46.999828321549806
0.03,0.17999999,9.929999,0.0,0.0,0.0,160.0,0.099999994,0.13,9.8,0.01,0.07,-0.089999996,0.0087,-9.999999E-4,0.5108,2017-06-01 10:39:02,33.236138078436625
0.12,0.11,9.75,0.0,0.0,0.0,160.0,0.099999994,0.13,9.8,0.01,-0.02,-0.08,0.0087,-9.999999E-4,0.5107,2017-06-01 10:39:03,41.51675453201194
0.12,0.16,9.66,0.0,0.0,0.0,160.0,0.099999994,0.13,9.8,0.0,0.0,0.02,0.0087,-9.999999E-4,0.51089996,2017-06-01 10:39:04,33.263584665077104
0.16,0.12,9.67,0.0,0.0,0.0,160.0,0.099999994,0.13,9.8,-0.02,-0.02,-0.099999994,0.0087,-9.999999E-4,0.511,2017-06-01 10:39:05,45.948702540817486
0.08,0.13,9.75,0.0,0.0,0.0,160.0,0.099999994,0.13,9.8,-0.02,0.0,0.06,0.0087,-0.0011,0.511,2017-06-01 10:39:06,41.505118825495835
0.13,0.19999999,9.8,0.0,0.0,0.0,160.0,0.099999994,0.13,9.8,-0.02,-0.03,0.0,0.0088,-0.0011,0.5112,2017-06-01 10:39:07,39.4230449352811
0.14,0.13,9.639999,0.0,0.0,0.0,160.0,0.099999994,0.13,9.8,0.06,-0.01,-0.16,0.0088,-0.0011,0.5111,2017-06-01 10:39:08,45.917784809545196
0.11,0.16,9.79,0.0,0.0,0.0,160.0,0.099999994,0.13,9.8,-0.02,0.0,0.03,0.0088,-0.0011999999,0.51129997,2017-06-01 10:39:09,43.19020658216691
0.06,0.13,9.7,0.0,0.0,0.0,160.0,0.099999994,0.13,9.8,0.0,-0.03,0.01,0.0088,-0.0011999999,0.5114,2017-06-01 10:39:10,41.2511983866061
0.14,0.08,9.62,0.0,0.0,0.0,160.0,0.099999994,0.13,9.8,-0.04,0.03,-0.04,0.0088,-0.0011999999,0.5114,2017-06-01 10:39:11,31.207409749602874
0.12,0.13,9.78,0.0,0.0,0.0,160.0,0.11,0.13,9.8,-0.02,0.01,0.01,0.0088,-0.0011999999,0.5114,2017-06-01 10:39:12,49.11386066345112
0.049999997,0.14999999,9.71,0.0,0.0,0.0,160.0,0.11,0.13,9.8,0.049999997,-0.01,-0.049999997,0.0089,-0.0011999999,0.5114,2017-06-01 10:39:13,37.18453354827811
0.13,0.17999999,9.84,0.0,0.0,0.0,160.0,0.11,0.13,9.8,-0.04,-0.03,0.04,0.0089,-0.0011999999,0.5111,2017-06-01 10:39:14,46.556762688186225
0.11,0.17,9.76,0.0,0.0,0.0,160.0,0.099999994,0.13,9.8,0.02,0.0,0.0,0.0089,-0.0011999999,0.5111,2017-06-01 10:39:15,45.118042725111565
0.13,0.13,9.75,0.0,0.0,0.0,160.0,0.099999994,0.13,9.8,0.0,0.0,0.03,0.0089,-0.0011,0.51129997,2017-06-01 10:39:16,31.40547629458223
0.14999999,0.14,9.78,0.0,0.0,0.0,160.0,0.11,0.13,9.8,0.03,0.0,0.03,0.0089,-0.0011,0.5111,2017-06-01 10:39:17,33.400581724066726
0.11,0.16,9.74,0.0,0.0,0.0,160.0,0.11,0.13,9.8,0.0,0.01,0.02,0.0089,-0.0011999999,0.5111,2017-06-01 10:39:18,36.9206077686895
0.16,0.16,9.78,0.0,0.0,0.0,160.0,0.099999994,0.14,9.8,-0.01,0.01,-0.01,0.009,-0.0011,0.5114,2017-06-01 10:39:19,35.43459072147519
0.089999996,0.14999999,9.78,0.0,0.0,0.0,160.0,0.099999994,0.13,9.8,0.0,0.0,0.07,0.0089,-0.0011,0.51159996,2017-06-01 10:39:20,44.956206987597696
0.07,0.11,9.79,0.0,0.0,0.0,160.0,0.099999994,0.13,9.8,0.0,0.0,0.0,0.0089,-0.0011,0.51159996,2017-06-01 10:39:21,42.28145814699292
0.049999997,0.07,9.95,0.0,0.0,0.0,160.0,0.099999994,0.13,9.8,0.03,0.0,-0.07,0.0088,-0.0011,0.51159996,2017-06-01 10:39:22,39.94319558993211
0.12,0.089999996,9.82,0.0,0.0,0.0,160.0,0.099999994,0.13,9.8,0.0,0.02,-0.07,0.0088,-0.0011,0.5115,2017-06-01 10:39:23,44.24950685469465
0.13,0.12,9.809999,0.0,0.0,0.0,160.0,0.099999994,0.13,9.8,0.04,-0.02,-0.04,0.0089,-0.0011,0.5117,2017-06-01 10:39:24,34.87214902969006
0.11,0.12,9.69,0.0,0.0,0.0,160.0,0.099999994,0.13,9.8,0.0,-0.01,-0.08,0.0089,-0.0011,0.51199996,2017-06-01 10:39:25,36.49723995913484
0.089999996,0.049999997,9.8,0.0,0.0,0.0,160.0,0.099999994,0.13,9.8,0.02,0.0,-0.04,0.0089,-0.0011,0.5122,2017-06-01 10:39:26,32.777640616652974
0.089999996,0.14,9.71,0.0,0.0,0.0,160.0,0.099999994,0.13,9.8,0.02,0.0,0.02,0.0089,-0.0011,0.5123,2017-06-01 10:39:27,39.856863042701626
0.089999996,0.17,9.88,0.0,0.0,0.0,160.0,0.099999994,0.13,9.8,0.04,0.01,-0.13,0.0089,-0.0011,0.5123,2017-06-01 10:39:28,41.68533160719305
0.14,0.13,9.67,0.0,0.0,0.0,160.0,0.099999994,0.13,9.8,0.0,-0.02,0.049999997,0.0089,-0.0011,0.5125,2017-06-01 10:39:29,39.21868273861318
0.07,0.099999994,9.79,0.0,0.0,0.0,160.0,0.11,0.13,9.8,0.0,0.0,-0.07,0.009,-0.0011,0.5124,2017-06-01 10:39:30,36.32944800952068
0.099999994,0.089999996,9.71,0.0,0.0,0.0,160.0,0.11,0.13,9.8,0.01,0.0,0.04,0.0089,-0.0011,0.5123,2017-06-01 10:39:31,32.82198675771699
0.11,0.12,9.82,0.0,0.0,0.0,160.0,0.099999994,0.13,9.8,0.01,0.01,-0.04,0.0089,-0.0011,0.5125,2017-06-01 10:39:32,40.110375976668145
0.049999997,0.17,9.71,0.0,0.0,0.0,160.0,0.099999994,0.13,9.8,0.02,0.0,0.02,0.0089,-0.0011,0.5125,2017-06-01 10:39:33,40.58202082573841
0.13,0.17,9.74,0.0,0.0,0.0,160.0,0.11,0.13,9.8,-0.03,0.0,-0.01,0.0089,-0.0011999999,0.5123,2017-06-01 10:39:34,38.88736851015144
0.099999994,0.17,9.559999,0.0,0.0,0.0,160.0,0.11,0.13,9.8,0.02,0.089999996,-0.049999997,0.0088,-0.0011999999,0.5123,2017-06-01 10:39:35,21.203811085405576
0.099999994,0.14999999,9.74,0.0,0.0,0.0,160.0,0.11,0.13,9.8,-0.01,0.0,0.01,0.0088,-0.0011999999,0.5123,2017-06-01 10:39:36,42.46571785074906
0.12,0.16,9.78,0.0,0.0,0.0,160.0,0.11,0.13,9.8,0.02,-0.04,-0.07,0.0089,-0.0011999999,0.5119,2017-06-01 10:39:37,43.67395473020075
0.12,0.04,9.75,0.0,0.0,0.0,160.0,0.099999994,0.13,9.8,0.0,-0.01,-0.04,0.0089,-0.0011,0.5122,2017-06-01 10:39:38,41.63370061996223
0.089999996,0.12,9.73,0.0,0.0,0.0,160.0,0.11,0.13,9.8,0.0,0.0,0.0,0.0089,-0.0011999999,0.5121,2017-06-01 10:39:39,34.54496499014642
0.089999996,0.12,9.9,0.0,0.0,0.0,160.0,0.099999994,0.13,9.8,0.06,0.07,-0.06,0.0089,-0.0011,0.5123,2017-06-01 10:39:41,36.03018283016197
0.06,0.12,9.76,0.0,0.0,0.0,160.0,0.099999994,0.13,9.8,0.0,-0.01,0.049999997,0.0089,-0.0011,0.5123,2017-06-01 10:39:42,45.51938956762128
0.06,0.16,9.79,0.0,0.0,0.0,160.0,0.099999994,0.14,9.8,-0.01,-0.02,0.0,0.009,-0.0011,0.5122,2017-06-01 10:39:43,34.57033132022165
0.11,0.12,9.78,0.0,0.0,0.0,160.0,0.099999994,0.14,9.8,-0.03,0.04,0.02,0.0089,-0.0011,0.51199996,2017-06-01 10:39:44,29.850104924148756
0.14999999,0.16,9.61,0.0,0.0,0.0,160.0,0.099999994,0.13,9.8,0.02,0.01,-0.01,0.0089,-0.0011,0.51199996,2017-06-01 10:39:45,36.80204451627348
0.11,0.14999999,9.69,0.0,0.0,0.0,160.0,0.099999994,0.13,9.8,0.03,-0.049999997,-0.089999996,0.0089,-0.0011,0.5123,2017-06-01 10:39:46,39.834236067785255
0.089999996,0.11,9.76,0.0,0.0,0.0,160.0,0.099999994,0.13,9.8,0.02,0.02,-0.099999994,0.0089,-0.0011,0.5124,2017-06-01 10:39:47,39.813604178894046
0.11,0.099999994,9.71,0.0,0.0,0.0,160.0,0.11,0.13,9.8,0.0,0.04,0.07,0.0089,-0.0011,0.5124,2017-06-01 10:39:48,31.528652959491982
0.11,0.14,9.79,0.0,0.0,0.0,160.0,0.099999994,0.13,9.8,0.01,0.0,-0.049999997,0.009,-0.0011,0.5125,2017-06-01 10:39:49,43.04542655533689
0.14,0.13,9.719999,0.0,0.0,0.0,160.0,0.099999994,0.13,9.8,0.0,0.01,0.07,0.0089,-0.0011,0.5124,2017-06-01 10:39:50,40.79909654408513
0.099999994,0.12,9.78,0.0,0.0,0.0,160.0,0.099999994,0.13,9.8,0.0,0.0,-0.01,0.0089,-0.0011,0.5124,2017-06-01 10:39:51,38.857542879253046
0.17999999,0.06,9.55,0.0,0.0,0.0,160.0,0.099999994,0.14,9.8,-0.07,0.02,0.19,0.0089,-9.999999E-4,0.51269996,2017-06-01 10:39:52,19.564798374180683
0.099999994,0.099999994,9.74,0.0,0.0,0.0,160.0,0.099999994,0.13,9.8,-0.04,0.0,0.24,0.0089,-9.999999E-4,0.5125,2017-06-01 10:39:53,47.54894526422298
0.12,0.13,9.66,0.0,0.0,0.0,160.0,0.099999994,0.13,9.8,-0.06,0.02,0.13,0.0088,-9.999999E-4,0.5126,2017-06-01 10:39:54,45.70631105955181
0.099999994,0.12,9.79,0.0,0.0,0.0,160.0,0.099999994,0.13,9.8,-0.02,0.0,0.0,0.0088,-9.0E-4,0.51309997,2017-06-01 10:39:55,35.246163021489345
0.049999997,0.12,9.8,0.0,0.0,0.0,160.0,0.099999994,0.13,9.8,-0.07,-0.02,0.089999996,0.0088,-9.0E-4,0.5129,2017-06-01 10:39:56,35.916746874368144
0.089999996,0.13,9.78,0.0,0.0,0.0,160.0,0.099999994,0.13,9.8,-0.03,0.0,0.03,0.0088,-9.0E-4,0.51269996,2017-06-01 10:39:57,48.731788150177884
0.089999996,0.12,9.92,0.0,0.0,0.0,160.0,0.099999994,0.13,9.8,0.02,0.0,0.089999996,0.0088,-8.0E-4,0.5128,2017-06-01 10:39:58,46.10337663467423
0.089999996,0.089999996,9.74,0.0,0.0,0.0,160.0,0.099999994,0.13,9.8,0.0,0.01,0.02,0.0088,-9.0E-4,0.5129,2017-06-01 10:39:59,43.78461779787203
0.099999994,0.17,9.639999,0.0,0.0,0.0,160.0,0.099999994,0.13,9.8,0.0,-0.04,0.089999996,0.0088,-9.0E-4,0.5128,2017-06-01 10:40:00,33.10259855171704
0.16,0.14999999,9.639999,0.0,0.0,0.0,160.0,0.099999994,0.13,9.8,-0.03,0.04,0.02,0.0088,-9.0E-4,0.5128,2017-06-01 10:40:01,40.61287035090278
0.11,0.14999999,9.78,0.0,0.0,0.0,160.0,0.099999994,0.13,9.8,0.03,0.0,0.02,0.0088,-9.0E-4,0.5128,2017-06-01 10:40:02,38.52283140281086
0.089999996,0.14999999,9.74,0.0,0.0,0.0,160.0,0.099999994,0.13,9.8,0.0,-0.03,0.049999997,0.0088,-9.0E-4,0.5128,2017-06-01 10:40:03,28.927395406838414
0.08,0.14,9.78,0.0,0.0,0.0,160.0,0.099999994,0.13,9.8,-0.02,0.0,-0.02,0.0088,-9.0E-4,0.5125,2017-06-01 10:40:04,38.157416569160496
0.099999994,0.14,9.8,0.0,0.0,0.0,160.0,0.099999994,0.13,9.8,0.01,-0.02,-0.06,0.0088,-9.0E-4,0.5126,2017-06-01 10:40:05,43.68044044836866
0.08,0.14,9.73,0.0,0.0,0.0,160.0,0.099999994,0.13,9.8,0.0,-0.01,0.01,0.0088,-9.0E-4,0.5126,2017-06-01 10:40:06,34.184896743804565
0.089999996,0.12,9.74,0.0,0.0,0.0,160.0,0.099999994,0.13,9.8,0.0,0.0,-0.02,0.0088,-9.0E-4,0.5126,2017-06-01 10:40:07,32.27323947679923
0.089999996,0.089999996,9.73,0.0,0.0,0.0,160.0,0.099999994,0.14,9.8,0.0,0.0,0.07,0.0088,-8.0E-4,0.5123,2017-06-01 10:40:08,37.6087029831032
0.08,0.14999999,9.73,0.0,0.0,0.0,160.0,0.099999994,0.13,9.8,0.0,-0.08,0.0,0.0088,-8.0E-4,0.5122,2017-06-01 10:40:09,40.345498530009216
0.17999999,0.13,9.53,0.0,0.0,0.0,160.0,0.099999994,0.13,9.8,-0.02,-0.01,0.07,0.0088,-8.0E-4,0.5121,2017-06-01 10:40:10,36.11882970142938
0.099999994,0.13,9.76,0.0,0.0,0.0,160.0,0.099999994,0.13,9.8,-0.02,0.0,0.01,0.0088,-8.0E-4,0.5121,2017-06-01 10:40:11,44.45027463968999
0.089999996,0.089999996,9.78,0.0,0.0,0.0,160.0,0.099999994,0.13,9.8,0.049999997,-0.02,-0.049999997,0.0088,-8.0E-4,0.5122,2017-06-01 10:40:12,31.94666075625286
0.06,0.14,9.69,0.0,0.0,0.0,160.0,0.099999994,0.13,9.8,0.02,-0.04,-0.19999999,0.008599999,-8.0E-4,0.5124,2017-06-01 10:40:13,45.83251226051544
0.11,0.099999994,9.8,0.0,0.0,0.0,160.0,0.099999994,0.13,9.8,-0.03,0.049999997,0.0,0.008599999,-9.0E-4,0.5123,2017-06-01 10:40:14,45.92816657069385
0.089999996,0.16,9.849999,0.0,0.0,0.0,160.0,0.099999994,0.13,9.8,0.0,-0.01,-0.01,0.008599999,-9.0E-4,0.5124,2017-06-01 10:40:15,37.585955376192885
0.13,0.13,9.76,0.0,0.0,0.0,160.0,0.099999994,0.13,9.8,0.0,-0.02,-0.04,0.0087,-9.999999E-4,0.5122,2017-06-01 10:40:16,54.00973308463978
0.04,0.21,9.929999,0.0,0.0,0.0,160.0,0.099999994,0.13,9.8,0.0,-0.01,0.099999994,0.0087,-9.999999E-4,0.5122,2017-06-01 10:40:17,46.87244152965313
0.089999996,0.16,9.75,0.0,0.0,0.0,160.0,0.099999994,0.13,9.8,-0.01,0.01,0.0,0.0087,-9.999999E-4,0.5122,2017-06-01 10:40:18,38.55067832485221
0.12,0.11,9.67,0.0,0.0,0.0,160.0,0.099999994,0.13,9.8,0.0,0.03,0.01,0.0087,-9.999999E-4,0.5121,2017-06-01 10:40:19,36.113591832461736
0.08,0.14999999,9.679999,0.0,0.0,0.0,160.0,0.099999994,0.13,9.8,0.0,0.049999997,0.04,0.0087,-9.999999E-4,0.51199996,2017-06-01 10:40:20,41.157374678333056
0.06,0.11,9.7699995,0.0,0.0,0.0,160.0,0.099999994,0.13,9.8,-0.01,-0.01,0.12,0.0087,-9.999999E-4,0.5119,2017-06-01 10:40:21,41.63892533522804
0.099999994,0.14,9.69,0.0,0.0,0.0,160.0,0.099999994,0.13,9.8,-0.04,-0.04,0.08,0.0087,-9.999999E-4,0.5118,2017-06-01 10:40:22,48.38958474226642
0.099999994,0.12,9.74,0.0,0.0,0.0,160.0,0.099999994,0.13,9.8,0.0,0.0,-0.03,0.0087,-9.0E-4,0.5118,2017-06-01 10:40:23,40.524893865936804
0.099999994,0.0,9.7,0.0,0.0,0.0,160.0,0.099999994,0.13,9.8,-0.049999997,-0.06,0.17,0.0087,-9.999999E-4,0.5119,2017-06-01 10:40:24,40.45014219808433
0.089999996,0.13,9.75,0.0,0.0,0.0,160.0,0.099999994,0.13,9.8,0.03,0.0,-0.02,0.0087,-9.999999E-4,0.5119,2017-06-01 10:40:25,42.086969578904885
0.14,0.16,10.26,0.0,0.03,0.0,160.0,0.099999994,0.13,9.8,-0.03,-0.04,0.01,0.0084,-5.9999997E-4,0.5121,2017-06-01 10:40:26,29.073709419268617
0.11,0.14999999,9.73,0.0,0.0,0.0,160.0,0.099999994,0.13,9.8,0.02,-0.03,-0.03,0.0084999995,-8.0E-4,0.5121,2017-06-01 10:40:28,54.354995745109846
0.12,0.19,9.57,0.0,0.0,0.0,160.0,0.099999994,0.13,9.8,-0.03,0.0,0.049999997,0.0087,-9.0E-4,0.5123,2017-06-01 10:40:28,46.811262779700385
0.11,0.14999999,9.74,0.0,0.0,0.0,160.0,0.099999994,0.13,9.8,0.01,-0.02,0.02,0.0087,-9.0E-4,0.5125,2017-06-01 10:40:30,42.49450412059975
0.13,0.13,9.7699995,0.0,0.0,0.0,160.0,0.099999994,0.13,9.8,0.04,-0.01,-0.13,0.0087,-8.0E-4,0.5126,2017-06-01 10:40:31,37.69253968787207
0.08,0.11,9.79,0.0,0.0,0.0,160.0,0.099999994,0.13,9.8,0.01,0.0,-0.01,0.0088,-8.0E-4,0.5122,2017-06-01 10:40:32,55.538006148021964
0.08,0.14,9.74,0.0,0.0,0.0,160.0,0.099999994,0.13,9.8,0.0,0.0,0.0,0.0087,-8.0E-4,0.5122,2017-06-01 10:40:33,43.17080109490955
0.089999996,0.11,9.78,0.0,0.0,0.0,160.0,0.099999994,0.13,9.8,0.0,0.03,0.03,0.0087,-8.0E-4,0.5123,2017-06-01 10:40:34,48.43790275266153
0.099999994,0.13,9.719999,0.0,0.0,0.0,160.0,0.099999994,0.13,9.8,0.0,0.0,0.0,0.0087,-8.0E-4,0.5123,2017-06-01 10:40:35,50.9500861760797
0.08,0.099999994,9.79,0.0,0.0,0.0,160.0,0.099999994,0.14,9.8,-0.01,0.02,0.0,0.0087,-7.0E-4,0.5123,2017-06-01 10:40:36,41.097331057833095
0.099999994,0.14999999,9.719999,0.0,0.0,0.0,160.0,0.099999994,0.13,9.8,0.0,-0.01,0.0,0.0087,-7.0E-4,0.5122,2017-06-01 10:40:37,45.272678043344754
0.11,0.11,9.83,0.0,0.0,0.0,160.0,0.099999994,0.13,9.8,-0.02,0.04,-0.01,0.0087,-7.0E-4,0.5121,2017-06-01 10:40:38,40.97634645991597
0.08,0.07,9.79,0.0,0.0,0.0,160.0,0.099999994,0.13,9.8,0.0,0.02,-0.049999997,0.0087,-8.0E-4,0.5123,2017-06-01 10:40:39,40.84498638622246
0.099999994,0.17999999,9.76,0.0,0.0,0.0,160.0,0.099999994,0.13,9.8,0.02,-0.11,0.089999996,0.0087,-7.0E-4,0.5122,2017-06-01 10:40:40,30.502294203149344
0.11,0.12,9.76,0.0,0.0,0.0,160.0,0.099999994,0.14,9.8,0.03,0.0,-0.02,0.0087,-7.0E-4,0.5122,2017-06-01 10:40:41,39.51165608803146
0.14,0.13,9.74,0.0,0.0,0.0,160.0,0.099999994,0.13,9.8,0.0,-0.01,0.02,0.0087,-7.0E-4,0.51199996,2017-06-01 10:40:42,34.099228916256685
0.12,0.12,9.7699995,0.0,0.0,0.0,160.0,0.099999994,0.13,9.8,-0.01,0.03,0.0,0.0087,-7.0E-4,0.5118,2017-06-01 10:40:43,28.617863570004438
0.12,0.17,9.75,0.0,0.0,0.0,160.0,0.099999994,0.13,9.8,0.02,0.0,0.0,0.0087,-7.0E-4,0.5119,2017-06-01 10:40:44,31.469615315254043
0.14,0.16,9.75,0.0,0.0,0.0,160.0,0.099999994,0.13,9.8,0.0,-0.01,-0.06,0.0087,-8.0E-4,0.5119,2017-06-01 10:40:45,29.75493738450399
0.06,0.12,9.719999,0.0,0.0,0.0,160.0,0.099999994,0.13,9.8,-0.01,-0.01,0.07,0.0087,-8.0E-4,0.5121,2017-06-01 10:40:46,42.08201622918501
0.11,0.13,9.78,0.0,0.0,0.0,160.0,0.099999994,0.13,9.8,-0.01,0.02,-0.04,0.0087,-8.0E-4,0.5122,2017-06-01 10:40:47,31.88185852581227
0.089999996,0.14,9.82,0.0,0.0,0.0,160.0,0.099999994,0.13,9.8,0.0,0.0,-0.01,0.008599999,-9.0E-4,0.5123,2017-06-01 10:40:48,36.77609358412157
0.049999997,0.089999996,10.0,0.0,0.0,0.0,160.0,0.099999994,0.13,9.8,-0.049999997,0.02,0.02,0.0087,-9.0E-4,0.5122,2017-06-01 10:40:49,42.34826832007755
0.12,0.16,9.75,0.0,0.0,0.0,160.0,0.099999994,0.13,9.8,0.0,0.01,0.0,0.008599999,-9.0E-4,0.5124,2017-06-01 10:40:50,43.5602083129952
0.11,0.14999999,9.809999,0.0,0.0,0.0,160.0,0.099999994,0.13,9.8,0.0,0.01,-0.03,0.008599999,-8.0E-4,0.5124,2017-06-01 10:40:51,30.04012205189064
0.099999994,0.11,9.76,0.0,0.0,0.0,160.0,0.099999994,0.13,9.8,0.01,-0.03,-0.03,0.008599999,-8.0E-4,0.5122,2017-06-01 10:40:52,41.11189501846653
0.089999996,0.14,9.79,0.0,0.0,0.0,160.0,0.099999994,0.13,9.8,0.0,-0.04,0.0,0.0087,-8.0E-4,0.5124,2017-06-01 10:40:53,31.51292622596756
0.07,0.099999994,9.76,0.0,0.0,0.0,160.0,0.099999994,0.13,9.8,-0.01,-0.06,0.04,0.008599999,-8.0E-4,0.5124,2017-06-01 10:40:54,46.91697059972215
0.08,0.14,9.75,0.0,0.0,0.0,160.0,0.099999994,0.13,9.8,-0.02,0.02,0.11,0.0087,-9.0E-4,0.5124,2017-06-01 10:40:55,46.46658800458974
0.13,0.13,9.75,0.0,0.0,0.0,160.0,0.099999994,0.13,9.8,0.0,0.01,0.01,0.0087,-9.0E-4,0.5122,2017-06-01 10:40:56,37.61965845742699
0.11,0.11,9.809999,0.0,0.0,0.0,160.0,0.099999994,0.13,9.8,0.0,-0.03,-0.01,0.008599999,-9.0E-4,0.5124,2017-06-01 10:40:57,35.921598358258066
0.13,0.11,9.76,0.0,0.0,0.0,160.0,0.099999994,0.13,9.8,-0.03,-0.03,0.0,0.0087,-8.0E-4,0.5126,2017-06-01 10:40:58,27.696217729556327
0.08,0.13,9.74,0.0,0.0,0.0,160.0,0.099999994,0.13,9.8,0.01,0.0,0.03,0.008599999,-8.0E-4,0.51269996,2017-06-01 10:40:59,30.910855128561604
0.089999996,0.16,9.719999,0.0,0.0,0.0,160.0,0.099999994,0.13,9.8,0.02,0.01,0.0,0.008599999,-7.0E-4,0.5126,2017-06-01 10:41:00,38.10351989267093
0.11,0.14,9.7699995,0.0,0.0,0.0,160.0,0.099999994,0.13,9.8,0.01,0.01,0.0,0.0087,-8.0E-4,0.5125,2017-06-01 10:41:01,32.907230902568685
0.11,0.16,9.73,0.0,0.0,0.0,160.0,0.099999994,0.13,9.8,0.0,-0.03,-0.02,0.0087,-8.0E-4,0.5122,2017-06-01 10:41:02,39.36343522880764
0.12,0.17,9.75,0.0,0.0,0.0,160.0,0.099999994,0.13,9.8,0.01,0.0,0.0,0.0087,-8.0E-4,0.5123,2017-06-01 10:41:03,40.06309822578913
0.14,0.099999994,9.66,0.0,0.0,0.0,160.0,0.099999994,0.14,9.8,-0.02,0.0,0.03,0.0088,-7.0E-4,0.5122,2017-06-01 10:41:04,41.00806357713088
0.099999994,0.12,9.7,0.0,0.0,0.0,160.0,0.099999994,0.14,9.8,-0.03,-0.04,-0.17999999,0.0088,-7.0E-4,0.5121,2017-06-01 10:41:05,38.55976923798275
0.089999996,0.16,9.69,0.0,0.0,0.0,160.0,0.099999994,0.14,9.8,0.0,0.0,-0.03,0.0088,-8.0E-4,0.51199996,2017-06-01 10:41:06,40.698079892103536
0.14,0.14999999,9.7,0.0,0.0,0.0,160.0,0.099999994,0.14,9.8,-0.01,0.0,0.0,0.0088,-8.0E-4,0.51199996,2017-06-01 10:41:07,41.11818497634698
0.099999994,0.14999999,9.7,0.0,0.0,0.0,160.0,0.099999994,0.14,9.8,-0.01,-0.01,-0.01,0.0088,-7.0E-4,0.5117,2017-06-01 10:41:08,35.83106854049784
0.07,0.11,9.76,0.0,0.0,0.0,160.0,0.099999994,0.14,9.8,0.03,0.02,-0.049999997,0.0088,-7.0E-4,0.51159996,2017-06-01 10:41:09,25.62142945635612
0.13,0.14999999,9.78,0.0,0.0,0.0,160.0,0.089999996,0.14,9.8,0.02,-0.03,-0.03,0.0087,-5.9999997E-4,0.51129997,2017-06-01 10:41:10,44.95980875951957
0.08,0.08,9.79,0.0,0.0,0.0,160.0,0.099999994,0.13,9.8,0.02,-0.049999997,-0.13,0.009,-0.0011999999,0.5114,2017-06-01 10:41:11,41.296599702460355
0.19999999,0.11,9.63,0.0,0.0,0.0,160.0,0.11,0.14,9.8,-0.01,0.099999994,-0.24,0.009,-0.0011,0.5115,2017-06-01 10:41:12,34.00779743929226
0.089999996,0.14999999,9.71,0.0,0.0,0.0,160.0,0.11,0.14,9.8,0.0,-0.01,-0.07,0.009,-0.0011999999,0.5112,2017-06-01 10:41:13,41.83424527979295
0.13,0.12,9.76,0.0,0.0,0.0,160.0,0.11,0.13,9.8,-0.01,0.02,0.0,0.009,-0.0011999999,0.5112,2017-06-01 10:41:14,36.68107239707989
0.13,0.14,9.71,0.0,0.0,0.0,160.0,0.11,0.13,9.8,0.02,0.0,0.01,0.009,-0.0011999999,0.511,2017-06-01 10:41:15,27.87227252050301
0.11,0.099999994,9.75,0.0,0.0,0.0,160.0,0.11,0.14,9.8,-0.01,0.02,-0.01,0.009,-0.0011,0.511,2017-06-01 10:41:16,41.796892143249835
0.12,0.14999999,9.76,0.0,0.0,0.0,160.0,0.11,0.14,9.8,-0.02,-0.01,0.0,0.009,-0.0011,0.5112,2017-06-01 10:41:17,31.426420898121307
0.16,0.14999999,9.69,0.0,0.0,0.0,160.0,0.11,0.14,9.8,0.01,0.049999997,0.08,0.009,-0.0011,0.5115,2017-06-01 10:41:19,37.634676246360335
0.11,0.089999996,9.78,0.0,0.0,0.0,160.0,0.11,0.14,9.8,0.01,0.02,-0.03,0.009,-0.0011,0.51129997,2017-06-01 10:41:20,40.46698791203206
0.11,0.13,9.7699995,0.0,0.0,0.0,160.0,0.11,0.14,9.8,0.01,0.0,-0.02,0.009,-0.0011999999,0.51159996,2017-06-01 10:41:21,35.186948582233086
0.099999994,0.16,9.74,0.0,0.0,0.0,160.0,0.11,0.14,9.8,-0.01,0.02,0.03,0.009,-0.0011999999,0.51159996,2017-06-01 10:41:22,41.614041236910936
0.12,0.11,9.74,0.0,0.0,0.0,160.0,0.11,0.13,9.8,0.01,0.01,-0.03,0.009099999,-0.0013,0.51129997,2017-06-01 10:41:23,38.4967177029238
0.089999996,0.14,9.95,0.0,0.0,0.0,160.0,0.11,0.14,9.8,0.04,0.01,-0.17999999,0.009,-0.0013,0.51129997,2017-06-01 10:41:24,41.0406275500972
0.12,0.13,9.7699995,0.0,0.0,0.0,160.0,0.11,0.13,9.8,0.0,-0.01,-0.01,0.009,-0.0013,0.5111,2017-06-01 10:41:25,41.258067438461204
0.089999996,0.13,9.84,0.0,0.0,0.0,160.0,0.11,0.14,9.8,0.0,0.06,0.13,0.009099999,-0.0013,0.5111,2017-06-01 10:41:26,38.614679590369946
0.11,0.17999999,9.71,0.0,0.0,0.0,160.0,0.11,0.14,9.8,-0.02,0.0,0.01,0.009099999,-0.0013,0.5112,2017-06-01 10:41:27,46.86609154681407
0.049999997,0.21,9.7,0.0,0.0,0.0,160.0,0.11,0.14,9.8,-0.06,0.04,-0.14999999,0.009099999,-0.0013,0.5111,2017-06-01 10:41:28,28.497084601191688
0.07,0.11,9.7699995,0.0,0.0,0.0,160.0,0.11,0.14,9.8,-0.03,0.0,-0.02,0.009099999,-0.0013,0.511,2017-06-01 10:41:29,47.44277049834998
0.08,0.13,9.9,0.0,0.0,0.0,160.0,0.11,0.14,9.8,0.11,-0.04,-0.25,0.009099999,-0.0013,0.5111,2017-06-01 10:41:30,38.83792142911432
0.14,0.14999999,9.74,0.0,0.0,0.0,160.0,0.11,0.14,9.8,0.0,0.04,-0.06,0.009099999,-0.0013,0.5112,2017-06-01 10:41:31,46.212874406528826
0.14999999,0.22,9.61,0.0,0.0,0.0,160.0,0.11,0.14,9.8,-0.01,0.0,0.04,0.009,-0.0013,0.511,2017-06-01 10:41:32,39.503058925852585
0.099999994,0.17999999,9.71,0.0,0.0,0.0,160.0,0.11,0.13,9.8,0.03,0.0,-0.089999996,0.009,-0.0013,0.5108,2017-06-01 10:41:33,45.74084906569536
0.12,0.099999994,9.76,0.0,0.0,0.0,160.0,0.11,0.13,9.8,-0.02,0.0,0.0,0.009,-0.0013,0.5107,2017-06-01 10:41:34,43.739310742454116
0.12,0.13,9.7699995,0.0,0.0,0.0,160.0,0.11,0.13,9.8,0.07,-0.04,-0.089999996,0.009099999,-0.0013,0.5105,2017-06-01 10:41:35,39.559946677919825
0.21,0.08,9.67,0.0,0.0,0.0,160.0,0.11,0.14,9.8,-0.049999997,0.06,0.099999994,0.009099999,-0.0013,0.5105,2017-06-01 10:41:36,38.110740248762966
0.07,0.16,9.76,0.0,0.0,0.0,160.0,0.11,0.14,9.8,0.02,-0.04,-0.01,0.009099999,-0.0013,0.5105,2017-06-01 10:41:37,42.41012992929549
0.12,0.08,9.639999,0.0,0.0,0.0,160.0,0.11,0.14,9.8,-0.03,0.049999997,0.01,0.009099999,-0.0013,0.5106,2017-06-01 10:41:38,32.93549859064005
0.12,0.17,9.7699995,0.0,0.0,0.0,160.0,0.11,0.14,9.8,-0.01,0.0,0.049999997,0.009099999,-0.0013,0.5106,2017-06-01 10:41:39,41.17626856878303
0.13,0.06,9.61,0.0,0.0,0.0,160.0,0.11,0.14,9.8,0.03,0.049999997,-0.17999999,0.0092,-0.0013,0.511,2017-06-01 10:41:40,47.273419642922946
0.28,0.17,9.34,0.0,0.0,0.0,160.0,0.11,0.14,9.8,-0.14999999,0.01,0.29999998,0.009099999,-0.0013,0.51089996,2017-06-01 10:41:41,39.509697962178706
0.08,0.12,9.809999,0.0,0.0,0.0,160.0,0.11,0.14,9.8,-0.02,0.01,0.06,0.009099999,-0.0011999999,0.51089996,2017-06-01 10:41:42,46.16978960655583
0.089999996,0.14999999,9.75,0.0,0.0,0.0,160.0,0.11,0.14,9.8,0.01,0.0,0.03,0.009099999,-0.0013,0.511,2017-06-01 10:41:43,41.40380912475287
0.049999997,0.16,9.83,0.0,0.0,0.0,160.0,0.11,0.14,9.8,0.07,-0.02,-0.08,0.009099999,-0.0013,0.5111,2017-06-01 10:41:44,37.6417182551414
0.12,0.14,9.78,0.0,0.0,0.0,160.0,0.11,0.14,9.8,0.01,0.02,0.0,0.009099999,-0.0013,0.5111,2017-06-01 10:41:45,43.67926736757695
0.06,0.17,9.76,0.0,0.0,0.0,160.0,0.11,0.14,9.8,-0.01,0.0,-0.04,0.009099999,-0.0013,0.51129997,2017-06-01 10:41:46,36.677384302834646
0.099999994,0.11,9.71,0.0,0.0,0.0,160.0,0.11,0.14,9.8,0.02,0.03,0.01,0.009099999,-0.0013,0.51089996,2017-06-01 10:41:47,21.459553256612864
0.07,0.14999999,9.88,0.0,0.0,0.0,160.0,0.11,0.14,9.8,0.0,0.06,-0.02,0.009099999,-0.0013,0.5107,2017-06-01 10:41:48,38.300828182576396
0.17,0.17999999,9.7699995,0.0,0.0,0.0,160.0,0.11,0.14,9.8,0.02,-0.02,-0.17999999,0.0092,-0.0013,0.5105,2017-06-01 10:41:49,44.91959804813285
0.11,0.11,9.74,0.0,0.0,0.0,160.0,0.11,0.14,9.8,0.02,-0.01,0.02,0.009099999,-0.0013,0.51019996,2017-06-01 10:41:50,50.65246238350015
0.08,0.13,9.76,0.0,0.0,0.0,160.0,0.11,0.14,9.8,-0.01,-0.01,-0.02,0.0092,-0.0011999999,0.5105,2017-06-01 10:41:51,48.71980402757022
0.13,0.14,9.7699995,0.0,0.0,0.0,160.0,0.11,0.14,9.8,0.0,0.02,-0.03,0.0092,-0.0011999999,0.5103,2017-06-01 10:41:52,29.15923094049392
0.07,0.16,9.75,0.0,0.0,0.0,160.0,0.11,0.14,9.8,0.02,0.02,-0.12,0.009099999,-0.0013,0.51019996,2017-06-01 10:41:53,26.06481083839629
0.12,0.089999996,9.75,0.0,0.0,0.0,160.0,0.11,0.14,9.8,-0.02,0.01,0.0,0.009099999,-0.0013,0.5106,2017-06-01 10:41:54,36.977110174715385
0.089999996,0.14999999,9.75,0.0,0.0,0.0,160.0,0.11,0.14,9.8,0.0,0.06,-0.02,0.009099999,-0.0013,0.5108,2017-06-01 10:41:55,33.507194018060666
0.11,0.14,9.66,0.0,0.0,0.0,160.0,0.11,0.14,9.8,-0.049999997,0.0,0.06,0.009099999,-0.0014,0.5108,2017-06-01 10:41:56,32.2858580705924
0.17,0.19999999,10.41,0.0,0.0,0.0,160.0,0.11,0.14,9.8,0.07,0.089999996,0.0,0.009099999,-0.0011999999,0.5106,2017-06-01 10:41:57,38.016723675185034
0.11,0.02,9.719999,0.0,0.0,0.0,160.0,0.11,0.14,9.8,0.02,-0.089999996,-0.08,0.009099999,-0.0011999999,0.5101,2017-06-01 10:41:58,51.9033731014249
0.08,0.11,9.79,0.0,0.0,0.0,160.0,0.11,0.14,9.8,-0.02,0.0,0.04,0.009,-0.0011999999,0.50949997,2017-06-01 10:41:59,43.93106692638899
0.08,0.14,9.76,0.0,0.0,0.0,160.0,0.099999994,0.14,9.8,-0.02,0.02,0.0,0.009,-0.0011,0.5089,2017-06-01 10:42:00,41.031179490869334
0.099999994,0.14,9.78,0.0,0.0,0.0,160.0,0.099999994,0.14,9.8,-0.04,0.02,0.08,0.009,-0.0011,0.5086,2017-06-01 10:42:01,28.334067351015015
0.049999997,0.14,9.809999,0.0,0.0,0.0,160.0,0.099999994,0.14,9.8,0.0,-0.01,-0.02,0.009,-0.0011,0.5081,2017-06-01 10:42:02,46.94236250092792
0.07,0.16,9.84,0.0,0.0,0.0,160.0,0.099999994,0.14,9.8,-0.01,-0.02,0.07,0.0089,-0.0011,0.5081,2017-06-01 10:42:03,38.056445293056214
0.12,0.06,9.69,0.0,0.0,0.0,160.0,0.099999994,0.14,9.8,-0.01,0.0,-0.01,0.009,-9.999999E-4,0.508,2017-06-01 10:42:04,44.30927396982898
0.13,0.13,9.7,0.0,0.0,0.0,160.0,0.099999994,0.14,9.8,0.01,0.01,0.0,0.009,-9.999999E-4,0.5076,2017-06-01 10:42:05,47.3338856892065
-0.02,0.08,8.2699995,0.0,0.0,0.0,160.0,0.099999994,0.14,9.8,-0.04,-0.19999999,0.83,0.009,-0.0011,0.5076,2017-06-01 10:42:07,36.938727893288736
0.07,0.099999994,9.76,0.0,0.0,0.0,160.0,0.11,0.13,9.8,-0.03,0.01,0.0,0.0089,-0.0013,0.5079,2017-06-01 10:42:08,56.50152715134084
0.17999999,0.089999996,9.59,0.0,0.0,0.0,160.0,0.11,0.13,9.8,0.089999996,0.01,-0.24,0.0089,-0.0013,0.50839996,2017-06-01 10:42:09,43.03952244787592
0.06,0.14,9.719999,0.0,0.0,0.0,160.0,0.11,0.13,9.8,0.01,-0.03,-0.049999997,0.0089,-0.0013,0.5087,2017-06-01 10:42:10,47.449855121524294
0.11,0.14,9.75,0.0,0.0,0.0,160.0,0.11,0.13,9.8,0.0,0.0,0.0,0.0089,-0.0011999999,0.50879997,2017-06-01 10:42:11,29.88132454631916
0.19999999,0.06,9.679999,0.0,0.0,0.0,160.0,0.099999994,0.13,9.8,-0.07,0.099999994,0.14,0.009,-0.0011,0.5087,2017-06-01 10:42:12,37.65316097478748
0.12,0.14999999,9.78,0.0,0.0,0.0,160.0,0.099999994,0.14,9.8,0.0,0.03,0.0,0.0089,-0.0011,0.50909996,2017-06-01 10:42:13,43.92773630730741
0.14999999,0.0,9.73,0.0,0.0,0.0,160.0,0.099999994,0.14,9.8,-0.06,0.049999997,0.31,0.0089,-9.999999E-4,0.5094,2017-06-01 10:42:14,47.62516563802215
0.07,0.13,9.76,0.0,0.0,0.0,160.0,0.099999994,0.14,9.8,-0.03,0.0,0.04,0.0089,-9.999999E-4,0.5096,2017-06-01 10:42:15,43.375106006308116
0.14,0.099999994,9.58,0.0,0.0,0.0,160.0,0.099999994,0.14,9.8,0.08,0.0,-0.089999996,0.0088,-9.0E-4,0.5096,2017-06-01 10:42:16,33.25717652598381
0.089999996,0.14,9.719999,0.0,0.0,0.0,160.0,0.099999994,0.14,9.8,0.03,0.02,-0.06,0.0089,-9.0E-4,0.5097,2017-06-01 10:42:17,45.47714724316816
0.08,0.17999999,9.76,0.0,0.0,0.0,160.0,0.099999994,0.14,9.8,0.01,-0.04,0.01,0.0089,-9.0E-4,0.5098,2017-06-01 10:42:18,40.21514413506403
0.08,0.12,9.73,0.0,0.0,0.0,160.0,0.099999994,0.14,9.8,-0.049999997,0.0,0.099999994,0.0088,-7.0E-4,0.50949997,2017-06-01 10:42:19,25.492464015458594
0.089999996,0.11,9.76,0.0,0.0,0.0,160.0,0.08,0.14,9.8,-0.01,-0.02,0.03,0.0084999995,-2.0E-4,0.5092,2017-06-01 10:42:20,45.471720551598686
0.11,0.03,9.66,0.0,0.0,0.0,160.0,0.089999996,0.14,9.8,0.02,-0.03,0.049999997,0.008599999,-2.9999999E-4,0.50909996,2017-06-01 10:42:21,34.35993433859182
0.06,0.13,9.969999,0.0,0.0,0.0,160.0,0.089999996,0.14,9.8,0.07,0.049999997,-0.089999996,0.008599999,-4.0E-4,0.509,2017-06-01 10:42:22,41.10311447298953
0.13,0.08,9.76,0.0,0.0,0.0,160.0,0.089999996,0.14,9.8,0.01,-0.03,0.0,0.0087,-4.0E-4,0.5087,2017-06-01 10:42:23,46.27568494606336
0.099999994,0.12,9.73,0.0,0.0,0.0,160.0,0.089999996,0.14,9.8,-0.01,0.02,-0.11,0.0087,-4.9999997E-4,0.50839996,2017-06-01 10:42:24,40.08053009024903
0.099999994,0.099999994,9.71,0.0,0.0,0.0,160.0,0.089999996,0.14,9.8,0.049999997,-0.03,0.0,0.0087,-4.9999997E-4,0.50839996,2017-06-01 10:42:25,45.50845522364142
0.099999994,0.099999994,9.75,0.0,0.0,0.0,160.0,0.089999996,0.14,9.8,-0.01,0.01,0.01,0.0088,-4.9999997E-4,0.5082,2017-06-01 10:42:26,34.8359955367017
0.11,0.12,9.78,0.0,0.0,0.0,160.0,0.089999996,0.14,9.8,-0.03,0.0,-0.01,0.0088,-5.9999997E-4,0.50769997,2017-06-01 10:42:27,33.78217214919869
0.11,0.099999994,9.75,0.0,0.0,0.0,160.0,0.089999996,0.14,9.8,0.02,0.0,-0.01,0.0088,-5.9999997E-4,0.50769997,2017-06-01 10:42:28,33.819184816843894
0.04,0.08,9.849999,0.0,0.0,0.0,160.0,0.089999996,0.14,9.8,0.0,0.01,-0.06,0.0088,-5.9999997E-4,0.50769997,2017-06-01 10:42:29,32.60792252150033
0.049999997,0.13,9.74,0.0,0.0,0.0,160.0,0.099999994,0.14,9.8,0.0,-0.02,0.02,0.0088,-7.0E-4,0.50729996,2017-06-01 10:42:30,42.816271006819264
0.099999994,0.19,9.8,0.0,0.0,0.0,160.0,0.099999994,0.14,9.8,0.0,0.02,-0.01,0.0089,-7.0E-4,0.5074,2017-06-01 10:42:31,23.619343128356448
0.11,0.17,9.73,0.0,0.0,0.0,160.0,0.099999994,0.14,9.8,0.0,-0.02,-0.02,0.0089,-7.0E-4,0.5074,2017-06-01 10:42:32,38.80112286752797
0.14,0.07,9.51,0.0,0.0,0.0,160.0,0.099999994,0.14,9.8,-0.01,0.01,0.0,0.0088,-7.0E-4,0.5075,2017-06-01 10:42:33,21.653538924374406
0.099999994,0.099999994,9.71,0.0,0.0,0.0,160.0,0.099999994,0.14,9.8,0.01,0.01,0.01,0.0089,-7.0E-4,0.5072,2017-06-01 10:42:34,41.95808444448985
0.13,0.13,9.75,0.0,0.0,0.0,160.0,0.099999994,0.14,9.8,0.0,0.01,0.0,0.0089,-7.0E-4,0.5072,2017-06-01 10:42:35,35.26712364156603
0.14,0.14999999,9.73,0.0,0.0,0.0,160.0,0.099999994,0.14,9.8,0.01,-0.01,-0.02,0.0089,-7.0E-4,0.5074,2017-06-01 10:42:36,24.241555689630463
0.06,0.17999999,9.83,0.0,0.0,0.0,160.0,0.099999994,0.14,9.8,0.0,0.0,0.0,0.0089,-7.0E-4,0.5075,2017-06-01 10:42:37,19.51301462720285
0.089999996,0.14,9.75,0.0,0.0,0.0,160.0,0.099999994,0.14,9.8,0.0,0.0,-0.02,0.0089,-8.0E-4,0.5074,2017-06-01 10:42:38,41.200230347843345
0.13,0.099999994,9.73,0.0,0.0,0.0,160.0,0.099999994,0.14,9.8,-0.01,0.0,0.0,0.0089,-8.0E-4,0.50729996,2017-06-01 10:42:39,30.73618483774746
0.17999999,0.22,9.7699995,0.0,0.0,0.0,160.0,0.099999994,0.14,9.8,0.01,0.02,0.049999997,0.0089,-7.0E-4,0.5072,2017-06-01 10:42:40,39.529614890429784
0.12,0.19,9.74,0.0,0.0,0.0,160.0,0.099999994,0.14,9.8,-0.01,0.03,-0.04,0.0089,-8.0E-4,0.5074,2017-06-01 10:42:41,51.48381449852991
0.12,0.11,9.75,0.0,0.0,0.0,160.0,0.099999994,0.14,9.8,0.0,0.02,-0.01,0.0089,-8.0E-4,0.50769997,2017-06-01 10:42:42,34.65638117308353
0.089999996,0.11,9.809999,0.0,0.0,0.0,160.0,0.099999994,0.14,9.8,0.0,0.02,0.0,0.0089,-8.0E-4,0.50769997,2017-06-01 10:42:43,34.7540330289524
0.13,0.14,9.78,0.0,0.0,0.0,160.0,0.099999994,0.14,9.8,-0.02,0.0,-0.049999997,0.0089,-8.0E-4,0.508,2017-06-01 10:42:44,29.496529740588095
0.089999996,0.099999994,9.8,0.0,0.0,0.0,160.0,0.099999994,0.14,9.8,0.0,0.03,0.0,0.0089,-8.0E-4,0.5082,2017-06-01 10:42:45,31.090575641349226
0.08,0.17,9.73,0.0,0.0,0.0,160.0,0.099999994,0.14,9.8,0.0,0.0,0.03,0.0089,-8.0E-4,0.5087,2017-06-01 10:42:46,41.28156754519179
0.099999994,0.12,9.7699995,0.0,0.0,0.0,160.0,0.099999994,0.14,9.8,0.0,0.04,-0.07,0.0089,-8.0E-4,0.5086,2017-06-01 10:42:47,38.07126905761133
0.08,0.16,9.7,0.0,0.0,0.0,160.0,0.099999994,0.14,9.8,0.03,-0.049999997,-0.089999996,0.0089,-8.0E-4,0.5086,2017-06-01 10:42:48,36.08869577630746
0.08,0.08,9.809999,0.0,0.0,0.0,160.0,0.099999994,0.14,9.8,0.01,0.0,-0.14,0.0089,-8.0E-4,0.5086,2017-06-01 10:42:49,35.873922681768654
0.11,0.14,9.73,0.0,0.0,0.0,160.0,0.099999994,0.14,9.8,0.0,-0.03,-0.02,0.0089,-8.0E-4,0.5087,2017-06-01 10:42:51,36.03511009155051
0.13,0.22,9.809999,0.0,0.0,0.0,160.0,0.099999994,0.14,9.8,0.089999996,0.04,0.08,0.0089,-9.0E-4,0.5087,2017-06-01 10:42:51,35.50389128852081
0.13,0.13,9.849999,0.0,0.0,0.0,160.0,0.099999994,0.14,9.8,0.03,0.02,-0.07,0.0089,-9.0E-4,0.50879997,2017-06-01 10:42:53,55.05490245552642
0.13,0.14,9.679999,0.0,0.0,0.0,160.0,0.099999994,0.14,9.8,0.089999996,0.0,-0.04,0.009,-9.0E-4,0.5086,2017-06-01 10:42:54,34.59551502033993
0.089999996,0.16,9.84,0.0,0.0,0.0,160.0,0.099999994,0.14,9.8,0.03,-0.01,-0.07,0.009,-9.999999E-4,0.5087,2017-06-01 10:42:55,43.02563685949114
0.089999996,0.089999996,9.67,0.0,0.0,0.0,160.0,0.099999994,0.14,9.8,0.03,0.03,-0.12,0.009,-9.999999E-4,0.50879997,2017-06-01 10:42:56,41.977346495474315
0.12,0.12,9.73,0.0,0.0,0.0,160.0,0.099999994,0.14,9.8,0.04,0.0,-0.08,0.009,-9.999999E-4,0.5085,2017-06-01 10:42:57,40.99175487922906
0.089999996,0.13,9.7,0.0,0.0,0.0,160.0,0.099999994,0.14,9.8,0.0,0.06,0.03,0.009,-9.0E-4,0.5086,2017-06-01 10:42:58,38.07358475494825
0.13,0.11,9.71,0.0,0.0,0.0,160.0,0.099999994,0.14,9.8,0.02,0.01,0.0,0.009,-8.0E-4,0.5087,2017-06-01 10:42:59,49.04862846366229
0.099999994,0.12,9.8,0.0,0.0,0.0,160.0,0.099999994,0.14,9.8,0.01,0.0,0.02,0.009,-9.0E-4,0.5085,2017-06-01 10:43:00,45.07057022805985
0.099999994,0.13,9.74,0.0,0.0,0.0,160.0,0.099999994,0.14,9.8,0.0,0.0,0.0,0.009,-9.0E-4,0.5083,2017-06-01 10:43:01,32.292590203784215
0.14,0.14,9.7699995,0.0,0.0,0.0,160.0,0.099999994,0.14,9.8,-0.02,-0.01,0.02,0.009,-9.0E-4,0.5083,2017-06-01 10:43:02,29.668078856184152
0.13,0.099999994,9.76,0.0,0.0,0.0,160.0,0.099999994,0.14,9.8,0.0,0.0,-0.01,0.009,-9.0E-4,0.5085,2017-06-01 10:43:03,42.49968060184469
0.11,0.14,9.79,0.0,0.0,0.0,160.0,0.099999994,0.14,9.8,0.01,0.0,-0.03,0.009,-9.999999E-4,0.50839996,2017-06-01 10:43:04,39.70292155499718
0.099999994,0.13,9.7699995,0.0,0.0,0.0,160.0,0.099999994,0.14,9.8,0.02,-0.03,-0.06,0.009,-9.999999E-4,0.50839996,2017-06-01 10:43:05,29.9305112636352
0.089999996,0.16,9.84,0.0,0.0,0.0,160.0,0.099999994,0.14,9.8,-0.049999997,0.08,0.089999996,0.009099999,-9.999999E-4,0.5083,2017-06-01 10:43:06,39.46679280288764
0.06,0.17999999,9.969999,0.0,0.0,0.0,160.0,0.099999994,0.14,9.8,0.01,-0.049999997,0.14,0.009,-9.999999E-4,0.5083,2017-06-01 10:43:07,37.351026972208906
0.089999996,0.14999999,9.83,0.0,0.0,0.0,160.0,0.099999994,0.14,9.8,0.01,-0.04,-0.04,0.009,-9.0E-4,0.5083,2017-06-01 10:43:08,40.675355355717365
0.11,0.13,9.67,0.0,0.0,0.0,160.0,0.099999994,0.14,9.8,-0.01,0.01,0.0,0.009,-9.0E-4,0.50839996,2017-06-01 10:43:09,45.32986809302423
0.099999994,0.19999999,9.78,0.0,0.0,0.0,160.0,0.099999994,0.14,9.8,0.02,0.049999997,-0.12,0.009099999,-9.999999E-4,0.50839996,2017-06-01 10:43:10,43.14049901693834
0.13,0.06,9.79,0.0,-0.01,0.0,160.0,0.11,0.14,9.8,0.0,0.14,0.06,0.0092,-0.0011999999,0.5082,2017-06-01 10:43:11,45.23849956489432
0.099999994,0.17,9.78,0.0,0.0,0.0,160.0,0.11,0.14,9.8,0.01,-0.01,0.0,0.0092,-0.0011999999,0.5082,2017-06-01 10:43:12,43.656126972180765
2.4199998,0.089999996,9.38,0.39,-0.81,0.13,40.0,2.19,0.17,9.55,0.06,0.07,0.21,0.088999994,-0.106199995,0.5302,2017-06-01 10:43:13,45.962454848877314
4.0899997,0.45999998,9.3,-0.07,0.11,-0.01,40.0,4.12,0.44,8.88,0.0,-0.089999996,0.41,0.1299,-0.1678,0.5153,2017-06-01 10:43:14,42.260384764095456
2.78,0.41,8.66,-0.14999999,0.5,-0.17,40.0,3.27,0.39,9.23,-0.32,0.02,-0.26,0.0936,-0.1231,0.5074,2017-06-01 10:43:15,41.533652476127955
0.17,0.13,9.76,0.0,0.0,0.0,40.0,0.29,0.17,9.8,0.0,0.01,0.03,0.015199999,-0.0079,0.5069,2017-06-01 10:43:16,41.123532407758205
0.08,0.13,9.71,0.0,0.0,0.0,160.0,0.22,0.17,9.8,-0.06,-0.049999997,-0.11,0.0131,-0.0050999997,0.5074,2017-06-01 10:43:17,43.12872519016632
0.14,0.08,9.809999,0.0,0.01,0.0,160.0,0.22999999,0.16,9.8,0.03,0.02,-0.07,0.0132,-0.0056999996,0.50769997,2017-06-01 10:43:18,46.113987849376905
0.14,0.11,9.76,0.0,0.0,0.0,160.0,0.19,0.14999999,9.8,0.0,-0.01,0.0,0.011899999,-0.0045,0.5076,2017-06-01 10:43:19,36.63782336934058
0.099999994,0.14,9.73,0.0,0.0,0.0,160.0,0.17999999,0.14999999,9.8,0.07,0.01,-0.089999996,0.0116,-0.0037999998,0.5076,2017-06-01 10:43:20,22.66715277670844
0.13,0.07,9.87,0.0,0.0,0.0,160.0,0.17,0.14999999,9.8,-0.049999997,-0.03,0.08,0.0112,-0.0036,0.50769997,2017-06-01 10:43:21,36.57560668076014
0.21,0.14999999,9.22,0.0,0.0,0.0,160.0,0.16,0.14,9.8,0.0,0.049999997,0.25,0.010799999,-0.0034999999,0.508,2017-06-01 10:43:22,48.20529572832196
0.12,0.08,9.76,0.0,0.0,0.0,160.0,0.16,0.14,9.8,0.0,0.01,0.049999997,0.0106,-0.0034999999,0.5082,2017-06-01 10:43:23,50.31320850863806
0.14,0.17,9.74,0.0,0.0,0.0,160.0,0.14999999,0.14,9.8,0.03,-0.01,-0.049999997,0.0103,-0.0030999999,0.5083,2017-06-01 10:43:24,37.04549136716374
0.16,0.11,9.63,0.0,0.0,0.0,160.0,0.14999999,0.14,9.8,-0.04,0.03,0.04,0.0104,-0.003,0.5085,2017-06-01 10:43:25,51.91087099579911
0.12,0.22999999,10.04,0.0,0.0,0.0,160.0,0.16,0.14,9.8,-0.26999998,-0.07,1.1,0.0109,-0.0034999999,0.5085,2017-06-01 10:43:26,50.35903387085517
0.12,0.16,9.71,0.0,0.0,0.0,160.0,0.16,0.14,9.8,-0.03,0.0,0.03,0.010799999,-0.0033999998,0.5087,2017-06-01 10:43:27,62.9174869759941
0.13,0.089999996,9.74,0.0,0.0,0.0,160.0,0.16,0.14,9.8,0.0,0.02,-0.03,0.0106999995,-0.0033999998,0.5086,2017-06-01 10:43:28,38.75536634755987
0.17,0.06,9.76,0.0,0.0,0.0,160.0,0.16,0.14,9.8,0.0,-0.01,-0.12,0.0105,-0.0034999999,0.5087,2017-06-01 10:43:29,21.739541210270815
0.24,-0.01,9.74,0.0,0.0,0.0,160.0,0.14999999,0.14,9.8,0.0,0.04,0.25,0.0104,-0.0032,0.5087,2017-06-01 10:43:30,46.06918148490392
0.13,0.17,9.73,0.0,0.0,0.0,160.0,0.14999999,0.14,9.8,0.01,-0.01,0.0,0.0103,-0.0032,0.509,2017-06-01 10:43:31,39.915012309463606
0.14,0.06,9.809999,0.0,0.0,0.0,160.0,0.14999999,0.14,9.8,0.01,0.0,-0.04,0.010199999,-0.0032,0.50909996,2017-06-01 10:43:32,40.628318651932275
0.06,0.14,9.78,0.0,0.0,0.0,160.0,0.14999999,0.13,9.8,0.03,-0.099999994,0.0,0.010199999,-0.0032,0.5092,2017-06-01 10:43:33,47.25902846952301
0.22,0.17,10.16,0.0,0.0,0.0,160.0,0.14999999,0.14,9.8,0.0,0.03,-0.28,0.010199999,-0.0030999999,0.50909996,2017-06-01 10:43:34,52.47610440806267
0.16,0.11,9.65,0.0,0.0,0.0,160.0,0.14999999,0.14,9.8,-0.01,-0.049999997,0.03,0.0101,-0.003,0.5092,2017-06-01 10:43:35,54.23890264368325
