ACC_X,ACC_Y,ACC_Z,GYRO_X,GYRO_Y,GYRO_Z,LIGH_1,GRAV_X,GRAV_Y,GRAV_Z,LINACC_X,LINACC_Y,LINACC_Z,ROTVEC_X,ROTVEC_Y,ROTVEC_Z,TIME,VOICE
-2.0398598,2.0685902,10.275913,-1.3109168,1.3671165,0.42271876,4.0,0.4378,3.9757,8.9538,-1.9994999,-1.8712,2.1309,0.171295,-0.118901,-0.466394,2017-07-05 19:37:25,43.69130735934165
0.2777274,0.6607997,9.442732,-0.0061086523,0.0,0.0061086523,2.0,0.0323,1.5292,9.6866,0.2545,-0.9575,-0.6864,0.066617,-0.044007,-0.544133,2017-07-05 19:37:26,64.0567134487049
0.2681506,0.6703765,9.337387,-0.0036651916,0.004886922,0.008552114,2.0,0.2949,1.1226,9.7376995,7.0E-4,-0.48729998,-0.6362,0.036202,-0.046948,-0.609659,2017-07-05 19:37:27,71.44064458182329
0.2873042,0.6703765,9.32781,-0.0036651916,0.004886922,0.0061086523,2.0,0.3064,0.85889995,9.7641,-0.0502,-0.2554,-0.6928,0.023868,-0.039963,-0.635637,2017-07-05 19:37:28,67.29972315270896
0.2777274,0.641646,9.337387,-0.009773844,-0.004886922,0.0061086523,2.0,0.302,0.81579995,9.7678995,-0.035,-0.19139999,-0.70739996,0.020739,-0.038717,-0.659833,2017-07-05 19:37:29,70.74109991963851
0.29688102,0.6703765,9.356541,0.004886922,-0.007330383,-0.0012217305,2.0,0.2995,0.8046,9.7689,-0.0137,-0.17019999,-0.68799996,0.019798,-0.03909,-0.677784,2017-07-05 19:37:30,66.7225867160313
0.30645782,0.6607997,9.346964,-0.004886922,-0.002443461,0.0036651916,2.0,0.2985,0.73469996,9.7745,0.0275,-0.0376,0.0323,0.016778,-0.036937,-0.687275,2017-07-05 19:37:31,69.26821957335397
0.2873042,0.6607997,9.394848,-0.0061086523,0.0,0.004886922,2.0,0.2943,0.7165,9.776,0.0015,-0.0339,0.0213,0.016225,-0.036268,-0.689486,2017-07-05 19:37:32,75.3297620209821
0.31603462,0.6512229,9.375694,-0.0061086523,-0.002443461,0.004886922,2.0,0.3028,0.68219995,9.7782,0.0037999998,0.0126,0.048299998,0.014584,-0.035182,-0.688447,2017-07-05 19:37:33,73.42867000835011
0.30645782,0.6607997,9.385271,0.0,0.0036651916,0.007330383,2.0,0.299,0.7004,9.776999,0.0178,-0.0206,9.0E-4,0.015063,-0.03549,-0.68916,2017-07-05 19:37:34,69.50332841475388
0.30645782,0.62249243,9.375694,-0.0036651916,0.0,0.0036651916,2.0,0.3046,0.6857,9.7779,0.0112,-0.047199998,2.0E-4,0.014734,-0.03575,-0.692155,2017-07-05 19:37:35,61.86241946380244
0.32561144,0.6512229,9.375694,-0.004886922,-0.0061086523,0.008552114,2.0,0.299,0.65099996,9.780399,0.017199999,0.0131,-0.012499999,0.013587,-0.033932,-0.687974,2017-07-05 19:37:36,70.41062772752157
0.29688102,0.641646,9.3182335,-0.0036651916,-0.0012217305,0.004886922,4.0,0.2747,0.56079996,9.786699,0.0209,0.129,9.0E-4,0.0115249995,-0.029103,-0.667057,2017-07-05 19:37:37,72.1479425347012
0.33518824,0.6512229,9.375694,-0.007330383,0.002443461,0.004886922,4.0,0.2625,0.573,9.7863,0.081599995,0.12719999,-0.027999999,0.014063,-0.028914,-0.635,2017-07-05 19:37:38,72.62350524045677
0.30645782,0.6607997,9.3661175,-0.002443461,0.0036651916,0.002443461,2.0,0.29479998,0.8175,9.768,0.0016,-0.097399995,0.0188,0.021522,-0.038782,-0.65725,2017-07-05 19:37:39,64.63825041442536
0.30645782,0.6799533,9.461885,0.002443461,-0.002443461,0.004886922,2.0,0.3044,0.759,9.7724,-0.0155,-0.043199997,0.0735,0.01842,-0.037515,-0.670724,2017-07-05 19:37:40,68.49476762835086
0.17238252,0.62249243,9.394848,-0.007330383,-0.0012217305,0.007330383,2.0,0.2904,0.7617,9.772699,-0.0037999998,-0.0929,-0.024699999,0.018318,-0.037351,-0.681462,2017-07-05 19:37:41,75.09648275377566
0.2777274,0.6607997,9.356541,-0.009773844,-0.0012217305,0.0036651916,2.0,0.2624,0.5729,9.7863,0.0327,0.058599997,-0.086899996,0.012601,-0.029576,-0.672834,2017-07-05 19:37:42,72.26846606573214
0.2777274,0.6512229,9.356541,-0.002443461,0.002443461,0.004886922,2.0,0.2891,0.6989,9.7774,0.0178,-0.0277,-2.0E-4,0.016598,-0.03455,-0.665799,2017-07-05 19:37:43,73.45225624859654
0.30645782,0.6607997,9.375694,-0.0012217305,0.0061086523,0.008552114,2.0,0.2835,0.7087,9.7768,0.0199,-0.0495,-0.0198,0.01684,-0.034504,-0.664084,2017-07-05 19:37:44,58.92321297085276
0.4309563,0.8331822,8.935161,0.008552114,-0.007330383,0.012217305,2.0,0.408,0.8308,9.7628,-0.048,-0.11009999,-0.1428,0.017147,-0.044025,-0.675624,2017-07-05 19:37:45,62.49327572888174
0.32561144,0.59376204,9.461885,-0.02565634,0.02076942,0.056199603,2.0,0.3224,0.61689997,9.781899,-0.110999994,0.0139999995,-0.081599995,0.012775,-0.033963,-0.664605,2017-07-05 19:37:46,74.38653472375249
0.18195933,-0.15322891,9.3661175,-0.008552114,0.0036651916,0.0036651916,2.0,0.20729999,-0.0963,9.8039,-0.0321,-0.0252,-0.0645,-0.010697,-0.004639,-0.664289,2017-07-05 19:37:47,57.69425112920014
0.17238252,-0.11492168,9.471462,-0.0036651916,-0.002443461,0.0061086523,2.0,0.1757,-0.1572,9.8038,0.0374,0.052699998,-0.103599995,-0.011933,-0.001472,-0.6579,2017-07-05 19:37:48,64.29038552591516
0.19153613,-0.1340753,9.241618,-0.007330383,0.004886922,0.004886922,2.0,0.1823,-0.0867,9.8045,2.0E-4,-0.0651,-0.0357,-0.009475,-0.004136,-0.662215,2017-07-05 19:37:49,66.34870635122564
0.22984336,-0.009576807,9.528923,-0.004886922,-0.0061086523,0.004886922,2.0,0.1801,-0.1546,9.8036995,-0.18249999,0.0011,-0.55469996,-0.011992,-0.00164,-0.66355,2017-07-05 19:37:50,69.87378453185174
0.22026655,-0.15322891,9.279925,-0.0036651916,0.002443461,0.004886922,2.0,0.1742,-0.1338,9.8041,0.019199999,0.030199999,-0.0941,-0.01099,-0.002165,-0.660272,2017-07-05 19:37:51,71.92323831451509
0.19153613,-0.1340753,9.385271,-0.0036651916,0.0036651916,0.007330383,2.0,0.17889999,-0.106699996,9.8043995,0.0142,-0.020299999,-0.015899999,-0.01033,-0.003085,-0.662127,2017-07-05 19:37:52,60.77977706709842
0.17238252,-0.1436521,9.346964,-0.0012217305,-0.004886922,0.0061086523,2.0,0.1739,-0.1417,9.804,-0.0196,-0.021,-0.0156,-0.011291,-0.001837,-0.663731,2017-07-05 19:37:53,67.15724057831507
0.17238252,-0.18195933,9.3661175,0.0,0.004886922,0.0061086523,2.0,0.1788,-0.096999995,9.8045,0.0056999996,-0.0526,-0.025799999,-0.009803,-0.003405,-0.667935,2017-07-05 19:37:54,68.83298042398343
0.17238252,-0.1340753,9.375694,-0.007330383,-0.0012217305,0.0036651916,2.0,0.1774,-0.12789999,9.8042,-7.0E-4,-0.0072,0.0493,-0.010802,-0.002338,-0.670445,2017-07-05 19:37:55,61.39647355626107
0.19153613,-0.15322891,9.299079,-0.007330383,-0.004886922,0.0036651916,2.0,0.17549999,-0.1232,9.804299,0.0095,-0.0298,0.0297,-0.010659,-0.002453,-0.668582,2017-07-05 19:37:56,69.06626252578224
0.19153613,-0.17238252,9.279925,-0.0036651916,0.0,0.0036651916,2.0,0.1752,-0.124299996,9.8042,0.0011999999,-0.041899998,-0.1566,-0.010521,-0.00244,-0.670904,2017-07-05 19:37:57,71.47195277414036
0.18195933,-0.1436521,9.3182335,-0.004886922,0.0012217305,0.0036651916,2.0,0.17889999,-0.11449999,9.804299,0.0053,-0.0242,-0.0094,-0.010647,-0.002735,-0.671094,2017-07-05 19:37:58,73.452672350889
0.21068975,-0.1340753,9.442732,-0.0036651916,0.004886922,0.0036651916,2.0,0.17289999,-0.1565,9.8038,0.011299999,0.022,-0.0492,-0.01183,-0.0012459999,-0.666867,2017-07-05 19:37:59,57.22728540151101
0.18195933,-0.1340753,9.346964,-0.004886922,0.0,0.002443461,2.0,0.16839999,-0.1864,9.8034,0.0254,0.031,-0.019299999,-0.0128109995,-1.06E-4,-0.663982,2017-07-05 19:38:00,57.31432215460481
0.19153613,-0.1340753,9.299079,-0.0012217305,-0.004886922,0.004886922,2.0,0.1584,-0.21669999,9.802899,0.0453,0.068799995,0.0401,-0.013654,9.9E-4,-0.647092,2017-07-05 19:38:01,66.85777081235555
0.18195933,-0.15322891,9.356541,-0.002443461,-0.0036651916,0.002443461,2.0,0.1767,-0.122099996,9.8042,0.0084,-0.021,0.048699997,-0.010603,-0.00275,-0.653295,2017-07-05 19:38:02,68.69188743083566
0.19153613,-0.1436521,9.270349,-0.0036651916,0.0,0.004886922,2.0,0.1778,-0.0923,9.8046,0.0078,-0.042,-0.0104,-0.009415,-0.0037449999,-0.661971,2017-07-05 19:38:03,70.98003987066299
0.19153613,-0.1436521,9.346964,-0.0036651916,0.0012217305,0.0061086523,2.0,0.1699,-0.12799999,9.804299,0.0148,-0.0252,0.029,-0.010637,-0.002141,-0.664188,2017-07-05 19:38:04,67.49247517266369
0.18195933,-0.15322891,9.270349,-0.0061086523,0.0036651916,0.009773844,2.0,0.1682,-0.1762,9.803599,-0.0030999999,0.020499999,2.9999999E-4,-0.012413,-5.05E-4,-0.660422,2017-07-05 19:38:05,71.01110205971526
0.0,-0.6703765,8.24563,0.036651913,0.04886922,-0.204029,2.0,0.13509999,-0.1621,9.804299,-0.26639998,-0.5326,0.74469995,-0.010368,-7.2E-5,-0.662579,2017-07-05 19:38:06,75.5360167749985
0.2777274,0.12449849,9.337387,-0.004886922,0.0012217305,0.004886922,2.0,0.26029998,0.2032,9.801,0.018299999,-0.073,0.012399999,-0.001447,-0.016642,-0.678123,2017-07-05 19:38:07,67.65604203127735
0.2777274,0.11492168,9.3182335,-0.002443461,0.0036651916,0.007330383,2.0,0.252,0.1714,9.8019,0.015199999,-0.0356,0.0117,-0.00234,-0.015368,-0.680529,2017-07-05 19:38:08,56.5376824801442
0.24899697,0.15322891,9.3661175,-0.009773844,-0.009773844,-0.0036651916,2.0,0.2453,0.1541,9.8022995,0.024699999,-0.015299999,-0.0278,-0.002419,-0.014609,-0.681246,2017-07-05 19:38:09,55.68476557599063
0.1340753,-0.20111294,9.356541,-0.02687807,0.0036651916,0.0012217305,2.0,0.122899994,-0.13589999,9.8049,-0.009,-0.0177,0.0088,-0.009346,7.2E-5,-0.676423,2017-07-05 19:38:10,55.374999543206506
0.38307226,-0.1436521,9.155427,-0.0061086523,0.0012217305,0.004886922,2.0,0.43249997,0.0349,9.797,0.010199999,0.035299998,0.036,-0.01381,-0.017293,-0.68479997,2017-07-05 19:38:11,69.42657363989782
-2.030283,1.340753,10.7356,0.28221974,-1.3316863,0.38728857,2.0,-1.3009,0.5287,9.7055,-0.7931,1.7985,2.3899,0.087331,0.053555,-0.748478,2017-07-05 19:38:12,67.18982550831268
-2.0207062,3.2082303,6.4068837,2.0146337,1.4343116,0.66706485,2.0,-2.4631,1.5286,9.3682995,0.0287,1.8113999,-1.9882,0.069701,0.132241,0.069504,2017-07-05 19:38:13,55.36406847026708
4.4436383,3.6296098,8.561666,0.22968534,-1.3121386,0.27122417,2.0,4.0758,3.6908998,8.12,1.232,0.1762,0.7977,0.216925,-0.197326,0.0924,2017-07-05 19:38:14,62.93448857329462
5.93762,4.4436383,6.531382,0.009773844,0.13072516,-0.035430185,1.0,5.8919997,4.5636997,6.3738,0.3225,0.103599995,0.47129998,0.270369,-0.319536,0.039919,2017-07-05 19:38:15,68.78260116908581
-0.90021986,0.36391866,9.346964,0.0,0.002443461,0.004886922,2.0,-1.2314,0.5141,9.7154,0.3182,-0.086899996,0.13319999,0.026929,0.062655,-0.010418,2017-07-05 19:38:16,65.64494975332137
-0.8619126,0.50757074,9.299079,-0.0012217305,0.0036651916,0.0061086523,2.0,-1.0231,0.569,9.7365,0.1204,-0.030199999,0.17199999,0.028157,0.052738,0.016119,2017-07-05 19:38:17,57.60514192295065
-0.81402856,0.545878,9.356541,-0.0036651916,0.0,0.004886922,2.0,-0.9436,0.5669,9.744599,0.0839,0.003,0.085599996,0.027579,0.048903,0.024925,2017-07-05 19:38:18,61.05785176940884
-0.92895025,0.5650316,9.356541,-0.002443461,0.004886922,0.004886922,2.0,-0.94979995,0.5726,9.7437,-0.0104,-0.0394,-0.031799998,0.027941,0.049271,0.026625,2017-07-05 19:38:19,69.84535173608992
-0.8714894,0.5363012,9.375694,-0.0036651916,0.0036651916,0.004886922,2.0,-0.9334,0.5704,9.745399,0.0150999995,-0.028299998,-0.013599999,0.027816,0.048586998,0.028141,2017-07-05 19:38:20,74.58147417741
-0.8810662,0.49799395,9.337387,0.0,-0.0012217305,0.007330383,2.0,-0.9208,0.5685,9.746699,0.0138,-0.0546,-0.0149,0.027529,0.048065,0.030922,2017-07-05 19:38:21,71.18546841145903
-0.8810662,0.5267244,9.346964,-0.004886922,0.0012217305,0.007330383,2.0,-0.93719995,0.5683,9.7452,0.0263,-0.0255,-0.013599999,0.027387,0.048814,0.033798,2017-07-05 19:38:22,72.56355753124919
-0.89064306,0.51714754,9.346964,-0.004886922,0.0012217305,0.007330383,2.0,-0.9122,0.56369996,9.7478,0.011399999,-0.0206,-0.0084,0.027247,0.047497,0.032685,2017-07-05 19:38:23,69.45222993449384
-0.90979666,0.50757074,9.452309,-0.0036651916,0.0012217305,0.010995574,2.0,-0.9321,0.5611,9.746099,0.0148,-0.0072,-0.1153,0.027161,0.048119,0.030027,2017-07-05 19:38:24,65.2970895913389
-0.9768343,0.545878,9.241618,-0.0036651916,-0.002443461,0.007330383,2.0,-0.89699996,0.5591,9.749499,-0.1087,0.0033999998,-0.10789999,0.02711,0.046785,0.03095,2017-07-05 19:38:25,71.66942321072887
-0.8810662,0.5746084,9.375694,-0.0036651916,0.004886922,0.0061086523,2.0,-0.9352,0.55689996,9.745999,0.023699999,0.0053999997,-0.0263,0.02709,0.048538,0.028001,2017-07-05 19:38:26,64.33912795651776
-0.89064306,0.5746084,9.308656,-0.0012217305,-0.002443461,0.0036651916,2.0,-0.9698,0.56799996,9.742,0.037299998,-0.0050999997,0.0167,0.027347,0.050468,0.033148,2017-07-05 19:38:27,63.99021813160737
-0.89064306,0.5267244,9.3182335,-0.0036651916,0.0012217305,0.0036651916,2.0,-0.94909996,0.5696,9.743899,0.0075999997,-0.0263,-0.0341,0.02728,0.049511,0.036891,2017-07-05 19:38:28,66.91637115439684
-0.89064306,0.5267244,9.299079,0.0,-0.0012217305,0.002443461,2.0,-0.9507,0.5643,9.7441,0.0311,-0.022799999,-0.0438,0.026851,0.049839,0.041636,2017-07-05 19:38:29,70.54594541115328
-0.8619126,0.51714754,9.3661175,-0.0036651916,0.004886922,0.004886922,2.0,-0.9259,0.5646,9.7464,-0.0047,-0.0411,-0.056199998,0.027143,0.048276,0.035345,2017-07-05 19:38:30,58.959202601995926
-0.8810662,0.5267244,9.299079,-0.007330383,0.002443461,0.004886922,2.0,-0.9255,0.5606,9.746699,-0.0016,-0.0176,0.061499998,0.02689,0.048454,0.036167,2017-07-05 19:38:31,68.97004995917933
-0.842759,0.5267244,9.337387,-0.004886922,0.0,0.004886922,2.0,-0.9425,0.5639,9.7449,0.0713,-0.020399999,-0.0055,0.026832,0.049316,0.039844,2017-07-05 19:38:32,72.30153228298381
-0.8714894,0.50757074,9.241618,-0.0036651916,0.0,0.007330383,2.0,-0.9187,0.56409997,9.7472,-0.0116,-0.0308,-0.047399998,0.02717,0.047881,0.034431,2017-07-05 19:38:33,71.02715498609942
-0.8619126,0.51714754,9.3661175,-0.0036651916,0.0012217305,0.004886922,2.0,-0.95129997,0.562,9.7442,0.029399998,-0.019,0.024,0.026773,0.049489,0.037315,2017-07-05 19:38:34,73.45568900627953
-0.90021986,0.5267244,9.433155,-0.0036651916,-0.0012217305,0.007330383,2.0,-0.92749995,0.5602,9.7465,-0.0049,-0.0162,0.080299996,0.026898,0.048232,0.034534,2017-07-05 19:38:35,71.56657612742892
-0.90021986,0.5363012,9.289502,-0.004886922,0.0012217305,0.0061086523,2.0,-0.92249995,0.5553,9.7473,0.0115,-0.0224,-0.018099999,0.02682,0.047998,0.032275,2017-07-05 19:38:36,77.45846491032228
-0.90979666,0.5554548,9.3661175,-0.0061086523,-0.002443461,0.004886922,2.0,-0.9562,0.56079996,9.7437,0.0341,0.0016999999,0.053799998,0.026704,0.049675,0.036801,2017-07-05 19:38:37,74.06951421542925
-0.89064306,0.5267244,9.356541,-0.0036651916,0.0,0.007330383,2.0,-0.9111,0.5629,9.7479,-0.0385,-0.0297,-0.2541,0.027087,0.047509998,0.035207,2017-07-05 19:38:38,74.0725655613318
-0.8619126,0.51714754,9.385271,-0.002443461,0.0,0.0061086523,2.0,-0.9151,0.5595,9.7478,-0.0053,-0.0166,0.0402,0.026967,0.04767,0.033898998,2017-07-05 19:38:39,68.52905812375806
-0.90021986,0.51714754,9.452309,-0.0012217305,0.0012217305,0.0036651916,2.0,-0.9677,0.5704,9.742,0.0425,-0.0162,0.0453,0.027168,0.050361,0.038235,2017-07-05 19:38:40,59.34790208739071
-0.8810662,0.51714754,9.375694,-0.002443461,-0.004886922,0.0036651916,2.0,-0.9051,0.5683,9.748199,-0.0345,-0.0349,-0.0288,0.027377,0.04721,0.035183,2017-07-05 19:38:41,70.49170862078543
-0.8714894,0.51714754,9.346964,-0.004886922,0.0,0.0061086523,2.0,-0.9223,0.5668,9.746699,0.0112,-0.0235,0.0327,0.027235,0.048105,0.035831,2017-07-05 19:38:42,73.51339016294689
-0.8619126,0.46926352,9.14585,-0.0036651916,0.0012217305,0.004886922,2.0,-0.9353,0.5618,9.7457,0.17029999,-0.11,0.1906,0.027378,0.048598,0.030487,2017-07-05 19:38:43,61.948118695487835
-0.8714894,0.5267244,9.32781,-0.0036651916,-0.0036651916,0.0036651916,2.0,-0.9018,0.5617,9.748899,0.026099999,0.0275,0.021399999,0.027475,0.047137998,0.029,2017-07-05 19:38:44,70.1648610627988
-0.89064306,0.545878,9.346964,-0.002443461,-0.0036651916,0.0061086523,2.0,-0.93899995,0.56659997,9.7451,-0.0019999999,-0.042999998,0.014599999,0.027513,0.048785,0.029378,2017-07-05 19:38:45,69.45252905159523
-0.8619126,0.5363012,9.346964,-0.002443461,-0.0012217305,0.0036651916,2.0,-0.94189996,0.5591,9.7452,0.0021,-0.0455,0.0047999998,0.027113,0.049004,0.029487,2017-07-05 19:38:46,70.92374320456572
-0.90021986,0.51714754,9.289502,-0.0036651916,-0.0036651916,0.0036651916,2.0,-0.9396,0.5502,9.745999,-0.0015,-0.0174,0.0628,0.026661,0.048793,0.029622,2017-07-05 19:38:47,72.60804839169077
-0.8331822,0.5267244,9.32781,-0.0061086523,0.0012217305,0.004886922,2.0,-0.9691,0.5647,9.7422,0.1051,-0.0018999999,0.027099999,0.027202,0.050412,0.032704,2017-07-05 19:38:49,70.24727833894667
-0.89064306,0.51714754,9.270349,-0.0012217305,-0.0012217305,0.0036651916,2.0,-0.9569,0.56619996,9.7434,0.0413,0.017099999,-0.0713,0.027089,0.050228,0.03569,2017-07-05 19:38:50,76.17268885310156
-0.90021986,0.5267244,9.260772,-0.0036651916,-0.004886922,0.0061086523,2.0,-0.94629997,0.565,9.7445,-0.0025,-0.027199998,0.0326,0.027027,0.049372,0.037373,2017-07-05 19:38:51,74.06931796487927
-0.8810662,0.545878,9.299079,-0.004886922,0.0036651916,0.008552114,2.0,-0.96309996,0.5642,9.7429,0.0036,-0.0167,0.0733,0.026774,0.050326,0.040961,2017-07-05 19:38:52,68.04727027386656
-0.90979666,0.5363012,9.385271,0.0,-0.0061086523,0.0061086523,2.0,-0.9216,0.5624,9.747,-0.0255,-0.0056,0.118499994,0.026973,0.048124,0.037133,2017-07-05 19:38:53,69.23668788052483
-0.89064306,0.51714754,9.346964,-0.007330383,0.007330383,0.0036651916,2.0,-0.95239997,0.5571,9.7443,0.0229,0.0095999995,0.062099997,0.026459,0.049752,0.040406,2017-07-05 19:38:54,74.94296769497119
-0.90021986,0.5363012,9.184157,0.0,0.004886922,0.0036651916,2.0,-0.932,0.56229997,9.745999,0.0206,-0.0389,0.042799998,0.0268,0.048461,0.037478,2017-07-05 19:38:55,66.0238502662311
-0.8523358,0.51714754,9.337387,-0.0012217305,-0.0012217305,0.0061086523,2.0,-0.9191,0.5653,9.7471,0.0345,-0.0307,-0.0075,0.026963,0.047852,0.038828,2017-07-05 19:38:56,70.68839773735193
-0.90021986,0.51714754,9.385271,-0.002443461,0.002443461,0.0036651916,2.0,-0.91959995,0.556,9.747499,-0.030499998,-0.0328,0.0413,0.026677,0.047951,0.036051,2017-07-05 19:38:57,62.43095599361404
-0.8810662,0.5267244,9.3182335,-0.004886922,-0.002443461,0.0036651916,2.0,-0.95,0.5606,9.7444,0.028099999,-0.037299998,-0.102699995,0.026571,0.050042,0.042692,2017-07-05 19:38:58,68.27629615277071
-0.90979666,0.5363012,9.500193,-0.0012217305,-0.002443461,0.002443461,2.0,-0.9266,0.5568,9.746799,-0.012999999,-0.0039999997,0.14989999,0.026667,0.048379,0.036691,2017-07-05 19:38:59,72.10089100059425
-0.8810662,0.51714754,9.423578,0.0012217305,0.004886922,0.008552114,2.0,-0.9403,0.5549,9.7456,0.0089,-0.0513,-0.0352,0.026482,0.049064,0.038113,2017-07-05 19:39:00,72.65853606742874
-0.90021986,0.50757074,9.289502,-0.002443461,-0.002443461,0.004886922,2.0,-0.9278,0.5531,9.7469,0.019199999,-0.0207,-0.036199998,0.026727,0.048406,0.032163,2017-07-05 19:39:01,64.3979201830574
-0.90021986,0.50757074,9.375694,-0.0036651916,0.002443461,0.0036651916,2.0,-0.9558,0.5615,9.7437,0.0212,-0.036599997,-0.0167,0.02696,0.049782,0.034767,2017-07-05 19:39:02,71.31257904341896
-0.8810662,0.51714754,9.308656,-0.004886922,-0.0012217305,0.007330383,2.0,-0.9349,0.556,9.746099,0.011,-0.0117,0.03,0.026726,0.048694,0.034524,2017-07-05 19:39:03,68.3425569696809
-0.90021986,0.5363012,9.270349,-0.007330383,-0.0036651916,0.0036651916,2.0,-0.9404,0.5559,9.7456,0.0301,-0.0429,-0.0278,0.026647,0.049284,0.037756,2017-07-05 19:39:04,58.01997758057175
-0.89064306,0.51714754,9.32781,-0.002443461,0.0036651916,0.004886922,2.0,-0.9429,0.5685,9.744599,0.0285,-0.023599999,0.060799997,0.027276,0.049167998,0.03599,2017-07-05 19:39:05,74.52051713764004
-0.90979666,0.51714754,9.32781,-0.0012217305,-0.007330383,0.004886922,2.0,-0.9475,0.5672,9.7442,0.0132,-0.032199997,0.031799998,0.027064,0.049476,0.038852,2017-07-05 19:39:06,61.901544567253744
-0.90979666,0.5267244,9.32781,-0.007330383,-0.0012217305,0.0061086523,2.0,-0.9565,0.56659997,9.7434,0.0142,-0.0425,-0.016099999,0.026967,0.050109,0.040831,2017-07-05 19:39:07,60.602496444351594
-0.91937345,0.51714754,9.385271,-0.002443461,-0.002443461,0.0061086523,2.0,-0.95419997,0.5618,9.743899,0.0195,-0.016999999,0.031999998,0.026609,0.049882,0.041871,2017-07-05 19:39:08,64.24020244138639
-0.8810662,0.51714754,9.375694,-0.002443461,-0.0036651916,0.008552114,2.0,-0.9356,0.562,9.7457,0.0117,-0.027199998,0.030399999,0.026655,0.048948,0.042221,2017-07-05 19:39:09,72.92509619974732
-0.8810662,0.50757074,9.308656,-0.0061086523,-0.004886922,0.004886922,2.0,-0.9316,0.5647,9.7459,0.030599998,-0.0115,-0.0184,0.026861,0.048919998,0.042234,2017-07-05 19:39:10,56.93321999269858
-0.8810662,0.5267244,9.337387,-0.0036651916,0.0036651916,0.0061086523,2.0,-0.94659996,0.566,9.7444,0.031999998,-0.040799998,0.060999997,0.026808,0.049536,0.042755,2017-07-05 19:39:11,69.12601791245235
-0.89064306,0.5363012,9.32781,-0.004886922,-0.002443461,0.0061086523,2.0,-0.92689997,0.5628,9.7465,0.0131,-0.0083,0.0296,0.026674,0.048524998,0.043008,2017-07-05 19:39:12,71.87107872160267
-0.91937345,0.5363012,9.337387,-0.004886922,0.0,0.008552114,2.0,-0.92109996,0.557,9.7473,0.0071,-0.0122,-0.069299996,0.026644,0.048036,0.037313,2017-07-05 19:39:13,73.14655271029233
-0.89064306,0.51714754,9.385271,-0.004886922,-0.0036651916,0.0061086523,2.0,-0.9097,0.553,9.7486,-0.012999999,8.0E-4,0.0275,0.026645,0.047387,0.033943,2017-07-05 19:39:14,67.1756886583745
-0.89064306,0.51714754,9.337387,-0.002443461,-0.002443461,0.0061086523,2.0,-0.9259,0.559,9.746799,-0.0064999997,-0.024899999,0.0207,0.026974,0.048198,0.032917,2017-07-05 19:39:15,57.245655403481265
-0.89064306,0.51714754,9.3661175,-0.004886922,0.0,0.0061086523,2.0,-0.94229996,0.5549,9.745399,0.019399999,-0.0211,0.041699998,0.026647,0.049108,0.034845,2017-07-05 19:39:16,63.62309608195139
-0.89064306,0.5267244,9.337387,-0.0036651916,-0.0012217305,0.007330383,2.0,-0.9435,0.5557,9.745299,4.0E-4,-0.0021,-0.0464,0.026878,0.049036,0.030868,2017-07-05 19:39:17,68.79462516900222
-0.90979666,0.5363012,9.385271,-0.0036651916,0.0,0.0036651916,2.0,-0.9518,0.56549996,9.743899,0.027999999,-0.0311,-0.0255,0.027305,0.049658,0.030197,2017-07-05 19:39:18,72.65465051615168
-0.90979666,0.5267244,9.356541,-0.002443461,0.0012217305,0.004886922,2.0,-0.95489997,0.5582,9.7439995,0.0061999997,-0.0132,0.0326,0.026906,0.049363,0.031512,2017-07-05 19:39:19,72.41964276258378
-0.90021986,0.5363012,9.241618,0.0,-0.002443461,0.008552114,2.0,-0.9399,0.5597,9.745399,-0.022499999,-0.0255,0.022,0.027037,0.048885,0.031845,2017-07-05 19:39:20,55.74890903952499
-0.8810662,0.5267244,9.385271,-0.004886922,0.002443461,0.004886922,2.0,-0.95849997,0.5566,9.7438,0.005,-0.0128,0.13149999,0.026742,0.049892,0.034036,2017-07-05 19:39:21,65.74473200905638
-0.8810662,0.5363012,9.356541,-0.0061086523,0.0,0.004886922,2.0,-0.94979995,0.5592,9.7445,0.0359,-0.0251,-0.0162,0.026804,0.049497,0.035765,2017-07-05 19:39:22,70.84885331495423
-0.8810662,0.51714754,9.346964,-0.002443461,-0.0061086523,0.007330383,2.0,-0.9249,0.55799997,9.7469,0.0047999998,-0.0222,0.0198,0.026797,0.04778,0.033934,2017-07-05 19:39:23,63.21730746056624
-0.8619126,0.51714754,9.3661175,-0.004886922,-0.002443461,0.007330383,2.0,-0.9439,0.55979997,9.745,0.020499999,-0.0453,-0.027099999,0.02675,0.049246,0.037675,2017-07-05 19:39:24,61.89394960925313
-0.92895025,0.51714754,9.346964,-0.002443461,-0.0012217305,0.007330383,2.0,-0.9465,0.55259997,9.7452,-0.0063,-0.009,-0.0468,0.026337,0.049388,0.038506,2017-07-05 19:39:25,68.46645236657412
-0.89064306,0.5363012,9.3182335,-0.0036651916,-0.007330383,0.007330383,2.0,-0.94509995,0.5588,9.7449,0.0315,-0.0149,0.0317,0.026664,0.049324,0.038277,2017-07-05 19:39:26,73.33887626457526
-0.8810662,0.51714754,9.442732,-0.002443461,0.0061086523,0.0061086523,2.0,-0.9518,0.5621,9.7441,0.021,-0.026999999,-0.1152,0.026804,0.049287,0.037993,2017-07-05 19:39:27,66.09380225630463
-0.89064306,0.51714754,9.289502,-0.0036651916,-0.002443461,0.007330383,2.0,-0.944,0.5669,9.744599,0.010799999,-0.0128999995,0.0223,0.027005,0.049326,0.039863,2017-07-05 19:39:28,69.50978600897835
-0.90979666,0.5363012,9.308656,-0.0012217305,-0.0036651916,0.004886922,2.0,-0.92819995,0.5615,9.7464,0.0055,-0.0371,0.0106999995,0.026954,0.0484,0.035827998,2017-07-05 19:39:29,58.364224618249494
-0.8714894,0.5267244,9.32781,-0.0012217305,-0.002443461,0.004886922,2.0,-0.9485,0.561,9.7445,0.049399998,-0.0178,-0.0335,0.026758,0.049542,0.037165,2017-07-05 19:39:30,57.099916830151784
-0.90979666,0.51714754,9.356541,-0.0061086523,-0.0036651916,0.0061086523,2.0,-0.9596,0.5582,9.7436,0.0052,-0.0179,0.0635,0.026644,0.050045,0.037584,2017-07-05 19:39:31,68.6015163122785
-0.8810662,0.5363012,9.346964,0.0012217305,0.0012217305,0.008552114,2.0,-0.92389995,0.5595,9.7469,9.0E-4,0.02,0.099599995,0.027067,0.048059,0.031529,2017-07-05 19:39:32,71.9519753896884
-0.92895025,0.49799395,9.385271,-0.0036651916,0.0012217305,0.002443461,2.0,-0.94449997,0.5538,9.745299,0.0105,-0.0137,0.0521,0.026829,0.049057,0.029829,2017-07-05 19:39:33,70.29388238947288
-0.90979666,0.50757074,9.203311,-0.002443461,0.002443461,0.0036651916,2.0,-0.93979996,0.5595,9.745399,-0.0042999997,-0.0173,0.14989999,0.027064,0.048768,0.029132,2017-07-05 19:39:34,74.58392545515785
-0.92895025,0.51714754,9.3182335,-0.004886922,0.004886922,0.004886922,2.0,-0.94579995,0.55799997,9.7449,0.0117999995,0.0018,0.1113,0.026876,0.049221,0.033157,2017-07-05 19:39:35,71.57026420793474
-0.89064306,0.51714754,9.337387,-0.0012217305,-0.004886922,0.0036651916,2.0,-0.93509996,0.55759996,9.745999,0.0112,-0.0033999998,0.0695,0.026965,0.048619,0.031244,2017-07-05 19:39:36,71.26509072199752
-0.90979666,0.49799395,9.279925,0.0,0.004886922,0.0061086523,2.0,-0.9137,0.5511,9.7484,-0.0307,-0.0354,-0.040799998,0.026593,0.047427,0.031795,2017-07-05 19:39:37,74.29811654109932
-0.89064306,0.51714754,9.3661175,-0.002443461,0.0,0.004886922,2.0,-0.9492,0.54499996,9.745299,0.0345,-0.0011999999,-0.037699997,0.026206,0.049373,0.033181,2017-07-05 19:39:38,72.02011733728368
-0.8714894,0.50757074,9.251195,-0.002443461,-0.002443461,0.0036651916,2.0,-0.9209,0.5628,9.747,-0.017199999,-0.0286,0.0788,0.027135,0.048237,0.034222,2017-07-05 19:39:39,69.06198418015894
-0.8810662,0.50757074,9.308656,-0.004886922,-0.002443461,0.0061086523,2.0,-0.90999997,0.5607,9.748199,7.0E-4,-0.036,-0.0106,0.02724,0.047499,0.029724,2017-07-05 19:39:40,64.64494795841384
-0.92895025,0.49799395,9.299079,-0.0036651916,-0.004886922,0.007330383,2.0,-0.9317,0.5618,9.746099,0.0276,-0.017199999,0.030199999,0.027065,0.048523,0.033718,2017-07-05 19:39:41,70.83592811392546
-0.90979666,0.51714754,9.260772,-0.008552114,-0.002443461,0.004886922,2.0,-0.94299996,0.5488,9.7457,-8.0E-4,-0.044099998,0.0501,0.026417,0.049341,0.03541,2017-07-05 19:39:42,64.03744130964705
-0.90021986,0.5554548,9.260772,-0.004886922,-0.0012217305,0.004886922,2.0,-0.9492,0.5561,9.7446995,0.0145,0.0168,-0.0567,0.026805,0.049382,0.033401,2017-07-05 19:39:43,70.00955592259635
-0.90021986,0.50757074,9.097966,-0.004886922,0.004886922,0.0036651916,2.0,-0.9654,0.5633,9.7427,0.030299999,-0.0088,0.0039999997,0.027,0.050294,0.035411,2017-07-05 19:39:44,71.07700916323985
-0.8810662,0.51714754,9.3182335,-0.002443461,0.002443461,0.0061086523,2.0,-0.9429,0.55869997,9.7452,0.0186,-0.0338,0.011399999,0.02686,0.048838,0.034362,2017-07-05 19:39:45,63.648632093084586
-0.90021986,0.51714754,9.375694,-0.009773844,0.0012217305,0.0061086523,2.0,-0.92969996,0.5553,9.7466,-0.033099998,-0.030599998,0.1767,0.026808,0.048368,0.032246,2017-07-05 19:39:46,67.49954907317556
-0.90979666,0.5363012,9.490616,-0.004886922,-0.0061086523,0.0036651916,2.0,-0.9145,0.557,9.748,-0.028099999,-0.0126,-0.0206,0.026893,0.047606,0.032822,2017-07-05 19:39:47,74.08798034630951
-0.89064306,0.5267244,9.385271,-0.0061086523,0.002443461,0.004886922,2.0,-0.96739995,0.5618,9.7425995,0.0273,-0.0176,-0.064899996,0.026987,0.050108,0.03466,2017-07-05 19:39:48,67.43337116120021
-0.89064306,0.51714754,9.375694,-0.002443461,0.0061086523,0.010995574,2.0,-0.9526,0.5604,9.7441,0.037699997,-0.0257,-0.0169,0.026762,0.049697,0.03775,2017-07-05 19:39:49,73.78315352819413
-0.90979666,0.5267244,9.404425,-0.008552114,-0.0012217305,0.0036651916,2.0,-0.9443,0.5665,9.744599,0.02,-0.0021,-0.0664,0.027216,0.049213,0.035152,2017-07-05 19:39:50,70.5422581599333
-0.89064306,0.5267244,9.337387,-0.0036651916,0.0012217305,0.004886922,2.0,-0.9328,0.5643,9.7458,4.9999997E-4,-0.0197,0.0403,0.027027,0.048743,0.037113,2017-07-05 19:39:51,68.87931172797255
-0.89064306,0.51714754,9.222465,0.0,0.0012217305,0.004886922,2.0,-0.94409996,0.5674,9.7445,0.0077,-0.022,0.042099997,0.02705,0.049698,0.038495,2017-07-05 19:39:52,63.92986337669262
-0.91937345,0.5363012,9.184157,-0.004886922,0.002443461,0.0061086523,2.0,-0.9374,0.5643,9.745399,0.0133,-0.0196,-0.0279,0.027112,0.048856,0.035235,2017-07-05 19:39:53,70.6594013341139
-0.8714894,0.51714754,9.193734,-0.0036651916,0.0,0.008552114,2.0,-0.9338,0.5557,9.7462,0.0023,-0.0311,0.118499994,0.026667,0.048781,0.035432998,2017-07-05 19:39:54,73.82551747744733
-0.90979666,0.5363012,9.346964,-0.004886922,0.0061086523,0.002443461,2.0,-0.9453,0.5579,9.745,0.0013,-0.013499999,0.021399999,0.026675,0.049301,0.037184,2017-07-05 19:39:55,70.77128936813642
-0.8810662,0.5267244,9.356541,-0.004886922,0.002443461,0.0036651916,2.0,-0.9454,0.5668,9.7444,0.0211,-0.031799998,0.0219,0.026991,0.049401,0.039919,2017-07-05 19:39:56,57.93576335439329
-0.90021986,0.5267244,9.308656,-0.002443461,-0.0012217305,0.0061086523,2.0,-0.94119996,0.5568,9.745399,-0.0071,2.9999999E-4,0.04,0.026447,0.048851,0.037693,2017-07-05 19:39:57,66.641872318179
-0.90979666,0.51714754,9.3661175,-0.0061086523,-0.0036651916,0.007330383,2.0,-0.9256,0.5668,9.7464,0.0021,-0.022,0.0103,0.027415,0.048169,0.031969,2017-07-05 19:39:58,71.64927437171268
-0.89064306,0.49799395,9.337387,-0.0012217305,-0.002443461,0.0036651916,2.0,-0.9331,0.5627,9.7459,-0.0396,-0.018099999,0.0402,0.027314,0.048482,0.029537,2017-07-05 19:39:59,69.57589160079442
-0.90979666,0.5363012,9.232041,-0.004886922,-0.0036651916,0.0061086523,2.0,-0.9641,0.5651,9.7427,0.019199999,-0.0105,-0.084199995,0.027435,0.05004,0.028646,2017-07-05 19:40:00,62.47504928206338
-0.89064306,0.51714754,9.222465,-0.0036651916,-0.0036651916,0.004886922,2.0,-0.94149995,0.55869997,9.745299,0.027099999,-0.0241,-0.057299998,0.027219,0.048836,0.027094,2017-07-05 19:40:01,70.21880060557268
-0.8810662,0.50757074,9.279925,-0.002443461,-0.002443461,0.0061086523,2.0,-0.9712,0.5646,9.742,0.039699998,-0.029299999,-0.0832,0.027033,0.050796,0.035370998,2017-07-05 19:40:02,73.72724925385496
-0.90021986,0.5267244,9.3182335,-0.004886922,0.0,0.004886922,2.0,-0.9435,0.5609,9.745,-0.0084,-0.0378,-0.0174,0.027166,0.04918,0.032344,2017-07-05 19:40:03,73.12986737660454
-0.89064306,0.50757074,9.337387,-0.002443461,0.002443461,0.004886922,2.0,-0.9467,0.5593,9.7446995,0.0321,-0.024699999,-0.0175,0.02694,0.049272,0.033228,2017-07-05 19:40:04,64.64488196781994
-0.90979666,0.51714754,9.222465,-0.0012217305,-0.002443461,0.004886922,2.0,-0.9758,0.5632,9.7417,0.0403,-0.0088,0.103,0.026925,0.050371,0.03599,2017-07-05 19:40:05,67.30445820545198
-0.91937345,0.5267244,9.32781,-0.0061086523,0.0036651916,0.004886922,2.0,-0.96169996,0.55799997,9.7434,0.0014,-0.0128999995,0.012499999,0.026483,0.049905,0.039973,2017-07-05 19:40:06,72.16254765734975
-0.90021986,0.5267244,9.299079,-0.0061086523,0.004886922,0.007330383,2.0,-0.92329997,0.5548,9.7473,-0.0098,-0.04,-0.0101,0.02649,0.048207,0.038561,2017-07-05 19:40:07,68.02471328850987
-0.91937345,0.5363012,9.32781,-0.0036651916,-0.0012217305,0.0012217305,2.0,-0.92289996,0.5628,9.746799,-0.0084999995,-0.0094,0.0307,0.026853,0.04823,0.037929,2017-07-05 19:40:08,61.92217059743822
-0.90021986,0.5267244,9.481039,-0.004886922,0.0,0.009773844,2.0,-0.95229995,0.5578,9.7443,0.0098,-0.0144,0.0528,0.026496,0.049743,0.040365,2017-07-05 19:40:09,69.4645694492235
-0.90979666,0.5267244,9.3182335,-0.002443461,0.002443461,0.004886922,2.0,-0.9496,0.5572,9.744599,-0.0025,-0.023599999,0.0427,0.02631,0.049693,0.043591,2017-07-05 19:40:10,71.1313185890896
-0.8810662,0.545878,9.32781,-0.0061086523,0.0,0.0061086523,2.0,-0.94689995,0.56,9.7446995,0.0315,-0.0257,0.0138,0.026503,0.049899,0.041751,2017-07-05 19:40:11,69.30002737132418
-0.90979666,0.5554548,9.299079,0.0,0.0012217305,0.004886922,2.0,-0.91929996,0.5653,9.747,-0.021699999,-0.021599999,0.1286,0.027147,0.047962,0.036177,2017-07-05 19:40:12,74.84065406753673
-0.90979666,0.5554548,9.385271,0.0,-0.007330383,0.004886922,2.0,-0.93939996,0.5638,9.7452,-0.0122,0.0288,-0.0067999996,0.027073,0.048965,0.03539,2017-07-05 19:40:13,74.14752121950235
-0.90979666,0.50757074,9.337387,-0.004886922,-0.007330383,0.002443461,2.0,-0.9166,0.5645,9.7473,-0.0018,-0.021,-0.0077,0.027094,0.048496,0.036173,2017-07-05 19:40:14,72.65837082102188
-0.8619126,0.5363012,9.3182335,-0.0036651916,0.009773844,0.004886922,2.0,-0.9651,0.5686,9.7424,0.0559,-0.0145,-0.0234,0.027061,0.050622,0.038966,2017-07-05 19:40:15,57.758051474811936
-0.90979666,0.5267244,9.3182335,-0.0036651916,-0.004886922,0.0036651916,2.0,-0.9471,0.5599,9.7446995,0.022499999,0.0042,0.0422,0.026772,0.049396,0.037179,2017-07-05 19:40:16,56.66793309612861
-0.92895025,0.51714754,9.461885,-0.007330383,0.002443461,0.004886922,2.0,-0.9361,0.5585,9.7458,0.0128,-0.038,0.0037,0.026665,0.048656,0.039776,2017-07-05 19:40:17,57.4825044992809
-0.8714894,0.5267244,9.32781,-0.0036651916,0.0012217305,0.0061086523,2.0,-0.9152,0.5573,9.7479,-0.0123,-0.045599997,-0.076299995,0.026794,0.04771,0.035251,2017-07-05 19:40:18,61.29334878324805
-0.90021986,0.51714754,9.3182335,-0.004886922,-0.002443461,0.004886922,2.0,-0.91609997,0.5627,9.747499,0.0179,-0.0213,-0.0367,0.027238,0.04767,0.031641,2017-07-05 19:40:19,63.0810084932833
-0.90979666,0.5267244,9.356541,-0.0061086523,0.0012217305,0.0036651916,2.0,-0.91349995,0.5539,9.748199,-0.0016,-0.0245,-0.027199998,0.026997,0.047594998,0.029312,2017-07-05 19:40:20,61.19245734101828
-0.89064306,0.5267244,9.337387,0.0,-0.0036651916,0.0036651916,2.0,-0.9392,0.559,9.7455,8.0E-4,-0.0276,-0.0936,0.027114,0.048786,0.029585,2017-07-05 19:40:21,60.68620300775848
-0.91937345,0.51714754,9.32781,-0.0036651916,0.002443461,0.0061086523,2.0,-0.9565,0.56549996,9.7434,0.0273,-0.0142,-0.1308,0.027283,0.049761,0.032349,2017-07-05 19:40:22,67.19755894358161
-0.90979666,0.51714754,9.251195,-0.004886922,-0.0036651916,0.004886922,2.0,-0.97389996,0.56729996,9.7416,0.0367,-0.0345,-0.1191,0.027113,0.050877,0.035742998,2017-07-05 19:40:23,73.83873553532975
-0.90021986,0.545878,9.3182335,-0.0061086523,0.008552114,0.002443461,2.0,-0.9697,0.562,9.7423,0.04,-0.030499998,-0.0023,0.02678,0.050593,0.038358,2017-07-05 19:40:24,75.40364104523076
-0.90021986,0.51714754,9.279925,0.0,-0.0036651916,0.0036651916,2.0,-0.96779996,0.5682,9.7422,0.0186,-0.036399998,-0.1002,0.027078,0.050093,0.037977,2017-07-05 19:40:25,72.27648186160485
-0.89064306,0.5363012,9.3182335,0.0,-0.0012217305,0.007330383,2.0,-0.9262,0.5679,9.7462,0.0077,-0.0165,-0.055099998,0.027246,0.048315,0.036601,2017-07-05 19:40:26,74.43568501705417
-0.90021986,0.5267244,9.356541,-0.004886922,-0.004886922,0.0061086523,2.0,-0.92819995,0.5599,9.7465,1.0E-4,-0.0284,-0.055299997,0.026961,0.048347,0.034014,2017-07-05 19:40:27,64.6904912315345
-0.90979666,0.51714754,9.289502,-0.007330383,0.0012217305,0.002443461,2.0,-0.96159995,0.5638,9.743,0.033299997,-0.0438,-0.0224,0.027177,0.050136,0.034486,2017-07-05 19:40:28,67.72209602715846
-0.8810662,0.5363012,9.308656,-0.004886922,-0.0012217305,0.008552114,2.0,-0.94079995,0.5656,9.745,0.0295,-0.013599999,-0.0639,0.027156,0.048899,0.034848,2017-07-05 19:40:29,66.44666968553018
-0.89064306,0.5363012,9.3182335,-0.0061086523,0.007330383,0.0036651916,2.0,-0.94339997,0.5568,9.7452,0.0363,-0.0169,-0.0459,0.026714,0.048957,0.036156,2017-07-05 19:40:30,58.84970555744522
-0.90979666,0.51714754,9.3182335,-0.0012217305,0.002443461,0.0061086523,2.0,-0.9285,0.55829996,9.7466,0.0122,-0.018299999,-0.086399995,0.02687,0.048608,0.033578,2017-07-05 19:40:31,60.51426738062962
-0.92895025,0.51714754,9.279925,-0.004886922,0.004886922,0.0036651916,2.0,-0.94299996,0.56229997,9.7449,0.036,-0.0123,-0.045599997,0.027151,0.049058,0.032135,2017-07-05 19:40:32,72.92785544944807
-0.8714894,0.51714754,9.308656,-0.007330383,0.0,0.007330383,2.0,-0.9431,0.5617,9.745,0.0262,-0.0019999999,-0.055499997,0.026936,0.049161,0.0359,2017-07-05 19:40:34,70.06934618960197
-0.90021986,0.5267244,9.394848,-0.0036651916,0.0012217305,0.004886922,2.0,-0.92759997,0.56009996,9.7465,0.0144,-0.0052,9.0E-4,0.026853,0.048529,0.036991,2017-07-05 19:40:35,63.52007035232103
-0.89064306,0.49799395,9.299079,-0.0012217305,0.0036651916,0.004886922,2.0,-0.9266,0.5585,9.746699,-0.028199999,-0.0030999999,4.0E-4,0.026977,0.048213,0.03224,2017-07-05 19:40:36,72.72664319701633
-0.90021986,0.5363012,9.308656,-0.002443461,0.0012217305,0.0061086523,2.0,-0.9431,0.5694,9.7445,0.0071,-0.033099998,-0.036599997,0.027557,0.049052,0.031237,2017-07-05 19:40:37,73.0162605607976
-0.90979666,0.50757074,9.308656,-0.0036651916,-0.0012217305,0.0036651916,2.0,-0.9454,0.567,9.7444,0.0117,-0.0299,0.042,0.02725,0.049363,0.033798,2017-07-05 19:40:38,71.73890924550571
-0.89064306,0.5363012,9.385271,-0.008552114,-0.0012217305,0.007330383,2.0,-0.93689996,0.55829996,9.7458,-0.0174,-0.005,-0.076799996,0.027037,0.048805,0.032731,2017-07-05 19:40:39,66.42090494684074
-0.8810662,0.49799395,9.346964,-0.0036651916,-0.002443461,0.002443461,2.0,-0.9361,0.56159997,9.7456,0.010199999,-0.015899999,0.0309,0.027143,0.048692,0.031775,2017-07-05 19:40:40,70.7607650369237
-0.8810662,0.5267244,9.385271,-0.002443461,-0.002443461,0.004886922,2.0,-0.92179996,0.56589997,9.746799,-0.020399999,-0.0197,-0.0581,0.027465,0.048049,0.029775,2017-07-05 19:40:41,60.30706027370165
-0.90021986,0.5267244,9.337387,-0.0036651916,-0.004886922,0.0012217305,2.0,-0.97929996,0.5773,9.7404995,0.065,-0.013499999,-0.0313,0.027478,0.051147,0.039643,2017-07-05 19:40:42,72.74881600979788
-0.89064306,0.51714754,9.356541,-0.0012217305,0.002443461,0.008552114,2.0,-0.9295,0.54969996,9.747,0.0088,-0.017199999,-0.19739999,0.026157,0.048547998,0.039792,2017-07-05 19:40:43,66.78851157124608
-0.90021986,0.5267244,9.346964,-0.0012217305,0.0036651916,0.004886922,2.0,-0.9532,0.5599,9.7441,0.023699999,-0.027199998,0.0212,0.026771,0.049818,0.037194,2017-07-05 19:40:44,74.78427955089026
-0.90021986,0.51714754,9.3182335,-0.002443461,0.0,0.002443461,2.0,-0.95419997,0.5586,9.7441,0.0423,-0.025799999,0.0112,0.02667,0.049773,0.037683,2017-07-05 19:40:45,67.65802974122822
-0.90979666,0.5363012,9.337387,-0.0036651916,-0.002443461,0.007330383,2.0,-0.93369997,0.5624,9.7458,-0.0165,0.0,0.019299999,0.027036,0.048656,0.034905,2017-07-05 19:40:46,69.78947901030546
-0.91937345,0.51714754,9.3661175,-0.002443461,0.0036651916,0.007330383,2.0,-0.9508,0.5682,9.7438,-0.0025,-0.033999998,0.0209,0.027159,0.049468,0.036901,2017-07-05 19:40:47,72.12777966563213
-0.91937345,0.51714754,9.3182335,-0.0012217305,-0.002443461,0.007330383,2.0,-0.9618,0.55829996,9.7432995,0.0398,-0.0254,-0.0075999997,0.026634,0.050163,0.037747,2017-07-05 19:40:48,75.8185441725921
-0.91937345,0.50757074,9.260772,-0.0036651916,0.002443461,0.0061086523,2.0,-0.9151,0.56619996,9.747399,-0.028099999,-0.0416,-0.090399995,0.027391,0.047412,0.031018,2017-07-05 19:40:49,74.5786127794378
-0.90021986,0.51714754,9.212888,-0.004886922,0.0,0.0036651916,2.0,-0.9407,0.5624,9.7452,0.0106999995,-0.0289,-0.13679999,0.027164,0.048975,0.031546,2017-07-05 19:40:50,74.15676891929854
-0.91937345,0.5267244,9.32781,-0.0036651916,-0.002443461,0.0036651916,2.0,-0.9705,0.56079996,9.7423,0.0481,-0.018,-0.0165,0.026798,0.050583,0.036709,2017-07-05 19:40:51,69.41281850248312
-0.8619126,0.46926352,9.346964,-0.002443461,-0.004886922,0.0036651916,2.0,-0.9371,0.5542,9.745999,0.025899999,-0.0607,0.0093,0.026833,0.048707,0.033901,2017-07-05 19:40:52,64.04308657754119
-0.92895025,0.51714754,9.232041,-0.004886922,-0.007330383,0.008552114,2.0,-0.9404,0.5651,9.745,-0.0195,-0.031,-0.117199995,0.026978,0.049097,0.037606,2017-07-05 19:40:53,70.05279971032523
-0.90021986,0.51714754,9.260772,0.002443461,-0.002443461,0.007330383,2.0,-0.94619995,0.55979997,9.7448,0.0149,-0.0072,-0.0188,0.026723,0.049375,0.038095,2017-07-05 19:40:54,72.44985195745335
-0.89064306,0.5363012,9.337387,-0.002443461,-0.0012217305,0.007330383,2.0,-0.9334,0.56729996,9.7456,0.013599999,-0.024,0.029399998,0.027275,0.048706,0.034808,2017-07-05 19:40:55,72.55111568918548
-0.90979666,0.50757074,9.289502,-0.0036651916,0.0036651916,0.007330383,2.0,-0.9468,0.5656,9.7444,-0.023599999,-0.022599999,-0.1165,0.027168,0.049337,0.035074,2017-07-05 19:40:56,73.90617635643481
-0.90021986,0.545878,9.241618,0.0012217305,-0.002443461,0.0061086523,2.0,-0.958,0.5724,9.7429,0.0557,-0.0488,-0.0072,0.027354,0.05,0.037957,2017-07-05 19:40:57,71.30308378565677
-0.90021986,0.5363012,9.308656,-0.0061086523,0.002443461,0.004886922,2.0,-0.9465,0.55799997,9.7448,0.0074,-0.015999999,8.0E-4,0.026699,0.049476,0.037384998,2017-07-05 19:40:58,72.92909218263743
-0.90021986,0.5267244,9.299079,-0.004886922,-0.002443461,0.004886922,2.0,-0.9503,0.56049997,9.7443,0.0189,-0.0275,-0.0184,0.026778,0.049575,0.037535,2017-07-05 19:40:59,72.35284805614965
-0.90979666,0.51714754,9.356541,-0.004886922,-0.0012217305,0.007330383,2.0,-0.9539,0.56,9.7439995,-0.0167,-0.0369,0.040599998,0.026573,0.04985,0.041004,2017-07-05 19:41:00,69.95476325215157
-0.90021986,0.5363012,9.442732,-0.002443461,-0.004886922,0.0061086523,2.0,-0.94259995,0.5617,9.745,0.019199999,-0.038,0.1777,0.02663,0.049691,0.041256,2017-07-05 19:41:01,71.03467372704641
-0.8810662,0.49799395,9.433155,-0.0061086523,-0.0036651916,0.004886922,2.0,-0.9641,0.5642,9.7428,0.0352,-0.0133,0.003,0.026907999,0.05052,0.039999,2017-07-05 19:41:02,69.36311948397537
-0.8714894,0.47884035,9.356541,-0.007330383,-0.002443461,0.004886922,2.0,-0.93659997,0.55689996,9.7459,-0.0137,-0.0241,-0.0591,0.026698,0.048826,0.035982,2017-07-05 19:41:03,69.36522905873267
-0.90979666,0.5267244,9.375694,-0.002443461,-0.0061086523,0.007330383,2.0,-0.95629996,0.5607,9.7437,0.022,-0.0071,-0.096599996,0.026803,0.049696,0.036049,2017-07-05 19:41:04,66.73101171001407
-0.90021986,0.51714754,9.461885,-0.002443461,0.0012217305,0.010995574,2.0,-0.9403,0.5629,9.7452,-4.0E-4,-0.0103,0.088599995,0.027026,0.049011,0.035449,2017-07-05 19:41:05,72.53100024098933
-0.8714894,0.5363012,9.337387,-0.002443461,-0.007330383,0.004886922,2.0,-0.97499996,0.5693,9.7414,0.0426,-0.0262,-0.1235,0.027228,0.05083,0.036628,2017-07-05 19:41:06,72.68701766079428
-0.93852705,0.5554548,9.337387,-0.002443461,0.0012217305,0.004886922,2.0,-0.894,0.5664,9.7493,-0.0275,-0.011399999,-0.0431,0.027502,0.046325,0.028374,2017-07-05 19:41:07,70.25488600582554
-0.91937345,0.5267244,9.3661175,-0.004886922,-0.009773844,0.0061086523,2.0,-0.9341,0.5635,9.7457,0.0033999998,-0.030399999,-0.0982,0.027211,0.048614,0.032454,2017-07-05 19:41:08,66.46236946383635
-0.89064306,0.5267244,9.308656,-0.0061086523,-0.008552114,0.007330383,2.0,-0.9306,0.55689996,9.7464,0.0,-0.0339,-0.049799997,0.026961,0.048379,0.030811999,2017-07-05 19:41:09,74.6725407147631
-0.90979666,0.5267244,9.299079,-0.0036651916,-0.0012217305,0.008552114,2.0,-0.9662,0.55939996,9.7428,0.0279,-0.0165,-0.046,0.026673,0.050576,0.037628,2017-07-05 19:41:10,63.382283814789524
-0.89064306,0.50757074,9.308656,-0.004886922,-0.0012217305,0.007330383,2.0,-0.92649996,0.5574,9.746799,0.0128999995,0.0162,-0.030199999,0.026758,0.048299998,0.035657,2017-07-05 19:41:11,57.03811843260418
-0.90979666,0.5267244,9.337387,-0.008552114,-0.0036651916,0.004886922,2.0,-0.9264,0.5435,9.7476,-0.0093,0.04,0.030399999,0.026067,0.048187,0.035391,2017-07-05 19:41:12,57.68335386109439
-0.90021986,0.51714754,9.308656,-0.004886922,0.004886922,0.007330383,2.0,-0.92329997,0.5413,9.748,-0.009699999,-0.0075,-0.011399999,0.025954,0.048098,0.035379,2017-07-05 19:41:13,56.73892269298893
-0.90021986,0.545878,9.193734,-0.004886922,0.0,0.0036651916,2.0,-0.95059997,0.5528,9.7446995,-0.0131,0.030399999,0.011299999,0.02629,0.049623,0.039517,2017-07-05 19:41:14,70.24873948785628
-0.90021986,0.51714754,9.289502,-0.0061086523,-0.004886922,0.0036651916,2.0,-0.954,0.5604,9.7439995,0.009699999,-0.0061,-0.046699997,0.026844,0.049367,0.035441,2017-07-05 19:41:15,73.75637597770739
-0.91937345,0.49799395,9.289502,-0.008552114,0.004886922,0.0036651916,2.0,-0.93469995,0.5566,9.746099,-0.0158,-0.0429,-0.0288,0.02697,0.048747,0.031363,2017-07-05 19:41:16,73.53826428723048
-0.90021986,0.545878,9.232041,-0.0036651916,-0.0012217305,0.002443461,2.0,-0.9306,0.55619997,9.7465,0.0168,0.0075999997,-0.0491,0.026858,0.048414,0.032137,2017-07-05 19:41:17,66.97479017965318
-0.89064306,0.545878,9.337387,-0.008552114,0.009773844,0.004886922,2.0,-0.9407,0.5524,9.7457,-0.003,-0.0077,-0.1171,0.026605,0.048926,0.032428,2017-07-05 19:41:18,71.45043140999107
-0.89064306,0.51714754,9.3182335,-0.004886922,-0.004886922,0.0061086523,2.0,-0.9493,0.5573,9.744599,0.054199997,-0.0032,0.031,0.026752,0.049443,0.034898,2017-07-05 19:41:19,72.2667937527592
-0.90021986,0.545878,9.3182335,-0.0061086523,0.0,0.0036651916,2.0,-0.9317,0.5591,9.7462,-0.0207,-0.0053,-0.0164,0.026767,0.048608,0.037068,2017-07-05 19:41:20,63.40643433686891
-0.8810662,0.5363012,9.32781,-0.0061086523,0.004886922,0.004886922,2.0,-0.92569995,0.5611,9.746699,0.0042,-0.0071,0.0224,0.026966,0.048322,0.035153,2017-07-05 19:41:21,72.92651012491638
-0.92895025,0.49799395,9.452309,-0.0036651916,0.0061086523,0.0036651916,2.0,-0.973,0.5599,9.7421,0.0383,-0.0061,-0.012499999,0.026704,0.050737,0.037649,2017-07-05 19:41:22,69.28431823940953
-0.8714894,0.51714754,9.32781,-0.007330383,-0.004886922,0.004886922,2.0,-0.9288,0.55289996,9.746799,-0.0037999998,-0.009099999,0.0319,0.026395,0.048477,0.038256,2017-07-05 19:41:23,72.57024679901717
-0.91937345,0.5363012,9.3182335,-0.002443461,-0.002443461,0.007330383,2.0,-0.9428,0.5613,9.745,0.010799999,0.0053999997,-0.0064999997,0.026703,0.048724,0.037299998,2017-07-05 19:41:24,69.06239453749822
-0.90021986,0.5267244,9.270349,-0.004886922,0.002443461,0.004886922,2.0,-0.9323,0.5596,9.746099,0.0087,-0.046299998,0.062099997,0.026933,0.048577,0.03564,2017-07-05 19:41:25,65.53024920585517
-0.91937345,0.51714754,9.471462,-0.0012217305,0.0036651916,0.0036651916,2.0,-0.9278,0.5603,9.7465,-0.014599999,-0.0162,0.0616,0.027031,0.048301,0.033022,2017-07-05 19:41:26,65.85694385108512
-0.94810385,0.545878,9.385271,-0.008552114,-0.0061086523,0.0061086523,2.0,-0.95729995,0.56589997,9.7432995,0.0106999995,-0.0405,-0.0826,0.027121,0.049734,0.035372,2017-07-05 19:41:27,71.3379495894329
-0.89064306,0.5267244,9.3182335,-0.007330383,-0.0012217305,0.0061086523,2.0,-0.9597,0.5627,9.7432995,0.006,9.999999E-4,0.054899998,0.02671,0.050147,0.040807,2017-07-05 19:41:28,72.36902891094039
-0.89064306,0.51714754,9.32781,-0.004886922,-0.008552114,0.0061086523,2.0,-0.9277,0.56549996,9.7462,0.014599999,-0.031,-0.0164,0.027162,0.048378,0.035834,2017-07-05 19:41:29,70.88244050804039
-0.90021986,0.545878,9.299079,-0.002443461,-0.0061086523,0.004886922,2.0,-0.9385,0.5636,9.745299,-0.0093,-0.0335,0.0311,0.027054999,0.048878,0.033118,2017-07-05 19:41:30,68.35324103193733
-0.90979666,0.50757074,9.32781,-0.007330383,0.004886922,0.008552114,2.0,-0.94159997,0.56189996,9.7451,-0.0265,0.0149,0.021599999,0.027104,0.048998,0.03271,2017-07-05 19:41:31,70.29654792304386
-0.90979666,0.5267244,9.385271,-0.004886922,0.002443461,0.004886922,2.0,-0.9562,0.5652,9.7435,-0.0126,-0.0274,-0.015999999,0.026989,0.049894,0.037964,2017-07-05 19:41:32,57.32689656574965
-0.90021986,0.51714754,9.356541,-0.0061086523,0.002443461,0.0061086523,2.0,-0.9359,0.55759996,9.7459,0.0156,-0.0201,0.069699995,0.026642,0.048764,0.037872,2017-07-05 19:41:33,68.5552935353737
-0.90979666,0.545878,9.481039,-0.0012217305,0.0,0.0061086523,2.0,-0.92899996,0.56189996,9.7463,-0.0189,-0.0047,0.059699997,0.02695,0.048451,0.036325,2017-07-05 19:41:34,64.41134042128367
-0.89064306,0.51714754,9.356541,-0.002443461,0.0012217305,0.007330383,2.0,-0.94229996,0.5542,9.7455,0.0133,-0.016999999,-0.037499998,0.026679,0.048986,0.035252,2017-07-05 19:41:35,71.89988494779284
-0.8810662,0.5554548,9.337387,-0.0012217305,-0.004886922,0.007330383,2.0,-0.9307,0.55799997,9.7464,0.014699999,0.0196,0.0696,0.026851,0.048583,0.032983,2017-07-05 19:41:36,72.43729621283853
-0.90021986,0.5363012,9.32781,-0.0036651916,-0.002443461,0.0036651916,2.0,-0.9349,0.5604,9.7458,-0.0016,-0.014099999,0.0698,0.027134,0.048598,0.030726,2017-07-05 19:41:37,67.50467850932614
-0.89064306,0.51714754,9.3182335,-0.002443461,-0.0061086523,0.0061086523,2.0,-0.97029996,0.5661,9.742,0.031999998,-0.029399998,0.053799998,0.027268,0.050187,0.034497,2017-07-05 19:41:38,71.34297650661567
-0.91937345,0.51714754,9.222465,-0.0061086523,-0.0012217305,0.007330383,2.0,-0.96159995,0.5681,9.7428,0.0052,-0.0326,-0.0643,0.027157,0.050255,0.038705,2017-07-05 19:41:39,75.43265340791967
-0.90021986,0.5267244,9.203311,-0.0012217305,0.0036651916,0.0036651916,2.0,-0.94339997,0.5674,9.744599,-0.0033,-0.0111,-0.017199999,0.027071,0.049275,0.039072,2017-07-05 19:41:40,75.53938033402852
-0.90021986,0.5267244,9.136273,-0.0012217305,0.004886922,0.0036651916,2.0,-0.92209995,0.5652,9.746799,-0.023599999,-0.0188,0.0101,0.027125,0.048162,0.035315,2017-07-05 19:41:41,65.37984733648764
-0.8619126,0.51714754,9.509769,-0.004886922,-0.0036651916,0.0036651916,2.0,-0.9314,0.5477,9.7469,0.044099998,0.0077,0.0099,0.026267,0.048524,0.035329,2017-07-05 19:41:42,67.88559433166722
-0.93852705,0.49799395,9.32781,-0.0036651916,0.002443461,0.004886922,2.0,-0.94269997,0.57049996,9.7445,0.0548,0.035,0.0907,0.027361,0.049172,0.036368,2017-07-05 19:41:43,63.0193789610925
-0.90021986,0.545878,9.279925,-0.004886922,-0.0012217305,0.008552114,2.0,-0.921,0.5581,9.7473,-0.0383,-0.010199999,-0.069299996,0.026814,0.047749,0.033603,2017-07-05 19:41:44,65.64741478280703
-0.90021986,0.5267244,9.32781,-0.007330383,-0.002443461,0.004886922,2.0,-0.97099996,0.5584,9.7424,0.0328,-0.0221,0.0142,0.026539,0.05068,0.039463,2017-07-05 19:41:45,72.6266315186717
-0.90979666,0.5554548,9.32781,-0.0036651916,0.008552114,0.0036651916,2.0,-0.9406,0.5694,9.7448,0.036199998,-0.0148,0.0297,0.027257,0.04909,0.037436,2017-07-05 19:41:46,57.641224788045406
-0.90979666,0.51714754,9.433155,-0.004886922,0.002443461,0.0061086523,2.0,-0.9316,0.56009996,9.7462,0.0241,-0.035099998,0.0682,0.026774,0.04895,0.037419,2017-07-05 19:41:47,59.44855039510993
-0.90021986,0.51714754,9.3182335,-0.007330383,-0.007330383,0.004886922,2.0,-0.95309997,0.5656,9.7438,0.0155,-0.021599999,-0.0176,0.026975,0.050122,0.039176,2017-07-05 19:41:48,73.10109845994423
-0.90021986,0.5267244,9.241618,-0.004886922,0.002443461,0.008552114,2.0,-0.9442,0.5611,9.7449,0.0021,-0.0274,-0.016999999,0.026955,0.049187,0.034793,2017-07-05 19:41:49,61.40859524237491
-0.90979666,0.5363012,9.308656,-0.007330383,0.0061086523,0.0036651916,2.0,-0.9436,0.5653,9.7446995,0.0089,-0.0319,-0.0072999997,0.027235,0.049018,0.034049,2017-07-05 19:41:50,68.48592989624748
-0.90979666,0.545878,9.289502,-0.0012217305,-0.0036651916,0.007330383,2.0,-0.9766,0.5649,9.7415,0.0429,-0.0016999999,0.0156,0.026988,0.050909,0.036958,2017-07-05 19:41:51,67.63307439288096
-0.91937345,0.5363012,9.299079,-0.0061086523,-0.0012217305,0.004886922,2.0,-0.9636,0.5636,9.7429,0.0109,0.0093,0.0633,0.026816,0.05031,0.039487,2017-07-05 19:41:52,74.7113915449294
-0.89064306,0.5363012,9.299079,-0.004886922,-0.0061086523,0.0061086523,2.0,-0.9492,0.5568,9.744599,0.029199999,0.0056999996,-0.0165,0.026504999,0.049706,0.039519,2017-07-05 19:41:53,74.94805958206743
-0.90979666,0.545878,9.404425,-0.0061086523,-0.004886922,0.007330383,2.0,-0.9659,0.5639,9.7425995,0.0131,-0.030199999,-0.044299997,0.026825,0.050433,0.039524,2017-07-05 19:41:54,57.56860487253273
-0.90979666,0.5267244,9.299079,-0.004886922,0.0012217305,0.007330383,2.0,-0.9432,0.5548,9.745299,0.0011999999,-0.0116,0.011899999,0.026606,0.049144,0.035476,2017-07-05 19:41:55,74.4200222214056
-0.90021986,0.5267244,9.346964,-0.004886922,0.0036651916,0.0036651916,2.0,-0.95119995,0.5603,9.7443,0.018,-0.0166,0.0128,0.026831,0.049547,0.03603,2017-07-05 19:41:56,72.50580874155233
-0.90979666,0.50757074,9.32781,-0.007330383,-0.0036651916,0.007330383,2.0,-0.9377,0.55759996,9.7457,0.0253,-0.0143,0.0016999999,0.026804,0.048843,0.034527,2017-07-05 19:41:57,76.17617819173402
-0.9576807,0.5267244,9.32781,-0.0061086523,-0.0012217305,0.0036651916,1.0,-0.9492,0.5489,9.7451,-0.009699999,0.0150999995,-0.1151,0.026426,0.049472,0.030975,2017-07-05 19:41:58,60.91216415986203
-0.90021986,0.51714754,9.32781,-0.004886922,-0.0036651916,0.0061086523,1.0,-0.9359,0.5596,9.7458,0.0067999996,-0.0262,-0.0078,0.027101,0.048804,0.030718,2017-07-05 19:41:59,65.23170222921206
-0.90021986,0.5267244,9.241618,-0.0061086523,-0.009773844,0.004886922,2.0,-0.9625,0.5647,9.7429,0.029399998,-0.0015,0.024,0.026974,0.050202,0.037508998,2017-07-05 19:42:00,62.08873988328672
-0.8810662,0.5267244,9.3182335,0.0,0.0012217305,0.0036651916,2.0,-0.93619996,0.5592,9.7458,0.0042,-0.0256,-0.037499998,0.026938,0.048739,0.033472,2017-07-05 19:42:01,59.96088969970576
-0.90021986,0.51714754,9.203311,-0.007330383,-0.004886922,0.0061086523,2.0,-0.9578,0.5591,9.7437,0.0112,-0.0134,0.0042,0.02692,0.049831,0.032979,2017-07-05 19:42:02,65.3344335687216
-0.90979666,0.5267244,9.241618,-0.007330383,0.0061086523,0.0061086523,2.0,-0.95409995,0.5618,9.743899,-0.0056999996,-0.0071,0.141,0.027015,0.049511,0.035135,2017-07-05 19:42:03,72.1149075101201
-0.90979666,0.5363012,9.375694,-0.007330383,-0.002443461,0.004886922,2.0,-0.9578,0.5607,9.7436,-0.018099999,-0.024799999,0.0534,0.026967,0.049854,0.033722,2017-07-05 19:42:04,75.31281833582827
-0.92895025,0.5267244,9.241618,-0.002443461,0.0012217305,0.0061086523,2.0,-0.9727,0.5586,9.7422,0.036599997,-0.012999999,0.0058,0.026721,0.050746,0.035911,2017-07-05 19:42:05,68.95721056710721
-0.92895025,0.49799395,9.3182335,-0.0061086523,0.002443461,0.0036651916,2.0,-0.9604,0.54399997,9.7443,-0.009099999,-0.027999999,0.0229,0.025992,0.049832,0.035708,2017-07-05 19:42:06,70.53432837117668
-0.90021986,0.5267244,9.289502,-0.0036651916,0.0061086523,0.007330383,2.0,-0.94699997,0.55399996,9.745,0.0106999995,-0.028199999,0.051999997,0.026595,0.049313,0.034668,2017-07-05 19:42:07,67.25536538045665
-0.90021986,0.51714754,9.308656,-0.007330383,0.0,0.002443461,2.0,-0.9382,0.5523,9.745999,-0.0044,-0.0185,-0.018199999,0.02657,0.049034,0.034525,2017-07-05 19:42:08,59.98459869892561
-0.89064306,0.51714754,9.32781,-0.004886922,0.0,0.007330383,2.0,-0.93469995,0.555,9.7462,0.0105,-0.0202,0.0084,0.026736,0.048608,0.032781,2017-07-05 19:42:09,58.55133194847048
-0.8714894,0.51714754,9.289502,-0.007330383,-0.002443461,0.0061086523,2.0,-0.94979995,0.5549,9.7446995,0.0254,-9.0E-4,0.029399998,0.026679,0.049436,0.033823,2017-07-05 19:42:10,69.52589423827264
-0.91937345,0.51714754,9.3182335,-0.008552114,-0.007330383,0.0061086523,2.0,-0.95629996,0.5561,9.7439995,0.0224,0.0066,-0.0383,0.026676,0.049862,0.035919,2017-07-05 19:42:11,73.96946978728658
-0.92895025,0.5267244,9.337387,-0.0036651916,0.0036651916,0.002443461,2.0,-0.9623,0.56159997,9.7431,0.0187,-0.037299998,-0.0075,0.026728,0.050235,0.039238,2017-07-05 19:42:12,57.351674583382
-0.89064306,0.50757074,9.289502,-0.0012217305,-0.0012217305,0.004886922,2.0,-0.92539996,0.5596,9.746799,-0.0166,-0.0157,-0.0404,0.02695,0.0482,0.03399,2017-07-05 19:42:13,63.846456269246616
-0.90979666,0.5363012,9.3182335,-0.0061086523,-0.007330383,0.004886922,2.0,-0.9359,0.55439997,9.746099,0.0053,-0.0011999999,-0.0101,0.02675,0.048803,0.032554,2017-07-05 19:42:14,74.50902154430067
-0.89064306,0.5363012,9.299079,-0.007330383,-0.0012217305,0.0061086523,2.0,-0.95419997,0.5584,9.7441,0.030499998,-0.014599999,-0.047599997,0.026644,0.049777,0.037936,2017-07-05 19:42:15,70.1665613001533
-0.91937345,0.5267244,9.337387,-0.0061086523,0.002443461,0.0061086523,2.0,-0.944,0.55979997,9.745,0.011,-0.015899999,-0.048499998,0.026885,0.049179,0.034889,2017-07-05 19:42:16,67.38484483021954
-0.90021986,0.5650316,9.404425,-0.010995574,0.0012217305,0.0061086523,2.0,-0.96989995,0.5552,9.7427,0.0288,0.0186,-0.104899995,0.026241,0.050813,0.041157,2017-07-05 19:42:17,69.00311185909865
-0.92895025,0.5267244,9.3182335,-0.004886922,-0.002443461,0.007330383,2.0,-0.95879996,0.5582,9.7436,0.010799999,-0.0131,0.0404,0.026433,0.049837,0.040562,2017-07-05 19:42:18,70.23018457178624
-0.91937345,0.50757074,9.337387,-0.007330383,-0.0012217305,0.008552114,2.0,-0.9242,0.5478,9.7476,-0.0177,0.0053,0.0078,0.026121,0.048245,0.038739,2017-07-05 19:42:19,70.87826960624946
-0.89064306,0.5363012,9.3182335,-0.002443461,-0.002443461,0.0061086523,2.0,-0.9511,0.5534,9.7446995,0.0117999995,0.0105,0.0393,0.026336,0.049306,0.038543,2017-07-05 19:42:20,63.06755965855003
-0.92895025,0.5363012,9.337387,-0.002443461,-0.0036651916,0.008552114,2.0,-0.9468,0.55649996,9.7449,0.0137,-0.003,0.059299998,0.026372,0.0495,0.041814,2017-07-05 19:42:21,58.76110943060161
-0.93852705,0.5267244,9.270349,-0.0061086523,0.002443461,0.0036651916,2.0,-0.9465,0.55689996,9.7449,0.0036,-0.0132,4.9999997E-4,0.02653,0.049413,0.039045,2017-07-05 19:42:22,72.01783689672206
-0.92895025,0.5267244,9.404425,-0.0012217305,0.0,0.0061086523,2.0,-0.945,0.5579,9.745,0.0055,-0.022799999,-0.1375,0.026708,0.048894,0.035489,2017-07-05 19:42:24,71.84297585675435
-0.90021986,0.51714754,9.346964,0.0,-0.008552114,0.0061086523,2.0,-0.9533,0.5586,9.7442,0.039499998,0.0145,-0.0379,0.026611,0.049757,0.038848,2017-07-05 19:42:25,69.08972987726203
-0.89064306,0.5363012,9.385271,-0.002443461,-0.004886922,0.002443461,2.0,-0.96559995,0.5681,9.7424,0.0218,-0.0337,-0.046,0.027115,0.050381,0.03802,2017-07-05 19:42:26,63.03182160720027
-0.89064306,0.545878,9.212888,-0.0036651916,-0.0012217305,0.002443461,2.0,-0.95919997,0.565,9.743199,0.0359,-0.0032,-0.1153,0.027005,0.050118,0.039277,2017-07-05 19:42:27,64.47789941967882
-0.90021986,0.5363012,9.32781,-0.002443461,0.002443461,0.007330383,2.0,-0.96089995,0.5597,9.7432995,0.0075,-0.0061,0.0117999995,0.026673,0.050139,0.038521,2017-07-05 19:42:28,73.1781274268724
-0.90979666,0.5363012,9.346964,-0.007330383,0.002443461,0.0036651916,2.0,-0.95669997,0.5603,9.7437,0.0132,0.0030999999,0.0026999998,0.026685,0.049938,0.039009,2017-07-05 19:42:29,71.63718751257375
-0.90021986,0.50757074,9.337387,-0.002443461,0.004886922,0.008552114,2.0,-0.951,0.5657,9.7439995,0.0273,-0.0018999999,-0.0268,0.026903,0.049694,0.040401,2017-07-05 19:42:30,68.62774680443253
-0.90979666,0.5267244,9.3182335,-0.010995574,0.007330383,0.004886922,2.0,-0.95239997,0.5607,9.7441,0.0233,-0.0084,0.022499999,0.026687,0.050008,0.040909,2017-07-05 19:42:31,57.2316502620017
-0.93852705,0.50757074,9.241618,-0.0012217305,-0.0036651916,0.008552114,2.0,-0.9356,0.56189996,9.7457,-0.0265,-0.0179,-0.0677,0.026871,0.048829,0.037708,2017-07-05 19:42:32,65.03564099268057
-0.89064306,0.545878,9.32781,-0.004886922,-0.0012217305,0.0012217305,2.0,-0.9456,0.5647,9.744599,0.0222,-0.0206,-0.0176,0.026907999,0.049391,0.03945,2017-07-05 19:42:33,72.08227464553444
-0.8810662,0.5363012,9.308656,-0.0036651916,0.0012217305,0.009773844,2.0,-0.9174,0.5621,9.747399,0.0016999999,-0.0056,0.0224,0.026896,0.047941,0.037845,2017-07-05 19:42:34,57.10459854672568
-0.90979666,0.51714754,9.308656,-0.002443461,-0.0012217305,0.0061086523,2.0,-0.94189996,0.5665,9.7448,0.0047999998,-0.0061999997,-0.0382,0.026945,0.049242,0.040752,2017-07-05 19:42:35,58.03364566408444
-0.92895025,0.545878,9.279925,-0.0061086523,0.0012217305,0.004886922,1.0,-0.9572,0.5614,9.7436,0.0049,-0.0376,-0.0563,0.026607,0.050038,0.041645,2017-07-05 19:42:36,72.60416283312266
-0.90979666,0.5363012,9.241618,-0.004886922,0.0036651916,0.0061086523,1.0,-0.9249,0.5611,9.746699,-0.0162,-0.0374,-0.0691,0.026872,0.048268,0.037292,2017-07-05 19:42:37,71.97352412708906
-0.92895025,0.5267244,9.251195,-0.0012217305,0.0061086523,0.0036651916,1.0,-0.9611,0.5627,9.7431,0.0243,-0.0088,-0.0563,0.026981,0.049845,0.034861,2017-07-05 19:42:38,72.21122499353174
-0.90979666,0.51714754,9.337387,-0.004886922,0.004886922,0.004886922,1.0,-0.9467,0.5578,9.7448,0.0243,-0.0047999998,-0.028099999,0.026899999,0.04925,0.032472,2017-07-05 19:42:39,67.81638815325392
-0.90979666,0.5267244,9.299079,-0.004886922,0.002443461,0.0012217305,1.0,-0.913,0.56079996,9.7479,-0.0178,-0.0174,-0.011399999,0.027246,0.047445,0.029499,2017-07-05 19:42:40,67.27753413510328
-0.89064306,0.5363012,9.346964,-0.002443461,0.0,0.007330383,1.0,-0.9647,0.57019997,9.7424,0.0449,-0.015299999,0.0137,0.027312,0.050433,0.034771,2017-07-05 19:42:41,72.88605908822547
-0.8810662,0.545878,9.279925,-0.004886922,-0.0012217305,0.0036651916,1.0,-0.9472,0.5707,9.7439995,0.0050999997,-0.0563,0.0019999999,0.027597,0.049271,0.031634,2017-07-05 19:42:42,63.73634689704801
-0.8810662,0.5267244,9.299079,-0.0012217305,0.0,0.004886922,1.0,-0.9661,0.5631,9.7425995,0.042099997,-0.0296,-0.0457,0.02711,0.050228998,0.033202,2017-07-05 19:42:43,67.67652537119217
-0.89064306,0.48841715,9.32781,-0.002443461,-0.002443461,0.004886922,1.0,-0.94329995,0.55869997,9.7451,0.020299999,-0.0539,-0.0089,0.026876999,0.049057,0.033226,2017-07-05 19:42:44,67.54516968765516
-0.91937345,0.5363012,9.32781,-0.007330383,0.008552114,0.004886922,1.0,-0.956,0.5597,9.7438,0.0233,-0.0164,-0.0075,0.026806,0.049821,0.03599,2017-07-05 19:42:45,68.38213243817121
-0.89064306,0.545878,9.308656,-0.0061086523,-0.0012217305,0.002443461,2.0,-0.96449995,0.5653,9.7427,0.0315,-0.0414,-0.0064,0.027108,0.050411,0.035863,2017-07-05 19:42:46,68.26826903141972
-0.90021986,0.51714754,9.308656,-0.002443461,0.0012217305,0.007330383,2.0,-0.9607,0.56799996,9.7429,0.0289,-0.036,-0.025999999,0.027275,0.050163,0.03691,2017-07-05 19:42:47,72.48303915554133
-0.89064306,0.545878,9.241618,-0.0036651916,-0.0036651916,0.0061086523,2.0,-0.94589996,0.5638,9.744599,-0.0352,-0.030199999,0.0015,0.026966,0.049352,0.03739,2017-07-05 19:42:48,76.18717053428037
-0.90979666,0.5267244,9.308656,-0.002443461,-0.0012217305,0.007330383,2.0,-0.95309997,0.5678,9.7436,0.030399999,-0.0339,-0.017099999,0.027115,0.04959,0.038190998,2017-07-05 19:42:49,72.70886658577034
-0.90021986,0.5267244,9.3182335,-0.014660766,-0.0012217305,0.0036651916,2.0,-0.9281,0.5622,9.7464,0.0064999997,-0.0286,-0.0394,0.027033,0.048374,0.035011,2017-07-05 19:42:50,65.16540185729713
-0.90979666,0.5363012,9.299079,-0.0036651916,0.008552114,0.0061086523,2.0,-0.93109995,0.5597,9.7462,0.0289,0.0030999999,-0.029399998,0.026939,0.0485,0.034164,2017-07-05 19:42:51,60.80824470850107
-0.90021986,0.5363012,9.279925,-0.007330383,0.0,0.007330383,2.0,-0.97919995,0.56369996,9.7413,0.0447,-0.021599999,0.0537,0.027062,0.050962,0.035624,2017-07-05 19:42:52,61.907844242581824
-0.90021986,0.5267244,9.528923,-0.009773844,-0.002443461,0.0012217305,2.0,-0.9579,0.5603,9.7436,0.0056,0.0123,-0.017099999,0.026844,0.049915,0.035803,2017-07-05 19:42:53,73.27945241326093
-0.90021986,0.51714754,9.356541,-0.009773844,-0.002443461,0.004886922,1.0,-0.9485,0.5538,9.7449,0.0064,-0.0206,0.0011999999,0.026517,0.049429,0.036017,2017-07-05 19:42:54,73.30269113151735
-0.91937345,0.5554548,9.251195,-0.0061086523,0.002443461,0.002443461,1.0,-0.9474,0.5609,9.744599,0.0045,-0.0056,-0.038799997,0.026909,0.048749,0.033542,2017-07-05 19:42:55,68.54728416927111
-0.90021986,0.545878,9.375694,-0.0012217305,0.0012217305,0.007330383,1.0,-0.9586,0.5649,9.7432995,0.0092,-0.021599999,-0.0753,0.027085,0.050118,0.035788,2017-07-05 19:42:56,67.78958717570325
-0.8810662,0.5267244,9.251195,-0.007330383,0.0061086523,0.007330383,1.0,-0.9199,0.56799996,9.746799,0.018199999,-0.0047,-0.0202,0.027496,0.047874,0.031806,2017-07-05 19:42:57,72.30610930738712
-0.90021986,0.5267244,9.385271,-0.002443461,0.0,0.0036651916,1.0,-0.9755,0.5681,9.7414,0.039499998,-0.021499999,0.0663,0.027201,0.050775,0.034325,2017-07-05 19:42:58,67.50048876016972
-0.91937345,0.51714754,9.346964,-0.002443461,0.002443461,0.010995574,1.0,-0.9359,0.5636,9.7455,0.0018999999,7.0E-4,0.0232,0.027168,0.048731,0.033356998,2017-07-05 19:42:59,69.47844164781098
-0.91937345,0.49799395,9.3182335,-0.0036651916,0.0061086523,0.004886922,1.0,-0.93829995,0.5631,9.745299,0.0139999995,-0.028199999,-0.0058999998,0.027292,0.048768,0.030292,2017-07-05 19:43:00,65.33713873058878
-0.90021986,0.5267244,9.308656,-0.0061086523,-0.002443461,0.0036651916,1.0,-0.93439996,0.5611,9.7458,0.0078,0.0018999999,0.0139,0.027215,0.048974,0.030906,2017-07-05 19:43:01,58.04974170311163
-0.89064306,0.51714754,9.394848,-0.012217305,0.007330383,0.007330383,1.0,-0.94159997,0.5603,9.7452,-0.031799998,-0.0254,-0.0058,0.027114,0.048944,0.030849,2017-07-05 19:43:02,67.33370617533949
-0.92895025,0.5267244,9.232041,-0.004886922,-0.002443461,0.004886922,1.0,-0.9747,0.5661,9.7416,0.019399999,-0.0506,-0.0023,0.027169,0.050753,0.034636,2017-07-05 19:43:03,70.90044276604414
-0.91937345,0.5363012,9.337387,-0.004886922,0.0012217305,0.007330383,1.0,-0.9273,0.5606,9.7465,-0.0257,-0.0067,0.0223,0.027065,0.048292,0.033289,2017-07-05 19:43:04,69.4921265698311
-0.89064306,0.5363012,9.3182335,-0.007330383,-0.007330383,0.0061086523,1.0,-0.9729,0.574,9.7413,0.037299998,-0.0189,0.0273,0.027479,0.050729,0.036491,2017-07-05 19:43:05,67.50344718568155
-0.90021986,0.5267244,9.3182335,-0.004886922,-0.0036651916,0.0012217305,1.0,-0.91999996,0.56119996,9.7472,0.0063,-0.0067,-0.0273,0.027095,0.04771,0.032562,2017-07-05 19:43:06,70.31301148568299
-0.90021986,0.5267244,9.3182335,-0.004886922,-0.0061086523,0.0061086523,1.0,-0.9697,0.5618,9.7424,0.0341,-0.0168,0.0066,0.026955,0.050475,0.03437,2017-07-05 19:43:07,75.09303906492916
-0.91937345,0.51714754,9.385271,-0.0036651916,-0.0012217305,0.009773844,1.0,-0.94689995,0.5633,9.7445,-0.0071,9.999999E-4,-0.0345,0.027156,0.049281,0.032932,2017-07-05 19:43:08,71.55346365550261
-0.8810662,0.5267244,9.308656,-0.008552114,0.007330383,0.007330383,1.0,-0.9629,0.5672,9.7427,0.0865,-0.0026,0.0357,0.027186,0.050662998,0.035793,2017-07-05 19:43:09,60.70032100039682
-0.91937345,0.545878,9.299079,-0.004886922,0.004886922,0.0061086523,1.0,-0.9306,0.56159997,9.7462,-0.0231,0.0018999999,-0.0165,0.027152,0.048411,0.032588,2017-07-05 19:43:10,66.74583662868696
-0.91937345,0.51714754,9.260772,-0.004886922,0.0012217305,0.004886922,1.0,-0.9339,0.56369996,9.7457,-0.009699999,-0.0189,-0.025899999,0.027283,0.048572,0.031245,2017-07-05 19:43:11,64.74231648330559
-0.90021986,0.5267244,9.193734,-0.0012217305,0.0012217305,0.007330383,1.0,-0.95419997,0.5656,9.7437,-2.9999999E-4,-0.0207,0.054399997,0.02716,0.049704,0.034959,2017-07-05 19:43:12,55.84884305923383
-0.91937345,0.51714754,9.270349,-0.0036651916,-0.004886922,0.002443461,1.0,-0.9686,0.5708,9.7418995,0.0332,-0.0061,-0.1497,0.027341,0.050492,0.036160998,2017-07-05 19:43:13,64.30471275601657
-0.89064306,0.5363012,9.32781,-0.008552114,-0.002443461,0.007330383,1.0,-0.9352,0.56979996,9.745299,-0.0084999995,-0.015,0.0137,0.0276,0.04864,0.031071,2017-07-05 19:43:14,67.71550000697376
-0.91937345,0.5363012,9.270349,-0.004886922,-0.0036651916,0.0036651916,1.0,-0.95849997,0.5663,9.743199,0.021,-0.0311,0.0154,0.027377,0.049698,0.03119,2017-07-05 19:43:15,72.67218650689965
-0.90021986,0.50757074,9.32781,-0.0036651916,0.0036651916,0.002443461,1.0,-0.9331,0.56369996,9.7458,-0.0104,-0.0189,0.0132,0.027348,0.048493,0.029895,2017-07-05 19:43:16,74.2720662761015
-0.90979666,0.5554548,9.337387,-0.004886922,-0.0012217305,0.007330383,1.0,-0.9668,0.56909996,9.7422,0.0315,-0.0142,0.0656,0.027409,0.050315,0.033132,2017-07-05 19:43:17,59.86216364541865
-0.91937345,0.5267244,9.232041,-0.009773844,0.002443461,0.007330383,1.0,-0.9698,0.559,9.742499,0.0436,-0.0056,0.13499999,0.026662,0.051086,0.038291,2017-07-05 19:43:18,74.09667210176964
-0.90021986,0.51714754,9.3182335,-0.0012217305,-0.0061086523,0.010995574,1.0,-0.9364,0.56049997,9.7457,0.0167,-0.034399997,0.0039,0.026625,0.049164,0.039924,2017-07-05 19:43:19,70.27121701273012
-0.8714894,0.5267244,9.3182335,-0.0061086523,0.002443461,0.0061086523,1.0,-0.9442,0.559,9.745,0.0196,-0.0145,0.0139,0.026668,0.049284,0.03854,2017-07-05 19:43:20,59.14694873035005
-0.92895025,0.5267244,9.184157,-0.004886922,-0.0012217305,0.0036651916,1.0,-0.93689996,0.5524,9.746099,-0.003,0.0106999995,-0.0072,0.02644,0.048552,0.037546,2017-07-05 19:43:21,67.53590320889859
-0.90021986,0.49799395,9.212888,-0.0036651916,0.0036651916,0.0061086523,1.0,-0.9468,0.55579996,9.7449,0.0123,-0.0015,-0.0349,0.026593,0.049357,0.036583,2017-07-05 19:43:22,68.41098756467545
-0.90021986,0.5363012,9.32781,-0.009773844,0.004886922,0.0036651916,1.0,-0.96529996,0.5568,9.7431,0.0202,-0.0221,0.0256,0.026462,0.050383,0.039499,2017-07-05 19:43:23,58.588618834781954
-0.91937345,0.50757074,9.279925,-0.004886922,0.0,0.0061086523,1.0,-0.94479996,0.5584,9.745,0.0021,-0.0352,-0.0150999995,0.026646,0.049436,0.040061,2017-07-05 19:43:24,69.04046775285093
-0.91937345,0.5363012,9.337387,-0.007330383,-0.0012217305,0.0012217305,1.0,-0.94049996,0.5593,9.745399,0.0063,-0.0049,-0.0058999998,0.026804,0.049034,0.036218,2017-07-05 19:43:25,68.8278952800985
-0.8810662,0.5267244,9.32781,-0.0061086523,-0.007330383,0.0036651916,1.0,-0.9514,0.55619997,9.7445,0.0069,0.0077,-0.0541,0.026589,0.049606,0.036964,2017-07-05 19:43:26,59.96362903142173
-0.89064306,0.51714754,9.337387,-0.002443461,0.0036651916,0.008552114,1.0,-0.9231,0.5561,9.7472,0.0332,-0.0095,-0.0368,0.026609,0.048331,0.034969,2017-07-05 19:43:27,72.23694390242326
-0.89064306,0.5267244,9.308656,-0.0012217305,0.0012217305,0.007330383,1.0,-0.9201,0.56299996,9.7471,-0.0047999998,-0.037,0.037699997,0.02716,0.047922,0.033503,2017-07-05 19:43:28,56.39279136689101
-0.90979666,0.5267244,9.308656,-0.007330383,-0.008552114,0.007330383,2.0,-0.96279997,0.5707,9.742499,0.0276,-0.0069999998,0.0212,0.027291,0.050359,0.039175,2017-07-05 19:43:29,56.92218924240449
-0.93852705,0.5363012,9.299079,-0.009773844,-0.007330383,0.0036651916,2.0,-0.9493,0.5577,9.744599,-0.0234,-0.0037,-0.0252,0.026492,0.049588,0.040185,2017-07-05 19:43:30,67.5736861427495
-0.90979666,0.5267244,9.184157,-0.009773844,-0.002443461,0.0036651916,2.0,-0.9417,0.5618,9.7451,0.018199999,-0.0079,-0.064899996,0.026841,0.049146,0.037998,2017-07-05 19:43:31,73.77957940103717
-0.90021986,0.5267244,9.222465,-0.004886922,0.0061086523,0.007330383,1.0,-0.94409996,0.5586,9.745,-0.0014,-0.0144,-0.0749,0.026823,0.049049,0.034851998,2017-07-05 19:43:32,69.0875006965256
-0.90021986,0.545878,9.337387,-0.0012217305,-0.008552114,0.0061086523,1.0,-0.94909996,0.56259996,9.7443,0.0195,0.0,0.014599999,0.027217,0.049582,0.032075,2017-07-05 19:43:33,63.90900646024821
-0.91937345,0.49799395,9.155427,-0.0036651916,0.0,0.009773844,1.0,-0.9677,0.561,9.7425995,0.0137,-0.0071,0.064899996,0.026712,0.050496,0.038783,2017-07-05 19:43:34,57.4285475607627
-0.91937345,0.545878,9.32781,-0.0061086523,-0.008552114,0.008552114,1.0,-0.944,0.5596,9.745,-0.0276,-0.0034999999,-0.1041,0.026633,0.049286,0.037344,2017-07-05 19:43:35,68.06236083835678
-0.89064306,0.545878,9.471462,-0.007330383,0.004886922,0.004886922,1.0,-0.9583,0.5607,9.7435,0.043899998,0.0029,0.113,0.026797,0.049969,0.037123,2017-07-05 19:43:36,71.53482286990315
-0.93852705,0.51714754,9.241618,-0.0036651916,-0.0012217305,0.0061086523,2.0,-0.97529995,0.5549,9.7422,0.0209,-0.011,-0.0033,0.026232,0.05095,0.041743,2017-07-05 19:43:37,64.9227343422025
-0.89064306,0.5554548,9.385271,-0.0036651916,0.0,0.004886922,2.0,-0.93179995,0.5628,9.745999,-0.0314,-0.017099999,0.0614,0.02683,0.048583,0.038007,2017-07-05 19:43:38,69.74913877141243
-0.92895025,0.5363012,9.3661175,-0.0036651916,-0.004886922,0.007330383,2.0,-0.9377,0.5593,9.7456,-0.0149,-0.0055,0.13059999,0.026718,0.048937,0.038046,2017-07-05 19:43:39,69.26546682225921
-0.89064306,0.5363012,9.308656,-0.007330383,-0.002443461,0.0036651916,2.0,-0.94119996,0.55039996,9.7458,0.0276,-0.0067999996,-0.0165,0.026309,0.049075,0.036998,2017-07-05 19:43:40,63.7833039522088
-0.90021986,0.51714754,9.097966,-0.004886922,0.002443461,0.0061086523,2.0,-0.9604,0.5561,9.7436,0.025899999,0.0069999998,0.1423,0.026401,0.050137,0.040539,2017-07-05 19:43:41,61.40775782132775
-0.90021986,0.5267244,9.289502,-0.007330383,-0.002443461,0.004886922,1.0,-0.9403,0.5638,9.7451,-0.0144,8.0E-4,-0.104399994,0.026755,0.049051,0.040929,2017-07-05 19:43:42,69.43862216872573
-0.91937345,0.545878,9.375694,-0.008552114,-0.010995574,0.007330383,1.0,-0.9596,0.5537,9.7438,0.0256,0.0095,-0.0539,0.026171,0.050166998,0.042463,2017-07-05 19:43:43,74.35080097853117
-0.91937345,0.5363012,9.289502,-0.008552114,0.0012217305,0.004886922,1.0,-0.9252,0.5555,9.747,-0.0197,-0.03,-0.037699997,0.026457,0.048161,0.038642,2017-07-05 19:43:44,68.71966551560048
-0.89064306,0.545878,9.3182335,-0.010995574,-0.0036651916,0.0012217305,1.0,-0.9212,0.5676,9.746699,0.018199999,-0.042799998,0.011899999,0.027078,0.048163,0.040004,2017-07-05 19:43:45,57.41254253815753
-0.90979666,0.48841715,9.32781,-0.008552114,-0.002443461,0.007330383,1.0,-0.9414,0.5574,9.745399,-0.0212,-0.013499999,0.0524,0.026596,0.049135,0.038408,2017-07-05 19:43:46,63.05541706468613
-0.89064306,0.5363012,9.3182335,-0.007330383,-0.002443461,0.008552114,1.0,-0.94299996,0.5609,9.745,0.0257,-0.0064999997,-0.0064,0.026694,0.049058,0.039551,2017-07-05 19:43:47,65.05035933690338
-0.90979666,0.5363012,9.423578,-0.009773844,-0.0036651916,0.0061086523,1.0,-0.95879996,0.5566,9.7437,0.0346,-0.0323,-0.063599996,0.026395,0.05009,0.040963,2017-07-05 19:43:48,63.471451629415725
-0.8810662,0.5363012,9.308656,-0.0061086523,0.008552114,0.010995574,2.0,-0.92859995,0.5542,9.746799,-0.0138,-0.0104,-0.0077,0.026428,0.048488,0.038986,2017-07-05 19:43:49,65.64656997927325
-0.90021986,0.545878,9.279925,-0.008552114,-0.004886922,0.008552114,2.0,-0.9368,0.5559,9.7459,0.0074,0.0075999997,-0.0457,0.026534,0.04908,0.037981,2017-07-05 19:43:50,64.18717576733735
-0.90979666,0.5650316,9.308656,-0.007330383,-0.0061086523,0.004886922,1.0,-0.9709,0.5588,9.7424,0.055999998,-0.0148,0.015999999,0.026518,0.050698,0.040268,2017-07-05 19:43:51,67.80374042540299
-0.92895025,0.51714754,9.5385,-0.007330383,-0.0036651916,0.007330383,1.0,-0.9414,0.55289996,9.7456,-0.0084999995,0.008599999,-0.1739,0.026274,0.049275998,0.042002,2017-07-05 19:43:52,65.91610509850476
-0.90979666,0.5267244,9.289502,-0.008552114,0.0061086523,0.004886922,1.0,-0.9357,0.5457,9.7466,-0.0064999997,-0.0042999997,-0.067099996,0.025968,0.048724,0.039673,2017-07-05 19:43:53,68.90710913851842
-0.8810662,0.5363012,9.308656,-0.0061086523,0.0012217305,0.002443461,1.0,-0.93759996,0.5588,9.7457,0.0074,-0.0166,0.0025,0.026561,0.049004998,0.040755,2017-07-05 19:43:54,56.92868443519153
-0.90979666,0.51714754,9.346964,-0.0061086523,0.004886922,0.0061086523,1.0,-0.9464,0.5595,9.7448,-0.0066,-0.0058,-0.1662,0.026566999,0.049572,0.042009,2017-07-05 19:43:55,63.582476019847064
-0.8714894,0.49799395,9.337387,-0.0061086523,-0.0036651916,0.010995574,1.0,-0.96599996,0.5603,9.7428,0.064899996,-0.045199998,0.031999998,0.026397,0.050848998,0.044549,2017-07-05 19:43:56,68.67891227636119
-0.89064306,0.5363012,9.3182335,-0.0012217305,0.007330383,0.004886922,1.0,-0.91999996,0.5482,9.7479,-0.0431,0.0157,0.0462,0.026109999,0.048053,0.039608,2017-07-05 19:43:57,57.9439465764132
-0.89064306,0.545878,9.346964,-0.0061086523,0.0,0.004886922,1.0,-0.9242,0.5485,9.747499,-0.0082,0.0154,-0.0117999995,0.026083,0.048174,0.038639,2017-07-05 19:43:58,56.67924188300376
-0.90979666,0.545878,9.299079,-0.010995574,0.0061086523,0.0036651916,1.0,-0.9281,0.5478,9.7472,-0.0071,-0.0026999998,0.039,0.026375,0.048303,0.033354,2017-07-05 19:43:59,56.95837119180641
-0.90021986,0.5363012,9.251195,-0.007330383,-0.0012217305,0.0061086523,1.0,-0.9507,0.5603,9.7443,0.0144,0.0049,-0.036599997,0.026743,0.049606,0.038037,2017-07-05 19:44:00,67.69897404979447
-0.90979666,0.545878,9.414001,-0.0061086523,0.0,0.0061086523,1.0,-0.94079995,0.5571,9.745399,0.0056999996,-0.0224,0.0016,0.026667,0.049125,0.037671,2017-07-05 19:44:01,72.90971623274754
-0.93852705,0.5363012,9.3182335,-0.0061086523,0.0012217305,0.0061086523,1.0,-0.9754,0.5615,9.741799,0.047799997,0.0037,0.053999998,0.026648,0.050933,0.040216,2017-07-05 19:44:02,67.9100955738252
-0.90021986,0.5363012,9.155427,-0.009773844,0.002443461,0.008552114,1.0,-0.9438,0.5567,9.7452,-0.021599999,-0.011299999,0.0115,0.026763,0.049143,0.034228,2017-07-05 19:44:03,67.16599296045482
-0.90021986,0.50757074,9.32781,-0.004886922,0.004886922,0.009773844,1.0,-0.9496,0.5559,9.7446995,0.0037,-0.0022,-0.0074,0.02661,0.049552,0.037938,2017-07-05 19:44:04,75.26737778515685
-0.90021986,0.5363012,9.394848,-0.007330383,-0.0061086523,0.0061086523,1.0,-0.9575,0.55509996,9.743899,0.0033,-0.0191,0.011899999,0.026571,0.049469,0.035745,2017-07-05 19:44:05,73.90977481656654
-0.89064306,0.51714754,9.3182335,-0.0036651916,-0.0061086523,0.010995574,1.0,-0.94269997,0.5582,9.7452,0.0361,-0.0028,0.0213,0.0268,0.049111,0.035019,2017-07-05 19:44:06,72.58659852799187
-0.90021986,0.5363012,9.299079,-0.002443461,-0.0012217305,0.0036651916,1.0,-0.9352,0.5635,9.7456,0.024699999,0.0029,0.021399999,0.026937,0.049074,0.036629,2017-07-05 19:44:07,58.67890227491051
-0.8810662,0.5554548,9.3661175,-0.002443461,0.0,0.004886922,1.0,-0.9507,0.5603,9.7443,-0.0032,-0.006,-0.0067,0.026693,0.049637,0.039119,2017-07-05 19:44:08,67.42235052762894
-0.90021986,0.5267244,9.32781,-0.0036651916,-0.002443461,0.0061086523,1.0,-0.9576,0.5593,9.7437,0.022799999,-0.0246,-0.0846,0.026532,0.050037,0.041037,2017-07-05 19:44:09,72.65654331035472
-0.90979666,0.51714754,9.279925,-0.008552114,0.002443461,0.008552114,1.0,-0.95129997,0.56799996,9.7438,-0.0064,-0.0149,-0.0654,0.02715,0.049499,0.039629,2017-07-05 19:44:10,69.53801448676975
-0.91937345,0.545878,9.337387,-0.0061086523,0.0,0.004886922,1.0,-0.9499,0.5614,9.7443,-0.0039999997,-0.0266,-0.0852,0.026814,0.049562,0.03776,2017-07-05 19:44:11,75.08972409213227
-0.89064306,0.51714754,9.308656,-0.0036651916,-0.004886922,0.004886922,1.0,-0.9407,0.5593,9.745299,-0.003,-0.0148,0.021599999,0.026668,0.049117,0.038911,2017-07-05 19:44:13,71.96633152568828
-0.90021986,0.545878,9.222465,-0.009773844,-0.0036651916,0.0061086523,1.0,-0.9359,0.55399996,9.746099,-9.999999E-4,0.0088,-0.096999995,0.026457,0.048698,0.039102,2017-07-05 19:44:14,68.46209237331212
-0.90979666,0.5363012,9.32781,-0.0061086523,0.0,0.004886922,1.0,-0.92109996,0.5595,9.7472,-0.0218,-0.015,0.0198,0.026930999,0.047995,0.034481,2017-07-05 19:44:15,73.12718107523202
-0.89064306,0.51714754,9.32781,-0.008552114,0.002443461,0.0036651916,1.0,-0.9406,0.5618,9.7452,-0.0030999999,-0.0074,-0.0861,0.027021,0.049048,0.037776,2017-07-05 19:44:16,72.13587198510389
-0.90021986,0.5363012,9.337387,-0.0036651916,0.0012217305,0.004886922,1.0,-0.9583,0.5593,9.7436,0.0299,-0.005,0.023899999,0.026402,0.050476998,0.043291,2017-07-05 19:44:17,71.27110876925795
-0.90979666,0.545878,9.356541,-0.009773844,0.002443461,0.0061086523,1.0,-0.9464,0.5599,9.7446995,0.0219,-0.0056,-0.0268,0.026724,0.04939,0.038196,2017-07-05 19:44:18,71.47790849189488
-0.91937345,0.5267244,9.3182335,-0.008552114,0.0,0.004886922,1.0,-0.9467,0.561,9.7446995,0.012399999,-0.0165,0.0222,0.026683,0.049283,0.038693,2017-07-05 19:44:19,64.07249663293031
-0.8810662,0.5267244,9.3182335,-0.004886922,0.0012217305,0.0036651916,1.0,-0.9471,0.5653,9.7444,0.031799998,-0.0219,0.0029,0.027077,0.049405,0.038088,2017-07-05 19:44:20,60.41733724697255
-0.90979666,0.51714754,9.3182335,-0.010995574,0.0,0.0061086523,1.0,-0.9396,0.5591,9.7455,0.0166,-0.0349,-0.0195,0.026727,0.049025,0.037616,2017-07-05 19:44:21,58.35915540958149
-0.90979666,0.51714754,9.32781,-0.002443461,-0.0036651916,0.0036651916,1.0,-0.9474,0.55579996,9.7449,0.0036,-0.0030999999,-0.0092,0.026388,0.049482,0.041629,2017-07-05 19:44:22,61.241432321080104
-0.89064306,0.5650316,9.3182335,-0.007330383,-0.002443461,0.0061086523,1.0,-0.9508,0.5545,9.744599,0.0175,0.008599999,-0.0187,0.026501,0.049573,0.036959,2017-07-05 19:44:23,69.43631939724067
-0.8810662,0.5267244,9.3182335,-0.0061086523,0.004886922,0.0036651916,1.0,-0.945,0.5578,9.745,0.0116,-0.023599999,0.0033,0.026837999,0.049193,0.033725,2017-07-05 19:44:24,56.947643466487904
-0.90021986,0.5363012,9.299079,-0.002443461,0.002443461,0.004886922,1.0,-0.9474,0.56079996,9.744599,0.0058,-0.0263,0.0039,0.026936,0.049432,0.034481,2017-07-05 19:44:25,65.17889189120407
-0.90979666,0.5267244,9.346964,-0.008552114,-0.0036651916,0.004886922,1.0,-0.941,0.55579996,9.7455,-0.0018999999,-0.012,-0.0755,0.026798,0.048956,0.032638,2017-07-05 19:44:26,68.54667935030463
-0.90979666,0.5363012,9.308656,-0.009773844,0.0,0.0036651916,1.0,-0.95369995,0.557,9.7442,0.049399998,-0.0033,-0.0056,0.026684,0.049691,0.03572,2017-07-05 19:44:27,61.17173131108693
-0.91937345,0.5554548,9.337387,-0.007330383,0.004886922,0.004886922,1.0,-0.9615,0.55579996,9.7435,0.0099,-7.0E-4,0.0235,0.02649,0.049701,0.036877,2017-07-05 19:44:28,61.357198900052566
-0.90021986,0.51714754,9.289502,-0.0061086523,-0.002443461,0.007330383,1.0,-0.9324,0.5538,9.7464,0.0326,0.0,-0.026999999,0.026354,0.048884,0.039403,2017-07-05 19:44:29,69.39643664533807
-0.89064306,0.5363012,9.337387,-0.004886922,0.0036651916,0.0036651916,1.0,-0.9058,0.55759996,9.7487,-0.0603,-8.0E-4,0.0446,0.026831,0.047227,0.035129,2017-07-05 19:44:30,57.079785175957
-0.8714894,0.50757074,9.337387,-0.0036651916,0.0012217305,0.004886922,1.0,-0.92929995,0.55939996,9.7464,-0.007999999,-0.0056999996,0.0221,0.026899999,0.048623,0.034099,2017-07-05 19:44:31,58.00129804036502
-0.8810662,0.5363012,9.289502,-0.0012217305,-0.0036651916,0.0061086523,1.0,-0.93439996,0.56479996,9.7456,0.0023999999,0.0572,0.0911,0.02713,0.048711,0.035462,2017-07-05 19:44:32,65.40822084539676
-0.89064306,0.49799395,9.337387,-0.0012217305,-0.008552114,0.008552114,1.0,-0.9478,0.55469996,9.7449,0.0839,0.0276,-0.045399997,0.026717,0.04931,0.032953,2017-07-05 19:44:33,64.91332021138652
-0.91937345,0.51714754,9.212888,-0.002443461,-0.0012217305,0.004886922,1.0,-0.94149995,0.56079996,9.7452,-4.9999997E-4,-0.0175,-0.0947,0.026945,0.049056,0.035093,2017-07-05 19:44:34,61.65164460027073
-0.90979666,0.46926352,9.155427,-0.0061086523,0.0012217305,0.0061086523,1.0,-0.94269997,0.5592,9.7452,-0.13669999,-0.1531,0.0033,0.026819,0.049128998,0.035685,2017-07-05 19:44:35,67.43092181511597
-0.90979666,0.38307226,9.212888,-0.0036651916,0.0036651916,0.008552114,1.0,-0.9597,0.5444,9.7443,0.1542,-0.1389,0.111999996,0.025867,0.050059,0.038958,2017-07-05 19:44:36,69.82018315479931
-0.8619126,0.5267244,9.385271,-0.0061086523,0.0012217305,0.008552114,1.0,-0.9202,0.55579996,9.747499,0.027099999,-0.012499999,0.049999997,0.026732,0.047898,0.034776,2017-07-05 19:44:37,72.37367348066113
-0.91937345,0.5267244,9.3182335,-0.0061086523,-0.0061086523,0.0061086523,1.0,-0.9535,0.55259997,9.7445,0.0207,0.0198,-0.0056999996,0.026349999,0.049732998,0.037978,2017-07-05 19:44:38,69.84058305183005
-0.91937345,0.51714754,9.3661175,-0.0061086523,-0.0036651916,0.0061086523,1.0,-0.9432,0.5513,9.7456,0.0206,-0.018,-0.1048,0.026438,0.049136,0.037183,2017-07-05 19:44:39,70.87097551591486
-0.90021986,0.545878,9.299079,-0.009773844,-0.002443461,0.004886922,1.0,-0.9447,0.55039996,9.7455,0.0061,0.0139999995,-0.021,0.026171,0.049049,0.038778,2017-07-05 19:44:40,66.89672803587248
-0.90021986,0.5554548,9.346964,-0.0061086523,-0.0012217305,0.0061086523,1.0,-0.9819,0.5689,9.7407,0.0464,-0.0241,-0.045399997,0.026769,0.051409,0.044939,2017-07-05 19:44:41,66.50797031533807
-0.92895025,0.5267244,9.289502,-0.002443461,-0.0012217305,0.008552114,1.0,-0.9255,0.55469996,9.7471,-0.0173,-8.0E-4,-0.1103,0.026485,0.048637,0.038667,2017-07-05 19:44:42,71.15890235758951
-0.90979666,0.545878,9.3182335,-0.008552114,-0.004886922,0.008552114,1.0,-0.922,0.55509996,9.747399,-0.0116,-0.0116,0.0168,0.026715,0.048005998,0.034981,2017-07-05 19:44:43,67.89477192572362
-0.90021986,0.545878,9.32781,-0.0012217305,0.0036651916,0.0061086523,1.0,-0.94339997,0.5582,9.7451,4.9999997E-4,-0.0144,-0.0383,0.026785,0.049155,0.035349,2017-07-05 19:44:44,57.625136186422985
-0.90021986,0.5267244,9.3182335,-0.0061086523,0.0061086523,0.004886922,1.0,-0.9421,0.55799997,9.745299,0.009099999,-0.0142,-0.009,0.026813,0.048953,0.034373,2017-07-05 19:44:45,69.5067618807318
-0.91937345,0.5267244,9.222465,-0.009773844,-0.008552114,0.007330383,1.0,-0.9626,0.5553,9.7434,0.0189,-0.0018,0.0613,0.026413,0.050232,0.039054,2017-07-05 19:44:46,70.33511144500193
-0.90021986,0.545878,9.337387,-0.0061086523,-0.008552114,0.0061086523,1.0,-0.9335,0.55869997,9.746099,0.0106999995,-0.0149,-0.049,0.026655,0.048745,0.038851,2017-07-05 19:44:47,67.72390871735537
-0.89064306,0.50757074,9.308656,-0.007330383,-0.004886922,0.007330383,1.0,-0.92899996,0.5509,9.7469,-0.0145,0.0212,-0.0106999995,0.026369,0.048393,0.037518,2017-07-05 19:44:48,68.85404159977203
-0.91937345,0.5363012,9.385271,-0.0012217305,-0.0012217305,0.008552114,1.0,-0.95809996,0.5516,9.7441,0.014599999,-0.007999999,0.0411,0.026164,0.050032,0.040434,2017-07-05 19:44:49,60.14275691494614
-0.90979666,0.50757074,9.260772,-0.0036651916,0.0012217305,0.007330383,1.0,-0.95299995,0.55189997,9.744599,-0.0196,0.0111,0.0014,0.026140999,0.049797,0.041464,2017-07-05 19:44:50,69.07005816222878
-0.91937345,0.5267244,9.32781,-0.0061086523,-0.0036651916,0.0061086523,1.0,-0.941,0.5521,9.7457,0.0325,8.0E-4,-0.038399998,0.026353,0.049356,0.038063,2017-07-05 19:44:51,74.67050994093628
-0.90021986,0.5267244,9.308656,-0.007330383,0.002443461,0.004886922,1.0,-0.9281,0.55289996,9.7469,-0.0101,-0.029199999,-0.0405,0.026585,0.048039,0.034871,2017-07-05 19:44:52,70.2884242104937
-0.91937345,0.51714754,9.32781,-0.004886922,0.0,0.007330383,1.0,-0.9384,0.5571,9.7457,-0.0139,-0.0232,-0.0682,0.026762,0.048886,0.034833,2017-07-05 19:44:53,64.44613988304602
-0.91937345,0.5267244,9.442732,-0.007330383,-0.004886922,0.0061086523,1.0,-0.955,0.562,9.7438,0.016999999,0.010799999,-0.17469999,0.027007,0.049512,0.035059,2017-07-05 19:44:54,67.4585320083548
-0.90979666,0.51714754,9.375694,-0.002443461,-0.007330383,0.0036651916,1.0,-0.9429,0.5634,9.7449,-0.0195,-0.039,-0.028299998,0.026916,0.049215,0.038081,2017-07-05 19:44:55,71.46914963670886
-0.8810662,0.5363012,9.251195,-0.0036651916,-0.008552114,0.009773844,1.0,-0.9361,0.5527,9.7462,0.0033,-0.0092,0.1175,0.026468,0.048799,0.036346,2017-07-05 19:44:56,76.16677141641581
-0.8714894,0.5554548,9.289502,-0.009773844,0.0036651916,0.002443461,1.0,-0.9501,0.5638,9.7442,0.019299999,-0.009699999,-0.0087,0.027135,0.049081,0.033763,2017-07-05 19:44:57,74.82763036237426
-0.90021986,0.5363012,9.346964,-0.004886922,-0.0036651916,0.004886922,1.0,-0.93009996,0.55579996,9.7466,-0.0023,0.0074,-0.02,0.026704,0.048459,0.03493,2017-07-05 19:44:58,56.94894137563246
-0.90979666,0.49799395,9.299079,-0.002443461,-0.0036651916,0.004886922,1.0,-0.93659997,0.5542,9.745999,-0.014699999,-0.021,-0.0695,0.026721999,0.04873,0.03271,2017-07-05 19:44:59,71.08417397765297
-0.90021986,0.51714754,9.356541,-0.009773844,-0.0012217305,0.004886922,1.0,-0.96879995,0.56009996,9.742499,0.0382,-0.0279,0.0223,0.026763,0.050667,0.038079,2017-07-05 19:45:00,76.36541266787498
-0.90979666,0.5267244,9.212888,-0.007330383,0.0,0.004886922,1.0,-0.9424,0.54859996,9.7458,5.9999997E-4,-0.0058,-0.0105,0.026316,0.049074,0.034881,2017-07-05 19:45:01,70.20469823602122
-0.90979666,0.5363012,9.222465,-0.012217305,-0.0012217305,0.0,1.0,-0.9443,0.55039996,9.7455,-0.0064999997,0.021399999,-2.9999999E-4,0.026267,0.049304,0.038107,2017-07-05 19:45:02,69.40811678609558
-0.90021986,0.5267244,9.308656,-0.0036651916,-0.009773844,0.007330383,1.0,-0.93359995,0.5484,9.7466,0.0028,-0.0052,-0.0309,0.026292,0.048671998,0.035055,2017-07-05 19:45:03,69.96961247122434
-0.92895025,0.51714754,9.299079,-0.007330383,-0.008552114,0.008552114,1.0,-0.9711,0.5462,9.7431,0.0379,-0.0034999999,-0.0079,0.025994,0.050614,0.037828,2017-07-05 19:45:04,70.92367126154598
-0.8810662,0.50757074,9.3182335,-0.0036651916,0.0012217305,0.007330383,1.0,-0.95989996,0.5511,9.743899,-0.0088,-0.0179,0.0013,0.026140999,0.05028,0.040055,2017-07-05 19:45:05,67.7466294043733
-0.89064306,0.51714754,9.337387,-0.004886922,0.002443461,0.009773844,1.0,-0.94699997,0.55579996,9.7449,0.024699999,-0.0224,0.0,0.026406,0.049469,0.040238,2017-07-05 19:45:06,63.264159848381766
-0.92895025,0.5363012,9.222465,-0.0061086523,0.0012217305,0.0061086523,1.0,-0.93789995,0.5513,9.746099,0.0061,-0.018199999,-0.049999997,0.026309,0.04893,0.037985,2017-07-05 19:45:07,70.21649283582748
-0.91937345,0.51714754,9.3182335,-0.002443461,0.0012217305,0.0061086523,1.0,-0.9428,0.553,9.7455,0.0207,-0.01,-0.02,0.026403,0.048952,0.037884,2017-07-05 19:45:08,64.81647272236182
-0.92895025,0.51714754,9.308656,-0.008552114,-0.007330383,0.004886922,1.0,-0.94339997,0.551,9.7455,0.0013,0.0115,0.0412,0.026435,0.049133,0.035001,2017-07-05 19:45:09,60.73175386347114
-0.90021986,0.5554548,9.346964,-0.002443461,-0.0036651916,0.008552114,1.0,-0.94369996,0.552,9.7455,0.0311,-0.0089,-0.0174,0.026305,0.04925,0.038627,2017-07-05 19:45:10,68.27724306722624
-0.89064306,0.5363012,9.3182335,-0.0061086523,-0.008552114,0.0061086523,1.0,-0.9234,0.55289996,9.747399,-0.030299999,0.0314,-0.0185,0.026579,0.048036,0.033737,2017-07-05 19:45:11,57.10031958165001
-0.90021986,0.5554548,9.308656,-0.007330383,0.004886922,0.007330383,1.0,-0.9343,0.5517,9.7464,0.0175,-0.0157,0.0295,0.02655,0.048635,0.033649,2017-07-05 19:45:12,56.77263059061207
-0.90021986,0.51714754,9.289502,-0.008552114,-0.007330383,0.007330383,1.0,-0.9305,0.5462,9.7471,0.0186,-0.0231,-9.999999E-4,0.026278,0.04843,0.033633,2017-07-05 19:45:13,57.001565939040375
-0.91937345,0.5267244,9.337387,-0.008552114,0.004886922,0.002443461,1.0,-0.9384,0.5507,9.745999,0.0015,-0.0063,0.0197,0.026537,0.048777,0.033622,2017-07-05 19:45:14,57.11753490998003
-0.90021986,0.5363012,9.299079,-0.008552114,-0.0012217305,0.004886922,1.0,-0.9367,0.5559,9.7459,-0.0123,0.0078,-0.038,0.026835,0.048572,0.033636,2017-07-05 19:45:15,69.69282850333653
-0.92895025,0.5363012,9.32781,-0.008552114,-0.0012217305,0.009773844,1.0,-0.96849996,0.5513,9.7431,0.0411,-0.006,0.0041,0.026208,0.050519,0.038846,2017-07-05 19:45:16,74.23707575359148
-0.90021986,0.51714754,9.241618,-0.004886922,0.009773844,0.0036651916,1.0,-0.94369996,0.5546,9.745299,-0.0028,-0.0075,0.1391,0.026486,0.049133,0.035797,2017-07-05 19:45:17,71.03008975349191
-0.90979666,0.545878,9.337387,-0.007330383,-0.0012217305,0.0061086523,1.0,-0.9515,0.55979997,9.7443,-0.0142,-0.0044,0.051999997,0.026932,0.049532,0.033747,2017-07-05 19:45:18,71.36141061235796
-0.90979666,0.5267244,9.385271,-0.0036651916,0.0012217305,0.0061086523,1.0,-0.94549996,0.55689996,9.745,-2.9999999E-4,-0.011399999,0.0121,0.026696,0.049271,0.035678,2017-07-05 19:45:19,68.21109274397716
-0.90979666,0.5363012,9.3661175,-0.0012217305,0.002443461,0.004886922,1.0,-0.92469996,0.5582,9.7469,-0.012499999,-0.0013,0.0492,0.026818,0.048036,0.033655,2017-07-05 19:45:20,67.95854197878212
-0.90979666,0.50757074,9.337387,-0.007330383,-0.002443461,0.007330383,1.0,-0.96809995,0.56119996,9.742499,0.0506,0.0138,0.0046,0.026694,0.050536,0.039343,2017-07-05 19:45:21,71.6371666169382
-0.92895025,0.5267244,9.375694,-0.0036651916,-0.002443461,0.0061086523,1.0,-0.9436,0.5629,9.7448,-0.0022,-0.0072999997,0.1299,0.026978,0.0492,0.036311,2017-07-05 19:45:22,58.323779310163104
-0.89064306,0.5267244,9.3182335,-0.0061086523,-0.0036651916,0.0036651916,1.0,-0.9536,0.5571,9.7442,0.0273,-0.0106999995,0.022599999,0.026478,0.049794998,0.038988,2017-07-05 19:45:23,63.0983611441242
-0.90979666,0.545878,9.241618,-0.0061086523,-0.0036651916,0.004886922,1.0,-0.95669997,0.56009996,9.7437,0.024799999,-0.017199999,-0.074099995,0.026692,0.04993,0.038677,2017-07-05 19:45:24,66.07332767023864
-0.89064306,0.50757074,9.193734,-0.002443461,-0.002443461,0.0061086523,1.0,-0.94269997,0.5566,9.745299,0.0015,-0.0039999997,-0.095199995,0.026688,0.049162,0.036179,2017-07-05 19:45:25,72.19762456854616
-0.90021986,0.545878,9.32781,-0.0061086523,-0.004886922,0.008552114,1.0,-0.9177,0.56409997,9.7473,-0.0021,-0.0013,-0.0177,0.027208,0.048347,0.033134,2017-07-05 19:45:26,73.40182908288165
-0.90021986,0.5267244,9.32781,-0.009773844,0.004886922,0.0036651916,1.0,-0.9589,0.5636,9.7432995,0.0367,-0.0106999995,-0.0541,0.027116999,0.049914,0.033606,2017-07-05 19:45:27,69.98579488589947
-0.8810662,0.5267244,9.3182335,-0.008552114,0.0,0.008552114,1.0,-0.9492,0.56369996,9.7442,0.037299998,-0.0109,-0.0157,0.027281,0.049588,0.035143,2017-07-05 19:45:28,73.38906046901391
-0.8810662,0.5363012,9.32781,-0.004886922,-0.0036651916,0.0061086523,1.0,-0.936,0.5664,9.745399,0.019399999,-0.0106999995,0.029399998,0.027126,0.048805,0.037106,2017-07-05 19:45:29,69.42322059170192
-0.90979666,0.5363012,9.126697,-0.007330383,0.0,0.0061086523,1.0,-0.97999996,0.5711,9.7408,0.0424,-0.0053999997,-0.1033,0.027214,0.05114,0.038575,2017-07-05 19:45:30,67.101545321289
-0.90979666,0.5363012,9.32781,-0.010995574,-0.007330383,0.0036651916,1.0,-0.94079995,0.5628,9.7451,0.005,0.0023999999,-0.0094,0.02717,0.048689,0.032182,2017-07-05 19:45:31,72.20839754610655
-0.90021986,0.5267244,9.32781,-0.004886922,-0.0036651916,0.008552114,1.0,-0.95519996,0.5581,9.7439995,0.0286,-0.0224,-0.018099999,0.026764,0.049755,0.03518,2017-07-05 19:45:32,56.780679548145855
-0.90979666,0.545878,9.32781,-0.0036651916,-0.0012217305,0.0061086523,1.0,-0.9571,0.5581,9.7438,0.0277,-0.0013,0.0191,0.026687,0.049895,0.036746,2017-07-05 19:45:33,65.59346241178388
-0.91937345,0.5363012,9.279925,-0.008552114,-0.002443461,0.0061086523,1.0,-0.923,0.5571,9.7472,-0.035099998,-0.0013,0.1041,0.026864,0.048031,0.034389,2017-07-05 19:45:34,71.88811001624094
-0.89064306,0.5267244,9.337387,-0.007330383,0.0012217305,0.008552114,1.0,-0.96599996,0.5636,9.7425995,0.0264,-0.0163,0.03,0.026988,0.050343,0.035993,2017-07-05 19:45:35,72.18964554800208
-0.90979666,0.51714754,9.3182335,-0.004886922,-0.004886922,0.007330383,1.0,-0.95199996,0.55649996,9.7444,0.0131,-0.019299999,0.0773,0.026599,0.049636,0.036961,2017-07-05 19:45:36,68.63738648577966
-0.89064306,0.5363012,9.299079,-0.007330383,0.0036651916,0.010995574,1.0,-0.94799995,0.5494,9.7452,0.0206,-0.0022,0.0473,0.02628,0.049463,0.03559,2017-07-05 19:45:37,69.63575445325782
-0.92895025,0.545878,9.241618,-0.0036651916,-0.0036651916,0.007330383,1.0,-0.9479,0.5441,9.7455,0.0218,0.0311,0.007999999,0.025997,0.049555,0.036881,2017-07-05 19:45:38,69.1978587479699
-0.89064306,0.5363012,9.356541,-0.0061086523,0.0,0.004886922,1.0,-0.9382,0.5567,9.7457,0.0,-0.0098,0.0074,0.026631,0.048933,0.037096,2017-07-05 19:45:39,72.74473605287186
-0.94810385,0.5363012,9.212888,-0.0061086523,0.002443461,0.007330383,1.0,-0.9356,0.5527,9.7462,0.019199999,0.0128999995,0.055499997,0.026633,0.04894,0.034678,2017-07-05 19:45:40,57.567227374563984
-0.90021986,0.545878,9.337387,-0.010995574,0.0,0.004886922,1.0,-0.9284,0.5516,9.747,0.018299999,-0.0037999998,0.024899999,0.026597,0.048309,0.032763,2017-07-05 19:45:41,69.67127056034506
-0.91937345,0.545878,9.279925,-0.0061086523,0.002443461,0.0036651916,1.0,-0.95629996,0.5633,9.7436,0.0056,0.0046,0.0968,0.026947,0.049868,0.036799,2017-07-05 19:45:42,63.50804263234306
-0.90979666,0.545878,9.279925,-0.007330383,-0.008552114,0.004886922,1.0,-0.9544,0.5557,9.7442,0.0134,0.0137,0.1255,0.026388,0.049779,0.038275,2017-07-05 19:45:43,68.83934378048747
-0.90021986,0.545878,9.32781,-0.007330383,0.0,0.002443461,1.0,-0.9665,0.5671,9.7424,0.015199999,0.0206,0.0881,0.027062,0.05043,0.038042,2017-07-05 19:45:44,66.26768310311603
-0.90021986,0.5267244,9.308656,-0.007330383,0.0,0.0036651916,1.0,-0.9515,0.56079996,9.7442,0.0106999995,0.0168,0.0471,0.026854,0.049599,0.036289,2017-07-05 19:45:45,58.47360308408205
-0.92895025,0.5267244,9.270349,-0.0036651916,0.0012217305,0.007330383,1.0,-0.9461,0.5642,9.7445,-0.024,-0.0163,0.0174,0.026975,0.049366,0.038137,2017-07-05 19:45:46,58.08920291546268
-0.89064306,0.5554548,9.279925,-0.0036651916,0.002443461,0.0,1.0,-0.93759996,0.56659997,9.7452,-0.0415,-0.0279,0.1344,0.027273,0.048847,0.034283,2017-07-05 19:45:47,64.66242210723904
-0.90979666,0.5554548,9.3182335,-0.010995574,-0.007330383,0.0061086523,1.0,-0.9482,0.5589,9.744599,-0.0021,0.0382,0.0173,0.026891,0.049275,0.033118,2017-07-05 19:45:48,65.68281435648332
-0.93852705,0.49799395,9.270349,-0.004886922,-0.007330383,0.008552114,1.0,-0.94079995,0.5513,9.7458,-0.0284,-0.033099998,0.017199999,0.02622,0.049664,0.039406,2017-07-05 19:45:49,63.60853220630459
-0.89064306,0.51714754,9.32781,-0.007330383,-0.0036651916,0.004886922,1.0,-0.9374,0.5615,9.7455,-0.0123,-0.0231,0.0655,0.026814999,0.04894,0.038368,2017-07-05 19:45:50,67.91440664379566
-0.90021986,0.5363012,9.270349,-0.002443461,-0.004886922,0.008552114,1.0,-0.9287,0.5667,9.746099,-0.0222,0.0016,0.074599996,0.027227,0.048334,0.035401,2017-07-05 19:45:51,73.05652300272457
-0.91937345,0.5267244,9.308656,-0.008552114,-0.002443461,0.004886922,1.0,-0.945,0.5578,9.745,-0.009699999,-0.0143,0.0056,0.026841,0.049263,0.035507,2017-07-05 19:45:52,71.92243029259937
-0.91937345,0.5650316,9.385271,-0.007330383,-0.0036651916,0.004886922,1.0,-0.9489,0.5592,9.7445,-0.025899999,-0.0139,0.0647,0.026801,0.049453,0.035809,2017-07-05 19:45:53,74.52164850139764
-0.92895025,0.5554548,9.3661175,-0.0036651916,-0.004886922,0.0061086523,1.0,-0.932,0.56839997,9.7456,-0.0382,-0.0023,-0.0055,0.027453,0.048174,0.031946,2017-07-05 19:45:54,61.43109406196183
-0.89064306,0.5363012,9.308656,-0.0061086523,-0.008552114,0.007330383,1.0,-0.92579997,0.5604,9.746699,9.999999E-4,-0.0053,0.0332,0.027119,0.04815,0.031337,2017-07-05 19:45:55,70.37114946647549
-0.90979666,0.5363012,9.3661175,-0.0061086523,0.002443461,0.009773844,1.0,-0.91099995,0.5512,9.7486,-0.022799999,0.0132,-0.0175,0.026713,0.04736,0.030521,2017-07-05 19:45:56,71.25321055956451
-0.8810662,0.5267244,9.299079,-0.008552114,-0.0012217305,0.008552114,1.0,-0.95269996,0.5534,9.7445,-0.0019999999,9.0E-4,-0.0037,0.026647,0.049602,0.033215,2017-07-05 19:45:57,71.07116730154333
-0.92895025,0.5267244,9.241618,-0.0061086523,-0.0036651916,0.0061086523,1.0,-0.9525,0.5503,9.7446995,0.0069,0.014099999,0.044999998,0.026343,0.049618,0.035773,2017-07-05 19:45:58,64.05775426497554
-0.89064306,0.5363012,9.394848,-0.008552114,0.0,0.008552114,1.0,-0.9763,0.5557,9.742,0.0198,-0.030199999,0.0279,0.026531,0.050871998,0.036665,2017-07-05 19:45:59,73.1816531883445
-0.93852705,0.5363012,9.289502,-0.004886922,0.0012217305,0.004886922,1.0,-0.9619,0.567,9.7428,0.0492,-0.0206,-0.032199997,0.027163,0.049807,0.035484,2017-07-05 19:46:00,72.02413093641493
-0.90979666,0.5267244,9.346964,-0.004886922,-0.004886922,0.0061086523,1.0,-0.92029995,0.5617,9.7471,-0.0307,0.0139,-0.015899999,0.027083,0.048056,0.032499,2017-07-05 19:46:01,71.11192349747488
-0.89064306,0.545878,9.308656,-0.004886922,-0.002443461,0.008552114,1.0,-0.9504,0.5511,9.7449,0.014699999,0.0132,-0.0335,0.026204,0.049611,0.039506,2017-07-05 19:46:02,70.15148401684579
-0.90979666,0.545878,9.279925,-0.012217305,-0.0012217305,0.0036651916,1.0,-0.95919997,0.542,9.7445,-0.0174,-0.0177,0.0254,0.025808,0.049939,0.038359,2017-07-05 19:46:03,65.57937384875035
-0.91937345,0.5267244,9.289502,-0.004886922,-0.0061086523,0.0061086523,1.0,-0.9629,0.5643,9.7429,0.0365,-0.009,0.0075,0.026904,0.050251,0.038452,2017-07-05 19:46:04,71.27542309784755
-0.9672575,0.5267244,9.174581,-0.007330383,0.0,0.008552114,1.0,-0.92219996,0.5531,9.747499,0.0368,-0.018,-0.0654,0.026593,0.048046,0.034664,2017-07-05 19:46:05,71.23017331382164
-0.92895025,0.51714754,9.3182335,-0.004886922,0.0,0.007330383,1.0,-0.9475,0.5555,9.7449,0.0231,-0.0011999999,0.0056999996,0.026409,0.049573,0.040494,2017-07-05 19:46:07,73.35843437737522
-0.92895025,0.50757074,9.289502,-0.002443461,0.002443461,0.008552114,1.0,-0.9314,0.56409997,9.745999,-0.023,-0.0089,0.0242,0.027125,0.048543,0.034965,2017-07-05 19:46:08,65.60409879211741
-0.90979666,0.50757074,9.308656,-0.0061086523,0.002443461,0.007330383,1.0,-0.93439996,0.5602,9.7459,-0.039699998,0.033999998,-0.044299997,0.026831,0.048741,0.036769,2017-07-05 19:46:09,69.08824283948475
-0.90979666,0.5363012,9.251195,-0.007330383,-0.002443461,0.007330383,1.0,-0.96209997,0.5694,9.7427,0.012499999,-0.011899999,-0.0078,0.027149,0.050285,0.039372,2017-07-05 19:46:10,69.93713956839882
-0.93852705,0.11492168,9.165004,-0.007330383,-0.002443461,0.007330383,1.0,-0.9499,0.5521,9.7449,-0.2253,-0.12239999,-0.0492,0.02629,0.049568,0.038778,2017-07-05 19:46:11,75.30876907708458
-0.92895025,0.545878,9.174581,-0.0061086523,0.0012217305,0.004886922,1.0,-0.9522,0.5567,9.7444,0.0023999999,-0.009099999,0.1276,0.02648,0.049502,0.038892,2017-07-05 19:46:12,70.25769696799486
-0.91937345,0.5363012,9.385271,-0.0061086523,0.0,0.004886922,1.0,-0.95,0.5538,9.7446995,-0.008599999,0.003,0.1274,0.02641,0.049615,0.038453,2017-07-05 19:46:13,66.72272510837514
-0.91937345,0.51714754,9.3182335,-0.012217305,-0.009773844,0.007330383,1.0,-0.9356,0.5574,9.7459,0.0061999997,0.0,0.0673,0.026641,0.048818998,0.037696,2017-07-05 19:46:14,63.48009133273023
-0.90021986,0.5267244,9.270349,-0.004886922,0.0036651916,0.004886922,1.0,-0.94659996,0.555,9.745,-0.0127,0.0022,-0.0396,0.026628,0.049218,0.034228,2017-07-05 19:46:15,63.82240351725748
-0.842759,0.5554548,9.385271,-0.0036651916,0.0036651916,0.007330383,1.0,-0.96669996,0.565,9.742499,0.0835,0.0142,0.1292,0.027247,0.050152,0.030297,2017-07-05 19:46:16,71.57964771165821
-0.90979666,0.5363012,9.308656,-0.0036651916,0.004886922,0.0061086523,1.0,-0.97779995,0.5725,9.7409,0.0267,-0.0045,0.0525,0.027368,0.05099,0.03707,2017-07-05 19:46:17,66.16319658164326
-0.8810662,0.545878,9.299079,-0.007330383,-0.0012217305,0.004886922,1.0,-0.969,0.5765,9.7416,0.0184,-0.0378,0.032199997,0.027559,0.050567,0.037643,2017-07-05 19:46:18,77.8184812938626
-0.90979666,0.51714754,9.346964,-0.008552114,-0.002443461,0.004886922,1.0,-0.9683,0.5595,9.7425995,0.005,-0.0207,0.070099995,0.026527,0.050403,0.040091,2017-07-05 19:46:19,72.50799632732439
-0.90021986,0.545878,9.3182335,-0.0061086523,0.0061086523,0.002443461,1.0,-0.9582,0.5589,9.7437,0.018099999,0.0092,0.0596,0.026679,0.049963,0.036699,2017-07-05 19:46:20,78.07447973118249
-0.90021986,0.5363012,9.3182335,-0.008552114,0.0061086523,0.0061086523,1.0,-0.95809996,0.5582,9.7437,0.0178,0.009,0.04,0.026678,0.049948,0.036898,2017-07-05 19:46:21,74.45156665033926
-0.91937345,0.545878,9.279925,-0.008552114,0.004886922,0.009773844,1.0,-0.9647,0.55689996,9.7431,0.0169,0.0089,0.0424,0.026462,0.05028,0.038863,2017-07-05 19:46:22,61.83117611028226
-0.90021986,0.5267244,9.299079,-0.007330383,0.0,0.004886922,1.0,-0.94089997,0.557,9.745399,0.0150999995,0.0077,0.030599998,0.026695,0.049068,0.036316,2017-07-05 19:46:23,67.84202606784322
-0.90021986,0.5267244,9.270349,-0.007330383,0.0,0.0061086523,1.0,-0.9698,0.5678,9.742,0.0032,-0.0316,0.0534,0.026942,0.050678,0.040986,2017-07-05 19:46:24,67.915132349102
-0.91937345,0.545878,9.222465,-0.0061086523,-0.0012217305,0.0061086523,1.0,-0.93149996,0.5672,9.7458,-0.0265,-0.0207,0.0201,0.027292,0.048368,0.034252,2017-07-05 19:46:25,72.83455391819145
-0.8810662,0.545878,9.299079,-0.0061086523,0.0012217305,0.007330383,1.0,-0.9562,0.56229997,9.7437,0.0098,0.0323,0.042,0.026851,0.049882,0.037746,2017-07-05 19:46:26,66.11326732738269
-0.93852705,0.5363012,9.337387,-0.010995574,-0.0036651916,0.0061086523,1.0,-0.93149996,0.565,9.7459,0.0058999998,-0.019199999,-0.16589999,0.027172,0.048551,0.034922,2017-07-05 19:46:27,64.05570425716941
-0.89064306,0.5363012,9.32781,-0.0036651916,0.0036651916,0.0061086523,2.0,-0.93969995,0.5693,9.7449,-0.0229,-0.0132,0.0411,0.027474,0.049046,0.032633,2017-07-05 19:46:28,60.81030129016583
-0.90979666,0.5267244,9.3182335,-0.0061086523,-0.002443461,0.004886922,2.0,-0.955,0.5588,9.7439995,-0.010799999,-0.0132,0.0613,0.026751,0.049774,0.036188,2017-07-05 19:46:29,65.10483740119773
-0.90021986,0.51714754,9.299079,-0.008552114,0.0,0.007330383,2.0,-0.9756,0.5653,9.7416,0.0284,1.0E-4,0.0244,0.027044,0.050844,0.036222998,2017-07-05 19:46:30,73.71594775366307
-0.91937345,0.5554548,9.32781,-0.004886922,0.0012217305,0.008552114,1.0,-0.9536,0.57229996,9.7432995,0.0032,-0.024999999,-0.0169,0.027485,0.049448,0.03426,2017-07-05 19:46:31,72.10369033976365
-0.90979666,0.5554548,9.279925,-0.010995574,-0.014660766,0.008552114,1.0,-0.945,0.5692,9.7443,4.9999997E-4,-0.0341,0.0023,0.027239,0.049425,0.038652,2017-07-05 19:46:32,73.77163825318218
-0.91937345,0.545878,9.3182335,-0.009773844,0.0,0.004886922,1.0,-0.94689995,0.56909996,9.7442,0.0363,-0.0168,-0.067499995,0.02717,0.049449,0.03867,2017-07-05 19:46:33,68.83896878681239
-0.91937345,0.5554548,9.404425,-0.009773844,0.0036651916,0.002443461,1.0,-0.9611,0.5692,9.7428,0.0079,-0.0268,0.0315,0.027192,0.050007,0.037964,2017-07-05 19:46:34,78.06231463815871
-0.90979666,0.545878,9.289502,-0.002443461,-0.0012217305,0.0061086523,1.0,-0.9392,0.5564,9.7456,-0.0201,-0.0046,-0.0493,0.026701,0.048937,0.03529,2017-07-05 19:46:35,65.35676855170283
-0.90021986,0.5363012,9.308656,-0.0012217305,-0.0061086523,0.009773844,1.0,-0.93009996,0.5606,9.7463,-0.0092,-0.008599999,-0.0892,0.026774,0.048568,0.038556,2017-07-05 19:46:36,57.32044530124756
-0.92895025,0.5363012,9.346964,-0.009773844,-0.0061086523,0.013439035,1.0,-0.93829995,0.5627,9.745399,0.0137,-0.011,-0.029299999,0.026893,0.04933,0.038675,2017-07-05 19:46:37,62.68750272363076
-0.90979666,0.50757074,9.260772,-0.008552114,0.0,0.009773844,1.0,-0.97609997,0.56799996,9.7413,0.0241,-0.015199999,0.022799999,0.026842,0.051055,0.042911,2017-07-05 19:46:38,65.80094923967393
-0.90979666,0.50757074,9.3182335,-0.007330383,-0.0061086523,0.009773844,1.0,-0.94259995,0.5633,9.7449,0.0116,-9.0E-4,-0.0295,0.026653,0.049337998,0.043311,2017-07-05 19:46:39,67.44100365780186
-0.90979666,0.545878,9.251195,-0.0012217305,-0.002443461,0.0061086523,1.0,-0.96919996,0.5584,9.7425995,0.0186,0.0106,0.0094,0.026313,0.050776,0.043013,2017-07-05 19:46:40,67.1036897943364
-0.90979666,0.545878,9.299079,-0.007330383,-0.002443461,0.008552114,1.0,-0.93689996,0.5553,9.7459,-0.033299997,0.022499999,0.0356,0.026476,0.048913,0.038844,2017-07-05 19:46:41,67.95623910916261
-0.90979666,0.51714754,9.241618,-0.008552114,0.0,0.0061086523,1.0,-0.9501,0.55939996,9.7444,0.011299999,-4.9999997E-4,0.0667,0.026645,0.049738,0.03862,2017-07-05 19:46:42,71.95182568150099
-0.90979666,0.5363012,9.394848,-0.009773844,-0.004886922,0.002443461,1.0,-0.9428,0.5509,9.7456,-0.0064,0.0056,0.1538,0.026448,0.049231,0.036194,2017-07-05 19:46:43,64.18768211644547
-0.90021986,0.5267244,9.308656,-0.004886922,0.0036651916,0.009773844,1.0,-0.98399997,0.5694,9.7404995,0.017199999,0.0056999996,0.0013,0.027022,0.051395,0.040483,2017-07-05 19:46:44,61.870525422674476
-0.90979666,0.5363012,9.337387,-0.0061086523,-0.0036651916,0.0061086523,1.0,-0.9529,0.5668,9.7437,0.0095999995,-0.030199999,-0.0023999999,0.026899999,0.049415,0.040955,2017-07-05 19:46:45,57.18211242966536
-0.91937345,0.545878,9.3182335,-0.0061086523,0.002443461,0.002443461,1.0,-0.9267,0.56009996,9.7466,-0.0334,0.0064,0.0144,0.026685,0.048076,0.038481,2017-07-05 19:46:46,57.528726266299316
-0.92895025,0.5267244,9.308656,-0.009773844,-0.002443461,0.0061086523,1.0,-0.9403,0.5599,9.745299,-0.0042999997,-0.0148,0.0213,0.026845999,0.049019,0.035937,2017-07-05 19:46:47,58.63424569979345
-0.90021986,0.5363012,9.32781,-0.004886922,0.002443461,0.008552114,1.0,-0.9235,0.5718,9.7463,-0.0301,0.012999999,0.0106,0.027694,0.048061,0.031556,2017-07-05 19:46:48,59.461320551661395
-0.93852705,0.5363012,9.337387,-0.004886922,0.0,0.0061086523,1.0,-0.9659,0.5657,9.742499,-0.0061999997,0.0199,-0.0354,0.027167,0.049913,0.033589,2017-07-05 19:46:49,71.54054578873448
-0.91937345,0.51714754,9.270349,-0.007330383,-0.0036651916,0.007330383,1.0,-0.9708,0.56299996,9.7422,0.0106999995,-0.026899999,-0.0349,0.026967,0.050332,0.035078,2017-07-05 19:46:50,72.60098505488112
-0.92895025,0.51714754,9.3182335,-0.013439035,-0.0036651916,0.008552114,1.0,-0.9424,0.5643,9.7449,0.0074,0.0103,-0.0075999997,0.027034,0.049151,0.036596,2017-07-05 19:46:51,64.29900995099855
-0.90979666,0.5554548,9.241618,-0.002443461,-0.004886922,0.0061086523,1.0,-0.94119996,0.5701,9.7446995,-0.0133,-0.0148,0.031799998,0.027423,0.048965,0.034558,2017-07-05 19:46:52,61.541554695296384
-0.90979666,0.5267244,9.299079,0.0012217305,0.007330383,0.002443461,1.0,-0.9622,0.5643,9.743,0.017199999,-0.0189,-0.0056999996,0.026886,0.050257,0.038719,2017-07-05 19:46:53,65.75077437366753
-0.90979666,0.5650316,9.308656,-0.008552114,0.0012217305,0.004886922,1.0,-0.9587,0.5624,9.7434,0.0033999998,-0.026999999,0.0134,0.026821,0.05003,0.038328,2017-07-05 19:46:54,61.351437482146565
-0.92895025,0.545878,9.299079,-0.007330383,0.0,0.0036651916,1.0,-0.9572,0.55509996,9.7439995,-0.0144,-0.028199999,-0.1153,0.026295,0.049622,0.04001,2017-07-05 19:46:55,58.64480111627998
-0.89064306,0.51714754,9.308656,-0.007330383,-0.009773844,0.008552114,1.0,-0.9435,0.5485,9.7457,0.0084,-0.023599999,0.0112,0.026062,0.049264,0.039924,2017-07-05 19:46:56,71.38218277623851
-0.92895025,0.51714754,9.3661175,-0.008552114,0.0012217305,0.004886922,1.0,-0.94119996,0.559,9.745299,0.0145,-0.0032,0.028099999,0.026713,0.049108,0.037665,2017-07-05 19:46:57,71.64136506706612
-0.89064306,0.5363012,9.299079,-0.007330383,-0.0012217305,0.008552114,1.0,-0.94729996,0.5614,9.744599,-0.0346,-0.0251,-0.0109,0.026826,0.049109,0.03783,2017-07-05 19:46:58,74.17309095025183
-0.91937345,0.5363012,9.299079,-0.008552114,-0.007330383,0.008552114,1.0,-0.9339,0.56119996,9.7459,0.017199999,-0.024999999,0.0276,0.027067,0.048612,0.033061,2017-07-05 19:46:59,73.65163797639488
-0.89064306,0.545878,9.279925,-0.009773844,0.0012217305,0.004886922,1.0,-0.94619995,0.5694,9.7442,-2.9999999E-4,-0.0033,-0.01,0.027588,0.049189,0.030545,2017-07-05 19:47:00,69.37276725732205
-0.90979666,0.545878,9.308656,-0.008552114,0.002443461,0.007330383,1.0,-0.9644,0.5678,9.742499,0.0722,-0.0139,-0.0376,0.027175,0.050474,0.037058,2017-07-05 19:47:01,65.82766722969212
-0.90979666,0.5554548,9.270349,-0.007330383,0.0,0.007330383,1.0,-0.98609996,0.5682,9.7403,0.027999999,0.0164,0.022499999,0.026906,0.051356,0.04078,2017-07-05 19:47:02,68.23444629521403
-0.90021986,0.5363012,9.3182335,-0.0061086523,0.008552114,0.004886922,1.0,-0.9378,0.5614,9.7455,0.0042,-0.016999999,-0.0016,0.026862,0.048928,0.037281,2017-07-05 19:47:03,58.606665570755624
-0.91937345,0.50757074,9.299079,0.0,0.0,0.009773844,1.0,-0.95269996,0.5579,9.7442,-0.0121,-0.0011999999,-0.020299999,0.026487,0.049624,0.037880998,2017-07-05 19:47:04,64.4014322229798
-0.91937345,0.5363012,9.3182335,-0.0036651916,0.0012217305,0.004886922,1.0,-0.94769996,0.5609,9.744599,-0.0058,-0.0067,0.0188,0.026798,0.049445,0.037689,2017-07-05 19:47:05,67.98146588384101
-0.91937345,0.5363012,9.299079,-0.0012217305,-0.0036651916,0.0061086523,1.0,-0.9303,0.5552,9.7466,-0.0028,-0.0111,0.0267,0.026615,0.048501,0.036102,2017-07-05 19:47:06,67.88312927599299
-0.91937345,0.5554548,9.299079,-0.008552114,-0.0012217305,0.0036651916,1.0,-0.94579995,0.56979996,9.7442,0.015899999,-0.0155,0.009699999,0.027243,0.049591,0.038063,2017-07-05 19:47:07,68.01940811497505
-0.90979666,0.545878,9.32781,-0.002443461,0.0,0.008552114,1.0,-0.93659997,0.5682,9.7452,0.0128999995,-0.0235,-0.0307,0.027329,0.048815,0.03485,2017-07-05 19:47:08,57.33439740787791
-0.91937345,0.5650316,9.299079,-0.004886922,0.0012217305,0.0061086523,1.0,-0.94119996,0.5615,9.7452,-0.0231,-0.0262,0.0799,0.027088,0.048976,0.032663,2017-07-05 19:47:09,68.22808730360555
-0.90979666,0.545878,9.356541,-0.007330383,-0.004886922,0.0061086523,1.0,-0.93439996,0.5552,9.7462,-0.0106,0.0095999995,0.0495,0.026673,0.048624,0.034278,2017-07-05 19:47:10,71.0970291928413
-0.91937345,0.5363012,9.251195,-0.002443461,0.002443461,0.009773844,1.0,-0.9385,0.5602,9.7455,-0.006,-0.0543,-0.018299999,0.027042,0.04883,0.032314,2017-07-05 19:47:11,61.65272126817154
-0.90021986,0.5554548,9.32781,-0.009773844,-0.008552114,0.008552114,1.0,-0.95239997,0.56799996,9.7437,-0.0221,-0.022599999,0.0127,0.027287,0.049628,0.034995,2017-07-05 19:47:12,66.1824514697068
-0.8810662,0.545878,9.375694,-0.0061086523,-0.0012217305,0.0061086523,1.0,-0.94629997,0.56439996,9.7445,-4.0E-4,-0.018099999,0.0596,0.026952,0.049393,0.038243,2017-07-05 19:47:13,58.93606675502174
-0.93852705,0.50757074,9.471462,-0.008552114,-0.0061086523,0.009773844,1.0,-0.941,0.5571,9.745399,0.0117999995,0.019399999,0.108399995,0.026574,0.049473,0.036959,2017-07-05 19:47:14,73.62533426878468
-0.90979666,0.5363012,9.3182335,-0.007330383,-0.0012217305,0.008552114,1.0,-0.95949996,0.5668,9.7431,0.031799998,-0.030199999,0.0218,0.02722,0.049985,0.034862,2017-07-05 19:47:15,70.10690206794786
-2.0398598,-0.22026655,9.279925,-0.007330383,0.0,0.004886922,1.0,-0.91239995,0.6411,9.743,-0.621,0.6344,-0.0369,0.031268,0.047601,0.031247,2017-07-05 19:47:16,59.29935236719082
-0.90979666,0.5363012,9.3182335,-0.008552114,0.0012217305,0.0061086523,1.0,-0.9809,0.56009996,9.7413,0.0255,-0.0037999998,0.0325,0.026782,0.050712,0.035848,2017-07-05 19:47:17,65.68068234478866
-0.92895025,0.545878,9.232041,-0.007330383,0.0012217305,0.009773844,1.0,-0.9388,0.5651,9.7452,-0.0198,0.0023,0.0359,0.027229,0.048885,0.03357,2017-07-05 19:47:18,65.85498503554109
0.06703765,1.2258313,9.337387,-0.008552114,0.0036651916,0.008552114,1.0,-0.5991,0.6904,9.7639,0.1024,-0.7775,0.045399997,0.030226,0.040931,0.038029,2017-07-05 19:47:19,68.40539304566636
-0.91937345,0.5554548,9.289502,-0.007330383,0.0012217305,0.007330383,1.0,-0.82129997,0.58239996,9.7548,-0.1226,-0.053,0.016099999,0.027738,0.042708,0.04704,2017-07-05 19:47:20,67.65325846990763
3.5242648,3.6774938,13.982138,3.291342,-1.640784,-1.1716396,1.0,-0.6943,1.4456999,9.6746,1.0913,0.6953,5.987,0.07578,0.031457,-0.05406,2017-07-05 19:47:21,70.18624125710005
-3.2752678,8.0445175,6.895301,-1.1129965,1.9339994,0.12095132,4.0,-2.3502998,6.3487,7.095,-2.0067,1.7105,0.84929997,0.115572,-0.347501,-0.930529,2017-07-05 19:47:22,72.60102057719489
-1.7238252,8.39886,5.267244,0.34330627,-0.23823744,-0.29565877,0.0,-1.4301,8.025499,5.4512,-0.4075,0.8239,-0.5075,0.023389,0.468123,0.861246,2017-07-05 19:47:23,68.14948532562644
0.17238252,8.810662,4.501099,0.23945917,-0.052534413,-0.019547688,0.0,-0.081999995,8.5181,4.8584,0.2031,0.97069997,0.0633,0.120377,0.480716,0.840264,2017-07-05 19:47:24,40.98612742299252
-1.0821792,8.781932,5.3342814,-0.30543262,-0.4129449,0.065973446,1.0,-0.2521,8.3554,5.1277,-0.62329996,1.0428,0.8641,0.105891,0.476808,0.845756,2017-07-05 19:47:25,75.08743190262996
-0.5746084,8.916007,4.510676,0.41538838,0.19914207,0.07941248,1.0,0.043199997,8.5753,4.7572,-0.2462,0.7643,-0.0587,0.13757,0.4846,0.831613,2017-07-05 19:47:26,77.66037280018918
-0.06703765,8.418014,6.3302693,-0.23701571,-0.032986723,-0.0036651916,1.0,0.1706,8.0625,5.58,-0.0976,0.764,0.9601,0.113938,0.451547,0.862281,2017-07-05 19:47:27,72.29153461471397
-0.06703765,8.341399,5.851429,0.15271631,0.36651915,0.1600467,1.0,-0.0053999997,8.017099,5.6475997,-0.0459,0.7687,0.40539998,0.119796,0.440238,0.858232,2017-07-05 19:47:28,44.54954062768513
-0.12449849,8.408437,5.7843914,-0.13561209,-0.047647487,-0.059864793,1.0,0.098,8.0546,5.5931,-0.2289,0.7384,0.4782,0.123642,0.447729,0.856958,2017-07-05 19:47:29,55.493390950414295
0.6703765,8.054094,6.1100025,-0.16493362,-0.089186326,0.04642576,1.0,0.5793,7.7805,5.9412,0.1353,0.6106,0.5239,0.139479,0.425272,0.867415,2017-07-05 19:47:30,54.839862086746024
1.1587936,7.690176,6.2728086,0.03176499,-0.0061086523,0.24801129,1.0,1.0215,7.4659,6.2757998,0.0589,0.62299997,0.20449999,0.150194,0.396814,0.882529,2017-07-05 19:47:31,42.653378830340316
0.93852705,7.651869,6.655881,-0.105068825,-0.008552114,0.010995574,1.0,0.97209996,7.4725,6.2756996,0.0568,0.5481,0.59679997,0.130138,0.403841,0.890508,2017-07-05 19:47:32,39.21330702431482
1.1204864,7.153875,6.081272,-0.05009095,0.0720821,0.062308256,2.0,1.037,7.5165,6.2125998,0.13239999,0.0061999997,0.17629999,0.131567,0.407349,0.889895,2017-07-05 19:47:33,50.795969010074884
0.33518824,7.8912888,6.5026517,0.028099801,0.02687807,-0.10262536,1.0,0.70269996,7.6105,6.1445,-0.108799994,0.6131,0.5058,0.126842,0.413067,0.882783,2017-07-05 19:47:34,54.49164357486849
0.6703765,7.9008656,6.301539,-0.057421334,-0.042760566,-0.057421334,1.0,0.6666,7.6303,6.124,-0.013499999,0.6192,0.57449996,0.13157,0.414138,0.879289,2017-07-05 19:47:35,51.04214145768402
0.31603462,7.690176,6.3685765,-0.07574729,-0.007330383,-0.035430185,2.0,0.5191,7.6077,6.1661997,-0.0814,0.6256,0.4165,0.126347,0.41188,0.878772,2017-07-05 19:47:36,44.068957996812664
0.641646,7.3166804,6.7708025,0.008552114,0.02321288,0.042760566,2.0,0.6508,7.3234997,6.4893,0.0673,0.3899,0.6346,0.128401,0.391068,0.887365,2017-07-05 19:47:37,38.881798450618454
0.7086837,7.536947,6.2632318,0.16249016,0.010995574,0.09285152,2.0,0.5541,7.3162,6.5065,0.0911,0.5888,0.1029,0.122534,0.39146098,0.888448,2017-07-05 19:47:38,39.97014436977507
0.7086837,7.4028716,7.029376,-0.24923302,-0.062308256,-0.04886922,2.0,0.5994,7.3496,6.4648,0.0187,0.40019998,0.99579996,0.124657996,0.393503,0.887791,2017-07-05 19:47:39,42.859506750210016
0.6607997,7.422025,6.703765,-0.10262536,-0.012217305,-0.015882496,2.0,0.6645,7.337,6.4726996,0.054899998,0.4513,0.4391,0.126645,0.392358,0.888714,2017-07-05 19:47:41,45.11096387454302
0.7086837,7.5848308,6.5696893,0.04153884,-0.004886922,0.02687807,2.0,0.60969996,7.383,6.4256,0.058,0.486,0.2093,0.125026,0.395919,0.887111,2017-07-05 19:47:42,48.35048026085178
0.46926352,7.603985,6.3302693,0.08307768,0.1001819,-0.009773844,2.0,0.7341,7.3307,6.4723,0.173,0.6563,-0.1313,0.128507,0.390287,0.89099,2017-07-05 19:47:43,48.20950439385232
0.6512229,7.5465236,6.531382,0.02687807,0.004886922,0.009773844,2.0,0.5647,7.3517,6.4653997,0.0909,0.5844,0.4558,0.121182,0.394545,0.888631,2017-07-05 19:47:44,48.25423358788136
0.5746084,7.565677,6.981492,-0.09896017,0.014660766,-0.04642576,2.0,0.6181,7.4402,6.3585,0.0103,0.4944,0.8189,0.126499,0.402809,0.885382,2017-07-05 19:47:45,40.318762150725235
0.40222588,7.9583263,6.2345014,-0.014660766,0.02565634,-0.028099801,2.0,0.43039998,7.6805997,6.0821,-0.0167,0.625,0.5553,0.117907,0.419514,0.878755,2017-07-05 19:47:46,40.513072726012574
0.2873042,8.015787,6.445191,-0.002443461,0.010995574,-0.057421334,2.0,0.413,7.6856,6.0769997,-0.1964,0.6398,0.5798,0.115191,0.420581,0.879454,2017-07-05 19:47:47,39.61616616056267
0.32561144,7.9870567,6.1866174,-0.015882496,-0.0012217305,-0.002443461,2.0,0.4694,7.7089,6.0432997,-0.12239999,0.6569,0.4353,0.116507,0.422259,0.879506,2017-07-05 19:47:48,40.62298119515561
0.4213795,8.015787,5.995081,0.013439035,-0.021991149,-0.02565634,2.0,0.48479998,7.6956,6.059,-0.019399999,0.6303,0.3125,0.119812,0.420382,0.878746,2017-07-05 19:47:49,43.57376768990025
0.5267244,7.7667904,6.5984197,-0.02687807,-0.014660766,0.0036651916,2.0,0.546,7.6474,6.1145,0.0143,0.5567,0.7334,0.117782,0.414608,0.883578,2017-07-05 19:47:50,44.18227236346681
0.4213795,7.967903,6.38773,0.012217305,-0.017104227,-0.0012217305,2.0,0.494,7.6492,6.1168,-0.0084999995,0.66459996,0.65959996,0.116243,0.41787,0.881836,2017-07-05 19:47:51,40.93023709702094
0.7278373,7.5561004,6.8761473,-0.28099802,0.028099801,-0.015882496,2.0,0.6094,7.5362997,6.2451997,0.1748,0.304,0.79139996,0.120435,0.415696,0.883628,2017-07-05 19:47:52,42.20856543483167
0.94810385,7.4507556,6.7324953,0.0036651916,0.07941248,0.20769419,2.0,0.5959,7.5285997,6.2558,0.4536,0.2497,0.61579996,0.118399,0.408685,0.88638,2017-07-05 19:47:53,41.090852776886834
0.60333884,7.4507556,6.6654577,-0.081855945,-0.04520403,-0.040317107,2.0,0.62009996,7.2984996,6.5204997,-0.16749999,0.54679996,0.48189998,0.128035,0.388781,0.887656,2017-07-05 19:47:54,43.688107504025915
0.7469909,7.335834,6.9527617,-0.04520403,0.034208454,0.032986723,2.0,0.5415,7.2952,6.5312,0.1718,0.4028,0.6875,0.114107996,0.392402,0.892846,2017-07-05 19:47:55,46.31055708186626
0.5746084,7.489063,6.6271505,0.002443461,-0.009773844,0.012217305,2.0,0.5671,7.3322,6.4874,0.14739999,0.5442,0.4349,0.113848,0.395308,0.89271,2017-07-05 19:47:56,39.72767476483683
0.37349546,7.5561004,6.885724,-0.12461651,0.0036651916,-0.028099801,2.0,0.4373,7.3205,6.5105996,-0.1143,0.46539998,0.84239995,0.110957,0.397825,0.890551,2017-07-05 19:47:57,41.03697431901665
0.92895025,7.5561004,6.349423,0.032986723,-0.008552114,0.062308256,1.0,0.5599,7.3233,6.4979997,0.25239998,0.4937,0.44439998,0.11829,0.393315,0.890607,2017-07-05 19:47:58,40.44798317436077
0.6991069,7.575254,6.349423,-0.021991149,-0.015882496,0.036651913,1.0,0.5728,7.4881997,6.3062,0.0806,0.5087,0.40539998,0.120501,0.40519,0.885363,2017-07-05 19:47:59,40.018531922395645
0.89064306,7.565677,6.4068837,0.004886922,-0.014660766,0.04886922,1.0,0.76629996,7.4301996,6.3540998,0.2033,0.5295,0.3459,0.122544,0.401264,0.890765,2017-07-05 19:48:00,40.417708625083634
0.8619126,7.479486,6.579266,-0.037873644,-0.037873644,0.05497787,1.0,0.6978,7.4016,6.3952,0.1507,0.48799998,0.5029,0.121977,0.398817,0.890254,2017-07-05 19:48:01,41.342088434749414
1.091756,7.517793,6.196194,0.015882496,-0.037873644,0.07452556,1.0,0.7254,7.4768,6.304,0.39909998,0.4068,0.1973,0.12576,0.403444,0.88726,2017-07-05 19:48:02,41.12979266321485
