ACC_X,ACC_Y,ACC_Z,GYRO_X,GYRO_Y,GYRO_Z,LIGH_1,GRAV_X,GRAV_Y,GRAV_Z,LINACC_X,LINACC_Y,LINACC_Z,ROTVEC_X,ROTVEC_Y,ROTVEC_Z,TIME,VOICE
2.9783869,0.047884032,9.828198,-0.086175635,0.12762721,-0.02617994,0.0,3.0214825,-0.05267244,9.330204,-0.04309563,0.10055647,0.49799395,-0.0689476,0.23420249,-0.88386846,2016-12-26 23:05:10,31.469822123849156
3.0502129,-0.009576807,9.607931,-0.01308997,0.02617994,-0.0032724924,0.0,3.0071173,-0.08619126,9.334992,0.04309563,0.076614454,0.272939,-0.11701885,0.0149855465,-0.8978308,2016-12-26 23:05:11,36.53929713521272
3.074155,-0.06703765,9.588778,0.004363323,0.018544123,-0.0109083075,1.28,3.0358477,-0.12928689,9.325416,0.038307227,0.062249243,0.2633622,-0.12352548,-0.0073480383,-0.8893854,2016-12-26 23:05:12,36.352157905948225
3.0358477,-0.0047884034,9.689334,-0.031634092,-0.015271631,0.0010908308,1.92,2.980781,-0.1364695,9.3421755,0.055066638,0.1316811,0.34715924,-0.122020856,-0.014123421,-0.88541716,2016-12-26 23:05:13,34.93003825932335
2.9879637,0.05267244,9.703699,0.004363323,-0.073085666,0.004363323,1.92,2.9783869,-0.14844051,9.344569,0.009576807,0.20111294,0.35913026,-0.12237975,-0.018361285,-0.8822005,2016-12-26 23:05:14,33.92147143739591
2.9640217,-0.095768064,9.607931,-0.015271631,0.017453292,-0.01308997,1.28,2.930503,-0.20111294,9.356541,0.033518825,0.10534488,0.25139117,-0.124188386,-0.022649445,-0.8824961,2016-12-26 23:05:15,35.53038333937469
0.80924016,-0.46447513,9.866506,-0.83557636,1.1748247,-0.94356865,2.56,1.2785037,-0.8690952,9.6845455,-0.46926352,0.40462008,0.18195933,-0.06555393,0.043529823,-0.89920884,2016-12-26 23:05:16,29.935244031670656
0.36391866,0.35434186,10.110714,0.22034782,0.55414206,0.29234266,4.48,1.1851299,-0.39025488,9.727641,-0.82121116,0.7445967,0.38307226,-0.047806535,0.020449255,-0.8871771,2016-12-26 23:05:17,33.49154038793556
1.1827357,0.7565677,9.919178,-0.018544123,0.0010908308,0.0010908308,4.48,1.2737153,0.36391866,9.718064,-0.090979666,0.39264908,0.20111294,-0.033998266,-0.015501784,-0.88816947,2016-12-26 23:05:18,42.330110839812896
1.2449849,0.58897364,9.967062,-0.019634955,0.006544985,-0.016362462,4.48,1.2952632,0.30885202,9.718064,-0.050278235,0.2801216,0.24899697,-0.036080047,-0.013387622,-0.88728505,2016-12-26 23:05:19,29.141458459822488
1.2258313,0.5410896,9.94312,-0.020725785,0.01308997,0.0,3.84,1.2737153,0.34476504,9.718064,-0.047884032,0.19632454,0.22505496,-0.033804525,-0.014625933,-0.8855005,2016-12-26 23:05:20,33.88626204515893
1.1444284,0.5554548,9.94312,-0.011999139,0.0141808,0.0054541538,4.48,1.2473791,0.39743748,9.720459,-0.10295067,0.15801731,0.22266077,-0.031023178,-0.016825043,-0.8833746,2016-12-26 23:05:21,31.276918333408176
1.1109096,0.6703765,10.058042,0.018544123,0.0054541538,0.017453292,3.84,1.2497733,0.40462008,9.720459,-0.1388637,0.2657564,0.33758244,-0.03240043,-0.02071869,-0.88284993,2016-12-26 23:05:22,34.4080252785146
1.2114661,0.6655881,9.97185,-0.0054541538,0.0021816615,0.008726646,4.48,1.2401965,0.4213795,9.720459,-0.02873042,0.24420857,0.25139117,-0.032788508,-0.024029793,-0.88247734,2016-12-26 23:05:23,28.842854623396754
1.0055647,0.62249243,9.871294,-0.0076358155,-0.011999139,0.0141808,3.84,1.1707647,0.4237737,9.727641,-0.16519992,0.19871874,0.1436521,-0.03076578,-0.024821699,-0.88271356,2016-12-26 23:05:24,35.396844379139516
1.0821792,0.60812724,9.904813,0.016362462,0.0032724924,-0.0010908308,3.84,1.2090719,0.46208093,9.722853,-0.12689269,0.14604631,0.18195933,-0.03237889,-0.029600985,-0.88246065,2016-12-26 23:05:25,31.562461903973443
1.1013328,0.7182605,9.938332,0.017453292,0.0010908308,0.009817477,4.48,1.2234371,0.49799395,9.718064,-0.12210429,0.22026655,0.22026655,-0.032696042,-0.033438493,-0.88180816,2016-12-26 23:05:26,31.60739193003472
1.1300632,0.63206923,9.981427,0.01308997,0.023998277,0.0054541538,3.84,1.2138603,0.4213795,9.722853,-0.08379706,0.21068975,0.25857377,-0.034603853,-0.031299014,-0.8814764,2016-12-26 23:05:27,28.92099242564006
1.0390835,0.60333884,10.115502,-0.006544985,0.0109083075,-0.0032724924,4.48,1.1923125,0.36631286,9.727641,-0.15322891,0.23702596,0.3878607,-0.035312183,-0.02978959,-0.8814119,2016-12-26 23:05:28,30.245446710933074
1.0582372,0.48841715,9.923966,-0.080721475,-0.12435471,-0.015271631,3.84,1.3431472,0.23463176,9.713276,-0.28491,0.25378537,0.21068975,-0.04586315,-0.028673718,-0.8834933,2016-12-26 23:05:29,33.23668400337718
1.532289,0.12449849,9.962274,-0.03926991,-0.0076358155,0.0021816615,4.48,1.5969325,-0.12449849,9.674969,-0.06464344,0.24899697,0.2873042,-0.06626104,-0.019847017,-0.88274753,2016-12-26 23:05:30,33.90747122250866
1.1252748,0.21547815,10.220847,0.12653637,0.0567232,0.0283616,3.84,1.2593501,-0.07182605,9.725247,-0.1340753,0.2873042,0.49559975,-0.049838305,-0.0154051725,-0.88486713,2016-12-26 23:05:31,32.27818171477678
1.2641385,0.56982,10.177752,-0.11235557,-0.07526732,0.009817477,3.84,1.2306197,0.20829555,9.727641,0.033518825,0.36152446,0.45010993,-0.0418714,-0.028727854,-0.88431495,2016-12-26 23:05:32,28.886684787037748
1.0007763,0.62728083,9.94312,0.08399397,0.006544985,-0.019634955,4.48,1.2090719,0.36631286,9.725247,-0.20829555,0.260968,0.21787235,-0.03759167,-0.03629112,-0.8864013,2016-12-26 23:05:33,35.95489102938475
1.091756,0.92416185,9.861717,-0.04145157,0.006544985,0.01308997,2.56,1.1540052,0.581791,9.722853,-0.062249243,0.34237084,0.1388637,-0.030321792,-0.045877367,-0.88858825,2016-12-26 23:05:34,41.35537260826999
1.1444284,1.163582,10.196905,0.07853982,0.07417649,-0.0141808,1.28,1.1587936,0.63206923,9.718064,-0.01436521,0.5315128,0.47884035,-0.029352412,-0.049543045,-0.88789934,2016-12-26 23:05:35,29.911208129987177
1.9057846,-0.090979666,9.674969,-0.14398967,-0.6163194,0.12217305,0.0,1.7381904,0.23702596,9.648633,0.16759412,-0.32800564,0.02633622,-0.06486092,-0.04648138,-0.8858068,2016-12-26 23:05:36,27.44864818813396
2.2122424,1.1587936,9.876082,0.023998277,-0.0010908308,0.0076358155,1.28,2.2409728,0.50517654,9.536105,-0.02873042,0.6536171,0.33997664,-0.08095048,-0.07290611,-0.8784081,2016-12-26 23:05:37,41.82872329827134
2.1739352,1.2880806,9.952697,0.08726646,0.035997417,-0.016362462,1.28,2.099715,0.6512229,9.557653,0.074220255,0.6368576,0.39504328,-0.070888355,-0.07714528,-0.8785546,2016-12-26 23:05:38,29.246518095078038
2.2601264,1.2880806,9.617508,-0.017453292,-0.040360738,-0.0109083075,0.0,2.1404164,0.6631939,9.548077,0.11971009,0.62488663,0.06943185,-0.07230298,-0.079712704,-0.87817514,2016-12-26 23:05:39,51.95685270337229
2.0638018,1.3599066,9.627085,0.008726646,0.008726646,-0.0076358155,1.28,2.1164744,0.6512229,9.555259,-0.05267244,0.7086837,0.07182605,-0.07147215,-0.0795324,-0.8786081,2016-12-26 23:05:40,25.305891928288208
2.15957,1.4891934,9.785102,0.016362462,0.0010908308,0.004363323,0.0,2.123657,0.61052144,9.555259,0.035913024,0.878672,0.22984336,-0.07258675,-0.07909242,-0.87825453,2016-12-26 23:05:41,35.69157049666325
2.2361844,1.2210429,9.737218,-0.0021816615,0.0021816615,-0.0054541538,0.0,2.1380222,0.60573304,9.552865,0.09816227,0.61530983,0.18435353,-0.07334773,-0.08020975,-0.8783908,2016-12-26 23:05:42,36.7531367753942
2.231396,1.3455414,9.7563715,-0.033815753,-0.0425424,0.01308997,0.0,2.1260512,0.6344634,9.552865,0.10534488,0.7110779,0.20350714,-0.07200133,-0.082275726,-0.8783337,2016-12-26 23:05:43,34.38666264564903
2.1691468,1.3551182,9.799467,-0.01308997,0.0054541538,-0.0021816615,3.1999998,2.1284454,0.6536171,9.552865,0.04070143,0.7015011,0.24660277,-0.07012637,-0.081826806,-0.8781049,2016-12-26 23:05:44,33.4779740291482
2.1739352,1.4077905,9.631873,0.006544985,0.0021816615,0.015271631,1.92,2.0374656,0.7565677,9.564836,0.1364695,0.6512229,0.06703765,-0.061855853,-0.082616985,-0.87812614,2016-12-26 23:05:46,24.236178694373336
2.2026656,1.3934253,9.794679,-0.0032724924,0.0010908308,0.006544985,2.56,2.0973208,0.7182605,9.555259,0.10534488,0.6751649,0.23942018,-0.06407969,-0.080949605,-0.87749076,2016-12-26 23:05:47,33.45650999022769
2.3558946,1.2689269,9.665392,-0.02617994,-0.006544985,-0.01308997,1.28,2.1380222,0.6847417,9.548077,0.21787235,0.58418524,0.11731588,-0.065351635,-0.07922423,-0.8769128,2016-12-26 23:05:48,26.328009304798027
1.9776106,1.283292,9.818622,0.017453292,-0.0032724924,-0.008726646,1.28,2.0614076,0.7613561,9.557653,-0.08379706,0.521936,0.260968,-0.0588129,-0.07991733,-0.8763672,2016-12-26 23:05:49,25.610392377076046
2.2026656,1.6328455,9.593566,0.02727077,0.020725785,-0.021816615,0.0,2.1212628,1.115698,9.509769,0.08140286,0.51714754,0.08379706,-0.053002603,-0.099525936,-0.8735509,2016-12-26 23:05:50,27.919478286083145
2.15957,1.6041151,9.598354,-0.062177356,-0.020725785,0.0032724924,1.28,2.1260512,1.0654198,9.514558,0.033518825,0.5386954,0.08379706,-0.05511973,-0.0991121,-0.87471795,2016-12-26 23:05:51,38.61647773605063
2.1404164,1.8626889,9.703699,-0.029452432,-0.019634955,0.009817477,0.0,2.111686,1.0510546,9.519346,0.02873042,0.81163436,0.18435353,-0.05518657,-0.09991044,-0.87551993,2016-12-26 23:05:52,25.896401446665127
2.1212628,1.7525556,9.64145,0.015271631,0.006544985,-0.0032724924,0.0,2.1859062,0.9576807,9.514558,-0.06464344,0.79487497,0.12689269,-0.060960993,-0.098912686,-0.8761622,2016-12-26 23:05:53,33.82565945919274
2.1452048,1.7860745,9.847352,0.015271631,0.016362462,0.0,2.56,2.2122424,0.9504981,9.507375,-0.06703765,0.8355764,0.33997664,-0.062276095,-0.10074124,-0.87649465,2016-12-26 23:05:54,33.567641994472666
2.303222,1.4700398,9.603143,0.0076358155,-0.0010908308,0.01308997,0.0,2.3415294,0.6823475,9.500193,-0.038307227,0.78769237,0.10295067,-0.07431699,-0.09315662,-0.8759849,2016-12-26 23:05:55,35.514161944768226
2.2218192,1.6041151,9.564836,0.03926991,0.025089107,-0.011999139,1.92,2.2864625,0.8523358,9.500193,-0.06464344,0.7517793,0.06464344,-0.06741855,-0.100797795,-0.87537354,2016-12-26 23:05:56,24.037994693666068
2.2505496,1.6232687,9.617508,-0.0076358155,-0.016362462,0.0032724924,0.0,2.2697031,0.8714894,9.502586,-0.019153614,0.7517793,0.11492168,-0.06627107,-0.102179945,-0.87588155,2016-12-26 23:05:57,26.860960440022858
2.2218192,1.8100165,9.718064,-0.04145157,-0.02617994,-0.0054541538,0.0,2.3104045,0.79248077,9.500193,-0.088585466,1.0175357,0.21787235,-0.06974402,-0.100476354,-0.8763931,2016-12-26 23:05:58,36.93826206983398
2.207454,1.5610195,9.698911,-0.011999139,0.0010908308,0.0032724924,1.92,2.372654,0.62249243,9.495404,-0.16519992,0.93852705,0.20350714,-0.07614341,-0.09562618,-0.8768029,2016-12-26 23:05:59,38.47218571000307
2.2649148,1.5801731,9.85214,0.038179077,0.045814894,-0.011999139,0.0,2.315193,0.7086837,9.504981,-0.050278235,0.8714894,0.34715924,-0.07071291,-0.099347204,-0.87681293,2016-12-26 23:06:00,27.018053575147416
2.2409728,1.7190368,9.909601,0.0141808,-0.011999139,0.008726646,0.0,2.2625206,0.81881696,9.507375,-0.021547815,0.90021986,0.40222588,-0.06518915,-0.10415535,-0.876464,2016-12-26 23:06:01,34.7278782608191
2.207454,1.8291701,9.722853,0.029452432,0.02617994,-0.0076358155,0.0,2.255338,0.85473,9.507375,-0.047884032,0.9744401,0.21547815,-0.06374162,-0.106434815,-0.8763038,2016-12-26 23:06:02,30.44642638370117
2.2170308,1.9249382,9.694122,-0.0032724924,-0.02727077,-0.015271631,1.28,2.2266076,0.94092125,9.504981,-0.009576807,0.9840169,0.18914193,-0.060396913,-0.11033858,-0.8760903,2016-12-26 23:06:03,32.181108058410594
2.1978772,1.7812861,9.76116,0.018544123,-0.006544985,-0.0010908308,0.0,2.255338,0.89782566,9.502586,-0.05746084,0.8834604,0.25857377,-0.06272561,-0.10982988,-0.876071,2016-12-26 23:06:04,36.26279616656138
2.303222,1.8579005,9.665392,0.03926991,0.0109083075,0.011999139,0.0,2.2481554,0.90021986,9.504981,0.055066638,0.9576807,0.1604115,-0.06229773,-0.11035018,-0.8758384,2016-12-26 23:06:05,28.734078007880647
2.2649148,1.7429788,9.727641,-0.006544985,0.008726646,-0.0010908308,0.0,2.2242134,0.9552865,9.504981,0.04070143,0.78769237,0.22266077,-0.059969217,-0.11269443,-0.8756134,2016-12-26 23:06:06,37.30722569525141
2.2361844,1.6903064,9.679757,0.009817477,0.009817477,-0.009817477,0.0,2.231396,0.9840169,9.500193,0.0047884034,0.7062895,0.17956513,-0.059761137,-0.11446053,-0.87617373,2016-12-26 23:06:07,34.04179573984746
2.2218192,1.7429788,9.694122,0.0076358155,0.015271631,-0.004363323,1.28,2.2529438,0.9911995,9.49301,-0.031124622,0.7517793,0.20111294,-0.060539052,-0.11547868,-0.87593496,2016-12-26 23:06:08,25.955168889011663
2.1978772,1.8195933,9.631873,0.020725785,0.004363323,-0.006544985,0.0,2.2218192,1.0271125,9.497798,-0.023942016,0.79248077,0.1340753,-0.058514595,-0.11642559,-0.8762554,2016-12-26 23:06:09,28.076040790096307
2.1404164,1.7238252,9.842564,-0.006544985,-0.016362462,0.0,1.28,2.2242134,1.0510546,9.495404,-0.08379706,0.6727707,0.34715924,-0.058323488,-0.11767027,-0.8764423,2016-12-26 23:06:10,33.0163261336457
2.4995465,1.2785037,9.665392,-0.2018037,-0.16907877,-0.015271631,0.0,2.5187001,0.5386954,9.464279,-0.019153614,0.7398083,0.20111294,-0.08426769,-0.10153456,-0.8769756,2016-12-26 23:06:11,27.38365944899964
2.2601264,1.8579005,9.770737,0.006544985,0.004363323,0.0010908308,0.0,2.2768857,1.1252748,9.473856,-0.016759412,0.7326257,0.29688102,-0.05998261,-0.1214336,-0.8790622,2016-12-26 23:06:12,33.784433268654325
2.255338,1.8148049,9.674969,-0.03926991,-0.0021816615,0.0054541538,1.28,2.2888567,1.1683705,9.466674,-0.033518825,0.6464345,0.20829555,-0.059599515,-0.12332812,-0.8784462,2016-12-26 23:06:13,49.04527111821981
2.27928,1.8148049,9.746795,-0.01308997,-0.0010908308,0.0021816615,0.0,2.315193,1.1085154,9.466674,-0.035913024,0.7062895,0.2801216,-0.062493823,-0.1208358,-0.87865776,2016-12-26 23:06:14,35.0579105062579
2.2457612,1.7429788,9.751583,-0.006544985,-0.044724062,-0.008726646,2.56,2.3295584,1.0582372,9.469068,-0.08379706,0.6847417,0.2825158,-0.06446095,-0.11858232,-0.8792548,2016-12-26 23:06:15,33.886402550696445
2.15957,1.8435353,9.770737,0.0021816615,-0.011999139,-0.004363323,0.0,2.3080103,1.0510546,9.473856,-0.14844051,0.79248077,0.29688102,-0.06372411,-0.11752049,-0.87971437,2016-12-26 23:06:16,33.568437730612374
2.231396,1.7477672,9.52174,-0.0032724924,-0.018544123,0.0032724924,0.0,2.327164,0.9911995,9.476251,-0.095768064,0.7565677,0.045489833,-0.065962136,-0.11533457,-0.87976766,2016-12-26 23:06:17,26.16613342440511
2.2218192,1.7956513,9.689334,0.0010908308,0.0032724924,0.0021816615,1.28,2.3127987,1.0055647,9.478644,-0.090979666,0.79008657,0.21068975,-0.06492706,-0.1156957,-0.88025856,2016-12-26 23:06:18,24.944473888781733
2.2026656,1.8626889,9.713276,0.006544985,0.037088245,-0.008726646,1.92,2.3127987,1.055843,9.473856,-0.110133275,0.80684596,0.23942018,-0.063859105,-0.117923826,-0.88048196,2016-12-26 23:06:19,35.52257703081818
2.2122424,1.8243817,9.655815,-0.008726646,0.0109083075,0.0076358155,1.28,2.3247697,1.067814,9.469068,-0.11252748,0.7565677,0.18674773,-0.064060666,-0.1186023,-0.8809445,2016-12-26 23:06:20,35.600030743601735
2.2936451,1.8100165,9.694122,-0.008726646,-0.008726646,0.0076358155,1.92,2.3199813,1.1109096,9.464279,-0.02633622,0.6991069,0.22984336,-0.06295535,-0.12027642,-0.88101935,2016-12-26 23:06:21,30.275721351723682
2.054225,2.1787236,9.483433,0.093811445,-0.006544985,0.18980455,2.56,2.0614076,1.6663644,9.442732,-0.007182605,0.51235914,0.04070143,-0.03360832,-0.14199623,-0.861014,2016-12-26 23:06:22,24.10868580214283
0.11971009,10.065224,-0.06464344,-0.35888332,0.92611533,-0.37415496,0.0,1.0319009,9.543288,-2.0111294,-0.91219085,0.521936,1.946486,0.32667086,-0.7152482,-0.5406772,2016-12-26 23:06:23,31.543104644838866
-2.6767175,7.651869,-0.20829555,-2.069306,0.05235988,0.78430736,0.0,-0.2681506,9.248801,3.2561142,-2.408567,-1.5969325,-3.4644098,0.2186319,-0.5320114,-0.7816196,2016-12-26 23:06:24,64.19076176145106
0.79487497,-2.705448,9.995792,0.46578476,-0.06544985,0.0,8.96,0.7445967,-2.5498247,9.440337,0.050278235,-0.15562311,0.5554548,-0.07700506,0.11358729,-0.85827243,2016-12-26 23:06:25,27.29166477712196
-0.4165911,-0.36391866,8.971074,-0.6774059,-0.28579766,0.88466376,10.24,-0.1316811,-0.6607997,9.785102,-0.28491,0.29688102,-0.81402856,0.007868223,0.05587776,-0.8426666,2016-12-26 23:06:26,29.69422707860037
0.29209262,-1.5658079,9.976639,0.106901415,-0.15817046,0.01308997,8.32,0.34476504,-1.6831238,9.655815,-0.05267244,0.11731588,0.320823,-0.042902183,0.08695494,-0.81762886,2016-12-26 23:06:27,32.22071811112417
0.89064306,-1.7669208,9.574412,0.12653637,-0.103628926,0.05235988,5.7599998,0.6392518,-1.8602947,9.607931,0.25139117,0.093373865,-0.033518825,-0.06170794,0.08632293,-0.8206151,2016-12-26 23:06:28,31.599392218080936
0.81881696,-1.9680338,9.751583,0.015271631,-0.0010908308,0.033815753,5.7599998,0.6464345,-2.0494366,9.569624,0.17238252,0.08140286,0.18195933,-0.069877245,0.09137165,-0.82175875,2016-12-26 23:06:29,30.725730772792485
0.6751649,-2.078167,9.957485,0.009817477,-0.006544985,-0.0021816615,5.12,0.641646,-2.0111294,9.576807,0.033518825,-0.06703765,0.38067806,-0.07035028,0.087665536,-0.82335764,2016-12-26 23:06:31,29.11926268795743
0.8762778,-1.982399,9.94312,0.017453292,-0.018544123,-0.009817477,5.12,0.7302315,-1.9297266,9.588778,0.14604631,-0.05267244,0.35434186,-0.07334964,0.07946183,-0.82372946,2016-12-26 23:06:32,35.740566008336216
0.7278373,-2.030283,9.751583,0.0109083075,-0.0010908308,-0.0054541538,5.12,0.6679823,-1.9416976,9.588778,0.059855044,-0.088585466,0.16280572,-0.07230277,0.080229625,-0.8241441,2016-12-26 23:06:33,36.48603724928008
0.770933,-1.8962077,9.933543,0.0021816615,-0.008726646,0.0032724924,5.12,0.6847417,-1.9273324,9.591172,0.08619126,0.031124622,0.34237084,-0.07347629,0.07781664,-0.82469803,2016-12-26 23:06:34,38.524370398698295
0.79966336,-1.9488802,9.8042555,0.017453292,0.01308997,0.022907447,5.12,0.7350199,-1.9177556,9.591172,0.06464344,-0.031124622,0.21308395,-0.07633917,0.07460764,-0.8242129,2016-12-26 23:06:35,37.376578746560696
0.79008657,-1.9632454,9.871294,-0.0010908308,0.023998277,-0.004363323,5.12,0.6943185,-1.9321208,9.591172,0.095768064,-0.031124622,0.2801216,-0.07583934,0.07528505,-0.824333,2016-12-26 23:06:36,24.74607754154899
0.9768343,-1.8770541,9.837775,0.029452432,-0.05235988,0.0032724924,6.3999996,0.7302315,-1.9249382,9.588778,0.24660277,0.047884032,0.24899697,-0.07789945,0.07298071,-0.82406807,2016-12-26 23:06:37,35.83160974718683
0.9624691,-1.9967642,9.785102,-0.0109083075,-0.017453292,0.0109083075,5.12,0.866701,-1.8531121,9.591172,0.095768064,-0.1436521,0.19393034,-0.08235937,0.06497745,-0.82270503,2016-12-26 23:06:38,31.33479029084064
0.8810662,-1.9297266,9.794679,0.0032724924,0.006544985,-0.0076358155,5.12,0.8331822,-1.8746599,9.591172,0.047884032,-0.055066638,0.20350714,-0.08194831,0.06614493,-0.8226814,2016-12-26 23:06:39,23.202847949567197
0.91937345,-1.8866309,9.904813,0.017453292,-0.0283616,-0.021816615,7.04,0.93134445,-1.8171991,9.593566,-0.011971008,-0.06943185,0.31124622,-0.08498043,0.060297146,-0.82187027,2016-12-26 23:06:40,23.883491678843335
0.79008657,-1.8866309,9.957485,0.0,0.0010908308,-0.0141808,5.12,0.93852705,-1.8148049,9.593566,-0.14844051,-0.07182605,0.36391866,-0.08554357,0.05951211,-0.82169974,2016-12-26 23:06:41,32.930143165011465
0.7517793,-1.8914193,9.627085,0.0,-0.0054541538,0.0,5.7599998,0.91458505,-1.8459295,9.588778,-0.16280572,-0.045489833,0.038307227,-0.08559309,0.06129461,-0.822134,2016-12-26 23:06:42,28.662208603512177
0.8475474,-1.8243817,9.631873,0.009817477,-0.008726646,-0.015271631,5.7599998,0.9672575,-1.8028339,9.591172,-0.11971009,-0.021547815,0.04070143,-0.0867536,0.057667505,-0.82216364,2016-12-26 23:06:43,25.027342951583158
0.81402856,-1.8818425,9.799467,-0.004363323,-0.004363323,-0.0032724924,5.7599998,0.9528923,-1.8363527,9.586384,-0.1388637,-0.045489833,0.21308395,-0.087242045,0.05924525,-0.82255685,2016-12-26 23:06:44,32.99021723782742
0.91937345,-1.8914193,9.785102,0.0054541538,0.0010908308,0.017453292,5.7599998,0.93373865,-1.8219875,9.591172,-0.01436521,-0.06943185,0.19393034,-0.08611448,0.059092227,-0.8231711,2016-12-26 23:06:45,33.26019072359156
0.8571242,-1.8579005,9.861717,0.016362462,-0.0021816615,-0.004363323,5.7599998,0.9840169,-1.7932571,9.591172,-0.12689269,-0.06464344,0.2705448,-0.08749922,0.05625402,-0.82313937,2016-12-26 23:06:46,24.25931408486463
0.7374141,-1.8962077,10.029311,-0.031634092,0.01308997,-0.008726646,5.7599998,0.90500826,-1.8267759,9.593566,-0.16759412,-0.06943185,0.4357447,-0.08509882,0.0599041,-0.8239356,2016-12-26 23:06:47,24.61023053794435
0.842759,-1.958457,9.7563715,0.0021816615,-0.016362462,0.008726646,6.3999996,0.9624691,-1.8363527,9.586384,-0.11971009,-0.12210429,0.16998832,-0.08796358,0.058507074,-0.82354903,2016-12-26 23:06:48,30.069213135521014
0.8858546,-1.9201498,9.765948,0.0076358155,0.023998277,-0.019634955,5.7599998,0.91937345,-1.8555063,9.586384,-0.033518825,-0.06464344,0.17956513,-0.0865394,0.060666457,-0.82486427,2016-12-26 23:06:49,33.78649576468045
0.92895025,-1.8052281,9.856929,0.0076358155,-0.011999139,0.0054541538,5.7599998,0.8858546,-1.8507179,9.591172,0.04309563,0.045489833,0.2657564,-0.08508092,0.061331153,-0.8253131,2016-12-26 23:06:50,26.0941208109514
0.9528923,-2.0111294,9.813833,-0.006544985,0.004363323,0.018544123,5.7599998,0.89064306,-1.8722657,9.586384,0.062249243,-0.1388637,0.22744916,-0.08612456,0.0617783,-0.8249153,2016-12-26 23:06:51,31.17288562109674
0.89543146,-1.9249382,9.67018,0.0032724924,0.0021816615,-0.01308997,7.04,0.78529817,-1.958457,9.576807,0.110133275,0.033518825,0.093373865,-0.084189504,0.06826775,-0.8258331,2016-12-26 23:06:52,25.137640098510246
0.90979666,-1.8387469,9.919178,0.0076358155,-0.017453292,0.009817477,5.12,0.81642276,-1.958457,9.574412,0.093373865,0.11971009,0.34476504,-0.08567003,0.06686201,-0.82545847,2016-12-26 23:06:53,34.28998202825899
0.80924016,-1.8100165,9.8042555,-0.029452432,0.0141808,-0.006544985,7.04,0.82360536,-2.0039468,9.564836,-0.01436521,0.19393034,0.23942018,-0.087325454,0.06820223,-0.82598567,2016-12-26 23:06:54,29.983810488202
0.8475474,-1.8674773,9.7084875,0.0010908308,-0.030543262,0.0,5.7599998,0.8355764,-2.0254946,9.560047,0.011971008,0.15801731,0.14844051,-0.08850486,0.068255775,-0.8257856,2016-12-26 23:06:55,23.66753611168199
0.81881696,-1.9009962,9.813833,-0.015271631,0.0109083075,-0.0032724924,5.7599998,0.8355764,-2.0278888,9.560047,-0.016759412,0.12689269,0.25378537,-0.08840962,0.06786725,-0.82634366,2016-12-26 23:06:56,30.293973068975877
0.8283938,-1.8387469,9.722853,0.02727077,-0.0109083075,-0.0054541538,5.7599998,0.81402856,-2.0638018,9.552865,0.01436521,0.22505496,0.16998832,-0.088425666,0.06969082,-0.82693505,2016-12-26 23:06:57,28.130859265695513
0.866701,-1.8435353,9.871294,0.0,-0.020725785,0.0010908308,5.7599998,0.8355764,-2.0733786,9.55047,0.031124622,0.22984336,0.320823,-0.08949138,0.06890465,-0.82708335,2016-12-26 23:06:58,30.410643726489877
0.90979666,-1.8579005,9.655815,-0.009817477,0.019634955,-0.004363323,5.7599998,0.79248077,-2.099715,9.548077,0.11731588,0.24181437,0.107739076,-0.08826828,0.0706259,-0.8272814,2016-12-26 23:06:59,23.998359027794574
0.9672575,-1.8531121,9.856929,-0.0076358155,-0.0109083075,0.008726646,5.7599998,0.7613561,-2.1164744,9.545682,0.20590134,0.2633622,0.31124622,-0.08748183,0.07165189,-0.82752573,2016-12-26 23:07:00,24.28627417160535
0.9528923,-1.8148049,9.809045,-0.017453292,0.06654068,-0.0141808,5.12,0.79966336,-2.1092918,9.545682,0.15322891,0.29448682,0.2633622,-0.08889382,0.069362275,-0.82673484,2016-12-26 23:07:01,27.011000534483745
0.9624691,-1.8866309,9.909601,0.0076358155,0.0,0.0,5.12,0.7757214,-2.1260512,9.543288,0.18674773,0.23942018,0.36631286,-0.08840356,0.07001697,-0.8266959,2016-12-26 23:07:02,22.515266926067014
0.770933,-1.9871874,9.847352,0.022907447,-0.0109083075,0.016362462,5.7599998,0.78290397,-2.1068976,9.545682,-0.011971008,0.11971009,0.30166942,-0.08812447,0.06845456,-0.8267257,2016-12-26 23:07:03,23.475495469196552
0.9911995,-1.8052281,9.91439,-0.0010908308,0.01308997,-0.009817477,5.7599998,0.8738836,-2.0757728,9.545682,0.11731588,0.2705448,0.36870706,-0.091098174,0.06374863,-0.82592225,2016-12-26 23:07:04,24.81762020857689
0.92895025,-1.8004397,9.842564,0.0010908308,0.008726646,-0.0010908308,5.7599998,0.82599956,-2.1140802,9.540894,0.10295067,0.31364042,0.30166942,-0.08997562,0.06626511,-0.82601625,2016-12-26 23:07:05,29.260346694545774
0.8571242,-1.8483237,9.85214,-0.033815753,0.018544123,-0.01308997,7.04,0.81642276,-2.1380222,9.536105,0.04070143,0.2896984,0.31603462,-0.090088695,0.06710039,-0.8261198,2016-12-26 23:07:06,29.368999872036078
1.0055647,-1.7956513,9.727641,-0.011999139,0.004363323,-0.018544123,5.12,0.8379706,-2.1428106,9.533711,0.16759412,0.34715924,0.19393034,-0.09087773,0.06622705,-0.8261491,2016-12-26 23:07:07,30.95942631173991
0.89064306,-1.9440918,9.861717,-0.0032724924,-0.022907447,0.006544985,5.12,0.8523358,-2.1260512,9.536105,0.038307227,0.18195933,0.32561144,-0.09088107,0.06470474,-0.8260885,2016-12-26 23:07:08,35.748501055033344
0.7661445,-1.8722657,9.7803135,-0.008726646,-0.0021816615,-0.004363323,5.12,0.80445176,-2.1571758,9.533711,-0.038307227,0.28491,0.24660277,-0.089602254,0.06702531,-0.8261389,2016-12-26 23:07:09,30.147584815001455
0.8762778,-1.8818425,9.85214,0.0054541538,-0.019634955,0.0054541538,5.12,0.8331822,-2.123657,9.5385,0.04309563,0.24181437,0.31364042,-0.08972874,0.06439467,-0.8258772,2016-12-26 23:07:11,28.064696897268174
0.63206923,-0.79008657,9.742006,-0.20616701,0.14726216,-0.093811445,5.12,0.89543146,-1.2952632,9.679757,-0.2633622,0.50517654,0.062249243,-0.06683568,0.030827316,-0.85372293,2016-12-26 23:07:12,23.923048269820303
0.51714754,-0.94810385,9.473856,0.4996005,0.40142572,0.3687008,5.12,0.7254431,-1.6711528,9.636662,-0.20829555,0.7230489,-0.16280572,-0.07140832,0.048539598,-0.83282596,2016-12-26 23:07:13,24.487546150935536
0.56982,-0.90979666,10.048465,-0.0076358155,0.0283616,-0.0141808,5.12,0.533907,-1.1994951,9.720459,0.035913024,0.2896984,0.32800564,-0.050426565,0.032796033,-0.8259771,2016-12-26 23:07:14,27.356188576257082
0.44532153,-1.0199299,10.024523,-0.004363323,-0.021816615,0.009817477,5.7599998,0.40222588,-1.2162545,9.722853,0.04309563,0.19632454,0.30166942,-0.045355283,0.03739441,-0.8261153,2016-12-26 23:07:15,23.853045754396675
0.59855044,-0.8379706,10.105926,-0.0054541538,0.034906585,0.008726646,5.7599998,0.39504328,-1.151611,9.7324295,0.20350714,0.31364042,0.37349546,-0.043330237,0.03490123,-0.8258587,2016-12-26 23:07:16,37.34641505860275
0.24420857,-0.94810385,10.2974615,0.020725785,-0.032724924,0.01308997,7.04,0.37349546,-1.1228806,9.734824,-0.12928689,0.17477672,0.5626374,-0.041710835,0.0344148,-0.82598424,2016-12-26 23:07:17,33.11791374710891
0.7661445,-0.7278373,9.85214,0.14835298,-0.06435902,-0.17235127,5.12,0.581791,-0.92895025,9.746795,0.18435353,0.20111294,0.10534488,-0.04493969,0.020398097,-0.82723963,2016-12-26 23:07:18,32.15038552810514
0.7565677,-0.8523358,9.516952,-0.24325526,-0.0283616,0.09272061,5.12,0.557849,-1.0630256,9.734824,0.19871874,0.21068975,-0.21787235,-0.047638196,0.027216885,-0.83028406,2016-12-26 23:07:19,28.783757614531233
0.80445176,-1.4508862,10.010158,-0.023998277,-0.0032724924,-0.008726646,5.12,0.62967503,-1.5873557,9.65821,0.17477672,0.1364695,0.35194764,-0.06613705,0.047150213,-0.8246676,2016-12-26 23:07:20,32.20162044469423
0.7517793,-0.8619126,10.081984,0.0076358155,-0.006544985,-0.0076358155,5.12,0.61530983,-1.0773908,9.727641,0.1364695,0.21547815,0.35434186,-0.05097282,0.026001297,-0.82527834,2016-12-26 23:07:21,31.130822620676483
0.7565677,-0.82360536,10.014946,-0.05454154,-0.14398967,-0.011999139,5.12,0.60573304,-1.0271125,9.734824,0.15083471,0.20350714,0.2801216,-0.049168453,0.024261847,-0.82521975,2016-12-26 23:07:22,31.984463022011628
1.2641385,-0.7422025,10.077195,-0.02617994,-0.0010908308,0.004363323,2.56,1.1611878,-0.9576807,9.691729,0.10295067,0.21547815,0.3854665,-0.07079861,0.00539919,-0.82335055,2016-12-26 23:07:23,30.969744285788355
1.043872,-0.8571242,10.000581,-0.004363323,0.017453292,-0.022907447,1.92,0.9983821,-0.9576807,9.7084875,0.045489833,0.10055647,0.29209262,-0.064036705,0.010366874,-0.8240217,2016-12-26 23:07:24,36.83402985274865
1.091756,-0.8714894,10.029311,0.008726646,0.0283616,-0.008726646,1.28,1.079785,-0.9792285,9.698911,0.011971008,0.107739076,0.33039984,-0.0681277,0.0090672,-0.8235682,2016-12-26 23:07:25,29.97400948019048
1.1540052,-0.90979666,10.048465,0.01308997,-0.031634092,0.0010908308,0.0,1.1324574,-0.9744401,9.694122,0.021547815,0.06464344,0.35434186,-0.07029526,0.007491417,-0.82321453,2016-12-26 23:07:26,32.76952693017926
0.46447513,-0.46926352,10.067618,0.016362462,0.029452432,-0.0054541538,7.04,0.39983168,-0.61530983,9.7803135,0.06464344,0.14604631,0.2873042,-0.029085062,0.01364157,-0.8255936,2016-12-26 23:07:27,30.415127575625363
-0.038307227,-0.9624691,9.832987,-0.14617133,0.047996555,-0.016362462,1.28,-0.2753332,-0.94092125,9.758766,0.23702596,-0.021547815,0.074220255,-0.008669982,0.04883101,-0.8305025,2016-12-26 23:07:28,44.55664451931036
-0.2681506,-0.92895025,9.986216,-0.020725785,0.0032724924,-0.008726646,1.92,-0.40462008,-0.9816227,9.749189,0.1364695,0.05267244,0.23702596,-0.002276035,0.0580682,-0.82985836,2016-12-26 23:07:29,35.21146804389208
-0.4261679,-0.9911995,10.15381,-0.046905722,0.009817477,-0.0054541538,0.0,-0.4165911,-0.9576807,9.751583,-0.009576807,-0.033518825,0.40222588,4.7047436E-4,0.06034225,-0.8286509,2016-12-26 23:07:30,31.1563339057022
-0.33518824,-0.79008657,10.268731,0.09599311,-0.031634092,0.023998277,12.799999,-0.40462008,-0.82121116,9.765948,0.06943185,0.031124622,0.50278234,0.0050045643,0.056575574,-0.82720304,2016-12-26 23:07:31,33.95741628774944
-0.6751649,-1.5227122,10.259154,-0.3152501,-0.086175635,-0.015271631,8.32,-0.46686932,-1.2665327,9.713276,-0.20829555,-0.25617957,0.545878,-0.003963914,0.07938106,-0.82714427,2016-12-26 23:07:32,45.4242298929354
-0.45489833,-1.067814,9.895236,0.062177356,0.06872234,0.0,10.88,-0.45968673,-1.2425907,9.718064,0.0047884034,0.17477672,0.17717093,-0.0040211156,0.078430675,-0.8265693,2016-12-26 23:07:33,39.927987424979456
-0.2633622,-1.3982137,9.856929,-0.05454154,-0.03926991,0.0010908308,11.5199995,-0.50996494,-1.2330139,9.715671,0.24660277,-0.16519992,0.1412579,-0.002983369,0.07812173,-0.8264824,2016-12-26 23:07:34,34.533272603233065
-0.545878,-1.2497733,9.976639,-0.053450707,-0.035997417,0.0,13.44,-0.62009823,-1.0151415,9.734824,0.074220255,-0.23463176,0.24181437,0.0069618747,0.07093877,-0.82797515,2016-12-26 23:07:35,27.862114710038224
-0.5554548,-0.78529817,10.187328,0.06544985,0.06435902,0.009817477,12.16,-0.5722142,-0.81163436,9.7563715,0.016759412,0.02633622,0.4309563,0.009731207,0.05998988,-0.8276683,2016-12-26 23:07:36,34.13041877580945
-0.56982,-0.8523358,9.991004,-0.023998277,-0.0141808,0.0032724924,11.5199995,-0.5793968,-0.7613561,9.76116,0.009576807,-0.090979666,0.22984336,0.010744892,0.057348505,-0.8277517,2016-12-26 23:07:37,24.374433572732535
-0.81881696,-0.8714894,10.512939,-0.049087387,0.035997417,-0.05563237,13.44,-0.51954174,-1.3024458,9.706094,-0.29927522,0.4309563,0.80684596,-0.007926911,0.07801641,-0.82670486,2016-12-26 23:07:38,35.22951212125721
0.5363012,-1.4460979,9.995792,-0.0109083075,0.01308997,-0.0021816615,6.3999996,0.48602295,-1.3790601,9.698911,0.050278235,-0.06703765,0.29688102,-0.05370984,0.05142406,-0.81977886,2016-12-26 23:07:39,29.636629103804072
0.44532153,-1.4700398,9.861717,-0.020725785,-0.038179077,0.0032724924,7.04,0.4141969,-1.376666,9.701305,0.031124622,-0.093373865,0.1604115,-0.05103607,0.053167228,-0.8196399,2016-12-26 23:07:40,27.548116290540257
0.50757074,-1.661576,9.967062,-0.032724924,0.015271631,0.0032724924,6.3999996,0.61770403,-1.3790601,9.691729,-0.110133275,-0.2825158,0.2753332,-0.059994325,0.04712779,-0.81869996,2016-12-26 23:07:41,32.371550533324644
0.5602432,-1.5131354,10.019734,0.018544123,0.009817477,0.018544123,6.3999996,0.581791,-1.340753,9.698911,-0.021547815,-0.17238252,0.320823,-0.057665974,0.046443,-0.8188664,2016-12-26 23:07:42,33.47768155142637
0.59376204,-1.5801731,9.94312,-0.02727077,-0.0076358155,0.0021816615,5.12,0.6464345,-1.3215994,9.696517,-0.05267244,-0.25857377,0.24660277,-0.060196776,0.0437583,-0.81857735,2016-12-26 23:07:43,29.52248427416616
0.62728083,-1.460463,9.847352,0.009817477,-0.004363323,-0.004363323,5.12,0.63206923,-1.328782,9.696517,-0.0047884034,-0.1316811,0.15083471,-0.06012766,0.044364132,-0.81846195,2016-12-26 23:07:44,28.59113268076191
0.51235914,-1.4987702,9.947908,-0.009817477,-0.0021816615,0.0,5.12,0.545878,-1.3311762,9.701305,-0.033518825,-0.16759412,0.24660277,-0.056966875,0.046931226,-0.8183644,2016-12-26 23:07:45,30.158651250779673
0.59855044,-1.4987702,9.91439,-0.0021816615,-0.016362462,-0.0109083075,5.7599998,0.61530983,-1.352724,9.694122,-0.016759412,-0.14604631,0.22026655,-0.060897388,0.045631677,-0.818722,2016-12-26 23:07:46,34.59696174064775
0.61291564,-1.4987702,10.038888,-0.0076358155,0.009817477,0.004363323,5.7599998,0.7086837,-1.3718776,9.6845455,-0.095768064,-0.12689269,0.35434186,-0.06537062,0.043677814,-0.81901574,2016-12-26 23:07:47,40.63559299710286
0.5410896,-1.4460979,9.837775,-0.0032724924,0.016362462,0.0109083075,5.7599998,0.5386954,-1.3455414,9.698911,0.0023942017,-0.10055647,0.1388637,-0.05757764,0.04745456,-0.8197308,2016-12-26 23:07:48,35.72216473256439
0.5746084,-1.388637,9.82341,0.008726646,-0.017453292,0.008726646,5.12,0.5482722,-1.3575124,9.696517,0.02633622,-0.031124622,0.12689269,-0.058740996,0.047464468,-0.8192915,2016-12-26 23:07:49,35.37455194803661
0.63206923,-1.6567876,9.775525,-0.0054541538,-0.0032724924,0.0032724924,5.12,0.60573304,-1.364695,9.694122,0.02633622,-0.29209262,0.08140286,-0.061771464,0.045730587,-0.81888235,2016-12-26 23:07:50,35.74931013563948
0.47405192,-1.3838485,9.82341,0.0032724924,0.05454154,-0.0054541538,5.12,0.50757074,-1.3599066,9.698911,-0.033518825,-0.023942016,0.12449849,-0.057602603,0.048298594,-0.8199508,2016-12-26 23:07:51,33.73172240974373
0.5410896,-1.4556746,9.832987,0.0032724924,0.016362462,-0.0076358155,5.7599998,0.5267244,-1.3742718,9.696517,0.01436521,-0.08140286,0.1364695,-0.05913034,0.04827836,-0.8207921,2016-12-26 23:07:52,34.106359592838785
0.7326257,-1.3599066,9.895236,0.0032724924,0.015271631,0.0010908308,5.7599998,0.5291186,-1.3718776,9.696517,0.20350714,0.011971008,0.19871874,-0.05959203,0.04781232,-0.8206563,2016-12-26 23:07:54,33.57815383715456
0.545878,-1.5705963,9.856929,-0.0010908308,0.040360738,-0.009817477,5.7599998,0.4381389,-1.364695,9.701305,0.107739076,-0.20590134,0.15562311,-0.056083657,0.049717173,-0.8208011,2016-12-26 23:07:55,32.75331993599046
0.59855044,-1.4317327,10.010158,0.0109083075,-0.0283616,-0.0032724924,5.12,0.44532153,-1.3694834,9.701305,0.15322891,-0.062249243,0.30885202,-0.057017736,0.04938128,-0.8211304,2016-12-26 23:07:56,35.0837202012446
0.6799533,-1.4748282,9.947908,-0.0021816615,-0.011999139,0.0054541538,5.12,0.60333884,-1.412579,9.68694,0.076614454,-0.062249243,0.260968,-0.06519874,0.04632205,-0.8203968,2016-12-26 23:07:57,32.16615584400926
0.49799395,-1.4700398,9.837775,-0.01308997,0.02727077,0.006544985,5.12,0.6368576,-1.4149733,9.6845455,-0.1388637,-0.055066638,0.15322891,-0.06658015,0.04537341,-0.82056254,2016-12-26 23:07:58,31.353076065823394
0.6991069,-1.4508862,10.014946,-0.008726646,-0.045814894,-0.0032724924,5.12,0.7278373,-1.4221559,9.677363,-0.02873042,-0.02873042,0.33758244,-0.07018756,0.04300503,-0.8204411,2016-12-26 23:07:59,28.894231011989984
0.6512229,-1.4221559,9.919178,0.0010908308,-0.015271631,0.0054541538,5.12,0.8643068,-1.4437037,9.662998,-0.21308395,0.021547815,0.25617957,-0.07600218,0.04012304,-0.8201473,2016-12-26 23:08:00,30.700178454786663
0.6560113,-1.3311762,9.885659,0.0141808,0.025089107,0.0,5.12,0.89064306,-1.4652514,9.655815,-0.23463176,0.1340753,0.22984336,-0.076857686,0.04061948,-0.820164,2016-12-26 23:08:01,54.08928600011811
0.5746084,-1.4317327,9.928755,-0.0032724924,0.034906585,0.0109083075,5.12,0.78290397,-1.4389153,9.67018,-0.20829555,0.007182605,0.25857377,-0.07081344,0.042668045,-0.820592,2016-12-26 23:08:02,37.643648338272484
0.6655881,-1.4173675,10.09156,0.0,-0.0076358155,0.016362462,5.12,0.82360536,-1.4700398,9.660604,-0.15801731,0.05267244,0.4309563,-0.07289678,0.042970363,-0.8203625,2016-12-26 23:08:03,40.047007677782425
0.59855044,-1.3742718,10.010158,0.01308997,-0.0076358155,-0.011999139,5.12,0.8283938,-1.4700398,9.660604,-0.22984336,0.095768064,0.34955344,-0.072604544,0.04296287,-0.8209732,2016-12-26 23:08:04,33.3813638230528
0.6368576,-1.4413095,9.775525,0.008726646,0.0141808,0.0054541538,5.12,0.7182605,-1.4532804,9.672575,-0.08140286,0.011971008,0.10295067,-0.067008,0.04545454,-0.8217449,2016-12-26 23:08:05,29.503557253322658
0.7230489,-1.4030021,9.8042555,-0.0076358155,-0.009817477,-0.0021816615,5.12,0.7613561,-1.4772224,9.665392,-0.038307227,0.074220255,0.1388637,-0.06911229,0.045257553,-0.8220297,2016-12-26 23:08:06,27.724378454037737
0.7757214,-1.412579,9.904813,-0.023998277,-0.011999139,-0.0010908308,5.12,0.7733272,-1.4772224,9.665392,0.0023942017,0.06464344,0.23942018,-0.069442354,0.044772483,-0.8220249,2016-12-26 23:08:07,28.074983843353877
0.47884035,-1.3982137,9.876082,-0.0021816615,0.0054541538,0.0032724924,5.12,0.59136784,-1.4341269,9.6845455,-0.11252748,0.035913024,0.19153613,-0.0605214,0.04802855,-0.82237333,2016-12-26 23:08:08,29.290408824459323
0.6368576,-1.436521,9.938332,-0.0109083075,0.0,-0.0021816615,5.12,0.6512229,-1.4460979,9.679757,-0.01436521,0.009576807,0.25857377,-0.0634488,0.04658385,-0.82243145,2016-12-26 23:08:09,32.51869802691898
0.59855044,-1.5035586,9.832987,-0.0054541538,0.015271631,-0.016362462,5.12,0.6631939,-1.4269443,9.679757,-0.06464344,-0.076614454,0.15322891,-0.0636459,0.045437638,-0.82304204,2016-12-26 23:08:10,27.755983133165234
0.49320555,-1.5179238,9.928755,0.0076358155,0.0109083075,-0.0109083075,5.12,0.49799395,-1.412579,9.691729,-0.0047884034,-0.10534488,0.23702596,-0.056581475,0.04940311,-0.8229807,2016-12-26 23:08:11,28.497405112220427
0.6847417,-1.4460979,9.871294,0.0021816615,0.0032724924,0.0,5.12,0.5363012,-1.4413095,9.68694,0.14844051,-0.0047884034,0.18435353,-0.05944962,0.049186073,-0.8226916,2016-12-26 23:08:12,33.6280083751204
0.7134721,-1.5370775,9.885659,0.008726646,0.019634955,0.0021816615,5.12,0.50038815,-1.448492,9.68694,0.21308395,-0.088585466,0.19871874,-0.0585943,0.050241567,-0.82291234,2016-12-26 23:08:13,29.3773410781141
0.59855044,-1.4030021,10.0341,0.0010908308,0.021816615,0.0109083075,5.12,0.4189853,-1.4437037,9.691729,0.17956513,0.04070143,0.34237084,-0.055709034,0.051837564,-0.82295525,2016-12-26 23:08:14,29.415290309768125
0.51714754,-1.4077905,9.82341,0.01308997,-0.032724924,0.0,5.12,0.36152446,-1.4221559,9.696517,0.15562311,0.01436521,0.12689269,-0.053453255,0.052037437,-0.8226688,2016-12-26 23:08:15,28.926776783146558
0.6943185,-1.460463,9.7563715,-0.01308997,0.016362462,-0.0021816615,5.12,0.4285621,-1.4389153,9.691729,0.2657564,-0.021547815,0.06464344,-0.05743908,0.050344147,-0.8220528,2016-12-26 23:08:16,30.88889541319052
0.7086837,-1.3359646,9.813833,0.01308997,0.0076358155,0.0109083075,5.12,0.46208093,-1.4460979,9.689334,0.24660277,0.110133275,0.12449849,-0.05963604,0.04931312,-0.821393,2016-12-26 23:08:17,37.24477093886013
0.5650316,-1.4173675,10.024523,-0.009817477,0.017453292,0.0032724924,5.12,0.33997664,-1.436521,9.696517,0.22505496,0.019153614,0.32800564,-0.05485277,0.051919356,-0.82155156,2016-12-26 23:08:18,34.54469134390206
0.6512229,-1.4796166,9.909601,-0.0141808,-0.022907447,0.0021816615,5.7599998,0.32561144,-1.4460979,9.694122,0.32561144,-0.033518825,0.21547815,-0.0551012,0.05229433,-0.82131165,2016-12-26 23:08:19,36.596147660712795
0.5746084,-1.4508862,9.794679,0.0054541538,0.009817477,-0.0032724924,5.7599998,0.39264908,-1.460463,9.689334,0.18195933,0.009576807,0.10534488,-0.058975697,0.05057273,-0.82106316,2016-12-26 23:08:20,33.67531016993339
0.5650316,-1.4508862,10.067618,0.015271631,0.03926991,0.006544985,5.7599998,0.29927522,-1.4460979,9.696517,0.2657564,-0.0047884034,0.37110126,-0.055306453,0.052115303,-0.82133645,2016-12-26 23:08:21,24.826890168608614
0.59855044,-1.5753847,9.957485,-0.0021816615,-0.006544985,-0.0010908308,5.7599998,0.23223756,-1.4508862,9.696517,0.36631286,-0.12449849,0.260968,-0.05330422,0.053746197,-0.82148594,2016-12-26 23:08:22,31.931727346316777
0.81881696,-1.4173675,9.947908,0.0141808,-0.029452432,0.0054541538,5.7599998,0.4357447,-1.496376,9.682152,0.38307226,0.079008654,0.2657564,-0.063624285,0.04932356,-0.82106495,2016-12-26 23:08:23,21.728460836051614
-0.35913026,-0.94810385,9.722853,-0.119991384,-0.030543262,-0.0141808,11.5199995,-0.62488663,-0.9816227,9.737218,0.2657564,0.033518825,-0.01436521,-0.0035953578,0.058101118,-0.826653,2016-12-26 23:08:24,23.215293907256065
-0.5650316,-0.93373865,9.540894,-0.05563237,-0.051269047,0.0054541538,14.719999,-0.79726917,-0.6392518,9.753978,0.23223756,-0.29448682,-0.21308395,0.0136784855,0.04867415,-0.8264266,2016-12-26 23:08:25,29.227643715260044
0.1388637,-0.36870706,9.85214,0.058904864,0.07526732,-0.034906585,5.7599998,0.45250413,-0.4357447,9.787497,-0.31364042,0.06703765,0.06464344,-0.032711037,0.0048529403,-0.8321944,2016-12-26 23:08:26,36.7786291485878
1.1587936,-1.7381904,10.019734,0.0032724924,-1.2130039,0.20398536,4.48,1.5921441,-1.6352397,9.5385,-0.4333505,-0.10295067,0.48123455,-0.115167454,0.024318654,-0.8270846,2016-12-26 23:08:27,24.1229601078018
-0.30166942,-5.118803,9.009381,0.0076358155,0.11126474,-0.09162979,0.0,0.7038953,-4.309563,8.781932,-1.0055647,-0.80924016,0.22744916,-0.19328943,0.12128366,-0.6315542,2016-12-26 23:08:28,28.61585433978606
1.8435353,-0.9720459,9.469068,0.022907447,-0.21489367,0.0,0.0,2.0446482,-0.9935937,9.540894,-0.20111294,0.021547815,-0.07182605,-0.111880094,-0.016551942,-0.7983168,2016-12-26 23:08:29,36.68926894448009
2.1978772,-1.1827357,9.770737,0.006544985,-0.0109083075,-0.01308997,0.0,2.432509,-1.2497733,9.41879,-0.23463176,0.06703765,0.35194764,-0.13664213,-0.015402608,-0.79695696,2016-12-26 23:08:30,29.60985790435222
2.2170308,-1.1875241,9.627085,-0.009817477,-0.019634955,0.0,0.0,2.4732103,-1.2210429,9.411607,-0.25617957,0.033518825,0.21547815,-0.13733546,-0.01626416,-0.7965382,2016-12-26 23:08:31,24.427736415118204
2.1691468,-1.1827357,9.698911,0.0021816615,-0.0283616,0.0,0.0,2.5019407,-1.2258313,9.404425,-0.33279404,0.04309563,0.29448682,-0.13804463,-0.015503213,-0.7957168,2016-12-26 23:08:32,32.87157646046253
2.3127987,-1.0295067,9.6845455,-0.0054541538,0.0109083075,0.0021816615,0.0,2.504335,-1.2114661,9.404425,-0.19153613,0.18195933,0.2801216,-0.13769376,-0.01605837,-0.79550076,2016-12-26 23:08:33,24.259246219989503
2.1691468,-1.2258313,9.631873,-0.0054541538,-0.0021816615,-0.009817477,0.0,2.4779987,-1.1994951,9.414001,-0.30885202,-0.02633622,0.21787235,-0.13709095,-0.016902585,-0.795725,2016-12-26 23:08:34,35.45183368215406
2.2744915,-1.1444284,9.61272,0.015271631,-0.0032724924,-0.0076358155,0.0,2.4420857,-1.2306197,9.41879,-0.16759412,0.08619126,0.19393034,-0.13706742,-0.015470337,-0.79571605,2016-12-26 23:08:35,21.29797271228629
2.2505496,-1.1061212,9.636662,0.0141808,-0.015271631,0.0010908308,0.0,2.4061728,-1.2042835,9.43076,-0.15562311,0.09816227,0.20590134,-0.13511284,-0.01613452,-0.7960913,2016-12-26 23:08:36,29.94476628704518
2.1452048,-1.2354081,9.8042555,-0.006544985,-0.0010908308,0.0,0.0,2.4037786,-1.1851299,9.435549,-0.25857377,-0.050278235,0.36870706,-0.134587,-0.017545272,-0.7961785,2016-12-26 23:08:38,33.062364348888615
2.1691468,-1.2689269,9.809045,-0.0054541538,-0.033815753,-0.0032724924,0.0,2.4061728,-1.1899183,9.433155,-0.23702596,-0.079008654,0.37588966,-0.13499902,-0.017989803,-0.79626864,2016-12-26 23:08:39,26.365547571774375
2.207454,-1.1013328,9.655815,0.006544985,0.0054541538,-0.0141808,0.0,2.4229321,-1.1587936,9.433155,-0.21547815,0.05746084,0.22266077,-0.13477433,-0.02030982,-0.7961732,2016-12-26 23:08:40,26.067059792209847
2.1787236,-1.091756,9.689334,0.0109083075,0.011999139,-0.008726646,0.0,2.3774424,-1.1803415,9.442732,-0.19871874,0.088585466,0.24660277,-0.13352464,-0.018228818,-0.79661846,2016-12-26 23:08:41,28.850005719785294
2.183512,-1.13964,9.7803135,0.0032724924,-0.004363323,0.0010908308,0.0,2.3415294,-1.2066777,9.44752,-0.15801731,0.06703765,0.33279404,-0.13275927,-0.016449358,-0.7969204,2016-12-26 23:08:42,33.210203154546754
2.135628,-1.1779473,9.76116,-0.0141808,0.016362462,0.0,0.0,2.3295584,-1.2138603,9.449914,-0.19393034,0.035913024,0.31124622,-0.13253576,-0.016132526,-0.79702455,2016-12-26 23:08:43,31.298999275988827
2.2026656,-1.2066777,9.775525,-0.0076358155,0.0054541538,-0.0021816615,0.0,2.3008277,-1.2258313,9.454702,-0.09816227,0.019153614,0.320823,-0.13170332,-0.015008051,-0.7975756,2016-12-26 23:08:44,34.77016287535824
2.1212628,-1.2162545,9.722853,-0.0021816615,0.0021816615,-0.006544985,0.0,2.2816741,-1.2425907,9.457097,-0.1604115,0.02633622,0.2657564,-0.13139391,-0.014136467,-0.797746,2016-12-26 23:08:45,32.44214735466238
2.1547816,-1.2258313,9.674969,-0.006544985,0.02617994,0.0,0.0,2.27928,-1.2330139,9.459491,-0.12449849,0.007182605,0.21547815,-0.13099769,-0.014694903,-0.79781044,2016-12-26 23:08:46,32.77118589396175
2.3942018,-1.1300632,9.555259,-0.0032724924,-0.0076358155,-0.0021816615,0.0,2.27928,-1.2617443,9.454702,0.11492168,0.1316811,0.10055647,-0.1318756,-0.013782982,-0.79847676,2016-12-26 23:08:47,33.8455165129352
2.2840683,-1.1587936,9.646238,-0.0054541538,0.015271631,0.018544123,0.0,2.2625206,-1.2425907,9.461885,0.021547815,0.08379706,0.18435353,-0.13052927,-0.014346484,-0.7984674,2016-12-26 23:08:48,26.162763509479184
2.2266076,-1.1971009,9.82341,-0.0010908308,-0.01308997,0.0076358155,1.28,2.255338,-1.2138603,9.466674,-0.02873042,0.016759412,0.35673606,-0.12936914,-0.015563313,-0.79848987,2016-12-26 23:08:49,31.93609197262312
2.1739352,-1.1348516,9.885659,-0.0021816615,0.0,-0.0010908308,0.0,2.27928,-1.2162545,9.461885,-0.10534488,0.08140286,0.4237737,-0.13038798,-0.016566861,-0.79818267,2016-12-26 23:08:50,32.700695622578145
2.1260512,-1.2114661,9.78989,-0.0109083075,-0.0076358155,-0.011999139,0.0,2.2697031,-1.2042835,9.464279,-0.1436521,-0.007182605,0.32561144,-0.12953521,-0.017062444,-0.7975054,2016-12-26 23:08:51,22.380042615678107
2.2888567,-1.2354081,9.722853,-0.0032724924,0.017453292,0.0141808,0.0,2.2649148,-1.2090719,9.466674,0.023942016,-0.02633622,0.25617957,-0.12943506,-0.016874272,-0.79746604,2016-12-26 23:08:52,27.035886892159816
2.1787236,-1.1061212,9.785102,0.0054541538,0.0021816615,0.0021816615,0.0,2.2744915,-1.2114661,9.464279,-0.095768064,0.10534488,0.320823,-0.12992193,-0.017213196,-0.79717696,2016-12-26 23:08:53,36.66427883184258
2.2026656,-1.2258313,9.61272,0.006544985,-0.0021816615,0.0032724924,0.0,2.2840683,-1.1899183,9.464279,-0.08140286,-0.035913024,0.14844051,-0.12964666,-0.01840895,-0.79735345,2016-12-26 23:08:54,36.39615961441463
2.27928,-1.2880806,9.722853,-0.006544985,-0.006544985,-0.01308997,0.0,2.2984335,-1.1971009,9.459491,-0.019153614,-0.090979666,0.2633622,-0.13037096,-0.018720035,-0.79709864,2016-12-26 23:08:55,26.736773848509493
2.3223755,-1.1348516,9.8042555,0.0032724924,0.004363323,0.0032724924,0.0,2.2888567,-1.2138603,9.459491,0.033518825,0.079008654,0.34476504,-0.1303851,-0.01778439,-0.7969901,2016-12-26 23:08:56,31.792081739035982
2.3223755,-1.1109096,9.622296,-0.015271631,0.0109083075,0.0141808,0.0,2.2840683,-1.2282255,9.459491,0.038307227,0.11731588,0.16280572,-0.1305406,-0.01707584,-0.79715014,2016-12-26 23:08:57,33.858988323261116
2.2601264,-1.2018893,9.61272,-0.004363323,0.0076358155,-0.0010908308,0.0,2.291251,-1.2449849,9.454702,-0.031124622,0.04309563,0.15801731,-0.13119891,-0.016749863,-0.797141,2016-12-26 23:08:58,25.556183504898307
2.2505496,-1.2162545,9.67018,-0.0054541538,0.023998277,0.0010908308,0.0,2.27928,-1.2497733,9.457097,-0.02873042,0.033518825,0.21308395,-0.13076559,-0.016342137,-0.797475,2016-12-26 23:08:59,39.18174771627608
2.2409728,-1.163582,9.718064,-0.004363323,-0.009817477,0.009817477,0.0,2.2768857,-1.2473791,9.457097,-0.035913024,0.08379706,0.260968,-0.1304382,-0.01668654,-0.79686797,2016-12-26 23:09:00,31.622712185437173
2.183512,-1.2976574,9.794679,0.009817477,0.004363323,0.011999139,0.0,2.2625206,-1.2641385,9.459491,-0.079008654,-0.033518825,0.33518824,-0.13023469,-0.015677053,-0.7971937,2016-12-26 23:09:01,32.12582641545079
2.1739352,-1.1875241,9.665392,0.016362462,-0.01308997,-0.0076358155,1.28,2.267309,-1.271321,9.457097,-0.093373865,0.08379706,0.20829555,-0.1304343,-0.015627176,-0.7975435,2016-12-26 23:09:02,32.99020814808032
2.27928,-1.1300632,9.832987,-0.0021816615,0.008726646,-0.0076358155,1.28,2.2601264,-1.283292,9.457097,0.019153614,0.15322891,0.37588966,-0.13039014,-0.01506038,-0.7981603,2016-12-26 23:09:03,24.375986388497175
2.27928,-1.2066777,9.727641,0.0021816615,0.0109083075,0.011999139,3.1999998,2.243367,-1.283292,9.461885,0.035913024,0.076614454,0.2657564,-0.12959579,-0.014877871,-0.7980167,2016-12-26 23:09:04,36.11583697235317
2.3080103,-1.2880806,9.775525,-0.011999139,-0.021816615,0.004363323,0.0,2.2649148,-1.2545617,9.459491,0.04309563,-0.033518825,0.31603462,-0.12950915,-0.016878832,-0.7979412,2016-12-26 23:09:05,22.49529559018331
2.2649148,-1.2785037,9.665392,0.011999139,-0.0076358155,0.0,0.0,2.267309,-1.2737153,9.457097,-0.0023942017,-0.0047884034,0.20829555,-0.1301005,-0.016378667,-0.79742694,2016-12-26 23:09:06,35.34607474534253
2.2505496,-1.1540052,9.694122,-0.019634955,0.0010908308,-0.0054541538,1.28,2.2936451,-1.283292,9.449914,-0.04309563,0.12928689,0.24420857,-0.1313263,-0.016797993,-0.7974047,2016-12-26 23:09:07,22.983890719541456
2.3080103,-1.0534488,9.6845455,0.009817477,0.0076358155,-0.004363323,0.0,2.315193,-1.2521675,9.44752,-0.007182605,0.19871874,0.23702596,-0.1310367,-0.018828273,-0.79736567,2016-12-26 23:09:08,23.6332987888716
2.1260512,-1.1348516,9.588778,0.006544985,-0.019634955,0.0076358155,0.0,2.3080103,-1.2593501,9.449914,-0.18195933,0.12449849,0.1388637,-0.13079688,-0.018335856,-0.79751277,2016-12-26 23:09:09,37.239206408230174
2.135628,-1.1300632,9.727641,0.0054541538,0.006544985,0.0,0.0,2.3056161,-1.2449849,9.452309,-0.16998832,0.11492168,0.2753332,-0.13006827,-0.018754251,-0.7974225,2016-12-26 23:09:10,25.80549602825293
2.1739352,-1.0773908,9.809045,-0.0141808,0.0010908308,0.0010908308,0.0,2.2840683,-1.2521675,9.454702,-0.110133275,0.17477672,0.35434186,-0.12936789,-0.017872997,-0.79747593,2016-12-26 23:09:11,23.342652143639878
2.3223755,-1.1827357,9.560047,0.0010908308,-0.0054541538,-0.0032724924,1.28,2.3104045,-1.2737153,9.445126,0.011971008,0.090979666,0.11492168,-0.1310947,-0.01785221,-0.7972234,2016-12-26 23:09:12,22.116988592195366
2.2697031,-1.2545617,9.900024,-0.0021816615,0.020725785,-0.01308997,1.92,2.3175871,-1.2665327,9.445126,-0.047884032,0.011971008,0.45489833,-0.1310116,-0.018422231,-0.7971291,2016-12-26 23:09:13,34.7579886762512
2.303222,-1.0965444,9.722853,0.01308997,-0.015271631,0.0054541538,0.0,2.3056161,-1.2473791,9.449914,-0.0023942017,0.15083471,0.272939,-0.12978297,-0.018657748,-0.7975568,2016-12-26 23:09:14,23.80192391715644
2.1883004,-1.2114661,9.660604,0.0021816615,0.0010908308,-0.004363323,0.0,2.3175871,-1.2641385,9.445126,-0.12928689,0.05267244,0.21547815,-0.13069111,-0.018328853,-0.79749733,2016-12-26 23:09:15,26.16433937960846
2.3511062,-1.2306197,9.636662,0.0109083075,-0.009817477,-0.0032724924,0.0,2.3391352,-1.2617443,9.440337,0.011971008,0.031124622,0.19632454,-0.1313557,-0.01918497,-0.79701275,2016-12-26 23:09:16,23.069876373033434
2.2170308,-1.2306197,9.832987,0.011999139,-0.006544985,0.0021816615,0.0,2.3319526,-1.2545617,9.442732,-0.11492168,0.023942016,0.39025488,-0.13067004,-0.019081198,-0.7972664,2016-12-26 23:09:17,25.406630983770157
2.2122424,-1.3024458,9.607931,0.01308997,-0.0054541538,-0.0010908308,0.0,2.348712,-1.2761095,9.437943,-0.1364695,-0.02633622,0.16998832,-0.131794,-0.018635873,-0.7973956,2016-12-26 23:09:18,35.49333100357029
2.1787236,-1.1779473,9.660604,-0.0032724924,-0.011999139,0.01308997,0.0,2.336741,-1.2737153,9.440337,-0.15801731,0.095768064,0.22026655,-0.13111305,-0.018502064,-0.7967886,2016-12-26 23:09:19,30.911310851801687
2.3654714,-1.163582,9.651027,0.0054541538,0.006544985,-0.004363323,0.0,2.3391352,-1.2449849,9.442732,0.02633622,0.08140286,0.20829555,-0.1301147,-0.019577853,-0.7970059,2016-12-26 23:09:20,32.90360673781513
2.1308396,-1.0965444,9.607931,-0.021816615,-0.0076358155,-0.009817477,0.0,2.3558946,-1.2737153,9.435549,-0.22505496,0.17717093,0.17238252,-0.13157353,-0.018808313,-0.7969787,2016-12-26 23:09:21,24.406073839065733
2.2026656,-1.283292,9.655815,-0.006544985,-0.0109083075,0.0010908308,1.92,2.3343468,-1.271321,9.440337,-0.1316811,-0.011971008,0.21547815,-0.13044237,-0.018239502,-0.79706365,2016-12-26 23:09:22,29.516106886226638
2.2266076,-1.2306197,9.847352,0.0010908308,-0.0141808,-0.009817477,0.0,2.3750482,-1.2617443,9.43076,-0.14844051,0.031124622,0.4165911,-0.1316587,-0.019873649,-0.79679465,2016-12-26 23:09:24,21.9882884668848
2.2505496,-1.1348516,9.660604,0.0,-0.004363323,-0.0054541538,0.0,2.3870192,-1.2737153,9.428367,-0.1364695,0.1388637,0.23223756,-0.13226625,-0.019725982,-0.79677397,2016-12-26 23:09:25,34.51696267857935
2.2361844,-1.340753,9.82341,-0.009817477,-0.006544985,0.0010908308,1.28,2.3582888,-1.2952632,9.43076,-0.12210429,-0.045489833,0.39264908,-0.13143286,-0.01798996,-0.796657,2016-12-26 23:09:26,23.03083507990802
2.2936451,-1.1492168,9.770737,-0.0032724924,-0.0109083075,0.0109083075,0.0,2.3343468,-1.3024458,9.437943,-0.04070143,0.15322891,0.33279404,-0.13039175,-0.01703465,-0.79638296,2016-12-26 23:09:27,26.103651222987892
2.2266076,-1.13964,9.689334,0.0,-0.0054541538,0.004363323,0.0,2.3319526,-1.3239936,9.433155,-0.10534488,0.18435353,0.25617957,-0.13087878,-0.016238168,-0.7963125,2016-12-26 23:09:28,23.67293785754162
2.2122424,-1.1971009,9.674969,0.01308997,0.0,-0.006544985,1.28,2.3295584,-1.3024458,9.437943,-0.11731588,0.10534488,0.23702596,-0.12985623,-0.017120093,-0.7967019,2016-12-26 23:09:29,27.719532193244497
2.231396,-1.2497733,9.818622,-0.008726646,-0.0076358155,-0.009817477,0.0,2.3391352,-1.3024458,9.435549,-0.107739076,0.05267244,0.38307226,-0.13021728,-0.017331593,-0.79724497,2016-12-26 23:09:30,31.466654010220772
2.1739352,-1.13964,9.564836,-0.015271631,-0.0109083075,0.0021816615,1.28,2.3702598,-1.3120226,9.425972,-0.19632454,0.17238252,0.1388637,-0.13167424,-0.018021613,-0.7967084,2016-12-26 23:09:31,31.731941623957105
2.1691468,-1.067814,9.7324295,-0.009817477,-0.0109083075,0.0054541538,0.0,2.3247697,-1.2880806,9.440337,-0.15562311,0.22026655,0.29209262,-0.1288527,-0.017745622,-0.7970551,2016-12-26 23:09:32,29.282517890691654
2.2840683,-1.1683705,9.765948,-0.01308997,-0.0109083075,0.0010908308,0.0,2.3319526,-1.2880806,9.437943,-0.047884032,0.11971009,0.32800564,-0.12910831,-0.017981924,-0.7968638,2016-12-26 23:09:33,33.244303680966134
2.2361844,-1.2210429,9.856929,-0.0032724924,-0.0076358155,0.0054541538,0.0,2.3175871,-1.3215994,9.437943,-0.08140286,0.10055647,0.4189853,-0.12945043,-0.016300041,-0.7968341,2016-12-26 23:09:34,31.23663841475853
2.2697031,-1.2545617,9.660604,0.0,0.0,-0.008726646,1.92,2.3247697,-1.352724,9.43076,-0.055066638,0.09816227,0.22984336,-0.13064814,-0.015273221,-0.7972283,2016-12-26 23:09:35,29.27915455671574
2.2170308,-1.1683705,9.607931,0.0,0.004363323,0.0032724924,0.0,2.3223755,-1.3192052,9.437943,-0.10534488,0.15083471,0.16998832,-0.12942588,-0.016874988,-0.7970247,2016-12-26 23:09:36,31.416071831528882
2.2026656,-1.1875241,9.555259,-0.0032724924,0.033815753,-0.009817477,0.0,2.3319526,-1.3311762,9.433155,-0.12928689,0.1436521,0.12210429,-0.13001905,-0.016719494,-0.79703665,2016-12-26 23:09:37,29.909979742681287
2.1691468,-1.1348516,9.655815,0.006544985,0.0109083075,0.0021816615,0.0,2.3080103,-1.352724,9.435549,-0.1388637,0.21787235,0.22026655,-0.12961444,-0.015307348,-0.7970504,2016-12-26 23:09:38,27.34524809326875
2.207454,-1.163582,9.7803135,0.0032724924,-0.0032724924,0.0,0.0,2.327164,-1.328782,9.435549,-0.11971009,0.16519992,0.34476504,-0.12964614,-0.016950041,-0.79694235,2016-12-26 23:09:39,26.285826162551444
2.2649148,-1.1827357,9.8042555,-0.0054541538,-0.008726646,0.01308997,0.0,2.3558946,-1.3551182,9.423578,-0.090979666,0.17238252,0.38067806,-0.13144752,-0.016845275,-0.79710865,2016-12-26 23:09:40,28.36262121970306
2.2936451,-1.1204864,9.722853,0.0021816615,0.016362462,0.006544985,1.92,2.3582888,-1.3551182,9.423578,-0.06464344,0.23463176,0.29927522,-0.13140137,-0.017138764,-0.7964957,2016-12-26 23:09:41,26.319782749652166
2.2218192,-1.13964,9.746795,0.0141808,-0.0054541538,-0.004363323,0.0,2.3535004,-1.3335704,9.428367,-0.1316811,0.19393034,0.3184288,-0.13026346,-0.017872557,-0.7966597,2016-12-26 23:09:42,25.186373014699406
2.1883004,-1.1971009,9.799467,-0.0109083075,0.018544123,0.0054541538,0.0,2.3558946,-1.3503298,9.423578,-0.16759412,0.15322891,0.37588966,-0.13073461,-0.017294813,-0.7970338,2016-12-26 23:09:43,28.987731597058605
2.1643584,-1.0773908,9.651027,0.0,-0.022907447,-0.004363323,2.56,2.3678656,-1.3359646,9.423578,-0.20350714,0.25857377,0.22744916,-0.13070427,-0.018235013,-0.7968824,2016-12-26 23:09:44,31.374741166485045
2.2457612,-1.1875241,9.770737,-0.0010908308,0.0010908308,0.004363323,0.0,2.3798366,-1.3551182,9.41879,-0.1340753,0.16759412,0.35194764,-0.13149118,-0.017860811,-0.79667556,2016-12-26 23:09:45,28.767204726384094
2.1883004,-1.2066777,9.631873,-0.008726646,0.0076358155,0.004363323,0.0,2.4013844,-1.3551182,9.411607,-0.21308395,0.14844051,0.22026655,-0.13221726,-0.018576346,-0.79659003,2016-12-26 23:09:46,32.4204631217141
2.1643584,-1.2401965,9.809045,-0.0054541538,-0.0021816615,-0.0010908308,0.0,2.3870192,-1.3575124,9.416395,-0.22266077,0.11731588,0.39264908,-0.13136134,-0.018062599,-0.7961162,2016-12-26 23:09:47,22.316447766044547
2.2697031,-1.2306197,9.722853,-0.008726646,0.0,-0.01308997,0.0,2.3678656,-1.3431472,9.423578,-0.09816227,0.11252748,0.29927522,-0.1299668,-0.017922807,-0.7967127,2016-12-26 23:09:48,27.97393066348488
2.255338,-1.2210429,9.655815,-0.01308997,0.019634955,-0.0032724924,0.0,2.3798366,-1.3599066,9.416395,-0.12449849,0.1388637,0.23942018,-0.13079432,-0.017622009,-0.7967248,2016-12-26 23:09:49,27.970871245393923
2.2505496,-1.2162545,9.737218,0.01308997,-0.006544985,-0.0021816615,0.0,2.4061728,-1.340753,9.414001,-0.15562311,0.12449849,0.32321724,-0.13113585,-0.019187454,-0.7964312,2016-12-26 23:09:50,30.92561292288555
2.2649148,-1.1875241,9.555259,-0.008726646,-0.0032724924,0.011999139,1.92,2.408567,-1.3623008,9.409213,-0.1436521,0.17477672,0.14604631,-0.13171613,-0.01840489,-0.79609543,2016-12-26 23:09:51,26.401976946816923
2.1212628,-1.13964,9.737218,-0.0010908308,0.0,0.0021816615,1.28,2.3630772,-1.4053963,9.414001,-0.24181437,0.2657564,0.32321724,-0.1308914,-0.014629498,-0.79871696,2016-12-26 23:09:52,25.316890945099637
2.15957,-1.1779473,9.7324295,-0.016362462,0.0141808,0.004363323,0.0,2.3630772,-1.3694834,9.421184,-0.20350714,0.19153613,0.31124622,-0.12950915,-0.016298108,-0.7986299,2016-12-26 23:09:53,29.536852095595634
2.1404164,-1.1779473,9.746795,-0.0021816615,0.0076358155,-0.008726646,0.0,2.3654714,-1.4173675,9.411607,-0.22505496,0.23942018,0.33518824,-0.13086933,-0.014344636,-0.79906845,2016-12-26 23:09:54,32.274790946277406
2.1930888,-1.2354081,9.655815,-0.006544985,0.01308997,0.008726646,1.92,2.3630772,-1.4389153,9.409213,-0.16998832,0.20350714,0.24660277,-0.13110986,-0.013774592,-0.7988433,2016-12-26 23:09:55,27.158606433200983
2.1739352,-1.1348516,9.718064,-0.0010908308,-0.0109083075,-0.0076358155,0.0,2.3822308,-1.4101849,9.409213,-0.20829555,0.2753332,0.30885202,-0.13073039,-0.0155628845,-0.79936385,2016-12-26 23:09:56,27.198593298323203
2.2505496,-1.1971009,9.694122,0.035997417,-0.0109083075,-0.016362462,0.0,2.4277205,-1.400608,9.399636,-0.17717093,0.20350714,0.29448682,-0.13210142,-0.017405413,-0.79941344,2016-12-26 23:09:57,33.52143108120302
2.2649148,-0.62728083,9.627085,0.12217305,-0.009817477,-0.044724062,1.92,2.44448,-1.0390835,9.440337,-0.17956513,0.41180268,0.18674773,-0.12151469,-0.032789838,-0.80136216,2016-12-26 23:09:58,33.21765374972183
2.2888567,-0.59376204,9.799467,0.08726646,0.0032724924,-0.0010908308,1.92,2.4971523,-0.93134445,9.437943,-0.20829555,0.33758244,0.36152446,-0.12010194,-0.039354134,-0.80005634,2016-12-26 23:09:59,35.446668543191954
2.4947581,-0.7469909,9.76116,0.059995692,-0.018544123,-0.021816615,1.28,2.4133554,-0.9744401,9.457097,0.08140286,0.22744916,0.30406362,-0.1177293,-0.035364337,-0.80005735,2016-12-26 23:10:00,30.48531624850682
2.3223755,-0.78529817,9.737218,0.04145157,-0.006544985,-0.017453292,0.0,2.4013844,-1.0390835,9.452309,-0.079008654,0.25378537,0.28491,-0.11952735,-0.029945485,-0.8104339,2016-12-26 23:10:01,53.37383922967444
2.135628,-0.82360536,9.770737,-0.0032724924,0.004363323,-0.008726646,1.92,2.3702598,-1.1133038,9.452309,-0.23463176,0.2896984,0.3184288,-0.12018849,-0.025804799,-0.8118279,2016-12-26 23:10:02,46.55814351835598
2.078167,-0.7757214,9.94312,-0.015271631,0.015271631,-0.008726646,0.0,2.3511062,-1.1228806,9.454702,-0.272939,0.34715924,0.48841715,-0.11939049,-0.02514178,-0.8120442,2016-12-26 23:10:03,40.75032833295488
2.2601264,-0.92416185,9.7324295,0.006544985,0.0010908308,-0.004363323,0.0,2.348712,-1.1611878,9.452309,-0.088585466,0.23702596,0.2801216,-0.120124355,-0.023795798,-0.81106156,2016-12-26 23:10:04,63.165004306218705
2.078167,-0.90021986,9.765948,0.0054541538,-0.0054541538,0.015271631,1.92,2.3582888,-1.1061212,9.454702,-0.2801216,0.20590134,0.31124622,-0.11857577,-0.02624001,-0.8111627,2016-12-26 23:10:06,38.484434076786485
2.0159178,-0.90979666,9.7084875,-0.011999139,0.0032724924,0.004363323,1.92,2.3702598,-1.1061212,9.452309,-0.35434186,0.19632454,0.25617957,-0.11867051,-0.026392907,-0.81035787,2016-12-26 23:10:07,32.893738514291265
1.982399,-0.90021986,9.923966,-0.006544985,-0.006544985,-0.0054541538,0.0,2.3798366,-1.1324574,9.44752,-0.39743748,0.23223756,0.47644615,-0.11964017,-0.02549541,-0.80947816,2016-12-26 23:10:08,59.829046419888535
2.111686,-0.9959879,9.809045,0.009817477,0.023998277,-0.0021816615,1.28,2.3918076,-1.1300632,9.445126,-0.2801216,0.1340753,0.36391866,-0.11959632,-0.025676768,-0.8091557,2016-12-26 23:10:09,33.42268840949113
1.9536686,-0.9576807,9.7084875,-0.0076358155,-0.0054541538,0.006544985,1.92,2.3918076,-1.1372458,9.442732,-0.4381389,0.17956513,0.2657564,-0.11947674,-0.025051557,-0.809175,2016-12-26 23:10:10,36.00961330673441
2.1212628,-0.93373865,9.8042555,-0.004363323,0.0021816615,0.0076358155,1.28,2.4109612,-1.1420342,9.437943,-0.2896984,0.20829555,0.36631286,-0.1200501,-0.025231581,-0.8085616,2016-12-26 23:10:11,37.429412103817775
2.054225,-0.94331545,9.7084875,0.0109083075,-0.008726646,0.004363323,0.0,2.4061728,-1.1348516,9.440337,-0.35194764,0.19153613,0.2681506,-0.11922862,-0.024935037,-0.8092553,2016-12-26 23:10:12,39.731583647953535
2.0733786,-0.9768343,9.842564,0.0010908308,0.0054541538,0.0010908308,0.0,2.420538,-1.1300632,9.437943,-0.34715924,0.15322891,0.40462008,-0.11939767,-0.025231037,-0.80919224,2016-12-26 23:10:13,32.40328196879083
2.111686,-0.92895025,9.770737,-0.0141808,0.029452432,-0.006544985,0.0,2.408567,-1.1444284,9.437943,-0.29688102,0.21547815,0.33279404,-0.11887398,-0.02400288,-0.80918753,2016-12-26 23:10:14,35.02855683214873
2.111686,-0.9911995,9.7084875,-0.011999139,0.017453292,0.004363323,0.0,2.3918076,-1.1563994,9.440337,-0.2801216,0.16519992,0.2681506,-0.11826168,-0.022768453,-0.80950344,2016-12-26 23:10:15,40.109896570052186
2.135628,-0.9576807,9.713276,0.006544985,-0.006544985,-0.004363323,3.1999998,2.4133554,-1.1324574,9.437943,-0.2777274,0.17477672,0.2753332,-0.11832633,-0.024144374,-0.8097054,2016-12-26 23:10:16,33.70923073311601
2.054225,-0.91458505,9.665392,-0.006544985,-0.0076358155,-0.01308997,0.0,2.4229321,-1.1420342,9.435549,-0.36870706,0.22744916,0.22984336,-0.118774354,-0.023749799,-0.8097254,2016-12-26 23:10:17,35.103134476315645
1.9488802,-1.0055647,9.718064,0.0054541538,-0.006544985,0.008726646,0.0,2.44448,-1.151611,9.428367,-0.49559975,0.14604631,0.2896984,-0.1196513,-0.023832291,-0.8094393,2016-12-26 23:10:18,34.90850045834308
2.0973208,-0.9624691,9.7324295,-0.0032724924,0.0021816615,0.01308997,1.92,2.468422,-1.2258313,9.411607,-0.37110126,0.2633622,0.320823,-0.12251821,-0.02117093,-0.80958056,2016-12-26 23:10:19,36.372205052525494
2.0925324,-1.067814,9.785102,0.01308997,-0.015271631,0.0021816615,0.0,2.4660277,-1.151611,9.421184,-0.37349546,0.08379706,0.36391866,-0.11983958,-0.023866415,-0.8101623,2016-12-26 23:10:20,34.41275756581919
2.0207062,-0.9720459,9.775525,0.011999139,0.0021816615,0.0021816615,0.0,2.4636335,-1.0941502,9.43076,-0.4429273,0.12210429,0.34476504,-0.11778939,-0.025861818,-0.81013316,2016-12-26 23:10:21,31.948321993969678
2.111686,-1.0726024,9.583989,0.0076358155,0.009817477,0.008726646,0.0,2.4492683,-1.0726024,9.435549,-0.33758244,0.0,0.14844051,-0.116348155,-0.025860794,-0.81005466,2016-12-26 23:10:22,30.79932317744039
2.0207062,-0.9720459,9.813833,-0.0032724924,-0.0010908308,0.0054541538,0.0,2.4349031,-1.0869676,9.437943,-0.4141969,0.11492168,0.37588966,-0.11626823,-0.024281517,-0.81102604,2016-12-26 23:10:23,31.121202268777107
2.0254946,-0.9624691,9.7324295,0.0076358155,0.0109083075,-0.0021816615,1.28,2.4301147,-1.0582372,9.442732,-0.40462008,0.095768064,0.2896984,-0.115224496,-0.024926256,-0.81074023,2016-12-26 23:10:24,32.47823466185035
2.1021092,-1.0486604,9.7803135,-0.011999139,-0.0054541538,0.017453292,0.0,2.4372973,-1.0295067,9.445126,-0.33518824,-0.019153614,0.33518824,-0.11468044,-0.026109915,-0.81024575,2016-12-26 23:10:25,39.85384554633243
2.0254946,-0.9959879,9.67018,0.009817477,-0.0032724924,0.0,0.0,2.4875755,-1.0319009,9.43076,-0.46208093,0.035913024,0.23942018,-0.11698235,-0.026965044,-0.8099807,2016-12-26 23:10:26,33.5843258759094
2.1499932,-0.93373865,9.794679,0.009817477,0.01308997,0.006544985,0.0,2.4588451,-0.9983821,9.442732,-0.30885202,0.06464344,0.35194764,-0.114666715,-0.026967641,-0.8100764,2016-12-26 23:10:27,34.26805300075477
2.0829554,-1.1061212,9.832987,-0.008726646,0.022907447,0.009817477,0.0,2.4612393,-0.9864111,9.442732,-0.37828386,-0.11971009,0.39025488,-0.11460279,-0.026858214,-0.810712,2016-12-26 23:10:28,35.627613621621485
2.0015526,-0.9816227,9.794679,-0.0054541538,0.030543262,0.0,2.56,2.4899697,-1.0390835,9.428367,-0.48841715,0.05746084,0.36631286,-0.117343724,-0.025114369,-0.81026036,2016-12-26 23:10:29,32.712494671348786
2.0829554,-0.94810385,9.837775,0.009817477,0.0021816615,-0.0021816615,0.0,2.4612393,-1.0271125,9.437943,-0.37828386,0.079008654,0.39983168,-0.1156596,-0.024390869,-0.8104481,2016-12-26 23:10:30,32.5762958400843
2.0685902,-0.8858546,9.694122,0.0109083075,-0.037088245,0.01308997,0.0,2.44448,-0.9911995,9.44752,-0.37588966,0.10534488,0.24660277,-0.11394918,-0.0248947,-0.810969,2016-12-26 23:10:31,35.700447819705225
1.9728222,-0.9816227,9.765948,-0.016362462,0.0021816615,-0.0109083075,1.92,2.4612393,-1.0319009,9.437943,-0.48841715,0.050278235,0.32800564,-0.11592257,-0.023541328,-0.8107598,2016-12-26 23:10:32,34.312236681905716
2.0925324,-0.93373865,9.847352,0.008726646,0.021816615,0.004363323,0.0,2.4851813,-1.0271125,9.433155,-0.39264908,0.093373865,0.4141969,-0.11685337,-0.024009869,-0.81107414,2016-12-26 23:10:33,34.95212361612151
2.054225,-0.91937345,9.722853,-0.006544985,-0.016362462,-0.008726646,0.0,2.4947581,-0.9959879,9.433155,-0.4405331,0.076614454,0.2896984,-0.11626006,-0.025265016,-0.8108814,2016-12-26 23:10:34,32.585779242905346
2.0446482,-1.0103531,9.7563715,-0.0076358155,0.011999139,-0.0021816615,0.0,2.504335,-1.0366893,9.425972,-0.45968673,0.02633622,0.33039984,-0.11772604,-0.023622919,-0.81065685,2016-12-26 23:10:35,33.85193527556238
2.0446482,-1.0247183,9.876082,0.0010908308,0.0010908308,0.0010908308,0.0,2.4971523,-1.0702082,9.423578,-0.45250413,0.045489833,0.45250413,-0.118189305,-0.021857653,-0.8106949,2016-12-26 23:10:36,38.90808143359664
2.1452048,-1.0295067,9.82341,0.016362462,0.030543262,-0.0141808,0.0,2.5019407,-1.0127473,9.428367,-0.35673606,-0.016759412,0.39504328,-0.116576195,-0.024180267,-0.8110775,2016-12-26 23:10:37,39.08129663543133
2.0494366,-0.9911995,9.861717,-0.004363323,-0.0010908308,0.004363323,0.0,2.4899697,-1.0247183,9.43076,-0.4405331,0.033518825,0.4309563,-0.11639194,-0.023029193,-0.81110954,2016-12-26 23:10:38,37.8707979822091
2.1021092,-0.9624691,9.856929,-0.004363323,-0.02617994,-0.009817477,0.0,2.480393,-1.043872,9.43076,-0.37828386,0.08140286,0.4261679,-0.11650081,-0.02183111,-0.8112788,2016-12-26 23:10:39,34.00495176609682
2.0350714,-0.94331545,9.76116,-0.0109083075,0.004363323,-0.006544985,0.0,2.492364,-1.0534488,9.425972,-0.45729253,0.110133275,0.33518824,-0.11721342,-0.021653526,-0.8113771,2016-12-26 23:10:40,33.84125572333452
2.0159178,-0.90021986,9.842564,0.017453292,-0.011999139,0.0010908308,1.28,2.480393,-1.0773908,9.428367,-0.46447513,0.17717093,0.4141969,-0.117205486,-0.020379871,-0.8111858,2016-12-26 23:10:41,30.341059932640437
2.504335,-0.89064306,9.627085,-0.06981317,-0.06872234,-0.0141808,0.0,2.885013,-0.8379706,9.337387,-0.38067806,-0.05267244,0.2896984,-0.12782961,-0.041278005,-0.81344354,2016-12-26 23:10:42,38.9958125094856
2.767697,-0.89543146,9.847352,0.029452432,0.0992656,0.08835729,1.92,3.181894,-1.0630256,9.215282,-0.4141969,0.16759412,0.63206923,-0.1480973,-0.03863605,-0.81645095,2016-12-26 23:10:43,32.25332977702918
2.27928,-1.0055647,9.7084875,0.27161688,0.086175635,0.076358154,0.0,2.7868507,-0.90261406,9.361329,-0.50757074,-0.10295067,0.34715924,-0.12512913,-0.03576702,-0.8106436,2016-12-26 23:10:44,53.50185478980577
2.2744915,-2.4995465,9.0476885,0.0109083075,0.04363323,-0.116718896,0.0,2.7868507,-2.3127987,9.114726,-0.51235914,-0.18674773,-0.06703765,-0.16806433,0.033098184,-0.8291762,2016-12-26 23:10:45,42.68629740162676
2.255338,-3.8642416,8.817844,-0.020725785,0.0076358155,-0.018544123,0.0,2.7485435,-3.9863458,8.528147,-0.49320555,0.12210429,0.2896984,-0.21695986,0.10913771,-0.8127523,2016-12-26 23:10:46,38.82344730523141
2.7102363,-4.280833,8.439561,0.0076358155,0.018544123,-0.0021816615,0.0,3.1507695,-4.132392,8.317456,-0.4405331,-0.14844051,0.12210429,-0.23897558,0.10781,-0.8076345,2016-12-26 23:10:47,36.45466482600007
2.7389667,-4.261679,8.516175,-0.008726646,-0.0010908308,0.004363323,1.28,3.1603463,-4.1156325,8.322245,-0.4213795,-0.14604631,0.19393034,-0.23800609,0.108874135,-0.8059403,2016-12-26 23:10:48,37.751264661136354
2.657564,-4.3861775,8.50181,-0.006544985,-0.0076358155,-0.0109083075,0.0,3.1555579,-4.122815,8.322245,-0.49799395,-0.2633622,0.17956513,-0.23717508,0.1111149,-0.8039912,2016-12-26 23:10:49,29.978921840848535
2.7150247,-4.31914,8.544906,-0.0021816615,0.022907447,-0.004363323,3.1999998,3.1244333,-4.1276035,8.329428,-0.40940848,-0.19153613,0.21547815,-0.2353299,0.11391416,-0.8022076,2016-12-26 23:10:51,32.99280704070589
2.6623523,-4.333505,8.540117,-0.0109083075,-0.004363323,-0.0109083075,0.0,3.1268275,-4.084508,8.350976,-0.46447513,-0.24899697,0.18914193,-0.23457052,0.11210294,-0.8017778,2016-12-26 23:10:52,33.51553542242377
2.753332,-4.31914,8.525752,0.004363323,0.0032724924,-0.0109083075,0.0,3.086126,-4.086902,8.3629465,-0.33279404,-0.23223756,0.16280572,-0.23394933,0.11259422,-0.80183554,2016-12-26 23:10:53,37.43240206852605
2.7868507,-4.3766007,8.568848,0.017453292,-0.0032724924,0.004363323,0.0,3.083732,-4.1060557,8.355764,-0.29688102,-0.2705448,0.21308395,-0.235524,0.1131716,-0.8021295,2016-12-26 23:10:54,29.87384127631082
2.566584,-4.4005427,8.640674,0.0021816615,-0.022907447,-0.017453292,1.28,3.1028855,-4.0797195,8.360553,-0.5363012,-0.320823,0.2801216,-0.23660213,0.11101737,-0.8022398,2016-12-26 23:10:55,35.39647094557938
2.6288335,-4.429273,8.372523,-0.009817477,0.0021816615,-0.020725785,0.0,3.1124623,-4.110844,8.341399,-0.48362875,-0.3184288,0.031124622,-0.23890492,0.11178175,-0.80165684,2016-12-26 23:10:56,39.17238369561588
2.6527755,-4.4484267,8.468291,0.017453292,0.0010908308,-0.006544985,0.0,3.0669725,-4.098873,8.365341,-0.4141969,-0.34955344,0.10295067,-0.23709711,0.11252275,-0.80295706,2016-12-26 23:10:57,39.88698831572694
2.6862943,-4.4101195,8.497022,0.0054541538,0.004363323,-0.0076358155,0.0,3.083732,-4.1036615,8.358158,-0.39743748,-0.30645782,0.1388637,-0.23872212,0.11196271,-0.8027432,2016-12-26 23:10:58,31.604397672861893
2.633622,-4.4244847,8.429984,0.0,0.0,-0.006544985,1.28,3.095703,-4.1060557,8.350976,-0.46208093,-0.3184288,0.079008654,-0.24009302,0.11124382,-0.80207556,2016-12-26 23:10:59,35.68322752116258
2.6910827,-4.3382936,8.487445,0.009817477,-0.0010908308,0.018544123,0.0,3.1316159,-4.1180267,8.331821,-0.4405331,-0.22026655,0.15562311,-0.24257201,0.11082413,-0.80208594,2016-12-26 23:11:00,33.91412979957447
2.6048915,-4.4196963,8.611943,0.004363323,0.0,-0.006544985,0.0,3.095703,-4.1036615,8.350976,-0.49081135,-0.31603462,0.260968,-0.2409424,0.111060575,-0.80242896,2016-12-26 23:11:01,37.11824797232852
2.6384103,-4.5202527,8.420407,-0.004363323,-0.0032724924,-0.0054541538,1.92,3.0909145,-4.1371803,8.3390045,-0.45250413,-0.38307226,0.08140286,-0.24229535,0.112244435,-0.8016573,2016-12-26 23:11:02,32.023577457153436
2.681506,-4.534618,8.573636,-0.017453292,0.0021816615,0.0,0.0,3.0190883,-4.156334,8.35337,-0.33758244,-0.37828386,0.22026655,-0.24002448,0.1150239,-0.8019049,2016-12-26 23:11:03,36.70954598895676
2.5617957,-4.510676,8.520964,0.022907447,-0.009817477,0.0076358155,0.0,3.052607,-4.201824,8.319851,-0.49081135,-0.30885202,0.20111294,-0.24340048,0.11576972,-0.8006657,2016-12-26 23:11:04,29.418674015595645
2.542642,-4.3957543,8.310274,-0.0141808,-0.0021816615,0.009817477,0.0,3.0597897,-4.1659107,8.334216,-0.51714754,-0.22984336,-0.023942016,-0.24284306,0.11393129,-0.8010795,2016-12-26 23:11:05,28.032436716563538
2.6910827,-4.4819455,8.59279,-0.008726646,-0.008726646,0.0032724924,0.0,3.0693667,-4.1611223,8.334216,-0.37828386,-0.320823,0.25857377,-0.2434051,0.11345482,-0.8009789,2016-12-26 23:11:06,23.210069220451288
2.6767175,-4.4196963,8.4347725,0.0021816615,0.0021816615,0.0021816615,0.0,3.0621839,-4.1706996,8.331821,-0.3854665,-0.24899697,0.10295067,-0.2434656,0.114100784,-0.80100006,2016-12-26 23:11:07,26.26744442817673
2.5617957,-4.462792,8.425196,0.0109083075,-0.0010908308,-0.0010908308,0.0,3.0550013,-4.177882,8.331821,-0.49320555,-0.28491,0.095768064,-0.24349916,0.11463458,-0.800929,2016-12-26 23:11:08,29.939558236896694
2.6144683,-4.4005427,8.429984,-0.0076358155,0.0021816615,0.006544985,0.0,3.040636,-4.1802764,8.334216,-0.4261679,-0.22026655,0.095768064,-0.24306177,0.114945784,-0.8004768,2016-12-26 23:11:09,23.40175489720825
2.5330653,-4.3047748,8.607155,0.0054541538,0.0141808,0.0141808,0.0,2.9257145,-4.1156325,8.406042,-0.39264908,-0.18914193,0.20111294,-0.23573546,0.114963874,-0.8016044,2016-12-26 23:11:10,34.22187186787782
2.5234885,-4.3526587,8.602366,-0.01308997,0.01308997,0.008726646,0.0,2.9233203,-4.1180267,8.408437,-0.39983168,-0.23463176,0.19393034,-0.23548415,0.1153122,-0.80240244,2016-12-26 23:11:11,29.513709154375686
2.456451,-4.3622355,8.559271,0.0032724924,0.006544985,0.0054541538,3.1999998,2.9352913,-4.1419687,8.391677,-0.47884035,-0.22026655,0.16759412,-0.23677546,0.11604192,-0.802383,2016-12-26 23:11:12,25.38416625502171
2.4037786,-4.2664676,8.832211,-0.0032724924,-0.0010908308,-0.0076358155,0.0,2.9472623,-4.1491513,8.384495,-0.5434838,-0.11731588,0.44771573,-0.23724389,0.11563641,-0.8019636,2016-12-26 23:11:13,27.182611548820937
2.3654714,-4.2425256,8.688558,-0.004363323,0.006544985,0.0032724924,0.0,2.954445,-4.158728,8.377312,-0.58897364,-0.08379706,0.31124622,-0.23757747,0.1156567,-0.80187744,2016-12-26 23:11:14,29.273339991930357
2.3942018,-4.3861775,8.602366,-0.011999139,-0.0076358155,-0.01308997,0.0,2.954445,-4.1659107,8.372523,-0.5602432,-0.22026655,0.22984336,-0.23751228,0.11585732,-0.8020236,2016-12-26 23:11:15,28.377685678563772
2.4899697,-4.3861775,8.588001,-0.0010908308,0.029452432,-0.0076358155,0.0,2.9496565,-4.1706996,8.372523,-0.45968673,-0.21547815,0.21547815,-0.23697236,0.11596313,-0.80227935,2016-12-26 23:11:16,23.612515819329133
2.3942018,-4.43885,8.750807,0.018544123,0.0,-0.0032724924,0.0,2.920926,-4.211401,8.360553,-0.5267244,-0.22744916,0.39025488,-0.23665589,0.11845244,-0.8021469,2016-12-26 23:11:17,32.776082593899325
2.384625,-4.3766007,8.813056,0.0054541538,0.0021816615,-0.011999139,1.92,2.8682537,-4.1946416,8.389283,-0.48362875,-0.18195933,0.4237737,-0.233291,0.11880397,-0.80268145,2016-12-26 23:11:18,31.845287764754264
2.3894134,-4.2904096,8.487445,0.0054541538,0.009817477,-0.0032724924,1.28,2.920926,-4.177882,8.377312,-0.5315128,-0.11252748,0.110133275,-0.23477143,0.11676868,-0.8033443,2016-12-26 23:11:19,25.683239744497595
2.3223755,-4.232949,8.76996,0.0010908308,-0.03926991,-0.0021816615,0.0,2.9400797,-4.2042184,8.358158,-0.61770403,-0.02873042,0.41180268,-0.23593545,0.117300086,-0.80329204,2016-12-26 23:11:20,36.16662337608606
2.336741,-4.3957543,8.674192,0.0032724924,-0.022907447,0.0,0.0,2.9281087,-4.3358994,8.295909,-0.59136784,-0.059855044,0.37828386,-0.23936388,0.123106636,-0.80127215,2016-12-26 23:11:21,33.91218953467935
2.3942018,-4.3766007,8.693346,0.0,0.0054541538,-0.009817477,0.0,2.920926,-4.3526587,8.288726,-0.5267244,-0.023942016,0.40462008,-0.23902315,0.12368047,-0.80126125,2016-12-26 23:11:22,28.169286649512642
2.27928,-4.3478703,8.468291,0.01308997,-0.015271631,-0.004363323,0.0,2.9113493,-4.378995,8.279149,-0.63206923,0.031124622,0.18914193,-0.23895419,0.12480733,-0.8012855,2016-12-26 23:11:23,30.743828741988
2.384625,-4.2521024,8.611943,0.0032724924,0.006544985,0.025089107,0.0,2.9137435,-4.2784386,8.329428,-0.5291186,0.02633622,0.2825158,-0.23525868,0.11954306,-0.80241746,2016-12-26 23:11:24,28.899246782014508
2.3415294,-4.209007,8.750807,-0.0021816615,-0.015271631,0.0021816615,0.0,2.9281087,-4.307169,8.310274,-0.58657944,0.09816227,0.4405331,-0.23642081,0.11945192,-0.80093426,2016-12-26 23:11:25,29.64882999549877
2.3463178,-4.2521024,8.74123,-0.0054541538,0.004363323,-0.016362462,1.28,2.932897,-4.297592,8.312668,-0.58657944,0.045489833,0.4285621,-0.23582146,0.11818501,-0.8005481,2016-12-26 23:11:26,28.204491425669445
2.3558946,-4.1659107,8.693346,0.011999139,-0.0032724924,-0.0021816615,3.1999998,2.896984,-4.2784386,8.336611,-0.5410896,0.11252748,0.35673606,-0.23283966,0.11804913,-0.80138385,2016-12-26 23:11:27,38.10391595710775
2.303222,-4.247314,8.573636,0.0076358155,-0.022907447,-0.0109083075,0.0,2.8993783,-4.2784386,8.334216,-0.59615624,0.031124622,0.23942018,-0.23255472,0.118075415,-0.8021982,2016-12-26 23:11:28,32.677821480990694
2.3127987,-4.2999864,8.746018,-0.0141808,-0.011999139,0.0032724924,0.0,2.870648,-4.295198,8.336611,-0.557849,-0.0047884034,0.40940848,-0.2312631,0.11923959,-0.80253243,2016-12-26 23:11:29,37.545466093370564
2.2361844,-4.185065,8.870518,-0.0021816615,-0.015271631,0.0,0.0,2.8634653,-4.3263226,8.322245,-0.62728083,0.1412579,0.5482722,-0.2315085,0.120152585,-0.80188113,2016-12-26 23:11:30,31.853750954680994
2.336741,-4.2521024,8.688558,0.015271631,0.02617994,-0.01308997,0.0,2.8898015,-4.31914,8.317456,-0.5530606,0.06703765,0.37110126,-0.23217157,0.11854476,-0.80177075,2016-12-26 23:11:31,28.29258196327325
2.3415294,-4.2042184,8.779537,-0.021816615,-0.008726646,-0.0076358155,1.28,2.896984,-4.3023806,8.324639,-0.5554548,0.09816227,0.45489833,-0.2313244,0.11732927,-0.8024418,2016-12-26 23:11:32,30.10680610332058
2.4277205,-4.19943,8.631097,-0.017453292,0.0021816615,-0.008726646,0.0,2.8993783,-4.3143516,8.3150625,-0.47165772,0.11492168,0.31603462,-0.23134705,0.11745831,-0.8025417,2016-12-26 23:11:33,28.0687920170563
2.3080103,-4.0222588,8.760384,-0.0076358155,0.016362462,-0.0141808,0.0,2.9017725,-4.2640734,8.341399,-0.59376204,0.24181437,0.4189853,-0.22913949,0.114871904,-0.8035442,2016-12-26 23:11:34,39.63834047351214
2.3223755,-4.0414124,8.664616,0.0109083075,-0.004363323,0.0,0.0,2.89459,-4.256891,8.346188,-0.5722142,0.21547815,0.3184288,-0.22806531,0.114778906,-0.8042343,2016-12-26 23:11:35,29.190083205899327
2.3654714,-4.1611223,8.817844,0.004363323,-0.004363323,-0.0076358155,0.0,2.9113493,-4.27365,8.334216,-0.545878,0.11252748,0.48362875,-0.22873208,0.11484206,-0.8043589,2016-12-26 23:11:37,25.99480508444699
2.3463178,-4.1371803,8.698134,-0.0032724924,-0.01308997,0.0010908308,1.28,2.9161377,-4.3047748,8.3150625,-0.56982,0.16759412,0.38307226,-0.22943687,0.11563089,-0.8039469,2016-12-26 23:11:38,30.866156153020356
2.3319526,-4.0892963,8.664616,-0.006544985,-0.025089107,0.019634955,0.0,2.918532,-4.2760444,8.329428,-0.58657944,0.18674773,0.33518824,-0.22795078,0.11396748,-0.8045218,2016-12-26 23:11:39,27.405156526550304
2.2744915,-4.036624,8.846576,0.01308997,0.022907447,-0.0076358155,0.0,2.9137435,-4.256891,8.341399,-0.6392518,0.22026655,0.50517654,-0.22639805,0.113034785,-0.80503744,2016-12-26 23:11:40,32.302620706947025
2.2840683,-4.050989,8.832211,0.01308997,0.025089107,0.004363323,2.56,2.896984,-4.268862,8.341399,-0.61291564,0.21787235,0.49081135,-0.225324,0.113910615,-0.8055298,2016-12-26 23:11:41,35.214777884233214
2.3080103,-4.060566,8.760384,-0.011999139,-0.0010908308,0.017453292,1.28,2.8993783,-4.2784386,8.336611,-0.59136784,0.21787235,0.4237737,-0.22521031,0.11417431,-0.8057267,2016-12-26 23:11:42,35.71573942826887
2.2697031,-4.098873,8.779537,0.0,0.006544985,0.0021816615,1.28,2.9041667,-4.2880154,8.329428,-0.6344634,0.18914193,0.45010993,-0.22518966,0.11419222,-0.8057681,2016-12-26 23:11:43,26.40415177990676
2.3463178,-4.012682,8.846576,-0.006544985,0.025089107,-0.011999139,0.0,2.8898015,-4.2880154,8.331821,-0.5434838,0.2753332,0.51475334,-0.22397475,0.11450301,-0.8062622,2016-12-26 23:11:44,27.94248351748244
2.336741,-3.9791632,8.774749,0.011999139,-0.0109083075,0.0032724924,0.0,2.885013,-4.292804,8.331821,-0.5482722,0.31364042,0.4429273,-0.22344033,0.11448474,-0.80633646,2016-12-26 23:11:45,35.81424573312709
2.231396,-4.098873,8.932767,-0.0076358155,-0.0054541538,-0.009817477,1.92,2.8993783,-4.285621,8.331821,-0.6679823,0.18674773,0.60094464,-0.22334968,0.113594934,-0.8064957,2016-12-26 23:11:46,33.49004995865796
2.303222,-4.0797195,8.631097,0.008726646,-0.0032724924,-0.01308997,0.0,2.885013,-4.297592,8.331821,-0.581791,0.21787235,0.29927522,-0.22257021,0.11443413,-0.80688465,2016-12-26 23:11:47,33.32334923890426
2.2266076,-3.9983168,8.875306,0.011999139,0.0010908308,-0.0054541538,0.0,2.8778305,-4.285621,8.3390045,-0.6512229,0.2873042,0.5363012,-0.22150855,0.11394183,-0.8073075,2016-12-26 23:11:48,35.07240353797047
2.2840683,-4.098873,8.76996,-0.0010908308,-0.0010908308,0.0076358155,0.0,2.8778305,-4.2880154,8.336611,-0.59376204,0.18914193,0.4333505,-0.22132991,0.11404659,-0.807388,2016-12-26 23:11:49,33.32681209808278
2.2697031,-4.132392,8.746018,-0.0076358155,0.022907447,0.0010908308,0.0,2.8802247,-4.283227,8.3390045,-0.61052144,0.15083471,0.40701428,-0.22099312,0.11359967,-0.80771685,2016-12-26 23:11:50,31.52250112552238
2.3175871,-4.0653543,8.942344,0.01308997,0.0,-0.0054541538,1.28,2.8898015,-4.3023806,8.327033,-0.5722142,0.23702596,0.61530983,-0.22178842,0.114066705,-0.8073975,2016-12-26 23:11:51,41.39831156632981
2.2409728,-4.1515455,8.760384,0.0032724924,-0.016362462,-0.009817477,1.92,2.8802247,-4.297592,8.331821,-0.6392518,0.14604631,0.4285621,-0.22086206,0.11417872,-0.8081426,2016-12-26 23:11:52,32.37918996910995
2.1787236,-4.10845,8.9040365,0.0076358155,-0.0021816615,0.0010908308,0.0,2.8514943,-4.297592,8.341399,-0.6727707,0.18914193,0.5626374,-0.21938926,0.11478528,-0.8082386,2016-12-26 23:11:53,34.90607444930065
2.2697031,-4.0318356,8.817844,0.0109083075,0.004363323,-0.0054541538,0.0,2.8514943,-4.285621,8.348581,-0.581791,0.25378537,0.46926352,-0.21880214,0.11430214,-0.8087304,2016-12-26 23:11:54,34.06890596990834
2.2409728,-4.122815,8.674192,0.0076358155,-0.0141808,0.0032724924,0.0,2.858677,-4.292804,8.341399,-0.61770403,0.16998832,0.33279404,-0.219421,0.11418423,-0.8084526,2016-12-26 23:11:55,33.495426058435235
2.336741,-4.0318356,8.808268,-0.008726646,-0.006544985,-0.0032724924,0.0,2.8682537,-4.283227,8.343793,-0.5315128,0.25139117,0.46447513,-0.21936947,0.113685556,-0.8088612,2016-12-26 23:11:56,35.97938220461724
2.15957,-4.19943,9.038112,-0.0032724924,-0.008726646,0.0032724924,3.1999998,2.858677,-4.2664676,8.355764,-0.6991069,0.06703765,0.6823475,-0.21817182,0.11342575,-0.80956995,2016-12-26 23:11:57,42.64290813139989
2.1308396,-4.084508,8.841787,0.006544985,-0.023998277,0.0,0.0,2.873042,-4.280833,8.343793,-0.7422025,0.19632454,0.49799395,-0.21939097,0.11344205,-0.80889225,2016-12-26 23:11:58,29.170107167516935
2.2026656,-4.247314,8.856153,0.006544985,0.011999139,0.0032724924,1.28,2.861071,-4.268862,8.35337,-0.6584055,0.021547815,0.50278234,-0.21826223,0.113305,-0.8093953,2016-12-26 23:11:59,34.84241692204026
2.4372973,-4.0414124,8.832211,-0.0021816615,0.0010908308,0.015271631,1.28,2.8562827,-4.285621,8.346188,-0.4189853,0.24420857,0.48602295,-0.21860778,0.11422932,-0.8092645,2016-12-26 23:12:00,30.21531257481602
2.2361844,-4.0940847,8.750807,-0.006544985,-0.0054541538,0.0010908308,0.0,2.858677,-4.292804,8.341399,-0.62249243,0.19871874,0.40940848,-0.21882051,0.11451253,-0.8092734,2016-12-26 23:12:01,32.3480085742268
2.2361844,-4.0557775,8.698134,-0.0021816615,0.015271631,0.0010908308,1.92,2.8491,-4.2904096,8.346188,-0.61291564,0.23463176,0.35194764,-0.21826242,0.11453922,-0.8093665,2016-12-26 23:12:02,32.58913516914419
2.2505496,-4.189853,8.932767,0.017453292,-0.0021816615,-0.01308997,0.0,2.8802247,-4.285621,8.336611,-0.62967503,0.095768064,0.59615624,-0.21955869,0.11333192,-0.8091558,2016-12-26 23:12:03,33.26111314979307
2.2505496,-4.1659107,8.851364,-0.015271631,0.0,-0.0010908308,1.28,2.8802247,-4.271256,8.343793,-0.62967503,0.10534488,0.50757074,-0.2189613,0.112723626,-0.8094452,2016-12-26 23:12:04,34.61892586996886
2.2697031,-4.1132383,8.736442,0.0109083075,-0.04145157,0.0,0.0,2.882619,-4.259285,8.350976,-0.61291564,0.14604631,0.3854665,-0.21851406,0.11209721,-0.8095391,2016-12-26 23:12:05,33.17300997964449
2.2409728,-4.1611223,8.836999,0.0032724924,-0.004363323,-0.0021816615,1.92,2.8778305,-4.261679,8.350976,-0.6368576,0.10055647,0.48602295,-0.21828055,0.11240796,-0.80955327,2016-12-26 23:12:06,33.32935173607082
2.3511062,-4.247314,8.817844,0.0021816615,-0.009817477,0.008726646,0.0,2.8562827,-4.256891,8.360553,-0.50517654,0.009576807,0.45729253,-0.2170709,0.11311424,-0.8101361,2016-12-26 23:12:07,31.366142259574982
2.2649148,-4.0653543,8.793902,0.0010908308,0.009817477,0.004363323,0.0,2.8419175,-4.2760444,8.355764,-0.5770026,0.21068975,0.4381389,-0.21704444,0.11426532,-0.80998486,2016-12-26 23:12:08,30.099569943953238
2.2744915,-4.1276035,8.688558,-0.0021816615,-0.0054541538,-0.0010908308,0.0,2.8395233,-4.285621,8.35337,-0.5650316,0.15801731,0.33518824,-0.21737304,0.114713944,-0.8098164,2016-12-26 23:12:09,39.404026461782834
2.2361844,-4.1515455,8.798691,0.0109083075,-0.004363323,-0.006544985,2.56,2.8514943,-4.283227,8.350976,-0.61530983,0.1316811,0.44771573,-0.21786071,0.114077315,-0.80956215,2016-12-26 23:12:10,32.11848318113185
2.3894134,-4.036624,8.693346,-0.004363323,0.0010908308,0.0010908308,0.0,2.834735,-4.2880154,8.35337,-0.44532153,0.25139117,0.33997664,-0.21718639,0.11486032,-0.80990547,2016-12-26 23:12:11,35.01827217851462
2.3080103,-4.0462008,8.92319,-0.004363323,-0.0141808,-0.0109083075,0.0,2.8538885,-4.2880154,8.346188,-0.545878,0.24181437,0.5770026,-0.21823783,0.11412679,-0.8095419,2016-12-26 23:12:12,27.495479130011127
2.2505496,-4.084508,8.726865,-0.011999139,0.0109083075,-0.0032724924,0.0,2.8562827,-4.2760444,8.350976,-0.60573304,0.19153613,0.37588966,-0.21769117,0.11390202,-0.8104961,2016-12-26 23:12:13,29.883080726752826
2.2984335,-4.0797195,8.884883,0.0010908308,0.008726646,-0.008726646,0.0,2.8299465,-4.259285,8.367735,-0.5315128,0.17956513,0.51714754,-0.21585143,0.113832735,-0.8109504,2016-12-26 23:12:14,28.767913714838656
2.303222,-4.0892963,8.722076,-0.0109083075,-0.004363323,0.0283616,0.0,2.8323407,-4.259285,8.367735,-0.5291186,0.16998832,0.35434186,-0.21599501,0.11383554,-0.8110863,2016-12-26 23:12:15,31.83137517966232
2.2984335,-4.1515455,8.851364,-0.0021816615,0.017453292,-0.011999139,0.0,2.813187,-4.2521024,8.377312,-0.51475334,0.10055647,0.47405192,-0.21517572,0.114039816,-0.81119317,2016-12-26 23:12:16,31.13053669117639
2.2936451,-4.1132383,8.784326,-0.0021816615,-0.0010908308,-0.0032724924,1.92,2.7988217,-4.2544966,8.3821,-0.50517654,0.1412579,0.40222588,-0.21470574,0.114676654,-0.81150156,2016-12-26 23:12:17,31.903585488807856
2.15957,-4.247314,8.659827,0.025089107,-0.017453292,-0.0010908308,0.0,2.8107927,-4.2281604,8.391677,-0.6512229,-0.019153614,0.2681506,-0.21453997,0.11290897,-0.8115492,2016-12-26 23:12:18,32.14440371472757
2.255338,-4.185065,8.7125,-0.008726646,-0.02617994,-0.0076358155,1.28,2.8203697,-4.249708,8.377312,-0.5650316,0.06464344,0.33518824,-0.21581498,0.11350921,-0.8108575,2016-12-26 23:12:19,29.666637460356714
2.2170308,-4.027047,8.750807,-0.0109083075,-0.0021816615,0.0032724924,0.0,2.8323407,-4.24492,8.374918,-0.61530983,0.21787235,0.37588966,-0.21631178,0.11273888,-0.8105471,2016-12-26 23:12:20,33.153960643041344
2.27928,-4.1706996,8.860941,-0.006544985,-0.016362462,-0.01308997,0.0,2.8538885,-4.259285,8.360553,-0.5746084,0.088585466,0.50038815,-0.21777114,0.11284279,-0.81020707,2016-12-26 23:12:21,36.53207286125117
2.1547816,-4.050989,8.856153,-0.011999139,-0.004363323,-0.0032724924,2.56,2.834735,-4.268862,8.360553,-0.6799533,0.21787235,0.49559975,-0.21711764,0.113695435,-0.8101072,2016-12-26 23:12:22,28.799007103471123
2.2697031,-4.0414124,9.018958,-0.0076358155,0.0010908308,-0.018544123,0.0,2.8538885,-4.2760444,8.35337,-0.58418524,0.23463176,0.6655881,-0.2180248,0.113371864,-0.8099146,2016-12-26 23:12:24,28.11148935901216
2.327164,-4.084508,8.789114,-0.0054541538,0.023998277,-0.004363323,0.0,2.858677,-4.2904096,8.341399,-0.5315128,0.20590134,0.44771573,-0.21865144,0.113880515,-0.809691,2016-12-26 23:12:25,31.803965077438498
2.3175871,-4.1371803,8.841787,0.0021816615,-0.004363323,-0.011999139,1.28,2.858677,-4.280833,8.346188,-0.5410896,0.1436521,0.49559975,-0.21818298,0.11347269,-0.80998385,2016-12-26 23:12:26,31.06284411848168
2.3175871,-4.012682,8.760384,0.01308997,-0.004363323,-0.0141808,0.0,2.834735,-4.259285,8.367735,-0.51714754,0.24660277,0.39264908,-0.21619222,0.11317095,-0.81037796,2016-12-26 23:12:27,32.98609763344233
2.2601264,-4.084508,8.9279785,-0.05454154,-0.004363323,0.0021816615,3.1999998,2.8179753,-4.297592,8.35337,-0.557849,0.21308395,0.5746084,-0.21658708,0.11561473,-0.8106149,2016-12-26 23:12:28,33.158903502777996
2.2505496,-4.1180267,8.607155,0.05235988,0.019634955,0.0,1.28,2.7868507,-4.3047748,8.360553,-0.5363012,0.18674773,0.24660277,-0.21556608,0.11668117,-0.81038433,2016-12-26 23:12:29,34.631732325677646
2.2457612,-4.2664676,8.74123,0.011999139,-0.0021816615,-0.0010908308,0.0,2.815581,-4.2664676,8.37013,-0.56982,0.0,0.37110126,-0.21575761,0.11400443,-0.81020904,2016-12-26 23:12:30,33.25086578822072
2.2122424,-4.0940847,8.880095,-0.009817477,0.017453292,0.0021816615,2.56,2.8179753,-4.2544966,8.374918,-0.60573304,0.1604115,0.50517654,-0.21553792,0.113450095,-0.81009316,2016-12-26 23:12:31,35.06761452004493
2.3127987,-4.1132383,8.860941,0.011999139,-0.0054541538,-0.0032724924,1.28,2.7988217,-4.2425256,8.3868885,-0.48602295,0.12928689,0.47405192,-0.2143667,0.11377716,-0.81044155,2016-12-26 23:12:32,32.95707718973124
2.1260512,-4.189853,8.793902,-0.008726646,-0.008726646,0.009817477,0.0,2.779668,-4.24492,8.391677,-0.6536171,0.055066638,0.40222588,-0.21380636,0.11441562,-0.81018704,2016-12-26 23:12:33,31.712741327416715
2.2649148,-4.1659107,8.76996,0.0109083075,-0.0032724924,-0.004363323,0.0,2.7940333,-4.235343,8.391677,-0.5291186,0.06943185,0.37828386,-0.21444607,0.11380323,-0.81002927,2016-12-26 23:12:34,33.76411175774362
2.2026656,-4.0557775,8.789114,0.0109083075,-0.0076358155,-0.015271631,0.0,2.7988217,-4.2425256,8.3868885,-0.59615624,0.18674773,0.40222588,-0.21490638,0.11420314,-0.8100021,2016-12-26 23:12:35,33.680737152094935
2.2601264,-3.8115692,8.860941,0.016362462,0.016362462,-0.0032724924,3.1999998,2.9520507,-4.144363,8.384495,-0.6919243,0.33279404,0.47644615,-0.21884257,0.10605106,-0.81117725,2016-12-26 23:12:36,33.66541243555536
2.4468741,-4.0078936,8.717288,0.009817477,0.006544985,0.008726646,0.0,2.9113493,-4.1946416,8.372523,-0.46447513,0.18674773,0.34476504,-0.21841826,0.10971688,-0.81118,2016-12-26 23:12:37,26.776696745474258
2.360683,-3.9791632,8.942344,0.0010908308,-0.006544985,0.0,1.28,2.7988217,-4.1156325,8.451532,-0.4381389,0.1364695,0.49081135,-0.21034843,0.10960376,-0.8139609,2016-12-26 23:12:38,30.816667892304906
2.2457612,-3.98874,8.860941,-0.0076358155,0.023998277,-0.0032724924,1.28,2.7844565,-4.185065,8.422802,-0.5386954,0.19632454,0.4381389,-0.21181434,0.11285452,-0.8132107,2016-12-26 23:12:39,26.607904024180364
2.2122424,-3.9839516,8.74123,-0.017453292,-0.004363323,0.0010908308,1.92,2.7844565,-4.249708,8.389283,-0.5722142,0.2657564,0.35194764,-0.21380183,0.11567655,-0.8129741,2016-12-26 23:12:40,29.17560208657359
2.2122424,-4.074931,8.817844,0.006544985,-0.0141808,-0.0109083075,1.28,2.7844565,-4.2521024,8.3868885,-0.5722142,0.17717093,0.4309563,-0.21364766,0.11550655,-0.8133006,2016-12-26 23:12:41,28.927182210613918
2.255338,-3.9360676,8.865729,0.0076358155,-0.0054541538,0.0032724924,0.0,2.791639,-4.220978,8.401254,-0.5363012,0.28491,0.46447513,-0.21283582,0.11377195,-0.8138687,2016-12-26 23:12:42,36.00906676149878
2.1308396,-4.074931,8.74123,-0.0021816615,0.009817477,0.0054541538,1.92,2.7868507,-4.2305546,8.39886,-0.6560113,0.15562311,0.34237084,-0.2127409,0.11422972,-0.8138227,2016-12-26 23:12:43,34.4497007012209
2.030283,-4.0222588,8.918402,-0.0032724924,0.004363323,0.015271631,0.0,2.7940333,-4.237737,8.391677,-0.7637503,0.21547815,0.5267244,-0.21336135,0.114011884,-0.8132333,2016-12-26 23:12:44,31.660142216329227
2.231396,-4.074931,8.789114,-0.0010908308,-0.02617994,0.0021816615,0.0,2.7988217,-4.2305546,8.394072,-0.5674258,0.15562311,0.39504328,-0.2133711,0.11341286,-0.81294096,2016-12-26 23:12:45,32.623136204963664
2.2361844,-4.223372,8.918402,0.0021816615,-0.0021816615,-0.0054541538,0.0,2.815581,-4.211401,8.39886,-0.5793968,-0.011971008,0.51954174,-0.2135711,0.112246335,-0.81322527,2016-12-26 23:12:46,40.24323409794438
2.1739352,-4.0318356,8.913613,0.004363323,-0.017453292,-0.006544985,1.92,2.8898015,-4.1922474,8.3821,-0.7158663,0.1604115,0.5315128,-0.21643353,0.10986504,-0.8135167,2016-12-26 23:12:47,32.700020283192444
1.7812861,-3.3039982,9.6845455,-0.31415927,0.46033058,0.9075712,0.0,2.908955,-4.261679,8.341399,-1.127669,0.9576807,1.3431472,-0.2203664,0.11033143,-0.8084279,2016-12-26 23:12:48,33.657137312604306
2.078167,0.38307226,9.55047,0.16471545,0.18107791,-0.045814894,1.28,2.7126305,-0.6607997,9.40203,-0.6344634,1.043872,0.14844051,-0.10369222,-0.040738698,-0.8317022,2016-12-26 23:12:49,25.694568195597927
1.8435353,-0.7278373,9.636662,-0.05454154,0.004363323,-0.0032724924,4.48,2.1978772,-0.866701,9.519346,-0.35434186,0.1388637,0.11731588,-0.089387,-0.01124068,-0.84687954,2016-12-26 23:12:50,26.435410891846406
1.8483237,-1.2497733,9.97185,-0.086175635,-0.018544123,0.0021816615,3.84,2.0398598,-1.400608,9.490616,-0.19153613,0.15083471,0.48123455,-0.098403595,0.01949554,-0.8500434,2016-12-26 23:12:51,22.431517775867533
1.7908629,-0.7422025,9.488221,-0.022907447,-0.006544985,0.0021816615,4.48,2.0087352,-0.79008657,9.56723,-0.21787235,0.047884032,-0.079008654,-0.08164136,-0.004817102,-0.85164404,2016-12-26 23:12:52,31.51510301519531
1.5610195,-1.0247183,9.885659,0.029452432,0.06981317,-0.038179077,3.84,1.6543933,-1.1133038,9.603143,-0.093373865,0.088585466,0.2825158,-0.075526685,0.02121426,-0.85459536,2016-12-26 23:12:53,32.92868212849905
1.5705963,-0.80445176,9.890448,0.0021816615,-0.058904864,-0.019634955,5.12,1.7142484,-0.91458505,9.61272,-0.1436521,0.110133275,0.2777274,-0.07466008,0.010334585,-0.8551438,2016-12-26 23:12:54,32.05635668930229
1.5658079,-0.89543146,9.952697,-0.033815753,0.022907447,0.0109083075,3.84,1.7429788,-0.9864111,9.600749,-0.17717093,0.090979666,0.35194764,-0.07984348,0.011331666,-0.8540535,2016-12-26 23:12:55,30.135393986364743
1.685518,-0.89064306,9.986216,-0.0054541538,0.0425424,-0.019634955,0.0,1.7836803,-0.94570965,9.598354,-0.09816227,0.055066638,0.3878607,-0.08238645,0.007380355,-0.85385746,2016-12-26 23:12:56,45.43984408758974
1.5945383,-0.866701,9.91439,0.020725785,0.06981317,-0.008726646,3.1999998,1.6136919,-1.0295067,9.619903,-0.019153614,0.16280572,0.29448682,-0.078777894,0.014718141,-0.8550339,2016-12-26 23:12:57,34.19542380349936
1.70946,-0.93373865,9.6845455,-0.0054541538,-0.017453292,0.0021816615,4.48,1.7549498,-1.0007763,9.598354,-0.045489833,0.06703765,0.08619126,-0.08574535,0.009056516,-0.85570955,2016-12-26 23:12:58,35.63081413908272
1.685518,-0.79966336,10.101137,0.016362462,-0.0032724924,0.008726646,3.84,1.745373,-0.91219085,9.607931,-0.059855044,0.11252748,0.49320555,-0.08439915,0.0046360865,-0.8561574,2016-12-26 23:12:59,32.487587431315916
1.733402,-0.89543146,9.799467,0.018544123,0.020725785,-0.0076358155,4.48,1.7166426,-0.8571242,9.617508,0.016759412,-0.038307227,0.18195933,-0.08305219,0.0021983348,-0.85604,2016-12-26 23:13:00,34.005088483769875
1.7812861,-0.8619126,10.019734,0.0,0.0021816615,0.0032724924,3.84,1.6663644,-0.81163436,9.631873,0.11492168,-0.050278235,0.3878607,-0.08090546,9.207353E-4,-0.85699815,2016-12-26 23:13:01,25.381991986142708
1.8052281,-0.9720459,9.947908,0.004363323,0.0021816615,0.0010908308,3.84,1.685518,-0.79008657,9.629479,0.11971009,-0.18195933,0.3184288,-0.0822413,-0.0010487176,-0.857082,2016-12-26 23:13:02,31.619217489140734
1.7046716,-0.7613561,9.751583,0.006544985,-0.009817477,-0.006544985,4.48,1.6903064,-0.80205756,9.627085,0.01436521,0.04070143,0.12449849,-0.08386965,-0.0011318661,-0.85713774,2016-12-26 23:13:03,25.78670243535294
1.7764976,-0.89543146,9.775525,0.015271631,-0.009817477,0.0,3.84,1.6711528,-0.79487497,9.631873,0.10534488,-0.10055647,0.1436521,-0.08381201,-0.0013364889,-0.8575057,2016-12-26 23:13:04,36.844823632248115
1.7142484,-0.90021986,9.91439,0.017453292,-0.022907447,0.0076358155,4.48,1.7022774,-0.80924016,9.624691,0.011971008,-0.090979666,0.2896984,-0.08638507,-0.0020000897,-0.85723305,2016-12-26 23:13:05,28.774109431966885
1.685518,-0.92895025,9.962274,-0.004363323,-0.0076358155,-0.0109083075,3.84,1.7142484,-0.82121116,9.622296,-0.02873042,-0.107739076,0.33997664,-0.08788135,-0.002166897,-0.85689825,2016-12-26 23:13:06,30.07768219507797
1.8339585,-0.79487497,9.770737,0.009817477,-0.0032724924,0.0109083075,4.48,1.7118542,-0.8355764,9.622296,0.12210429,0.04070143,0.14844051,-0.08879252,-0.0020004697,-0.8567478,2016-12-26 23:13:07,23.657881745383182
1.6089035,-0.79008657,9.7803135,-0.0021816615,0.006544985,-0.004363323,2.56,1.6831238,-0.8379706,9.624691,-0.074220255,0.047884032,0.15562311,-0.08823252,-0.0013865158,-0.8572339,2016-12-26 23:13:09,21.898410886816087
1.7238252,-0.94810385,9.85214,-0.008726646,0.015271631,0.0032724924,0.0,1.6519991,-0.9983821,9.615114,0.07182605,0.050278235,0.23702596,-0.09159826,0.0062721856,-0.85735786,2016-12-26 23:13:10,30.094438133129934
1.7429788,-1.043872,9.85214,0.009817477,0.0076358155,0.0032724924,0.0,1.6759412,-1.0151415,9.610326,0.06703765,-0.02873042,0.24181437,-0.09353125,0.0060884915,-0.8574638,2016-12-26 23:13:11,23.581094186094234
1.7046716,-0.9959879,9.76116,-0.006544985,-0.008726646,0.004363323,1.92,1.6783354,-1.0175357,9.610326,0.02633622,0.021547815,0.15083471,-0.09413298,0.005971141,-0.857726,2016-12-26 23:13:12,20.56118409554205
1.5658079,-1.1061212,9.871294,0.008726646,0.0076358155,-0.01308997,1.28,1.6543933,-1.0342951,9.610326,-0.088585466,-0.07182605,0.260968,-0.09393063,0.0071859844,-0.8580631,2016-12-26 23:13:13,34.34190527836261
1.6089035,-1.1300632,9.78989,0.0010908308,-0.01308997,0.008726646,1.92,1.6639702,-1.0319009,9.610326,-0.055066638,-0.09816227,0.17956513,-0.09468592,0.0066067874,-0.8578352,2016-12-26 23:13:14,24.83866515355874
1.6663644,-0.9911995,9.742006,0.004363323,-0.0283616,0.0010908308,1.28,1.6711528,-0.9720459,9.615114,-0.0047884034,-0.019153614,0.12689269,-0.093771935,0.0033288635,-0.8573247,2016-12-26 23:13:15,25.63861618485508
1.70946,-1.067814,9.828198,-0.006544985,-0.0076358155,0.0021816615,0.0,1.6903064,-0.9911995,9.610326,0.019153614,-0.076614454,0.21787235,-0.0954458,0.0035861172,-0.85716903,2016-12-26 23:13:16,20.669545448199763
1.7477672,-1.1444284,9.7803135,0.0054541538,-0.0054541538,0.0032724924,1.28,1.7262194,-0.9888053,9.603143,0.021547815,-0.15562311,0.17717093,-0.09711145,0.0023811683,-0.85715574,2016-12-26 23:13:17,30.485154422046033
1.7046716,-1.0486604,9.818622,0.02727077,0.0076358155,0.006544985,1.92,1.7142484,-0.9600749,9.607931,-0.009576807,-0.088585466,0.21068975,-0.0959424,0.0015799776,-0.85777056,2016-12-26 23:13:18,24.368746189389725
1.7286136,-1.0582372,9.76116,0.006544985,-0.0021816615,0.0,0.0,1.721431,-0.9648633,9.607931,0.007182605,-0.093373865,0.15322891,-0.09649223,0.001717452,-0.8581917,2016-12-26 23:13:19,36.16259494507247
1.757344,-1.0103531,9.828198,-0.011999139,0.006544985,0.0032724924,1.92,1.7381904,-0.94331545,9.605537,0.019153614,-0.06703765,0.22266077,-0.09677659,4.3627247E-4,-0.85833645,2016-12-26 23:13:20,29.631175763914598
1.7621324,-1.0295067,9.861717,0.016362462,0.006544985,-0.006544985,2.56,1.7381904,-0.93134445,9.607931,0.023942016,-0.09816227,0.25378537,-0.09656008,9.4652176E-5,-0.8588675,2016-12-26 23:13:21,26.21401336222291
1.685518,-0.9528923,9.847352,-0.009817477,0.0054541538,-0.0032724924,1.28,1.7477672,-0.85473,9.61272,-0.062249243,-0.09816227,0.23463176,-0.09516306,-0.0033646747,-0.8591524,2016-12-26 23:13:22,33.076698278979784
1.757344,-0.8762778,9.794679,0.009817477,0.006544985,-0.02617994,1.92,1.757344,-0.8882488,9.607931,0.0,0.011971008,0.18674773,-0.09660343,-0.0018605813,-0.8602864,2016-12-26 23:13:23,29.47837927573945
1.7142484,-0.8283938,9.78989,-0.0054541538,0.0021816615,0.0109083075,1.28,1.7477672,-0.90740246,9.607931,-0.033518825,0.079008654,0.18195933,-0.096688345,-8.4074587E-4,-0.8602836,2016-12-26 23:13:24,35.94524218520286
1.7477672,-0.90500826,9.880871,0.0109083075,-0.0010908308,0.0032724924,1.92,1.7669208,-0.92895025,9.603143,-0.019153614,0.023942016,0.2777274,-0.098151274,-5.0824136E-4,-0.85983014,2016-12-26 23:13:25,38.3516759759449
1.6663644,-0.9576807,9.861717,-0.0021816615,-0.008726646,0.004363323,1.28,1.7884687,-0.9528923,9.595961,-0.12210429,-0.0047884034,0.2657564,-0.09960658,-2.6018173E-4,-0.8592094,2016-12-26 23:13:26,28.653705129110868
1.733402,-0.842759,9.876082,0.004363323,0.0054541538,0.006544985,1.92,1.8100165,-0.9552865,9.591172,-0.076614454,0.11252748,0.28491,-0.10043946,-9.921901E-4,-0.8588131,2016-12-26 23:13:27,21.188500611968635
1.7860745,-0.8571242,9.655815,-0.009817477,-0.004363323,-0.008726646,1.92,1.8363527,-0.9720459,9.583989,-0.050278235,0.11492168,0.07182605,-0.10171359,-9.4534457E-4,-0.8588201,2016-12-26 23:13:28,29.560823477248004
1.7477672,-0.8523358,9.631873,-0.015271631,-0.016362462,0.0076358155,1.28,1.8243817,-0.9840169,9.586384,-0.076614454,0.1316811,0.045489833,-0.10124931,-2.0641461E-4,-0.85919034,2016-12-26 23:13:29,29.08516294104075
1.7956513,-0.90500826,9.91439,0.0109083075,0.0,0.0076358155,1.92,1.7956513,-0.9888053,9.591172,0.0,0.08379706,0.32321724,-0.09971657,5.9624016E-4,-0.8594501,2016-12-26 23:13:30,29.48815243562842
1.7238252,-0.94810385,9.861717,-0.04363323,-0.049087387,-0.0032724924,1.28,1.8004397,-0.9768343,9.591172,-0.076614454,0.02873042,0.2705448,-0.099463195,-3.57721E-4,-0.85860837,2016-12-26 23:13:31,21.58820923336315
1.685518,-0.89543146,10.067618,0.0109083075,0.0054541538,-0.0021816615,0.0,1.8507179,-1.0582372,9.574412,-0.16519992,0.16280572,0.49320555,-0.103648774,0.0018946901,-0.85811025,2016-12-26 23:13:32,29.594657356389227
1.7669208,-1.0151415,9.952697,0.004363323,0.020725785,0.008726646,0.0,1.8698715,-1.0247183,9.574412,-0.10295067,0.009576807,0.37828386,-0.103336096,-1.4077127E-4,-0.8577855,2016-12-26 23:13:33,21.541766256998102
1.7764976,-1.0199299,9.785102,0.01308997,-0.017453292,0.009817477,2.56,1.8914193,-1.0821792,9.562442,-0.11492168,0.062249243,0.22266077,-0.105518006,0.0018116906,-0.8579732,2016-12-26 23:13:34,25.396562348369617
1.7046716,-0.94331545,9.737218,0.01308997,-0.006544985,-0.0032724924,0.0,1.9249382,-1.1444284,9.548077,-0.22026655,0.20111294,0.18914193,-0.10797449,0.003684394,-0.8581944,2016-12-26 23:13:35,25.643306483758725
1.8004397,-0.9816227,9.718064,0.01308997,0.006544985,-0.0032724924,0.0,1.8962077,-1.1348516,9.555259,-0.095768064,0.15322891,0.16280572,-0.106048286,0.0038872585,-0.85899425,2016-12-26 23:13:36,22.80421855031762
1.7908629,-1.1300632,9.880871,-0.015271631,0.015271631,-0.0010908308,1.28,1.9249382,-1.151611,9.548077,-0.1340753,0.021547815,0.33279404,-0.10725464,0.003955964,-0.85922056,2016-12-26 23:13:37,25.739781840469732
1.757344,-1.1013328,9.751583,0.0010908308,-0.0109083075,0.0,0.0,1.9321208,-1.127669,9.548077,-0.17477672,0.02633622,0.20350714,-0.10654114,0.0027106963,-0.85993135,2016-12-26 23:13:38,26.54270821373348
1.8914193,-0.93852705,9.818622,0.0076358155,-0.009817477,-0.006544985,0.0,1.9273324,-0.93613285,9.572019,-0.035913024,-0.0023942017,0.24660277,-0.10088689,-0.005734563,-0.86026514,2016-12-26 23:13:39,26.692374386390636
2.0494366,-0.320823,10.072407,-0.038179077,-0.103628926,0.01308997,0.0,2.408567,-0.58418524,9.490616,-0.35913026,0.2633622,0.581791,-0.11258251,-0.035106324,-0.85408556,2016-12-26 23:13:40,34.31588895527995
2.1068976,-1.1827357,9.718064,0.03926991,0.009817477,-0.040360738,0.0,2.6479871,-1.3862427,9.3421755,-0.5410896,0.20350714,0.37588966,-0.14422682,-0.0067528337,-0.8481747,2016-12-26 23:13:41,25.443213089363944
2.72939,-0.9672575,9.617508,0.004363323,-0.02617994,0.011999139,1.28,2.956839,-1.127669,9.284714,-0.22744916,0.1604115,0.33279404,-0.15059078,-0.027113922,-0.8440616,2016-12-26 23:13:42,66.5423580795665
2.6719291,-1.0247183,9.722853,0.009817477,-0.022907447,0.0141808,0.0,2.96881,-1.0295067,9.291897,-0.29688102,0.0047884034,0.4309563,-0.14801049,-0.031594075,-0.844157,2016-12-26 23:13:43,24.573109110578073
2.7629087,-0.80445176,9.497798,0.053450707,-0.016362462,-0.016362462,0.0,2.9735985,-0.91697925,9.301474,-0.21068975,0.11252748,0.19632454,-0.14460902,-0.03661157,-0.8440233,2016-12-26 23:13:44,30.68585482403296
2.681506,-0.7278373,9.540894,-0.0010908308,0.009817477,-0.01308997,1.28,2.9783869,-0.93613285,9.296685,-0.29688102,0.20829555,0.24420857,-0.14488089,-0.035814654,-0.8441587,2016-12-26 23:13:45,30.829632988884864
2.6862943,-0.79487497,9.627085,-0.022907447,0.018544123,0.008726646,1.92,2.9616275,-1.0031705,9.296685,-0.2753332,0.20829555,0.33039984,-0.14533114,-0.032584794,-0.8445016,2016-12-26 23:13:46,50.108521575098166
2.681506,-0.6847417,9.55047,0.011999139,-0.018544123,-0.017453292,1.28,2.96881,-1.0055647,9.294291,-0.2873042,0.320823,0.25617957,-0.14512207,-0.032811124,-0.845442,2016-12-26 23:13:47,25.64054228892698
2.6384103,-0.7565677,9.694122,0.0021816615,0.0021816615,0.0076358155,1.92,2.9855695,-1.0055647,9.287108,-0.34715924,0.24899697,0.40701428,-0.14527383,-0.033508874,-0.84544235,2016-12-26 23:13:48,31.785177233874155
2.743755,-0.78050977,9.775525,0.009817477,0.0141808,0.0076358155,1.28,2.9831753,-1.0079589,9.289502,-0.23942018,0.22744916,0.48602295,-0.144724,-0.033389956,-0.8461481,2016-12-26 23:13:49,34.38405209266535
3.0502129,-0.5746084,9.775525,-0.0283616,-0.032724924,-0.0021816615,0.0,3.0430303,-1.0390835,9.26556,0.007182605,0.46447513,0.50996494,-0.14827782,-0.031636517,-0.8524352,2016-12-26 23:13:50,37.07817234984003
2.8682537,-0.40701428,9.598354,-0.07199483,0.040360738,-0.050178215,0.0,2.932897,-0.8355764,9.320627,-0.06464344,0.4285621,0.2777274,-0.13730666,-0.03812385,-0.8536214,2016-12-26 23:13:51,34.634151515212224
2.3319526,-0.82360536,9.7084875,-0.06981317,-0.015271631,-0.004363323,1.28,2.8395233,-1.055843,9.32781,-0.50757074,0.23223756,0.38067806,-0.13848834,-0.02563506,-0.85530984,2016-12-26 23:13:52,36.44986446172759
2.4468741,-0.38307226,9.61272,-0.067631505,0.006544985,-0.017453292,0.0,2.825158,-0.7637503,9.361329,-0.37828386,0.38067806,0.25139117,-0.12947747,-0.039566644,-0.85316294,2016-12-26 23:13:53,29.226778922732564
2.5809495,-0.45010993,10.086772,0.13526301,-0.004363323,0.017453292,0.0,2.7006595,-0.7685388,9.397242,-0.11971009,0.3184288,0.6895301,-0.12356282,-0.036138006,-0.8543398,2016-12-26 23:13:55,32.57979897077342
2.753332,-0.5554548,9.205706,0.037088245,-0.033815753,-0.021816615,0.0,2.885013,-0.7230489,9.346964,-0.1316811,0.16759412,-0.1412579,-0.13044946,-0.043185864,-0.8543123,2016-12-26 23:13:56,31.864171331041117
2.585738,0.076614454,9.651027,0.062177356,0.02617994,-0.009817477,0.0,2.873042,-0.533907,9.361329,-0.2873042,0.61052144,0.2896984,-0.124612406,-0.050952747,-0.85601616,2016-12-26 23:13:57,28.068255634942215
2.542642,-0.18195933,9.871294,0.0076358155,-0.023998277,-0.0054541538,0.0,2.896984,-0.5291186,9.356541,-0.35434186,0.34715924,0.51475334,-0.12531348,-0.051576108,-0.8568445,2016-12-26 23:13:58,31.21401153823107
2.5761611,-0.23463176,9.770737,0.0109083075,0.015271631,-0.0054541538,0.0,2.8682537,-0.5434838,9.363723,-0.29209262,0.30885202,0.40701428,-0.12269524,-0.048406485,-0.85638106,2016-12-26 23:13:59,39.33290363887914
2.5139117,-0.1436521,9.61272,-0.004363323,0.011999139,-0.0054541538,0.0,2.908955,-0.5291186,9.351752,-0.39504328,0.3854665,0.260968,-0.12250727,-0.04795932,-0.8561125,2016-12-26 23:14:00,35.38492568279247
2.60968,-0.21068975,9.866506,0.0,-0.0032724924,0.01308997,1.92,2.9041667,-0.5243302,9.354146,-0.29448682,0.31364042,0.51235914,-0.12066156,-0.045877337,-0.85659325,2016-12-26 23:14:01,29.05019661248091
2.6001031,-0.23463176,9.737218,-0.0054541538,0.008726646,-0.0010908308,1.92,2.918532,-0.5315128,9.349358,-0.3184288,0.29688102,0.3878607,-0.1201948,-0.04390394,-0.85705256,2016-12-26 23:14:02,27.34693175737156