ACC_X,ACC_Y,ACC_Z,GYRO_X,GYRO_Y,GYRO_Z,LIGH_1,GRAV_X,GRAV_Y,GRAV_Z,LINACC_X,LINACC_Y,LINACC_Z,ROTVEC_X,ROTVEC_Y,ROTVEC_Z,TIME,VOICE
6.4739213,-0.18195933,8.475474,-0.9603948,-0.25117853,0.15633322,30.0,0.56873465,0.08387869,0.81823295,-0.031235993,0.005574353,-0.053136647,-0.049289357,-0.29872626,-0.29918763,2016-12-03 09:37:39,52.62489158047253
5.4204726,0.51714754,8.236053,0.23550159,0.031145219,-0.23779067,28.0,0.5697237,0.038396932,0.8209388,-0.01707232,0.021037064,0.0016270876,-0.09053808,-0.28658748,-0.31705728,2016-12-03 09:37:39,51.79159818187099
4.817134,0.30645782,8.475474,-0.40109658,0.05070837,-0.08552828,29.0,0.4974341,0.0405888,0.86655176,-0.006308645,-0.010504827,0.009663403,-0.07299816,-0.2507852,-0.35072026,2016-12-03 09:37:40,52.05617235881736
5.3247046,-0.12449849,8.121132,-0.2033912,-0.20091732,0.106111616,30.0,0.54327434,-0.024162184,0.8392075,-0.007857621,-0.0056753904,0.010080874,-0.102320634,-0.2579606,-0.32758084,2016-12-03 09:37:42,63.196522333275944
4.4244847,0.6799533,8.724471,-0.006821225,-4.2648474E-4,0.0030630194,29.0,0.4567261,0.06092413,0.8875188,-0.008974105,5.341843E-4,-0.001262188,-0.054009043,-0.23128478,-0.3407442,2016-12-03 09:37:43,36.929984847983306
4.5777135,0.641646,8.820239,0.02235686,0.13200441,-0.004027052,29.0,0.4305068,0.05954621,0.900621,-0.036192656,0.007604569,0.009470224,-0.0484968,-0.21958566,-0.3389973,2016-12-03 09:37:44,55.45830822957667
4.003105,0.8714894,8.954314,0.27190423,-0.08842513,0.5315514,28.0,0.40931794,0.054141335,0.910784,0.0019978285,0.029058386,0.0011201501,-0.042657766,-0.20475304,-0.32190374,2016-12-03 09:37:45,66.52445923697412
4.309563,1.091756,8.66701,0.02874187,-0.018132087,0.28198883,26.0,0.43582782,0.11852852,0.8921912,0.005681902,-0.0048208833,-0.0057985187,0.0068348474,-0.23107858,-0.23462296,2016-12-03 09:37:46,34.78982014684956
4.3861775,1.2066777,8.63828,-0.18695664,-0.030285139,0.097395875,26.0,0.45113012,0.12972763,0.8829792,0.006607324,-0.0010140091,-0.013887644,0.013660426,-0.23939732,-0.21386643,2016-12-03 09:37:47,49.080340479090324
4.367024,1.3215994,8.580819,-0.093025446,0.020377733,-0.08415431,26.0,0.44563243,0.13619125,0.8847959,-0.0016250014,-0.008047476,-0.003533125,0.011906706,-0.24074624,-0.23334794,2016-12-03 09:37:48,38.2816923935911
2.2505496,1.7908629,8.485051,-0.8813058,0.4716835,-1.4764819,30.0,0.4553382,0.1382742,0.8795154,-0.13850892,-0.0024995357,-0.09738994,0.018218355,-0.24679707,-0.2231947,2016-12-03 09:37:49,53.04704242959819
4.7022123,-0.9959879,4.9224787,-2.2911882,-0.68399054,-2.357161,25.0,0.6226523,-0.007845246,0.78245926,0.25771242,0.0028186566,-0.09593302,-0.09318915,-0.29572368,-0.27919024,2016-12-03 09:37:50,47.189201772251735
7.07726,-0.06703765,6.703765,-1.5549252,0.05728293,-0.48583078,37.0,0.72694063,-0.004976117,0.6866823,-0.0065711737,-9.934879E-4,-0.0018117428,-0.28258598,-0.27834818,-0.64868456,2016-12-03 09:37:51,48.810058869191735
7.144298,-0.06703765,6.6367273,-0.515375,-0.08214327,-0.15436494,35.0,0.7281922,-0.0057813916,0.6853486,7.23958E-4,9.4120344E-4,-0.001190722,-0.28550562,-0.27395537,-0.6570798,2016-12-03 09:37:52,58.046485122996536
7.0485296,-0.06703765,6.6271505,-0.1252484,0.013907092,-0.007864208,33.0,0.72630507,-0.005472915,0.6873508,0.002949953,-0.005063778,0.002313137,-0.28864136,-0.2712645,-0.66532844,2016-12-03 09:37:53,57.33550432273472
7.1155677,-0.02873042,6.7803793,-0.04164405,-0.013748734,-0.0032310437,35.0,0.7254806,-0.0061919778,0.6882147,-0.0011861324,0.0013752626,0.008367538,-0.28858414,-0.26995933,-0.6660161,2016-12-03 09:37:54,46.87752126326308
7.086837,-0.02873042,6.7229185,-0.018284725,-0.0065060826,-0.0016434423,36.0,0.72750854,-0.0051701376,0.68607914,-4.9859285E-4,-0.003371615,-0.005880058,-0.2904682,-0.27129623,-0.66555476,2016-12-03 09:37:55,50.6201388873272
7.07726,-0.05746084,6.7133417,0.03316639,0.03881013,0.003136552,36.0,0.72637933,-0.008350502,0.68724334,-0.0011175275,0.004387754,0.001529932,-0.28993958,-0.27058703,-0.6658613,2016-12-03 09:37:56,58.23049658068718
7.067683,-0.076614454,6.6654577,-0.038230747,-0.014267274,-0.0032998174,36.0,0.7268462,-0.008961469,0.6867417,-7.918477E-4,-0.0017245021,-0.0065668225,-0.28998852,-0.26825666,-0.6671033,2016-12-03 09:37:57,40.867764229819656
7.086837,-0.06703765,6.751649,0.13921168,0.030955596,0.0105046155,36.0,0.72586477,-0.005376351,0.68781644,-7.5387955E-4,-0.0024926448,-0.0037695765,-0.28985575,-0.26948896,-0.6662811,2016-12-03 09:37:58,41.18224343314865
7.1251445,-0.11492168,6.7229185,-0.16193385,-6.461572E-4,-0.010523616,36.0,0.7256134,-0.007591737,0.68806076,-0.0014010668,-0.0057353033,-0.0031151772,-0.28868064,-0.26944226,-0.6661296,2016-12-03 09:37:59,44.32404354122808
7.07726,-0.02873042,6.6367273,-0.033054657,-0.013786458,-0.0024709015,36.0,0.72806686,-0.0060921637,0.685479,0.0017820001,-0.00434911,-0.004203379,-0.28694677,-0.27286392,-0.6603099,2016-12-03 09:38:00,36.90458571584878
7.0964136,-0.02873042,6.742072,-0.05989964,-0.007911857,-0.0039900187,36.0,0.72811973,-0.005111835,0.68543094,-0.005174339,-0.0026059095,-0.011908233,-0.28480533,-0.27555054,-0.65439934,2016-12-03 09:38:01,53.059326330026494
7.1059904,-0.047884032,6.7229185,-0.103694186,-0.0040848455,-0.006824473,36.0,0.7259667,-0.0064542023,0.6876996,-0.0027995706,0.0035099895,-7.3200464E-4,-0.2833207,-0.27484894,-0.65459436,2016-12-03 09:38:02,62.71895118809379
7.0964136,-0.038307227,6.742072,-0.12994254,-0.006816598,-0.008563544,36.0,0.72465754,-0.0012546965,0.689108,3.466606E-4,-0.0053741215,-0.007879734,-0.28246576,-0.2763777,-0.65364903,2016-12-03 09:38:03,36.56385519460105
7.0964136,-0.06703765,6.7803793,0.09443648,-0.029032025,0.005286741,35.0,0.72857004,-0.007820026,0.6849266,-0.003679514,-0.002917002,-0.006508231,-0.28518528,-0.27445993,-0.6550354,2016-12-03 09:38:04,51.84380418090761
7.0964136,-0.019153614,6.703765,0.17635968,-0.019908939,0.01087323,36.0,0.72524154,-0.00863425,0.6884404,-0.0031313896,0.0026065046,-0.00432235,-0.28502378,-0.27291852,-0.65585154,2016-12-03 09:38:05,50.84175726188579
7.1059904,-0.11492168,6.7229185,-0.11625613,-0.0243951,-0.007964741,36.0,0.7307835,-0.003461114,0.6826005,-0.001804471,-0.0013183043,-4.6366453E-4,-0.28407657,-0.2781595,-0.6528724,2016-12-03 09:38:06,60.131236723414425
7.0964136,-0.11492168,6.6654577,-0.1929254,-0.016922098,-0.013007577,42.0,0.72540265,-0.00459031,0.68830943,-0.001413703,-0.0069707236,-0.008017421,-0.28345165,-0.27472404,-0.6546735,2016-12-03 09:38:07,44.20608522705908
7.1155677,-0.019153614,6.646304,-0.041411847,-0.007205421,-0.0029304842,40.0,0.7295099,-0.01122147,0.68387824,0.003403306,0.0035446575,0.005073905,-0.28708965,-0.27448958,-0.6552638,2016-12-03 09:38:08,61.02770309940969
7.1347213,-0.095768064,6.6846113,0.018711325,-0.008878936,0.0010930574,40.0,0.7267623,-0.004589693,0.6868737,-0.0036818385,0.004370371,-0.0037246943,-0.2837609,-0.27574742,-0.6541565,2016-12-03 09:38:09,60.785290169833644
7.038953,-0.095768064,6.6846113,0.09655407,0.0094895605,0.0065159793,35.0,0.7297631,-0.009202704,0.6836382,-0.0046007037,0.0041628727,3.5202503E-4,-0.28746983,-0.2749923,-0.6550373,2016-12-03 09:38:10,52.02921543964902
7.038953,0.0,6.6175733,-0.054525293,0.023620734,-0.003128011,37.0,0.7264675,-0.009878626,0.6871298,-0.00704062,-5.864864E-4,-0.0013135076,-0.28579345,-0.27423477,-0.6552353,2016-12-03 09:38:11,51.16455640963995
7.1730285,-0.08619126,6.7229185,-0.12109156,-0.019969052,-0.007857563,36.0,0.72529155,-0.0058053588,0.6884173,-1.0561943E-4,-0.0028902828,4.377365E-4,-0.28356257,-0.27520338,-0.65442276,2016-12-03 09:38:12,56.840545184390095
7.0581064,-0.08619126,6.703765,0.038642388,-0.048724532,0.0021016935,36.0,0.7277236,-0.006113321,0.6858433,-0.007707417,0.0010704705,-0.013302803,-0.28446278,-0.2745428,-0.6547911,2016-12-03 09:38:13,48.986599913983625
7.07726,-0.095768064,6.6654577,-0.00792789,0.0048492416,-3.5503687E-4,37.0,0.7291067,-0.007573003,0.6843581,-0.0019978285,0.0036125071,-0.0023123622,-0.28618598,-0.27564445,-0.6544072,2016-12-03 09:38:14,63.55451824247492
7.0485296,-0.08619126,6.7229185,-0.007931214,0.0064724763,-3.2720016E-4,37.0,0.7277457,-0.007325003,0.68580794,-0.0045691133,0.0052324594,-0.0027608275,-0.28526208,-0.2757405,-0.65424466,2016-12-03 09:38:15,60.338011938909574
7.07726,-0.06703765,6.6750345,-0.053563192,-0.0011967741,-0.0032625475,37.0,0.7275603,-0.008776431,0.68598765,-0.0073560476,-0.0029233284,-0.0077816844,-0.28516918,-0.27566656,-0.6542729,2016-12-03 09:38:16,54.55696315025787
7.1059904,-0.05746084,6.6846113,0.05537788,-0.015469871,0.003239987,37.0,0.72866803,-0.008006202,0.6848203,-0.0036422014,0.001951769,-0.002639234,-0.28599107,-0.27457687,-0.6549565,2016-12-03 09:38:17,55.60187178264103
7.038953,-0.095768064,6.694188,-0.31351095,-0.017892644,-0.01976287,36.0,0.72650373,-0.00695729,0.6871273,0.0014058352,0.0040387586,-0.0068481565,-0.2821251,-0.27576068,-0.6538607,2016-12-03 09:38:18,60.19312570395655
7.1251445,-0.076614454,6.694188,0.06796165,-0.021562062,0.004167215,36.0,0.72733295,-0.006246005,0.68625635,-0.0032514334,0.0012850235,7.7718496E-4,-0.28446114,-0.27405918,-0.6550848,2016-12-03 09:38:19,45.96468391620831
7.086837,-0.11492168,6.7708025,-0.00831236,-0.007914817,-6.44843E-4,36.0,0.7254362,-0.00558892,0.6882667,-0.004425347,0.0054515996,-0.008905232,-0.28335914,-0.27477375,-0.65456754,2016-12-03 09:38:20,55.73383551066203
7.1155677,-0.019153614,6.6846113,0.07642613,-0.008256281,0.0046011643,36.0,0.7275446,-0.008849823,0.6860033,-0.0014606714,-1.7659739E-5,-0.0048843026,-0.2861813,-0.27450055,-0.6550518,2016-12-03 09:38:21,47.01841239817981
7.1155677,-0.10534488,6.6750345,-0.025996745,0.019680403,-0.0013132672,36.0,0.726786,-0.0064403247,0.6868338,-7.7807903E-4,0.0034302347,-0.00563401,-0.28464648,-0.27558488,-0.65428483,2016-12-03 09:38:22,61.74970615258577
7.153875,-0.06703765,6.7133417,-0.12608007,0.014509771,-0.007542581,36.0,0.7282602,-0.0041373796,0.68528825,-0.0069572926,-0.0046057436,0.0054925084,-0.28460914,-0.27608073,-0.65401167,2016-12-03 09:38:23,46.244105298376596
7.1059904,-0.06703765,6.8186865,0.01384403,0.007052218,0.0010456477,36.0,0.72264916,-0.006904241,0.6911806,-0.0013714433,-0.0010192678,0.0025587678,-0.2828285,-0.2732497,-0.6553235,2016-12-03 09:38:24,51.970170809133535
7.019799,-0.076614454,6.7133417,-0.0029552658,-0.0042804065,-2.8656953E-4,36.0,0.7272014,-0.008200153,0.6863752,-0.0060343742,-0.0023638206,-0.009129226,-0.2855938,-0.27431303,-0.6550814,2016-12-03 09:38:25,46.98939295011313
7.067683,-0.038307227,6.742072,0.019092139,0.02626392,0.0020485732,37.0,0.7256415,-0.004984701,0.6880549,-0.0043880343,-0.0028491924,-0.006993711,-0.28392714,-0.27531958,-0.65434253,2016-12-03 09:38:26,39.77034664278695
7.07726,-0.038307227,6.7324953,0.09555605,0.0115453955,0.0058957706,37.0,0.725887,-0.0038717468,0.68780303,-0.0057030916,5.748584E-4,-0.0056691766,-0.28488463,-0.27507377,-0.6545889,2016-12-03 09:38:27,44.45831149743867
7.0485296,-0.02873042,6.7612257,0.045930065,0.019270798,0.003249165,37.0,0.7248913,-0.004643574,0.6888476,2.233386E-4,0.001553792,-0.0048053265,-0.28320524,-0.27505982,-0.65439224,2016-12-03 09:38:28,57.36098245765817
7.07726,-0.05746084,6.751649,0.015358544,-0.002810704,8.4510294E-4,37.0,0.7265504,-0.0056890654,0.6870896,-0.0033714175,0.0028597899,0.003775239,-0.28413072,-0.27527326,-0.6543905,2016-12-03 09:38:29,51.73502413455231
7.067683,-0.05746084,6.7612257,-0.08014514,-0.030033128,-0.006078548,37.0,0.728318,-0.008583885,0.68518555,-0.0012672544,-0.0039309254,0.0018113256,-0.28556296,-0.27413893,-0.6551711,2016-12-03 09:38:30,58.158388331048315
7.0102224,-0.02873042,6.7324953,-0.06576871,-0.016035926,-0.0045433147,36.0,0.7270153,-0.0075269113,0.68658,-0.007836342,-0.0031880657,-0.010277629,-0.28509372,-0.27431127,-0.65502185,2016-12-03 09:38:31,51.409515188979675
7.0964136,-0.076614454,6.6654577,0.099127136,-0.016999545,0.0060187704,37.0,0.72658664,-0.0069917114,0.6870393,-0.0034156442,-0.003742931,-0.0039844513,-0.28419054,-0.27382806,-0.65517205,2016-12-03 09:38:33,55.69710666964439
7.0964136,-0.05746084,6.703765,-0.03483621,-0.0023204861,-0.0022075104,36.0,0.72528154,-0.006237197,0.6884241,0.00356704,-0.0025039217,-0.0061504245,-0.28342685,-0.2745376,-0.65470517,2016-12-03 09:38:34,64.87586970674786
7.0964136,-0.038307227,6.6750345,0.067262,-0.0226468,0.0033633572,36.0,0.72838855,-0.0070368713,0.6851282,-0.0024968982,-0.0018380876,-0.0067361593,-0.28569183,-0.27486843,-0.6547948,2016-12-03 09:38:35,36.09948396324549
7.0485296,-0.038307227,6.7803793,-0.06295581,0.0015699205,-0.0038591586,36.0,0.72800815,-0.008313579,0.685518,-0.0047578216,-0.002267572,-0.002545774,-0.28635085,-0.27518985,-0.6547018,2016-12-03 09:38:36,61.07626875962755
7.086837,-0.095768064,6.799533,-0.1412426,0.01316371,-0.008524345,36.0,0.72274566,-0.0072991154,0.69107556,4.3439865E-4,-0.0021805312,0.0027225018,-0.28301722,-0.2736596,-0.6551233,2016-12-03 09:38:37,65.97115910220417
7.086837,-0.076614454,6.5505357,-6.119914E-4,-0.0010818267,4.4309505E-5,36.0,0.7254717,-0.0065966356,0.6882205,-0.009149969,0.0034839446,-0.011998773,-0.2841545,-0.2744081,-0.6548586,2016-12-03 09:38:38,59.724149681240235
7.086837,-0.038307227,6.6654577,-0.10041049,-0.004939144,-0.006361878,36.0,0.7240913,-0.0051327534,0.68968505,-9.214878E-4,-0.008253992,-0.005649507,-0.2836617,-0.27463716,-0.6546776,2016-12-03 09:38:39,35.59390369292257
7.1251445,-0.05746084,6.751649,-0.055127777,-0.021797251,-0.0039463285,36.0,0.7275805,-0.006497837,0.6859915,-0.0025762916,-0.0041666823,-8.531213E-4,-0.28439447,-0.27521762,-0.6544507,2016-12-03 09:38:40,58.69640152016917
7.1251445,-0.038307227,6.7324953,-0.014529318,0.014756353,-4.6057696E-4,37.0,0.73047626,-0.004640728,0.6829223,-0.007300794,-0.001970056,0.0030605197,-0.28363055,-0.2782586,-0.6527141,2016-12-03 09:38:41,46.547648321509996
7.1155677,-0.038307227,6.7324953,0.1204606,-0.0020556988,0.0075080045,37.0,0.7255067,-0.0031589204,0.68820775,0.0026144385,-0.004627002,0.005529046,-0.283038,-0.27525696,-0.65426666,2016-12-03 09:38:42,52.70820924027657
7.0485296,-0.047884032,6.7612257,-0.0011549327,-0.024364047,-5.5339606E-4,37.0,0.7250435,-0.008178235,0.68865454,-7.1942806E-5,-6.459141E-4,-0.0064153075,-0.2837283,-0.27441034,-0.65480644,2016-12-03 09:38:43,54.35984584272696
7.1155677,0.009576807,6.655881,-0.01749881,0.004526875,-0.0011332066,37.0,0.72696465,-0.005752146,0.68665075,-0.0027902126,-1.3781339E-4,-0.0036241412,-0.28512073,-0.27536464,-0.6544611,2016-12-03 09:38:44,53.28424878317399
7.0964136,-0.019153614,6.694188,0.061569,-0.0226068,0.0034005374,37.0,0.7260778,-0.008163252,0.6875641,0.0020782948,-6.734142E-4,-0.0065689087,-0.2860917,-0.2734779,-0.6555902,2016-12-03 09:38:45,63.48143772567731
7.07726,-0.019153614,6.655881,-0.010223088,0.033241216,-5.519452E-4,36.0,0.7246335,-0.0065297303,0.68910354,-0.0023991466,0.0045616906,-0.010000408,-0.28335693,-0.27558848,-0.6541285,2016-12-03 09:38:46,48.14548483531035
7.1155677,-0.05746084,6.789956,-0.16966596,7.264172E-4,-0.12111989,33.0,0.72564685,-0.007386642,0.6880277,-0.0015294552,-0.0013140631,0.0048327446,-0.2860917,-0.27110508,-0.6608543,2016-12-03 09:38:47,53.72550818696142
6.9623384,-0.02873042,6.8186865,-0.06269902,-0.005336636,-0.0041169384,35.0,0.7297045,-0.005847092,0.6837377,-7.4112415E-4,-0.002983809,-0.0035395026,-0.29039153,-0.27078637,-0.66546273,2016-12-03 09:38:48,43.78708443705583
7.0485296,-0.06703765,6.703765,-0.018360116,-0.0021143453,-0.0011853708,36.0,0.7269163,-0.008033305,0.68667907,-0.0038787127,-8.26912E-4,-0.0044611692,-0.28711125,-0.27191347,-0.6605281,2016-12-03 09:38:49,42.123876646067224
7.0964136,0.0,6.7229185,0.10445018,-9.22473E-4,0.006432195,36.0,0.72681123,-0.002840523,0.68683136,-7.7581406E-4,-0.0039949133,-0.0027284026,-0.28592467,-0.2731103,-0.65975386,2016-12-03 09:38:50,67.38250403190222
7.0964136,-0.02873042,6.6271505,0.032038506,-0.0642166,9.5682E-4,36.0,0.72845215,-0.007957429,0.68505055,3.131032E-4,-8.747615E-4,-0.014414132,-0.28558722,-0.27437335,-0.6550496,2016-12-03 09:38:51,62.09120884976205
7.1059904,-0.05746084,6.7133417,-0.14987856,-0.010368986,-0.009379565,36.0,0.7256532,-0.00249282,0.6880562,-6.7204237E-4,-0.0033098862,-0.007780671,-0.28185856,-0.27689058,-0.6532406,2016-12-03 09:38:52,63.579604142243475
7.144298,-0.02873042,6.742072,0.031418867,-0.008406666,0.0016653305,42.0,0.727211,-0.0069428314,0.68637884,-0.004064977,-6.4039975E-4,-0.0032953024,-0.28619382,-0.27322415,-0.6597273,2016-12-03 09:38:53,42.61041947095955
7.0485296,-0.11492168,6.7229185,0.011656305,9.977733E-4,7.47574E-4,35.0,0.7255713,-0.0068815355,0.68811256,0.006371796,-0.005742062,0.0018076897,-0.28453133,-0.27382722,-0.65539694,2016-12-03 09:38:54,55.523069876750625
7.038953,-0.05746084,6.7229185,0.035234123,-0.021442447,0.0024534739,35.0,0.72552323,-0.006938867,0.6881627,-0.0053237677,-7.902407E-4,-0.0031106472,-0.28359807,-0.27360335,-0.65522534,2016-12-03 09:38:55,35.13060761691288
7.0581064,-0.02873042,6.646304,-0.04383298,-0.015425171,-0.0030382676,35.0,0.7259541,-0.00569573,0.6877196,-0.0019286275,-0.0029165898,-0.00355649,-0.28363934,-0.2752524,-0.6543448,2016-12-03 09:38:56,35.89755111453329
7.07726,-0.009576807,6.6271505,-0.023490937,0.021524986,-0.0014711417,33.0,0.723042,-0.0054329047,0.69078267,-9.048581E-4,-0.0013166838,-0.0047361255,-0.28287226,-0.2741827,-0.6548268,2016-12-03 09:38:57,52.69581147612448
7.0964136,-0.038307227,6.6750345,-0.009262381,0.032319136,-6.7669264E-4,33.0,0.7253165,-0.0065454296,0.6883845,0.0016543269,-0.0029390221,-0.0022802353,-0.283582,-0.27551317,-0.65419567,2016-12-03 09:38:58,53.97361295017616
7.086837,-0.009576807,6.6846113,-0.1436484,0.01084021,-0.008703208,35.0,0.72325647,-0.005603033,0.69055676,0.0028350353,-1.8957816E-4,0.0013054013,-0.28239888,-0.27466685,-0.6545116,2016-12-03 09:38:59,50.68778822427013
7.067683,-0.05746084,6.7229185,-0.06700514,-0.0038750824,-0.0042240187,36.0,0.72559905,-0.005485837,0.68809587,-0.004345715,-0.0022028382,-0.0011700392,-0.28366256,-0.27510548,-0.65442675,2016-12-03 09:39:00,35.51460418068935
7.086837,-0.12449849,6.655881,0.11546937,0.011501645,0.0074589266,37.0,0.72508425,-0.009746066,0.6885912,-0.005090773,0.0026490996,-0.019939601,-0.28643683,-0.2726473,-0.65607435,2016-12-03 09:39:01,49.01743035137827
7.07726,-0.08619126,6.7612257,-0.09951702,-0.011650051,-0.0065862997,37.0,0.7262767,-0.005517943,0.68738025,-2.3329258E-4,-0.0039003496,6.260872E-4,-0.28329438,-0.27542186,-0.6542091,2016-12-03 09:39:02,34.04901391753297
7.067683,-0.02873042,6.742072,0.14487322,0.02869285,0.009602758,37.0,0.72408545,-0.004570505,0.6896951,-0.003768921,0.002350707,-0.00965476,-0.28416455,-0.27432075,-0.6549076,2016-12-03 09:39:03,65.7602321788373
7.1251445,-0.02873042,6.789956,0.06643114,0.018883595,0.004281812,37.0,0.7274183,-0.0039416337,0.6861829,-0.0022960305,8.904794E-5,0.0027385354,-0.28429002,-0.27613187,-0.65394646,2016-12-03 09:39:04,48.09859086651247
7.067683,-0.06703765,6.6367273,0.14704975,-9.049756E-4,0.009008129,37.0,0.72609305,-0.0044721183,0.6875819,-0.008655727,-0.0015105312,-0.0036876798,-0.28359652,-0.27492833,-0.65450984,2016-12-03 09:39:05,61.30648300921527
7.1059904,-0.047884032,6.6271505,0.035702765,-0.014931593,0.0019764036,37.0,0.72552055,-0.0069437074,0.6881654,0.006320536,-9.855791E-4,-0.0020484328,-0.2845414,-0.27365395,-0.65530735,2016-12-03 09:39:06,60.731737237850815
7.0964136,-0.047884032,6.646304,-0.13356943,-0.0012689012,-0.008318774,37.0,0.72810215,-0.0044616535,0.6854541,-1.5968084E-4,-0.003291605,-0.0022773147,-0.28411642,-0.27589172,-0.6540536,2016-12-03 09:39:07,49.3405575662606
7.153875,-0.06703765,6.7133417,0.058987506,-6.960774E-4,0.0036036188,37.0,0.7256975,-0.0069938875,0.6879783,3.684759E-4,0.0038442356,9.762645E-4,-0.2869981,-0.2710467,-0.6609718,2016-12-03 09:39:08,64.48382868725342
7.038953,-0.047884032,6.655881,0.13118887,-0.027526367,0.098054975,37.0,0.724353,-0.007065114,0.6893931,-0.0033278465,0.0010461952,-0.005161464,-0.28512782,-0.27121893,-0.66039157,2016-12-03 09:39:09,37.389855715787306
7.1730285,-0.095768064,6.6654577,0.20070013,-0.008210717,0.012290108,37.0,0.7266196,-0.009075642,0.68698007,-0.0015875101,0.003989859,-0.0038293004,-0.28467005,-0.27416357,-0.65505177,2016-12-03 09:39:10,38.00876960154662
7.038953,-0.038307227,6.8186865,0.14220303,0.010897952,0.008992798,36.0,0.72678757,-0.0060728244,0.68683547,-0.001565516,0.0030056196,-0.00681597,-0.28523907,-0.2750861,-0.65462184,2016-12-03 09:39:11,34.78435718638525
7.07726,-0.02873042,6.655881,-0.06841865,-0.0065849563,-0.004372118,36.0,0.7264297,-0.0051838155,0.6872212,6.222129E-4,-0.0034918757,-2.271533E-4,-0.28344253,-0.2756173,-0.65412086,2016-12-03 09:39:12,37.85424159224044
7.019799,-0.047884032,6.7229185,0.024508022,-0.031027503,2.170451E-4,37.0,0.7258191,-0.007403145,0.6878458,-0.0018746853,-0.001296665,-0.0045749545,-0.2841279,-0.27387917,-0.65513986,2016-12-03 09:39:13,48.9175926380498
7.067683,-0.11492168,6.6846113,-0.042279184,0.014088958,-0.0023339163,37.0,0.72415185,-0.00763227,0.6895983,-0.0039190054,8.007875E-4,-0.005559385,-0.28421056,-0.27406952,-0.6549408,2016-12-03 09:39:14,54.5977348750905
7.0485296,-0.10534488,6.6079965,0.055158846,0.010762542,0.0036053872,37.0,0.72650814,-0.008377319,0.6871068,-0.004085064,0.0024163164,0.0015676618,-0.28608894,-0.2741906,-0.6550908,2016-12-03 09:39:15,41.60683949175075
7.1059904,-0.095768064,6.655881,0.058037497,-0.022550773,0.0029932247,36.0,0.72607595,-0.009061053,0.68755484,-0.0011790395,-7.8355335E-4,-0.008168519,-0.28555387,-0.27263504,-0.65588117,2016-12-03 09:39:16,56.08467134188433
7.1251445,-0.06703765,6.655881,-0.009216205,0.0062427316,-4.4240078E-4,36.0,0.72665834,-0.0058360407,0.6869742,-0.005458355,-8.7878853E-4,-9.6940994E-4,-0.28445888,-0.2758178,-0.6540717,2016-12-03 09:39:17,55.87175702144861
7.086837,-0.009576807,6.7324953,0.09908998,0.0046730917,0.005920273,36.0,0.727008,-0.003463227,0.6866203,-0.00580436,0.0042455075,-0.008439183,-0.2833482,-0.27621925,-0.6537301,2016-12-03 09:39:18,50.96944270253292
7.07726,0.0,6.6271505,0.05479487,0.017490167,0.0037701067,37.0,0.72868824,-0.0065898923,0.68481386,-0.010144055,-0.0012339503,0.0028508902,-0.28545028,-0.27576333,-0.6542111,2016-12-03 09:39:19,50.3924606196302
7.0485296,-0.076614454,6.655881,-0.11582804,-0.040840082,-0.0074811727,36.0,0.726099,-0.0047277925,0.68757385,-0.0070943236,-0.0026956173,-0.008153379,-0.28168607,-0.2757911,-0.65377027,2016-12-03 09:39:20,44.939260769153286
7.0581064,-0.02873042,6.742072,-0.08996818,-0.01846553,-0.005574718,37.0,0.7246541,-0.004567469,0.6890977,-0.0024840832,-0.005040881,-0.0069939494,-0.28289455,-0.27490303,-0.6543825,2016-12-03 09:39:21,60.53364191132328
7.1155677,-0.038307227,6.6654577,-0.023692809,0.010964897,-0.0013838494,37.0,0.7261389,-0.00392375,0.68753695,-0.0010409951,-0.0019042995,-0.003475666,-0.2837351,-0.27587986,-0.65395623,2016-12-03 09:39:22,41.12736160889237
7.086837,-0.095768064,6.7612257,-0.064083144,-0.018896334,-0.0039808825,37.0,0.72679055,-0.005371626,0.68683815,0.0030280352,-0.0024249312,-0.0026018023,-0.2841545,-0.27487946,-0.6545389,2016-12-03 09:39:23,54.632270392739706
7.0581064,0.009576807,6.7612257,0.0034247423,-4.60341E-4,1.8859538E-4,37.0,0.72622037,-0.007243876,0.6874238,-0.009843588,0.0062227445,-0.007350266,-0.28453514,-0.2747897,-0.6546277,2016-12-03 09:39:24,42.61634784850812
7.0485296,-0.05746084,6.6750345,0.052006215,-0.005546225,0.003172884,37.0,0.725939,-0.007645564,0.68771654,-0.001714468,0.0025333962,1.411438E-4,-0.28498277,-0.27411565,-0.65512085,2016-12-03 09:39:25,41.99934439806804
7.038953,-0.076614454,6.6846113,-0.001530837,0.002496092,-4.0325824E-5,37.0,0.7263745,-0.008897735,0.6872415,-3.5959482E-4,9.5062517E-4,0.0017675757,-0.28539753,-0.27280357,-0.6558661,2016-12-03 09:39:27,56.57908233500258
7.1155677,0.0,6.7612257,0.049343735,-0.03328779,0.0030852715,35.0,0.7274188,-0.0046488037,0.686178,-5.455613E-4,0.001626695,-0.002904892,-0.28341576,-0.27534232,-0.6542691,2016-12-03 09:39:28,64.04126442156736
7.029376,-0.019153614,6.5601125,0.08330249,0.027499728,0.0051182415,36.0,0.72813785,-0.0039837756,0.68541914,-0.010822058,0.0029120166,5.5783987E-4,-0.2836227,-0.2766167,-0.65360373,2016-12-03 09:39:29,41.632500418388574
7.1059904,-0.02873042,6.694188,-0.10963617,0.034078326,-0.0070073833,37.0,0.7212516,-0.0033544688,0.69266504,9.998083E-4,-0.0070580402,-0.0047822,-0.28057018,-0.27475268,-0.65424323,2016-12-03 09:39:30,45.6736686153907
7.1155677,-0.095768064,6.694188,-0.077707574,-0.006443893,-0.0049307276,37.0,0.72481877,-0.005040309,0.68892115,-8.7600946E-4,-0.0017432286,-0.006627023,-0.28338054,-0.27534074,-0.65426385,2016-12-03 09:39:31,54.95525689424426
7.067683,-0.076614454,6.6654577,-0.029224452,0.0072781667,-0.0017363599,37.0,0.72580814,-0.0027581565,0.68789166,0.0011480451,-0.0010522893,-0.0047059655,-0.2827779,-0.27611956,-0.6537722,2016-12-03 09:39:32,57.819696589671466
7.1059904,-0.05746084,6.7612257,-0.09143422,0.0144870505,-0.005062559,37.0,0.72591954,-0.0052959006,0.6877593,-0.01154232,-0.0034022979,-0.008614004,-0.28255066,-0.27552694,-0.65404856,2016-12-03 09:39:33,40.95804340630801
7.07726,-0.038307227,6.7612257,-0.08265257,-0.021098342,-0.0053818026,37.0,0.7280078,-0.0073437872,0.6855296,-0.0060209036,-5.388502E-4,-0.008119285,-0.28473654,-0.27563608,-0.6541977,2016-12-03 09:39:34,47.22610959702728
7.086837,-0.05746084,6.7708025,-0.070627026,0.024050515,-0.003723895,37.0,0.725913,-0.0070323646,0.6877506,-0.004623115,-0.007294513,0.0010933876,-0.28405213,-0.27490485,-0.65450966,2016-12-03 09:39:35,58.41209665695076
7.086837,-0.05746084,6.694188,-0.23909137,-0.011384314,-0.0626746,37.0,0.728045,-0.008220495,0.6854801,-0.002042532,0.0023082327,-0.0013424158,-0.28568733,-0.27420822,-0.65586275,2016-12-03 09:39:36,42.78574274600915
7.067683,-0.038307227,6.7324953,-9.924697E-4,-0.016724773,-1.7108518E-4,37.0,0.7257267,-0.0053641745,0.68796223,2.5463104E-4,-0.0024270518,0.0010840893,-0.2860663,-0.2718095,-0.66033757,2016-12-03 09:39:37,40.2506235993194
7.07726,-0.10534488,6.7612257,0.039580416,-0.02085825,0.0019271523,37.0,0.7265988,-0.005653393,0.6870388,-0.0072731376,-0.004263909,0.0027880669,-0.2851839,-0.27344513,-0.65678966,2016-12-03 09:39:38,42.270984025632366
7.07726,-0.12449849,6.6846113,-0.06781894,-0.00792682,-0.004201281,36.0,0.7270088,-0.00921865,0.6865663,-0.0010162592,-0.0012642127,-0.005345881,-0.28494206,-0.2748602,-0.6546372,2016-12-03 09:39:39,63.75436067100939
7.153875,-0.038307227,6.7612257,-0.12222337,0.0012286085,-0.00716177,36.0,0.72445494,-0.0045647854,0.6893071,-0.0042973757,-0.0011655036,6.750226E-4,-0.28340945,-0.2746905,-0.65455174,2016-12-03 09:39:40,63.6143899316326
7.086837,-0.047884032,6.7133417,-0.054011844,0.00708967,-0.0030045076,36.0,0.724065,-0.0073659555,0.6896924,-0.0018213391,-0.0012517557,-0.004733622,-0.28490496,-0.27308124,-0.65793914,2016-12-03 09:39:41,52.43625086744805
7.1155677,-0.047884032,6.751649,0.081932716,0.002054151,0.004847345,37.0,0.72561014,-0.007211041,0.6880683,-0.011243761,0.001481791,-0.004024744,-0.284577,-0.27455544,-0.6547568,2016-12-03 09:39:42,42.195437055041054
7.067683,-0.02873042,6.742072,-0.052631058,4.1376497E-4,-0.0031268254,37.0,0.7269962,-0.0070578163,0.6866052,0.0030107498,0.0011069817,0.0072028637,-0.28497365,-0.27515444,-0.6544843,2016-12-03 09:39:43,59.912272223613606
7.038953,-0.038307227,6.703765,0.20649482,0.019663408,0.012425715,37.0,0.72816575,-0.006684908,0.6853685,-0.0037747025,0.0065269126,0.012084961,-0.28506523,-0.2753391,-0.65439546,2016-12-03 09:39:44,42.137849031602734
7.07726,-0.076614454,6.5601125,0.08160893,0.009517567,0.004941581,37.0,0.72547686,-0.0057504685,0.6882225,-0.009002805,0.0017139022,-0.0033658147,-0.2837556,-0.27489173,-0.65448624,2016-12-03 09:39:45,63.059376790987486
7.1634517,-0.076614454,6.7229185,-0.011353235,0.021564111,1.7768913E-4,37.0,0.7262561,-0.004459161,0.6874098,-0.0068214536,5.4806424E-4,-6.28531E-4,-0.28346288,-0.27638963,-0.6536534,2016-12-03 09:39:46,53.58904545120342
7.086837,-0.047884032,6.7133417,0.01610583,-0.0029265922,8.662177E-4,37.0,0.7257823,-0.004735628,0.68790823,-0.00642097,-0.0010376633,9.057522E-4,-0.28371593,-0.27440754,-0.65473694,2016-12-03 09:39:47,47.92224681669794
7.0485296,-0.047884032,6.7229185,0.018656913,-0.040491637,0.0014739288,37.0,0.72878444,-0.006811681,0.68470925,-0.0076030493,0.0011203331,3.387332E-4,-0.28376436,-0.27491605,-0.6544731,2016-12-03 09:39:48,64.10643538997324
7.067683,-0.076614454,6.7229185,-0.13493091,-0.0059540886,-0.008029824,37.0,0.72662485,-0.005026051,0.68701607,-0.0073794723,-0.0083250925,-0.0019868016,-0.2831225,-0.2762097,-0.6537154,2016-12-03 09:39:49,47.5849087103128
7.0964136,-0.076614454,6.751649,0.04309537,0.0037102476,0.002598102,37.0,0.7269088,-0.0065481383,0.6867028,-0.0021702647,0.002577866,-0.0110569,-0.2852091,-0.2747145,-0.6547425,2016-12-03 09:39:50,38.13300569084231
7.1634517,-0.076614454,6.7229185,0.030209139,0.008119725,0.0019068411,37.0,0.72600377,-0.00400588,0.68767905,-0.002783537,8.691766E-4,-7.685423E-4,-0.28403208,-0.27540538,-0.6542425,2016-12-03 09:39:51,65.06918403020717
7.029376,-0.10534488,6.7133417,-0.023432752,0.0031787045,-0.0013082412,37.0,0.72501093,-0.0067984043,0.68870384,-0.0056711435,-0.0026956745,-0.0018191934,-0.28333023,-0.274469,-0.6546607,2016-12-03 09:39:52,62.43433035113888
7.0964136,-0.08619126,6.579266,-0.11149295,-0.005312829,-0.0066577387,37.0,0.7266108,-0.0068899854,0.68701476,0.0032252073,-0.0057306224,-0.005728066,-0.28457725,-0.27467528,-0.65469253,2016-12-03 09:39:53,48.911268023341535
7.029376,-0.08619126,6.703765,-0.03756336,-0.009688645,0.09564065,37.0,0.72548264,-0.0067681973,0.68820715,-0.0023992658,-0.0076690405,-0.004080653,-0.28307396,-0.27504984,-0.65405947,2016-12-03 09:39:54,59.15778086230863
7.07726,-0.047884032,6.7803793,-0.070715114,0.011554649,-0.104610555,37.0,0.72821325,-0.005907669,0.6853252,-0.006827235,0.0018325779,0.012206256,-0.28309658,-0.27778056,-0.6496661,2016-12-03 09:39:55,37.21996681933539
7.0102224,-0.05746084,6.7803793,-0.06260981,0.024209779,-0.0036746217,37.0,0.7269501,-0.0046761245,0.68667436,-0.006688416,-0.004137492,-0.0016890764,-0.2837923,-0.27576265,-0.6540237,2016-12-03 09:39:56,61.54914758636491
7.067683,-0.10534488,6.742072,-0.021858957,-0.008329702,-0.0014751998,37.0,0.7238768,-0.0073633664,0.68989,-0.0037276745,-0.0022585266,-0.006738901,-0.2835565,-0.2730972,-0.65541327,2016-12-03 09:39:57,55.83327562021903
7.067683,-0.06703765,6.6367273,-0.029098943,-0.005545463,-0.0018587757,37.0,0.7256781,-0.005513028,0.68801224,-0.005467832,-0.0021827011,-0.007857621,-0.28399992,-0.27567983,-0.65409446,2016-12-03 09:39:58,63.32818852233192
7.1251445,-0.08619126,6.703765,-7.795477E-4,-0.024001602,-5.958407E-5,37.0,0.7288214,-0.00642421,0.6846737,-0.006674826,-0.0013637911,-0.0054776073,-0.28477547,-0.27532768,-0.6543677,2016-12-03 09:39:59,36.91136401989826
7.0581064,-0.019153614,6.703765,0.057733126,-0.017231561,0.0032403897,37.0,0.7267088,-0.006577535,0.68691415,-0.0038322806,0.003537329,-0.0074577928,-0.28331295,-0.27457902,-0.6546015,2016-12-03 09:40:00,49.15591951311256
7.0485296,-0.10534488,6.6846113,-0.090062484,-0.008917085,-0.005491283,37.0,0.72644174,-0.007918461,0.6871825,-0.0063338876,-7.0880447E-4,-0.0020323992,-0.28424883,-0.27463752,-0.6546746,2016-12-03 09:40:01,40.72697919514252
7.067683,-0.10534488,6.7612257,0.033309285,0.0062060473,0.0020273132,37.0,0.72628784,-0.0052242083,0.6873708,-0.0021438599,0.005109026,-0.0023581386,-0.28496617,-0.2750867,-0.654517,2016-12-03 09:40:02,57.98348219888065
7.067683,-0.038307227,6.646304,-0.047699727,0.007733694,-0.002580659,37.0,0.7255227,-0.0036591091,0.6881885,-3.7783384E-4,0.0016847479,-0.001245439,-0.28233126,-0.27622446,-0.65361345,2016-12-03 09:40:03,38.01411428452593
7.07726,-0.047884032,6.7133417,0.0073446287,-0.02598188,3.645248E-4,37.0,0.72901183,-0.0052885665,0.68448067,-0.0049434304,0.0040959716,0.005497694,-0.2849437,-0.27595612,-0.65405124,2016-12-03 09:40:04,54.82548461333529
7.1059904,-0.12449849,6.751649,0.01038142,-0.03715965,3.842163E-4,37.0,0.72498304,-0.005686161,0.68874323,-4.2557716E-5,-0.0029881382,-6.066561E-4,-0.2830514,-0.27413562,-0.6548062,2016-12-03 09:40:05,59.69327903857717
7.067683,-0.047884032,6.742072,-0.088820465,0.0014443627,-0.005182989,37.0,0.7249004,-0.0042684963,0.6888405,0.001986146,-0.004513763,-0.005582094,-0.28347424,-0.27438486,-0.6547206,2016-12-03 09:40:06,42.194011849511824
7.1059904,-0.05746084,6.7133417,-0.04042435,0.018730454,-0.0020396824,37.0,0.727833,-0.005493038,0.68573254,-0.0016977787,-4.6417536E-4,-0.0017358661,-0.2855052,-0.27615333,-0.6540111,2016-12-03 09:40:07,59.94347668448456
7.144298,-0.076614454,6.7803793,0.005009043,-0.051844507,-5.3892494E-5,37.0,0.7291586,-0.004639603,0.684329,-0.0022028089,0.0016764379,-0.0021197796,-0.28351346,-0.27601448,-0.65385675,2016-12-03 09:40:08,56.88798739150968
7.019799,-0.05746084,6.751649,0.061713606,0.022479406,0.0042031137,37.0,0.7259491,-0.00882376,0.6876918,-0.008541048,0.0038780519,-0.004743874,-0.2850797,-0.27456075,-0.65480703,2016-12-03 09:40:09,48.10147634037166
7.067683,-0.02873042,6.8091097,0.04877673,0.013300257,0.0031170528,37.0,0.7272059,-0.0059920116,0.68639326,-0.008862436,0.0039682933,-0.003401339,-0.28392404,-0.2752801,-0.65429527,2016-12-03 09:40:10,57.20013493857073
7.07726,-0.05746084,6.694188,0.0720016,-0.020432444,0.004070704,36.0,0.727193,-0.0077956496,0.68638873,-0.004974246,0.004578514,5.450845E-4,-0.28513068,-0.27396992,-0.6551288,2016-12-03 09:40:11,60.38313368730516
7.086837,-0.05746084,6.7133417,-0.1458784,-0.021629024,-0.009035226,36.0,0.725889,-0.004533859,0.6877969,-9.6178055E-4,-0.0061682253,-0.009418786,-0.28349042,-0.27521536,-0.6542856,2016-12-03 09:40:12,40.12056919857571
7.07726,-0.076614454,6.6750345,0.10625884,-0.0031390246,0.006186077,37.0,0.7250056,-0.005778707,0.68871874,-0.0029207468,-0.0019919444,-0.0075033903,-0.28371862,-0.2740362,-0.65493506,2016-12-03 09:40:13,64.56407841451178
7.1251445,-0.05746084,6.6846113,0.12040846,-0.024057213,0.006574912,37.0,0.72841394,-0.007904313,0.6850917,-0.0072521567,0.0049922443,-0.006864965,-0.28516653,-0.27449086,-0.65485674,2016-12-03 09:40:14,66.18013041279265
7.0964136,-0.047884032,6.703765,-0.048933126,0.010561251,-0.0031978542,37.0,0.7299166,-0.005960097,0.6835102,-0.005603671,9.558932E-4,3.4451485E-4,-0.286048,-0.27595395,-0.6541783,2016-12-03 09:40:15,58.13569033074867
7.038953,-0.05746084,6.703765,0.0037124837,0.035456344,6.160183E-4,37.0,0.72693664,-0.0049889237,0.6866864,-0.003684044,-7.157312E-4,0.00898689,-0.28286433,-0.27670258,-0.65341604,2016-12-03 09:40:16,40.821335144107174
7.1347213,-0.18195933,6.6367273,-0.18072042,1.7365499E-4,-0.01051671,37.0,0.7261704,-0.004290786,0.6875013,0.0016925931,-0.013660901,-0.0101008415,-0.28275663,-0.27659678,-0.6534657,2016-12-03 09:40:17,41.02349079765271
7.086837,-0.076614454,6.6846113,-0.026075436,-0.09130558,-0.003987028,37.0,0.7276333,-0.0059729177,0.68594027,-0.0019313097,-0.0010361741,-0.016143084,-0.28368226,-0.2741686,-0.6548613,2016-12-03 09:40:18,61.28800809466918
7.1251445,-0.08619126,6.742072,-0.106848046,-0.005520585,-0.006364382,37.0,0.72625154,-0.006816777,0.6873953,-0.003972769,0.0038434365,0.0043641925,-0.28423142,-0.27474704,-0.6546173,2016-12-03 09:40:19,65.29511524331832
7.086837,0.0,6.751649,0.18354835,-0.0061612665,0.010691283,37.0,0.726814,-0.0058483244,0.6868095,-0.0037142634,0.005680137,-0.0066125393,-0.28383368,-0.2749939,-0.6544404,2016-12-03 09:40:21,61.147476040044914
7.067683,-0.076614454,6.7133417,0.04979448,0.0024939147,0.0030024566,37.0,0.7241303,-0.0034027898,0.6896548,-0.0010805726,0.0014212148,-0.003541112,-0.28193015,-0.27547106,-0.6539716,2016-12-03 09:40:22,64.32414711003494
7.0102224,-0.076614454,6.5696893,-0.0955856,0.0118706785,-0.0055739773,37.0,0.7283101,-0.0029506895,0.68524134,-0.0070230365,-0.0019733948,-0.0051936507,-0.28361392,-0.2775493,-0.6530487,2016-12-03 09:40:23,59.809130987680284
7.07726,-0.05746084,6.6750345,-0.019815804,-0.0048024035,-0.0012705349,36.0,0.7246374,-0.008118485,0.6890825,-0.0026521683,0.0022346675,-0.0077630877,-0.28411204,-0.27362964,-0.6551925,2016-12-03 09:40:24,64.11878684477499
7.038953,-0.095768064,6.694188,-0.14215721,-0.056326155,-0.011304236,36.0,0.7230813,-0.005177226,0.69074357,0.00832051,-0.0036852635,-0.026642561,-0.28237945,-0.27416363,-0.6547166,2016-12-03 09:40:25,53.748416657758014
7.0581064,-0.06703765,6.7612257,0.047457464,0.019116137,0.003126063,32.0,0.72648376,-0.0067070834,0.6871509,-0.0013128519,-0.0050094407,-0.0012125373,-0.28513533,-0.27529162,-0.65442806,2016-12-03 09:40:26,53.59846272400808
7.1251445,-0.08619126,6.7612257,-0.21643734,-0.0025533237,-0.10673607,32.0,0.7283827,-0.006613456,0.68513864,-0.009102762,-0.0048791687,-0.006009698,-0.28475922,-0.27451378,-0.65482116,2016-12-03 09:40:27,57.9065837282518
7.038953,-0.038307227,6.6846113,0.008249996,0.01653584,5.01779E-4,32.0,0.7216994,-0.0050153467,0.6921885,0.003278315,3.0879863E-5,-0.009957314,-0.2842321,-0.27140906,-0.6603396,2016-12-03 09:40:28,60.19003914333619
7.038953,-0.076614454,6.7708025,0.10677844,0.026452634,0.029236548,32.0,0.7256748,-0.006346858,0.68800855,-0.0042583346,0.0033509815,0.0075386167,-0.28705734,-0.27209428,-0.6603828,2016-12-03 09:40:29,64.4118284452767
7.07726,-0.038307227,6.7324953,0.004332778,-0.0107034445,2.1267541E-4,33.0,0.72673225,-0.007991796,0.68687433,-0.0015730262,1.3633445E-4,-0.003855884,-0.28542128,-0.27441803,-0.65495324,2016-12-03 09:40:30,56.20683999434849
6.991069,-0.02873042,6.7229185,0.05421993,0.032206994,0.004121884,33.0,0.72755694,-0.0073990445,0.6860074,-0.0014049411,0.0024231249,0.008720696,-0.28459343,-0.27451107,-0.65478647,2016-12-03 09:40:31,33.468279280152416
7.1251445,-0.06703765,6.7324953,0.10873745,0.009464053,0.0064119194,33.0,0.72728056,-0.007895048,0.68629485,-0.0031393766,0.004774599,0.006537199,-0.28534934,-0.27357554,-0.65536237,2016-12-03 09:40:32,63.84458930874341
7.07726,-0.08619126,6.7133417,0.029128935,0.022107333,0.0018397775,30.0,0.725994,-0.006880411,0.68766654,-0.0047638416,0.0020355517,-0.001694262,-0.28358087,-0.27501234,-0.65440196,2016-12-03 09:40:33,57.710339600864145
7.086837,-0.076614454,6.742072,0.06521447,-0.04344314,0.0030474996,30.0,0.72687095,-0.0062393174,0.68674576,-0.003874123,-7.741456E-4,-5.7667494E-4,-0.28393084,-0.27417466,-0.6548841,2016-12-03 09:40:34,43.853978635246875
7.086837,-0.06703765,6.7803793,-0.046275686,0.020868441,-0.0027993808,29.0,0.72346205,-0.007203041,0.69032663,-3.029108E-4,-5.800305E-4,-0.002372861,-0.28359568,-0.27368066,-0.65511036,2016-12-03 09:40:35,34.55965024105964
7.0581064,-0.05746084,6.7133417,0.15036838,0.005665388,0.008968824,30.0,0.7260228,-0.006644089,0.6876385,-0.0077577233,0.0063917604,-0.00358814,-0.28654644,-0.27232844,-0.65915364,2016-12-03 09:40:36,61.717301470903166
7.0581064,-0.047884032,6.7133417,0.010550452,-0.015872268,3.5351797E-4,32.0,0.7266385,-0.008258646,0.6869704,-0.006487787,-0.0015243115,-0.00773108,-0.28681526,-0.27127373,-0.6607002,2016-12-03 09:40:37,65.60722939167596
7.086837,-0.06703765,6.531382,0.009651769,-0.036739066,1.6503182E-4,32.0,0.724592,-0.0056886985,0.6891547,-0.00836885,0.0027406071,-0.006964445,-0.28201684,-0.27441812,-0.65453905,2016-12-03 09:40:38,60.51305129231898
7.1251445,-0.08619126,6.751649,0.04000995,0.009574759,0.002449001,32.0,0.7268606,-0.007884803,0.6867398,-8.555651E-4,0.0010308232,-0.006513655,-0.2852891,-0.27499464,-0.6546057,2016-12-03 09:40:39,54.01610833297467
7.1155677,-0.05746084,6.703765,0.030241128,0.031157179,0.0031274832,33.0,0.7253485,-0.0066598626,0.6883496,-1.9526482E-4,7.25511E-4,0.0024929643,-0.2848949,-0.27464938,-0.6547437,2016-12-03 09:40:40,49.62228129516447
7.07726,-0.06703765,6.751649,-0.035819974,5.1533635E-4,-0.0020911377,33.0,0.7249285,-0.0076251,0.68878186,-0.0018760562,-0.0038545774,-0.0055994987,-0.28365242,-0.27419052,-0.65484643,2016-12-03 09:40:41,34.06270791744951
7.0964136,-0.02873042,6.7324953,0.06615889,-0.01984838,0.0035956916,33.0,0.72395724,-0.006047569,0.6898184,0.002828002,-0.005507909,-0.008406997,-0.2830121,-0.27320522,-0.655292,2016-12-03 09:40:42,31.019817952333533
7.067683,-0.10534488,6.7133417,-0.112382926,-0.005195518,-0.006733591,33.0,0.72636354,-0.0057513993,0.6872867,0.003556192,-2.7063861E-4,-0.0012045503,-0.2836934,-0.27498916,-0.6544249,2016-12-03 09:40:43,57.066613143395
7.1251445,-0.047884032,6.694188,-0.035633363,0.012809322,-0.0019151764,33.0,0.72220457,-0.004584433,0.6916643,8.9907646E-4,-0.004939417,-0.0085372925,-0.2814347,-0.27476546,-0.65428585,2016-12-03 09:40:44,67.84935274468651
7.0581064,-0.076614454,6.7229185,0.002203038,-5.9420126E-4,2.1957696E-4,32.0,0.72638965,-0.008626965,0.6872289,-0.006159961,8.123936E-4,-0.0012325048,-0.28477818,-0.2738706,-0.6551408,2016-12-03 09:40:45,49.24965428821872
7.1155677,-0.08619126,6.8186865,-0.040480338,0.050335895,-0.0024873873,32.0,0.7305632,-0.0058170334,0.68282026,-0.011025727,-0.0010238271,0.003848374,-0.2864113,-0.27652714,-0.65385175,2016-12-03 09:40:46,52.52816671448035
7.0485296,-0.08619126,6.703765,-0.017753504,0.008911346,-0.0010280053,30.0,0.7285215,-0.009516022,0.6849567,-0.008943617,7.556416E-4,-0.0012603402,-0.28662112,-0.27451295,-0.6549241,2016-12-03 09:40:47,37.84138044514475
7.0964136,-0.10534488,6.655881,-0.042394824,0.013213916,-0.0027403845,30.0,0.7270613,-0.0066649634,0.6865402,-0.0058831573,7.4226316E-4,-5.1385164E-4,-0.28417498,-0.275218,-0.65429187,2016-12-03 09:40:48,32.33173855380943
7.1155677,-0.076614454,6.5026517,-0.032972835,-0.012863354,-0.0020163464,33.0,0.7281704,-0.00589098,0.6853708,-0.0025000572,-0.0020318008,-0.021402061,-0.28507257,-0.27474087,-0.65471226,2016-12-03 09:40:49,32.92166045631792
7.1059904,-0.095768064,6.7324953,-0.0357681,0.0017279894,-0.002053899,35.0,0.72640127,-0.007149234,0.6872337,-0.0022069216,-0.0017448617,0.002611816,-0.2839822,-0.27479544,-0.6545642,2016-12-03 09:40:50,66.31277097032977
7.0581064,-0.047884032,6.7133417,0.051759303,-0.007076068,0.002868302,35.0,0.72600055,-0.0063838344,0.6876645,-0.0038191676,-0.002196026,-0.0026401877,-0.28331032,-0.27559575,-0.6540593,2016-12-03 09:40:51,64.01111642832612
7.07726,-0.12449849,6.703765,0.03289056,0.016157813,0.001677844,35.0,0.72589517,-0.005900901,0.68778,-0.0018286109,-9.245239E-5,-0.0017085671,-0.2846057,-0.27502927,-0.65450877,2016-12-03 09:40:52,33.855046135582775
7.1059904,-0.08619126,6.646304,0.07656753,0.0063979593,0.0046679075,35.0,0.72688246,-0.00811222,0.686714,-0.0027305484,0.0023487676,0.004155636,-0.28428596,-0.27426958,-0.65487516,2016-12-03 09:40:53,35.6195164071231
7.1251445,-0.076614454,6.703765,-0.03391335,0.049408913,-0.0015999369,35.0,0.72652054,-0.0053777355,0.6871237,5.300045E-4,-0.002225371,-0.0030590892,-0.2839218,-0.27565488,-0.65407217,2016-12-03 09:40:54,54.70578779944219
7.07726,-0.009576807,6.742072,0.06963673,0.026035395,0.0035391545,35.0,0.72559655,-0.008762045,0.6880646,-0.0023812056,-0.0010128394,-0.0021250248,-0.28546432,-0.27364337,-0.65525585,2016-12-03 09:40:55,32.51065068409602
7.07726,-0.05746084,6.6750345,-0.10653001,0.028612481,-0.006087596,35.0,0.7234904,-0.0045136367,0.69031966,-4.259944E-4,-0.003994721,-0.02083236,-0.282133,-0.27580336,-0.6537717,2016-12-03 09:40:56,34.76012691750189
7.1155677,-0.06703765,6.751649,-0.14316201,-0.008603698,-0.008121736,35.0,0.7283957,-0.006163807,0.68512905,-0.0071786046,-0.0034206565,-0.0059823394,-0.2847595,-0.27587476,-0.6540108,2016-12-03 09:40:57,66.07894743523556
7.0964136,-0.08619126,6.751649,0.04358501,0.01098572,0.0024497767,35.0,0.7295328,-0.0085243415,0.6838927,-0.004372716,5.9781596E-4,-8.766055E-4,-0.28737143,-0.27458248,-0.6549698,2016-12-03 09:40:58,54.59941769077184
7.067683,-0.047884032,6.6654577,0.15203878,-0.0054119937,0.008479126,35.0,0.7254319,-0.0058878465,0.6882688,-0.0013052821,0.005410714,-0.0061724186,-0.28385058,-0.27372113,-0.65504414,2016-12-03 09:40:59,55.26728801705043
7.067683,-0.05746084,6.7708025,0.0848165,-0.011026013,0.0048135016,35.0,0.7260831,-0.0054297457,0.6875856,-0.003860712,0.0043990756,-0.003584206,-0.2829658,-0.27514645,-0.6542225,2016-12-03 09:41:00,35.26893370904393
7.144298,-0.05746084,6.6846113,0.022166448,-0.005295559,0.0011649787,35.0,0.725865,-0.007030045,0.6878013,-0.005643308,0.0020856918,0.0021119118,-0.28425172,-0.27448535,-0.6547539,2016-12-03 09:41:01,48.67197529040772
7.0581064,-0.095768064,6.694188,-0.19357169,-0.014218069,-0.011723473,35.0,0.72329116,-0.0047172057,0.6905271,-0.001105845,-0.006559749,-0.0045284033,-0.2811285,-0.27500543,-0.65412563,2016-12-03 09:41:02,60.24701688810603
7.1155677,-0.076614454,6.6750345,0.08222726,0.0038539006,0.0049141315,35.0,0.7246389,-0.00816613,0.6890804,-0.0034847856,0.0051181098,-0.0059613585,-0.2846845,-0.27284095,-0.65567636,2016-12-03 09:41:03,33.54910790014449
7.0581064,-0.12449849,6.7229185,-0.0920812,0.001590885,-0.0053494824,35.0,0.7278096,-0.0070082857,0.68574345,1.9669533E-5,-0.0017958442,4.8464537E-4,-0.28484958,-0.27490145,-0.6546032,2016-12-03 09:41:04,31.08602368972168
7.029376,-0.047884032,6.7708025,-0.027678503,0.043255553,-8.545626E-4,35.0,0.7276204,-0.00509742,0.68596107,-0.0042971373,-6.318232E-4,-0.0030668974,-0.2849077,-0.27688283,-0.65355176,2016-12-03 09:41:05,61.12271537451036
7.067683,-0.076614454,6.742072,-0.050652348,0.035489064,-0.0029777389,35.0,0.72443384,-0.0051096026,0.6893254,7.573962E-4,-0.004479586,-0.0043839216,-0.28343412,-0.27506816,-0.6543549,2016-12-03 09:41:06,64.1541267207269
7.0964136,-0.076614454,6.742072,-0.07968569,-0.002376802,-0.0047269287,35.0,0.72631204,-0.007175878,0.6873277,-0.0021119118,-6.0083484E-4,5.5867434E-4,-0.2841046,-0.27481815,-0.65456045,2016-12-03 09:41:07,49.34561833833637
7.067683,-0.019153614,6.703765,-0.030774701,-0.010601708,-0.0020449697,35.0,0.72792685,-0.008449001,0.6856027,-0.001042068,-4.434064E-4,-0.009182692,-0.28628793,-0.274459,-0.6550033,2016-12-03 09:41:08,43.62320377326799
7.086837,-0.047884032,6.7803793,0.041013636,0.026177637,0.0030866046,35.0,0.7284006,-0.00922644,0.6850894,-0.0023363233,4.6891905E-4,0.007778764,-0.2859498,-0.2747976,-0.6547821,2016-12-03 09:41:09,40.84430520572767
7.1059904,-0.076614454,6.703765,0.0357957,0.0057030744,0.0022185333,35.0,0.7260172,-0.010494987,0.6875964,-0.0028078556,-0.001169988,-0.0055585504,-0.28545687,-0.27283698,-0.65576303,2016-12-03 09:41:10,65.23031867346768
7.067683,-0.10534488,6.655881,-0.08049381,0.010313573,-0.0045738746,35.0,0.72646236,-0.007018644,0.68717045,-0.0013558269,4.1217916E-4,-0.0050706267,-0.28387272,-0.27569094,-0.6540734,2016-12-03 09:41:11,53.43061470895339
7.0581064,-0.08619126,6.6175733,-0.20075572,-0.002798295,-0.01182072,35.0,0.72637886,-0.0032136082,0.687287,-0.009180784,-0.0037646955,-0.015843987,-0.28335926,-0.2761343,-0.6537784,2016-12-03 09:41:12,60.151231686919346
7.0485296,-0.08619126,6.7612257,-0.124756314,-0.017833915,-0.0077218874,35.0,0.72470695,-0.008307823,0.68900704,3.989935E-4,-0.0022185706,0.0028659105,-0.28368095,-0.27359924,-0.6551583,2016-12-03 09:41:13,38.10953642222012
7.0006456,-0.02873042,6.6271505,0.04066129,0.015916133,0.0026968508,35.0,0.7258801,-0.0048968275,0.68780386,-0.0038616061,0.0018747472,-0.0026103258,-0.28390992,-0.27507588,-0.6544045,2016-12-03 09:41:14,55.240159670324715
7.07726,0.02873042,6.7324953,-0.08837242,0.014151066,-0.004925895,35.0,0.72757596,-0.007340212,0.68598783,-0.0063329935,-0.0043270327,-0.0029607415,-0.285999,-0.27568924,-0.65431476,2016-12-03 09:41:15,46.11791725235747
7.0581064,-0.047884032,6.742072,0.27915803,0.0013754568,0.016411014,33.0,0.72506845,-0.006492157,0.6886462,-0.0037195683,0.003324905,0.0011075735,-0.2842647,-0.27371547,-0.6551662,2016-12-03 09:41:16,45.28705176486121
7.067683,-0.095768064,6.742072,-0.16017333,0.015561404,-0.009122619,35.0,0.72488356,-0.008010317,0.68882483,-0.0035400987,-7.058447E-4,-0.001993835,-0.28378978,-0.27486798,-0.654502,2016-12-03 09:41:18,32.98975818181854
7.07726,-0.10534488,6.7229185,0.13503182,-0.017482754,0.0074835527,35.0,0.72546685,-0.010394354,0.68817866,-0.0063803196,0.0054541365,-0.007871389,-0.28504938,-0.27307656,-0.65559393,2016-12-03 09:41:19,63.99963018141423
7.067683,-0.019153614,6.7324953,-0.10488349,-0.0073483842,-0.006369724,35.0,0.7294868,-0.0060961493,0.6839677,-0.009115458,-0.002666201,0.0018778443,-0.28513843,-0.27630183,-0.6538893,2016-12-03 09:41:20,43.55690839771492
7.0485296,-0.019153614,6.6750345,0.017202845,9.2069444E-5,0.0010170474,35.0,0.7277632,-0.007040371,0.6857924,-0.0057904124,-0.0015621115,-0.010319114,-0.28482834,-0.2754059,-0.6543333,2016-12-03 09:41:21,52.57610746051354
7.0964136,-0.08619126,6.7803793,0.23159645,-0.001056768,0.013554188,35.0,0.7258237,-0.010316475,0.6878034,-0.009395778,0.0081165675,0.0010080338,-0.28612527,-0.27228525,-0.6561307,2016-12-03 09:41:22,65.43552634615529
7.1347213,-0.019153614,6.6846113,0.0104000345,1.5495307E-4,6.1688205E-4,33.0,0.7266859,-0.004593423,0.68695456,-0.0064000487,0.0025131875,-0.002972722,-0.28379968,-0.27578083,-0.6540161,2016-12-03 09:41:23,55.709965838983905
7.038953,-0.02873042,6.703765,0.017543597,-0.012712191,7.532041E-4,33.0,0.7235789,-0.005356859,0.69022095,0.0015167594,-4.432439E-4,-0.010066032,-0.28298885,-0.27427438,-0.65472484,2016-12-03 09:41:24,33.14908225775794
7.0964136,-0.06703765,6.7803793,0.09169756,0.026929762,0.005523974,33.0,0.7220406,-0.004904636,0.6918333,0.0010075569,-0.0019843807,-0.0027871132,-0.2824346,-0.2744652,-0.65450245,2016-12-03 09:41:25,52.88069014867823
7.1251445,-0.019153614,6.703765,0.11911366,-0.016915286,0.0064872075,33.0,0.7277502,-0.0082264915,0.6857929,1.5038252E-4,0.0024325382,-0.0045258403,-0.2850149,-0.27405307,-0.6549908,2016-12-03 09:41:26,62.396156688871784
7.038953,-0.06703765,6.742072,-0.10420722,-0.011871468,-0.006442537,33.0,0.7264991,-0.0055499934,0.68714505,5.2404404E-4,-0.0013491814,0.0028097034,-0.2836225,-0.2751406,-0.6543377,2016-12-03 09:41:27,39.64407159947855
7.086837,-0.076614454,6.7133417,0.06484516,0.0027107152,0.004130176,33.0,0.7254333,-0.007548725,0.6882511,-0.008025527,0.0027359072,-0.008232713,-0.28452724,-0.2746375,-0.65470976,2016-12-03 09:41:28,36.33560186392327
7.0964136,-0.08619126,6.7324953,0.10263483,4.892298E-4,0.0060796505,33.0,0.72624475,-0.0071585574,0.68739897,0.00495857,-0.0036869096,0.0081321,-0.28560242,-0.27376732,-0.65529007,2016-12-03 09:41:29,34.814590515942136
7.0581064,-0.05746084,6.7708025,0.03097209,0.038703002,0.002097344,33.0,0.7268435,-0.0075214435,0.6867619,-0.0046449304,0.002652762,-0.0066438913,-0.28566593,-0.27535918,-0.6544524,2016-12-03 09:41:30,61.34904711581462
7.086837,-0.06703765,6.6367273,-0.026787963,0.0015336967,-0.0013740289,32.0,0.7287172,-0.009860145,0.6847437,-0.005569041,-0.009361146,-0.002637446,-0.28680432,-0.27412298,-0.65514666,2016-12-03 09:41:31,62.832612987305566
7.07726,0.009576807,6.694188,0.107222006,-0.022594435,0.005614673,32.0,0.7269975,-0.0049215048,0.68662244,-0.0030665398,1.654001E-4,5.720854E-4,-0.28307775,-0.2753811,-0.6540929,2016-12-03 09:41:32,62.349415372836454
7.1059904,-0.095768064,6.789956,-0.012794752,-0.057478253,-0.0025506883,32.0,0.7281136,-0.008510854,0.68540365,-0.008101642,6.045038E-4,-0.007972062,-0.28527522,-0.27361047,-0.6552494,2016-12-03 09:41:33,39.763175891494555
7.1155677,-0.12449849,6.751649,0.00261793,0.009662981,3.3183664E-4,33.0,0.7261053,-0.0075225523,0.6875424,-8.686185E-4,0.0027118768,0.0090767145,-0.28357798,-0.27477032,-0.6544637,2016-12-03 09:41:34,55.477607310511274
7.0964136,-0.10534488,6.7133417,0.055554394,-0.017202934,0.002840791,33.0,0.7253687,-0.0086364485,0.68830645,-0.002475679,0.006539072,-0.010823727,-0.28464136,-0.27317905,-0.65540916,2016-12-03 09:41:35,59.954806644703226
7.067683,-0.009576807,6.703765,0.052790515,0.0042602457,0.003247589,33.0,0.7256988,-0.00755104,0.68797106,0.0012264252,-0.0031239819,-0.009638488,-0.28560153,-0.2736109,-0.65535545,2016-12-03 09:41:36,56.73885729930653
7.067683,-0.05746084,6.6271505,0.0107393665,0.05126521,0.0015740376,33.0,0.722675,-0.006500334,0.6911574,-0.0024066567,6.069164E-4,-0.0022697449,-0.28319952,-0.2737294,-0.6550378,2016-12-03 09:41:37,59.03200125486896
7.144298,0.0,6.694188,-0.20503789,-0.027209496,-0.012442186,33.0,0.7279797,-0.0032606814,0.68559086,-0.00206244,-0.0042304182,-0.006246805,-0.28187013,-0.27760193,-0.65282166,2016-12-03 09:41:38,56.40653037998922
7.0964136,-0.076614454,6.751649,-0.063750595,-0.014481942,-0.004025664,33.0,0.7277712,-0.0067735873,0.68578655,-0.0055329204,-0.004032423,-0.0076658726,-0.2848073,-0.27485228,-0.65462387,2016-12-03 09:41:39,38.185733661644605
7.067683,-0.10534488,6.799533,-0.04847667,0.05154081,-0.0025884314,33.0,0.7222379,-0.008016903,0.6915983,0.007927835,0.004881618,-8.8882446E-4,-0.28323343,-0.2739466,-0.65492713,2016-12-03 09:41:40,45.62366777466969
7.067683,-0.02873042,6.694188,-0.072533935,-0.01229181,-0.100415446,33.0,0.72752655,-0.006812845,0.68604565,-0.0016658902,0.0027129166,-0.012508571,-0.2849586,-0.2749204,-0.65486807,2016-12-03 09:41:41,33.61974416945444
7.0485296,-0.06703765,6.7612257,-0.08965348,0.0348639,-0.0044866255,33.0,0.7241129,-0.004190743,0.68966866,-0.0016470551,-0.0035677492,0.0018959045,-0.28499028,-0.2735023,-0.6593309,2016-12-03 09:41:42,52.511051426323576
7.1155677,-0.076614454,6.6271505,0.044444736,-0.049908727,0.0014151037,32.0,0.72487783,-0.005418479,0.6888561,-0.004963696,0.0022556284,-0.017187655,-0.28228885,-0.27438647,-0.6535907,2016-12-03 09:41:43,36.408175455486294
7.067683,-0.17238252,6.7133417,0.015434118,0.021852518,9.741261E-4,32.0,0.7254711,-0.0070072967,0.688217,0.0026129484,0.001992994,-0.0032374263,-0.28412345,-0.27486232,-0.653546,2016-12-03 09:41:44,61.61231111758817
7.067683,-0.05746084,6.742072,0.014396693,-0.011290361,7.505963E-4,30.0,0.7250756,-0.0073791714,0.68862975,-0.00483644,0.002215806,-0.006554961,-0.28389135,-0.27436724,-0.6537837,2016-12-03 09:41:45,32.77371375826547
7.0964136,-0.11492168,6.7324953,-0.122554764,0.010250085,-0.007035762,32.0,0.7244464,-0.005688569,0.6893077,-0.004262984,-0.0048493403,-0.0052151084,-0.28280458,-0.27554786,-0.65303606,2016-12-03 09:41:46,60.29100684576341
7.0964136,-0.06703765,6.6654577,0.009059116,0.06585565,0.0017651981,33.0,0.72334063,-0.007715938,0.6904483,-1.539588E-4,0.0018567401,-0.0064324737,-0.28342572,-0.27477172,-0.6535168,2016-12-03 09:41:47,54.6924019628336
7.153875,-0.076614454,6.694188,0.019836465,9.2935306E-4,0.0011579779,33.0,0.72820884,-0.006787407,0.6853216,-0.005771935,-0.0010715686,0.005291879,-0.28438488,-0.2753894,-0.65329826,2016-12-03 09:41:48,62.802000981391174
7.038953,-0.02873042,6.6654577,0.16419592,0.0060152435,0.009714006,33.0,0.7253226,-0.0047086985,0.688393,-0.00500232,0.006445061,-0.00835675,-0.28319135,-0.2761081,-0.6527801,2016-12-03 09:41:49,54.771528032582914
7.0581064,-0.038307227,6.7133417,0.048756424,-0.017686725,0.0020497534,33.0,0.72679365,-0.009665229,0.6867879,-0.0048184395,0.007507786,-0.0044820905,-0.28541467,-0.2734359,-0.65444386,2016-12-03 09:41:50,55.886052149825424
7.07726,-0.038307227,6.6846113,-0.057131663,0.015184437,-0.0030091684,33.0,0.7290427,-0.0055807657,0.6844454,-0.008543491,-0.004990351,0.0041970015,-0.28470314,-0.27711746,-0.6524048,2016-12-03 09:41:51,30.801738610529007
7.1347213,-0.05746084,6.751649,-0.11052409,0.028230365,-0.005856803,33.0,0.7238857,-0.004590566,0.6899047,-7.362962E-4,-0.0031937133,-0.0078042746,-0.28256556,-0.27585402,-0.6527956,2016-12-03 09:41:52,64.80595881902633
7.086837,-0.076614454,6.655881,-0.045466278,0.013825561,-0.0022846267,33.0,0.7288748,-0.006603907,0.68461514,-0.008574307,0.0015656562,3.271103E-4,-0.28456864,-0.27631685,-0.652763,2016-12-03 09:41:53,43.96158248509671
7.086837,-0.047884032,6.7229185,0.15690582,0.0016607835,0.008669178,33.0,0.72726285,-0.0070207613,0.6863231,7.545948E-4,6.9664326E-5,0.005567372,-0.28473592,-0.27517802,-0.653383,2016-12-03 09:41:54,33.71390767970462
7.1155677,-0.038307227,6.6750345,0.09620331,-0.024135001,0.005246518,33.0,0.7218629,-0.009310521,0.69197345,0.005970955,0.0025089243,-0.008684993,-0.2827038,-0.27290866,-0.6543578,2016-12-03 09:41:55,58.36789371846205
7.0581064,-0.11492168,6.655881,-0.04066928,0.009389415,-0.0021454762,33.0,0.7282225,-0.0065275393,0.6853097,-0.0021411777,5.790442E-4,-0.0061422586,-0.28442654,-0.27675143,-0.6525221,2016-12-03 09:41:56,54.6071182520399
7.067683,-0.08619126,6.6846113,-0.1720618,0.009892884,-0.009392662,33.0,0.72501445,-0.0048632785,0.6887164,-0.005706072,-0.00478102,0.002108097,-0.28219333,-0.2757557,-0.6528063,2016-12-03 09:41:57,52.38805715273793
7.0964136,-0.076614454,6.655881,-0.058188096,0.020355035,-0.0031341685,33.0,0.7246489,-0.0065116384,0.6890875,-0.0015876889,-0.004087591,-0.009824693,-0.283488,-0.2750558,-0.653307,2016-12-03 09:41:58,60.066869877307795
7.1059904,-0.047884032,6.83784,0.18427867,0.019391134,0.010753252,33.0,0.7294406,-0.008436585,0.6839921,-0.0052657723,0.009041851,6.735325E-6,-0.28594542,-0.27550825,-0.6533391,2016-12-03 09:41:59,46.05783193764446
7.0581064,-0.047884032,6.646304,0.06742078,-2.329175E-4,0.003745135,33.0,0.7265361,-0.008208925,0.68707925,-0.0023566484,0.0080052065,0.0018032789,-0.28449643,-0.27465436,-0.6536335,2016-12-03 09:42:00,42.00296108980646
7.0964136,-0.1340753,6.6846113,-0.09607351,0.011907298,-0.005213846,33.0,0.72348386,-0.008904569,0.69028383,-0.002211988,-0.0028385483,-0.0024011135,-0.28420883,-0.2726639,-0.654636,2016-12-03 09:42:01,38.59990806628459
7.1059904,-0.06703765,6.7324953,-0.045865636,0.02330177,-0.0022127153,33.0,0.7268186,-0.006241209,0.68680114,-0.004433453,-6.3366164E-4,-0.0010175705,-0.28413633,-0.27609682,-0.65283275,2016-12-03 09:42:02,57.516091815693954
7.067683,-0.019153614,6.7133417,-0.044765398,-0.0370591,-0.003016256,33.0,0.7279833,-0.008938861,0.6855366,-0.004072547,-0.0016172612,-0.003204465,-0.28472403,-0.27433407,-0.6538184,2016-12-03 09:42:03,66.20569027208211
7.067683,-0.047884032,6.6846113,-0.09404217,-0.030305456,-0.006040614,33.0,0.7258656,-0.0041279793,0.6878242,-0.0035202503,-0.0046155746,-0.005906284,-0.28337854,-0.27647635,-0.6526023,2016-12-03 09:42:04,54.50909647118708
7.1347213,-0.019153614,6.7803793,0.009232077,-0.031240476,1.5420764E-4,33.0,0.72646666,-0.006033692,0.6871752,-0.0034956336,1.2869481E-4,-9.778738E-4,-0.28286055,-0.27537742,-0.6531294,2016-12-03 09:42:05,41.643327146629225
7.067683,-0.047884032,6.742072,0.0035474277,-0.019572388,7.970352E-4,33.0,0.7236162,-0.005240194,0.69018275,0.0022851825,-4.5970967E-4,-0.008869886,-0.2816308,-0.2757429,-0.6527961,2016-12-03 09:42:06,57.109327268236086
7.0581064,-0.047884032,6.7324953,0.0011581443,-0.010006925,-2.2186781E-4,33.0,0.72316134,-0.007969552,0.6906331,0.0056967735,0.0021016467,-0.002507627,-0.2815599,-0.27435893,-0.653522,2016-12-03 09:42:07,41.84924245809153
7.07726,-0.076614454,6.7133417,-0.048677772,-0.008782075,-0.0033315185,33.0,0.73091936,-0.010177395,0.682388,-0.0124159455,0.007115044,0.009225428,-0.2864699,-0.2759136,-0.6532472,2016-12-03 09:42:08,42.74340836186273
7.07726,-0.076614454,6.6654577,0.021206556,0.0078636855,0.0012893472,33.0,0.7272367,-0.008166079,0.68633825,-0.003927171,0.0032001096,0.0043864846,-0.2846508,-0.2753436,-0.6533476,2016-12-03 09:42:09,53.86588211922085
7.086837,-0.095768064,6.7229185,-0.0037738923,0.05043706,3.6872446E-4,33.0,0.7243041,-0.0053148004,0.68946016,-0.0027054548,-0.0016637947,0.003941834,-0.28366044,-0.27554244,-0.6531318,2016-12-03 09:42:11,59.35419275962012
7.1059904,-0.019153614,6.531382,0.012748495,0.027107231,3.105138E-4,33.0,0.72667855,-0.0045080734,0.6869629,-4.608035E-4,-5.4516876E-4,-1.2207031E-4,-0.28364342,-0.2763269,-0.65267295,2016-12-03 09:42:12,39.59727687294187
7.1155677,-0.047884032,6.694188,-0.056421287,-0.0103766965,-0.0030955132,33.0,0.7258064,-0.005021704,0.68788075,-0.003692329,0.0019089291,-0.0027887821,-0.28190508,-0.2758853,-0.65270144,2016-12-03 09:42:13,63.43924376063658
7.1347213,-0.05746084,6.742072,-0.14091565,0.009692427,-0.0077799875,33.0,0.7236887,-0.0048707523,0.6901093,0.0014772415,-0.006714502,-0.0022097826,-0.2825747,-0.2752314,-0.65312594,2016-12-03 09:42:14,56.129218314305035
7.0964136,-0.08619126,6.6271505,0.14328127,0.0030456411,0.007902476,33.0,0.7261499,-0.006570419,0.687505,-0.004942894,0.007099468,-0.0034672618,-0.28501832,-0.274058,-0.6539998,2016-12-03 09:42:15,37.01378893407753
7.0964136,-0.076614454,6.7229185,0.11566278,-0.013497725,0.0061962954,33.0,0.727863,-0.007919467,0.6856768,0.008783579,0.0010043774,0.0054128766,-0.28486386,-0.27482024,-0.6535807,2016-12-03 09:42:16,60.99305879613056
7.1059904,-0.06703765,6.7803793,-0.15339743,0.010966815,-0.008401648,33.0,0.72236556,-0.00410989,0.6914992,-0.0021942258,-0.0026891753,-0.0044641495,-0.28155288,-0.27485502,-0.65321434,2016-12-03 09:42:17,65.65376055033282
7.0964136,0.0,6.703765,-0.010676958,-0.017284278,-9.3372044E-4,33.0,0.7266954,-0.0036129374,0.68695027,-0.004555404,-0.003001028,7.134676E-5,-0.2812993,-0.27631846,-0.6524102,2016-12-03 09:42:18,58.11768556369635
7.0581064,-0.047884032,6.7229185,0.023399655,-0.014150861,0.0012061151,33.0,0.7231165,-0.0063370457,0.690697,-1.642108E-4,0.005146976,4.0268898E-4,-0.28220204,-0.27380458,-0.6538347,2016-12-03 09:42:19,35.85073028584458
7.1059904,-0.10534488,6.6846113,-0.12222999,-0.023368636,-0.007171669,33.0,0.72572476,-0.004514938,0.6879703,-4.1598082E-4,-0.0024684202,0.004662335,-0.28220305,-0.27584484,-0.6527634,2016-12-03 09:42:20,40.995759818263515
7.086837,-0.076614454,6.7229185,-0.066153936,-0.0058735344,-0.0037788935,33.0,0.7262799,-0.0070010433,0.68736345,-0.002247274,0.0022537839,-0.0041850805,-0.2832211,-0.2753218,-0.65314335,2016-12-03 09:42:21,54.469391518794836
7.0485296,-0.076614454,6.6654577,-0.008125857,0.019174166,-1.1583144E-4,32.0,0.72307456,-0.0063373214,0.69074094,-0.0018940568,-5.125934E-4,-0.0056939125,-0.28302175,-0.27403313,-0.65380025,2016-12-03 09:42:22,60.29799227310677
7.144298,-0.1436521,6.742072,0.04669743,0.012969427,0.0028673785,32.0,0.72624767,-0.009887746,0.6873621,0.0027740002,-0.0046918634,5.9330463E-4,-0.28573316,-0.27393475,-0.6541384,2016-12-03 09:42:23,53.414761507150516
7.0581064,-0.047884032,6.5505357,0.018549075,0.012667059,0.0010817713,33.0,0.72490764,-0.009346186,0.68878263,-0.0047693253,-0.0013111932,-7.342696E-4,-0.28447655,-0.27335098,-0.6543097,2016-12-03 09:42:24,33.13184585321245
7.1634517,-0.08619126,6.7133417,0.08600781,0.059068624,0.006129251,33.0,0.7247703,-0.006299436,0.68896174,0.0024585128,-6.465046E-4,-0.0021556616,-0.28489995,-0.27534622,-0.65330786,2016-12-03 09:42:25,52.15845183702041
7.0964136,-0.076614454,6.703765,-0.13952167,-0.004372302,-0.007804371,33.0,0.72661996,-0.0050985985,0.6870207,0.0023331642,-0.004480917,0.0010074377,-0.28320223,-0.27630928,-0.65262085,2016-12-03 09:42:26,51.17997854551816
7.1155677,-0.05746084,6.7324953,-0.047923,0.026497696,-0.0024938025,33.0,0.72642964,-0.0067546624,0.6872077,-0.0023312569,-0.001976009,0.0037181377,-0.2838141,-0.2750534,-0.65334463,2016-12-03 09:42:27,57.581807603272956
7.0485296,-0.047884032,6.6654577,0.053299136,6.2349567E-4,0.003119355,33.0,0.7260902,-0.0065896106,0.6875679,1.3047457E-4,0.0035322201,0.01099658,-0.28329128,-0.27543324,-0.653094,2016-12-03 09:42:28,60.12194904161469
7.1155677,-0.095768064,6.6750345,-0.017934773,-0.011200435,-0.001092152,33.0,0.725636,-0.0042434847,0.6880657,-0.0055115223,0.0012525036,-0.0019586086,-0.281278,-0.27589345,-0.65263796,2016-12-03 09:42:29,62.57243952011031
7.1059904,-0.047884032,6.751649,-0.04919856,-0.018025454,-0.003056613,33.0,0.7260105,-0.004515302,0.6876688,-0.0039616227,-3.32654E-4,-0.0073925257,-0.28227675,-0.2756581,-0.6528656,2016-12-03 09:42:30,45.86254236635675
7.0964136,-0.06703765,6.703765,-0.042167954,-0.004072141,-0.002402649,33.0,0.72616625,-0.00819006,0.6874704,-0.0029224157,-4.987819E-4,-0.005468607,-0.28434804,-0.27566263,-0.6530833,2016-12-03 09:42:31,64.84464186631273
7.038953,0.0,6.6846113,0.026318602,-0.04217285,0.001772929,33.0,0.7250939,-0.010705818,0.6885668,-0.002939105,0.0027009603,-5.877614E-4,-0.28436163,-0.2724891,-0.65474963,2016-12-03 09:42:32,32.92311000964367
7.038953,-0.02873042,6.6846113,0.01704406,-0.020155996,4.8228557E-4,33.0,0.72774947,-0.0065505956,0.6858119,-0.00459069,-0.0012689847,0.0031190515,-0.28284734,-0.2753387,-0.6532782,2016-12-03 09:42:33,54.54621944341603
7.07726,-0.06703765,6.655881,-0.07237507,-0.030120745,-0.0047393804,33.0,0.72469085,-0.0077863457,0.6890301,0.0031400323,-0.0030051726,-0.0106239915,-0.28394702,-0.2734907,-0.65418,2016-12-03 09:42:34,57.82368269274986
7.1347213,-0.06703765,6.694188,0.025257654,-0.016246635,9.6992817E-4,33.0,0.7262845,-0.008097881,0.68734646,-0.004245758,0.0040762015,-0.009015441,-0.28322926,-0.27482963,-0.6534068,2016-12-03 09:42:35,66.5297304494371
7.0581064,-0.076614454,6.751649,-0.10087209,0.00988059,-0.0055039627,33.0,0.72225106,-0.003282552,0.6916232,-8.6039305E-4,-0.0026580065,0.0019990206,-0.28035104,-0.2748965,-0.6530641,2016-12-03 09:42:36,63.140949078976476
7.1155677,-0.038307227,6.703765,-0.014944501,-0.016216995,-0.0011136933,33.0,0.7270514,-0.0057873894,0.68655866,8.314848E-4,-0.0018482627,-0.0042951703,-0.28273636,-0.27596813,-0.6527525,2016-12-03 09:42:37,59.22438881090349
7.0485296,-0.05746084,6.847417,0.16852075,0.02576764,0.009814496,33.0,0.7249071,-0.009473932,0.6887815,-0.011413872,0.004558114,-0.0019176006,-0.28346765,-0.27400672,-0.65386426,2016-12-03 09:42:38,46.535655160269336
7.019799,-0.095768064,6.8186865,0.003642356,0.039192177,9.016094E-4,33.0,0.7234053,-0.0045293523,0.6904088,-0.005122304,-0.006172966,-0.0112605095,-0.2825432,-0.27544236,-0.65300727,2016-12-03 09:42:39,54.960072601390834
7.1347213,-0.05746084,6.6367273,-0.020230452,-0.00198883,-0.0012582559,33.0,0.7252754,-0.0055819512,0.6884362,-0.0042285323,-0.0050660525,-3.157854E-4,-0.2839984,-0.27296185,-0.65778613,2016-12-03 09:42:40,60.43578997804447
7.067683,-0.10534488,6.751649,0.056050356,0.008943146,-0.0062670433,33.0,0.7249721,-0.008111529,0.6887304,2.0223856E-4,2.7424656E-5,-8.441806E-4,-0.28896272,-0.26806056,-0.665505,2016-12-03 09:42:41,32.67204005847454
7.0964136,-0.06703765,6.7229185,0.22065376,8.035588E-4,0.0123234615,33.0,0.72640777,-0.009372356,0.6872001,0.0034860969,0.005534214,0.005752206,-0.29137042,-0.26703966,-0.6701757,2016-12-03 09:42:42,33.05226384301497
7.0964136,-0.047884032,6.6175733,-0.015437814,-0.0038903675,-0.0010096425,32.0,0.7259188,-0.0015296673,0.68777865,-0.0019503832,-0.0033753186,-0.012352109,-0.28621975,-0.272508,-0.66293025,2016-12-03 09:42:43,34.70158954192855
7.1059904,-0.019153614,6.8761473,0.077724,-0.01483863,0.0036839338,32.0,0.7256535,-0.009670558,0.6879923,-0.0015412569,-7.319916E-5,-0.001967609,-0.28900617,-0.26846802,-0.6652856,2016-12-03 09:42:44,64.64815583059126
7.1155677,-0.076614454,6.6654577,-0.0098137455,0.0012491895,-5.1475136E-4,32.0,0.7239559,-0.0060246293,0.68981993,0.0019874573,-0.001864397,-0.009530127,-0.28526554,-0.27184665,-0.6591291,2016-12-03 09:42:45,66.63753510541673
7.029376,-0.08619126,6.799533,-0.24708416,8.403754E-5,-0.08841318,33.0,0.7250082,-0.0076873144,0.68869734,-0.007896781,0.003842664,-0.013253093,-0.28523442,-0.2727643,-0.658675,2016-12-03 09:42:46,51.632682265606896
7.0964136,-0.038307227,6.8665705,-0.06098636,-0.010080186,-0.0038479117,33.0,0.7242956,-0.006372804,0.68946016,-0.005943954,0.004315436,0.0013413429,-0.286696,-0.2697258,-0.6644021,2016-12-03 09:42:47,60.53048685605299
7.0581064,-0.019153614,6.742072,0.043721862,0.016674284,0.0033402625,33.0,0.72499996,-0.009224534,0.68868715,-0.004777193,-0.0033270596,0.0022047758,-0.2908211,-0.26605216,-0.6706071,2016-12-03 09:42:48,49.67113610838008
7.1251445,-0.02873042,6.751649,-0.1807415,-0.019601304,-0.011288195,32.0,0.7244033,-0.009735177,0.68930763,-0.0013055801,-0.0029325793,-0.002266407,-0.29050696,-0.26576373,-0.6707182,2016-12-03 09:42:49,52.892064123106636
7.038953,-0.076614454,6.789956,0.074322306,-0.012530764,0.0035623582,32.0,0.72211975,-0.009816863,0.6916985,0.0037665963,0.002953371,-0.0074406266,-0.28694594,-0.26822013,-0.6651908,2016-12-03 09:42:50,53.819306143292096
7.0102224,-0.05746084,6.742072,0.12386125,0.019929813,0.0073332163,32.0,0.72498554,-0.0064158756,0.6887342,-0.006290853,-0.003247993,0.013434947,-0.2860774,-0.27256742,-0.6589148,2016-12-03 09:42:51,51.73936866273223
7.0581064,-0.05746084,6.751649,-0.011587981,0.009236885,-4.101352E-4,32.0,0.72439426,-0.008019629,0.6893393,-0.003225267,0.0011013802,-0.0072126985,-0.2833777,-0.27492467,-0.6533082,2016-12-03 09:42:52,66.29118495587049
7.07726,-0.047884032,6.7229185,0.11078965,-0.009575989,0.005645941,32.0,0.7259026,-0.007531466,0.68775624,-0.0028740764,0.0043127984,-0.0035771132,-0.28457063,-0.27394912,-0.65393144,2016-12-03 09:42:53,34.833747925004324
7.086837,-0.019153614,6.7803793,0.12056858,-0.010201963,0.006165197,32.0,0.72683734,-0.008971412,0.686751,-0.0017988682,0.0020667873,-0.0045825243,-0.2845633,-0.27445978,-0.65366334,2016-12-03 09:42:54,39.45261831611947
7.086837,-0.08619126,6.751649,-0.07002503,0.023226898,-0.003721925,32.0,0.7265332,-0.005705643,0.68710774,-0.010091424,-0.0010981741,-0.0031932592,-0.28321445,-0.27659562,-0.65242463,2016-12-03 09:42:55,37.295213225032825
7.086837,-0.10534488,6.7133417,-0.037037365,-0.002197321,-0.0019509437,32.0,0.72902495,-0.006405765,0.6844572,-0.0049219728,6.8280613E-4,-0.0042849183,-0.28524357,-0.27599746,-0.65293044,2016-12-03 09:42:56,55.1980912965619
7.1059904,-0.038307227,6.751649,0.13506496,0.0041992343,0.0071445173,33.0,0.7252927,-0.009144118,0.68837994,-0.0021840334,-0.001526109,-0.004281163,-0.28534827,-0.27391097,-0.6540268,2016-12-03 09:42:57,33.326774244563175
7.086837,-0.076614454,6.531382,-0.015818229,-0.012719894,-0.001000616,33.0,0.7243615,-0.0065467046,0.6893892,-0.0041761994,-0.0012163855,-0.0052999854,-0.28280878,-0.27439097,-0.6535278,2016-12-03 09:42:58,57.22362880302253
7.07726,-0.076614454,6.7229185,-0.059619863,-0.01783191,-0.0030518908,33.0,0.7285772,-0.006769692,0.6849302,-0.004576206,1.5888689E-4,-0.0075802207,-0.28340614,-0.27675304,-0.65235794,2016-12-03 09:42:59,52.84448993569551
7.038953,-0.05746084,6.8186865,-0.01668607,0.020892717,-8.455524E-4,33.0,0.72610486,-0.0061596734,0.6875563,-0.00987339,-0.0015638438,-0.0053736567,-0.28295562,-0.27621403,-0.6525969,2016-12-03 09:43:00,54.99252963499153
7.0964136,-0.076614454,6.6846113,-0.017090067,0.012664548,-6.369145E-4,33.0,0.7230545,-0.0058470676,0.6907662,0.003989041,-0.0067841206,-0.005718231,-0.28251204,-0.2744846,-0.65344983,2016-12-03 09:43:02,55.214064452345596
7.07726,-0.047884032,6.5601125,0.08243497,-0.020017782,0.0041287607,33.0,0.7246238,-0.004056292,0.68913275,-0.002541542,0.0038977058,-0.0020527244,-0.2823656,-0.27583003,-0.65274084,2016-12-03 09:43:03,55.897737476351104
7.0102224,-0.06703765,6.789956,-0.03584916,0.01093442,-0.0017224244,33.0,0.725112,-0.0064013833,0.6886012,-0.0019645095,5.4864027E-4,-0.002589941,-0.2831473,-0.2757127,-0.65287817,2016-12-03 09:43:04,39.21457240137562
7.1251445,-0.1340753,6.694188,0.03218323,-0.01737927,0.0013093565,33.0,0.7247543,-0.00738965,0.6889678,-7.8880787E-4,-0.0013832981,-0.007674992,-0.2830481,-0.2739698,-0.65377,2016-12-03 09:43:05,64.41511775059598
7.067683,-0.095768064,6.742072,-0.04446964,-0.011199361,-0.0023714409,33.0,0.72952706,-0.0062411595,0.6839235,-0.00447762,-0.0024334714,-0.010559201,-0.28414527,-0.2771725,-0.6522112,2016-12-03 09:43:06,49.99546341604926
7.0964136,-0.038307227,6.6750345,-0.015283691,-0.030123398,-0.0015090585,33.0,0.7248036,-0.0061321175,0.6889282,-0.0018263459,2.1184282E-4,-0.009579003,-0.28272098,-0.27379593,-0.65382206,2016-12-03 09:43:07,58.89990055156221
7.0964136,-0.05746084,6.751649,0.06205982,0.012334262,0.0036837617,33.0,0.7245755,-0.007911967,0.68915,-0.0043097734,9.356057E-4,0.0036477447,-0.28358144,-0.2746718,-0.65345925,2016-12-03 09:43:08,39.143474550794956
7.1155677,-0.06703765,6.7324953,0.014774909,0.014467325,0.0012645026,33.0,0.7225367,-0.007612325,0.69129074,0.0035569668,6.3759414E-4,-4.0990114E-4,-0.28307354,-0.27382398,-0.6538495,2016-12-03 09:43:09,65.4127184791852
7.038953,-0.095768064,6.7229185,0.16979143,0.005780722,0.008971736,33.0,0.72449386,-0.00842694,0.6892298,-0.001285255,0.001503462,0.0074656606,-0.2845654,-0.27396715,-0.6539218,2016-12-03 09:43:10,63.79710761939901
7.0485296,-0.06703765,6.742072,0.01798727,-0.008274494,8.2996883E-4,33.0,0.72595876,-0.009204272,0.68767667,1.4901161E-4,0.0021751495,-0.0026752949,-0.28450692,-0.27414486,-0.6538237,2016-12-03 09:43:11,58.997487100496535
7.1155677,-0.08619126,6.7133417,0.07692267,-0.006529636,0.0041793194,33.0,0.7260759,-0.009809588,0.6875446,-0.0049266815,0.005687964,-0.0034445524,-0.28430763,-0.27432898,-0.6537072,2016-12-03 09:43:12,52.01413159688066
7.1059904,-0.095768064,6.703765,-0.112437375,-0.019955974,-0.0061284257,33.0,0.7270141,-0.0065766647,0.68659097,-0.006834388,-0.0047689765,0.0023937821,-0.28275046,-0.27617538,-0.65259475,2016-12-03 09:43:13,33.855857945519446
7.1634517,-0.06703765,6.789956,-0.08212728,0.009937656,-0.004164769,33.0,0.72445416,-0.0059258775,0.68929756,-0.0031147003,-0.0028068675,-0.0014853477,-0.2828253,-0.2754595,-0.65297747,2016-12-03 09:43:14,55.48969507813158
7.086837,-0.08619126,6.7803793,0.078140825,-0.0068887286,0.0039205966,33.0,0.7243093,-0.0050011217,0.68945694,0.0035413504,-0.0048335013,-0.010094643,-0.28215405,-0.27461112,-0.65334976,2016-12-03 09:43:15,66.05890632610927
7.0485296,-0.047884032,6.579266,0.022126969,-0.0017861291,0.0012425426,33.0,0.7255681,-0.007969126,0.68810415,0.0025389194,-0.0017488953,0.0027163029,-0.2837576,-0.2741604,-0.65374243,2016-12-03 09:43:16,50.918179966492346
7.0964136,-0.038307227,6.703765,0.017743286,0.022361526,0.0010787845,33.0,0.7236214,-0.009218924,0.69013554,-0.0041427016,-0.0013973927,-4.6539307E-4,-0.2835439,-0.27505964,-0.6532538,2016-12-03 09:43:17,62.465071776610756
7.086837,-0.076614454,6.751649,0.060307425,-8.438614E-4,0.0031357731,33.0,0.72387326,-0.0068133734,0.6898993,-7.0649385E-4,9.7563956E-4,0.002932489,-0.28219467,-0.27487317,-0.6532194,2016-12-03 09:43:18,35.23242043478485
7.038953,-0.009576807,6.742072,0.12919277,-0.017254695,0.0064328983,33.0,0.72681296,-0.009500323,0.6867698,-0.002860546,0.0027262988,-0.008393109,-0.28483057,-0.2739867,-0.6539411,2016-12-03 09:43:19,66.38843783541272
6.991069,-0.038307227,6.646304,0.034099273,-0.0068490324,0.0017567,33.0,0.7226067,-0.0052428762,0.6912395,-0.0043140054,-6.6285534E-4,-0.0023297071,-0.28132012,-0.27486297,-0.6531353,2016-12-03 09:43:20,48.60357961195217
7.144298,-0.095768064,6.7133417,0.009374004,0.00771079,6.0362247E-4,33.0,0.7264561,-0.0065985243,0.6871812,-0.0070420504,0.0016863942,0.0015760064,-0.28347734,-0.27635235,-0.6525746,2016-12-03 09:43:21,55.41702718485874
7.0006456,-0.02873042,6.655881,-0.016825277,0.006348572,-8.989588E-4,33.0,0.7253878,-0.0072854846,0.6883019,-0.0024340153,-0.001449367,-0.012835383,-0.28324652,-0.2742349,-0.6536497,2016-12-03 09:43:22,61.6064187166093
7.067683,-0.06703765,6.6750345,-0.09820466,-0.002687466,-0.005176136,33.0,0.7262798,-0.0064783916,0.68736875,-0.0059551597,-0.004116444,0.0034151077,-0.28379923,-0.2752489,-0.6531812,2016-12-03 09:43:23,48.374630002312166
7.07726,-0.05746084,6.655881,-0.13957156,-0.009483774,-0.0074558905,33.0,0.72549707,-0.0059473193,0.68819964,-0.0014621019,-0.004709459,-0.007956326,-0.28260824,-0.27561072,-0.6528753,2016-12-03 09:43:24,50.54234373848534
7.153875,-0.047884032,6.742072,-0.027820013,-0.011559339,-0.0014604167,33.0,0.7247311,-0.0060647866,0.68900514,0.007275343,-7.7805994E-4,0.0076882243,-0.28236696,-0.2756249,-0.65284854,2016-12-03 09:43:25,59.42997979821211
7.0485296,-0.06703765,6.655881,-0.003498837,-0.0065957066,-3.326785E-4,33.0,0.7257547,-0.007857433,0.68790877,-0.0025536418,-8.782791E-5,-0.0019555092,-0.28373685,-0.2743166,-0.65365887,2016-12-03 09:43:26,46.708007009893
7.029376,-0.038307227,6.7133417,0.02099099,-0.0029475063,9.650664E-4,33.0,0.721432,-0.0060233017,0.69245917,-0.0012064576,-0.0018054117,-0.008412659,-0.28187975,-0.2739319,-0.653672,2016-12-03 09:43:27,65.64416996849775
7.067683,-0.06703765,6.6846113,0.1530539,-0.0018701185,0.008168999,33.0,0.72527486,-0.006985852,0.688424,0.0026416779,0.005759952,-0.008155227,-0.28386733,-0.27455953,-0.6535478,2016-12-03 09:43:28,56.98131791146031
7.0964136,-0.08619126,6.751649,-0.0025604165,-0.0140347,-5.3828215E-4,33.0,0.7275253,-0.008952873,0.68602246,-6.390214E-4,0.0038501355,-0.0056969523,-0.28720582,-0.2721295,-0.659069,2016-12-03 09:43:29,61.02387868928674
7.086837,-0.05746084,6.6846113,-0.04634869,-0.037485953,-0.0033957078,33.0,0.724352,-0.008804894,0.689374,-0.0033720136,-0.0037116334,-0.008022785,-0.28521162,-0.27084473,-0.6595245,2016-12-03 09:43:30,46.88932962938527
7.0964136,-0.076614454,6.7133417,-0.0072377524,0.043904454,9.019322E-5,33.0,0.723659,-0.00852622,0.6901051,-0.0022296906,0.0016626045,5.4425E-4,-0.2864644,-0.27148336,-0.659326,2016-12-03 09:43:31,48.20305435161484
6.9048777,-0.08619126,6.83784,-0.05677833,-0.013326127,-0.0033407346,33.0,0.72905624,-0.0041248687,0.6844414,-0.007675588,-7.584202E-4,0.0033243895,-0.28623217,-0.27447823,-0.65776885,2016-12-03 09:43:32,39.90715035963115
7.144298,-0.095768064,6.6846113,-0.1170115,-1.5778528E-4,-0.0061139255,33.0,0.72602594,-0.0045815455,0.68765205,-0.0019697547,-0.0051532523,0.0033179522,-0.2848368,-0.2728138,-0.6584842,2016-12-03 09:43:33,63.05445347125368
6.9623384,0.0,6.742072,0.0043923603,-0.0012489284,2.0214035E-4,33.0,0.7259522,-0.008481422,0.6876929,-0.009668767,0.0044322517,-0.011430919,-0.28511804,-0.2734909,-0.6555934,2016-12-03 09:43:34,51.482288866334905
7.1251445,0.0,6.6079965,-0.01435158,-0.025655817,-6.400226E-4,33.0,0.72668594,-0.0029512914,0.68696344,-0.0025782585,-0.0018430662,-0.0048428774,-0.28193295,-0.27735347,-0.65190035,2016-12-03 09:43:35,61.3503315194295
7.07726,-0.08619126,6.6079965,0.050855085,0.040805347,0.0033797934,32.0,0.7273642,-0.008562266,0.6861983,-0.0013170838,0.005418653,-0.00895071,-0.2852144,-0.27609128,-0.6528862,2016-12-03 09:43:36,48.13420572414219
7.086837,-0.038307227,6.6367273,-0.28135705,0.003686014,-0.083693914,32.0,0.7272038,-0.006481934,0.68639106,-0.0059432983,0.0015426045,-0.0024062395,-0.28371358,-0.276159,-0.65296465,2016-12-03 09:43:37,63.328460605797716
7.144298,-0.10534488,6.703765,-0.0017035478,0.040911384,0.0011248463,32.0,0.7242245,-0.0077607785,0.6895206,0.0047312975,-0.0029657362,-0.005405724,-0.2866356,-0.2723749,-0.65888864,2016-12-03 09:43:38,63.175591982328896
7.07726,-0.08619126,6.7612257,0.019627012,0.013064568,0.0015830044,32.0,0.7273387,-0.009588066,0.6862117,-0.007929385,0.004711498,0.0015731454,-0.28763103,-0.27280763,-0.6587651,2016-12-03 09:43:39,32.3232361875666
7.144298,-0.05746084,6.7324953,-0.01676579,-0.0020390647,-8.779094E-4,30.0,0.7263208,-0.006480285,0.68732524,0.0026367903,0.0025685336,-0.002235055,-0.28551438,-0.2737054,-0.65809435,2016-12-03 09:43:40,61.54599073325355
7.144298,-0.05746084,6.7324953,0.13213718,0.03137096,0.10466985,33.0,0.7274992,-0.006503806,0.6860778,-0.0051008463,-0.0039568543,0.0036033392,-0.286499,-0.274335,-0.65784985,2016-12-03 09:43:41,55.208779223751705
7.0102224,-0.038307227,6.694188,0.025773983,0.042346228,0.0024902134,33.0,0.72611284,-0.008609915,0.68752164,-0.0075654984,-2.4816114E-4,0.0020956993,-0.2846068,-0.2751702,-0.6533,2016-12-03 09:43:42,62.67490748199304
7.086837,-0.047884032,6.646304,0.04802691,-0.011863559,0.0024343943,33.0,0.7238295,-0.0040828534,0.68996674,0.0030429363,-0.0056479415,-0.004739523,-0.28225505,-0.27447957,-0.6534274,2016-12-03 09:43:43,60.90439224010009
7.038953,0.02873042,6.646304,0.021875173,0.016107189,0.0011576861,33.0,0.72523755,-0.0028894907,0.68849266,-0.0028945208,-0.0028200257,-7.083416E-4,-0.2817686,-0.2767806,-0.6521765,2016-12-03 09:43:44,57.914194328673894
7.086837,-0.06703765,6.703765,-0.07258629,0.009334846,-0.0036851487,33.0,0.7248586,-0.005884817,0.68887264,-7.7044964E-4,9.74657E-5,-0.004776716,-0.28247565,-0.2756606,-0.65284127,2016-12-03 09:43:45,51.00931720568127
7.0581064,-0.047884032,6.655881,0.04182922,-0.045762233,0.0013293301,33.0,0.7263395,-0.010111878,0.6872617,-0.0062627196,0.005051741,-0.007946789,-0.28457588,-0.27297887,-0.6544328,2016-12-03 09:43:46,37.91922409681951
7.067683,-0.038307227,6.6654577,0.0018390245,-0.050496444,5.770408E-4,33.0,0.7262685,-0.003015326,0.6874045,-0.0072084665,-0.00272493,-0.004135728,-0.28160682,-0.27562746,-0.65276694,2016-12-03 09:43:47,45.130399381788166
7.1155677,-0.08619126,6.6654577,-0.09178196,-0.026876636,-0.005621486,33.0,0.72263443,-0.005246844,0.6912105,-4.9835443E-4,-0.0015009628,-0.0061400533,-0.2814751,-0.27551952,-0.6528098,2016-12-03 09:43:48,60.668638857589904
7.0581064,-0.08619126,6.703765,-0.03288456,-0.021448236,-0.0019168786,33.0,0.726253,-0.0054305447,0.6874061,-0.006180942,-0.003306136,-0.003197074,-0.28284657,-0.27509147,-0.65317005,2016-12-03 09:43:49,57.73947711141483
7.0485296,-0.12449849,6.7133417,-0.10853697,-0.002696581,-0.0057123806,33.0,0.72658974,-0.00669224,0.687039,-5.547404E-4,-0.0029635439,-0.0019571185,-0.2837487,-0.2750652,-0.6532704,2016-12-03 09:43:50,33.01325305964811
7.1059904,-0.095768064,6.694188,0.0038597332,-0.017923228,-3.9824085E-5,33.0,0.7245323,-0.0073156185,0.689202,-0.0053005815,0.0012963777,-0.0070942044,-0.2842228,-0.27174103,-0.65834,2016-12-03 09:43:51,33.29039209503585
7.086837,-0.08619126,6.742072,-0.07482508,0.016590986,-0.0037023432,33.0,0.7239931,-0.0050472473,0.68978876,-0.0017356277,-0.0035377452,0.0010185838,-0.28434387,-0.27309397,-0.6582915,2016-12-03 09:43:52,65.17975840967695
7.086837,-0.019153614,6.6654577,0.15619269,-0.039947107,0.0675017,33.0,0.7259543,-0.0048964685,0.68772554,-0.001008153,-0.0019161431,-0.0074130297,-0.28354403,-0.27348143,-0.65722615,2016-12-03 09:43:53,39.053203013929085
7.067683,-0.08619126,6.751649,0.106084295,0.0042553516,0.005613988,33.0,0.7266242,-0.008491845,0.68698275,-0.004557729,0.0026230188,-0.006725073,-0.28426456,-0.2749444,-0.65338594,2016-12-03 09:43:54,56.51582214492546
7.067683,-0.095768064,6.7133417,-0.25427538,0.0190381,-0.013106635,33.0,0.7227806,-0.0058846343,0.69105256,4.5782328E-4,-0.005483384,-0.008064926,-0.2811778,-0.27589893,-0.65257907,2016-12-03 09:43:55,58.8386130299552
7.067683,-0.05746084,6.6367273,-0.043484032,0.0022282437,-0.0022343667,33.0,0.7243905,-0.008537002,0.6893371,-0.0013219118,-0.0068313545,-0.0061712265,-0.28322327,-0.27418363,-0.65367347,2016-12-03 09:43:56,65.57188491340206
7.0964136,-0.095768064,6.694188,-0.036267273,-0.01318619,-0.0021600185,33.0,0.724469,-0.004719233,0.68929124,-6.880164E-4,-0.0048375567,-0.0058487654,-0.28192636,-0.27542356,-0.65289915,2016-12-03 09:43:57,57.13762880521561
7.1155677,-0.05746084,6.703765,0.12269544,0.0039989767,0.0064517586,33.0,0.7236113,-0.010390281,0.6901295,-0.006194055,0.0054623666,-0.009144664,-0.28477743,-0.2728805,-0.6545041,2016-12-03 09:43:58,61.07327294597691
7.019799,0.019153614,6.7133417,0.105894506,-0.0431022,0.004806628,33.0,0.72652614,-0.008865919,0.6870816,-0.010311663,0.010619449,-0.001952529,-0.2834193,-0.2740141,-0.6537812,2016-12-03 09:43:59,42.49392115526484
7.086837,-0.08619126,6.742072,0.07115181,-0.020223847,0.003471423,33.0,0.72489417,-0.007020912,0.6888245,-0.0018243194,0.0068535134,-0.0037105083,-0.2837817,-0.27405524,-0.65380216,2016-12-03 09:44:00,52.91909591642522
7.1251445,-0.08619126,6.694188,-0.12173885,-6.787565E-4,-0.006384477,33.0,0.7244151,-0.005456176,0.68934244,0.0035331845,-0.009001801,-0.0042172074,-0.28209987,-0.27526718,-0.6530046,2016-12-03 09:44:01,60.55909773901039
7.0964136,-0.06703765,6.7324953,-0.009466282,-0.021197964,-0.001227181,33.0,0.7280003,-0.0068763625,0.6855424,-0.0030394793,-0.0036937045,-0.002311051,-0.28357813,-0.27557647,-0.65298533,2016-12-03 09:44:02,52.88041803413375
7.038953,-0.019153614,6.6654577,-0.031448226,0.028171845,-0.0021576867,33.0,0.7212287,-0.0070662745,0.692661,8.4751844E-4,-6.8539195E-4,-0.0114373565,-0.28169104,-0.273863,-0.65368855,2016-12-03 09:44:03,35.6666651182609
7.0964136,-0.08619126,6.703765,-0.01592455,0.0785393,-4.0299018E-4,33.0,0.72737753,-0.008064752,0.6861901,-0.008009732,-5.319705E-4,-0.0022680163,-0.2839803,-0.27531263,-0.6531709,2016-12-03 09:44:04,60.213993313362025
7.1347213,-0.10534488,6.742072,-0.0537121,-4.594956E-4,-0.0029866507,33.0,0.72561216,-0.004666273,0.68808806,-0.004372418,-0.001952963,-0.0040791035,-0.28182164,-0.27694717,-0.6521349,2016-12-03 09:44:05,41.38691349377619
7.067683,-0.047884032,6.751649,0.0801781,0.020959254,0.0050559933,33.0,0.7257206,-0.010227126,0.6879136,-0.011045098,0.0034732763,0.006553352,-0.28396705,-0.27450967,-0.6536554,2016-12-03 09:44:06,57.82478611201725
7.144298,-0.019153614,6.646304,-0.06205537,-0.01990925,-0.0037317094,33.0,0.7258229,-0.0054960004,0.68785965,-0.0038548708,-0.003200512,-0.0065203905,-0.28188953,-0.27529913,-0.65301454,2016-12-03 09:44:07,61.37395259773097
7.0485296,-0.08619126,6.655881,-0.024482295,0.007191735,-0.0011806595,33.0,0.72145605,-0.008184102,0.6924119,6.13451E-4,0.002139479,-0.005320549,-0.2835332,-0.27274072,-0.65452796,2016-12-03 09:44:09,66.00371106707377
7.067683,-0.038307227,6.7708025,0.0100387735,0.012963065,5.318254E-4,33.0,0.72575814,-0.008180161,0.68790126,-0.0066263676,0.0012923563,-0.008618593,-0.28392607,-0.27455503,-0.65361893,2016-12-03 09:44:10,59.205359720301125
7.1059904,-0.05746084,6.7612257,0.14091606,-0.017261758,0.0075517003,33.0,0.72653687,-0.008885469,0.6870701,-0.008094072,0.0065170173,-0.0022331476,-0.2849929,-0.27296424,-0.6545671,2016-12-03 09:44:11,59.81377782937564
7.0581064,0.0,6.6654577,-0.11170853,0.0057779346,-0.0061707553,33.0,0.7262417,-0.0057128766,0.68741566,-0.0043102503,-0.0011536535,-0.00994736,-0.28312773,-0.27632323,-0.6526074,2016-12-03 09:44:12,49.38826158232896
7.0581064,-0.095768064,6.694188,-0.015153679,-0.033189956,-7.1815035E-4,33.0,0.7250238,-0.006062136,0.68869716,-0.006740093,0.0030112197,-0.0027105212,-0.28211936,-0.27410764,-0.65366334,2016-12-03 09:44:13,33.513992779414195
7.019799,-0.038307227,6.742072,-0.095038325,-0.037894838,-0.0062350216,33.0,0.72338164,-0.0067825573,0.6904151,-0.0015491247,0.0010248502,-0.007957697,-0.280895,-0.27447176,-0.653342,2016-12-03 09:44:14,59.22971368576781
7.0485296,-0.12449849,6.751649,-0.12531179,-0.016418025,-0.0074089994,33.0,0.7268633,-0.002676817,0.6867769,-0.0067506433,-0.003035625,-0.009451032,-0.28195924,-0.27751908,-0.6518418,2016-12-03 09:44:15,33.655460897302405
7.029376,-0.038307227,6.694188,0.060588077,0.006101701,0.0034805348,33.0,0.72408515,-0.008091145,0.6896631,-0.006788552,0.0041261828,-0.00659734,-0.28295434,-0.27416041,-0.65372664,2016-12-03 09:44:16,54.87210902140067
7.019799,-0.095768064,6.703765,-0.090617225,-0.019750882,-0.0051577743,33.0,0.7245132,-0.009114589,0.68920076,0.0024168491,0.0051058065,-0.006966889,-0.28372517,-0.27303645,-0.6543945,2016-12-03 09:44:17,30.914031358915686
7.07726,-0.02873042,6.694188,-0.018128073,-0.009523842,-0.0010907284,33.0,0.7265657,-0.0043648877,0.68708307,-0.0044391155,0.0012214947,-0.003958702,-0.28298715,-0.276389,-0.6525514,2016-12-03 09:44:18,63.49554790297863
7.0581064,-0.05746084,6.6654577,-0.056972027,-0.0011733205,-0.0030520095,33.0,0.72590876,-0.003946743,0.6877797,-0.009381652,-0.00760589,-4.5359135E-5,-0.28178155,-0.27625886,-0.65249723,2016-12-03 09:44:19,60.74062697583435
7.038953,-0.038307227,6.751649,-0.0458015,0.01733539,-0.002420163,33.0,0.7264545,-0.004126095,0.68720216,-0.005177796,-8.2434807E-4,-0.008120537,-0.28356367,-0.27659887,-0.65250576,2016-12-03 09:44:20,56.422429925280426
7.067683,-0.08619126,6.6271505,-0.050818056,0.012451464,-0.0026622326,33.0,0.724279,-0.0055832695,0.6894844,-0.0031644702,-0.0031879926,-0.013162792,-0.2829358,-0.27473712,-0.6534248,2016-12-03 09:44:21,49.57365263261978
7.1059904,-0.08619126,6.6846113,-0.028116697,0.03283439,-5.1910797E-4,33.0,0.72659,-0.00851284,0.68701863,-3.402233E-4,-1.4447793E-4,0.003700018,-0.28408146,-0.2757554,-0.6530074,2016-12-03 09:44:22,30.46239832352141
7.086837,-0.1340753,6.7708025,0.058283255,0.022373118,0.0036828488,33.0,0.7246118,-0.0065196077,0.6891265,-0.0022722483,0.0025505899,0.003546834,-0.28340074,-0.2749541,-0.65335673,2016-12-03 09:44:23,54.73945055049989
7.038953,-0.10534488,6.6750345,-0.09072342,-0.043497473,-0.005235821,33.0,0.72546196,-0.005881765,0.68823713,-0.0052158237,-0.0020381263,-0.0051904917,-0.28348187,-0.2751968,-0.65322435,2016-12-03 09:44:24,61.80635691349845
7.067683,-0.038307227,6.6367273,0.18042019,-0.00415657,0.009375471,33.0,0.72870964,-0.007990323,0.6847762,-0.0075135827,0.0039790813,-0.0075644255,-0.286376,-0.27455324,-0.65380216,2016-12-03 09:44:25,41.247871142263264
7.07726,-0.06703765,6.7612257,-0.08384432,0.009353196,-0.0138674835,33.0,0.7257194,-0.005836038,0.6879661,-0.010084093,-0.0029454497,-0.0061860085,-0.28345972,-0.2763276,-0.65258765,2016-12-03 09:44:26,60.20931473949461
7.0581064,-0.08619126,6.694188,0.09402544,-0.002598322,0.0048527075,33.0,0.7252486,-0.0089070955,0.68842953,-0.00705868,0.0048729153,-0.003321886,-0.28600788,-0.27162772,-0.6592719,2016-12-03 09:44:27,30.66418335135214
7.07726,-0.08619126,6.751649,-0.05538899,-0.015226488,-0.0033791543,33.0,0.7248692,-0.0031088146,0.6888795,-0.0026987195,-0.0019256009,-0.006778121,-0.2840739,-0.27325714,-0.65824443,2016-12-03 09:44:28,63.224563444748235
7.0485296,-0.02873042,6.6846113,-0.034816384,-0.012272604,-0.0020359296,33.0,0.72363913,-0.0057585672,0.69015455,-6.778836E-4,-2.6322482E-4,-0.0068809986,-0.28205037,-0.27409497,-0.65362555,2016-12-03 09:44:29,31.515926359176095
7.0581064,-0.1340753,6.7133417,-0.11842832,-0.0032120626,-0.006248898,33.0,0.7250292,-0.007060343,0.68868196,-0.008947253,-0.0026132138,-0.011227846,-0.28342053,-0.27466497,-0.65343875,2016-12-03 09:44:30,54.52736741032548
7.07726,-0.05746084,6.7803793,0.01552367,0.006443451,0.0010006363,33.0,0.7245578,-0.006269755,0.6891855,0.003549993,0.0021020519,-0.0032545924,-0.2833827,-0.2753545,-0.6530789,2016-12-03 09:44:31,65.89293924596643
7.038953,-0.06703765,6.7324953,-0.07591621,-9.2618074E-4,-0.00417705,33.0,0.72046095,-0.0061336863,0.69346833,0.0034104586,-0.0016506081,-0.013057053,-0.2803858,-0.27291355,-0.65405065,2016-12-03 09:44:32,37.64970397517389
7.067683,-0.095768064,6.7612257,-0.0029662263,-0.0094152205,-3.1732206E-4,33.0,0.72320604,-0.008774877,0.69057655,0.0037482977,-9.4145816E-4,-0.008366704,-0.28648582,-0.27097347,-0.65962774,2016-12-03 09:44:33,46.34118274673937
7.07726,-0.06703765,6.742072,0.044470478,-0.05443562,0.003066665,33.0,0.7261035,-0.008601141,0.68753165,-0.008035362,0.0025819521,-0.010113299,-0.28446817,-0.27310953,-0.65437615,2016-12-03 09:44:34,64.77196268088808
7.0964136,-0.10534488,6.7229185,-0.04611391,0.008670525,-0.0022899415,33.0,0.7250886,-0.0058913706,0.68863034,-0.006766975,9.398442E-5,-0.0046365857,-0.28216392,-0.27595174,-0.65267336,2016-12-03 09:44:35,61.4096380254276
7.0581064,-0.047884032,6.742072,-0.08426827,-0.0042857425,-0.0047727204,33.0,0.72083175,-0.005159208,0.6930909,9.3877316E-5,-0.0015758923,-0.012664139,-0.28251874,-0.27153522,-0.6589687,2016-12-03 09:44:36,54.93674836234505
7.07726,-0.05746084,6.579266,0.009940014,0.0042167716,6.5155147E-4,33.0,0.7258299,-0.006534351,0.6878432,-0.0036332011,-0.0011584605,0.004981935,-0.28488877,-0.27363956,-0.658131,2016-12-03 09:44:37,60.03722763775559
7.1059904,-0.019153614,6.655881,-0.07488139,-0.0037496146,-0.004030883,33.0,0.7250653,-0.0062819477,0.6886515,9.7578764E-4,-0.0014744657,-6.451607E-4,-0.28278422,-0.2746578,-0.65340614,2016-12-03 09:44:38,49.360324658653205
7.07726,0.0,6.7324953,0.08261682,-0.04738094,0.004487468,33.0,0.7261085,-0.006141157,0.68755275,-0.008030415,0.0040750345,-0.011121273,-0.2825572,-0.27475098,-0.6533183,2016-12-03 09:44:39,55.770900113209095
7.038953,-0.06703765,6.7133417,-0.062112287,0.012577708,-0.003176745,33.0,0.7238383,-0.005101704,0.68995076,2.900958E-4,0.0012351293,-3.427267E-5,-0.28218082,-0.2755672,-0.65284914,2016-12-03 09:44:40,65.110979133071
7.0102224,-0.095768064,6.7324953,-0.105064295,0.014677214,-0.0057484796,33.0,0.72902536,-0.0032033087,0.6844792,-0.0062447786,-0.0016471292,0.004791498,-0.28320643,-0.2785107,-0.6514068,2016-12-03 09:44:41,35.72779420962316
7.0581064,-0.095768064,6.8186865,0.016172487,-0.04303742,8.9615805E-4,30.0,0.7255747,-0.0073724836,0.6881039,-0.0073332787,-0.0023095282,-0.0010935664,-0.28328553,-0.27429247,-0.6536278,2016-12-03 09:44:42,61.5311750147975
7.0581064,-0.1340753,6.703765,-0.12802117,0.0011185105,-0.0066817976,32.0,0.7237495,-0.008210548,0.69001395,-0.0036648512,-0.0042764237,-0.00874877,-0.2833897,-0.2737891,-0.653898,2016-12-03 09:44:43,57.763908243008075
7.038953,-0.10534488,6.6750345,-0.03805285,0.008191586,-0.0025175402,33.0,0.7247852,-0.0066646487,0.6889426,4.069209E-4,-9.2155533E-4,-0.004978597,-0.28276694,-0.2750925,-0.6531573,2016-12-03 09:44:44,51.214944187977395
7.1059904,-0.08619126,6.6654577,0.12495969,0.01512337,0.006889318,32.0,0.7257298,-0.00666005,0.6879475,0.005133629,0.008241817,-0.007695794,-0.28389722,-0.27511874,-0.6532596,2016-12-03 09:44:45,30.55109043946226
7.067683,-0.02873042,6.6750345,0.19797489,-0.0039118896,0.010324691,32.0,0.7264854,-0.007777867,0.68713796,-0.009184003,0.006688075,-0.0040779114,-0.28348678,-0.27465785,-0.6534558,2016-12-03 09:44:46,43.82508949284582
7.0006456,-0.009576807,6.7324953,-5.441217E-4,-0.008544079,1.09319924E-4,32.0,0.7238486,-0.008512882,0.68990636,-0.0055037737,7.228656E-4,-7.355213E-5,-0.28204483,-0.27379313,-0.6537641,2016-12-03 09:44:47,34.505759253883966
7.1059904,-0.02873042,6.751649,-0.016582932,0.031643637,-8.7712065E-4,33.0,0.725477,-0.0047241612,0.6882302,-0.0050057173,-0.0011749896,4.4316053E-4,-0.28318542,-0.27605754,-0.652702,2016-12-03 09:44:48,62.18276646187556
7.067683,-0.095768064,6.7612257,0.24001366,0.014474811,0.012703001,33.0,0.72436917,-0.0070487545,0.6893763,-0.009709597,0.010584085,0.0041264296,-0.28313813,-0.27461785,-0.6534444,2016-12-03 09:44:49,63.35560080767428
7.0581064,-0.038307227,6.83784,-0.011065183,-0.005869906,-7.2388654E-4,33.0,0.7246938,-0.004592034,0.6890557,-0.0015638471,-0.0030766437,-0.0020478964,-0.2817307,-0.27500007,-0.65310407,2016-12-03 09:44:50,54.464922687582906
7.086837,-0.047884032,6.751649,0.0011337317,-0.03252216,-7.716132E-4,33.0,0.72674537,-0.0045702797,0.6868918,-0.012365341,0.0025617597,0.0020216107,-0.28258222,-0.27595124,-0.6526948,2016-12-03 09:44:51,59.731524600356494
7.153875,-0.06703765,6.7133417,-0.13598028,-0.024739163,-0.0074277637,33.0,0.72829986,-0.005990181,0.6852324,7.1936846E-4,-0.0065962565,0.0027253032,-0.28375846,-0.2753152,-0.65314376,2016-12-03 09:44:52,31.326098503873105
7.067683,-0.038307227,6.694188,0.011268752,0.009427,7.1855716E-4,32.0,0.72430784,-0.006747314,0.6894437,-0.0023419857,-0.001993638,-0.0032172203,-0.28321964,-0.2745736,-0.65347475,2016-12-03 09:44:53,65.65978690648065
7.0581064,-0.047884032,6.703765,0.055144705,-0.005669227,0.0027491439,33.0,0.72493124,-0.006591627,0.68878967,-0.004709482,6.124149E-4,1.4573336E-4,-0.2825562,-0.2750298,-0.6531686,2016-12-03 09:44:54,33.82638305869015
7.086837,-0.08619126,6.6750345,-0.1245982,0.005508867,-0.0064700185,33.0,0.7262423,-0.003087375,0.6874319,-0.003996134,-0.0055220947,-0.0015000105,-0.28214818,-0.27711976,-0.6520383,2016-12-03 09:44:55,56.640815493156296
7.0964136,-0.06703765,6.742072,0.14251764,0.0030214302,0.007485112,33.0,0.72740525,-0.007851734,0.6861632,-0.0069597363,0.0016878899,0.0035099983,-0.28502178,-0.27516732,-0.65334374,2016-12-03 09:44:56,30.740511208443742
7.086837,-0.038307227,6.7229185,0.10744491,-0.020300169,0.005434689,32.0,0.7257349,-0.006917152,0.6879397,0.0010450482,0.002723868,-0.013366282,-0.2833462,-0.27439523,-0.6535778,2016-12-03 09:44:57,44.478301826775784
7.086837,-0.076614454,6.7133417,-0.04136563,0.006914741,-0.002066122,32.0,0.72223395,-0.0063702604,0.6916196,-0.0038233995,-0.0024057715,-0.0038095117,-0.28216454,-0.27429596,-0.653512,2016-12-03 09:44:58,65.81972379630695
7.1059904,-0.06703765,6.7229185,0.11959313,-0.011019811,0.006073343,33.0,0.72712845,-0.0067426087,0.6864683,-0.0011216998,-1.3752049E-4,0.0025509,-0.28390044,-0.27516815,-0.65323174,2016-12-03 09:44:59,63.87213568322552
7.144298,-0.047884032,6.7708025,-0.030616842,0.012895825,-0.0014027301,33.0,0.7240073,-0.007891332,0.6897471,0.003013134,0.002986385,-0.0036984086,-0.283744,-0.2740929,-0.6537752,2016-12-03 09:45:00,50.75685013464397
7.029376,-0.05746084,6.7612257,0.021057367,0.016198035,0.0013522329,33.0,0.72551614,-0.009026438,0.688146,-0.004359126,-6.811926E-4,-0.005027592,-0.2855041,-0.2732401,-0.65439373,2016-12-03 09:45:01,27.649307576058494
7.1059904,-0.095768064,6.6654577,0.035904683,0.032743752,0.0023981836,33.0,0.7217582,-0.006675677,0.69211316,-0.002423048,6.7995256E-4,6.366968E-4,-0.2819971,-0.27389672,-0.6537062,2016-12-03 09:45:03,60.84592076672561
7.0581064,-0.06703765,6.7708025,0.033843182,-0.01059031,0.0017054294,33.0,0.7240698,-0.007777798,0.6896829,-0.0048105717,-9.60066E-4,0.0011933446,-0.2825664,-0.27393228,-0.65373445,2016-12-03 09:45:04,64.07965806391019
7.1251445,-0.1340753,6.7324953,0.14121127,0.0044020005,0.0074199135,33.0,0.72680944,-0.009508911,0.68677336,-0.0065265894,0.010185646,0.0011171699,-0.28492856,-0.2736692,-0.6541136,2016-12-03 09:45:05,31.91806609312924
7.086837,-0.05746084,6.7708025,0.109732494,0.015231666,0.0059063607,33.0,0.72123665,-0.007039395,0.6926529,-0.0020349026,-7.8385323E-4,0.002191484,-0.2826466,-0.2725964,-0.65444046,2016-12-03 09:45:06,62.12151116917013
7.1347213,-0.11492168,6.6846113,-0.00978251,-0.011099148,-6.373539E-4,33.0,0.72577095,-0.0076999706,0.68789333,-0.008434594,0.0024496731,-0.005850196,-0.28459752,-0.27369565,-0.6540651,2016-12-03 09:45:07,60.2552428998592
7.086837,-0.076614454,6.742072,-0.021196488,0.0016945521,-9.951541E-4,33.0,0.72371775,-0.007979141,0.69004995,0.0012478232,0.0019925209,-0.007806182,-0.28308523,-0.27385268,-0.6538352,2016-12-03 09:45:08,38.89989607562004
7.038953,-0.05746084,6.742072,-0.01365017,0.001746192,-6.837335E-4,33.0,0.724404,-0.0068792067,0.6893414,-0.0011662245,-2.2898428E-5,0.0014603734,-0.2829023,-0.27380896,-0.65383977,2016-12-03 09:45:09,60.96876417582857
7.1059904,-0.11492168,6.7133417,0.0030791718,0.0056493892,3.0463754E-4,32.0,0.72506773,-0.009406474,0.6886133,-0.0018304586,-0.004255279,-0.0017192364,-0.284404,-0.27426937,-0.65374976,2016-12-03 09:45:10,59.53294484284165
7.1347213,-0.08619126,6.7324953,-0.05186685,-0.019560177,-0.0031477083,32.0,0.7224799,-0.0055038943,0.69137007,0.0014408231,-0.0023949002,-0.0041689873,-0.28222322,-0.27335247,-0.6540099,2016-12-03 09:45:11,37.192257740368625
7.1251445,-0.019153614,6.703765,-0.02239948,-0.0036908104,-0.0012422003,32.0,0.72383714,-0.0060111997,0.6899447,0.0030817986,0.003898817,-0.0057449937,-0.28220636,-0.27461275,-0.6533516,2016-12-03 09:45:12,32.19375470595121
7.0485296,-0.076614454,6.7324953,0.035820223,-0.009786247,0.0019383181,32.0,0.72753364,-0.007584019,0.68603015,-0.004492879,0.0018983991,9.62615E-5,-0.28337663,-0.2760319,-0.65273315,2016-12-03 09:45:13,40.97083985480314
7.067683,-0.076614454,6.7803793,-0.0013376358,-0.0042000674,-1.2981755E-4,32.0,0.726565,-0.007410867,0.6870578,-0.0025122166,-0.0031523798,-0.008786261,-0.28347585,-0.2752286,-0.6531563,2016-12-03 09:45:14,62.58557057125647
7.019799,-0.047884032,6.7229185,0.013489356,-0.04120821,6.085533E-4,32.0,0.72670275,-0.007341397,0.68691283,-0.004767418,-5.4941466E-4,-0.0074943304,-0.28316653,-0.27448094,-0.65351844,2016-12-03 09:45:15,58.59914179260209
7.067683,-0.038307227,6.694188,0.026103757,-0.025721407,0.0011487758,32.0,0.7256041,-0.0042707017,0.6880991,-0.00466007,-0.0025803023,-0.013552189,-0.28225362,-0.27498513,-0.6531621,2016-12-03 09:45:16,52.920319881394946
7.1251445,-0.095768064,6.6750345,0.06678223,-0.00166537,0.0035103767,32.0,0.72471505,-0.0062347245,0.68902045,0.0051018,0.003135546,-0.008694053,-0.28378788,-0.2748638,-0.6533809,2016-12-03 09:45:17,54.180196614433854
7.029376,-0.08619126,6.799533,-0.09168908,0.01705354,-0.0047052656,30.0,0.7228872,-0.0037854626,0.69095576,-0.0014435053,-0.0017524599,0.010430694,-0.2811586,-0.276155,-0.65245336,2016-12-03 09:45:18,67.32471372805404
7.0964136,-0.06703765,6.7229185,0.020359179,1.5058555E-4,0.0010659845,32.0,0.72237444,-0.00848146,0.6914501,-0.0068674684,7.039774E-4,-0.0017146468,-0.28248876,-0.2733343,-0.65404063,2016-12-03 09:45:19,65.74568414884622
7.029376,-0.02873042,6.6271505,0.06304048,0.027835086,0.0040070815,32.0,0.723055,-0.007686609,0.6907476,0.0011006594,-0.0010212883,1.18136406E-4,-0.28304955,-0.2744138,-0.6535419,2016-12-03 09:45:20,60.779411710208755
7.07726,-0.10534488,6.751649,-0.08406623,-0.0023735187,-0.0044724992,32.0,0.72516084,-0.0070678117,0.68854326,-0.0029193163,-0.0026090238,3.2550097E-4,-0.28343827,-0.27418694,-0.653711,2016-12-03 09:45:21,52.16211721896815
7.07726,-0.019153614,6.7708025,-0.09345496,0.012298606,-0.0048655653,32.0,0.72557235,-0.0062980964,0.6881171,-0.004460275,-0.0051066224,-0.014721453,-0.28264797,-0.27607238,-0.6526594,2016-12-03 09:45:22,51.950561665309046
7.1347213,-0.11492168,6.6175733,0.051094256,-0.026746979,0.0025706517,32.0,0.7249655,-0.010019839,0.68871224,-0.0039405823,-7.986622E-4,-0.004479587,-0.28417718,-0.2722929,-0.6547746,2016-12-03 09:45:23,48.26266843714991
7.1251445,-0.11492168,6.6846113,-0.11006657,-0.028618583,-0.00628819,32.0,0.7281315,-0.0071893767,0.68539983,-0.0051219463,2.8097164E-4,0.0017344952,-0.2825994,-0.274275,-0.6535931,2016-12-03 09:45:24,60.61857739845925
7.038953,-0.019153614,6.742072,-0.058172964,-0.0035608755,-0.0031126002,32.0,0.7251232,-0.00875451,0.68856347,-1.6027689E-4,-0.0010109218,-0.009246409,-0.28338683,-0.27444038,-0.65358186,2016-12-03 09:45:25,63.48989739570534
7.0485296,-0.11492168,6.694188,-0.03252352,-0.049378917,-0.002849788,32.0,0.72570187,-0.007479493,0.6879687,2.105236E-4,-5.112863E-4,-0.004714966,-0.28318137,-0.2741731,-0.6536986,2016-12-03 09:45:26,60.23836003104889
7.0964136,-0.02873042,6.751649,-0.0021999376,-0.04201827,-5.899451E-4,32.0,0.7285783,-0.00945139,0.68489724,-0.011146486,0.0017776098,0.0068220496,-0.28438932,-0.2744433,-0.65367895,2016-12-03 09:45:27,54.54503808135749
7.0581064,-0.10534488,6.7133417,0.13867587,0.005069483,0.007372232,32.0,0.72619194,-0.0077388287,0.68744844,-0.0021573901,0.005594228,-0.008184731,-0.2846281,-0.27492008,-0.65343446,2016-12-03 09:45:28,47.30311619125602
7.067683,-0.076614454,6.789956,-0.035966966,-0.027321087,-0.0023617211,32.0,0.7262345,-0.0066885687,0.6874146,-2.988577E-4,-8.99612E-4,-0.0022266507,-0.2818772,-0.2748926,-0.6531702,2016-12-03 09:45:29,56.749407483576476
7.0581064,-0.05746084,6.703765,0.061583374,0.023126092,0.0033970142,32.0,0.72416586,-0.007299462,0.68958724,-0.0020061135,0.0031994893,0.0013191104,-0.2825485,-0.27404496,-0.65368015,2016-12-03 09:45:30,51.74944021981959
7.0006456,-0.06703765,6.7324953,-0.060725443,-0.0020922038,-0.0032946172,32.0,0.726323,-0.008434856,0.6873018,-0.011858702,0.0015462069,-4.3219328E-4,-0.28391582,-0.27491876,-0.653367,2016-12-03 09:45:31,56.724863795837095
7.0581064,-0.047884032,6.7229185,0.013304223,-0.0021680617,6.7042676E-4,32.0,0.72363585,-0.00569416,0.6901585,-0.005499065,7.4649835E-4,-0.007926106,-0.28100932,-0.27518103,-0.6529415,2016-12-03 09:45:32,64.73306239500909
7.1059904,-0.02873042,6.7324953,0.1939607,-0.022652462,0.009681822,32.0,0.7272811,-0.009739399,0.6862706,-0.0022085905,0.0064263665,7.4356794E-4,-0.28526783,-0.27319148,-0.6543883,2016-12-03 09:45:33,63.517534158646434
7.0964136,-0.06703765,6.7324953,-0.04678777,-0.0050315172,-0.0026090357,32.0,0.72284204,-0.0066548362,0.69098127,0.0012196898,7.3672365E-4,-0.004904747,-0.2827006,-0.27343178,-0.6540136,2016-12-03 09:45:34,31.952133215866972
7.1155677,-0.076614454,6.742072,0.012140768,-0.035239838,-4.1534737E-4,32.0,0.729732,-0.008516785,0.68368024,-0.0036779642,7.999465E-4,0.0043135285,-0.28548083,-0.27540368,-0.65327054,2016-12-03 09:45:35,60.42446757000616
7.07726,-0.11492168,6.7229185,0.02210274,0.00782722,0.0012774605,32.0,0.7237103,-0.0038649032,0.69009304,0.0023230314,-0.0030225762,-0.002079606,-0.2819043,-0.27532747,-0.65295565,2016-12-03 09:45:36,43.78898761808547
7.1730285,-0.05746084,6.7133417,-0.02340805,-0.029326525,-0.001998647,32.0,0.7261408,-0.005162545,0.6875266,-0.0012322068,2.8467085E-4,-0.0032655597,-0.2827786,-0.27517706,-0.65312165,2016-12-03 09:45:37,63.706957809100366
7.0485296,-0.06703765,6.7324953,-0.017861577,0.015775688,-8.866938E-4,32.0,0.7226263,-0.0068335664,0.69120514,3.9362907E-4,-9.2349574E-4,-0.010923326,-0.28289622,-0.27329004,-0.65410453,2016-12-03 09:45:38,59.01021530060493
7.1059904,-0.076614454,6.7612257,-0.05811344,0.0490167,-0.003983989,32.0,0.72454035,-0.0047127684,0.68921626,-0.0032209754,-0.002981408,0.0025262237,-0.28269333,-0.27529046,-0.6530462,2016-12-03 09:45:39,43.547208955704875
7.07726,-0.095768064,6.7133417,0.012684748,-0.018694725,3.9648564E-4,32.0,0.727423,-0.005820891,0.6861646,-3.2103062E-4,0.0010317597,0.0027307272,-0.28297383,-0.27595583,-0.65272695,2016-12-03 09:45:40,61.26093489430098
7.0485296,-0.076614454,6.6846113,-0.18358165,5.84658E-4,-0.009800242,32.0,0.7213482,-0.0048913127,0.6925552,-0.0021674037,-0.0075714523,-0.005504966,-0.282726,-0.27169317,-0.6589093,2016-12-03 09:45:41,62.66541856890241
7.1155677,-0.038307227,6.7612257,-0.04570608,-0.0049986243,-0.0025605336,32.0,0.72448415,-0.0075078583,0.6892506,0.0033545494,6.384109E-4,-0.0030347705,-0.28550136,-0.2717764,-0.65914524,2016-12-03 09:45:42,57.69378634004688
7.038953,-0.06703765,6.7229185,0.04665018,-0.0025879585,0.0024042137,32.0,0.7257582,-0.0058979453,0.68792456,-0.0026279688,9.340141E-5,-0.0038490891,-0.28267223,-0.275812,-0.6527955,2016-12-03 09:45:43,49.38010748790008
7.1155677,-0.02873042,6.751649,0.13042654,0.0041658077,0.006911555,32.0,0.72456133,-0.005651247,0.68918717,-0.0023891926,-1.5971204E-4,-0.0041547418,-0.28285944,-0.27444762,-0.6535277,2016-12-03 09:45:44,46.61730281617327
7.07726,-0.08619126,6.6367273,-0.053361997,0.011438312,-0.0027828715,32.0,0.72858804,-0.0060449126,0.6849255,-0.007304549,-0.0036504297,1.2814999E-5,-0.2847615,-0.27654743,-0.65260136,2016-12-03 09:45:45,64.03359823590043
7.0964136,-0.076614454,6.694188,0.08701489,0.0022429079,0.0045870137,32.0,0.72554386,-0.005759105,0.68815184,-0.004184544,-7.55107E-5,-3.6138296E-4,-0.28210747,-0.27574077,-0.65275717,2016-12-03 09:45:46,50.92955458617431
7.029376,-0.019153614,6.7133417,-0.008530661,-0.023015723,-8.7045564E-4,32.0,0.72618586,-0.0067095566,0.68746567,-0.0041644573,0.001775689,-0.009115517,-0.28300816,-0.2751147,-0.6531726,2016-12-03 09:45:47,48.922568412268205
7.0485296,-0.076614454,6.655881,0.005941091,-0.009828683,1.2193801E-4,32.0,0.72480994,-0.008083061,0.6889014,0.0040453672,0.00425034,-0.0046801567,-0.28281203,-0.2743488,-0.6535479,2016-12-03 09:45:48,50.45341571213623
7.0485296,-0.047884032,6.742072,-0.0104600545,-0.012842858,-8.1712345E-4,30.0,0.7262373,-0.006556106,0.68741286,-0.0059221983,-0.0030030385,0.0014271736,-0.28268513,-0.2758348,-0.65275985,2016-12-03 09:45:49,39.38614153946154
7.0964136,-0.038307227,6.742072,0.09186438,-0.0038446523,0.0047294335,32.0,0.7263154,-0.0091550285,0.6873007,-0.006198108,0.003072382,-0.0060744286,-0.28501368,-0.27427903,-0.6538017,2016-12-03 09:45:50,48.92483066786134
7.1059904,-0.095768064,6.7133417,0.1543397,0.013702417,0.008362104,32.0,0.7257661,-0.01157665,0.68784416,-0.004420221,0.004669818,0.0058224797,-0.28537914,-0.2721835,-0.6549245,2016-12-03 09:45:51,31.360682395135836
7.067683,-0.076614454,6.742072,0.012493553,-0.008262352,5.684356E-4,32.0,0.72353405,-0.0058388473,0.690264,0.0015476346,-0.002866678,0.001632452,-0.2816873,-0.2742098,-0.65350324,2016-12-03 09:45:52,42.79513807719475
7.0006456,-0.095768064,6.742072,-0.07093346,0.008714601,-0.0037156048,32.0,0.7260135,-0.0069904234,0.6876449,-0.0059179664,-0.0017385338,-0.0073694587,-0.2831423,-0.27521086,-0.653137,2016-12-03 09:45:53,51.064866815957544
7.086837,-0.076614454,6.7708025,-0.04903647,-0.01772393,-0.002890306,32.0,0.7267169,-0.0071847844,0.6868995,-5.310774E-5,-7.914924E-4,-0.011223912,-0.2838789,-0.27460566,-0.6535216,2016-12-03 09:45:54,55.58102462442918
7.038953,-0.095768064,6.694188,-0.0014186581,-0.028898887,-4.196797E-4,32.0,0.7244841,-0.0069161924,0.6892568,-0.0025043488,-7.463824E-4,-0.0030437112,-0.2832507,-0.27439478,-0.6535663,2016-12-03 09:45:55,55.18008844739684
7.0964136,-0.047884032,6.6367273,0.08084676,-0.011594596,0.0040716394,32.0,0.7260701,-0.0064272815,0.6875907,-0.0058116913,5.567339E-4,0.0013070703,-0.28372926,-0.27459636,-0.65351176,2016-12-03 09:45:57,63.37567560996406
7.038953,-0.10534488,6.751649,-0.055506013,-0.015580633,-0.0030343793,32.0,0.72595364,-0.009218764,0.68768185,-0.007737577,-0.001534394,0.0013087392,-0.28397903,-0.27441952,-0.65363145,2016-12-03 09:45:58,54.04930620587991
7.067683,-0.095768064,6.694188,-0.07799663,-0.017600046,-0.0042542415,32.0,0.7245641,-0.0071293423,0.68917054,-0.0054016113,-0.0036858898,-0.0060117245,-0.28292018,-0.27381685,-0.65383416,2016-12-03 09:45:59,64.71840311663954
7.0102224,-0.038307227,6.789956,0.121104755,0.007537365,0.006465031,32.0,0.72266245,-0.0077903396,0.6911573,-0.0043959618,0.0017994018,-0.005152881,-0.28298876,-0.27355772,-0.65397686,2016-12-03 09:46:00,56.92793229276418
7.0485296,0.009576807,6.6175733,0.06424179,-0.0042229155,0.0033132033,32.0,0.7229957,-0.0057378234,0.69082874,-8.5675716E-4,-0.006933356,-0.0038072467,-0.2821125,-0.2733768,-0.6539928,2016-12-03 09:46:01,54.77929107943582
7.07726,-0.095768064,6.7133417,-0.04280035,-0.002679207,-0.0023461566,32.0,0.7266721,-0.0054949173,0.68696254,4.1133165E-4,-4.0428434E-4,-0.0058663487,-0.28367904,-0.2764162,-0.65258056,2016-12-03 09:46:02,58.16557620235801
7.1155677,0.0,6.655881,-0.016693842,-0.018140962,-0.0013025104,32.0,0.7276634,-0.007968508,0.6858881,-0.0018136501,1.21769495E-4,-0.013314903,-0.2844742,-0.2748885,-0.6534478,2016-12-03 09:46:03,44.950989747679856
7.0964136,-0.08619126,6.7324953,-0.25770518,-0.010168303,-0.0136734955,32.0,0.72356546,-0.007906102,0.69021046,-0.0015153289,-6.401902E-4,-0.006024897,-0.28217518,-0.27410784,-0.65361047,2016-12-03 09:46:04,61.5482598872199
7.038953,-0.05746084,6.751649,-0.0072790114,0.024905378,-9.0081274E-5,32.0,0.72202533,-0.006551972,0.6918356,-0.018122137,6.614127E-4,-0.007114947,-0.28157607,-0.27409708,-0.65356064,2016-12-03 09:46:05,29.33420847859212
7.0581064,0.009576807,6.7324953,-0.037622903,-0.021059629,-0.0025810497,32.0,0.72803557,-0.008989072,0.6854804,-0.005830884,0.0022278018,0.0034268498,-0.2837245,-0.27494267,-0.65333134,2016-12-03 09:46:06,58.23795212386702
7.086837,-0.10534488,6.8091097,-0.010847961,0.030961284,2.9656323E-5,32.0,0.7248176,-0.0076481607,0.68889844,-0.0015944242,8.74307E-4,-3.4451485E-5,-0.28374264,-0.27470452,-0.6534571,2016-12-03 09:46:07,35.222727533238626
7.0102224,-0.05746084,6.742072,-0.03705169,0.008675999,-0.001800098,32.0,0.7234195,-0.008700504,0.6903539,-0.0014095902,0.0036662738,-0.01297152,-0.28323397,-0.273476,-0.65403795,2016-12-03 09:46:08,54.706941574691925
7.07726,-0.08619126,6.7229185,-0.068060294,0.01333063,-0.0033158537,32.0,0.7293968,-0.0074778176,0.68404996,-0.0023527145,-0.004170272,-9.5641613E-4,-0.28607523,-0.27605608,-0.65298414,2016-12-03 09:46:09,39.73542314597271
7.0006456,-0.10534488,6.751649,0.037084028,0.033888534,0.002543373,32.0,0.7246672,-0.00527677,0.6890788,-0.004364431,-0.0025526788,-0.008045375,-0.28339866,-0.27541733,-0.6530549,2016-12-03 09:46:10,39.03674420859409
7.0485296,-0.06703765,6.7612257,0.07271605,0.0040902067,0.0038592427,32.0,0.7244445,-0.0053847814,0.6893121,-0.007161796,0.0015089246,-0.008185327,-0.28230184,-0.2752877,-0.6530116,2016-12-03 09:46:11,54.19022878767011
7.029376,-0.11492168,6.7133417,-0.04009203,0.011031422,-0.0019781208,32.0,0.7258861,-0.0098999115,0.6877436,-0.0046802163,-0.0026837643,-0.0076076984,-0.28483742,-0.27425987,-0.6537969,2016-12-03 09:46:12,58.04125849057357
7.0581064,-0.10534488,6.7229185,0.06144108,-0.008173323,0.0030539169,32.0,0.7273426,-0.0056492835,0.6862513,-0.008097768,-2.904022E-4,-0.0012245178,-0.28398442,-0.2755852,-0.6530204,2016-12-03 09:46:13,58.695049727294034
7.1059904,-0.1340753,6.7803793,0.073535234,-0.00850153,0.0038223614,32.0,0.7248266,-0.006399676,0.68890166,-0.0037503242,0.004197728,-0.0037471056,-0.2826415,-0.2746335,-0.6533824,2016-12-03 09:46:14,65.92345328031517
6.991069,-0.076614454,6.655881,0.061795793,0.024926858,0.003809547,32.0,0.7216056,-0.006781504,0.6922711,-0.003317833,0.002945866,-0.0023779273,-0.28175125,-0.2748323,-0.6531904,2016-12-03 09:46:15,32.2299431771591
7.0964136,-0.047884032,6.7133417,-0.07250363,0.002294064,-0.003751173,32.0,0.72550696,-0.006558212,0.68818355,-0.0061672926,-0.0030567516,0.0035858154,-0.2833274,-0.27541423,-0.6530414,2016-12-03 09:46:16,63.56485363910124
7.0581064,-0.076614454,6.703765,-0.02361463,-0.009220176,-0.0013781806,32.0,0.72485024,-0.0070194276,0.68887067,-7.555485E-4,2.3885071E-4,-0.0038045645,-0.2824766,-0.27547973,-0.652928,2016-12-03 09:46:17,35.280624763577784
7.086837,-0.076614454,6.7612257,-0.050844636,-0.0047388365,-0.0027196067,29.0,0.7235847,-0.0049627163,0.69021773,-0.0014047027,-8.664266E-4,0.0016467571,-0.2810816,-0.27547988,-0.6527959,2016-12-03 09:46:18,65.01418936321247
7.0006456,-0.05746084,6.703765,0.02083507,0.009737975,0.0013350028,29.0,0.7265703,-0.0061597833,0.6870645,-0.011257172,0.0020953994,-0.0020144582,-0.2839407,-0.2750814,-0.6532823,2016-12-03 09:46:19,66.80578068609591
7.029376,-0.047884032,6.7324953,-0.15929374,-0.027991144,-0.008951661,32.0,0.7232112,-0.0057561817,0.69060284,-0.0041669607,-0.0019239532,-0.012204826,-0.28037253,-0.27423683,-0.65336335,2016-12-03 09:46:20,48.77585908155461
7.07726,-0.12449849,6.694188,-0.029696383,-0.04323829,-0.002475871,33.0,0.722692,-0.0087984605,0.6911142,0.0012367368,0.0020021778,-0.0058746934,-0.28144068,-0.2728908,-0.65416515,2016-12-03 09:46:21,64.15362998353254
7.1347213,-0.06703765,6.703765,-0.07513329,0.025980728,-0.003614713,32.0,0.72352874,-0.009086765,0.6902344,-0.00526917,0.002293989,-0.009106934,-0.28359517,-0.27480453,-0.6533941,2016-12-03 09:46:22,53.72761821836236
7.086837,-0.095768064,6.6079965,-0.030819327,-0.015393108,-0.0017192194,32.0,0.7265166,-0.0070425225,0.6871128,-0.0064182878,-0.0015628831,-0.01074779,-0.28399894,-0.27484053,-0.6534137,2016-12-03 09:46:23,42.22834293299822
7.086837,-0.05746084,6.7324953,0.09252118,-0.0010286178,0.004838662,33.0,0.7269661,-0.0049926825,0.68665516,-0.0036219358,9.517702E-4,0.001101315,-0.28348327,-0.27620685,-0.6526464,2016-12-03 09:46:24,59.642399220460945
7.1347213,-0.06703765,6.646304,0.066469386,0.036076687,0.0047277506,33.0,0.7253242,-0.010040611,0.6883342,-0.004804313,0.004059475,0.011035979,-0.28471676,-0.27377442,-0.65403837,2016-12-03 09:46:25,55.593665942795724
7.029376,-0.047884032,6.751649,0.021828718,-0.015668582,6.416718E-4,32.0,0.72764856,-0.0060834237,0.6859231,-0.0036227703,0.0050263647,-7.849932E-4,-0.28303987,-0.27625555,-0.65257925,2016-12-03 09:46:26,59.81653315121318
7.0485296,-0.095768064,6.742072,-0.1488531,-0.030056383,-0.008425607,33.0,0.7229344,-0.006664342,0.6908846,-0.0028072,-0.00497406,-0.0018482208,-0.2824043,-0.27330497,-0.6540506,2016-12-03 09:46:27,48.02837012546931
7.153875,-0.038307227,6.703765,0.13081485,-0.0227821,0.0065119076,33.0,0.7285799,-0.0063060983,0.6849318,-0.0033990145,2.6869494E-4,0.006857097,-0.28361234,-0.2756765,-0.6529382,2016-12-03 09:46:28,65.88979694670184
7.038953,-0.009576807,6.703765,-0.007256709,0.011604654,-1.1650531E-4,33.0,0.72538674,-0.004268733,0.6883283,-0.008925736,-0.0025799042,4.5204163E-4,-0.28287083,-0.27573165,-0.6528422,2016-12-03 09:46:29,59.946227608955205
7.0485296,-0.047884032,6.7324953,-0.088842824,0.01471721,-0.004215375,33.0,0.7261914,-0.0055701905,0.6874701,-0.004879713,-0.005122028,-0.001583755,-0.28521976,-0.274591,-0.65627617,2016-12-03 09:46:30,59.03662195474279
7.0581064,-0.05746084,6.694188,0.020803355,-0.0069269165,0.0012298347,33.0,0.7215079,-0.0061596143,0.6923788,-0.008256733,4.3280562E-4,-0.014054894,-0.28084382,-0.27381492,-0.65381414,2016-12-03 09:46:31,47.050883470541294
7.07726,-0.08619126,6.694188,-0.07178433,-0.018612819,-0.004309082,33.0,0.7241356,-0.0067986525,0.68962413,0.0017512441,-9.4158854E-4,-0.0073190928,-0.28238204,-0.27398658,-0.65371644,2016-12-03 09:46:32,66.20749482779286
7.0581064,-0.095768064,6.703765,0.04542727,-0.008468065,0.0022799897,33.0,0.7229663,-0.006175628,0.69085574,-0.0028235316,0.0030960892,-0.004769504,-0.2816014,-0.27375615,-0.6537554,2016-12-03 09:46:33,58.02906502499452
7.086837,-0.05746084,6.751649,0.07482612,-0.010931448,0.004069998,33.0,0.726434,-0.005642813,0.68721306,-0.00501889,-3.587706E-4,0.0073572397,-0.2835045,-0.2757037,-0.6529389,2016-12-03 09:46:34,54.31211020462058
7.07726,-0.076614454,6.7612257,0.085027,0.0074632214,0.004667255,33.0,0.72349024,-0.0094628045,0.6902697,-0.0012499094,0.004493655,-0.0033559203,-0.28381982,-0.27311707,-0.65431106,2016-12-03 09:46:35,46.44810108463251
7.0581064,-0.05746084,6.7324953,-0.031139355,-0.01573059,-0.0019696401,32.0,0.72494733,-0.0077130697,0.6887611,2.5451183E-5,-0.00766166,-0.0026109219,-0.2828938,-0.274114,-0.653705,2016-12-03 09:46:36,34.01876725377066
7.086837,-0.05746084,6.694188,-0.059692293,-0.005577666,-0.0031856522,33.0,0.7259015,-0.005203087,0.68777895,-0.004648149,-0.00547576,-0.0037854314,-0.2827555,-0.2757809,-0.652824,2016-12-03 09:46:37,59.33037956563409
7.029376,-0.06703765,6.7133417,-0.046202213,-0.0060249213,-0.0025514374,33.0,0.72467166,-0.008959429,0.689036,-0.0044457912,0.0021939538,0.0047833323,-0.28292567,-0.27446654,-0.65350085,2016-12-03 09:46:38,61.25480871256925
7.1155677,-0.06703765,6.742072,-0.16116829,0.0028788494,-0.06863529,33.0,0.7259665,-0.0065899864,0.6876985,2.8556585E-4,-1.9060029E-4,8.529425E-5,-0.28390512,-0.27463004,-0.6542995,2016-12-03 09:46:39,55.40308051571189
7.029376,-0.06703765,6.646304,0.03986538,-0.007021888,0.0019097392,35.0,0.72536874,-0.0069263303,0.68832564,-0.0031574368,0.0020208154,-0.0023579001,-0.2849067,-0.27235168,-0.6587274,2016-12-03 09:46:40,46.214074370364465
7.029376,-0.05746084,6.7229185,0.04965718,0.0012566105,0.002867662,35.0,0.72445357,-0.004527495,0.68930876,-0.004177332,-3.3267215E-4,-0.0053153634,-0.28478143,-0.27217618,-0.65880626,2016-12-03 09:46:41,30.702780481919397
7.1155677,-0.076614454,6.7708025,0.08334984,-0.0060449387,0.025388006,35.0,0.7240603,-0.0060391193,0.6897102,0.0019890666,-0.0018536318,0.0012176633,-0.28501162,-0.27180374,-0.65899545,2016-12-03 09:46:42,33.32222942520498
7.0964136,-0.06703765,6.703765,5.119541E-4,-0.01831834,-1.6873656E-4,35.0,0.72407067,-0.0060061733,0.6896997,-2.0474195E-4,0.0019074241,-0.0024411082,-0.28184032,-0.27404395,-0.65361273,2016-12-03 09:46:43,30.375202861241355
7.0581064,-0.095768064,6.655881,-0.062013555,-0.0067706723,-0.0034196058,35.0,0.7290144,-0.008276351,0.68444836,-0.0086939335,-0.0013622725,-0.005387664,-0.28471497,-0.2765088,-0.6526105,2016-12-03 09:46:44,65.67911780730464
7.07726,-0.02873042,6.694188,-0.009727591,0.006658556,-3.5318575E-4,35.0,0.72624856,-0.010859016,0.68734646,-0.008777738,0.0048222113,0.0023736954,-0.28514466,-0.27411073,-0.6539038,2016-12-03 09:46:45,30.857742955112414
6.9719152,-0.05746084,6.7229185,-0.1202675,0.014986831,-0.006218335,35.0,0.72481865,-0.005607103,0.6889169,-0.013261378,-2.4262723E-4,-0.0030492544,-0.2824734,-0.27593622,-0.65268266,2016-12-03 09:46:46,51.60403728517405
7.038953,-0.1340753,6.7612257,-0.046906505,0.014854338,-0.0021317005,33.0,0.72896236,-0.006021546,0.6845272,-0.0068147182,0.0021222625,0.0024852753,-0.2831463,-0.2768677,-0.65227187,2016-12-03 09:46:47,66.01701547107486
7.0485296,-0.05746084,6.742072,-0.004242383,-0.0030819254,-2.630213E-4,33.0,0.72526085,-0.0062026596,0.6884462,-0.0060527325,0.0032578707,-0.0063120723,-0.28267258,-0.27501503,-0.65319234,2016-12-03 09:46:48,62.861550378115645
7.0964136,-0.047884032,6.7133417,-0.037715968,-9.6652075E-5,-0.0022023611,33.0,0.7228227,-0.0042332103,0.6910205,0.001182437,0.0011841129,-0.0019533038,-0.2810515,-0.27512464,-0.65297353,2016-12-03 09:46:49,57.41590523771292
7.029376,-0.047884032,6.799533,0.014340054,-0.0049699,7.9972885E-4,35.0,0.72223204,-0.006604427,0.6916193,7.0637465E-4,-1.0986999E-4,-0.011251926,-0.28150684,-0.27358264,-0.65381587,2016-12-03 09:46:50,54.34297301912551
