ACC_X,ACC_Y,ACC_Z,GYRO_X,GYRO_Y,GYRO_Z,LIGH_1,GRAV_X,GRAV_Y,GRAV_Z,LINACC_X,LINACC_Y,LINACC_Z,ROTVEC_X,ROTVEC_Y,ROTVEC_Z,TIME,VOICE
-0.45010993,-1.5131354,10.247183,0.02076942,0.5900958,0.037873644,23.0,-0.8427,-2.6367,9.4078,1.0418,1.0991,2.4606,-0.036793,0.137762,-0.833113,2017-04-08 16:45:25,32.01895321120332
-0.095768064,-1.5801731,10.084377,0.028099801,0.0012217305,0.0061086523,32.0,1.583,-1.0453,9.6214,-1.7136999,-0.51519996,0.1721,-0.077961996,-0.05802,-0.338838,2017-04-08 16:45:26,47.80661697242706
-0.2777274,-1.3599066,10.0269165,0.065973446,0.08674286,0.02443461,10.0,0.3181,-1.2348,9.7233,-0.47379997,-0.0264,0.0674,-0.064385,-0.009988,-0.097897,2017-04-08 16:45:27,71.07956863546673
-0.16280572,-1.4556746,10.1226845,0.030543262,0.002443461,0.0061086523,32.0,0.048899997,-1.4176999,9.7035,-0.1875,0.024,0.1565,-0.071281,-0.013346,0.149642,2017-04-08 16:45:28,76.20112029878813
-0.18195933,-1.4556746,10.093954,0.03176499,0.002443461,0.007330383,32.0,-0.110599995,-1.3912,9.7067995,-0.0614,-0.0047999998,0.0082,-0.070869,-0.008161,0.192306,2017-04-08 16:45:29,77.70746532612112
-0.18195933,-1.4652514,10.093954,0.029321533,0.0036651916,0.0061086523,32.0,-0.1485,-1.3909999,9.7063,-0.0022,-0.0037,0.0093,-0.07117,-0.006966,0.202041,2017-04-08 16:45:30,49.07058980664061
-0.17238252,-1.436521,10.036493,0.030543262,0.002443461,0.0061086523,32.0,-0.16129999,-1.3808,9.7076,0.0208,-0.033999998,0.0276,-0.070784,-0.006261,0.20262,2017-04-08 16:45:31,62.24490627583886
-0.18195933,-1.4556746,10.1226845,0.029321533,0.0036651916,0.0061086523,32.0,-0.16229999,-1.3807,9.7076,0.012,-0.0046,-0.0016999999,-0.070813,-0.005932,0.198783,2017-04-08 16:45:32,70.71227556746938
-0.17238252,-1.4460979,10.113108,0.030543262,0.0036651916,0.0061086523,32.0,-0.1595,-1.3829,9.7073,-2.9999999E-4,-0.019399999,0.0095999995,-0.070908,-0.005949,0.19679,2017-04-08 16:45:33,67.92484200567579
-0.16280572,-1.4460979,10.1226845,0.029321533,0.0012217305,0.0061086523,32.0,-0.1621,-1.38,9.7077,0.0016,-0.012999999,-0.0202,-0.070778,-0.005568,0.193322,2017-04-08 16:45:34,62.480475439951064
-0.17238252,-1.4556746,10.0748005,0.028099801,0.0036651916,0.0061086523,32.0,-0.15689999,-1.3819,9.7074995,0.015999999,-0.0145,0.0173,-0.07084,-0.005976,0.19547,2017-04-08 16:45:35,65.92557428222115
-0.16280572,-1.4556746,10.113108,0.029321533,0.0012217305,0.004886922,32.0,-0.15789999,-1.3903999,9.7062,0.0075,0.0056,0.0175,-0.071278,-0.006025,0.195689,2017-04-08 16:45:36,66.62433089532685
-0.18195933,-1.4556746,10.113108,0.029321533,0.002443461,0.004886922,32.0,-0.16129999,-1.3931,9.7058,0.0011999999,-0.0016,0.0207,-0.071448,-0.005884,0.195698,2017-04-08 16:45:37,57.81578026956839
-0.17238252,-1.4460979,10.1226845,0.030543262,0.002443461,0.0061086523,32.0,-0.1612,-1.3919,9.705999,0.0,-0.0213,0.0613,-0.071397,-0.005769,0.194202,2017-04-08 16:45:38,76.91704895456736
-0.15322891,-1.484405,10.103531,0.030543262,0.002443461,0.007330383,32.0,-0.1616,-1.3834,9.7072,0.011299999,-0.0016,0.0067,-0.070961,-0.005779,0.195834,2017-04-08 16:45:39,71.52266301021159
-0.16280572,-1.436521,10.093954,0.028099801,0.0036651916,0.004886922,32.0,-0.1524,-1.3881999,9.7066,-0.007999999,-0.016099999,0.0072999997,-0.07107,-0.006742,0.202023,2017-04-08 16:45:40,70.88176500063811
-0.17238252,-1.4652514,10.113108,0.030543262,0.0036651916,0.007330383,32.0,-0.16499999,-1.3794999,9.7077,0.0145,-0.018299999,0.0069999998,-0.070782,-0.005796,0.198961,2017-04-08 16:45:41,56.338821869575455
-0.16280572,-1.4460979,10.093954,0.029321533,0.002443461,0.0061086523,32.0,-0.1608,-1.3844999,9.707,-0.038399998,0.010199999,-0.1174,-0.070989996,-0.006036,0.198608,2017-04-08 16:45:42,52.60161851608369
-0.18195933,-1.4460979,10.113108,0.030543262,0.0036651916,0.0061086523,32.0,-0.1636,-1.3845999,9.707,-0.0162,-0.012399999,0.0033999998,-0.071025,-0.005894,0.198626,2017-04-08 16:45:43,75.82714974929534
-0.17238252,-1.4460979,10.0748005,0.029321533,0.002443461,0.0061086523,32.0,-0.1589,-1.3859999,9.7069,0.0084,-0.0198,0.0263,-0.071069,-0.005903,0.195297,2017-04-08 16:45:44,73.46716352585642
-0.20111294,-1.4460979,10.055647,0.029321533,0.0012217305,0.007330383,32.0,-0.1609,-1.3808999,9.7074995,5.9999997E-4,0.0042,-0.013499999,-0.070831,-0.005752,0.195283,2017-04-08 16:45:45,81.21347743191325
-0.18195933,-1.4748282,10.113108,0.028099801,0.0036651916,0.0061086523,32.0,-0.1565,-1.3822,9.707399,-0.0050999997,-0.0414,0.0862,-0.070872,-0.006133,0.196294,2017-04-08 16:45:46,79.37114067194898
-0.16280572,-1.484405,10.1226845,0.029321533,0.0012217305,0.004886922,32.0,-0.1594,-1.3838999,9.7071,-7.0E-4,-0.0208,-0.0016999999,-0.070968,-0.005876,0.195556,2017-04-08 16:45:47,83.63756636308528
-0.16280572,-1.484405,10.103531,0.030543262,0.0036651916,0.007330383,32.0,-0.1647,-1.3799,9.7076,0.0047,-0.024999999,-0.0315,-0.070829,-0.005438,0.193735,2017-04-08 16:45:48,70.54542631817462
-0.15322891,-1.4460979,10.103531,0.030543262,0.002443461,0.0061086523,32.0,-0.1621,-1.3829,9.7072,0.0019999999,-0.0317,-0.0016999999,-0.070932,-0.005847,0.197195,2017-04-08 16:45:49,75.07416200013199
-0.17238252,-1.4556746,10.113108,0.030543262,0.0012217305,0.004886922,32.0,-0.1557,-1.3858,9.7069,-0.0047999998,-0.0313,0.026899999,-0.070988,-0.006479,0.201067,2017-04-08 16:45:50,47.86715584275864
-0.16280572,-1.4652514,10.093954,0.029321533,0.002443461,0.007330383,32.0,-0.1635,-1.3821,9.7073,-0.0066,-0.0158,0.038,-0.070885,-0.006062,0.201191,2017-04-08 16:45:51,72.7803179890388
-0.18195933,-1.436521,10.093954,0.029321533,0.002443461,0.0061086523,32.0,-0.1683,-1.3827,9.7072,0.037499998,-0.0053,0.0382,-0.070976,-0.005675,0.199073,2017-04-08 16:45:52,71.53656378961531
-0.16280572,-1.4556746,10.1226845,0.029321533,0.002443461,0.007330383,32.0,-0.16569999,-1.3842,9.707,0.0044,-0.0036,0.0188,-0.071034,-0.005732,0.19719,2017-04-08 16:45:53,76.21245330298851
-0.18195933,-1.4556746,10.113108,0.028099801,0.002443461,0.004886922,32.0,-0.16139999,-1.3877,9.7066,-0.008599999,0.0011,0.0196,-0.071181,-0.0058,0.195347,2017-04-08 16:45:54,68.26914650949273
-0.17238252,-1.4556746,10.160992,0.028099801,0.0012217305,0.0061086523,32.0,-0.16229999,-1.3822,9.7073,0.0019999999,-0.0242,-0.0694,-0.070907,-0.005735,0.195826,2017-04-08 16:45:55,76.2343384966209
-0.17238252,-1.4748282,10.0748005,0.029321533,0.0012217305,0.0061086523,32.0,-0.1604,-1.3855,9.7069,-0.009699999,-0.0207,-0.0199,-0.071068,-0.005713,0.193766,2017-04-08 16:45:56,80.41906655487848
-0.17238252,-1.4460979,10.113108,0.030543262,0.002443461,0.004886922,32.0,-0.1611,-1.3838999,9.7071,8.0E-4,-0.0028,0.0092,-0.070985,-0.005762,0.195143,2017-04-08 16:45:57,75.13915505400784
-0.15322891,-1.4652514,10.151415,0.029321533,0.002443461,0.004886922,32.0,-0.16049999,-1.3845999,9.707,0.011299999,-0.0034999999,0.0385,-0.07096,-0.005664,0.194412,2017-04-08 16:45:58,74.59563258926113
-0.15322891,-1.4748282,10.160992,0.030543262,0.0012217305,0.007330383,32.0,-0.1647,-1.3841,9.707,0.0142,-0.0233,0.0275,-0.071052,-0.005337,0.191788,2017-04-08 16:45:59,71.4436208572025
-0.17238252,-1.4460979,10.093954,0.028099801,0.0,0.004886922,32.0,-0.15339999,-1.3869,9.7067995,-0.0367,-9.0E-4,-0.089899994,-0.071033,-0.006462,0.199073,2017-04-08 16:46:00,71.42833787755981
-0.16280572,-1.4556746,10.103531,0.029321533,0.0012217305,0.007330383,32.0,-0.1662,-1.3810999,9.707399,0.0058999998,-0.0167,0.027099999,-0.070874,-0.005753,0.198927,2017-04-08 16:46:01,79.18263870489496
-0.17238252,-1.4556746,10.113108,0.029321533,0.002443461,0.0061086523,32.0,-0.1599,-1.3813,9.7074995,-4.9999997E-4,-0.0263,0.017199999,-0.070833,-0.005902,0.196631,2017-04-08 16:46:02,74.55650433013116
-0.16280572,-1.4556746,10.103531,0.029321533,0.0036651916,0.0061086523,32.0,-0.1644,-1.3793,9.7077,0.023699999,-0.028299998,0.0464,-0.070786,-0.005575,0.19552,2017-04-08 16:46:03,63.49456675445296
-0.16280572,-1.4556746,10.084377,0.028099801,0.0036651916,0.007330383,32.0,-0.1654,-1.3830999,9.7072,0.0056,-0.020299999,-0.0015,-0.071,-0.005373,0.192869,2017-04-08 16:46:04,72.69101492200454
-0.17238252,-1.4556746,10.113108,0.029321533,0.0036651916,0.004886922,32.0,-0.16409999,-1.382,9.7073,0.0064,-0.012,-0.0016999999,-0.070937,-0.005258,0.19202399,2017-04-08 16:46:05,60.510989754623154
-0.16280572,-1.4652514,10.103531,0.029321533,0.002443461,0.0061086523,32.0,-0.1612,-1.3835,9.7072,9.0E-4,-0.0224,-0.0032,-0.070971,-0.005722,0.194724,2017-04-08 16:46:06,72.83035022539237
-0.18195933,-1.4556746,10.103531,0.029321533,0.004886922,0.0061086523,32.0,-0.16219999,-1.392,9.7059,0.0023999999,-1.0E-4,-0.0178,-0.071407,-0.005773,0.194949,2017-04-08 16:46:07,59.02364746733852
-0.18195933,-1.4556746,10.093954,0.029321533,0.002443461,0.0061086523,32.0,-0.1651,-1.3878,9.7065,0.0046,-0.0111,0.0277,-0.071229,-0.005525,0.194095,2017-04-08 16:46:08,48.0845987794983
0.9672575,-1.8770541,8.255207,0.3726278,0.27000242,-0.5412266,10.0,1.6317999,-1.0576,9.611899,-0.5804,-0.8993,-0.745,-0.047294,-0.090889,0.362383,2017-04-08 16:46:09,73.15115181909579
-1.0726024,-1.7429788,9.212888,0.11362094,-0.012217305,0.33475417,10.0,0.3251,-0.6511,9.7796,-0.5139,-0.501,-0.5089,-0.023374,-0.028855,0.413663,2017-04-08 16:46:10,67.42238256758571
0.038307227,-0.82360536,10.275913,0.02076942,-0.02321288,0.007330383,17.0,-0.0196,-0.65059996,9.785,0.088999994,-0.109299995,-0.0144,-0.031076,-0.011702,0.38027298,2017-04-08 16:46:11,67.92360105684578
0.02873042,-0.7278373,10.151415,0.028099801,-0.009773844,-0.021991149,23.0,-0.0033999998,-0.68649995,9.782499,0.1899,0.074999996,0.12529999,-0.03265,-0.012685,0.366636,2017-04-08 16:46:12,86.84480905377448
1.1013328,0.36391866,8.561666,0.4166101,-0.12583824,-0.7635816,21.0,-0.666,-1.2451,9.7044,1.7306,1.4979999,-1.6861999,-0.070599,0.01503,0.276982,2017-04-08 16:46:13,68.67487114024898
-0.038307227,-0.82360536,10.247183,0.028099801,0.0036651916,0.007330383,15.0,0.14209999,-0.7051,9.7802,-0.1278,-0.0821,0.0199,-0.033328,-0.015368,0.230927,2017-04-08 16:46:14,55.1694937577735
0.047884032,-0.7374141,10.160992,0.029321533,0.0036651916,0.0061086523,12.0,0.032899998,-0.7084,9.7809,-0.0145,-0.0199,0.0191,-0.034777,-0.009981,0.230829,2017-04-08 16:46:15,77.09712204212201
-0.02873042,-0.60333884,10.084377,0.030543262,0.004886922,0.007330383,15.0,0.0184,-0.69519997,9.781899,-0.0191,0.0251,-0.0995,-0.034293,-0.009101,0.230653,2017-04-08 16:46:16,68.93251256707882
0.02873042,-0.7757214,10.084377,0.030543262,0.0036651916,0.004886922,15.0,0.0150999995,-0.7014,9.7815,-0.0058999998,-0.027099999,0.0578,-0.034642998,-0.009006,0.230478,2017-04-08 16:46:18,71.04608192500565
0.019153614,-0.7469909,10.151415,0.029321533,0.0012217305,0.0061086523,19.0,0.0174,-0.6983,9.7817,-0.0083,-0.0206,0.028099999,-0.034463,-0.009073,0.23022,2017-04-08 16:46:19,55.45854696703934
0.019153614,-0.7374141,10.141838,0.029321533,0.002443461,0.0061086523,15.0,0.0263,-0.71419996,9.780499,0.0021,0.0253,-0.0098,-0.035153,-0.009691,0.229972,2017-04-08 16:46:20,64.12336657130042
0.02873042,-0.7565677,10.160992,0.029321533,0.0012217305,0.004886922,19.0,0.020399999,-0.7037,9.7813,-0.0212,-0.0149,-0.049799997,-0.034703,-0.009271,0.229785,2017-04-08 16:46:21,82.95436154561037
0.038307227,-0.7469909,10.151415,0.028099801,0.002443461,0.004886922,17.0,0.0154,-0.70669997,9.781099,-0.0061999997,0.0,-0.0105,-0.034911,-0.009052,0.229638,2017-04-08 16:46:22,83.07917780298084
0.019153614,-0.7469909,10.151415,0.029321533,0.002443461,0.0061086523,17.0,0.0256,-0.71419996,9.780499,0.0026,0.0079,-0.0099,-0.035167,-0.009642,0.229449,2017-04-08 16:46:23,60.143352520611174
0.02873042,-0.7469909,10.132261,0.028099801,0.002443461,0.0061086523,17.0,0.023699999,-0.7055,9.781199,-0.0050999997,-0.011,-7.0E-4,-0.034755,-0.009437,0.229213,2017-04-08 16:46:24,85.053163638052
0.076614454,-0.8331822,10.333375,0.030543262,0.0036651916,0.004886922,17.0,0.030399999,-0.7274,9.7795,0.1251,-0.3215,1.0011,-0.035772,-0.010019,0.228979,2017-04-08 16:46:25,57.766047567016656
0.009576807,-0.7469909,10.189722,0.030543262,0.0036651916,0.007330383,17.0,0.0262,-0.7094,9.7809,0.021699999,0.032199997,0.087699994,-0.034926,-0.009586,0.228693,2017-04-08 16:46:26,83.73491564692912
0.02873042,-0.7374141,10.160992,0.029321533,0.002443461,0.0061086523,19.0,0.024799999,-0.7137,9.7806,-0.0061999997,-0.0023999999,-0.0099,-0.035161998,-0.009561,0.228554,2017-04-08 16:46:27,80.10929171042818
0.05746084,-0.7469909,10.189722,0.029321533,0.002443461,0.007330383,15.0,0.019399999,-0.7183,9.7802,-4.9999997E-4,0.0317,-0.1273,-0.035455,-0.009338,0.228329,2017-04-08 16:46:28,56.91431685095096
0.02873042,-0.7278373,10.160992,0.029321533,0.002443461,0.0061086523,17.0,0.0173,-0.71419996,9.780499,0.011299999,-0.021499999,-0.0589,-0.035276,-0.009182,0.228148,2017-04-08 16:46:29,68.76296160541051
0.019153614,-0.7565677,10.199299,0.029321533,0.0036651916,0.004886922,17.0,0.019,-0.704,9.7813,0.0095999995,-0.012499999,-9.0E-4,-0.034753,-0.009134,0.227839,2017-04-08 16:46:30,78.89496291282319
0.038307227,-0.7278373,10.132261,0.030543262,0.0012217305,0.0061086523,17.0,0.0212,-0.69979995,9.7816,0.0072,-0.0071,-0.030599998,-0.034517,-0.009185,0.227558,2017-04-08 16:46:31,56.611445406663144
0.08619126,-0.8619126,10.5440645,0.028099801,0.002443461,0.0061086523,15.0,0.0256,-0.7096,9.7809,-0.0267,-0.0067,-0.0396,-0.034959,-0.009508,0.227267,2017-04-08 16:46:32,85.9052622703196
-0.009576807,-0.6799533,10.084377,0.029321533,0.002443461,0.004886922,15.0,0.026999999,-0.7066,9.781099,0.0209,0.029399998,-0.0889,-0.034799,-0.009528,0.226915,2017-04-08 16:46:33,80.13432693959503
0.02873042,-0.7374141,10.160992,0.029321533,0.002443461,0.004886922,17.0,0.020399999,-0.7061,9.781099,0.0081,-0.0201,-0.0105,-0.03485,-0.009186,0.226701,2017-04-08 16:46:34,85.14196918865028
0.02873042,-0.7469909,10.170568,0.029321533,0.002443461,0.004886922,17.0,0.0196,-0.7054,9.781199,-0.0106,-0.0011999999,-0.020399999,-0.034827,-0.009138,0.226579,2017-04-08 16:46:35,60.241188545183206
0.02873042,-0.7374141,10.237606,0.029321533,0.002443461,0.0061086523,17.0,0.018,-0.7071,9.781099,8.0E-4,0.0298,0.0189,-0.034931,-0.00906,0.226198,2017-04-08 16:46:36,71.47771797741174
0.02873042,-0.7565677,10.141838,0.029321533,0.0036651916,0.004886922,17.0,0.019,-0.70559996,9.781199,-2.0E-4,-0.0206,-7.0E-4,-0.034848,-0.009088,0.225967,2017-04-08 16:46:37,75.6862277998706
0.009576807,-0.6991069,10.180145,0.029321533,0.002443461,0.004886922,19.0,0.0157,-0.70949996,9.7809,0.0424,0.0324,-0.039699998,-0.035085,-0.008954,0.225628,2017-04-08 16:46:38,84.68913458178389
0.047884032,-0.7182605,10.170568,0.029321533,0.002443461,0.0061086523,15.0,0.0188,-0.6981,9.7817,-0.0018,-0.0206,0.0286,-0.034839,-0.009147,0.225386,2017-04-08 16:46:39,84.95890529348644
0.019153614,-0.7182605,10.180145,0.029321533,0.002443461,0.004886922,15.0,0.018099999,-0.70089996,9.7815,0.0105,-0.0058999998,-0.0403,-0.034633,-0.008955,0.225064,2017-04-08 16:46:40,69.6338462734991
0.019153614,-0.7374141,10.007763,0.029321533,0.002443461,0.004886922,17.0,0.0176,-0.7104,9.7808,0.0404,-0.035299998,0.0289,-0.035112,-0.009033,0.224807,2017-04-08 16:46:41,77.57509311222987
-0.02873042,-0.6991069,10.084377,0.02565634,-0.02321288,0.009773844,10.0,-0.0049,-0.7335,9.779099,0.0050999997,-0.0112,-0.018199999,-0.036593,-0.007856,0.216306,2017-04-08 16:46:42,83.02287804048393
1.2066777,0.39264908,9.959879,-0.52290064,-0.16615535,-0.19914207,10.0,0.61109996,0.3577,9.781,0.63879997,0.167,0.3622,0.022881,-0.02796,0.15547,2017-04-08 16:46:43,61.387748360442096
0.038307227,-0.641646,10.534488,-0.057421334,0.13194689,0.02076942,15.0,0.2367,-0.6723,9.7807,0.0084999995,0.3173,-0.9515,-0.030397,-0.019966,0.2401,2017-04-08 16:46:44,84.45004690921937
6.885724,0.17238252,6.83784,0.12705997,0.20647246,0.007330383,10.0,7.2812996,0.4509,6.5534997,-0.4292,-0.116299994,-0.27969998,0.097225,-0.395484,0.16279,2017-04-08 16:46:45,63.643034324513714
5.861006,0.5554548,8.0445175,0.05009095,-0.14538592,0.007330383,8.0,5.7461,0.5536,7.9275,-0.1576,0.0629,-0.3033,0.092209,-0.2909,0.19848,2017-04-08 16:46:46,81.37297707187655
7.086837,0.7086837,6.588843,0.040317107,-0.1600467,-0.004886922,10.0,6.9810996,0.7134,6.8501,-0.22459999,-0.036399998,-0.255,0.11754,-0.370032,0.188254,2017-04-08 16:46:47,85.7774074524607
6.703765,0.59376204,7.1730285,-0.010995574,0.18570304,0.015882496,8.0,6.7689,0.63949996,7.067,-0.30769998,0.0109,-0.46109998,0.107621,-0.357908,0.18235,2017-04-08 16:46:48,78.50260344917007
5.8226986,0.80445176,7.1826053,0.112399206,-0.2443461,0.12095132,10.0,6.1017,0.6339,7.6509,0.3081,-0.051799998,-0.2059,0.098786,-0.316463,0.186546,2017-04-08 16:46:49,74.70355605362099
3.323152,0.11492168,9.557653,0.03176499,-0.009773844,0.010995574,12.0,3.1941998,0.097899996,9.271299,-0.0392,0.0058999998,-0.2546,0.043198,-0.159457,0.228587,2017-04-08 16:46:50,51.95444713189093
1.2354081,0.36391866,10.457873,0.111177474,-0.47403142,-0.13072516,10.0,1.1374999,0.37359998,9.7332,-0.056199998,-0.1998,-0.6412,0.027175,-0.037042,0.250623,2017-04-08 16:46:51,69.6457156277972
-0.18195933,-0.17238252,9.624691,-0.72692966,0.70249504,0.008552114,17.0,0.6418,-0.10349999,9.785,-0.1776,-0.2746,0.3482,0.007302,-0.03235,0.372529,2017-04-08 16:46:52,78.95626752917237
0.05746084,-0.7086837,10.151415,0.0036651916,0.05131268,-0.056199603,12.0,-0.0867,-0.5613,9.7901,0.306,0.0154,0.107499994,-0.027766,-0.008276,0.428503,2017-04-08 16:46:53,83.00125625870027
-0.22026655,-0.6799533,10.170568,0.030543262,0.02076942,0.007330383,12.0,0.059899997,-0.6737,9.783199,-0.0526,-0.053799998,-0.0323,-0.030447999,-0.016242,0.390352,2017-04-08 16:46:54,74.60832672155325
0.009576807,-0.79487497,10.936713,0.05009095,0.21502456,0.008552114,15.0,0.0387,-0.6609,9.7842,-0.030499998,0.0014,-0.0726,-0.030677,-0.014138,0.364452,2017-04-08 16:46:55,79.02189002980256
-0.019153614,-0.7086837,10.160992,0.029321533,0.0036651916,0.007330383,12.0,-0.0144,-0.793,9.7745,-0.0046,0.1389,-0.0232,-0.037586,-0.013652,0.359376,2017-04-08 16:46:56,77.37231131225926
-0.02873042,-0.6799533,10.160992,0.028099801,0.0036651916,0.0061086523,12.0,-0.0121,-0.6956,9.781899,-0.0559,0.0457,-0.0083,-0.033263,-0.011639,0.35263,2017-04-08 16:46:57,57.579583018863175
-0.009576807,-0.6991069,10.160992,0.02687807,0.0,0.004886922,12.0,-0.0023,-0.673,9.7835,-0.0072999997,0.0032,-0.0089,-0.032154,-0.011992,0.353352,2017-04-08 16:46:58,65.268053724306
-0.02873042,-0.7086837,10.170568,0.030543262,0.0012217305,0.0061086523,12.0,-0.0061999997,-0.6665,9.783899,-0.0131,-0.0033999998,-0.020499999,-0.031919,-0.011721,0.353268,2017-04-08 16:46:59,66.47165858684262
0.0,-0.7086837,10.180145,0.028099801,0.0036651916,0.004886922,12.0,-0.0423,-0.64269996,9.785399,0.043899998,-0.0287,-0.0018,-0.03136,-0.009818,0.360677,2017-04-08 16:47:00,70.46559240073832
-0.009576807,-0.7182605,10.170568,0.029321533,0.0012217305,0.004886922,12.0,0.0075999997,-1.6916,9.659599,-0.0275,1.0701,-9.9916,-0.079932,-0.033257,0.378564,2017-04-08 16:47:01,60.80226312373103
0.009576807,-0.6799533,10.170568,0.02687807,0.0012217305,0.007330383,12.0,-0.2197,-0.5938,9.786099,0.21679999,-0.0915,0.0071,-0.032154,-0.003182,0.406506,2017-04-08 16:47:02,50.01179442751113
-0.019153614,-0.6991069,10.151415,0.030543262,0.002443461,0.004886922,12.0,0.16939999,-0.6023,9.7866,-0.1856,-0.0802,-0.0030999999,-0.023173,-0.022044,0.486927,2017-04-08 16:47:03,67.2638046888312
-0.019153614,-0.6895301,10.170568,0.029321533,0.0012217305,0.004886922,12.0,0.166,-0.7915,9.7732,-0.1724,0.1355,0.010799999,-0.082286,-0.049783,0.397033,2017-04-08 16:47:04,69.17403388783302
-0.019153614,-0.6991069,10.170568,0.030543262,0.0012217305,0.004886922,12.0,0.0033999998,-0.7937,9.7744,-0.0034999999,0.12789999,0.029099999,-0.038033,-0.015486,0.38233998,2017-04-08 16:47:05,68.57641079924822
-0.009576807,-0.7086837,10.170568,0.029321533,0.002443461,0.0061086523,12.0,-4.0E-4,-0.6856,9.782599,-0.0075,0.0016999999,7.0E-4,-0.031945,-0.013784,0.397777,2017-04-08 16:47:06,46.32104622210791
-0.02873042,-0.6991069,10.151415,0.028099801,0.002443461,0.007330383,12.0,0.038599998,-0.7011,9.7814,-0.046,0.038,0.0018999999,-0.032572,-0.01469,0.361393,2017-04-08 16:47:07,49.59585788291949
-0.009576807,-0.6895301,10.160992,0.030543262,0.002443461,0.004886922,12.0,-0.0196,-0.6638,9.7841,0.021,-0.0154,-0.0101,-0.031569,-0.012303,0.390247,2017-04-08 16:47:08,50.20275155957424
-0.019153614,-0.6799533,10.160992,0.029321533,0.0036651916,0.007330383,12.0,-0.0053,-0.678,9.7831,0.0251,0.0078,0.0103,-0.031687,-0.014006,0.419758,2017-04-08 16:47:09,49.015476663423186
0.0,-0.6991069,10.160992,0.030543262,0.004886922,0.007330383,12.0,-0.5828,-0.408,9.7808,-0.4208,-0.4795,-0.0016999999,-0.032696,-0.015548,0.410675,2017-04-08 16:47:10,79.88533804162574
-0.009576807,-0.6991069,10.170568,0.030543262,0.002443461,0.0061086523,12.0,0.3129,-0.6149,9.7823,-0.31829998,-0.112399995,-0.0023999999,-0.01941,-0.030013,0.470979,2017-04-08 16:47:11,59.65819335297088
-0.047884032,-0.7086837,10.151415,0.029321533,0.004886922,0.0061086523,12.0,0.067099996,-0.7022,9.781199,-0.0696,0.0231,0.0025,-0.03157,-0.017277,0.394193,2017-04-08 16:47:12,51.78045595664975
0.0,-0.6703765,10.113108,0.030543262,0.0,0.007330383,12.0,-0.16929999,-0.9532,9.758699,0.120699994,0.3199,-0.1621,-0.047159,-0.010825,0.373736,2017-04-08 16:47:13,51.223622572759275
0.0,-0.6703765,10.180145,0.029321533,0.010995574,0.009773844,12.0,-0.010799999,-0.7125,9.7807,0.070099995,0.0345,-0.0066,-0.034355,-0.01228,0.358152,2017-04-08 16:47:14,69.7338352464567
-0.05746084,-0.6895301,10.170568,0.028099801,0.0036651916,0.0061086523,12.0,-0.1805,-0.54429996,9.7898,0.0139999995,0.021,-0.0188,-0.032717,-0.01166,0.354086,2017-04-08 16:47:15,54.13786151559357
-0.019153614,-0.6991069,10.170568,0.030543262,0.0036651916,0.0061086523,12.0,0.0197,-0.6987,9.7817,-0.0234,0.0195,0.0019999999,-0.032577,-0.0139419995,0.374184,2017-04-08 16:47:16,39.194632706621036
0.009576807,-0.6991069,10.160992,0.029321533,0.0036651916,0.007330383,12.0,-0.024,-0.6595,9.7844,0.0309,-0.024999999,-0.010799999,-0.031551,-0.011131,0.374893,2017-04-08 16:47:17,39.58583391795177
-0.038307227,-0.7086837,10.141838,0.029321533,0.0012217305,0.0061086523,12.0,0.0585,-1.0397999,9.7511,-0.10789999,0.3789,0.033299997,-0.047451,-0.025775,0.414109,2017-04-08 16:47:18,58.040931554064926
-0.019153614,-0.6991069,10.151415,0.03176499,0.002443461,0.0036651916,10.0,0.0268,-0.74439996,9.778299,-0.0033,0.038599998,-0.0063,-0.033854,-0.014303,0.396379,2017-04-08 16:47:19,49.23101670576187
-0.009576807,-0.7086837,10.141838,0.029321533,0.002443461,0.0061086523,15.0,0.0232,-0.705,9.781199,-0.0311,0.033299997,0.0023,-0.03285,-0.013937,0.36487,2017-04-08 16:47:20,43.487760667739764
-0.02873042,-0.7086837,10.160992,0.029321533,0.002443461,0.007330383,10.0,-0.2437,-0.52349997,9.789599,0.27179998,-0.15259999,-0.025799999,-0.029372,0.001587,0.40455,2017-04-08 16:47:21,55.64233980795214
0.0,-0.6991069,10.1226845,0.028099801,0.002443461,0.004886922,15.0,0.0229,-0.6993,9.7816,-0.019299999,0.0311,-0.027199998,-0.03285,-0.014479,0.376247,2017-04-08 16:47:22,49.15899145036383
-0.095768064,-0.7757214,10.160992,0.029321533,0.0036651916,0.007330383,15.0,0.0687,-0.79179996,9.7743,-0.1292,0.0284,0.0268,-0.034123,-0.019383,0.433897,2017-04-08 16:47:23,53.523151145130434
-0.019153614,-0.6895301,10.189722,0.028099801,0.0036651916,0.0061086523,15.0,0.076799996,-0.7339,9.7788,-0.0797,0.065799996,0.005,-0.033142,-0.017538,0.377662,2017-04-08 16:47:24,49.307655331125716
-0.009576807,-0.6991069,10.160992,0.028099801,0.0012217305,0.004886922,15.0,0.0186,-0.6872,9.782499,-0.0321,0.0105,0.0014,-0.032427,-0.013709,0.36178,2017-04-08 16:47:25,43.62806605929556
-0.047884032,-0.7086837,10.160992,0.029321533,0.004886922,0.004886922,15.0,-0.0030999999,-0.6705,9.7836,0.0028,-0.0184,0.0,-0.032025,-0.012035,0.356049,2017-04-08 16:47:26,43.76801421379348
0.0,-0.6991069,10.160992,0.029321533,0.0061086523,0.0061086523,15.0,-0.086899996,-0.5998,9.7879,0.078999996,-0.0828,0.0058999998,-0.030503,-0.007157,0.347525,2017-04-08 16:47:27,46.40205111620525
-0.019153614,-0.6991069,10.151415,0.028099801,0.0012217305,0.004886922,15.0,-0.0447,-0.6468,9.7851,0.017099999,-0.024899999,-0.011299999,-0.031336,-0.010186,0.378723,2017-04-08 16:47:28,44.65347774307476
-0.019153614,-0.6991069,10.151415,0.030543262,0.002443461,0.007330383,15.0,0.3892,-0.5477,9.7836,-0.394,-0.1281,-4.9999997E-4,-0.016831,-0.029864,0.425469,2017-04-08 16:47:29,45.480978454101006
-0.019153614,-0.7086837,10.160992,0.030543262,0.004886922,0.004886922,15.0,0.101799995,-0.70089996,9.781,-0.1363,0.0363,0.0319,-0.031462,-0.019212,0.366944,2017-04-08 16:47:30,52.26006974330734
-0.038307227,-0.7086837,10.170568,0.02687807,0.002443461,0.007330383,15.0,0.0142,-0.7086,9.781,-0.0756,-0.0014,0.011299999,-0.031757,-0.016623,0.362537,2017-04-08 16:47:31,52.7209148620631
0.0,-0.7086837,10.132261,0.028099801,0.0036651916,0.0061086523,15.0,0.4698,-0.9456,9.749599,-0.45099998,0.26,0.06,-0.02421,-0.046115,0.601703,2017-04-08 16:47:32,41.15075495312372
-0.009576807,-0.6895301,10.160992,0.029321533,0.002443461,0.004886922,15.0,0.3461,-1.0198,9.7473,-0.38939998,0.3619,0.0482,-0.038992,-0.036624,0.425658,2017-04-08 16:47:33,45.28582525833096
-0.02873042,-0.7086837,10.160992,0.029321533,0.002443461,0.004886922,15.0,-0.0011999999,-0.7058,9.781199,0.0016999999,0.034199998,0.0213,-0.032596,-0.014672,0.412973,2017-04-08 16:47:34,45.70682015401431
-0.009576807,-0.7182605,10.151415,0.030543262,0.002443461,0.0036651916,15.0,0.053,-0.7317,9.779099,-0.0536,0.0708,0.0050999997,-0.033578,-0.015942,0.369737,2017-04-08 16:47:35,54.4383261871074
0.009576807,-0.7086837,10.141838,0.029321533,0.004886922,0.0061086523,12.0,0.1654,-0.6437,9.7841,-0.1867,-0.0115,2.0E-4,-0.026682,-0.02108,0.384437,2017-04-08 16:47:36,46.554265677419345
0.009576807,-0.6991069,10.151415,0.030543262,0.0036651916,0.004886922,12.0,0.18689999,-0.6385,9.783999,-0.1937,-0.024699999,0.01,-0.026595,-0.021577,0.361351,2017-04-08 16:47:37,71.859929695832
-0.019153614,-0.7086837,10.151415,0.030543262,0.0,0.0061086523,12.0,0.11009999,-0.64919996,9.7845,-0.114199996,-0.0332,0.019299999,-0.026752,-0.020268,0.45019498,2017-04-08 16:47:38,42.56734729060584
-0.019153614,-0.7086837,10.180145,0.030543262,0.002443461,0.004886922,12.0,0.0861,-0.7333,9.7788,-0.0788,0.046099998,0.0245,-0.032958,-0.017835,0.374968,2017-04-08 16:47:39,43.366792439119315
0.0,-0.7182605,10.141838,0.030543262,0.0036651916,0.004886922,12.0,0.032899998,-0.6974,9.7817,-0.0393,0.0233,2.0E-4,-0.032662,-0.014212,0.355007,2017-04-08 16:47:40,43.76427452518204
-0.038307227,-0.6991069,10.151415,0.029321533,0.002443461,0.0061086523,12.0,0.251,-0.31469998,9.7983,-0.2604,-0.3795,-0.0166,-0.008062,-0.018879,0.473977,2017-04-08 16:47:41,55.16991176881078
0.0,-0.7086837,10.170568,0.029321533,0.002443461,0.004886922,17.0,0.1472,-0.6416,9.7845,-0.1557,-0.028199999,0.028099999,-0.027653,-0.020303,0.383438,2017-04-08 16:47:42,48.97838907076039
0.0,-0.7086837,10.132261,0.028099801,0.002443461,0.0061086523,12.0,0.2436,-0.64449996,9.7824,-0.3193,0.0013,0.0105,-0.025433,-0.024269,0.389678,2017-04-08 16:47:43,51.46045667021288
-0.009576807,-0.6991069,10.170568,0.028099801,0.0036651916,0.0061086523,12.0,0.1715,-0.71349996,9.779099,-0.16849999,0.0178,0.0016999999,-0.030026,-0.021758,0.397459,2017-04-08 16:47:44,40.008101982639
-0.019153614,-0.6991069,10.151415,0.029321533,0.002443461,0.0061086523,12.0,0.0497,-0.703,9.781199,-0.0696,0.0381,0.011299999,-0.032548,-0.015284,0.35988,2017-04-08 16:47:45,58.963671835936665
0.009576807,-0.7086837,10.170568,0.030543262,0.002443461,0.0061086523,12.0,-0.062099997,-0.6297,9.7862,0.059499998,-0.0396,0.0157,-0.031253,-0.008704,0.35356,2017-04-08 16:47:46,43.55578777349817
0.02873042,-0.6991069,10.170568,0.03176499,0.0036651916,0.0061086523,12.0,0.1862,-0.61969995,9.7852,-0.213,-0.081999995,-0.0029,-0.026408,-0.019767,0.360993,2017-04-08 16:47:47,57.926374866431225
-0.009576807,-0.6991069,10.160992,0.028099801,0.0012217305,0.0061086523,12.0,0.092099994,-1.4652,9.696099,-0.145,0.8296,0.0919,-0.064206,-0.029204,0.367323,2017-04-08 16:47:48,57.932085574958606
-0.02873042,-0.6895301,10.160992,0.032986723,0.002443461,0.0061086523,12.0,-0.0949,-0.6759,9.7828,0.098799996,-0.011899999,-0.0277,-0.033299,-0.010188,0.422489,2017-04-08 16:47:49,66.80057474263575
-0.009576807,-0.6991069,10.160992,0.030543262,0.0,0.007330383,15.0,0.1717,-0.6811,9.7814,-0.1643,0.011899999,-0.0077,-0.028551,-0.021661,0.391031,2017-04-08 16:47:50,46.961686563415384
-0.019153614,-0.7182605,10.141838,0.029321533,0.002443461,0.0061086523,17.0,0.0112,-0.6508,9.785,-0.033,-0.0047999998,-0.029,-0.0309,-0.013924,0.379771,2017-04-08 16:47:51,65.0703219184559
0.009576807,-0.7086837,10.170568,0.029321533,0.0012217305,0.007330383,15.0,0.0674,-1.4619,9.696799,-0.110599995,0.9851,0.100999996,-0.075428,-0.037844,0.38842,2017-04-08 16:47:52,64.03286574522211
0.0,-0.7182605,10.160992,0.029321533,0.002443461,0.0061086523,15.0,0.0683,-0.8185,9.7720995,-0.0708,0.1397,0.0011,-0.036906,-0.018613,0.381135,2017-04-08 16:47:53,49.94421561100255
0.009576807,-0.7086837,10.151415,0.029321533,0.002443461,0.0061086523,6.0,0.0104,-1.0482,9.7504,-0.0585,0.40789998,0.0479,-0.047856,-0.019992,0.373117,2017-04-08 16:47:54,55.117967189395536
0.0,-0.6895301,10.160992,0.030543262,0.002443461,0.0061086523,6.0,-0.0367,-0.5467,9.7913,0.033,-0.1845,-0.0106999995,-0.025166,-0.010574,0.454566,2017-04-08 16:47:55,59.87088037469491
-0.019153614,-0.6991069,10.180145,0.029321533,0.0036651916,0.007330383,6.0,0.0554,-0.71889997,9.7801,-0.057499997,0.0308,0.0023,-0.033123,-0.016012,0.364453,2017-04-08 16:47:56,44.73187057358513
-0.019153614,-0.6895301,10.151415,0.029321533,0.0036651916,0.0061086523,6.0,-0.0624,-0.63589996,9.7858,0.040999997,-0.0488,-0.013499999,-0.031958,-0.011875,0.379966,2017-04-08 16:47:57,55.837920861995954
-0.009576807,-0.6991069,10.160992,0.030543262,0.0036651916,0.0061086523,6.0,0.121199995,-0.2737,9.802,-0.12629999,-0.3908,-0.030199999,-0.010239,-0.011428,0.411239,2017-04-08 16:47:58,55.40037813422125
0.0,-0.7086837,10.170568,0.029321533,0.002443461,0.0061086523,4.0,0.0477,-0.6799,9.7829,-0.078999996,0.0,-4.9999997E-4,-0.031493,-0.014744,0.359259,2017-04-08 16:47:59,52.41499412875758
-0.047884032,-0.6895301,10.170568,0.030543262,0.0012217305,0.004886922,4.0,0.0023999999,-0.6969,9.781799,0.023699999,0.0165,4.0E-4,-0.032192,-0.015102,0.421231,2017-04-08 16:48:00,48.77779037511439
-0.009576807,-0.7086837,10.151415,0.028099801,0.0012217305,0.004886922,4.0,0.014699999,-0.689,9.7823,-0.0352,8.0E-4,0.0014,-0.032131,-0.014082,0.385683,2017-04-08 16:48:01,51.53904076029907
-0.009576807,-0.7086837,10.170568,0.029321533,0.0036651916,0.0061086523,6.0,0.0095,-0.6903,9.7823,-0.0149,0.0341,-0.0081,-0.032081,-0.014537,0.399797,2017-04-08 16:48:02,49.07903224321885
-0.009576807,-0.6895301,10.180145,0.030543262,0.0036651916,0.004886922,4.0,0.0298,-0.6982,9.7817,-0.0464,0.024,-0.0072999997,-0.032651998,-0.014877,0.368281,2017-04-08 16:48:03,49.258502525676356
-0.019153614,-0.7086837,10.170568,0.030543262,0.0012217305,0.004886922,4.0,0.0262,-0.7043,9.781199,-0.0273,0.0358,-0.0072,-0.032698,-0.014968,0.381779,2017-04-08 16:48:04,59.34952205453853
-0.019153614,-0.6991069,10.180145,0.030543262,0.004886922,0.0061086523,4.0,0.0128,-0.6856,9.782599,-0.0133,0.0163,0.0011,-0.032447,-0.013077,0.35612,2017-04-08 16:48:05,52.122894274174925
-0.009576807,-0.6895301,10.160992,0.030543262,0.002443461,0.004886922,4.0,0.0128,-0.68119997,9.7829,-0.032899998,0.0112,-4.9999997E-4,-0.03234,-0.01275,0.348921,2017-04-08 16:48:06,58.08128133314102
-0.038307227,-0.7086837,10.170568,0.028099801,0.0036651916,0.008552114,4.0,0.022599999,-0.6981,9.7817,-0.052899998,0.0189,5.9999997E-4,-0.03268,-0.013445,0.360041,2017-04-08 16:48:07,53.38655478897745
-0.02873042,-0.6991069,10.170568,0.028099801,0.0036651916,0.008552114,4.0,0.1779,-0.4847,9.793,-0.1867,-0.195,0.009099999,-0.019779,-0.017391,0.360997,2017-04-08 16:48:08,49.09498061500199
0.02873042,-0.7086837,10.180145,0.03176499,0.013439035,0.007330383,4.0,0.0526,-0.663,9.783999,-0.0624,-0.0267,-0.011399999,-0.030513,-0.015063,0.358918,2017-04-08 16:48:09,41.4805532932425
0.11492168,-0.82360536,10.342952,0.037873644,-0.0061086523,0.002443461,4.0,0.4829,-0.3505,9.7884,-0.5015,-0.3028,0.0033999998,-0.007641,-0.028671,0.409939,2017-04-08 16:48:10,47.391059097882405
-0.019153614,-0.7086837,10.170568,0.030543262,0.0036651916,0.0061086523,6.0,0.0109,-0.578,9.789499,-0.0309,-0.076299995,0.0023,-0.027098,-0.011635,0.376909,2017-04-08 16:48:11,51.25940048429254
-0.23942018,-0.6607997,10.036493,0.0,-0.09773844,0.0,2.0,0.0109,-0.6583,9.7845,-0.031799998,-0.0221,0.0075999997,-0.031088,-0.012748,0.362568,2017-04-08 16:48:12,59.44096390615766
0.0,-0.6895301,10.160992,0.029321533,0.002443461,0.004886922,4.0,-0.0039,-0.6771,9.783199,0.030499998,-0.0116,0.0089,-0.032301,-0.012389,0.359408,2017-04-08 16:48:13,48.241955926977994
0.0,-0.7086837,10.160992,0.029321533,0.0,0.0061086523,6.0,-0.0095,-1.2375,9.7282,-0.0158,0.65099996,0.0381,-0.058787,-0.023273,0.374506,2017-04-08 16:48:14,41.37119873695865
0.0,-0.7086837,10.160992,0.029321533,0.0012217305,0.0061086523,6.0,0.0201,-0.7851,9.7751,-0.0198,0.1125,0.009,-0.036563,-0.015518,0.367649,2017-04-08 16:48:15,55.04006525843753
-0.047884032,-0.7086837,10.180145,0.02687807,0.0036651916,0.0036651916,6.0,-0.0056,-0.67719996,9.783199,0.0058999998,0.015999999,-0.028299998,-0.032206,-0.011908,0.355627,2017-04-08 16:48:16,39.38516702282913
-0.038307227,-0.6991069,10.132261,0.029321533,0.0036651916,0.004886922,6.0,0.0514,-0.8932,9.765699,-0.0424,0.23439999,8.0E-4,-0.041028,-0.020054,0.38632,2017-04-08 16:48:17,55.69318802323905
0.038307227,-0.7086837,10.189722,0.029321533,0.0012217305,0.0061086523,6.0,0.042799998,-0.7471,9.778,0.0819,0.057699997,0.0079,-0.035846,-0.016128,0.357523,2017-04-08 16:48:18,41.3048038515192
-0.019153614,-0.7086837,10.160992,0.029321533,0.0036651916,0.007330383,6.0,-0.023799999,-0.65459996,9.784699,0.024799999,-0.0256,-2.9999999E-4,-0.028867,-0.016706,0.534795,2017-04-08 16:48:19,42.434453189498946
-0.009576807,-0.6991069,10.170568,0.028099801,0.0012217305,0.007330383,6.0,0.7754,-0.7206,9.7493,-0.80609995,0.0537,0.0365,-0.010747,-0.055679,0.498461,2017-04-08 16:48:20,59.47911024129855
0.0,-0.7086837,10.151415,0.028099801,0.0012217305,0.004886922,6.0,0.64599997,-0.6908,9.7609,-0.71819997,0.042799998,0.0368,-0.014162,-0.047931,0.477896,2017-04-08 16:48:21,52.50822671490262
0.0,-0.6991069,10.160992,0.029321533,0.002443461,0.0036651916,6.0,0.2206,-0.7783,9.7732,-0.3171,0.13849999,0.0252,-0.030247,-0.031799,0.432187,2017-04-08 16:48:22,55.071413480507196
0.0,-0.7086837,10.160992,0.029321533,0.0036651916,0.004886922,6.0,0.4107,-1.6348,9.6606,-0.61149997,0.9984,0.1646,-0.027123,-0.034554,0.436721,2017-04-08 16:48:23,58.41570566674608
0.0,-0.7086837,10.160992,0.029321533,0.002443461,0.004886922,6.0,0.1151,-0.8359,9.7702,-0.1222,0.1836,0.014099999,-0.037211,-0.021677,0.380444,2017-04-08 16:48:24,58.284022651964875
0.0,-0.6991069,10.160992,0.029321533,0.002443461,0.0061086523,6.0,0.047399998,-0.71129996,9.7807,-0.0437,0.0371,0.0019999999,-0.03279,-0.015084,0.362839,2017-04-08 16:48:25,46.36071790737884
0.0,-0.6895301,10.160992,0.029321533,0.002443461,0.004886922,6.0,-0.0389,-0.6347,9.785999,0.0444,-0.029399998,0.0072,-0.030134,-0.011724,0.424589,2017-04-08 16:48:26,54.278064676980115
-0.009576807,-0.6895301,10.160992,0.030543262,0.0036651916,0.004886922,6.0,0.0356,-0.8832,9.7667,0.1961,0.91789997,-10.1045,-0.039452,-0.017303,0.36663,2017-04-08 16:48:27,64.14236156776506
0.0,-0.6991069,10.160992,0.028099801,0.002443461,0.004886922,6.0,0.0321,-1.3808,9.708799,-0.0334,0.72779995,0.0678,-0.076923996,-0.035869,0.366872,2017-04-08 16:48:28,51.525254467436035
0.0,-0.7086837,10.170568,0.028099801,0.0,0.004886922,6.0,-0.063099995,-0.66539997,9.7838,0.0655,-0.0052,0.0095999995,-0.031727,-0.012438,0.451165,2017-04-08 16:48:29,57.871400065661774
-0.019153614,-0.6991069,10.180145,0.029321533,0.0036651916,0.007330383,6.0,0.0682,-0.72179997,9.779799,-0.0648,0.0475,0.0231,-0.033224,-0.016265,0.352978,2017-04-08 16:48:30,51.79101273854119
-0.009576807,-0.6799533,10.170568,0.030543262,0.0012217305,0.007330383,6.0,0.0044,-0.43249997,9.7971,0.3312,-0.4294,-0.0053999997,-0.01791,-0.005982,0.353821,2017-04-08 16:48:31,54.40892838334829
-0.009576807,-0.6799533,10.170568,0.029321533,0.002443461,0.0061086523,6.0,-0.053,-0.6027,9.7879,0.042799998,-0.058199998,-0.0042999997,-0.0298,-0.008535,0.35445,2017-04-08 16:48:32,58.651746627078595
0.009576807,-0.6991069,10.160992,0.029321533,0.0012217305,0.004886922,6.0,0.0309,-0.67579997,9.783199,-0.0231,0.0077,0.0095999995,-0.031406,-0.012601,0.35058,2017-04-08 16:48:33,48.534752542301874
0.0,-0.6991069,10.160992,0.029321533,0.002443461,0.004886922,6.0,0.033299997,-0.6817,9.7828,-0.031,0.0088,5.9999997E-4,-0.031939,-0.013585,0.350393,2017-04-08 16:48:34,56.53159969006988
0.0,-0.6895301,10.189722,0.029321533,0.002443461,0.007330383,6.0,-0.1585,-0.40969998,9.7968,0.18239999,-0.28869998,-0.0144,-0.031939,-0.013585,0.350393,2017-04-08 16:48:35,55.691172469108785
0.009576807,-0.6895301,10.170568,0.029321533,0.0036651916,0.004886922,6.0,0.0596,-0.70949996,9.7807,-0.061899997,0.049599998,0.003,-0.031608,-0.017911,0.418058,2017-04-08 16:48:36,42.71919594487527
0.009576807,-0.6991069,10.170568,0.030543262,0.002443461,0.004886922,6.0,0.096,-0.7405,9.7781,-0.0994,0.081999995,0.0155,-0.033511,-0.018506,0.361772,2017-04-08 16:48:37,49.49128426082784
-0.009576807,-0.7086837,10.180145,0.028099801,0.019547688,0.0061086523,6.0,-0.1264,-0.6048,9.7871,0.118499994,-0.0894,-0.0624,-0.030911,-0.006114,0.400558,2017-04-08 16:48:38,57.77929349145465
-0.009576807,-0.6991069,10.141838,0.028099801,0.0012217305,0.0061086523,6.0,0.0422,-0.7075,9.7809,-0.054899998,0.027999999,0.0026999998,-0.033008,-0.0147049995,0.34989,2017-04-08 16:48:39,51.43029361112455
0.0,-0.7182605,10.170568,0.029321533,0.0012217305,0.0061086523,6.0,-0.0041,-0.653,9.7848,0.0167,-0.022499999,0.0167,-0.03134,-0.011415,0.344162,2017-04-08 16:48:40,59.04768693072843
0.0,-0.6991069,10.151415,0.028099801,0.0012217305,0.0061086523,6.0,0.086399995,-0.51339996,9.7928,-0.091,-0.15079999,-8.0E-4,-0.022875,-0.013683,0.362068,2017-04-08 16:48:41,45.155953414366664
-0.009576807,-0.6991069,10.160992,0.029321533,0.002443461,0.0061086523,6.0,0.0317,-0.64629996,9.7852,-0.0232,-0.0145,-0.0127,-0.030139,-0.013335,0.354797,2017-04-08 16:48:42,38.84527032034419
-0.009576807,-0.6895301,10.160992,0.028099801,0.002443461,0.004886922,6.0,0.0609,-0.7073,9.7809,-0.0695,0.0447,0.0019999999,-0.032831,-0.016773,0.35972,2017-04-08 16:48:43,43.18393932352524
-0.009576807,-0.6991069,10.160992,0.029321533,0.002443461,0.0061086523,6.0,-0.0184,-0.5191,9.7928,0.061499998,-0.2616,-0.0255,-0.032536,-0.016808,0.42459399,2017-04-08 16:48:44,41.4206765454398
-0.019153614,-0.6895301,10.170568,0.028099801,0.0012217305,0.004886922,6.0,0.22559999,-0.86859995,9.7654,-0.24579999,0.23699999,0.009,-0.036218,-0.028044,0.393356,2017-04-08 16:48:45,45.26652148590891
-0.009576807,-0.6991069,10.160992,0.028099801,0.002443461,0.0061086523,6.0,0.0523,-0.71,9.7807,-0.0543,0.0418,-0.007999999,-0.032749,-0.015756,0.365615,2017-04-08 16:48:46,46.726263898313405
-0.009576807,-0.6991069,10.160992,0.029321533,0.002443461,0.0061086523,6.0,0.0328,-0.6846,9.782599,-0.0534,0.0431,-0.0164,-0.032447,-0.014145,0.341599,2017-04-08 16:48:47,40.7904678998252
-0.009576807,-0.6895301,10.160992,0.029321533,0.002443461,0.004886922,6.0,-0.039,-0.63159996,9.7862,0.0389,-0.038599998,-0.021399999,-0.030751,-0.008192,0.334359,2017-04-08 16:48:48,43.011336258675605
-0.019153614,-0.6799533,10.170568,0.028099801,0.002443461,0.0061086523,6.0,0.046099998,-0.70419997,9.781199,-0.0447,0.0255,-0.0064999997,-0.032666,-0.014709,0.356567,2017-04-08 16:48:49,45.26214151965536
0.0,-0.6991069,10.160992,0.029321533,0.002443461,0.0061086523,6.0,-0.045599997,-0.6468,9.7851,0.047399998,-0.0233,-0.020399999,-0.032865,-0.014953,0.35308298,2017-04-08 16:48:50,47.67212345438264
0.009576807,-0.7086837,10.160992,0.028099801,0.0012217305,0.0061086523,6.0,0.0848,-0.6635,9.7838,-0.0415,-0.1094,-0.0165,-0.022218,-0.01561,0.492584,2017-04-08 16:48:51,46.93668189183824
-0.009576807,-0.6991069,10.170568,0.029321533,0.0012217305,0.0061086523,6.0,0.5693,-0.31469998,9.785,0.14389999,-0.4874,-0.039699998,-0.022218,-0.01561,0.492584,2017-04-08 16:48:52,55.16420590738002
0.02873042,-0.6703765,10.151415,0.029321533,0.004886922,0.008552114,6.0,0.8447,-0.78679997,9.7383995,-1.211,0.2262,0.0783,-0.027466,-0.027559,0.447172,2017-04-08 16:48:53,51.289937680575484
-0.047884032,-0.6512229,10.151415,0.02565634,0.0012217305,0.004886922,4.0,0.12529999,-0.68799996,9.7816,-0.036199998,-0.042099997,-0.0036,-0.025323,-0.017621,0.468315,2017-04-08 16:48:54,43.227598013653825
-0.009576807,-0.7086837,10.170568,0.028099801,0.0036651916,0.007330383,4.0,0.18879999,-0.45729998,9.7941,-0.036199998,-0.042099997,-0.0036,-0.025323,-0.017621,0.468315,2017-04-08 16:48:55,43.00876970380778
-0.009576807,-0.6895301,10.170568,0.029321533,0.0036651916,0.007330383,6.0,0.2096,-0.45279998,9.7939,-0.1926,-0.18259999,-0.0289,-0.0050749998,-0.02492,0.805065,2017-04-08 16:48:56,50.47609726014096
0.0,-0.6991069,10.151415,0.030543262,0.0036651916,0.0061086523,6.0,0.5107,-1.2465,9.7136,-0.55219996,0.6121,0.0757,-0.04429,-0.059622,0.495794,2017-04-08 16:48:57,55.42617129803859
-0.009576807,-0.6799533,10.199299,0.028099801,0.002443461,0.0061086523,6.0,0.084699996,-0.704,9.7809,-0.081599995,0.0501,0.0128999995,-0.029724,-0.020983,0.467094,2017-04-08 16:48:58,48.7730632642777
-0.019153614,-0.6799533,10.151415,0.029321533,0.0012217305,0.007330383,4.0,0.195,-0.83309996,9.769199,-0.2285,0.1978,0.0187,-0.035314,-0.026277,0.397163,2017-04-08 16:48:59,54.4798231119092
0.0,-0.6991069,10.170568,0.030543262,0.0012217305,0.0061086523,4.0,0.1241,-0.77349997,9.7753,-0.1486,0.1175,0.019199999,-0.034161,-0.020806,0.378402,2017-04-08 16:49:00,45.44488408518453
-0.009576807,-0.6895301,10.160992,0.028099801,0.002443461,0.004886922,4.0,0.107099995,-0.64449996,9.7848,-0.30339998,0.0162,-0.0041,-0.023774,-0.030361,0.436018,2017-04-08 16:49:01,48.69027619397161
-0.019153614,-0.7182605,10.151415,0.029321533,0.0036651916,0.0061086523,4.0,0.1135,-0.75949997,9.7765,-0.1278,0.0931,0.0081,-0.033133,-0.021239,0.405421,2017-04-08 16:49:02,45.97272406741609
-0.009576807,-0.6895301,10.189722,0.029321533,0.002443461,0.008552114,4.0,-0.2034,-0.519,9.7907,0.2216,-0.1488,0.0219,-0.028742,-2.15E-4,0.340936,2017-04-08 16:49:03,50.84447906774399
-0.047884032,-0.6799533,10.160992,0.029321533,-0.0012217305,0.0036651916,6.0,0.13319999,-0.5518,9.790199,-0.148,-0.1139,0.003,-0.024543,-0.01587,0.34951898,2017-04-08 16:49:04,47.5728717262806
-0.019153614,-0.6799533,10.160992,0.028099801,0.002443461,0.0061086523,6.0,0.030199999,-0.6365,9.7859,-0.0341,-0.035,-0.0121,-0.029804999,-0.012794,0.343916,2017-04-08 16:49:05,46.95112986290731
-0.009576807,-0.6799533,10.160992,0.029321533,0.0012217305,0.0061086523,6.0,-0.0191,-0.43949997,9.7967,0.0208,-0.2536,-0.023899999,-0.020697,-0.00665,0.350285,2017-04-08 16:49:06,49.65406811241803
0.0,-0.6799533,10.170568,0.029321533,0.0036651916,0.0061086523,4.0,0.033,-0.6428,9.7855,-0.048299998,-0.027099999,-0.0115,-0.030155,-0.013322,0.351673,2017-04-08 16:49:07,51.76836869266897
-0.019153614,-0.6895301,10.151415,0.030543262,0.004886922,0.0061086523,6.0,0.0013,-0.66429996,9.7841,-0.0023,0.0029,0.0106,-0.030821,-0.013945,0.411966,2017-04-08 16:49:08,48.08011467403725
-0.009576807,-0.6991069,10.160992,0.029321533,0.0012217305,0.004886922,6.0,0.3667,-0.58379996,9.7823,-0.3575,-0.077199996,-0.0175,-0.020491,-0.028598,0.378323,2017-04-08 16:49:09,46.183103165758936
0.0,-0.6895301,10.160992,0.028099801,0.0012217305,0.0061086523,6.0,0.8269,-0.66139996,9.7493,-0.85859996,-0.0094,0.037,-0.026624,-0.01878,0.377195,2017-04-08 16:49:10,45.20473352138703
0.0,-0.6799533,10.170568,0.029321533,0.002443461,0.0061086523,4.0,0.119899996,-0.6978,9.781,-0.125,0.008599999,0.0145,-0.030911,-0.019374,0.368523,2017-04-08 16:49:11,48.73276486999537
0.0,-0.7182605,10.208876,0.032986723,0.0,0.0061086523,4.0,0.074099995,-0.71209997,9.780399,-0.074099995,0.039,-0.0047999998,-0.032118,-0.016224,0.368796,2017-04-08 16:49:12,43.694773529363374
0.0,-0.6895301,10.170568,0.029321533,0.0036651916,0.0061086523,4.0,0.040999997,-0.68979996,9.7822,-0.0393,0.0268,0.012999999,-0.032157,-0.014458,0.354979,2017-04-08 16:49:13,50.33888053186098
-0.02873042,-0.6895301,10.170568,0.028099801,0.0036651916,0.004886922,4.0,-0.0121,-0.65389997,9.7848,0.0131,-0.005,-9.0E-4,-0.031075,-0.011049,0.366803,2017-04-08 16:49:14,53.7228649147947
0.0,-0.6991069,10.170568,0.029321533,0.0,0.007330383,4.0,0.0398,-0.6864,9.782499,-0.038599998,0.014699999,0.0016999999,-0.032199,-0.014099,0.343967,2017-04-08 16:49:15,50.208879544517785
0.009576807,-0.6991069,10.160992,0.029321533,0.0036651916,0.007330383,4.0,-0.050499998,-0.6245,9.7866,0.38149998,-0.3155,9.0E-4,-0.032199,-0.014099,0.343967,2017-04-08 16:49:16,48.27912447610359
-0.009576807,-0.6991069,10.141838,0.029321533,0.0012217305,0.0061086523,6.0,0.3663,-0.92929995,9.7556,-0.3804,0.2883,0.049399998,-0.035428,-0.032106,0.388693,2017-04-08 16:49:17,53.58523824420729
0.009576807,-0.6991069,10.151415,0.029321533,0.0012217305,0.0061086523,8.0,-0.0708,-0.6191,9.786799,0.0061,-0.0195,-5.9999997E-4,-0.031171,-0.010872,0.346618,2017-04-08 16:49:18,49.29408547229504
-0.009576807,-0.6895301,10.180145,0.029321533,0.0036651916,0.0061086523,6.0,-0.43969998,-0.5467,9.7815,0.0778,-0.0714,-0.003,-0.030314,-0.008236,0.377516,2017-04-08 16:49:19,50.04689490131413
-0.009576807,-0.62249243,10.141838,0.028099801,-0.004886922,0.004886922,6.0,-0.3006,-0.47689998,9.7904,0.2832,-0.147,-0.0049,-0.030314,-0.008236,0.377516,2017-04-08 16:49:20,53.83521856332763
0.0,-0.6991069,10.160992,0.029321533,0.0012217305,0.0061086523,6.0,0.5078,-0.7005,9.7684,-0.5273,0.0409,0.0165,-0.020524,-0.039097,0.443463,2017-04-08 16:49:21,50.3937692657404
0.0,-0.6895301,10.151415,0.030543262,0.004886922,0.0061086523,6.0,-0.19119999,-0.4387,9.7949,-0.2051,0.0863,0.0173,-0.026444,-0.023153,0.441666,2017-04-08 16:49:22,61.42924318670439
0.0,-0.6895301,10.170568,0.029321533,0.002443461,0.007330383,6.0,0.1283,-0.815,9.7718,0.042799998,0.0104,0.020399999,-0.031349,-0.022635,0.483505,2017-04-08 16:49:23,51.63062328782569
-0.009576807,-0.6895301,10.160992,0.029321533,0.002443461,0.0061086523,6.0,-0.0884,-0.6227,9.7864,0.081999995,-0.0594,-0.012,-0.030726,-0.009243,0.41963398,2017-04-08 16:49:24,49.00245472744989
-0.19153613,-0.6895301,10.496181,-0.015882496,0.16371189,0.0061086523,6.0,0.54719996,-0.427,9.782,-0.5247,-0.3642,0.0055,9.72E-4,-0.028298,0.448867,2017-04-08 16:49:25,47.69353628806114
-0.009576807,-0.6895301,10.170568,0.030543262,0.0012217305,0.004886922,2.0,0.1943,-0.6778,9.781199,-0.2373,0.0209,0.0037,-0.0286,-0.022252,0.368315,2017-04-08 16:49:26,65.01277058682429
-0.019153614,-0.6895301,10.170568,0.029321533,0.002443461,0.0061086523,4.0,0.0142,-0.64199996,9.7855,-0.0155,0.0109,-0.0011999999,-0.030566,-0.011839,0.342842,2017-04-08 16:49:27,59.56938256170936
0.009576807,-0.6703765,10.180145,0.030543262,0.0012217305,0.0061086523,6.0,-0.0044,-0.6365,9.7859,-0.089499995,-7.0E-4,0.0378,-0.031181,-0.011589,0.339836,2017-04-08 16:49:28,50.48666046964287
-0.019153614,-0.6607997,10.160992,0.030543262,0.0012217305,0.0061086523,6.0,0.0165,-1.4757999,9.6949,-0.0187,0.6846,0.0583,-0.078982,-0.034337,0.38084,2017-04-08 16:49:29,51.00365626245129
-0.02873042,-0.6991069,10.151415,0.029321533,0.002443461,0.0061086523,6.0,0.8081,-0.65489995,9.7513,-0.709,-0.023,0.014699999,-0.012886,-0.046604,0.47619,2017-04-08 16:49:30,60.85535087005902
-0.02873042,-0.6991069,10.132261,0.028099801,0.0,0.0061086523,4.0,0.17199999,-0.7241,9.778299,-0.2085,0.0761,-0.012399999,-0.030695,-0.022616,0.396998,2017-04-08 16:49:31,55.391450187451014
-0.22026655,-0.6703765,9.548077,0.065973446,0.22479841,0.015882496,4.0,0.0492,-0.68479997,9.782499,-0.0852,0.0241,-0.047,-0.030965,-0.01621,0.369772,2017-04-08 16:49:32,65.74609129326332
-0.8810662,-0.6607997,7.1826053,-0.22479841,1.6065756,0.09162979,4.0,0.70989996,-0.5664,9.7645,0.331,0.5396,-1.9014,-0.019641,-0.048387,0.244081,2017-04-08 16:49:33,78.83362250213516
0.095768064,-0.6703765,10.132261,0.030543262,0.0012217305,0.0036651916,6.0,0.046299998,-0.484,9.794499,0.0087,-0.1344,-0.0199,-0.022724,-0.010446,0.320206,2017-04-08 16:49:34,84.22547031846472
0.047884032,-0.7182605,10.208876,0.002443461,0.052534413,0.008552114,4.0,0.122999996,-0.5972,9.7876,-0.0139,-0.0165,-0.039699998,-0.026088,-0.016536,0.329718,2017-04-08 16:49:35,62.80912244348858
0.11492168,-0.6512229,10.170568,0.029321533,0.0061086523,0.008552114,4.0,0.102199994,-0.61439997,9.786799,0.011399999,-0.0087,-0.0095,-0.027762,-0.015374,0.335085,2017-04-08 16:49:36,80.97693363861161
0.20111294,-0.7086837,10.352529,-0.04520403,-0.37507126,0.009773844,4.0,-0.0416,-0.648,9.7851,-0.4078,-0.3367,-0.77269995,-0.031515,-0.010202,0.368155,2017-04-08 16:49:37,61.482290114051224
0.05746084,-0.7278373,10.228029,0.029321533,0.002443461,0.007330383,4.0,0.0206,-0.66359997,9.7841,0.0253,-0.0339,0.052199997,-0.031296,-0.013771,0.368645,2017-04-08 16:49:38,52.0670776649153
0.009576807,-0.6991069,10.132261,0.02687807,0.0036651916,0.007330383,2.0,0.023699999,-0.64489996,9.785299,-0.0137,-0.0067999996,0.0115,-0.03011,-0.013313,0.370294,2017-04-08 16:49:39,79.91215936312105
0.019153614,-0.6799533,10.141838,0.029321533,0.0061086523,0.007330383,4.0,0.0092,-0.6343,9.786099,0.0197,-0.0469,9.999999E-4,-0.029827,-0.012553,0.374196,2017-04-08 16:49:40,54.585395835035385
0.009576807,-0.6799533,10.160992,0.030543262,0.0012217305,0.0061086523,4.0,0.0279,-0.6561,9.784599,0.0164,-0.0142,0.029099999,-0.030418,-0.014142,0.37761799,2017-04-08 16:49:41,67.39150640270981
0.05746084,-0.6991069,10.1226845,0.030543262,0.002443461,0.004886922,4.0,0.0286,-0.65749997,9.7845,-0.0079,-0.0058999998,-0.0199,-0.030535,-0.013961,0.375553,2017-04-08 16:49:42,51.59901369625978
0.047884032,-0.7086837,10.141838,0.029321533,0.002443461,0.004886922,4.0,0.0348,-0.6595,9.7843,-0.0139999995,0.0094,0.0,-0.03065,-0.014128,0.373456,2017-04-08 16:49:43,82.76770964929517
0.047884032,-0.6799533,10.160992,0.028099801,0.0012217305,0.0061086523,4.0,0.0277,-0.6519,9.7849,-0.0206,0.0015,-0.039699998,-0.030393,-0.013738,0.370346,2017-04-08 16:49:44,74.59112939425
0.038307227,-0.6512229,10.093954,0.029321533,0.0012217305,0.0061086523,4.0,0.02,-0.64489996,9.785299,-0.0041,0.0165,-0.0694,-0.030277,-0.013408,0.372276,2017-04-08 16:49:45,83.22991012202307
0.038307227,-0.6895301,10.160992,0.030543262,0.002443461,0.0061086523,4.0,0.0266,-0.64269996,9.7855,0.0115,-0.019,0.0084999995,-0.029954,-0.013405,0.370107,2017-04-08 16:49:46,79.37828558560905
-0.02873042,-0.59376204,9.969456,0.030543262,0.002443461,0.004886922,4.0,0.0221,-0.6403,9.7856,0.0513,-0.029099999,0.0379,-0.029949,-0.013375,0.37015,2017-04-08 16:49:47,50.855339234149746
0.05746084,-0.6895301,10.170568,0.029321533,0.004886922,0.007330383,4.0,0.040599998,-0.6655,9.783899,0.0327,0.0117999995,0.0394,-0.030823,-0.014386,0.366659,2017-04-08 16:49:48,84.50853311515428
0.047884032,-0.6895301,10.160992,0.029321533,0.002443461,0.004886922,4.0,0.029099999,-0.6375,9.7858,0.009099999,-0.0092,0.037299998,-0.029701,-0.013334,0.367279,2017-04-08 16:49:49,61.331146879957515
0.08619126,-0.6895301,10.180145,0.028099801,-0.0061086523,0.004886922,4.0,0.010199999,-0.6143,9.7873,-0.028099999,-0.0418,0.0946,-0.028929,-0.012207,0.37622198,2017-04-08 16:49:50,85.03837689629093
0.038307227,-0.6991069,10.160992,0.029321533,0.0012217305,0.0061086523,2.0,-0.0591,-0.5631,9.790199,0.1002,-0.1252,0.0523,-0.027759999,-0.007978,0.374938,2017-04-08 16:49:51,47.33119356713517
0.047884032,-0.6799533,10.189722,0.029321533,0.004886922,0.007330383,6.0,0.120299995,-0.7363,9.7782,-0.0982,0.095599994,0.0642,-0.030853,-0.022305,0.447131,2017-04-08 16:49:52,51.81734720912729
0.038307227,-0.6895301,10.170568,0.029321533,0.002443461,0.004886922,6.0,0.047799997,-0.7406,9.7785,0.0446,0.052899998,0.080699995,-0.033314,-0.01661,0.412742,2017-04-08 16:49:53,46.94847776765505
0.047884032,-0.6895301,10.160992,0.029321533,0.002443461,0.0061086523,6.0,0.0775,-0.6986,9.7814,0.0296,-0.031,0.0659,-0.02814,-0.0150419995,0.471111,2017-04-08 16:49:54,47.51937169624113
0.038307227,-0.6895301,10.170568,0.030543262,0.002443461,0.0061086523,6.0,0.065799996,-0.6903,9.782,-0.0286,0.0451,0.050899997,-0.031075,-0.016913,0.392295,2017-04-08 16:49:55,49.44226204357114
0.047884032,-0.6703765,10.160992,0.029321533,0.0036651916,0.004886922,6.0,0.3067,-0.6209,9.7821,-0.28689998,-0.0264,0.050899997,-0.022856,-0.027682,0.385145,2017-04-08 16:49:56,48.46548962029095
0.047884032,-0.6799533,10.160992,0.030543262,0.002443461,0.007330383,6.0,0.109,-0.6519,9.7843,-0.0778,-4.0E-4,0.0109,-0.028812,-0.01752,0.371211,2017-04-08 16:49:57,47.77182236310479
0.047884032,-0.6799533,10.199299,0.030543262,0.0012217305,0.007330383,6.0,0.0407,-0.6507,9.7849,-0.0128999995,0.0186,0.009699999,-0.030066,-0.014227,0.370154,2017-04-08 16:49:58,50.15037854042856
0.047884032,-0.6799533,10.170568,0.03176499,0.002443461,0.0061086523,6.0,0.0317,-0.6475,9.7851,-0.0033999998,-0.0142,2.9999999E-4,-0.030018,-0.013727,0.370164,2017-04-08 16:49:59,51.80633945987414
0.02873042,-0.6895301,10.170568,0.028099801,0.002443461,0.004886922,6.0,0.033099998,-0.64629996,9.7852,-0.014699999,-0.0055,0.0199,-0.030003,-0.013782,0.370161,2017-04-08 16:50:01,49.86433457291107
0.047884032,-0.6799533,10.160992,0.029321533,0.002443461,0.007330383,6.0,0.030499998,-0.6486,9.7851,0.017199999,0.0072999997,-1.0E-4,-0.030162,-0.013704,0.370163,2017-04-08 16:50:02,47.62597579133207
0.047884032,-0.6799533,10.170568,0.029321533,0.0036651916,0.007330383,6.0,0.0326,-0.6486,9.7851,-0.0045,-0.0128999995,0.0095,-0.03012,-0.013804,0.370157,2017-04-08 16:50:03,46.80781535483156
0.038307227,-0.6703765,10.170568,0.029321533,0.002443461,0.0061086523,6.0,0.0349,-0.64879996,9.785,0.022499999,-0.0128,-0.0093,-0.030068,-0.013795,0.370157,2017-04-08 16:50:04,47.338030451352026
0.047884032,-0.641646,10.160992,0.029321533,0.0012217305,0.010995574,6.0,0.020499999,-0.63409996,9.786099,-0.1096,-0.047,0.038,-0.029622,-0.0131169995,0.373724,2017-04-08 16:50:05,50.06113810709675
0.02873042,-0.6895301,10.170568,0.03176499,0.0012217305,0.0061086523,4.0,0.0298,-0.6439,9.785399,-0.0050999997,-0.017199999,-0.0103,-0.029934,-0.01352,0.364851,2017-04-08 16:50:06,52.407932259903625
0.019153614,-0.6703765,10.160992,0.029321533,0.002443461,0.0061086523,4.0,-0.063999996,-0.57269996,9.7897,0.055099998,-0.0642,-0.0039999997,-0.028732,-0.008457,0.360442,2017-04-08 16:50:07,48.563777466105634
0.038307227,-0.6895301,10.170568,0.030543262,0.002443461,0.0061086523,4.0,-0.056399997,-0.5877,9.788799,0.0546,-0.0548,-0.0323,-0.029239,-0.010441,0.387752,2017-04-08 16:50:08,43.52281670698574
0.038307227,-0.6895301,10.170568,0.030543262,0.002443461,0.007330383,4.0,0.0321,-0.6583,9.7844,-0.005,0.0075,4.0E-4,-0.030633999,-0.013907,0.368095,2017-04-08 16:50:09,42.280299467717235
0.038307227,-0.6703765,10.170568,0.030543262,0.002443461,0.004886922,4.0,0.0255,-0.6562,9.784599,-0.0063,-0.0046,-0.0094,-0.030714,-0.013438,0.365441,2017-04-08 16:50:10,46.53756870246133
0.019153614,-0.6895301,10.160992,0.029321533,0.0012217305,0.004886922,4.0,0.0323,-0.668,9.7838,-0.0139999995,0.0071,0.0109,-0.0303,-0.015641,0.414562,2017-04-08 16:50:11,50.36155906883491
0.019153614,-0.6799533,10.160992,0.03176499,0.002443461,0.0061086523,4.0,0.1437,-0.7812,9.7744,-0.1551,0.1441,0.022499999,-0.033274,-0.024996,0.432988,2017-04-08 16:50:12,49.69179857857717
0.047884032,-0.6895301,10.151415,0.028099801,0.0012217305,0.007330383,4.0,0.1428,-0.7808,9.7744,-0.1287,0.13409999,0.0403,-0.034363,-0.023439,0.386832,2017-04-08 16:50:13,48.44662816629341
0.019153614,-0.6895301,10.170568,0.030543262,0.002443461,0.0061086523,4.0,0.116299994,-0.7463,9.7775,-0.1059,0.1139,0.018,-0.032786,-0.02044,0.391359,2017-04-08 16:50:14,49.94373470895974
0.038307227,-0.6895301,10.170568,0.029321533,0.002443461,0.0061086523,4.0,0.1749,-0.7155,9.7789,-0.16219999,0.0718,-0.0128,-0.030497,-0.022965,0.379754,2017-04-08 16:50:15,43.221622467517136
0.009576807,-0.6895301,10.180145,0.028099801,0.0036651916,0.007330383,4.0,0.057099998,-0.6502,9.7848,-0.0634,-0.0898,-0.0679,-0.029767,-0.014929,0.368122,2017-04-08 16:50:16,45.58494194704764
0.0,-0.6799533,10.170568,0.028099801,0.002443461,0.007330383,2.0,0.0385,-0.6629,9.7841,-0.014099999,-0.0058,-0.0186,-0.030662,-0.014409,0.371908,2017-04-08 16:50:17,52.35120841594949
0.019153614,-0.6895301,10.160992,0.029321533,0.002443461,0.004886922,4.0,0.0264,-0.6563,9.784599,0.0103,-0.0033999998,4.0E-4,-0.03067,-0.0135,0.365496,2017-04-08 16:50:18,59.9943432873323
0.05746084,-0.6895301,10.170568,0.030543262,0.002443461,0.0036651916,2.0,0.019,-0.64699996,9.7852,-0.0042999997,-0.0103,-0.0104,-0.030362,-0.013105,0.370435,2017-04-08 16:50:19,49.467201365123834
0.02873042,-0.6799533,10.170568,0.028099801,0.002443461,0.0061086523,4.0,0.0195,-0.65639997,9.784599,-7.0E-4,0.0061,9.999999E-4,-0.030772,-0.013244,0.367565,2017-04-08 16:50:20,46.42638269226296
0.0,-0.7182605,10.180145,0.02565634,0.010995574,0.004886922,4.0,-0.0387,-0.6051,9.7878,0.0977,-0.0861,-0.042999998,-0.028005,-0.006738,0.403233,2017-04-08 16:50:21,48.09115612314427
0.047884032,-0.6895301,10.160992,0.028099801,0.002443461,0.007330383,4.0,0.174,-0.5524,9.789499,-0.1652,-0.13499999,-0.0243,-0.02189,-0.019691,0.394254,2017-04-08 16:50:22,44.69879028721784
0.038307227,-0.6799533,10.160992,0.030543262,0.002443461,0.0061086523,4.0,0.0836,-0.59889996,9.7879,-0.0717,-0.085599996,-0.0221,-0.026736,-0.015389,0.374076,2017-04-08 16:50:23,46.67100451504275
-0.009576807,-0.60333884,9.959879,0.029321533,0.0036651916,0.004886922,2.0,0.0407,-0.6475,9.7851,-0.021499999,-0.0044,-0.0289,-0.029889,-0.014086,0.368278,2017-04-08 16:50:24,80.40992275251008
0.06703765,-0.7086837,10.180145,0.030543262,0.007330383,0.008552114,2.0,0.0334,-0.6522,9.7848,0.0245,-0.0184,-0.0286,-0.030354999,-0.013834,0.366728,2017-04-08 16:50:25,51.22366291558187
0.02873042,-0.6607997,10.132261,0.029321533,0.004886922,0.007330383,6.0,0.0103,-0.6315,9.7862,0.0044,-0.042999998,-0.0198,-0.02973,-0.012423,0.370227,2017-04-08 16:50:26,56.06125776861201
0.0,-0.6799533,10.180145,0.02565634,-0.0012217305,0.008552114,4.0,0.013599999,-0.6437,9.785399,-0.0178,-0.0079,-0.1469,-0.030266,-0.012761,0.368687,2017-04-08 16:50:27,74.27798970083636
0.0,-0.6895301,10.132261,0.030543262,0.004886922,0.0061086523,4.0,0.0139999995,-0.64199996,9.7855,-0.0052,-0.0079,-0.039,-0.03025,-0.012816,0.367141,2017-04-08 16:50:28,78.69917756466863
0.02873042,-0.6703765,10.170568,0.029321533,0.0012217305,0.0061086523,4.0,0.0056,-0.6389,9.7858,0.0029,-0.0106,-0.0196,-0.030197,-0.012277,0.368288,2017-04-08 16:50:29,67.45514397140111
0.019153614,-0.6799533,10.151415,0.028099801,0.002443461,0.004886922,4.0,0.0061999997,-0.63479996,9.785999,0.0207,-0.0354,-9.999999E-4,-0.029998,-0.012225,0.37013,2017-04-08 16:50:30,76.02105189282517
0.047884032,-0.6991069,10.189722,0.029321533,0.002443461,0.0061086523,4.0,0.0229,-0.6497,9.785,0.0154,-0.0229,0.039,-0.030362,-0.013302,0.368798,2017-04-08 16:50:31,80.89425241476917
0.038307227,-0.6799533,10.170568,0.029321533,0.002443461,0.0061086523,4.0,0.029099999,-0.6591,9.7844,-0.019299999,-0.0026,0.0201,-0.030667,-0.013867,0.371119,2017-04-08 16:50:32,71.4200411744956
0.038307227,-0.6703765,10.160992,0.029321533,0.002443461,0.004886922,4.0,0.026999999,-0.65669996,9.7845,-0.0066,-0.0075999997,1.0E-4,-0.03057,-0.013743,0.370846,2017-04-08 16:50:33,80.55855043911187
0.047884032,-0.6799533,10.371682,0.029321533,0.002443461,0.007330383,4.0,0.0219,-0.6516,9.7849,-0.0022,-0.022,-1.0E-4,-0.030439,-0.013283,0.370941,2017-04-08 16:50:34,49.83469984768962
0.02873042,-0.6895301,10.180145,0.030543262,0.002443461,0.0061086523,4.0,0.020299999,-0.6435,9.785399,-0.010199999,-0.0186,0.0092,-0.030073,-0.013209,0.372862,2017-04-08 16:50:35,77.1277357564825
0.038307227,-0.6991069,10.160992,0.028099801,0.002443461,0.004886922,4.0,0.0299,-0.65639997,9.784599,-0.034199998,-4.9999997E-4,0.0104,-0.030585,-0.013719,0.367054,2017-04-08 16:50:36,85.78669944031387
0.047884032,-0.7182605,10.151415,0.028099801,0.002443461,0.0061086523,4.0,0.0199,-0.649,9.7851,0.0189,-0.0313,-0.0099,-0.030385,-0.013198,0.36991,2017-04-08 16:50:37,48.97009248352213
0.02873042,-0.6799533,10.189722,0.028099801,0.002443461,0.004886922,4.0,0.013599999,-0.6439,9.785399,-0.0061999997,0.015299999,-0.0703,-0.030257,-0.012809,0.370126,2017-04-08 16:50:38,84.34907628087997
0.02873042,-0.7086837,10.160992,0.037873644,0.0012217305,0.008552114,4.0,0.030299999,-0.6624,9.7842,-0.010799999,0.0207,-0.0202,-0.030922,-0.013883,0.366892,2017-04-08 16:50:39,83.01625436682848
0.0,-0.6703765,10.170568,0.029321533,0.002443461,0.007330383,4.0,0.018199999,-0.6428,9.7855,-0.02,0.0013,0.0084999995,-0.030036,-0.01308,0.370253,2017-04-08 16:50:40,50.74988497574577
0.009576807,-0.6607997,10.0748005,0.029321533,0.002443461,0.0061086523,4.0,0.0233,-0.6482,9.7851,0.0037999998,0.0075999997,-0.0792,-0.030269,-0.013365,0.370476,2017-04-08 16:50:41,62.926342506353556
0.02873042,-0.6895301,10.141838,0.028099801,0.0012217305,0.007330383,4.0,0.023799999,-0.6472,9.7852,0.0075999997,-0.0178,0.008599999,-0.030156,-0.013401,0.372541,2017-04-08 16:50:42,79.6980979969404
0.038307227,-0.7086837,10.151415,0.029321533,0.002443461,0.004886922,4.0,0.0209,-0.6469,9.7852,0.01,-0.0067999996,-0.0011,-0.030253,-0.013151,0.371568,2017-04-08 16:50:43,51.69631011010169
0.009576807,-0.6607997,10.160992,0.030543262,0.002443461,0.0036651916,4.0,0.0264,-0.6501,9.785,-0.0088,-5.9999997E-4,-0.0104,-0.030303,-0.013546,0.370428,2017-04-08 16:50:44,74.9486424247798
0.05746084,-0.6799533,10.04607,0.030543262,0.002443461,0.007330383,4.0,0.0179,-0.6382,9.7858,-0.0045,-0.0079,-0.0403,-0.029871,-0.012984,0.372583,2017-04-08 16:50:45,68.62935054287684
0.038307227,-0.6991069,10.151415,0.029321533,0.002443461,0.0061086523,4.0,0.0343,-0.65099996,9.7849,-0.0142,-0.020299999,-5.9999997E-4,-0.030174,-0.013767,0.370621,2017-04-08 16:50:46,74.62560044367228
0.038307227,-0.7086837,10.141838,0.028099801,0.0012217305,0.004886922,4.0,0.0332,-0.6547,9.784699,-0.0131,-0.0034999999,0.13769999,-0.03042,-0.0139,0.368722,2017-04-08 16:50:47,71.50639191955864
0.05746084,-0.6799533,10.180145,0.029321533,0.0,0.0061086523,4.0,0.0197,-0.6374,9.7858,0.007999999,-0.0469,0.087699994,-0.029918,-0.013146,0.369987,2017-04-08 16:50:48,74.86653072200967
0.02873042,-0.6895301,10.160992,0.029321533,0.0012217305,0.0061086523,4.0,0.024999999,-0.6476,9.7852,-0.0047,-0.0213,0.0881,-0.030243,-0.013379,0.368338,2017-04-08 16:50:49,85.90112251446203
0.0,-0.6799533,10.093954,0.030543262,0.002443461,0.0061086523,4.0,0.0253,-0.64989996,9.785,-0.017099999,-0.0083,0.0491,-0.03035,-0.013413,0.368116,2017-04-08 16:50:50,82.05137838049923
0.019153614,-0.6895301,9.998186,0.029321533,0.0012217305,0.007330383,4.0,0.006,-0.6281,9.7865,-0.0063,0.018199999,-0.0209,-0.029677,-0.012235,0.373186,2017-04-08 16:50:51,74.99208099907938
0.038307227,-0.6895301,10.160992,0.029321533,0.0012217305,0.0061086523,4.0,0.0224,-0.6477,9.7852,-0.022499999,-0.0104,0.048899997,-0.030209,-0.013334,0.373956,2017-04-08 16:50:52,58.18414122720554
0.009576807,-0.6895301,10.170568,0.030543262,0.0036651916,0.0061086523,4.0,0.037299998,-0.6623,9.7841,-0.0287,0.0053999997,0.0893,-0.030695,-0.014249,0.369132,2017-04-08 16:50:53,75.37958498928222
0.06703765,-0.6991069,10.160992,0.030543262,0.002443461,0.0061086523,4.0,0.031999998,-0.6526,9.7848,0.0046,-0.0145,0.088599995,-0.030343,-0.013803,0.368672,2017-04-08 16:50:54,83.04819937943111
0.047884032,-0.6895301,10.160992,0.03176499,0.002443461,0.004886922,4.0,0.016999999,-0.6401,9.7857,0.0232,-0.0392,0.0876,-0.029954,-0.012827,0.370644,2017-04-08 16:50:55,75.15061480872431
0.038307227,-0.6895301,10.170568,0.029321533,0.0012217305,0.0061086523,4.0,0.0326,-0.6569,9.7845,-0.0106,-0.0371,0.0387,-0.030516,-0.013958,0.370072,2017-04-08 16:50:56,58.831742968831485
0.047884032,-0.7182605,10.228029,0.029321533,0.002443461,0.0061086523,4.0,0.0263,-0.6455,9.785299,0.0014,-0.052899998,0.0579,-0.030186,-0.013486,0.367718,2017-04-08 16:50:57,84.24224374752046
0.02873042,-0.6703765,10.199299,0.030543262,0.0012217305,0.004886922,6.0,0.0334,-0.6565,9.7845,-0.012999999,0.011299999,0.048499998,-0.030148,-0.013602,0.368182,2017-04-08 16:50:58,84.34089868026194
0.047884032,-0.6991069,10.170568,0.029321533,0.002443461,0.007330383,8.0,0.0338,-0.6547,9.784699,0.005,-0.0067999996,-4.0E-4,-0.030391,-0.013959,0.369721,2017-04-08 16:50:59,80.0452847693141
0.02873042,-0.6991069,10.266336,0.030543262,0.002443461,0.0061086523,6.0,0.0298,-0.6379,9.7858,-0.0513,0.10349999,-0.19759999,-0.029897,-0.013739,0.36853,2017-04-08 16:51:00,83.3840062394442
0.019153614,-0.6895301,10.113108,0.029321533,0.002443461,0.004886922,6.0,0.0379,-0.6534,9.784699,0.040799998,-0.012499999,0.0188,-0.030326,-0.014037,0.366209,2017-04-08 16:51:01,84.8593434082361
0.02873042,-0.6799533,10.141838,0.029321533,0.0036651916,0.0061086523,4.0,0.0166,-0.63229996,9.7862,0.022599999,-0.030599998,-0.0117999995,-0.029661,-0.012708,0.369247,2017-04-08 16:51:02,78.86013072426925
0.038307227,-0.6895301,10.160992,0.028099801,0.002443461,0.0061086523,4.0,0.0354,-0.6518,9.7848,-0.011399999,-0.0063,0.0185,-0.030264,-0.013901,0.367289,2017-04-08 16:51:03,85.6316688629744
0.038307227,-0.6895301,10.093954,0.029321533,0.0036651916,0.0036651916,4.0,0.028199999,-0.64739996,9.7852,-0.0232,0.0081,0.2633,-0.029872,-0.012819,0.367196,2017-04-08 16:51:04,53.63837180422038
0.047884032,-0.6991069,10.170568,0.030543262,0.0012217305,0.0036651916,4.0,0.0208,-0.63269997,9.786099,-0.021399999,-0.0098,0.0078,-0.029624,-0.012859,0.367639,2017-04-08 16:51:05,76.1682830895431
0.047884032,-0.6607997,10.180145,0.029321533,0.002443461,0.0061086523,6.0,0.0082,-0.6344,9.786099,0.0369,-0.0267,0.0374,-0.030017,-0.012359,0.366454,2017-04-08 16:51:06,79.38231437818908
-0.02873042,-0.7278373,10.113108,0.028099801,0.012217305,0.0061086523,8.0,-0.0101,-0.6561,9.784599,-0.7813,-0.1237,-0.0591,-0.0314,-0.011972,0.392052,2017-04-08 16:51:07,47.41774120715756
-0.05746084,-0.6991069,10.170568,0.02565634,0.002443461,0.0061086523,6.0,0.0401,-0.6782,9.783,-0.026899999,-0.0011999999,0.0013,-0.031212,-0.015081,0.380862,2017-04-08 16:51:08,73.07621421496762
0.019153614,-0.62249243,10.036493,0.030543262,0.0012217305,0.004886922,4.0,0.0424,-0.6493,9.785,-0.0185,-0.038799997,-0.011,-0.029799,-0.014563,0.379841,2017-04-08 16:51:09,63.22849726363924
0.009576807,-0.6895301,10.151415,0.029321533,0.0036651916,0.0061086523,4.0,0.0317,-0.64239997,9.7855,-0.0064,-0.0278,-0.0109,-0.029818,-0.014052,0.377534,2017-04-08 16:51:10,81.88238367513827
-0.02873042,-0.6991069,10.160992,0.02076942,0.017104227,0.008552114,4.0,0.0475,-0.6389,9.7856,-0.1149,0.0013,-0.040999997,-0.02915,-0.014783,0.384707,2017-04-08 16:51:11,79.01130747477504
0.009576807,-0.47884035,10.955867,2.2308798,-0.64873886,-0.9016371,4.0,0.4328,-0.086899996,9.7967,-0.3439,-0.5279,4.2949,0.002588,-0.022364,0.308301,2017-04-08 16:51:12,81.38967726312214
0.02873042,-0.7182605,10.400413,0.029321533,0.040317107,0.0061086523,6.0,-0.0019999999,-1.0509,9.7501,-8.0E-4,0.50339997,-0.2049,-0.049071,-0.015758,0.28286,2017-04-08 16:51:13,75.07297000788581
0.08619126,-0.6895301,10.180145,0.029321533,0.0,0.007330383,6.0,-0.042,-0.6441,9.785299,0.0897,0.023799999,-0.0106999995,-0.031528,-0.0095,0.350068,2017-04-08 16:51:14,73.70930657946938
-0.05746084,-0.641646,10.1226845,0.029321533,0.004886922,0.0061086523,4.0,0.015999999,-0.6333,9.786099,0.0212,-0.0455,0.0277,-0.029925,-0.012267,0.357102,2017-04-08 16:51:15,76.57634205620576
0.009576807,-0.6799533,10.151415,0.028099801,0.0,0.004886922,6.0,0.023599999,-0.63159996,9.7862,-0.021699999,-0.025899999,-0.0023,-0.028817,-0.01442,0.409092,2017-04-08 16:51:16,76.21212411456118
0.02873042,-0.6799533,10.189722,0.029321533,0.0036651916,0.0061086523,4.0,0.015,-0.64739996,9.7852,0.0055,-0.0184,-0.0404,-0.029759,-0.014351,0.413106,2017-04-08 16:51:17,59.65190694524843
0.0,-0.6895301,10.160992,0.028099801,0.002443461,0.0061086523,4.0,0.0222,-0.6547,9.784699,-0.0222,-0.0079,-4.9999997E-4,-0.029903,-0.014941,0.414414,2017-04-08 16:51:18,73.7161468525977
0.076614454,-0.7086837,10.1226845,0.030543262,0.002443461,0.0061086523,4.0,0.012499999,-0.66179997,9.7842,-0.003,-0.0264,-4.0E-4,-0.030472,-0.014574,0.414436,2017-04-08 16:51:19,69.54009688524918
0.0,-0.7278373,10.180145,0.029321533,0.0012217305,0.004886922,6.0,0.0022,-0.664,9.7841,-0.0016999999,-0.0178,0.0099,-0.030708,-0.014305,0.418915,2017-04-08 16:51:20,72.43854793918278
0.038307227,-0.7182605,10.170568,0.030543262,0.002443461,0.007330383,4.0,0.0132,-0.6678,9.7838,-0.0156,0.0264,0.0495,-0.030708,-0.014776,0.415358,2017-04-08 16:51:21,78.0524980424772
0.009576807,-0.6799533,10.170568,0.029321533,0.0036651916,0.0061086523,4.0,0.0094,-0.6635,9.7841,0.0013,-0.0095999995,0.0196,-0.030558,-0.014564,0.417095,2017-04-08 16:51:22,74.01584670213494
0.0,-0.7182605,10.151415,0.028099801,0.0,0.0061086523,4.0,0.0069999998,-0.6583,9.7845,-0.0178,0.0084999995,-0.0092,-0.030374,-0.014332,0.416769,2017-04-08 16:51:23,51.9881436996447
-0.009576807,-0.6703765,10.180145,0.030543262,0.002443461,0.0061086523,4.0,0.0016999999,-0.6472,9.7852,-0.0018,-0.0132,0.0095,-0.030029,-0.01399,0.41793,2017-04-08 16:51:24,47.42984413299218
-0.019153614,-0.6703765,10.132261,0.030543262,0.0012217305,0.007330383,4.0,0.0067,-0.6534,9.7848,-0.015999999,0.0093,-0.021599999,-0.030163,-0.014219,0.41669,2017-04-08 16:51:25,49.846824296545364
0.009576807,-0.6895301,10.1226845,0.030543262,0.0012217305,0.004886922,4.0,0.0233,-0.67149997,9.7836,-0.045399997,0.0122,-0.059299998,-0.030636,-0.015378,0.417051,2017-04-08 16:51:26,79.19479173871986
0.009576807,-0.6991069,10.1226845,0.028099801,0.007330383,0.004886922,4.0,0.0056,-0.65639997,9.784599,1.0E-4,0.0084999995,-0.040599998,-0.030184,-0.014283,0.419006,2017-04-08 16:51:27,83.75135008970297
0.009576807,-0.6895301,10.180145,0.029321533,0.0012217305,0.004886922,4.0,0.0084999995,-0.65819997,9.7845,-0.0066,-0.006,0.0178,-0.030285,-0.014326,0.417716,2017-04-08 16:51:28,60.957815264410186
0.009576807,-0.7182605,10.132261,0.029321533,0.0012217305,0.007330383,4.0,0.0069,-0.66139996,9.7843,0.0133,0.0245,0.0473,-0.030519,-0.014396,0.416871,2017-04-08 16:51:29,75.602798504706
0.02873042,-0.6991069,10.170568,0.029321533,0.002443461,0.0061086523,4.0,-0.0123,-0.6299,9.7863,0.0052,-0.0563,0.006,-0.029375,-0.013042,0.42336,2017-04-08 16:51:30,81.23011358938648
0.02873042,-0.7182605,10.218452,0.028099801,-0.0012217305,0.007330383,4.0,0.027099999,-0.6611,9.7843,-0.0286,-0.020399999,0.0084,-0.029924,-0.015492,0.42145,2017-04-08 16:51:31,85.30768976760686
0.02873042,-0.7086837,10.208876,0.028099801,0.002443461,0.0061086523,4.0,0.0034999999,-0.6498,9.785,-0.0049,0.038799997,-0.0804,-0.029971,-0.014168,0.422147,2017-04-08 16:51:32,83.7917200263103
0.009576807,-0.6991069,10.151415,0.02687807,-0.0036651916,0.0061086523,2.0,0.0101,-0.657,9.784599,0.035,-0.0315,0.0769,-0.030181,-0.014605,0.420026,2017-04-08 16:51:33,83.33639411105113
-0.05746084,-0.63206923,10.141838,0.028099801,0.0012217305,0.0061086523,2.0,0.0047,-0.67289996,9.7835,-0.1012,-0.061199997,0.0475,-0.031083,-0.014572,0.417812,2017-04-08 16:51:34,49.23464996526448
-0.019153614,-0.6703765,10.151415,0.030543262,0.0036651916,0.0061086523,4.0,0.106,-0.2554,9.8027,-0.11,-0.4312,-0.030199999,-0.007154,-0.01088,0.504414,2017-04-08 16:51:35,45.336492153841064
0.0,-0.6991069,10.160992,0.029321533,0.002443461,0.0061086523,4.0,0.009699999,-0.6106,9.7876,0.048,-0.1296,0.0016,-0.028167,-0.018603,0.437874,2017-04-08 16:51:36,52.26460734701267
0.009576807,-0.6991069,10.170568,0.029321533,0.002443461,0.007330383,4.0,0.5541,-0.3893,9.783199,-0.6439,-0.3238,-0.0071,0.003506,-0.036414,0.58091,2017-04-08 16:51:37,48.52959541838031
0.009576807,-0.6799533,10.180145,0.029321533,0.002443461,0.0061086523,4.0,0.1792,-0.7561,9.7758,-0.1859,0.097899996,0.026999999,-0.03081,-0.025878,0.442382,2017-04-08 16:51:38,51.70310668579167
0.019153614,-0.6799533,10.180145,0.029321533,0.0012217305,0.007330383,4.0,0.0482,-0.6888,9.7823,-0.049999997,0.028099999,0.0105,-0.030651,-0.016472,0.421338,2017-04-08 16:51:39,44.67556158538754
0.047884032,-0.6895301,10.055647,0.029321533,0.002443461,0.004886922,4.0,-0.0637,-0.5674,9.79,0.0758,-0.1069,0.0025,-0.026757,-0.011504,0.494854,2017-04-08 16:51:40,50.61087405539251
0.019153614,-0.6991069,10.160992,0.028099801,0.002443461,0.0061086523,4.0,0.0959,-0.7697,9.7759,-0.106599994,0.1424,0.0278,-0.033387,-0.02268,0.445264,2017-04-08 16:51:41,63.37189351188256
0.019153614,-0.6799533,10.170568,0.029321533,0.0012217305,0.0061086523,4.0,0.061699998,-0.7276,9.7794,-0.0301,0.043899998,-0.0056999996,-0.032331,-0.020004,0.439788,2017-04-08 16:51:42,54.13647741426701
0.0,-0.6991069,10.170568,0.029321533,0.0012217305,0.0061086523,4.0,-0.0081,-0.644,9.785399,0.019199999,-0.0165,0.026899999,-0.029191,-0.015084,0.469965,2017-04-08 16:51:43,52.34711720264008
0.047884032,-0.6991069,10.170568,0.029321533,0.002443461,0.0061086523,12.0,0.0188,-0.667,9.783899,-0.034199998,0.052899998,2.9999999E-4,-0.030331,-0.015879,0.442503,2017-04-08 16:51:44,48.69728270111952
-0.047884032,-0.92895025,10.1226845,0.030543262,0.004886922,0.009773844,15.0,0.061699998,-0.7072,9.7809,-0.054199997,0.047199998,0.021699999,-0.030911,-0.0183,0.427786,2017-04-08 16:51:45,47.99940277296842
0.02873042,-0.7086837,10.151415,0.029321533,0.002443461,0.0061086523,12.0,0.0126,-0.6706,9.7836,-0.0106,0.0061999997,0.0186,-0.030588,-0.014996,0.426047,2017-04-08 16:51:46,50.65107953760739
0.009576807,-0.6895301,10.170568,0.030543262,0.002443461,0.0061086523,15.0,-0.0072999997,-0.643,9.7855,0.0098,-0.0117,0.0266,-0.029935,-0.013416,0.41922998,2017-04-08 16:51:47,44.50427140261566
0.06703765,-0.6512229,10.180145,0.02687807,0.002443461,0.0061086523,15.0,0.0602,-0.7348,9.7788,-0.064399995,0.073699996,0.0131,-0.031852,-0.018906,0.434621,2017-04-08 16:51:48,47.06825169487072
-0.095768064,-0.7182605,10.170568,0.028099801,0.0061086523,0.008552114,15.0,0.0446,-0.6967,9.7817,0.14989999,0.016099999,0.06,-0.031282,-0.017096,0.420662,2017-04-08 16:51:49,47.53839289800471
0.009576807,-0.6895301,10.170568,0.030543262,0.0012217305,0.007330383,15.0,0.0191,-0.6757,9.783299,-2.0E-4,0.0133,0.0093,-0.030859,-0.015256,0.417274,2017-04-08 16:51:50,50.96942431881111
0.009576807,-0.6991069,10.151415,0.028099801,0.0036651916,0.007330383,12.0,0.0150999995,-0.67399997,9.7834,-0.0144,-0.016099999,-0.0011,-0.030962,-0.014946,0.415808,2017-04-08 16:51:51,63.6272591293507
-0.038307227,-0.6991069,10.141838,0.029321533,0.002443461,0.0061086523,15.0,0.0075999997,-0.6767,9.783199,0.0464,-0.0029,-8.0E-4,-0.031155,-0.014921,0.415819,2017-04-08 16:51:52,56.30388738870679
0.0,-0.7469909,10.170568,0.02565634,0.002443461,0.004886922,12.0,-0.0862,-0.5793,9.7891,0.093499996,-0.096499994,0.0037,-0.02833,-0.010512,0.472082,2017-04-08 16:51:53,45.68087486660569
0.019153614,-0.6895301,10.151415,0.028099801,0.0012217305,0.004886922,10.0,0.0265,-0.68829995,9.7824,0.0405,-0.0139999995,-0.0115,-0.029572,-0.015764,0.471867,2017-04-08 16:51:54,43.2803939181246
0.009576807,-0.6991069,10.141838,0.029321533,0.002443461,0.004886922,10.0,0.0137,-0.66359997,9.7841,-0.0074,-0.0046,-0.0199,-0.030075,-0.01556,0.440728,2017-04-08 16:51:55,49.536537219020886
0.06703765,-0.7565677,10.170568,0.029321533,0.0,0.0036651916,15.0,0.0257,-0.6847,9.782599,-0.0278,0.0278,-0.0176,-0.031094,-0.015888,0.420438,2017-04-08 16:51:56,42.57551287139428
0.009576807,-0.6895301,10.160992,0.028099801,0.002443461,0.0061086523,15.0,0.0188,-0.67109996,9.7836,0.0025,0.0075999997,-0.0099,-0.030586,-0.015343,0.42441,2017-04-08 16:51:57,52.03196963638126
0.019153614,-0.6895301,10.151415,0.028099801,0.0036651916,0.004886922,15.0,0.011399999,-0.66179997,9.7842,-0.0117999995,-0.0083,-0.0103,-0.030446,-0.014609,0.41672,2017-04-08 16:51:58,42.411056435163005
-0.009576807,-0.6799533,10.170568,0.029321533,0.002443461,0.0061086523,15.0,0.0121,-0.6623,9.7842,0.0138,0.0094,0.0287,-0.030451,-0.014652,0.416727,2017-04-08 16:51:59,45.281805278846754
0.0,-0.6991069,10.160992,0.028099801,0.002443461,0.007330383,15.0,0.011399999,-0.6691,9.7837,-0.011899999,0.018099999,-0.0092,-0.030213,-0.015057,0.439988,2017-04-08 16:52:00,43.01900335812558
0.009576807,-0.6991069,10.141838,0.029321533,0.0036651916,0.007330383,15.0,-0.100099996,-0.55189997,9.7905,0.106599994,-0.1052,0.0036,-0.027261,-0.008688,0.46869,2017-04-08 16:52:01,42.98083832535056
0.019153614,-0.7086837,10.160992,0.030543262,0.0012217305,0.0061086523,15.0,0.023799999,-0.686,9.782499,-0.0233,0.0245,0.0016,-0.031139,-0.01587,0.424348,2017-04-08 16:52:02,70.18164655543751
0.009576807,-0.6991069,10.170568,0.029321533,0.002443461,0.004886922,15.0,0.0198,-0.6805,9.7829,-0.0233,0.0245,0.0016,-0.031139,-0.01587,0.424348,2017-04-08 16:52:03,57.50029753182162
0.0,-0.6895301,10.160992,0.028099801,0.0036651916,0.0061086523,15.0,0.5475,-0.7712,9.7609,-0.5905,0.14019999,0.0276,-0.019193,-0.044301,0.51742,2017-04-08 16:52:04,45.506690249621
-0.009576807,-0.6895301,10.170568,0.029321533,0.0012217305,0.004886922,15.0,0.129,-0.72959995,9.7786,-0.102,0.0667,-0.0034999999,-0.03069,-0.02242,0.443826,2017-04-08 16:52:05,43.131338173649176
0.019153614,-0.6895301,10.180145,0.030543262,0.002443461,0.004886922,15.0,0.32099998,-0.59999996,9.783,-0.296,-0.0651,-0.009,-0.017642999,-0.029897999,0.519325,2017-04-08 16:52:06,42.450965781230806
-0.019153614,-0.6607997,10.151415,0.029321533,0.0,0.004886922,15.0,0.045399997,-0.6917,9.7821,0.0037,0.0206,-0.027199998,-0.028425,-0.020864,0.539405,2017-04-08 16:52:07,63.855204502568796
0.047884032,-0.6895301,10.151415,0.029321533,0.0012217305,0.0036651916,15.0,0.1091,-0.7802,9.7748995,-0.12329999,0.113699995,8.0E-4,-0.03245,-0.025813,0.487023,2017-04-08 16:52:08,57.22741293642882
0.038307227,-0.7086837,10.151415,0.029321533,0.0036651916,0.0061086523,12.0,0.0537,-0.78099996,9.7753,-0.069,0.15689999,0.012,-0.033738,-0.026009,0.455253,2017-04-08 16:52:09,44.80454099509082
0.038307227,-0.6991069,10.160992,0.030543262,0.002443461,0.0061086523,12.0,-0.1095,-0.5392,9.7912,0.1355,-0.15779999,-0.0075999997,-0.024403,-0.012902,0.65296,2017-04-08 16:52:10,50.33713531926929
-0.05746084,-0.6895301,10.237606,0.02687807,0.0012217305,0.0036651916,15.0,0.0813,-0.75839996,9.776899,-0.0975,0.1261,-0.088999994,-0.032991,-0.020649,0.436778,2017-04-08 16:52:11,47.50848141070256
-0.009576807,-0.6895301,10.170568,0.028099801,0.002443461,0.0061086523,15.0,0.035,-0.69589996,9.781799,-0.0347,0.033999998,0.0023999999,-0.031388,-0.016694,0.42436498,2017-04-08 16:52:12,77.480338625574
0.038307227,-0.7086837,10.055647,0.028099801,0.0036651916,0.004886922,15.0,0.0145,-0.66319996,9.7841,-0.0133,0.0028,-0.039,-0.030413,-0.014847,0.418704,2017-04-08 16:52:13,69.06260336572197
0.0,-0.7086837,10.160992,0.030543262,0.0036651916,0.007330383,15.0,0.005,-0.6619,9.7842,0.0138,-0.009099999,-0.0195,-0.03054,-0.014414,0.41962,2017-04-08 16:52:14,84.95794891012757
0.05746084,-0.7469909,10.151415,0.028099801,0.0061086523,0.0061086523,15.0,0.0112,-0.6635,9.7841,-0.003,-0.0045,0.039499998,-0.030481,-0.014734,0.419584,2017-04-08 16:52:15,76.35246536858565
0.019153614,-0.6703765,10.0269165,0.029321533,0.0036651916,0.007330383,15.0,0.0106999995,-0.66429996,9.7841,-0.0106999995,-0.0252,-0.029099999,-0.030540999,-0.014699,0.418809,2017-04-08 16:52:16,75.34750099868778
0.0,-0.6895301,10.1226845,0.029321533,0.002443461,0.0061086523,15.0,0.0028,-0.65489995,9.784699,-0.0011,-0.0072,-0.010199999,-0.030243,-0.014197,0.420816,2017-04-08 16:52:17,71.17428834683753
0.009576807,-0.7086837,10.170568,0.030543262,0.0012217305,0.004886922,15.0,0.0016999999,-0.6551,9.784699,-0.0014,-0.0072999997,-0.010199999,-0.03026,-0.014185,0.42180198,2017-04-08 16:52:18,76.95630622271463
-0.009576807,-0.6991069,10.170568,0.029321533,0.0012217305,0.0061086523,15.0,0.0042,-0.66279995,9.7842,-0.0050999997,-0.0075999997,0.019,-0.030528,-0.014494,0.422514,2017-04-08 16:52:19,71.76715601847042
0.0,-0.6703765,10.084377,0.029321533,0.004886922,0.0061086523,15.0,0.012399999,-0.66609997,9.783899,-0.0139999995,0.037499998,-0.1282,-0.030592,-0.014809,0.418608,2017-04-08 16:52:20,63.009663433337266
0.019153614,-0.7182605,10.160992,0.030543262,0.002443461,0.0061086523,15.0,0.0028,-0.6612,9.7843,-9.999999E-4,-0.0232,-0.0905,-0.030557,-0.014288,0.419491,2017-04-08 16:52:21,78.09950849897865
0.009576807,-0.6991069,10.132261,0.029321533,0.002443461,0.004886922,15.0,0.0116,-0.67359996,9.7834,-0.0101,-0.0208,-0.0897,-0.030971,-0.014911,0.417837,2017-04-08 16:52:22,75.65804696160367
-0.019153614,-0.6895301,10.113108,0.029321533,0.0012217305,0.004886922,15.0,0.0011,-0.6638,9.7841,0.008599999,0.0016999999,-0.1013,-0.03067,-0.014361,0.422279,2017-04-08 16:52:23,73.71167026214233
0.05746084,-0.7086837,10.151415,0.03176499,-0.0012217305,0.007330383,15.0,0.0078,-0.6579,9.7845,0.0347,-0.0202,-0.0127,-0.030296,-0.014452,0.419569,2017-04-08 16:52:24,84.5447999248554
-0.08619126,-0.6703765,10.160992,0.029321533,0.004886922,0.008552114,15.0,0.019399999,-0.6466,9.7852,-0.0479,-0.0739,0.0157,-0.029524,-0.014745,0.419403,2017-04-08 16:52:25,54.652570997861375
0.009576807,-0.6895301,10.170568,0.030543262,0.0036651916,0.004886922,15.0,0.0072999997,-0.6565,9.784599,0.011299999,-0.0133,-0.0128999995,-0.030225,-0.0144299995,0.42054,2017-04-08 16:52:26,80.24391591125018
0.009576807,-0.6799533,10.132261,0.029321533,0.004886922,0.0061086523,15.0,0.003,-0.64379996,9.785399,-0.0033,7.0E-4,-0.0139,-0.02966,-0.014108,0.425012,2017-04-08 16:52:27,49.375422765165844
0.038307227,-0.79487497,10.352529,0.029321533,0.0012217305,0.0061086523,15.0,0.0123,-0.65749997,9.7845,0.0128,-0.103099994,0.1837,-0.030052999,-0.014813,0.423864,2017-04-08 16:52:28,79.47297392121692
-0.047884032,-0.92895025,10.362105,0.02687807,0.014660766,0.008552114,15.0,-0.0099,-0.6268,9.7865,0.010199999,-0.0255,-0.0052,-0.029374,-0.012591,0.417574,2017-04-08 16:52:29,78.77788588566582
-0.009576807,-0.6799533,10.170568,0.028099801,0.002443461,0.008552114,12.0,0.0208,-0.6587,9.7844,-0.024999999,5.9999997E-4,0.0069,-0.030004,-0.015422,0.426545,2017-04-08 16:52:30,55.83488204795436
0.0,-0.6799533,10.180145,0.029321533,0.002443461,0.0061086523,12.0,0.4055,-0.63629997,9.7775,-0.3654,-0.0155,0.0117999995,-0.019044,-0.032658,0.483266,2017-04-08 16:52:31,65.48315888729805
0.009576807,-0.6895301,10.170568,0.030543262,0.0012217305,0.0061086523,12.0,0.27429998,-0.5212,9.788899,-0.2604,-0.1337,-0.0077,-0.017973,-0.024027,0.468749,2017-04-08 16:52:32,66.26044278220586
-0.019153614,-0.6799533,10.170568,0.030543262,0.0036651916,0.0061086523,10.0,0.0637,-0.68219995,9.782599,-0.049999997,0.0251,0.0088,-0.030137,-0.017713,0.423998,2017-04-08 16:52:33,67.69743038687109
-0.038307227,-0.7182605,10.141838,0.02687807,0.0012217305,0.0036651916,15.0,0.0556,-1.5163,9.688499,-0.096999995,0.8786,0.1064,-0.066101,-0.033945,0.428041,2017-04-08 16:52:34,65.34451563060105
0.047884032,-0.6607997,10.160992,0.03176499,0.002443461,0.0036651916,15.0,-9.0E-4,-0.75299996,9.777599,0.0828,0.0945,-0.024699999,-0.03522,-0.015877,0.421655,2017-04-08 16:52:35,60.88434966564077
0.019153614,-0.6799533,10.160992,0.029321533,0.002443461,0.007330383,15.0,0.0047,-0.6691,9.7837,-0.0049,0.029399998,-0.0112,-0.03042,-0.015491,0.447144,2017-04-08 16:52:36,63.42168193194651
0.009576807,-0.6895301,10.160992,0.028099801,0.002443461,0.0061086523,12.0,0.2698,-0.4103,9.7943,-0.2625,-0.23349999,-0.0122,-0.012714,-0.021808,0.48629498,2017-04-08 16:52:37,45.266465784772485
0.019153614,-0.6799533,10.160992,0.029321533,0.002443461,0.004886922,15.0,0.3188,-0.42679998,9.7921,-0.32189998,-0.2324,-0.0199,-0.009256,-0.025521,0.54844,2017-04-08 16:52:38,62.57856364767268
0.0,-0.6799533,10.160992,0.029321533,0.002443461,0.004886922,15.0,0.0927,-0.69189996,9.7817,-0.0995,0.0466,-0.0186,-0.029948,-0.019609,0.428279,2017-04-08 16:52:39,58.48990187506764
0.0,-0.6799533,10.170568,0.028099801,0.0012217305,0.0061086523,15.0,0.0165,-0.6534,9.7848,-0.0202,0.0049,-2.9999999E-4,-0.030081,-0.015067,0.417221,2017-04-08 16:52:40,46.70835550938878
0.02873042,-0.6895301,10.170568,0.029321533,0.0036651916,0.0061086523,15.0,0.3612,-0.39839998,9.7918,-0.0098,-0.0084,-4.9999997E-4,-0.029968,-0.014366,0.417424,2017-04-08 16:52:41,46.80598820941576
0.0,-0.6799533,10.160992,0.028099801,0.002443461,0.0061086523,15.0,0.0572,-0.5839,9.789,-0.0466,-0.1223,-0.0166,-0.023824,-0.015272,0.454452,2017-04-08 16:52:42,49.9374880450207
0.019153614,-0.6895301,10.180145,0.030543262,0.002443461,0.0061086523,15.0,-0.1112,-0.52099997,9.7921,0.115499996,-0.154,-0.0374,-0.025527,-0.009321,0.531372,2017-04-08 16:52:43,50.74789471570581
-0.019153614,-0.6703765,10.170568,0.029321533,0.002443461,0.0061086523,15.0,0.0492,-0.6972,9.7817,-0.0468,0.0337,0.0042999997,-0.031066,-0.017512,0.42824,2017-04-08 16:52:44,51.32605803473658
0.038307227,-0.6991069,10.160992,0.028099801,0.0012217305,0.0061086523,15.0,0.0166,-0.6599,9.7844,0.0121,-0.012399999,0.0213,-0.030127,-0.01505,0.423919,2017-04-08 16:52:45,53.70613829638315
0.019153614,-0.6703765,10.189722,0.029321533,0.002443461,0.007330383,15.0,0.0072999997,-0.86499995,9.7684,-0.0101,0.24149999,0.0201,-0.039779,-0.019147,0.425589,2017-04-08 16:52:46,53.59777280134764
0.009576807,-0.6799533,10.160992,0.028099801,0.0012217305,0.0061086523,15.0,0.16219999,-0.61469996,9.785999,-0.3615,0.0481,0.012,-0.018833,-0.046508,0.431066,2017-04-08 16:52:47,47.59960705875344
0.02873042,-0.7086837,10.170568,0.029321533,0.0036651916,0.007330383,12.0,0.1152,-0.7635,9.7761,-0.0903,0.0874,0.0103,-0.032165,-0.021793,0.438781,2017-04-08 16:52:48,45.5866712862439
0.0,-0.6895301,10.180145,0.029321533,0.002443461,0.0061086523,12.0,0.0265,-0.6667,9.783899,-1.0E-4,0.0092,0.0018999999,-0.030297,-0.015511,0.419224,2017-04-08 16:52:49,48.698577552066425
0.02873042,-0.6895301,10.160992,0.030543262,0.0012217305,0.0061086523,15.0,-0.2022,-0.4186,9.7956,0.2102,-0.24149999,-0.030599998,-0.023649,-0.001746,0.500049,2017-04-08 16:52:50,52.327147702202325
0.02873042,-0.6799533,10.180145,0.029321533,0.0036651916,0.004886922,15.0,0.0117,-1.0072,9.7547,0.0072999997,0.38009998,0.021599999,-0.045688,-0.023621,0.448195,2017-04-08 16:52:51,46.23171149138015
0.009576807,-0.6799533,10.170568,0.030543262,0.002443461,0.007330383,15.0,0.2366,-0.012399999,9.8036995,-0.2617,-0.71029997,-0.0288,0.006626,-0.010105,0.592237,2017-04-08 16:52:52,53.11173522632812
0.02873042,-0.6895301,10.160992,0.028099801,0.002443461,0.0061086523,15.0,0.1468,-0.6574,9.7834,-0.1363,-7.0E-4,-0.0081,-0.027254,-0.021425,0.436818,2017-04-08 16:52:53,50.700634615070385
0.05746084,-0.6607997,10.170568,0.029321533,-0.008552114,0.008552114,15.0,0.044999998,-0.6698,9.7836,-0.053799998,0.0222,-0.0082,-0.030021999,-0.016806,0.419772,2017-04-08 16:52:54,48.97776984058805
0.02873042,-0.7182605,10.160992,0.030543262,0.0012217305,0.004886922,15.0,0.1477,-0.5441,9.7904,-0.15359999,-0.1405,-0.0063,-0.021543,-0.020188,0.45698,2017-04-08 16:52:55,47.80514758404503
0.019153614,-0.6991069,10.160992,0.028099801,0.0012217305,0.0036651916,15.0,0.055099998,-0.66459996,9.783899,-0.0572,-0.015199999,4.0E-4,-0.029426,-0.016999999,0.427226,2017-04-08 16:52:56,50.91441627203213
-0.019153614,-0.6703765,10.141838,0.030543262,0.004886922,0.004886922,12.0,0.0262,-0.6796,9.783,-0.026899999,4.0E-4,-0.009699999,-0.030931,-0.015583,0.415872,2017-04-08 16:52:57,43.69409414028545
0.019153614,-0.6991069,10.170568,0.028099801,0.0012217305,0.0061086523,12.0,0.285,-0.6594,9.7802,-0.29659998,-0.010199999,-0.015299999,-0.024416,-0.027646,0.442077,2017-04-08 16:52:58,50.83358286397895
0.009576807,-0.7086837,10.151415,0.029321533,0.002443461,0.0061086523,15.0,0.0663,-0.6696,9.7835,-0.0687,0.0106,-9.999999E-4,-0.029569,-0.017464,0.421302,2017-04-08 16:52:59,41.77979105593473
0.0,-0.7086837,10.170568,0.029321533,0.002443461,0.0061086523,15.0,-0.0069999998,-0.64059997,9.7856,0.0079,-0.0196,-0.0327,-0.029845,-0.013321,0.417463,2017-04-08 16:53:00,44.55314710486752
0.038307227,-0.7086837,10.160992,0.028099801,-0.0012217305,0.0036651916,15.0,-0.0137,-0.6455,9.785299,0.0072,0.012,-0.0325,-0.029965,-0.013446,0.432625,2017-04-08 16:53:01,48.99207531597103
0.009576807,-0.6895301,10.151415,0.029321533,0.0,0.004886922,15.0,-0.18969999,-0.4563,9.7941,0.1847,-0.1936,-7.0E-4,-0.030717,-0.015033,0.423858,2017-04-08 16:53:02,52.54129612360507
0.0,-0.6895301,10.180145,0.032986723,0.004886922,0.004886922,15.0,-0.0117,-0.6487,9.7851,0.0267,-0.0651,0.047199998,-0.028725,-0.016174,0.499586,2017-04-08 16:53:03,47.63302382551971
0.038307227,-0.6895301,10.141838,0.030543262,0.002443461,0.0036651916,15.0,0.0446,-0.7963,9.774099,-0.0418,0.1244,0.0191,-0.035404,-0.020072,0.443366,2017-04-08 16:53:04,51.69109197068801
0.0,-0.6991069,10.151415,0.030543262,0.002443461,0.0061086523,12.0,-0.0674,-0.604,9.7877,0.0774,-0.0744,-0.0143,-0.029238,-0.008658,0.414465,2017-04-08 16:53:05,40.30033464829267
-0.038307227,-0.6799533,10.151415,0.03176499,0.0036651916,0.0061086523,12.0,-0.129,-0.52059996,9.7919,0.1853,-0.0196,0.0117999995,-0.026574,-0.006502,0.46414,2017-04-08 16:53:06,41.30515959702517
-0.038307227,-0.7182605,10.199299,0.036651913,-0.0012217305,0.007330383,12.0,0.0143,-0.6081,9.7877,-0.0178,-0.009699999,-0.0142,-0.025636,-0.01715,0.531942,2017-04-08 16:53:07,41.49987303495746
-0.019153614,-0.6895301,10.180145,0.028099801,0.002443461,0.007330383,12.0,0.094,-0.7525,9.7772,-0.0778,0.0739,0.0058,-0.032439,-0.021096,0.436692,2017-04-08 16:53:08,58.66251979820525
0.019153614,-0.7086837,10.170568,0.030543262,0.002443461,0.0061086523,12.0,0.0416,-0.6986,9.7816,-0.0501,0.046299998,0.021599999,-0.031283,-0.016674,0.42205,2017-04-08 16:53:09,44.71458696480826
0.019153614,-0.7086837,10.151415,0.029321533,0.0012217305,0.004886922,12.0,0.0011,-0.65929997,9.7844,-9.999999E-4,0.0063,0.0278,-0.028306,-0.018130999,0.535469,2017-04-08 16:53:10,45.524212194679706
0.009576807,-0.7182605,10.151415,0.029321533,0.002443461,0.004886922,12.0,-0.2384,-0.39589998,9.7957,0.22909999,-0.2563,0.0069,-0.028276,-0.018163,0.535401,2017-04-08 16:53:11,56.12246338577308
-0.009576807,-0.6799533,10.160992,0.029321533,0.0036651916,0.004886922,15.0,-0.117,-0.52059996,9.7921,0.22909999,-0.2563,0.0069,-0.028276,-0.018163,0.535401,2017-04-08 16:53:12,60.3164745234574
0.009576807,-0.6607997,10.199299,0.028099801,0.0061086523,0.0061086523,12.0,0.0481,-0.73719996,9.7787,-0.049799997,0.0679,0.014099999,-0.029121,-0.023939,0.58294,2017-04-08 16:53:13,44.93478237435142
0.019153614,-0.6991069,10.170568,0.029321533,0.0,0.007330383,15.0,0.0704,-0.7413,9.778299,-0.0731,0.0727,0.014599999,-0.030787,-0.022267,0.506401,2017-04-08 16:53:14,50.52405927602402
0.009576807,-0.6991069,10.160992,0.029321533,0.002443461,0.007330383,15.0,0.1112,-0.8041,9.7729,-0.1056,0.1428,0.038399998,-0.03384,-0.023895,0.459024,2017-04-08 16:53:15,47.04925557629963
0.019153614,-0.6895301,10.141838,0.029321533,0.002443461,0.007330383,15.0,-0.015199999,-0.6552,9.784699,-0.0448,0.063,0.0243,-0.032884,-0.020644,0.432408,2017-04-08 16:53:16,52.6592271661509
0.009576807,-0.6895301,10.170568,0.030543262,0.002443461,0.004886922,15.0,0.1866,-0.7675,9.7747,-0.2057,0.12529999,0.0396,-0.030643,-0.026892,0.449592,2017-04-08 16:53:17,47.598403008831376
0.0,-0.6703765,10.160992,0.029321533,0.002443461,0.0061086523,12.0,0.0401,-0.67759997,9.7831,-0.0436,0.030199999,-0.018099999,-0.030534,-0.016339,0.418636,2017-04-08 16:53:18,60.34006629031448
-0.019153614,-0.6607997,10.160992,0.030543262,-0.002443461,0.0061086523,12.0,0.1778,-0.5146,9.7915,-0.1849,-0.1317,-0.017199999,-0.0201,-0.01914,0.415015,2017-04-08 16:53:19,51.840385701940264
-0.019153614,-0.6703765,10.084377,0.021991149,-0.03176499,0.008552114,15.0,0.0607,-0.7518,9.7775,-0.099,0.12969999,-0.267,-0.03351,-0.019434,0.423138,2017-04-08 16:53:20,50.306537946036514
0.019153614,-0.6895301,10.160992,0.030543262,0.004886922,0.007330383,15.0,0.0112,-0.682,9.7829,-0.0189,0.0026999998,-0.0082,-0.031412,-0.014893,0.416424,2017-04-08 16:53:21,48.074055068101174
-0.009576807,-0.6799533,10.180145,0.028099801,0.0012217305,0.0061086523,15.0,0.0025,-0.6584,9.7845,-0.0055,-0.0115,-0.0099,-0.030321,-0.01446,0.426763,2017-04-08 16:53:22,44.6200239764299
0.019153614,-0.6991069,10.151415,0.029321533,0.002443461,0.004886922,15.0,-5.9999997E-4,-0.65889996,9.7844,0.0016999999,-0.0128,-0.0015,-0.030571999,-0.013871,0.414376,2017-04-08 16:53:23,53.17186305257883
0.009576807,-0.6895301,10.151415,0.030543262,0.002443461,0.004886922,15.0,0.0016,-0.6809,9.7829,-0.0104,0.0050999997,-0.010799999,-0.030518,-0.013914,0.415481,2017-04-08 16:53:24,59.22384597239806
0.009576807,-0.6895301,10.160992,0.030543262,0.002443461,0.004886922,15.0,-0.1691,-0.4743,9.7937,0.16319999,-0.19919999,-0.0301,-0.024375,-0.008096,0.615537,2017-04-08 16:53:25,52.04261405042289
0.009576807,-0.6895301,10.160992,0.029321533,0.002443461,0.004886922,15.0,0.0903,-0.7622,9.7765,-0.063999996,0.108399995,-0.031999998,-0.032931,-0.022254,0.447683,2017-04-08 16:53:26,65.57669612407403
0.0,-0.6991069,10.160992,0.029321533,0.002443461,0.0061086523,15.0,0.030599998,-0.69589996,9.781799,-0.022,0.0165,-0.0072,-0.031509,-0.01644,0.422822,2017-04-08 16:53:27,51.41132233020514
0.0,-0.6895301,10.170568,0.028099801,0.002443461,0.004886922,15.0,0.24419999,-0.5027,9.7907,-0.2437,-0.1647,-0.0066,-0.017698,-0.02233,0.433102,2017-04-08 16:53:28,48.575767686336526
-0.009576807,-0.7086837,10.180145,0.029321533,0.002443461,0.004886922,15.0,0.0875,-0.6813,9.782499,-0.096099995,0.0265,-0.0173,-0.029496,-0.018928,0.428121,2017-04-08 16:53:29,50.28376367782349
0.009576807,-0.6895301,10.132261,0.028099801,0.0036651916,0.007330383,15.0,0.7693,-0.138,9.7754,-0.98179996,0.0958,0.0481,-0.014236,-0.061493,0.432023,2017-04-08 16:53:30,49.82670406309809
0.02873042,-0.6991069,10.160992,0.030543262,0.0036651916,0.007330383,15.0,0.34129998,0.0037999998,9.8007,-0.2898,-0.6263,-0.018,0.009478,-0.013319,0.685816,2017-04-08 16:53:31,52.93182371693062
0.038307227,-0.6895301,10.160992,0.030543262,0.002443461,0.008552114,15.0,-0.024699999,-1.0058,9.7548,0.0354,0.34809998,0.0207,-0.081564,-0.089857,0.683419,2017-04-08 16:53:32,45.87845725960979
0.0,-0.6991069,10.160992,0.029321533,0.002443461,0.0061086523,15.0,-0.0316,-0.6692,9.7837,0.023,-0.0013,5.9999997E-4,-0.023731,-0.024601,0.751247,2017-04-08 16:53:33,60.58584425421654
0.019153614,-0.7086837,10.160992,0.028099801,0.002443461,0.0061086523,17.0,0.25349998,-0.9999,9.7522,-0.2661,0.3803,0.0379,-0.039384,-0.038069,0.486521,2017-04-08 16:53:34,46.12805747434591
0.019153614,-0.6895301,10.160992,0.029321533,0.002443461,0.007330383,15.0,0.0647,-0.73359996,9.7789,-0.0298,0.0819,-0.0034999999,-0.032595,-0.018975,0.422174,2017-04-08 16:53:35,47.66114647580322
-0.047884032,-0.6991069,10.151415,0.029321533,0.0036651916,0.004886922,15.0,0.038399998,-0.6992,9.7816,-0.0358,0.037699997,0.0019999999,-0.031279,-0.017266,0.434159,2017-04-08 16:53:36,45.91927026445953
0.009576807,-0.6991069,10.160992,0.029321533,0.002443461,0.004886922,15.0,0.0242,-0.6993,9.7816,-0.0251,0.0404,-0.027199998,-0.031279,-0.017266,0.434159,2017-04-08 16:53:37,45.12271157526029
-0.009576807,-0.6799533,10.160992,0.029321533,0.0036651916,0.004886922,17.0,-0.0178,-0.6333,9.786099,0.0356,-0.0442,-0.0219,-0.028983999,-0.014096,0.463878,2017-04-08 16:53:38,57.46287434064162
0.019153614,-0.6991069,10.160992,0.028099801,0.002443461,0.0061086523,17.0,-0.076299995,-0.5825,9.789,0.5809,-0.6125,-0.0167,-0.031595,-0.017633,0.433691,2017-04-08 16:53:39,52.72263706281357
0.0,-0.6895301,10.160992,0.030543262,0.002443461,0.004886922,17.0,0.7269,0.36519998,9.7727995,-0.75549996,-1.066,0.0015,0.038339,-0.015918,0.652519,2017-04-08 16:53:40,42.18536106944157
0.009576807,-0.6895301,10.160992,0.028099801,0.0012217305,0.0061086523,17.0,0.442,-0.40489998,9.7883,-0.42839998,-0.2656,-0.024799999,-0.004917,-0.029749,0.593217,2017-04-08 16:53:41,50.15724867584551
0.0,-0.6991069,10.151415,0.029321533,0.0036651916,0.004886922,17.0,0.2359,-0.8142,9.769899,-0.24149999,0.14,0.0224,-0.030735,-0.028571,0.461489,2017-04-08 16:53:42,48.90492207637359
0.019153614,-0.6895301,10.160992,0.029321533,0.0036651916,0.0061086523,17.0,0.011899999,-0.6527,9.7848,-0.0122,-0.0083,-4.9999997E-4,-0.029564,-0.015401,0.445395,2017-04-08 16:53:43,45.82130884580462
0.009576807,-0.6895301,10.160992,0.030543262,0.0012217305,0.007330383,17.0,0.0084,-0.6773,9.783199,-0.0088,-0.0026999998,0.0011,-0.03016,-0.016908,0.47733,2017-04-08 16:53:44,43.14825142287508
0.009576807,-0.7278373,10.180145,0.030543262,0.002443461,0.0061086523,15.0,0.0358,-0.69409996,9.781899,-0.0372,0.043399997,0.0115,-0.031152999,-0.016477,0.424236,2017-04-08 16:53:45,45.35534861998563
0.0,-0.6991069,10.170568,0.029321533,0.0036651916,0.007330383,15.0,0.018299999,-0.66749996,9.7838,-0.0402,0.049599998,0.0014,-0.029767,-0.016486,0.46008798,2017-04-08 16:53:46,44.2995316872813
-0.009576807,-0.6991069,10.160992,0.028099801,0.002443461,0.007330383,15.0,0.21319999,-0.62939996,9.7841,-0.1716,-0.0326,0.0187,-0.025089,-0.022406999,0.41726398,2017-04-08 16:53:47,43.736805390581026
0.019153614,-0.6991069,10.160992,0.029321533,0.002443461,0.004886922,15.0,0.0541,-0.6552,9.7845,-0.0526,-0.0279,0.054199997,-0.02929,-0.016294,0.417482,2017-04-08 16:53:48,49.188534525886716
-0.02873042,-0.7086837,10.151415,0.030543262,0.0061086523,0.0061086523,17.0,0.0212,-0.6533,9.7848,0.0163,-0.030299999,0.0343,-0.029792,-0.015023,0.419513,2017-04-08 16:53:49,43.257303886648614
0.0,-0.7086837,10.160992,0.028099801,0.002443461,0.0061086523,15.0,-0.0019999999,-0.6915,9.7822,0.011899999,-0.0206,0.037,-0.031896,-0.014846,0.422517,2017-04-08 16:53:50,51.595898935998854
0.0,-0.7278373,10.170568,0.029321533,0.0012217305,0.0061086523,12.0,0.498,-0.6735,9.7708,-0.4619,-0.015299999,0.0556,-0.020185,-0.037685,0.427718,2017-04-08 16:53:51,52.13069828677778
0.009576807,-0.7278373,10.160992,0.029321533,0.0012217305,0.007330383,12.0,0.0633,-0.6647,9.7838,-0.060799997,-0.0222,-0.0026999998,-0.029595999,-0.017069,0.421782,2017-04-08 16:53:52,53.2822609926015
-0.02873042,-0.7374141,10.170568,0.032986723,0.0036651916,0.0061086523,12.0,-0.0092,-0.673,9.7835,-0.0786,-0.0651,-0.0025,-0.031272,-0.014189,0.425439,2017-04-08 16:53:53,41.199187739952194
-0.009576807,-0.7086837,10.160992,0.029321533,0.0036651916,0.0061086523,12.0,0.011299999,-0.7227,9.7799,-0.0144,0.031799998,0.0196,-0.032548,-0.018996,0.474296,2017-04-08 16:53:54,49.400654586185084
-0.009576807,-0.7182605,10.170568,0.029321533,0.0036651916,0.0061086523,12.0,-4.9999997E-4,-0.7082,9.781,-0.0123,0.027099999,0.0095,-0.030704,-0.019786,0.538476,2017-04-08 16:53:55,47.962756241444524
-0.019153614,-0.7182605,10.151415,0.029321533,0.0036651916,0.004886922,12.0,0.1643,-0.7902,9.7733,-0.17889999,0.089099996,0.0174,-0.03239,-0.025443,0.444263,2017-04-08 16:53:56,50.03867815286421
-0.019153614,-0.7182605,10.160992,0.030543262,0.0012217305,0.004886922,12.0,0.0765,-0.4121,9.7976,-0.090799995,-0.3342,-0.0187,-0.017439,-0.012365,0.419717,2017-04-08 16:53:57,50.95715081395128
-0.05746084,-0.7757214,10.218452,0.021991149,0.0061086523,0.0061086523,15.0,-0.0481,-0.601,9.788,0.0011999999,-0.1952,-0.0468,-0.027691,-0.013385,0.505435,2017-04-08 16:53:58,46.94697696000799
-0.02873042,-0.7086837,10.151415,0.030543262,0.0036651916,0.004886922,19.0,0.037299998,-0.72969997,9.7793,-0.0486,0.056599997,0.0021,-0.032895,-0.019494,0.440898,2017-04-08 16:53:59,52.93801255044917
0.0,-0.7182605,10.160992,0.029321533,0.002443461,0.0061086523,12.0,0.032899998,-0.7175,9.7803,-0.034199998,0.029399998,7.0E-4,-0.032291,-0.017422,0.433125,2017-04-08 16:54:00,45.036891315923555
0.0,-0.7086837,10.151415,0.028099801,0.0036651916,0.0061086523,17.0,-0.0659,-0.6053,9.7877,-0.01,0.0207,-0.0013,-0.031365998,-0.015341,0.433811,2017-04-08 16:54:02,43.978589689993946
-0.019153614,-0.6991069,10.160992,0.029321533,0.0012217305,0.0061086523,19.0,0.30879998,-0.58059996,9.7845,-0.7363,-0.0839,0.0191,-0.011145,-0.046041,0.446983,2017-04-08 16:54:03,50.23352531369645
-0.009576807,-0.7086837,10.160992,0.029321533,0.002443461,0.0061086523,19.0,-0.099599995,-0.5003,9.7933,0.1487,-0.2563,-0.035099998,-0.011145,-0.046041,0.446983,2017-04-08 16:54:04,51.99885619651268
-0.009576807,-0.6991069,10.189722,0.03176499,0.0012217305,0.0061086523,19.0,-0.100999996,-0.5233,9.7921,0.1572,-0.2557,-0.024699999,-0.023146,-0.014259,0.676213,2017-04-08 16:54:05,53.68811205149718
0.019153614,-0.7278373,10.170568,0.028099801,0.0012217305,0.0061086523,19.0,0.1741,-0.8666,9.7667,-0.1972,0.2069,0.0074,-0.034597,-0.028959,0.47769699,2017-04-08 16:54:06,55.311964592847545
-0.019153614,-0.7182605,10.170568,0.029321533,0.002443461,0.004886922,19.0,-0.1182,-0.546,9.7907,0.1144,-0.1391,-0.0095999995,-0.026888,-0.010478,0.537876,2017-04-08 16:54:07,54.94103195403455
-0.009576807,-0.7182605,10.151415,0.029321533,0.0012217305,0.0061086523,19.0,-0.068799995,-0.598,9.788099,0.0665,-0.079799995,0.0039999997,-0.028877,-0.01044,0.4451,2017-04-08 16:54:08,54.02926139483834
-0.009576807,-0.7182605,10.141838,0.030543262,0.002443461,0.0061086523,19.0,0.0144,-0.6972,9.781799,-0.0149,-0.0022,0.0201,-0.031808,-0.016031,0.430029,2017-04-08 16:54:09,46.41327565103004
-0.019153614,-0.6703765,10.160992,0.030543262,0.002443461,0.007330383,15.0,-0.059299998,-0.6008,9.788,0.0543,-0.0646,-0.0053999997,-0.029383,-0.011381,0.429972,2017-04-08 16:54:10,42.7444276154081
-0.009576807,-0.7182605,10.151415,0.030543262,0.002443461,0.004886922,15.0,0.19309999,-0.6351,9.7841,-0.2003,-0.0372,0.0177,-0.025046,-0.022818,0.427537,2017-04-08 16:54:11,50.4216902429355
-0.009576807,-0.7182605,10.180145,0.028099801,0.0012217305,0.004886922,17.0,0.0473,-0.7141,9.780399,-0.0396,0.0131,9.999999E-4,-0.031421,-0.017365,0.435136,2017-04-08 16:54:12,52.691201893713675
-0.009576807,-0.7086837,10.160992,0.03176499,0.0012217305,0.0061086523,17.0,0.0235,-0.708,9.781,-0.0242,0.0381,0.0321,-0.031906,-0.016983,0.440026,2017-04-08 16:54:13,53.413956028597426
-0.02873042,-0.7278373,10.160992,0.030543262,0.0036651916,0.007330383,17.0,0.0117999995,-0.69159997,9.7822,-0.023,0.0023999999,-0.0089,-0.031651,-0.015614,0.426707,2017-04-08 16:54:14,54.09842061919271
0.009576807,-0.7182605,10.160992,0.028099801,0.0012217305,0.0061086523,17.0,0.0128,-0.6623,9.7842,-0.0079,-0.018099999,-0.0018999999,-0.029857,-0.014361,0.424252,2017-04-08 16:54:15,47.91544602593859
-0.06703765,-0.7182605,10.151415,0.028099801,0.0012217305,0.0061086523,15.0,0.3005,-0.5498,9.7866,-0.312,-0.1449,-0.0037,-0.018302,-0.026204,0.444511,2017-04-08 16:54:16,48.57314877993357
-0.019153614,-0.6895301,10.170568,0.029321533,0.0036651916,0.007330383,12.0,-0.0072,-0.64,9.7857,0.092999995,-0.30539998,-0.0262,-0.018302,-0.026204,0.444511,2017-04-08 16:54:17,53.312358458686184
0.05746084,-0.7278373,10.151415,0.029321533,0.0,0.007330383,12.0,0.18679999,-0.7967,9.7724,-0.1387,0.1081,8.0E-4,-0.032067,-0.02639,0.44759,2017-04-08 16:54:18,48.96642594745564
-0.009576807,-0.6991069,10.151415,0.028099801,0.007330383,0.0036651916,15.0,0.0295,-0.69619995,9.781799,-0.0504,-0.041699998,0.011,-0.031367,-0.016737,0.432655,2017-04-08 16:54:19,42.96617755256119
0.019153614,-0.7086837,10.160992,0.029321533,0.002443461,0.004886922,15.0,0.0361,-0.6854,9.782599,-0.0277,0.0155,-0.0191,-0.030938,-0.016397,0.420505,2017-04-08 16:54:20,44.038399226044255
0.0,-0.7182605,10.151415,0.028099801,0.0012217305,0.0061086523,15.0,0.014599999,-0.66429996,9.7841,0.0042999997,-0.0154,-0.0311,-0.030387,-0.014931,0.422196,2017-04-08 16:54:21,51.21779623477248
0.019153614,-0.6991069,10.170568,0.03176499,0.002443461,0.007330383,15.0,0.0154,-0.6748,9.783299,0.0133,-0.0050999997,0.0087,-0.030896,-0.015215,0.420861,2017-04-08 16:54:22,39.6020768728444
0.019153614,-0.6991069,10.180145,0.029321533,0.002443461,0.007330383,15.0,0.0134,-0.68009996,9.783,-0.0139,0.01,0.0105,-0.031119,-0.015186,0.420857,2017-04-08 16:54:23,39.56311030042122
0.02873042,-0.7086837,10.160992,0.030543262,0.002443461,0.007330383,15.0,0.72639996,-0.4639,9.7685995,-0.7892,-0.2074,0.0127,-0.002679,-0.047624,0.453848,2017-04-08 16:54:24,40.36337737988349
0.02873042,-0.7374141,10.151415,0.028099801,0.002443461,0.0061086523,15.0,-0.024899999,-0.5178,9.7929,0.025899999,-0.1584,-0.0095,-0.024427,-0.010033,0.426389,2017-04-08 16:54:25,49.07210415023176
0.019153614,-0.7278373,10.151415,0.028099801,0.002443461,0.0061086523,15.0,0.54649997,-0.4592,9.7806,-0.54789996,-0.21939999,0.0030999999,-0.005688,-0.035966,0.514667,2017-04-08 16:54:26,43.55785326334309
0.019153614,-0.7086837,10.151415,0.028099801,0.002443461,0.0061086523,15.0,0.23609999,-0.7066,9.778299,-0.17099999,0.014099999,-0.0165,-0.025916,-0.028345,0.446051,2017-04-08 16:54:27,52.28308229262688
0.019153614,-0.7182605,10.151415,0.030543262,0.002443461,0.007330383,15.0,-0.0157,-0.624,9.786699,0.0457,-0.0581,0.0066,-0.024366,-0.020747,0.664184,2017-04-08 16:54:28,43.87971980924458
0.02873042,-0.7086837,10.160992,0.030543262,0.0012217305,0.0061086523,15.0,0.1516,-0.8878,9.7651,-0.1293,0.2385,0.0018,-0.036033,-0.028551,0.479657,2017-04-08 16:54:29,47.50160984269733
0.047884032,-0.7374141,10.180145,0.032986723,0.0012217305,0.007330383,12.0,0.0734,-0.74909997,9.777699,-0.0721,0.076799996,0.0058,-0.032807,-0.019973,0.433918,2017-04-08 16:54:30,50.53978223411736
0.019153614,-0.7182605,10.160992,0.029321533,0.002443461,0.0061086523,12.0,-0.048,-0.6064,9.7877,-0.0422,0.0504,-0.024899999,-0.032702,-0.019641,0.430763,2017-04-08 16:54:31,49.300819213012026
0.02873042,-0.7182605,10.160992,0.03176499,0.0,0.0061086523,12.0,-0.048,-0.6064,9.7877,3.2307,3.6852,-12.9817,0.011814,-0.025716,0.48999,2017-04-08 16:54:32,49.71290444839593
0.02873042,-0.7086837,10.160992,0.029321533,0.0012217305,0.0061086523,12.0,0.20109999,-0.6324,9.7841,-0.2616,-0.068799995,-0.0095,-0.018986,-0.028065,0.618857,2017-04-08 16:54:33,49.86412313230501
0.02873042,-0.7086837,10.160992,0.029321533,0.0012217305,0.004886922,12.0,0.14649999,-1.2284,9.7282,-0.3263,-0.1766,-0.0128999995,-0.018986,-0.028065,0.618857,2017-04-08 16:54:34,47.833367248451914
0.019153614,-0.6895301,10.160992,0.029321533,0.0012217305,0.004886922,12.0,-0.13499999,-0.34989998,9.799399,-0.22639999,-0.118999995,0.039699998,-0.018986,-0.028065,0.618857,2017-04-08 16:54:35,69.37544849764058
0.02873042,-0.6991069,10.160992,0.030543262,0.002443461,0.0061086523,15.0,0.35079998,-1.0045999,9.7487,-0.43539998,0.42659998,0.0589,-0.01702,-0.04968,0.787379,2017-04-08 16:54:36,54.774886993530004
0.038307227,-0.7278373,10.151415,0.030543262,0.0012217305,0.0061086523,12.0,0.17279999,-0.45299998,9.7946,-0.14019999,-0.2356,-0.0211,-0.005465,-0.024155,0.832476,2017-04-08 16:54:37,49.292811856874735
0.05746084,-0.7086837,10.151415,0.029321533,0.0036651916,0.007330383,12.0,-0.0365,0.2649,9.8029995,0.0347,-0.18599999,-0.0105,-0.012699,-0.027281,0.838109,2017-04-08 16:54:38,47.564962488629874
0.02873042,-0.6895301,10.151415,0.028099801,0.0012217305,0.004886922,12.0,0.31739998,-0.90779996,9.759299,-0.3328,0.28579998,0.0209,-0.031279,-0.038623,0.529134,2017-04-08 16:54:39,55.20748095564989
-0.019153614,-0.7374141,10.113108,0.02321288,0.009773844,0.009773844,15.0,0.27969998,-0.69769996,9.777699,-1.2153,0.43109998,0.1267,-0.018151,-0.088152,0.48886,2017-04-08 16:54:40,46.20298017305596
0.009576807,-0.7086837,10.132261,0.030543262,0.0012217305,0.0061086523,15.0,0.8936,0.1433,9.7647,-1.2153,0.43109998,0.1267,-0.018151,-0.088152,0.48886,2017-04-08 16:54:41,54.5386125414523
0.019153614,-0.6895301,10.170568,0.029321533,0.0036651916,0.007330383,12.0,0.4382,-0.84929997,9.7599,-0.4901,0.1892,0.0398,-0.025708,-0.041466,0.51304,2017-04-08 16:54:42,50.5177704707919
0.0,-0.7278373,10.170568,0.030543262,0.002443461,0.0061086523,15.0,0.11,-0.7703,9.7757,-0.115399994,0.0824,-0.0011,-0.032361,-0.023007,0.457979,2017-04-08 16:54:43,50.01698087881614
-0.16280572,-0.82360536,10.132261,0.05375614,-0.05131268,0.004886922,15.0,0.47919998,-0.9059,9.7529,-0.64129996,0.0902,0.0092,-0.029684,-0.041337,0.462819,2017-04-08 16:54:44,53.028534427609124
0.02873042,-0.7182605,10.141838,0.028099801,0.002443461,0.007330383,15.0,0.114999995,-0.741,9.7779,-0.107099995,0.046299998,0.0053,-0.031489,-0.021014,0.433584,2017-04-08 16:54:45,54.34462319827294
0.009576807,-0.7278373,10.141838,0.029321533,0.0036651916,0.0061086523,15.0,0.011,-0.6838,9.7827,-0.0101,-0.0067,0.028199999,-0.031348,-0.015266,0.42467,2017-04-08 16:54:46,50.943157013806264
-0.019153614,-0.7086837,10.151415,0.029321533,0.002443461,0.007330383,15.0,-0.0037,-0.6925,9.7821,0.0037999998,0.0023999999,0.0218,-0.0321,-0.014804,0.42387,2017-04-08 16:54:47,65.06998591289369
0.009576807,-0.7086837,10.151415,0.029321533,0.002443461,0.0061086523,15.0,0.0,-0.67789996,9.7831,0.0,-0.0033,0.0088,-0.031321,-0.014665,0.423869,2017-04-08 16:54:48,50.22171880931515
0.009576807,-0.7182605,10.151415,0.029321533,0.0036651916,0.004886922,15.0,0.4014,-0.5913,9.780499,-0.4161,-0.092999995,0.021399999,-0.016875999,-0.032357,0.473813,2017-04-08 16:54:49,52.02573456815337
-0.009576807,-0.7182605,10.151415,0.029321533,0.002443461,0.0061086523,15.0,0.5891,-0.4141,9.7801,0.0849,-0.2138,-0.0222,-0.025179,-0.026553,0.449839,2017-04-08 16:54:50,47.81716923531856
0.009576807,-0.7086837,10.141838,0.029321533,0.002443461,0.0061086523,12.0,0.2162,-0.84959996,9.7673,-0.1945,0.1241,0.031999998,-0.021909,-0.021129,0.626707,2017-04-08 16:54:51,48.51814165090275
0.0,-0.7086837,10.160992,0.030543262,0.0012217305,0.0061086523,12.0,-0.0349,-0.68119997,9.7828,-0.1945,0.1241,0.031999998,-0.021909,-0.021129,0.626707,2017-04-08 16:54:52,46.081721337470334
-0.009576807,-0.7182605,10.151415,0.029321533,0.0036651916,0.007330383,12.0,-0.0919,-0.5058,9.793099,0.0853,-0.1462,-7.0E-4,-0.021155,-0.016632,0.732876,2017-04-08 16:54:53,51.23316484256971
-0.009576807,-0.7278373,10.170568,0.029321533,0.002443461,0.0061086523,15.0,0.1357,-0.86689997,9.7673,-0.1414,0.1933,0.0162,-0.035375,-0.027468,0.483217,2017-04-08 16:54:54,47.11707603953799
-0.02873042,-0.7182605,10.160992,0.029321533,0.002443461,0.007330383,12.0,0.0699,-0.7985,9.7738,-0.13859999,0.17989999,0.015,-0.035218,-0.024645,0.452583,2017-04-08 16:54:55,47.22684933374424
0.009576807,-0.7182605,10.160992,0.030543262,0.002443461,0.0061086523,12.0,-0.1457,-0.506,9.7925,0.118,-0.1558,-0.0084,-0.035218,-0.024645,0.452583,2017-04-08 16:54:56,52.85017847003949
0.0,-0.7182605,10.151415,0.029321533,0.002443461,0.0061086523,12.0,0.1498,-0.84139997,9.7692995,-0.2041,0.23429999,0.021,-0.032787,-0.030435,0.530019,2017-04-08 16:54:57,44.54496268666509
-0.009576807,-0.6991069,10.170568,0.030543262,0.0012217305,0.0061086523,15.0,-0.0603,-0.6335,9.7859,-0.2094,0.254,0.0319,-0.036859,-0.033414,0.480982,2017-04-08 16:54:58,49.75270928906792
-0.009576807,-0.7182605,10.160992,0.029321533,0.002443461,0.0061086523,15.0,-0.080699995,-0.4781,9.7946,0.0775,-0.2033,-0.0015,-0.022145,-0.011009,0.587926,2017-04-08 16:54:59,49.63138713454691
0.0,-0.7278373,10.141838,0.029321533,0.0036651916,0.004886922,15.0,0.072399996,-0.7414,9.778299,-0.0874,0.066199996,0.0142,-0.032439,-0.019816,0.435521,2017-04-08 16:55:00,52.31526252309223
0.0,-0.7182605,10.151415,0.030543262,0.002443461,0.0061086523,15.0,0.18169999,-0.7032,9.779699,-0.0453,0.0449,0.0117,-0.032074,-0.018199,0.432119,2017-04-08 16:55:01,51.69868612296718
0.0,-0.7182605,10.170568,0.029321533,0.002443461,0.0061086523,15.0,0.0045,-1.0317,9.7522,-0.0137,0.46379998,0.0607,-0.047481,-0.031726,0.544809,2017-04-08 16:55:02,47.004148123583406
0.019153614,-0.6991069,10.170568,0.028099801,0.0,0.0036651916,17.0,0.051599998,-0.6103,9.787499,-0.0241,-0.0826,0.0142,-0.02148,-0.02065,0.590815,2017-04-08 16:55:03,43.8164404543775
0.0,-0.7182605,10.141838,0.030543262,0.0012217305,0.004886922,12.0,-0.105799995,-0.3137,9.801,0.1339,-0.47669998,-0.0018999999,-0.023369,-0.004551,0.553173,2017-04-08 16:55:04,51.979409416893716
-0.009576807,-0.7182605,10.160992,0.029321533,0.002443461,0.0061086523,12.0,0.3101,-0.50119996,9.788899,-0.3218,-0.1859,0.0127,-0.003988,-0.029937,0.741773,2017-04-08 16:55:05,53.18400639096289
0.009576807,-0.7278373,10.160992,0.03176499,0.0012217305,0.0061086523,12.0,0.2883,-0.9077,9.7602,-0.3561,0.24129999,0.0356,-0.03306,-0.034377,0.474966,2017-04-08 16:55:06,47.60958642987085
-0.019153614,-0.7086837,10.160992,0.029321533,0.0012217305,0.0061086523,12.0,-0.18679999,-0.4707,9.7935,0.0438,-0.0742,-0.0047999998,-0.03306,-0.034377,0.474966,2017-04-08 16:55:07,48.86990451976868
-0.05746084,-0.6991069,10.170568,0.029321533,0.002443461,0.007330383,12.0,0.19029999,-0.58059996,9.787499,-0.1971,-0.104499996,0.0056,-0.008042,-0.029899,0.824279,2017-04-08 16:55:08,48.24726520614756
-0.047884032,-0.6991069,10.160992,0.029321533,0.0036651916,0.007330383,12.0,0.30629998,-1.0622,9.7441,-0.292,0.35639998,0.047399998,-0.039713,-0.040125,0.487208,2017-04-08 16:55:09,47.97120312328879
0.047884032,-0.7278373,10.151415,0.028099801,0.0012217305,0.008552114,10.0,0.0431,-0.7424,9.778399,-0.0235,0.0409,0.0325,-0.032971,-0.018784,0.443484,2017-04-08 16:55:10,48.49047117031769
-0.25857377,-0.8810662,10.113108,0.02687807,0.019547688,-0.0036651916,10.0,0.2426,-0.4649,9.7926,-0.1305,-0.1627,0.0279,-0.014409,-0.022555,0.49648,2017-04-08 16:55:11,43.48608852031349
-0.02873042,-0.7182605,10.151415,0.030543262,0.0012217305,0.004886922,15.0,0.1239,-0.71,9.7801,-0.0735,-0.01,0.0316,-0.029603,-0.021367,0.441396,2017-04-08 16:55:12,50.02870714167117
0.0,-0.7182605,10.141838,0.030543262,0.0012217305,0.007330383,15.0,0.031,-0.99469995,9.756,-0.0464,0.3558,0.0535,-0.04569,-0.025167,0.45315,2017-04-08 16:55:13,54.14960176259748
-0.047884032,-0.7086837,10.151415,0.029321533,0.0036651916,0.0061086523,15.0,0.0372,-0.7752,9.7758,-0.0314,0.0799,0.0150999995,-0.034065,-0.019409,0.456929,2017-04-08 16:55:14,49.95853109685371
0.0,-0.7086837,10.151415,0.028099801,0.0,0.0036651916,15.0,0.0381,-0.754,9.7775,-0.069,0.076299995,0.0139999995,-0.033528,-0.018585,0.442766,2017-04-08 16:55:15,50.01149818367285
-0.019153614,-0.7086837,10.151415,0.029321533,0.002443461,0.007330383,15.0,-0.085599996,-0.6004,9.7878,0.0692,-0.0927,-0.0064,-0.029425,-0.009564,0.440023,2017-04-08 16:55:16,48.565678625154625
-0.019153614,-0.6991069,10.170568,0.029321533,0.0012217305,0.0061086523,15.0,-0.099199995,-0.5897,9.7883,0.0932,-0.1039,-0.0069,-0.028336,-0.01199,0.525905,2017-04-08 16:55:17,43.13907845733921
-0.019153614,-0.7086837,10.141838,0.030543262,0.002443461,0.0061086523,15.0,0.0449,-0.74549997,9.7781,-0.058599997,0.0596,-0.0053999997,-0.032983,-0.018268,0.439035,2017-04-08 16:55:18,42.84883404952431
0.038307227,-0.7565677,10.180145,0.030543262,0.002443461,0.008552114,15.0,-0.082899995,-0.60679996,9.787499,0.0861,-0.0761,0.0050999997,-0.029752,-0.008816,0.422322,2017-04-08 16:55:19,44.704936713286685
-0.019153614,-0.6991069,10.170568,0.029321533,0.002443461,0.0036651916,15.0,-0.1206,-0.7759,9.7751,0.1251,0.059699997,0.0277,-0.037788,-0.013327,0.473174,2017-04-08 16:55:20,45.72802431812476
-0.02873042,-0.7086837,10.151415,0.030543262,0.002443461,0.004886922,15.0,0.016099999,-0.756,9.7774,-0.061199997,0.042,0.0255,-0.034546,-0.017497,0.437591,2017-04-08 16:55:21,46.50864930869743
-0.05746084,-0.7182605,10.132261,0.030543262,0.0,0.0036651916,15.0,0.1457,-0.6024,9.787,-0.20019999,-0.1006,0.0056,-0.022306,-0.020694,0.470014,2017-04-08 16:55:22,42.976953711580876
-0.019153614,-0.7086837,10.151415,0.029321533,0.002443461,0.007330383,15.0,0.1818,-0.5099,9.7916,-0.6202,-0.4154,-0.0212,-0.028312,-0.020702,0.459093,2017-04-08 16:55:23,47.49772762835123
0.009576807,-0.7374141,10.151415,0.032986723,0.002443461,0.0061086523,15.0,-0.0095999995,-0.6278,9.7865,0.106,-0.0167,-0.0030999999,-0.025857,-0.017938,0.588457,2017-04-08 16:55:24,43.594719167543744
-0.89064306,-1.1492168,10.46745,0.0036651916,0.080634214,-0.05497787,15.0,0.103099994,-0.78209996,9.774799,0.020399999,0.3015,0.047599997,-0.034113,-0.023013,0.444951,2017-04-08 16:55:25,46.540803356370276
-0.047884032,-0.7661445,10.160992,0.030543262,0.0012217305,0.0061086523,17.0,0.0074,-0.88049996,9.767,-0.0127,0.2102,0.0275,-0.039329,-0.02301,0.492562,2017-04-08 16:55:26,49.46939232394673
0.7374141,-0.59376204,9.452309,0.4605924,0.6560693,-0.8258898,17.0,0.4526,-1.112,9.7328,-0.20529999,-0.028199999,0.1445,-0.044857,-0.041827,0.355247,2017-04-08 16:55:27,46.16488467259138
-0.06703765,-0.6703765,10.189722,0.030543262,0.007330383,0.012217305,12.0,-0.19919999,-0.6825,9.7808,-0.2703,0.1727,-0.0033999998,-0.036114,-0.00341,0.368979,2017-04-08 16:55:28,51.03437194482085
0.02873042,-0.6512229,10.170568,0.030543262,0.002443461,0.007330383,12.0,-0.0265,-0.49449998,9.7941,0.096099995,-0.1435,0.0178,-0.022851,-0.010763,0.47385,2017-04-08 16:55:29,54.641687008318755
0.038307227,-0.6703765,10.170568,0.028099801,0.002443461,0.007330383,15.0,1.2773,-1.6499,9.582,-0.30359998,1.0812,0.1415,-0.057954,-0.090115,0.331657,2017-04-08 16:55:30,47.92586100748356
0.02873042,-0.6703765,10.189722,0.03176499,0.002443461,0.007330383,15.0,-0.22459999,-0.46949998,9.7928,-0.9055,0.7456,0.1195,-0.057954,-0.090115,0.331657,2017-04-08 16:55:31,50.43606287216389
0.038307227,-0.6607997,10.180145,0.030543262,0.0012217305,0.004886922,15.0,0.6624,-0.3536,9.7778,-0.708,-0.3014,9.0E-4,-5.4E-4,-0.03831,0.458546,2017-04-08 16:55:32,49.93706827012791
0.02873042,-0.6607997,10.170568,0.029321533,0.0036651916,0.0036651916,15.0,0.1891,-0.6405,9.7838,-0.14039999,0.0166,0.012,-0.028088,-0.019252,0.314249,2017-04-08 16:55:33,51.11032195848751
0.05746084,-0.6512229,10.170568,0.030543262,0.0012217305,0.004886922,12.0,-0.1695,-0.84779996,9.7684,-0.26479998,0.75979996,0.0802,-0.068161,-0.041683,0.322134,2017-04-08 16:55:34,51.380023125742305
0.0,-0.6512229,10.180145,0.029321533,0.002443461,0.007330383,15.0,0.45769998,-0.537,9.781199,-0.4261,-0.0994,0.0149,-0.010902,-0.034313,0.528596,2017-04-08 16:55:35,49.80073588217343
0.038307227,-0.6607997,10.160992,0.030543262,0.0012217305,0.0061086523,15.0,0.31039998,-0.7215,9.7751,-0.2565,0.117599994,0.012,-0.029508,-0.026845,0.339299,2017-04-08 16:55:36,47.5014408012285
0.22026655,-0.63206923,10.208876,0.02321288,0.013439035,0.002443461,15.0,0.144,-0.6971,9.7807,-0.0982,0.0572,0.0256,-0.029768,-0.015741,0.363162,2017-04-08 16:55:37,53.27560255591746
-0.17238252,-0.7565677,10.189722,0.07819075,0.08307768,0.19303341,15.0,-0.114199996,-0.5647,9.7897,-0.0885,-0.21759999,0.21319999,-0.029284,-0.004166,0.38509,2017-04-08 16:55:38,52.27444089823146
-0.15322891,-0.7661445,10.141838,0.039095376,-0.0061086523,0.014660766,15.0,0.048299998,-0.7272,9.7795,-0.15079999,-0.0605,0.0074,-0.033626,-0.015834,0.343762,2017-04-08 16:55:39,51.25317581474312
0.08619126,-0.6895301,10.170568,0.028099801,0.0012217305,0.0061086523,12.0,0.0898,-0.6322,9.7858,-0.044099998,-0.0104,0.030299999,-0.02883,-0.015289,0.334479,2017-04-08 16:55:40,52.66176911392874
0.06703765,-0.6607997,10.170568,0.030543262,0.0036651916,0.0061086523,12.0,0.045199998,-0.63589996,9.7859,-0.0262,-0.0061999997,0.0101,-0.029851,-0.012913,0.330763,2017-04-08 16:55:41,56.301477435814576
0.06703765,-0.6703765,10.151415,0.029321533,0.0012217305,0.004886922,12.0,0.041899998,-0.63809997,9.7857,0.023,-0.0053,0.030299999,-0.03005,-0.012702,0.327897,2017-04-08 16:55:42,47.72746546854709
0.02873042,-0.6703765,10.160992,0.02687807,0.0036651916,0.004886922,12.0,0.0376,-0.62799996,9.7864,0.0105,-0.0157,0.0296,-0.029662,-0.012763,0.330818,2017-04-08 16:55:43,47.619743585356005
-0.038307227,-0.7086837,10.151415,0.035430185,-0.0061086523,0.007330383,15.0,0.0412,-0.6685,9.7837,-0.0074,0.006,0.0127,-0.031387,-0.013513,0.332633,2017-04-08 16:55:44,48.73122631496117
0.05746084,-0.6607997,10.170568,0.028099801,0.0012217305,0.004886922,12.0,0.110199995,-0.6687,9.783199,-0.0492,0.0313,0.0325,-0.03014,-0.01694,0.341484,2017-04-08 16:55:45,48.16625557920243
0.047884032,-0.6607997,10.160992,0.028099801,0.002443461,0.0061086523,12.0,0.0515,-0.6325,9.785999,-0.0241,0.0106999995,-0.029199999,-0.029512,-0.013311,0.335583,2017-04-08 16:55:46,47.608953034551476
0.05746084,-0.6607997,10.160992,0.030543262,0.0036651916,0.0061086523,15.0,0.0411,-0.63839996,9.7857,0.0063,0.0058,2.9999999E-4,-0.029624,-0.012917,0.33372,2017-04-08 16:55:47,48.45841507418931
0.038307227,-0.6607997,10.160992,0.03176499,0.002443461,0.0061086523,12.0,0.0581,-0.64019996,9.7855,-0.0164,0.0109,8.0E-4,-0.029763,-0.013788,0.336086,2017-04-08 16:55:48,47.275979630497595
