ACC_X,ACC_Y,ACC_Z,GYRO_X,GYRO_Y,GYRO_Z,LIGH_1,GRAV_X,GRAV_Y,GRAV_Z,LINACC_X,LINACC_Y,LINACC_Z,ROTVEC_X,ROTVEC_Y,ROTVEC_Z,TIME,VOICE
-0.21068975,0.05746084,9.80665,-1.6100223E-4,-0.0015374594,-0.011860079,33.0,-0.1986111,0.063003615,9.804437,-0.0056941137,-0.008522226,0.0022138052,0.010030329,0.0035024227,-0.8001791,2017-01-03 13:17:58,NaN
-0.20111294,0.076614454,9.825804,-0.0015752618,0.0032163584,-0.0033189522,37.0,-0.20431487,0.06352945,9.804316,-0.013610696,0.0045722923,0.015954694,0.010298368,0.0036009317,-0.80333936,2017-01-03 13:17:59,NaN
-0.21068975,0.076614454,9.835381,-4.55163E-4,-0.0015180939,0.1634043,37.0,-0.20405142,0.06444584,9.804316,0.013366561,0.0036558986,0.029575873,0.0103300745,0.0035125283,-0.80580485,2017-01-03 13:18:00,NaN
-0.21068975,0.06703765,9.825804,-0.0029741933,0.0032182562,0.02300348,37.0,-0.20376687,0.05916242,9.804356,-5.3834467E-4,-0.004681033,0.015915621,0.010244448,0.0034784754,-0.81965315,2017-01-03 13:18:01,NaN
-0.21068975,0.06703765,9.80665,5.4746055E-5,-7.678993E-4,-0.03905494,37.0,-0.19566254,0.061553728,9.804505,-0.008642663,-0.007072338,0.015765153,0.009864511,0.0034747056,-0.7999805,2017-01-03 13:18:02,NaN
-0.19153613,0.08619126,9.787497,0.001349118,0.0012397922,-0.017509624,41.0,-0.1982434,0.059949465,9.804463,0.0075585307,0.008152268,-0.011433976,0.009887887,0.0037078727,-0.7945705,2017-01-03 13:18:03,NaN
-0.20111294,0.06703765,9.80665,0.0024585866,-0.0012338307,0.09286143,37.0,-0.19898197,0.06452816,9.804419,0.008297106,0.0035735785,0.0022312629,0.010104565,0.0034148435,-0.8023538,2017-01-03 13:18:04,NaN
-0.19153613,0.076614454,9.825804,-0.0049639186,0.013213992,-0.056447357,33.0,-0.23053788,0.036953982,9.803871,0.0126123205,0.017527409,0.030019797,0.010542221,0.0055309893,-0.8007734,2017-01-03 13:18:05,NaN
-0.20111294,0.06703765,9.835381,0.0028324898,-0.0026643877,-0.019140214,33.0,-0.20247135,0.061930478,9.804364,0.011786494,-0.0074490886,0.029526824,0.010232829,0.0034410506,-0.81311446,2017-01-03 13:18:06,NaN
-0.22026655,0.05746084,9.835381,0.0011190332,-0.001051998,-0.1549415,41.0,-0.20627719,0.05290505,9.804338,0.015592317,0.0015763387,0.015932249,0.010111833,0.003956314,-0.8114944,2017-01-03 13:18:07,NaN
-0.21068975,0.06703765,9.844957,-0.0020913708,0.0011829423,0.057309803,41.0,-0.20230402,0.057184372,9.804397,-0.0020011952,-0.0027029852,0.04311475,0.010129398,0.0035072565,-0.82028496,2017-01-03 13:18:08,NaN
-0.19153613,0.06703765,9.825804,0.0035207106,-0.0016429742,-0.16086555,41.0,-0.2031279,0.062425535,9.804348,-0.001177318,-0.007944146,0.0431638,0.010239707,0.0035429483,-0.8072326,2017-01-03 13:18:09,NaN
-0.20111294,0.06703765,9.835381,0.0,0.0,0.0,37.0,-0.195324,0.066349275,9.804481,0.004639142,-0.011867886,0.043030787,0.0101225935,0.0028576085,-0.8238195,2017-01-03 13:18:10,NaN
-0.20111294,0.076614454,9.835381,9.979381E-4,-0.0028895077,-0.006191817,41.0,-0.19593991,0.064432904,9.8044815,0.0052550468,0.0036688298,0.056650303,0.010073872,0.0030207308,-0.8201592,2017-01-03 13:18:11,NaN
-0.20111294,0.06703765,9.835381,0.003001027,-0.0035818021,0.022420652,37.0,-0.19367896,0.06357756,9.804532,0.00299409,-0.0090961745,0.042979244,0.009967293,0.0029471407,-0.82264537,2017-01-03 13:18:12,NaN
-0.19153613,0.076614454,9.825804,6.3382344E-5,8.2029024E-4,0.08720621,41.0,-0.19527118,0.06879989,9.804464,0.004586315,-6.9815293E-4,0.015805889,0.010098818,0.0030747687,-0.80544186,2017-01-03 13:18:13,NaN
-0.19153613,0.076614454,9.816227,-0.004896827,0.0028244816,0.24261147,41.0,-0.19757779,0.065693304,9.80444,0.020513276,0.0024084316,0.029451175,0.010151957,0.0031060928,-0.8150451,2017-01-03 13:18:14,NaN
-0.19153613,0.076614454,9.816227,1.08912165E-4,-0.00201816,-0.010729607,37.0,-0.19939257,0.06087475,9.804434,-0.0049126465,-0.0063933576,0.015836647,0.010028358,0.003525552,-0.80539656,2017-01-03 13:18:15,NaN
-0.21068975,0.06703765,9.80665,-5.914247E-4,0.0029921404,-0.08985066,44.0,-0.19956143,0.061392218,9.804427,-0.004743785,-0.006910828,0.0022229499,0.01003687,0.0035494228,-0.80302876,2017-01-03 13:18:16,NaN
-0.19153613,0.076614454,9.80665,7.992381E-4,0.002444229,0.056252666,37.0,-0.19706063,0.0626002,9.80447,-0.00724459,0.0055015394,0.0021797211,0.009958611,0.00346029,-0.80085266,2017-01-03 13:18:17,NaN
-0.20111294,0.06703765,9.825804,-9.1443054E-4,3.0235492E-4,0.013777058,41.0,-0.2014285,0.060947645,9.804393,-0.016497053,-0.006466254,0.0022578652,0.010103249,0.0036147938,-0.8035917,2017-01-03 13:18:18,NaN
-0.21068975,0.076614454,9.80665,8.1722776E-4,3.5463713E-4,-0.027607001,44.0,-0.19442806,0.06188891,9.804526,-0.009877147,-0.0074075228,0.0021231913,0.00984356,0.0033677786,-0.80335325,2017-01-03 13:18:19,NaN
-0.20111294,0.08619126,9.825804,2.3786614E-4,0.0028582492,-0.0367527,48.0,-0.199359,0.06073328,9.804437,0.008674149,-0.00625189,0.015834153,0.009975826,0.0036607129,-0.79760206,2017-01-03 13:18:20,NaN
-0.20111294,0.05746084,9.80665,-0.0015327339,0.0020869623,0.041351076,41.0,-0.19618821,0.0644652,9.804475,0.0055033513,0.0036365318,0.0021747332,0.00997601,0.0033691202,-0.8001545,2017-01-03 13:18:21,NaN
-0.21068975,0.076614454,9.816227,0.0017451887,0.0041814754,-0.07860269,48.0,-0.1976248,0.05898241,9.8044815,-0.00668041,0.009119327,-0.011451433,0.009875872,0.003612484,-0.8016266,2017-01-03 13:18:22,NaN
-0.18195933,0.076614454,9.80665,0.0011722392,-0.003893787,0.07030357,44.0,-0.1948567,0.06346025,9.804508,0.017792197,0.0046414807,0.0021414806,0.009907398,0.0033207147,-0.8030952,2017-01-03 13:18:23,NaN
-0.21068975,0.076614454,9.80665,-8.4087544E-4,-0.0021748305,0.09775082,48.0,-0.19134781,0.06326584,9.80458,-0.012957422,0.004835899,0.015691165,0.009761724,0.0032100976,-0.80382705,2017-01-03 13:18:24,NaN
-0.18195933,0.076614454,9.797073,-0.0,0.0,0.0,37.0,-0.19442277,0.06360036,9.804518,0.030978594,-0.0091189705,-0.01148718,0.009881031,0.0033400448,-0.8007845,2017-01-03 13:18:25,NaN
-0.19153613,0.08619126,9.825804,-0.0040719733,0.0024609047,0.055037513,41.0,-0.19183946,0.06823069,9.804537,0.0011545866,-0.0137493005,0.015733562,0.009903552,0.0031149662,-0.79818624,2017-01-03 13:18:26,NaN
-0.19153613,0.08619126,9.816227,0.002465801,-0.0011675375,-0.030760879,41.0,-0.18954319,0.0682046,9.804581,-0.0147620095,-0.01372321,-0.011551192,0.0098347915,0.0029620815,-0.8032738,2017-01-03 13:18:27,NaN
-0.20111294,0.076614454,9.825804,0.0022150942,-2.204766E-4,-0.052768823,41.0,-0.19890548,0.059863757,9.804451,0.008220612,0.008237979,0.015820019,0.010027245,0.0034102753,-0.81373316,2017-01-03 13:18:28,NaN
-0.19153613,0.06703765,9.825804,0.0015337338,-0.004362994,-0.07566061,41.0,-0.19719078,0.06134234,9.804477,0.0065058973,-0.006860949,0.002173902,0.0099602975,0.003415862,-0.8068205,2017-01-03 13:18:29,NaN
-0.20111294,0.076614454,9.816227,-4.509475E-4,0.0032853694,0.055358924,37.0,-0.19863987,0.06014825,9.804454,0.007955005,-0.005666862,0.015816696,0.009981413,0.0035158598,-0.8063925,2017-01-03 13:18:30,NaN
-0.20111294,0.08619126,9.816227,0.0031264743,-0.0021140012,-0.058472157,41.0,-0.19452287,0.05949659,9.804541,0.0038380097,-0.005015198,-0.011510457,0.009788444,0.0034299793,-0.80570143,2017-01-03 13:18:31,NaN
-0.20111294,0.05746084,9.835381,-0.006041265,0.0010781379,0.18679313,41.0,-0.19346924,0.063394725,9.804537,0.0027843635,-0.008913335,0.02935391,0.009906996,0.003100404,-0.81386733,2017-01-03 13:18:32,NaN
-0.21068975,0.05746084,9.816227,4.911231E-4,8.8382704E-4,-0.05523353,44.0,-0.19805054,0.060760137,9.804462,-0.00625467,0.02096195,0.015808383,0.009934292,0.003589452,-0.79941666,2017-01-03 13:18:33,NaN
-0.21068975,0.05746084,9.816227,-2.0367418E-4,-4.6145925E-4,0.022896873,44.0,-0.19371504,0.060684104,9.804549,0.0030301746,0.021037983,0.015721094,0.009759423,0.0034478568,-0.8001499,2017-01-03 13:18:34,NaN
-0.20111294,0.06703765,9.816227,-0.004244234,0.0023234072,0.10495464,41.0,-0.19498229,0.06185439,9.804518,0.004297431,-0.007372997,0.015753515,0.009847714,0.0034366013,-0.80028707,2017-01-03 13:18:35,NaN
-0.19153613,0.06703765,9.816227,-0.0036365788,-1.4576293E-4,0.040099904,37.0,-0.19097574,0.06780449,9.804556,2.9088408E-4,-0.013323106,0.015714442,0.009878386,0.0030315635,-0.80269474,2017-01-03 13:18:36,NaN
-0.20111294,0.05746084,9.825804,-0.0019376246,9.6511253E-4,0.1651394,37.0,-0.19603878,0.06395439,9.804482,0.005353922,-0.009473002,0.0157876,0.010029856,0.003154478,-0.81379807,2017-01-03 13:18:37,NaN
-0.19153613,0.076614454,9.825804,0.002117418,-8.395336E-4,-0.03547438,41.0,-0.20500538,0.059380207,9.804327,0.014320501,-0.0048988196,0.015943056,0.010225547,0.003724267,-0.8072629,2017-01-03 13:18:38,NaN
-0.22026655,0.05746084,9.816227,-0.0011892724,0.0018324847,0.022268966,33.0,-0.20190702,0.05863974,9.804397,-0.016018525,-0.0041583474,0.015874056,0.010088754,0.0036254185,-0.80937165,2017-01-03 13:18:39,NaN
-0.21068975,0.076614454,9.835381,1.0435386E-4,-7.0759794E-4,0.024403585,37.0,-0.20034438,0.058551427,9.804429,-0.017581185,-0.004070039,0.015841635,0.009978945,0.0036994535,-0.8024363,2017-01-03 13:18:40,NaN
-0.22026655,0.05746084,9.835381,0.0016732683,0.001465868,-0.033400893,37.0,-0.20176381,0.058166996,9.804402,-0.0025413972,-0.0036856055,0.029488584,0.01002953,0.0037471622,-0.8031021,2017-01-03 13:18:41,NaN
-0.19153613,0.076614454,9.797073,0.002454386,4.919527E-4,-0.09026464,33.0,-0.1942187,0.060533043,9.804541,0.0035338376,-0.006051653,0.015730238,0.009801309,0.0033954133,-0.8046613,2017-01-03 13:18:42,NaN
-0.22026655,0.06703765,9.816227,-0.0,-0.0,-0.0,29.0,-0.19135787,0.06197577,9.804587,-0.012947342,-0.0074943826,0.015683684,0.009736383,0.0032231652,-0.8062726,2017-01-03 13:18:43,NaN
-0.20111294,0.06703765,9.835381,-1.178933E-4,0.0016301019,0.015354073,37.0,-0.19795908,0.0601749,9.804467,-0.019966476,-0.0056935097,0.02942374,0.009952581,0.0034989046,-0.8061153,2017-01-03 13:18:44,NaN
-0.20111294,0.076614454,9.835381,0.0015743523,-0.0016355354,-0.013622824,33.0,-0.19527711,0.061550714,9.804513,0.0045922506,0.0065510226,0.01575767,0.009860418,0.0034295097,-0.8020171,2017-01-03 13:18:45,NaN
-0.20111294,0.076614454,9.835381,-0.0013642367,0.0012042836,-0.006661252,41.0,-0.20363699,0.058898684,9.804359,0.012952134,0.009203057,0.015911466,0.01015337,0.0037066198,-0.8070479,2017-01-03 13:18:46,NaN
-0.22026655,0.05746084,9.816227,-0.0027326653,-1.0646314E-4,0.12076388,33.0,-0.202617,0.056907278,9.804393,-0.0016882032,-0.0024258893,0.02949856,0.0100305,0.0038133939,-0.80377114,2017-01-03 13:18:47,NaN
-0.22026655,0.06703765,9.835381,-0.0014616667,-1.368526E-4,0.0539125,37.0,-0.19898707,0.06200088,9.804435,0.008302211,0.0061008567,0.02945533,0.010042303,0.0034769783,-0.8048104,2017-01-03 13:18:48,NaN
-0.19153613,0.05746084,9.825804,0.0028940628,-9.4388344E-4,-0.13686025,33.0,-0.19843881,0.057394344,9.804474,-0.005866404,-0.0029129584,0.0021763959,0.009893436,0.0036139404,-0.80693614,2017-01-03 13:18:49,NaN
-0.20111294,0.08619126,9.825804,0.005048822,-0.004658955,-6.980418E-4,29.0,-0.20105031,0.06369935,9.804382,0.010365457,-0.009217956,0.015888188,0.010135922,0.0035918774,-0.797614,2017-01-03 13:18:50,NaN
-0.19153613,0.08619126,9.816227,0.0028452903,-4.6327805E-5,-0.12878689,33.0,-0.19459909,0.064342335,9.804508,-0.009706129,0.017379751,0.015761828,0.009943947,0.0032146142,-0.8068068,2017-01-03 13:18:51,NaN
-0.21068975,0.06703765,9.816227,0.0011660426,2.3111312E-4,0.12419527,33.0,-0.1954077,0.065151624,9.804487,-0.008897514,-0.010670233,0.015783442,0.009977349,0.0032803777,-0.8023666,2017-01-03 13:18:52,NaN
-0.19153613,0.076614454,9.80665,-0.0021447157,8.9817395E-4,0.0897396,37.0,-0.18916266,0.06733729,9.804595,-0.015142547,7.6444424E-4,0.015675372,0.009791301,0.0029911748,-0.80296224,2017-01-03 13:18:53,NaN
-0.19153613,0.06703765,9.825804,0.0013624337,-6.556155E-5,-0.04310229,29.0,-0.19158196,0.06389666,9.804571,8.970983E-4,-0.009415271,0.01569948,0.009771842,0.0032478978,-0.8003746,2017-01-03 13:18:54,NaN
-0.21068975,0.06703765,9.80665,0.0030267981,-0.0027868818,-0.02503602,33.0,-0.19656931,0.0631932,9.804477,-0.0077358875,-0.008711811,0.002173902,0.0099579515,0.0034172928,-0.80108005,2017-01-03 13:18:55,NaN
-0.20111294,0.06703765,9.816227,3.545883E-5,-0.0012789897,0.056084733,37.0,-0.20349698,0.058829002,9.804363,-0.014428585,-0.004347609,0.015907308,0.010131179,0.0037442776,-0.8047707,2017-01-03 13:18:56,NaN
-0.22026655,0.05746084,9.844957,-4.8542314E-4,0.0023846836,0.028367262,33.0,-0.20686544,0.055892885,9.804308,0.0025602318,-0.0014114969,0.015962176,0.010175159,0.003980563,-0.80396104,2017-01-03 13:18:57,NaN
0.7469909,-0.2777274,9.739613,0.045363642,-0.60097927,0.9727191,33.0,-0.046180703,0.23590416,9.803704,1.8168259,-0.26314485,0.057427585,0.009394523,-0.00787252,-0.7775142,2017-01-03 13:18:58,NaN
-0.16280572,0.076614454,9.825804,0.02172713,-0.004985265,-0.08515711,29.0,-0.15600808,0.047101896,9.805297,0.019804616,0.020999841,0.001353389,0.006648929,0.004983284,-0.5926795,2017-01-03 13:18:59,NaN
-0.15322891,0.08619126,9.825804,-7.2729506E-4,-0.0019447012,0.096405834,37.0,-0.15776488,0.061236408,9.805191,-0.0056792926,-0.006755021,0.015080146,0.0072948365,0.0046088165,-0.5948277,2017-01-03 13:19:00,NaN
-0.16280572,0.06703765,9.835381,0.0029901187,-0.0022013006,-0.03180274,29.0,-0.1511644,0.06825087,9.805248,0.0013405815,-0.013769485,0.015021954,0.0073949685,0.0041024704,-0.597335,2017-01-03 13:19:01,NaN
-0.16280572,0.08619126,9.816227,0.004790129,-0.0017833035,-0.35866183,29.0,-0.14680351,0.073358126,9.805278,-0.0030203024,-0.018876733,0.028613204,0.0074609495,0.0037884102,-0.5952046,2017-01-03 13:19:02,NaN
-0.17238252,0.076614454,9.816227,0.0015754375,0.0010849674,-0.04780339,33.0,-0.15429322,0.068471886,9.805197,0.00446941,-3.7015177E-4,-0.0121671995,0.0074434387,0.0043213945,-0.5867959,2017-01-03 13:19:03,NaN
-0.17238252,0.076614454,9.816227,-0.0033118683,2.4227091E-4,-0.0104010645,33.0,-0.15246822,0.07117307,9.805207,0.00264439,-0.016691685,0.015063519,0.0075498056,0.0040749027,-0.596472,2017-01-03 13:19:04,NaN
-0.1436521,0.06703765,9.825804,0.023774149,-0.022654068,-0.03806344,26.0,-0.19162625,0.024332222,9.804748,0.055422768,0.05738987,-0.011718288,0.0069515104,0.0069772596,-0.6109107,2017-01-03 13:19:05,NaN
-0.20111294,0.047884032,9.825804,-0.0050884313,-6.255844E-5,0.20055053,33.0,-0.19382578,0.03558735,9.80467,0.0031409222,0.005273693,0.015599721,0.007443151,0.0067500407,-0.6072322,2017-01-03 13:19:06,NaN
-0.21068975,0.047884032,9.835381,0.007917128,-6.772515E-5,-0.25355464,26.0,-0.19327396,0.037641298,9.804673,0.0025891073,0.0032197447,0.029217575,0.0074882573,0.0066876914,-0.60472864,2017-01-03 13:19:07,NaN
-0.08619126,-0.11492168,9.835381,-0.25946712,-0.09961766,-0.16896392,26.0,-0.20251592,0.042476956,9.804467,0.18889558,-0.49194846,0.043044087,0.008127956,0.006727088,-0.6230446,2017-01-03 13:19:08,NaN
-0.21068975,0.095768064,9.844957,0.0042558657,0.012607483,0.016611276,26.0,-0.15973404,0.073904686,9.805071,-0.03095081,-0.0058029513,0.015199024,0.007896682,0.0042632036,-0.59910953,2017-01-03 13:19:09,NaN
-0.17238252,0.08619126,9.825804,8.1594073E-4,0.0018260997,-0.008217372,26.0,-0.16655336,0.066447616,9.805011,0.016729536,0.0152744735,0.015259711,0.007922291,0.0045643947,-0.61977935,2017-01-03 13:19:10,NaN
-0.17238252,0.06703765,9.835381,0.0039773094,-5.8375945E-4,-0.21475475,26.0,-0.15935865,0.06795053,9.8051195,-0.004085522,-0.013469138,0.0423915,0.0077823824,0.0041784653,-0.62487304,2017-01-03 13:19:11,NaN
-0.18195933,0.06703765,9.825804,0.0012990321,3.7045902E-4,0.009671747,26.0,-0.16161457,0.06704038,9.80509,-0.015449953,-0.012558986,0.015180735,0.0077818143,0.0043625184,-0.61832005,2017-01-03 13:19:12,NaN
-0.17238252,0.076614454,9.825804,-2.883029E-4,-0.0020171935,-0.011785542,26.0,-0.16199252,0.076380335,9.805015,-0.0014516535,-0.008278596,0.015255555,0.008183601,0.0040518674,-0.62132597,2017-01-03 13:19:13,NaN
-0.18195933,0.08619126,9.835381,0.003687338,-5.0210574E-4,-0.17526866,26.0,-0.16923985,0.06427821,9.804979,-0.00782467,-0.009796821,0.028910818,0.007983975,0.0046325643,-0.63036764,2017-01-03 13:19:14,NaN
-0.18195933,0.076614454,9.835381,0.0030412269,0.0014407369,-0.16366895,22.0,-0.17380312,0.06337021,9.804905,-0.0032613853,0.004731523,0.028986467,0.008052396,0.0049124476,-0.62360597,2017-01-03 13:19:15,NaN
-0.16280572,0.076614454,9.825804,-0.0015439787,5.4423406E-4,-0.016835151,33.0,-0.16310021,0.06902391,9.805051,0.013276389,-9.2216773E-4,0.015219808,0.00791888,0.004339987,-0.6202571,2017-01-03 13:19:16,NaN
-0.17238252,0.08619126,9.825804,0.003598824,-0.0012344943,-0.15397613,22.0,-0.15996705,0.07484596,9.80506,-0.003477113,0.006876121,0.015209831,0.008077343,0.003980797,-0.6250836,2017-01-03 13:19:17,NaN
-0.17238252,0.06703765,9.825804,0.0,-0.0,-0.0,33.0,-0.17098111,0.064551175,9.804947,0.02115729,0.017170908,0.015323723,0.00798336,0.004806473,-0.6192898,2017-01-03 13:19:18,NaN
-0.18195933,0.076614454,9.835381,3.0363403E-4,-0.0011645684,-0.011899697,33.0,-0.16266076,0.06665603,9.805076,-0.01440375,0.001445711,0.015194868,0.0078201825,0.0043796552,-0.6220264,2017-01-03 13:19:19,NaN
-0.17238252,0.06703765,9.835381,0.0026338703,-0.003493099,-0.034248434,33.0,-0.16041076,0.06791715,9.805103,-0.003033409,-0.013435769,0.015167434,0.007791603,0.00426367,-0.6206356,2017-01-03 13:19:20,NaN
-0.15322891,0.06703765,9.825804,0.0028966407,-9.491451E-4,-0.11775752,29.0,-0.15934418,0.06625365,9.805133,-0.0040999795,-0.011772258,0.028757853,0.007727447,0.0042080334,-0.6272889,2017-01-03 13:19:21,NaN
-0.18195933,0.05746084,9.825804,0.0025669558,-0.0036029508,-0.01308298,29.0,-0.1648408,0.06706445,9.805037,0.015016979,-0.012583061,0.0152339395,0.007910075,0.004445859,-0.6228056,2017-01-03 13:19:22,NaN
-0.17238252,0.08619126,9.816227,0.001782898,-0.0041016825,-0.029362338,29.0,-0.1609132,0.07165978,9.805068,-0.002530967,0.010062304,0.01520235,0.007953028,0.0041731596,-0.6198623,2017-01-03 13:19:23,NaN
-0.16280572,0.076614454,9.825804,3.6184478E-4,9.2182664E-4,-0.054582585,29.0,-0.16086847,0.07041239,9.8050785,0.011044646,-0.0023106476,0.015192374,0.007894055,0.004225114,-0.6184388,2017-01-03 13:19:24,NaN
-0.17238252,0.076614454,9.816227,0.0017441822,5.842687E-4,0.110686295,33.0,-0.1601453,0.06702538,9.805114,0.010321475,0.0010763581,0.015157458,0.0077653616,0.0042488794,-0.62390524,2017-01-03 13:19:25,NaN
-0.15322891,0.076614454,9.816227,0.0017550313,-0.0023601616,-0.02702679,33.0,-0.16414642,0.07078525,9.80502,7.022576E-4,-0.0026835075,0.015249735,0.0080360295,0.00430079,-0.6227285,2017-01-03 13:19:26,NaN
-0.18195933,0.05746084,9.835381,9.918464E-4,3.2769193E-4,-0.0047697704,29.0,-0.16670646,0.0653454,9.805016,-0.023978414,0.002756339,0.015254723,0.007882834,0.0046056784,-0.6197469,2017-01-03 13:19:27,NaN
-0.16280572,0.06703765,9.835381,-0.004675653,0.0012736201,0.07827993,29.0,-0.16877054,0.06879108,9.804957,0.018946718,-0.014309688,0.028933262,0.0080844285,0.004582079,-0.6194852,2017-01-03 13:19:28,NaN
-0.17238252,0.08619126,9.816227,0.0013730982,-0.0032238448,0.041857164,33.0,-0.16209775,0.06615605,9.805088,-0.0013464137,-0.011674662,0.015182398,0.0077550462,0.0044212956,-0.61715084,2017-01-03 13:19:29,NaN
-0.17238252,0.08619126,9.80665,6.864515E-4,0.0026235224,-0.21922533,33.0,-0.16086705,0.069115736,9.805087,-0.002577118,0.012606352,0.015183229,0.007859261,0.004234167,-0.6216145,2017-01-03 13:19:30,NaN
-0.15322891,0.076614454,9.816227,0.0029211633,-0.004976587,-0.11258128,29.0,-0.16351947,0.06527673,9.80507,7.529941E-5,0.0028250138,0.015200687,0.0077986647,0.004446637,-0.62313545,2017-01-03 13:19:31,NaN
-0.15322891,0.05746084,9.825804,-0.0011222793,-0.0014894386,0.060957886,29.0,-0.1637324,0.06397567,9.805076,2.8823424E-4,-0.009494279,0.015194868,0.00771589,0.0045607826,-0.616611,2017-01-03 13:19:32,NaN
-0.18195933,0.06703765,9.816227,-7.0748304E-4,2.849035E-4,0.038748644,33.0,-0.15682723,0.07455148,9.805114,-0.006616944,-0.020070085,0.015157458,0.007936572,0.003924346,-0.6192631,2017-01-03 13:19:33,NaN
-0.17238252,0.076614454,9.835381,0.0041066655,-0.0016255354,-0.08627307,29.0,-0.15825382,0.067958616,9.80514,0.00843,0.0137634715,0.015131687,0.007739024,0.0041500684,-0.6232747,2017-01-03 13:19:34,NaN
-0.17238252,0.06703765,9.825804,-7.6570356E-4,0.0012822974,-0.05607945,33.0,-0.15988421,0.06505284,9.805131,0.010060401,-0.010571449,0.015139169,0.0076918206,0.004277279,-0.6263375,2017-01-03 13:19:35,NaN
-0.18195933,0.06703765,9.816227,-0.002306042,0.0010652787,0.054093465,29.0,-0.15903546,0.0712974,9.805101,-0.018029058,0.010424688,0.015169097,0.007870072,0.0041268826,-0.6181274,2017-01-03 13:19:36,NaN
-0.15322891,0.08619126,9.816227,0.0,-0.0,-0.0,33.0,-0.15675348,0.0711256,9.80514,0.006929663,0.010596486,0.015130856,0.007803829,0.004016497,-0.6205782,2017-01-03 13:19:37,NaN
-0.16280572,0.076614454,9.80665,2.971398E-4,-0.0024685129,-0.034781516,37.0,-0.15803494,0.07000667,9.805127,-0.0054092305,0.011715416,0.015143326,0.007825109,0.0040543634,-0.62546116,2017-01-03 13:19:38,NaN
-0.17238252,0.076614454,9.80665,9.550202E-4,0.0018290563,0.09053948,33.0,-0.15856011,0.07162508,9.805107,-0.004884057,-0.017143697,0.015163277,0.0078505725,0.004131217,-0.6147499,2017-01-03 13:19:39,NaN
-0.17238252,0.06703765,9.816227,-5.244467E-4,-4.4188296E-4,-0.14978363,37.0,-0.16601735,0.06970953,9.804997,0.0025731823,-0.015228147,0.015273012,0.008016782,0.0044742436,-0.6164119,2017-01-03 13:19:40,NaN
-0.17238252,0.08619126,9.80665,0.002917862,-0.0039823926,-0.122264065,37.0,-0.15518373,0.073251374,9.805149,-0.008260437,0.008470709,0.015121711,0.007843759,0.0038771525,-0.6215097,2017-01-03 13:19:41,NaN
-0.17238252,0.076614454,9.816227,-0.005100154,9.760517E-4,0.22118402,41.0,-0.15538159,0.07214125,9.805154,-0.00806257,-0.004039514,0.015116723,0.007856565,0.0038172484,-0.6317575,2017-01-03 13:19:42,NaN
-0.17238252,0.076614454,9.825804,-0.0025520315,5.622619E-4,0.090919495,33.0,-0.15527122,0.07257383,9.805153,-0.0081729535,-0.0044720992,0.015117555,0.00785005,0.003840219,-0.6276791,2017-01-03 13:19:43,NaN
-0.16280572,0.08619126,9.816227,7.995489E-4,-8.971417E-4,-0.017564168,33.0,-0.1546368,0.07816348,9.8051195,0.004812979,0.003558602,0.015150808,0.0080321375,0.0036789698,-0.6235243,2017-01-03 13:19:44,NaN
-0.17238252,0.08619126,9.816227,6.811274E-4,-1.0684296E-4,-0.04256182,37.0,-0.1634189,0.074306995,9.805008,-2.5277326E-5,-0.019825606,0.015263036,0.008199172,0.0040690396,-0.631388,2017-01-03 13:19:45,NaN
-0.17238252,0.076614454,9.825804,-0.0029617557,0.0018625306,0.16840501,29.0,-0.16923104,0.06596929,9.804968,-0.021453824,0.0157528,0.028923286,0.008036309,0.004602952,-0.62794304,2017-01-03 13:19:46,NaN
-0.17238252,0.076614454,9.835381,2.674732E-4,3.9079404E-4,-0.09160878,29.0,-0.15974696,0.06854812,9.80511,-0.017317552,-0.014066733,0.015160783,0.007812529,0.0041861306,-0.6237487,2017-01-03 13:19:47,NaN
-0.15322891,0.076614454,9.80665,-0.0013304204,-3.9435865E-4,0.03415153,33.0,-0.15391135,0.07327374,9.805169,-0.009532824,-0.005171999,0.0014814123,0.007801288,0.0038318043,-0.6208887,2017-01-03 13:19:48,NaN
-0.15322891,0.08619126,9.80665,-9.941637E-4,-0.0033779356,0.07412891,33.0,-0.16100815,0.06466742,9.805116,-0.0024360274,-0.010186028,0.02877531,0.00770296,0.0043510175,-0.62464136,2017-01-03 13:19:49,NaN
-0.16280572,0.08619126,9.816227,1.8774881E-4,-0.0028206962,-0.06052823,29.0,-0.14909485,0.07785891,9.805207,-7.2897674E-4,0.0038631768,-0.0121780075,0.007822661,0.003515121,-0.6187852,2017-01-03 13:19:50,NaN
-0.17238252,0.08619126,9.825804,-0.0011503327,0.003931223,-0.06823668,29.0,-0.1542261,0.07821695,9.805126,-0.00921808,-0.023735557,0.015144157,0.008021507,0.0036602402,-0.62358844,2017-01-03 13:19:51,NaN
-0.17238252,0.095768064,9.816227,0.0029533734,0.0010081992,-0.024701213,29.0,-0.15713248,0.07540541,9.805101,0.007308654,-0.02092402,0.015169097,0.007973727,0.003923194,-0.6179244,2017-01-03 13:19:52,NaN
-0.15322891,0.076614454,9.80665,0.0017910203,-7.047644E-4,0.024823062,33.0,-0.14595999,0.0816279,9.805223,-0.0038638327,9.418597E-5,0.0014265451,0.007878304,0.0032619704,-0.61964995,2017-01-03 13:19:53,NaN
-0.1340753,0.095768064,9.797073,0.006154983,-1.3049357E-4,-0.14894,33.0,-0.15248466,0.07588553,9.805171,0.0026608347,-0.007783786,0.015099266,0.007904356,0.0035972698,-0.63027334,2017-01-03 13:19:54,NaN
-0.17238252,0.076614454,9.825804,-0.0020083345,0.0013224876,-0.034787264,33.0,-0.15787823,0.07445881,9.805098,-0.005565935,-0.006357072,0.015173254,0.007975781,0.003949763,-0.62119025,2017-01-03 13:19:55,NaN
-0.17238252,0.076614454,9.825804,-0.0017800516,3.5827354E-4,-0.009595337,33.0,-0.16435093,0.066488326,9.805048,9.067623E-4,0.0016134103,0.015223132,0.007857575,0.004469243,-0.6203527,2017-01-03 13:19:56,NaN
-0.16280572,0.076614454,9.825804,0.0023155427,-0.0012364744,-0.13695599,33.0,-0.15661336,0.07029418,9.805149,0.0067895465,-0.0021924442,0.015121711,0.007823951,0.0039240215,-0.6318972,2017-01-03 13:19:57,NaN
-0.17238252,0.076614454,9.825804,-0.0015348219,-3.0998123E-4,0.0416894,33.0,-0.15631373,0.06753092,9.805172,0.0064899074,-0.013049536,0.015098434,0.0076754,0.0040578814,-0.6261694,2017-01-03 13:19:58,NaN
-0.16280572,0.08619126,9.816227,-0.0025176185,-1.5892104E-4,0.12860839,33.0,-0.15097196,0.079977944,9.805162,-0.02609255,0.0017441354,0.01510841,0.008044442,0.0033423132,-0.63639694,2017-01-03 13:19:59,NaN
-0.16280572,0.095768064,9.80665,0.0,-0.0,0.0,33.0,-0.18054022,0.057127442,9.804822,0.0034756972,0.0109742945,0.01544842,0.008011404,0.0053890334,-0.6226738,2017-01-03 13:20:00,NaN
-0.15322891,0.06703765,9.816227,-0.001594592,9.5814746E-4,0.20326315,26.0,-0.15060551,0.0805115,9.805162,-0.012838647,-0.012409763,0.015107579,0.008035343,0.0033545028,-0.63217705,2017-01-03 13:20:01,NaN
-0.17238252,0.08619126,9.825804,-0.0019302965,-0.005004661,0.043616742,26.0,-0.16619135,0.06450809,9.805031,0.002747188,0.017213995,0.015239759,0.007871394,0.0045457687,-0.62629706,2017-01-03 13:20:02,NaN
-0.16280572,0.08619126,9.797073,0.0025326158,-0.0017644442,0.040146243,26.0,-0.15593424,0.07278752,9.805141,0.0061104232,0.00893456,-0.012111502,0.007823498,0.0039724894,-0.6164324,2017-01-03 13:20:03,NaN
-0.16280572,0.08619126,9.80665,0.0017328968,-0.0031193516,-0.028246956,29.0,-0.15829565,0.07166126,9.805111,0.008471827,0.010060817,0.0015396047,0.0079186205,0.003973602,-0.6292384,2017-01-03 13:20:04,NaN
-0.18195933,0.08619126,9.825804,-0.0033681998,0.003737803,0.15041569,29.0,-0.15733401,0.075515024,9.805098,-0.019730497,0.0062070643,0.0015529058,0.008035657,0.0038220172,-0.62825465,2017-01-03 13:20:05,NaN
-0.17238252,0.076614454,9.825804,-0.0021589068,0.0013784774,-0.015990604,29.0,-0.15256631,0.07224029,9.805198,0.0027424989,-0.0041385577,0.015072663,0.007705678,0.0038343982,-0.6184835,2017-01-03 13:20:06,NaN
-0.15322891,0.08619126,9.80665,0.002077524,-0.0028706398,-0.030677656,29.0,-0.15873814,0.073654346,9.805089,0.00891431,-0.0055526076,0.015181567,0.007972153,0.0040070675,-0.6214394,2017-01-03 13:20:07,NaN
-0.16280572,0.08619126,9.80665,-5.745168E-4,7.985367E-4,0.060191415,29.0,-0.15704633,0.07933404,9.805072,0.0072225085,0.0023880447,0.0015778454,0.008141172,0.0037687246,-0.6205527,2017-01-03 13:20:08,NaN
-0.17238252,0.076614454,9.825804,-0.0028715548,-0.0030164053,0.07997594,29.0,-0.16505757,0.06630576,9.805037,0.0016133974,0.0017959825,0.0152339395,0.007905731,0.004444909,-0.626138,2017-01-03 13:20:09,NaN
-0.18195933,0.076614454,9.825804,-0.0039260886,0.0038319498,0.14115903,29.0,-0.16512121,0.066933945,9.805032,-0.011943315,0.0011677904,0.015238928,0.007920221,0.0044497377,-0.6239366,2017-01-03 13:20:10,NaN
-0.16280572,0.08619126,9.816227,-0.0011688152,0.0023878103,0.14678676,29.0,-0.15565592,0.076519795,9.805116,0.0058321,0.0052022906,0.015154133,0.007987435,0.0037963209,-0.62112826,2017-01-03 13:20:11,NaN
-0.16280572,0.08619126,9.80665,0.006533697,-0.003579804,-0.120663725,29.0,-0.15384372,0.07539137,9.805154,0.0040198998,-0.020909978,0.015116723,0.007925668,0.0036730112,-0.6296791,2017-01-03 13:20:12,NaN
-0.17238252,0.08619126,9.816227,-0.0013960125,2.0391395E-4,-0.028014125,33.0,-0.1552594,0.0783185,9.805109,0.005435586,0.0034035866,0.015161615,0.008057882,0.0036993644,-0.62347525,2017-01-03 13:20:13,NaN
-0.16280572,0.076614454,9.80665,-0.002610429,1.3278316E-4,-0.04386754,33.0,-0.1517411,0.07871682,9.8051605,0.0019172837,0.0030052608,0.0014897255,0.007939362,0.0035966134,-0.6185304,2017-01-03 13:20:14,NaN
-0.19153613,0.076614454,9.844957,-0.0015795284,-2.0582274E-4,0.11154838,29.0,-0.16525915,0.06517669,9.805042,0.0018149795,-0.010695295,0.015228121,0.00784952,0.0045199515,-0.6230593,2017-01-03 13:20:15,NaN
-0.18195933,0.076614454,9.816227,2.332298E-4,-0.0038429457,-0.019148033,29.0,-0.16884616,0.06230578,9.804999,0.0054019955,0.005795957,0.015271349,0.007878225,0.00470562,-0.62788016,2017-01-03 13:20:16,NaN
-0.17238252,0.076614454,9.825804,0.0,-0.0,0.0,29.0,-0.16052069,0.067012705,9.805107,0.0106968675,0.014709378,0.015163277,0.0077595096,0.0042956267,-0.6207429,2017-01-03 13:20:17,NaN
-0.17238252,0.076614454,9.80665,9.48674E-4,-0.0031263826,0.11488194,29.0,-0.16003479,0.07105723,9.805088,-0.0034093733,0.024285203,0.015182398,0.007961759,0.0040397686,-0.63139766,2017-01-03 13:20:18,NaN
-0.16280572,0.076614454,9.825804,-0.008042639,0.0046652267,0.27337515,29.0,-0.15651642,0.07335675,9.805127,0.006692607,-0.005255014,0.015143326,0.007939962,0.0038254457,-0.63151306,2017-01-03 13:20:19,NaN
-0.17238252,0.076614454,9.816227,6.8755547E-4,-0.0031120246,0.034379303,29.0,-0.15118496,0.07461217,9.8052025,-0.012259204,-0.0065104305,0.015068507,0.007755752,0.0037071703,-0.61818826,2017-01-03 13:20:20,NaN
-0.17238252,0.076614454,9.80665,0.0024726195,-0.0025812516,-0.12821206,29.0,-0.15470584,0.077417076,9.805125,0.004882005,-0.009315337,0.015144988,0.0080459975,0.0036146338,-0.6323311,2017-01-03 13:20:21,NaN
-0.15322891,0.08619126,9.825804,0.0016311815,0.0011171164,-0.00822295,29.0,-0.15049514,0.08229338,9.805151,-0.012949031,-5.7129224E-4,0.015120049,0.008065547,0.0033814488,-0.62363356,2017-01-03 13:20:22,NaN
-0.17238252,0.076614454,9.816227,0.0,0.0,-0.0,29.0,-0.15497218,0.07870182,9.80511,-0.008471983,-0.010600084,0.015160783,0.008055125,0.0036952037,-0.6215843,2017-01-03 13:20:23,NaN
-0.15322891,0.095768064,9.80665,0.0024748954,-1.5382453E-4,0.009445562,29.0,-0.15099303,0.083397835,9.805134,0.01478956,0.011944595,0.015136675,0.00812538,0.003366233,-0.6236277,2017-01-03 13:20:24,NaN
-0.15322891,0.095768064,9.816227,0.003157777,-0.002257822,-0.30806965,29.0,-0.15431046,0.072864614,9.805165,0.018106995,-0.0047628726,0.0151050845,0.007859413,0.0037332121,-0.63357145,2017-01-03 13:20:25,NaN
-0.15322891,0.076614454,9.816227,2.9336291E-4,0.0015728091,0.06639428,33.0,-0.15317295,0.08167182,9.805115,0.0033491417,-0.013570085,0.015155796,0.008098045,0.0035718523,-0.6174557,2017-01-03 13:20:26,NaN
-0.15322891,0.08619126,9.80665,0.0,-0.0,0.0,33.0,-0.14999674,0.088906795,9.8050995,1.7291456E-4,0.006435638,0.0015504118,0.0083061,0.0031702197,-0.6218503,2017-01-03 13:20:27,NaN
-0.15322891,0.08619126,9.797073,0.0021349962,-0.0019179685,-0.22041652,29.0,-0.14774509,0.09068891,9.805119,-0.0020787288,-0.008966819,-0.012089057,0.008320573,0.00298308,-0.6256794,2017-01-03 13:20:28,NaN
-0.16280572,0.095768064,9.80665,-3.356167E-6,0.0011820857,-0.062519446,33.0,-0.15656276,0.07408749,9.805121,0.0067389403,0.00763459,0.015149144,0.007971694,0.0038009156,-0.6317884,2017-01-03 13:20:29,NaN
-0.15322891,0.08619126,9.825804,0.0012673914,-0.002568979,0.05953353,33.0,-0.15377842,0.0785642,9.80513,0.017574936,0.016778233,0.001519653,0.007999551,0.0036786168,-0.6189656,2017-01-03 13:20:30,NaN
-0.15322891,0.076614454,9.797073,-0.0015170389,0.0013902679,0.04601842,37.0,-0.14960025,0.07945935,9.805188,-2.2357314E-4,0.01588309,0.001462292,0.0079379715,0.0034037905,-0.6267933,2017-01-03 13:20:31,NaN
-0.16280572,0.076614454,9.816227,-6.6992163E-4,0.0014997744,0.05233662,29.0,-0.15240535,0.07833665,9.805153,0.0025815344,-0.010234914,0.015117555,0.00795856,0.0036056177,-0.6214508,2017-01-03 13:20:32,NaN
-0.1436521,0.095768064,9.80665,-5.1286857E-5,0.0020457997,0.05367201,33.0,-0.15595111,0.07448623,9.805128,0.0061272834,-0.0063844994,0.001522147,0.007900162,0.003903763,-0.6180274,2017-01-03 13:20:33,NaN
-0.16280572,0.076614454,9.816227,-5.9048453E-4,0.0010281424,0.006802792,41.0,-0.15164204,0.078796454,9.805161,0.0018182138,0.0029256295,0.015109241,0.007977629,0.0035044302,-0.6269555,2017-01-03 13:20:34,NaN
-0.16280572,0.076614454,9.825804,-0.0017833153,-0.0024538909,-0.015907818,37.0,-0.15825564,0.069467105,9.805127,0.008431806,-0.0013653652,0.0015229783,0.0077959513,0.0041084276,-0.62264997,2017-01-03 13:20:35,NaN
-0.17238252,0.076614454,9.80665,8.1469584E-4,-1.6600368E-4,-0.009730166,29.0,-0.15356734,0.07721249,9.805144,-0.009876822,0.0045095994,0.0015055207,0.007937469,0.0037155745,-0.61869365,2017-01-03 13:20:36,NaN
-0.16280572,0.08619126,9.80665,0.0010251857,-0.0011592926,-0.0720774,33.0,-0.15350205,0.07391767,9.80517,0.0036782275,0.007804413,0.015100097,0.0078028794,0.003818008,-0.61858225,2017-01-03 13:20:37,NaN
-0.17238252,0.08619126,9.825804,-0.0,-0.0,-0.0,44.0,-0.16092224,0.07179806,9.805068,-0.002521926,0.009924033,0.01520235,0.007956916,0.004172829,-0.61949944,2017-01-03 13:20:38,NaN
-0.16280572,0.08619126,9.797073,-0.001623052,7.5350597E-4,0.18822017,44.0,-0.1509984,0.07925292,9.805169,-0.026066117,0.0024691634,0.0014814123,0.007980708,0.0034515245,-0.62819946,2017-01-03 13:20:39,NaN
-0.16280572,0.06703765,9.816227,0.0027162193,-0.0012403912,-0.051124293,44.0,-0.15243569,0.07528332,9.805177,0.0026118646,0.006438762,-0.012147248,0.0078846635,0.0036021853,-0.6315036,2017-01-03 13:20:40,NaN
-0.1436521,0.076614454,9.80665,0.0035015016,-3.770355E-5,-0.013359377,41.0,-0.15341999,0.07406082,9.80517,0.0035961738,-0.005959084,0.015100097,0.007840351,0.0037390662,-0.625701,2017-01-03 13:20:41,NaN
-0.16280572,0.095768064,9.80665,2.549958E-4,-9.048048E-4,-0.10808209,44.0,-0.15227638,0.07574308,9.805175,0.002452563,0.019599358,0.0014747618,0.007854462,0.0036749712,-0.6222166,2017-01-03 13:20:42,NaN
-0.15322891,0.08619126,9.816227,1.3712388E-4,8.688484E-4,-0.092641,44.0,-0.15240404,0.07834837,9.805154,-0.011040138,0.0033737177,0.015116723,0.007962706,0.003596969,-0.6222598,2017-01-03 13:20:43,NaN
-0.16280572,0.08619126,9.80665,-9.217053E-4,5.3236453E-4,0.10077492,44.0,-0.15415274,0.07225364,9.805173,0.0043289172,0.009468449,0.0014772557,0.0077735614,0.003862891,-0.62198323,2017-01-03 13:20:44,NaN
-0.16280572,0.076614454,9.816227,0.0034933803,-0.0011447738,-0.13561963,48.0,-0.15225793,0.07887768,9.805151,0.002434105,-0.010775947,0.015119217,0.007976295,0.0035808147,-0.6216245,2017-01-03 13:20:45,NaN
-0.1436521,0.08619126,9.816227,-4.337378E-4,-0.0010416512,-0.024871984,48.0,-0.15633328,0.07810808,9.805094,0.00650947,0.0036140014,0.015176578,0.008152364,0.0035969566,-0.63799363,2017-01-03 13:20:46,NaN
-0.16280572,0.08619126,9.80665,-0.0,0.0,0.0,44.0,-0.15203156,0.07853225,9.805157,0.0022077262,-0.024050856,0.0014930508,0.008007816,0.0034638003,-0.63322526,2017-01-03 13:20:47,NaN
-0.16280572,0.08619126,9.816227,0.0016194693,-1.6773356E-5,-0.17019382,44.0,-0.15443194,0.075321265,9.805144,0.004608111,0.0064008203,0.015125868,0.00793265,0.0037181021,-0.6277647,2017-01-03 13:20:48,NaN
-0.16280572,0.08619126,9.816227,0.0011390323,-9.797937E-4,-0.19260533,37.0,-0.1575854,0.07686432,9.805083,0.0077615804,0.0048577664,0.0151873855,0.008096713,0.003789882,-0.6281471,2017-01-03 13:20:49,NaN
-0.15322891,0.08619126,9.825804,0.0010402425,4.8658653E-4,0.10112827,44.0,-0.15934733,0.07554299,9.805064,-0.004096849,0.0061790976,0.0152065065,0.008053703,0.003998263,-0.6188402,2017-01-03 13:20:50,NaN
-0.16280572,0.08619126,9.873688,0.017201236,-0.007964949,-0.008356483,41.0,-0.19719987,0.061483927,9.804475,0.047376044,0.020238154,0.015795082,0.0087016625,0.005933905,-0.6210061,2017-01-03 13:20:51,NaN
-0.15322891,0.076614454,9.80665,0.0017769631,-5.9511984E-4,-0.13904153,41.0,-0.15765129,0.07098691,9.805126,-0.005792872,-0.002885174,0.015144157,0.007809824,0.00408917,-0.6173245,2017-01-03 13:20:52,NaN
-0.17238252,0.076614454,9.825804,-5.50187E-4,-0.001820773,0.008240611,41.0,-0.15215118,0.0811563,9.805134,0.0023273584,-0.013054563,0.015136675,0.008046623,0.0035438633,-0.6177726,2017-01-03 13:20:53,NaN
-0.17238252,0.095768064,9.825804,0.0036145677,-0.0013918595,-0.22889234,41.0,-0.15897198,0.07715536,9.8050585,0.009148157,-0.009053627,0.0015919778,0.008103679,0.003938036,-0.6182892,2017-01-03 13:20:54,NaN
-0.17238252,0.08619126,9.816227,-3.007478E-4,2.445534E-4,-0.16464709,41.0,-0.15888722,0.070763625,9.805107,-0.0045569455,-0.016282234,0.015163277,0.007904493,0.0040210066,-0.62971395,2017-01-03 13:20:55,NaN
-0.1436521,0.095768064,9.797073,-9.2689844E-4,2.525551E-4,0.07750649,41.0,-0.15299767,0.07838288,9.805143,0.00317385,0.016959552,0.01512753,0.008006079,0.0035680502,-0.62729084,2017-01-03 13:20:56,NaN
-0.17238252,0.076614454,9.816227,6.6896976E-4,-0.0015287796,-0.009621992,41.0,-0.15419084,0.07567912,9.805147,0.017987363,-0.007577385,-0.012117321,0.007895212,0.0037899737,-0.6185891,2017-01-03 13:20:57,NaN
-0.16280572,0.076614454,9.816227,0.0041202353,-0.0029613378,-0.08328335,41.0,-0.15106392,0.08438282,9.805125,0.0012400957,-0.0026607306,0.01514582,0.008180176,0.0033050536,-0.6267482,2017-01-03 13:20:58,NaN
-0.18195933,0.095768064,9.816227,-0.0025012605,-3.2647586E-4,0.049006835,44.0,-0.15156595,0.08484338,9.805111,-0.011878212,0.010499052,0.015159121,0.008206112,0.0033310673,-0.62477344,2017-01-03 13:20:59,NaN
-0.17238252,0.08619126,9.816227,-0.0032560662,6.9699885E-4,0.08741965,44.0,-0.15635592,0.07864254,9.805089,-0.007088263,0.0030795406,0.015181567,0.00813645,0.0036651802,-0.6299604,2017-01-03 13:21:00,NaN
-0.16280572,0.095768064,9.825804,-0.004026578,0.0015742214,0.14666592,41.0,-0.15559228,0.08198081,9.805074,-0.007851895,-2.5872237E-4,0.01519653,0.00823813,0.0035416598,-0.6286451,2017-01-03 13:21:01,NaN
-0.16280572,0.076614454,9.80665,-0.0010855475,-0.0013556748,0.07625237,44.0,-0.14638633,0.0850167,9.805189,-0.0034374953,-0.0032946186,0.015080976,0.00803587,0.0031504263,-0.62175167,2017-01-03 13:21:02,NaN
-0.16280572,0.076614454,9.825804,-0.0029256986,-0.0012460537,0.15235585,44.0,-0.1514845,0.07873903,9.805165,0.0016606787,-0.010637298,0.015105916,0.007970225,0.0035002017,-0.62693655,2017-01-03 13:21:03,NaN
-0.17238252,0.08619126,9.80665,-0.0017223365,5.902071E-5,0.004568581,41.0,-0.1563552,0.07914223,9.805084,0.006531383,0.016200205,0.0288069,0.008111797,0.0037468013,-0.6205876,2017-01-03 13:21:04,NaN
-0.15322891,0.08619126,9.797073,0.0010130218,6.4375927E-4,-0.08679075,41.0,-0.1574609,0.07149807,9.805125,-0.00598327,0.010224015,0.001524641,0.007859684,0.003996674,-0.62419903,2017-01-03 13:21:05,NaN
-0.16280572,0.076614454,9.825804,-0.0019764404,0.001872685,0.07137763,44.0,-0.1654274,0.07005444,9.805005,0.015603578,0.025287988,0.0016451824,0.008039646,0.0043896134,-0.62131566,2017-01-03 13:21:06,NaN
-0.16280572,0.076614454,9.80665,-0.0018458216,0.0022776208,0.048740085,52.0,-0.16058737,0.06593691,9.805114,0.010763542,0.0021648288,0.0015371108,0.0077186925,0.0043322025,-0.62075704,2017-01-03 13:21:07,NaN
-0.18195933,0.076614454,9.797073,0.0053854217,-0.0047657667,-0.2343209,44.0,-0.15975195,0.07370785,9.805072,0.009928131,-0.0056061107,0.015198193,0.008022669,0.004013552,-0.62459326,2017-01-03 13:21:08,NaN
-0.17238252,0.076614454,9.825804,-1.1912784E-4,0.0029367348,0.06149983,41.0,-0.15791146,0.072385035,9.805112,-0.0327734,0.009337049,0.042398985,0.007880215,0.004043696,-0.6185121,2017-01-03 13:21:09,NaN
-0.15322891,0.076614454,9.816227,-4.9753033E-4,1.2556695E-4,0.050741132,41.0,-0.15342432,0.07347843,9.805175,0.0036004991,0.008243656,0.0014747618,0.007825901,0.0037399258,-0.6274839,2017-01-03 13:21:10,NaN
-0.16280572,0.095768064,9.816227,0.0017076994,0.0014984509,-0.015272756,37.0,-0.15604666,0.07788042,9.8050995,0.006222833,0.017462013,-0.012069935,0.008079655,0.0037139207,-0.6264489,2017-01-03 13:21:11,NaN
-0.17238252,0.076614454,9.825804,-0.0019930934,-0.0013804684,-0.06380513,41.0,-0.15293516,0.079350755,9.805137,0.003111332,0.0023713275,0.0015130024,0.008060441,0.0034935325,-0.6312556,2017-01-03 13:21:12,NaN
-0.17238252,0.08619126,9.825804,-0.0071456903,0.0029126995,0.33008388,33.0,-0.16416591,0.07039802,9.805024,7.2174164E-4,-0.015916629,0.028866757,0.008076257,0.004209883,-0.63278365,2017-01-03 13:21:13,NaN
-0.15322891,0.095768064,9.80665,-6.4891845E-4,-0.0025298202,-0.033013716,37.0,-0.15342355,0.07395856,9.805171,0.0035997329,-0.005856825,0.0014789184,0.007817739,0.0037812954,-0.6218244,2017-01-03 13:21:14,NaN
-0.16280572,0.08619126,9.825804,-0.0038164621,0.0010933485,0.079237126,33.0,-0.15118578,0.08117137,9.805149,0.001361962,5.5071706E-4,0.015121711,0.008039149,0.0034531401,-0.62280834,2017-01-03 13:21:15,NaN
-0.16280572,0.076614454,9.816227,0.0052159196,-0.0026488858,-0.13052507,37.0,-0.15622377,0.0753167,9.805118,0.006399956,-0.0072149616,0.015153302,0.007963193,0.003845028,-0.62231743,2017-01-03 13:21:16,NaN
-0.16280572,0.08619126,9.816227,0.0034912904,1.8481916E-4,-0.13079172,44.0,-0.15692727,0.073169984,9.805121,0.007103448,0.0085521005,0.015149144,0.007924467,0.0038914632,-0.62722766,2017-01-03 13:21:17,NaN
-0.16280572,0.076614454,9.80665,0.001101886,0.0011992508,-0.0067105414,41.0,-0.15558371,0.07627247,9.8051195,0.0057598916,-0.008170733,0.0015304602,0.007962017,0.0038289377,-0.61840343,2017-01-03 13:21:18,NaN
-0.15322891,0.095768064,9.80665,0.0057257134,-0.0036004356,-0.025874877,37.0,-0.16533372,0.07222676,9.804991,0.0018895515,0.023115672,0.015279663,0.008106328,0.0043491498,-0.6182113,2017-01-03 13:21:19,NaN
-0.16280572,0.08619126,9.825804,1.1410356E-4,0.0034428723,-0.0034605595,37.0,-0.1620999,0.06833236,9.805074,-0.0013442705,-2.3061987E-4,0.015197362,0.007881461,0.004281822,-0.6242384,2017-01-03 13:21:20,NaN
-0.16280572,0.08619126,9.825804,-4.9182377E-4,0.0014853333,-0.009639467,41.0,-0.1611986,0.07276571,9.805057,0.011374771,0.008956376,0.0015936404,0.008008095,0.004146155,-0.620202,2017-01-03 13:21:22,NaN
-0.17238252,0.076614454,9.816227,4.8076696E-4,0.001960921,0.100523405,37.0,-0.15222596,0.07226352,9.8052025,-0.011218222,-0.0041617765,0.015067675,0.00770161,0.003808454,-0.6196644,2017-01-03 13:21:23,NaN
-0.17238252,0.08619126,9.816227,0.0011752072,-5.9456914E-4,-0.11155199,33.0,-0.1545252,0.07797824,9.805123,0.0047013876,0.017364196,0.015147482,0.007994149,0.003738816,-0.6178062,2017-01-03 13:21:24,NaN
-0.17238252,0.076614454,9.80665,0.0015540757,0.0012199045,-0.076402746,41.0,-0.1612502,0.075045,9.805038,-0.0021939576,-0.006943263,0.015232277,0.008105068,0.0040678326,-0.6210056,2017-01-03 13:21:25,NaN
-0.17238252,0.076614454,9.825804,0.003593264,-0.0011373903,-0.23536532,33.0,-0.15861763,0.071147494,9.80511,-0.00482654,-0.0030457552,0.015160783,0.007867909,0.0040822313,-0.62138546,2017-01-03 13:21:26,NaN
-0.17238252,0.08619126,9.80665,-0.0022821026,5.5614056E-4,0.12777472,37.0,-0.1508842,0.082001165,9.805147,0.0010603747,-2.7908324E-4,0.015123374,0.008112067,0.003295702,-0.63425696,2017-01-03 13:21:27,NaN
-0.17238252,0.06703765,9.80665,-0.0028821914,0.0014867653,0.10825798,33.0,-0.15161248,0.08142278,9.805141,-0.011831697,-0.013321046,0.0015088458,0.008053142,0.0034844195,-0.62064624,2017-01-03 13:21:28,NaN
-0.16280572,0.076614454,9.816227,-0.0021452003,1.8198323E-4,0.019412233,33.0,-0.1531082,0.080358356,9.805125,0.0032843766,-0.012256619,0.015144988,0.008042591,0.003612247,-0.6172957,2017-01-03 13:21:29,NaN
-0.17238252,0.08619126,9.816227,0.004568677,-2.3887247E-4,-0.1683792,33.0,-0.15458347,0.07751939,9.805125,-0.00886069,0.01782304,0.015144988,0.007986669,0.0037362524,-0.6197106,2017-01-03 13:21:30,NaN
-0.16280572,0.08619126,9.816227,0.0047610356,-0.0033340154,-0.3075744,33.0,-0.15380746,0.0830801,9.805093,0.0039836336,-0.0013580133,0.015178241,0.008246245,0.003383134,-0.63359135,2017-01-03 13:21:31,NaN
-0.16280572,0.08619126,9.825804,0.0,-0.0,-0.0,37.0,-0.15537228,0.07435438,9.805138,-0.021692244,0.0073677036,0.0151325185,0.007888326,0.0038609193,-0.620398,2017-01-03 13:21:32,NaN
-0.17238252,0.095768064,9.825804,9.6948075E-5,8.4215717E-4,0.059796073,33.0,-0.15885809,0.071927905,9.8050995,-0.004586081,-0.0038261635,0.0151707595,0.007903511,0.0040733158,-0.62077016,2017-01-03 13:21:33,NaN
-0.17238252,0.08619126,9.816227,-0.0031248145,0.00286275,0.19775696,33.0,-0.151878,0.0789846,9.805157,0.0020541789,0.0027374849,0.015113398,0.008006621,0.0034757683,-0.6300684,2017-01-03 13:21:34,NaN
-0.15322891,0.095768064,9.80665,4.5526234E-4,-0.0036177165,0.040099293,29.0,-0.15523204,0.08100129,9.805087,0.0054082302,7.2079996E-4,0.015183229,0.008130588,0.0036874786,-0.616301,2017-01-03 13:21:35,NaN
-0.15322891,0.076614454,9.80665,9.997643E-4,0.001071601,0.0396411,33.0,-0.14628667,0.08502934,9.805191,-0.0035371499,-0.0033072573,0.0014597981,0.008031762,0.0031497588,-0.6213897,2017-01-03 13:21:36,NaN
-0.16280572,0.095768064,9.816227,-0.0014706517,0.0011839729,0.011810444,29.0,-0.15326597,0.07767666,9.805145,0.017062493,-0.009574924,-0.012115658,0.007939383,0.0037042666,-0.6171688,2017-01-03 13:21:37,NaN
-0.17238252,0.095768064,9.825804,0.0025261946,2.8775632E-4,0.01873936,33.0,-0.15764432,0.07548262,9.805093,-0.00579986,0.019859808,0.0015578937,0.008019604,0.0038867635,-0.62326324,2017-01-03 13:21:38,NaN
-0.16280572,0.076614454,9.80665,4.80001E-4,6.663858E-4,0.05212776,29.0,-0.1571659,0.075875364,9.805098,0.0073420755,0.019467067,0.015173254,0.007998139,0.0039004774,-0.6188334,2017-01-03 13:21:39,NaN
-0.16280572,0.08619126,9.80665,-0.0016999373,9.665817E-4,0.086225756,26.0,-0.15655626,0.077414505,9.805095,0.006732445,-0.02293312,0.0015553997,0.008051719,0.0038039393,-0.62113017,2017-01-03 13:21:40,NaN
-0.15322891,0.076614454,9.80665,-0.0015752648,0.0026766625,0.07219241,26.0,-0.15314676,0.0798813,9.80513,-0.0102974055,0.015461131,0.0015204843,0.008038011,0.0035991545,-0.6201962,2017-01-03 13:21:41,NaN
-0.16280572,0.08619126,9.825804,0.0011756071,-0.001926142,0.17144279,29.0,-0.16222386,0.066426486,9.805084,0.012400035,0.02891595,0.0015662069,0.0078104064,0.0043457723,-0.62440366,2017-01-03 13:21:42,NaN
-0.17238252,0.076614454,9.825804,0.002022296,-0.002082738,0.05686893,29.0,-0.16172116,0.07116609,9.805059,-0.0017230146,-0.0030643558,0.0015911465,0.007975726,0.0041890414,-0.6230134,2017-01-03 13:21:43,NaN
-0.16280572,0.08619126,9.816227,-0.0019096315,0.004340801,0.052602418,26.0,-0.15495612,0.074298896,9.805144,-0.022108397,0.0074231876,0.015125868,0.007878551,0.0038345247,-0.6215433,2017-01-03 13:21:44,NaN
-0.18195933,0.08619126,9.816227,-0.0,0.0,0.0,26.0,-0.15547308,0.07283912,9.805147,-0.021591434,0.008882966,0.015123374,0.007838088,0.0038985056,-0.6218363,2017-01-03 13:21:45,NaN
-0.15322891,0.076614454,9.80665,1.669778E-4,-7.5955084E-4,-0.04708176,26.0,-0.15283954,0.082352616,9.805114,0.0030157173,-6.3053024E-4,-0.012084068,0.008130463,0.0035010157,-0.6209387,2017-01-03 13:21:46,NaN
-0.16280572,0.095768064,9.825804,-0.004064727,0.001977397,0.17429487,26.0,-0.16202775,0.07573707,9.805019,0.012203935,-0.007635324,0.00163105,0.008184427,0.004022362,-0.62623173,2017-01-03 13:21:47,NaN
-0.15322891,0.08619126,9.797073,2.3429938E-4,-0.0016457598,-0.015351069,29.0,-0.15551569,0.08539153,9.805046,0.005691867,-0.00366944,0.0016036163,0.008336293,0.0035126372,-0.6208553,2017-01-03 13:21:48,NaN
-0.15322891,0.08619126,9.80665,0.008533197,-0.004269979,-0.23712036,26.0,-0.1549716,0.08081406,9.805093,0.018768128,9.080223E-4,0.0015570624,0.008172264,0.0035537612,-0.62871057,2017-01-03 13:21:49,NaN
-0.15322891,0.08619126,9.816227,0.001247392,-7.632536E-5,-0.015390155,29.0,-0.15112166,0.08045867,9.805156,0.0012978334,0.0012634116,0.015114229,0.007988298,0.003519845,-0.6182371,2017-01-03 13:21:50,NaN
-0.17238252,0.076614454,9.816227,-0.0032233533,0.0011523694,0.027839966,26.0,-0.149047,0.08566631,9.805143,-7.768167E-4,0.009676123,-0.012113164,0.00813344,0.003267955,-0.6186799,2017-01-03 13:21:51,NaN
-0.15322891,0.08619126,9.80665,-0.0015868623,-8.2722504E-4,0.09041355,29.0,-0.15123068,0.08626038,9.805105,0.015027213,-0.004538293,0.0015445927,0.008254447,0.0032660116,-0.62539446,2017-01-03 13:21:52,NaN
-0.15322891,0.08619126,9.816227,0.004264446,-0.0011558359,-0.024502391,26.0,-0.14953306,0.084794834,9.805144,-2.9076717E-4,0.0105476,-0.012114827,0.0081248935,0.0032877885,-0.62130123,2017-01-03 13:21:53,NaN
-0.17238252,0.095768064,9.80665,0.003281157,-0.0031470482,-0.23054072,22.0,-0.14829245,0.08563647,9.805156,-0.0015313695,0.009705966,0.0014947135,0.008143339,0.0031498887,-0.62722605,2017-01-03 13:21:54,NaN
-0.16280572,0.095768064,9.80665,-0.0036784762,0.0030588075,0.025855882,29.0,-0.14997482,0.0869922,9.805119,-0.013469347,-0.0052701146,0.01515247,0.00822439,0.0032416487,-0.62074614,2017-01-03 13:21:55,NaN
-0.16280572,0.08619126,9.797073,0.0039996547,-5.04826E-4,-0.07394187,26.0,-0.1538244,0.07800199,9.805133,0.004000585,0.0037200921,0.015137507,0.0079964185,0.0036592674,-0.6227865,2017-01-03 13:21:56,NaN
-0.15322891,0.095768064,9.797073,0.0073799277,-0.0031202387,-0.07148082,26.0,-0.15335529,0.07977421,9.805127,0.017151821,-0.011672468,-0.012097369,0.008045744,0.0035987855,-0.62137514,2017-01-03 13:21:57,NaN
-0.15322891,0.095768064,9.787497,0.0030074674,-0.0021003694,-0.06280371,26.0,-0.15055528,0.08326231,9.805141,7.3145767E-4,0.012080126,0.0015088458,0.008092006,0.0033868616,-0.62036335,2017-01-03 13:21:58,NaN
-0.17238252,0.095768064,9.816227,-5.217662E-4,-0.0011078677,0.008368153,26.0,-0.15470167,0.07934212,9.80511,0.004877848,0.016000314,0.015160783,0.0080896495,0.0036252474,-0.62534356,2017-01-03 13:21:59,NaN
-0.15322891,0.08619126,9.835381,0.0013182253,-0.0010274409,0.026241586,22.0,-0.15441276,0.07386311,9.805157,0.0045889383,0.021479322,0.015113398,0.007836253,0.003842316,-0.61997527,2017-01-03 13:22:00,NaN
-0.16280572,0.076614454,9.816227,0.0065960567,-0.005781652,-0.092744626,22.0,-0.15571612,0.07343998,9.80514,0.005892305,0.008282104,-0.012109838,0.007870744,0.0038872233,-0.6220288,2017-01-03 13:22:01,NaN
-0.16280572,0.076614454,9.80665,-8.866796E-4,-1.0425607E-4,0.04255804,29.0,-0.14978354,0.08901837,9.805103,-4.0280054E-5,-0.0072962814,0.015167434,0.008287244,0.0032013454,-0.6177662,2017-01-03 13:22:02,NaN
-0.18195933,0.06703765,9.825804,0.0015463872,0.003956391,-0.002407803,26.0,-0.15713264,0.07930638,9.805071,0.0073088096,-0.011204641,0.0015795081,0.00815685,0.0037425715,-0.62348074,2017-01-03 13:22:03,NaN
-0.18195933,0.08619126,9.816227,0.0011259017,0.0030261762,-0.03639671,26.0,-0.15518814,0.07908336,9.805104,-0.008256034,-0.024601974,0.015166603,0.008080947,0.003683552,-0.6223775,2017-01-03 13:22:04,NaN
-0.17238252,0.08619126,9.835381,-6.3679955E-4,0.0019987808,0.047795635,22.0,-0.1508868,0.08341597,9.805135,-0.012557362,-0.001693886,0.015135843,0.008109365,0.0033935278,-0.6205307,2017-01-03 13:22:05,NaN
-0.17238252,0.08619126,9.816227,-6.505873E-5,-0.0020188135,-0.15470496,18.0,-0.15140139,0.08150338,9.805143,-0.012042776,2.187086E-4,-0.012113164,0.008062257,0.003444148,-0.6234922,2017-01-03 13:22:06,NaN
-0.15322891,0.08619126,9.816227,0.0024580883,-9.989849E-4,0.15645781,22.0,-0.15601721,0.07725373,9.805105,-0.007426948,0.004468358,0.01516494,0.0081248125,0.0035755862,-0.641474,2017-01-03 13:22:07,NaN
-0.15322891,0.076614454,9.797073,0.0012314734,-0.0015721318,-0.04195607,26.0,-0.15624599,0.07851951,9.805092,0.006422168,0.0032025762,0.001558725,0.008104413,0.0037167526,-0.62497467,2017-01-03 13:22:08,NaN
-0.1436521,0.08619126,9.816227,0.0018858949,0.0016639367,0.036778554,22.0,-0.15225804,0.08302508,9.805118,0.002434209,0.01231735,0.015153302,0.008139354,0.003455474,-0.6210359,2017-01-03 13:22:09,NaN
-0.17238252,0.095768064,9.825804,-5.8427086E-4,0.0018108205,-0.25698632,26.0,-0.15492484,0.08143303,9.805089,-0.008519329,0.013909406,0.015181567,0.0081635695,0.0036048132,-0.6217697,2017-01-03 13:22:10,NaN
-0.15322891,0.06703765,9.816227,8.063059E-4,-0.0010407425,0.040243205,22.0,-0.15886895,0.07554697,9.805074,-0.0045752088,0.00617511,0.015197362,0.008051015,0.0039541344,-0.6212629,2017-01-03 13:22:11,NaN
-0.16280572,0.095768064,9.80665,-0.0023859893,0.0017899491,0.11633326,26.0,-0.15385035,0.08073881,9.805111,0.0040265247,0.014603618,0.0015387734,0.008102723,0.0035817737,-0.621977,2017-01-03 13:22:12,NaN
-0.17238252,0.08619126,9.825804,-0.0011559278,0.004273546,0.01632492,22.0,-0.15987912,0.07451476,9.805064,-0.0035650511,0.0072073243,0.0152065065,0.0080532,0.0040042996,-0.62348914,2017-01-03 13:22:13,NaN
-0.17238252,0.076614454,9.816227,-6.075359E-4,-1.5167794E-4,0.08257371,29.0,-0.15651023,0.081476934,9.805063,0.006686411,-0.013375192,0.015207337,0.008228929,0.0036367031,-0.62462544,2017-01-03 13:22:14,NaN
-0.15322891,0.08619126,9.816227,1.4439366E-4,0.00147991,-0.019474568,26.0,-0.15984052,0.07249437,9.805079,-0.0036036426,0.009227717,0.015190711,0.007966621,0.004076407,-0.62256527,2017-01-03 13:22:15,NaN
-0.17238252,0.076614454,9.80665,-4.914321E-4,-8.0071914E-4,-0.023902345,26.0,-0.1577959,0.07572166,9.805089,-0.0056482614,-0.007619925,0.001561219,0.008036914,0.0038790822,-0.6238596,2017-01-03 13:22:16,NaN
-0.15322891,0.08619126,9.797073,-0.0039582797,0.0018400566,0.085302986,29.0,-0.15313847,0.08313758,9.805102,0.030555349,-0.0014154912,-0.012072429,0.008200205,0.0034196102,-0.6274758,2017-01-03 13:22:17,NaN
-0.16280572,0.08619126,9.816227,0.0051104785,-0.0016744838,-0.18104798,22.0,-0.15046188,0.085460626,9.805123,6.380641E-4,-0.0037385437,0.015147482,0.008201441,0.003252541,-0.6261924,2017-01-03 13:22:18,NaN
-0.16280572,0.076614454,9.797073,-0.0,0.0,0.0,26.0,-0.15983507,0.080293864,9.805019,0.01001125,-0.012192126,0.00163105,0.008260851,0.00386475,-0.619138,2017-01-03 13:22:19,NaN
-0.16280572,0.08619126,9.816227,0.0,0.0,0.0,22.0,-0.15742457,0.074731804,9.805102,0.007600746,0.0069902777,0.015168265,0.007995867,0.0038747697,-0.62591153,2017-01-03 13:22:20,NaN
-0.16280572,0.08619126,9.797073,0.0017397548,0.0014402426,-0.046267383,22.0,-0.15356949,0.08049655,9.805119,0.003745668,0.014845883,0.0015321228,0.008080323,0.0035868594,-0.6211419,2017-01-03 13:22:21,NaN
-0.17238252,0.076614454,9.825804,0.0,-0.0,-0.0,26.0,-0.15456656,0.07596548,9.80514,-0.0088776015,-0.007863742,0.015131687,0.007986364,0.0036511295,-0.63279706,2017-01-03 13:22:22,NaN
-0.16280572,0.076614454,9.797073,-0.003576268,0.00202137,0.18831053,26.0,-0.15606299,0.080939285,9.805074,0.0062391604,0.014403146,0.0015761828,0.008228518,0.0035555374,-0.63224936,2017-01-03 13:22:23,NaN
-0.16280572,0.076614454,9.797073,2.75645E-4,-1.5976859E-4,0.13390012,22.0,-0.15323336,0.081983335,9.805111,0.0034095424,-0.013881602,0.015159952,0.008174451,0.0034198724,-0.6313235,2017-01-03 13:22:24,NaN
-0.17238252,0.10534488,9.816227,-2.9264888E-4,-0.0025397486,-0.011683973,22.0,-0.15557319,0.07848024,9.805102,-0.007870977,0.003241843,-0.012072429,0.008057273,0.003743611,-0.61989397,2017-01-03 13:22:25,NaN
-0.15322891,0.076614454,9.80665,-0.0019153407,0.0036396908,-0.10315276,22.0,-0.1555638,0.08599209,9.80504,-0.007880368,-0.017890358,0.0016102669,0.008343917,0.003538077,-0.6168561,2017-01-03 13:22:26,NaN
-0.17238252,0.076614454,9.816227,-0.0026959383,-9.1574184E-4,0.013513999,22.0,-0.159326,0.07441659,9.805074,-0.0041181645,-0.0063148565,0.01519653,0.008028322,0.003992172,-0.622827,2017-01-03 13:22:27,NaN
-0.17238252,0.08619126,9.816227,-0.0016076639,0.0030562289,-0.10869108,22.0,-0.15651211,0.0765575,9.805103,0.006688294,0.0051645823,0.015167434,0.008063815,0.0037277304,-0.63098204,2017-01-03 13:22:28,NaN
-0.16280572,0.076614454,9.816227,0.0016001803,-0.0014502502,-0.15714963,22.0,-0.15322366,0.081512004,9.805115,0.003399839,-0.01341027,0.015155796,0.008190719,0.0033498034,-0.6393405,2017-01-03 13:22:29,NaN
-0.16280572,0.08619126,9.80665,-0.0,0.0,-0.0,22.0,-0.15462224,0.08529097,9.80506,0.0047984184,0.010051465,-0.012030864,0.008263634,0.0035748733,-0.6118478,2017-01-03 13:22:30,NaN
-0.16280572,0.076614454,9.80665,-0.0029571385,0.0014337922,0.107038505,22.0,-0.16264784,0.07492678,9.805015,0.012824021,-0.0068250396,0.0016352066,0.008172155,0.004072611,-0.62625784,2017-01-03 13:22:31,NaN
-0.16280572,0.076614454,9.825804,-0.0021453144,0.0035763797,-0.051967155,22.0,-0.15902837,0.07695801,9.805059,0.009204544,-0.008856273,0.015211494,0.008101962,0.003937449,-0.61916876,2017-01-03 13:22:32,NaN
-0.17238252,0.076614454,9.825804,0.0012843249,3.6875255E-4,-0.11261538,26.0,-0.15734413,0.07506768,9.8051,-0.0061000446,-0.0069659427,0.0015495805,0.008020118,0.00383281,-0.6286366,2017-01-03 13:22:33,NaN
-0.15322891,0.08619126,9.80665,-0.003922323,-3.4114276E-4,0.036977407,22.0,-0.16449939,0.07384402,9.804993,0.014675566,0.007878062,0.0152779985,0.008157993,0.0042395187,-0.62063956,2017-01-03 13:22:34,NaN
-0.18195933,0.076614454,9.816227,-0.0,0.0,0.0,26.0,-0.16065882,0.07169678,9.805072,0.010834997,0.023645652,0.015198193,0.0079579,0.0041399095,-0.6220212,2017-01-03 13:22:35,NaN
-0.16280572,0.08619126,9.816227,3.8098884E-4,-8.679824E-4,0.02582003,26.0,-0.1558242,0.07821204,9.8050995,0.0060003772,0.0035100477,0.0151707595,0.008052524,0.0037663155,-0.61948633,2017-01-03 13:22:36,NaN
-0.1436521,0.095768064,9.80665,0.0021767323,5.3520716E-4,-0.102515,29.0,-0.15648547,0.07900142,9.805084,0.0066616405,-0.010899678,0.015186555,0.008152818,0.0036632477,-0.62953496,2017-01-03 13:22:37,NaN
-0.15322891,0.08619126,9.816227,0.004040902,-0.0042033507,-0.0036995513,22.0,-0.16177835,0.07476019,9.805031,0.011954525,0.020582238,0.015239759,0.008136475,0.0040459577,-0.6260097,2017-01-03 13:22:38,NaN
-0.16280572,0.08619126,9.816227,-8.9710526E-4,-8.806502E-4,-0.026264688,29.0,-0.15297362,0.07967691,9.805133,-0.010470554,-0.011575171,0.001517159,0.008042732,0.0035574425,-0.62421566,2017-01-03 13:22:39,NaN
-0.15322891,0.08619126,9.80665,-0.0028556136,-9.85759E-4,0.05250272,29.0,-0.14696907,0.085550316,9.805177,-0.0028547528,-0.003828229,0.015094277,0.0080639785,0.0031864904,-0.6188639,2017-01-03 13:22:40,NaN
-0.16280572,0.08619126,9.816227,0.0018034,-9.650466E-4,0.059767097,29.0,-0.1579381,0.07543654,9.805089,0.008114281,0.0062855454,-0.012059128,0.008016075,0.003922558,-0.62105596,2017-01-03 13:22:41,NaN
-0.1436521,0.08619126,9.797073,0.0035090214,8.086554E-5,-0.28741157,26.0,-0.15695538,0.07665901,9.805096,0.0071315565,0.005063077,0.0015545684,0.008054244,0.003801566,-0.6252374,2017-01-03 13:22:42,NaN
-0.16280572,0.076614454,9.797073,0.0020685862,5.563643E-4,0.034112517,22.0,-0.15372194,0.07892747,9.805128,0.0038981116,0.0027946122,0.001522147,0.008013407,0.0036625038,-0.61919934,2017-01-03 13:22:43,NaN
-0.16280572,0.08619126,9.80665,-1.9749947E-4,6.358211E-5,-0.024896698,26.0,-0.14809725,0.08523939,9.805162,-0.0017265737,-0.0035173022,0.01510841,0.00809654,0.003217917,-0.6211491,2017-01-03 13:22:44,NaN
-0.15322891,0.095768064,9.825804,0.0023549444,-0.002933924,0.047942787,26.0,-0.15294114,0.07969641,9.805135,0.0031173073,0.01564602,0.015135843,0.008015924,0.0036149893,-0.6184133,2017-01-03 13:22:45,NaN
-0.16280572,0.076614454,9.80665,-0.0016061068,0.0019201621,0.092482544,26.0,-0.15510648,0.080130234,9.805096,-0.021958033,-0.0120284995,0.015174916,0.00811307,0.0036627587,-0.6208636,2017-01-03 13:22:46,NaN
-0.18195933,0.06703765,9.825804,2.446518E-4,0.0032988724,0.019249087,29.0,-0.15695047,0.07744321,9.805088,-0.020114047,-0.009341478,0.015182398,0.00809794,0.0037491817,-0.6278561,2017-01-03 13:22:47,NaN
-0.15322891,0.08619126,9.816227,-4.88415E-4,-0.0020050996,0.027973607,29.0,-0.154792,0.072917946,9.805159,-0.008652171,-0.018436555,0.015112567,0.007830172,0.0038474454,-0.6239722,2017-01-03 13:22:48,NaN
-0.17238252,0.08619126,9.835381,0.0013876933,3.4283026E-4,0.040827554,29.0,-0.16110058,0.07359315,9.805051,0.011276753,0.00812894,0.015219808,0.008042669,0.0041071153,-0.6210751,2017-01-03 13:22:49,NaN
-0.17238252,0.095768064,9.80665,9.977455E-6,-3.4142792E-4,-0.081704594,26.0,-0.15442368,0.07901411,9.805116,0.0045998627,0.01632832,0.0015337855,0.008048088,0.0036680645,-0.62113035,2017-01-03 13:22:50,NaN
-0.16280572,0.08619126,9.816227,-4.4167708E-4,0.0016002442,-0.011844632,26.0,-0.15376832,0.078147516,9.805134,0.0039444966,0.0035745723,0.015136675,0.0080100065,0.003631385,-0.624839,2017-01-03 13:22:51,NaN
-0.18195933,0.08619126,9.816227,-0.0016064843,-0.0015347197,0.029212525,26.0,-0.15189224,0.084183365,9.805114,0.002068428,-0.0024612788,-0.012083236,0.008180535,0.0033885885,-0.6225289,2017-01-03 13:22:52,NaN
-0.17238252,0.08619126,9.80665,-0.0018139234,0.0038676318,0.012191971,26.0,-0.16113003,0.07597061,9.805033,-0.0023141482,0.0057514748,0.0016177489,0.008165954,0.003977349,-0.62641037,2017-01-03 13:22:53,NaN
-0.16280572,0.076614454,9.816227,-1.2282794E-4,0.0019988432,0.024816895,26.0,-0.15837063,0.076142356,9.805076,-0.018693881,0.005579729,0.015194868,0.008055419,0.0039227623,-0.62054336,2017-01-03 13:22:54,NaN
-0.17238252,0.076614454,9.816227,0.0016364064,-7.055231E-4,-0.19749273,26.0,-0.15701433,0.072484724,9.805126,0.0071905022,0.009237362,0.0015238096,0.007897251,0.0039224583,-0.62667334,2017-01-03 13:22:55,NaN
-0.16280572,0.08619126,9.80665,-0.004920813,9.672886E-4,0.12628978,22.0,-0.15463108,0.07503225,9.805144,-0.008813083,-0.0069305133,0.0151267,0.007915361,0.003761026,-0.62522924,2017-01-03 13:22:56,NaN
-0.16280572,0.08619126,9.816227,-0.0013307782,-6.726961E-4,-0.041405223,26.0,-0.157667,0.08078371,9.80505,0.007843167,9.3837845E-4,0.015220638,0.008219332,0.0037464509,-0.6206688,2017-01-03 13:22:57,NaN
-0.18195933,0.06703765,9.816227,-0.009292407,0.0057270387,0.20239018,26.0,-0.16074076,0.07550767,9.805042,-0.0027034008,-0.021026285,0.015228121,0.008118514,0.004010454,-0.62316424,2017-01-03 13:22:58,NaN
-0.19153613,0.06703765,9.816227,-0.005049265,0.0049616327,-0.07841429,26.0,-0.1645083,0.073411815,9.8049965,-0.0125562195,-0.018930424,0.015274675,0.008145389,0.0042451327,-0.6214499,2017-01-03 13:22:59,NaN
-0.16280572,0.076614454,9.825804,0.002074886,-3.5824854E-4,0.021179285,26.0,-0.16130623,0.069766924,9.805076,0.011482414,0.011955162,0.028815214,0.007992164,0.004052712,-0.6390377,2017-01-03 13:23:00,NaN
-0.18195933,0.08619126,9.825804,0.005854395,-0.0014106412,0.0033793293,26.0,-0.16375303,0.069186956,9.805038,3.0886137E-4,0.012535131,0.0016110982,0.00795724,0.0043404894,-0.62227213,2017-01-03 13:23:01,NaN
-0.16280572,0.10534488,9.80665,9.5102814E-4,-0.003519752,0.067560054,26.0,-0.15286937,0.08243648,9.805114,0.003045554,-7.1438967E-4,0.0015371108,0.008129927,0.0035107636,-0.61985767,2017-01-03 13:23:02,NaN
-0.16280572,0.076614454,9.80665,-0.004108035,0.003091797,-0.042536933,26.0,-0.14541295,0.08699558,9.805186,-0.004410867,-0.018893845,0.0014639547,0.008154227,0.0028557887,-0.6401929,2017-01-03 13:23:03,NaN
-0.16280572,0.076614454,9.80665,9.6753676E-4,3.7236238E-4,0.00971044,22.0,-0.14896823,0.08571009,9.805144,-8.555842E-4,0.009632343,0.0015055207,0.008120583,0.0032934733,-0.6157703,2017-01-03 13:23:04,NaN
-0.16280572,0.08619126,9.80665,7.204754E-4,-0.0012805671,0.04977349,22.0,-0.15273708,0.07407873,9.805181,0.0029132701,0.021263706,-0.012150574,0.00779762,0.0037566158,-0.6211672,2017-01-03 13:23:05,NaN
-0.17238252,0.08619126,9.80665,-0.0045679337,0.0035910709,0.1835849,26.0,-0.1564512,0.080358066,9.805074,0.0066273743,0.0013640209,0.0015761828,0.008200344,0.003629934,-0.6284364,2017-01-03 13:23:06,NaN
-0.17238252,0.08619126,9.816227,4.91293E-4,2.225759E-4,-0.028044442,29.0,-0.1580659,0.08257874,9.805029,0.008242084,-8.566558E-4,0.015241422,0.008309194,0.0036933052,-0.62182736,2017-01-03 13:23:07,NaN
-0.16280572,0.08619126,9.825804,1.3529103E-4,4.663998E-4,-0.17462613,29.0,-0.15571915,0.070540935,9.8051605,0.0058953194,0.011181151,0.015110073,0.007831215,0.003827323,-0.63717705,2017-01-03 13:23:08,NaN
-0.16280572,0.08619126,9.797073,-0.0023089363,-0.0025840965,0.13061014,22.0,-0.15252706,0.07998314,9.80514,0.002703245,0.0017389462,-0.012109008,0.0080109555,0.0035969377,-0.6176697,2017-01-03 13:23:09,NaN
-0.16280572,0.095768064,9.80665,-0.005062153,3.8581243E-4,0.018859891,26.0,-0.15486829,0.07675839,9.805127,0.0050444757,-0.008656652,0.015143326,0.007976501,0.0037477708,-0.6220635,2017-01-03 13:23:10,NaN
-0.16280572,0.076614454,9.816227,-0.0027439552,0.002491575,0.06448723,29.0,-0.15401006,0.08007019,9.805115,-0.009434105,0.0016518914,0.015155796,0.00806648,0.003641898,-0.618816,2017-01-03 13:23:11,NaN
-0.16280572,0.095768064,9.80665,-5.914329E-4,-0.0016340761,-0.0128012905,26.0,-0.15303566,0.07453541,9.805173,0.003211831,-0.0064336704,0.0014772557,0.007813532,0.0037785633,-0.6187106,2017-01-03 13:23:12,NaN
-0.15322891,0.095768064,9.816227,6.4572884E-4,1.5397032E-4,0.046317715,29.0,-0.15829276,0.07301143,9.805101,0.00846893,0.02233101,0.015169097,0.0079285605,0.0040171463,-0.6206985,2017-01-03 13:23:13,NaN
-0.16280572,0.076614454,9.816227,8.870629E-4,-0.001909343,-0.13245162,26.0,-0.1560936,0.0759941,9.805114,0.0062697767,-0.007892365,0.015157458,0.008015094,0.0037570898,-0.62829095,2017-01-03 13:23:14,NaN
-0.16280572,0.076614454,9.825804,-3.4913528E-4,2.758014E-4,0.05919937,29.0,-0.16230544,0.075491324,9.8050165,-0.014759074,-0.0073895846,0.001633544,0.008141791,0.004124686,-0.6182303,2017-01-03 13:23:15,NaN
-0.16280572,0.08619126,9.80665,0.0010743913,-3.4275017E-4,0.035192423,29.0,-0.16124755,0.072637364,9.805056,-0.015816968,0.009084717,0.0015944717,0.008006593,0.004148152,-0.6205957,2017-01-03 13:23:16,NaN
-0.17238252,0.08619126,9.816227,6.25672E-4,6.468708E-4,-0.03812539,26.0,-0.15921083,0.07666175,9.8050585,-0.004233341,0.005060336,0.015212325,0.008111392,0.003922149,-0.6222606,2017-01-03 13:23:17,NaN
-0.17238252,0.08619126,9.80665,2.6236004E-5,-0.0013398561,0.11615873,29.0,-0.16325116,0.07596226,9.804997,-1.9300914E-4,0.019380175,0.0016526643,0.008191508,0.00414571,-0.618425,2017-01-03 13:23:18,NaN
-0.17238252,0.076614454,9.816227,2.1906408E-4,-2.5441407E-4,0.052133147,22.0,-0.16063048,0.07897208,9.8050165,-0.0028136936,-0.010870341,0.015253891,0.00826003,0.0038813958,-0.62454396,2017-01-03 13:23:19,NaN
-0.17238252,0.076614454,9.80665,0.002538209,-0.00660768,-0.019469198,26.0,-0.16171004,0.07302106,9.805045,-0.0017341336,-0.004919323,0.0016052789,0.00802209,0.0041823974,-0.61786795,2017-01-03 13:23:20,NaN
-0.16280572,0.06703765,9.816227,-3.299032E-4,-8.6458295E-4,-0.16737379,29.0,-0.16353829,0.0735588,9.805011,-0.013526226,-0.019077403,0.015259711,0.008152552,0.004139231,-0.62744886,2017-01-03 13:23:21,NaN
-0.17238252,0.08619126,9.825804,0.001615862,0.0028163067,-0.08016728,26.0,-0.16401878,0.071762666,9.805016,5.74611E-4,0.009959421,0.0016343753,0.008100339,0.0042086127,-0.6281369,2017-01-03 13:23:22,NaN
-0.17238252,0.095768064,9.825804,6.6800835E-4,-0.0021041078,0.027533006,29.0,-0.15928537,0.07345741,9.805082,-0.0041588084,0.021885019,0.015188217,0.007967173,0.004063632,-0.61863893,2017-01-03 13:23:23,NaN
-0.17238252,0.076614454,9.825804,-0.0010047102,-9.85898E-4,-0.04024012,26.0,-0.15525691,0.080889426,9.805088,-0.021807604,8.326579E-4,0.015182398,0.00815016,0.003640302,-0.6212898,2017-01-03 13:23:24,NaN
-0.16280572,0.08619126,9.80665,0.002460872,-0.0010061221,-0.1985065,33.0,-0.15339321,0.08630544,9.805071,0.0035693895,-0.004583353,0.015199024,0.0083822785,0.0032051671,-0.63888323,2017-01-03 13:23:25,NaN
-0.15322891,0.08619126,9.797073,7.345892E-4,-0.0010040358,0.06747047,33.0,-0.15096666,0.08765818,9.805098,-0.012477502,-0.005936099,-0.012067441,0.008282208,0.0032607303,-0.62069726,2017-01-03 13:23:26,NaN
-0.15322891,0.08619126,9.80665,0.003123622,-0.0022003409,0.040379357,29.0,-0.15492682,0.08336694,9.805072,0.005102993,0.01197549,0.0015778454,0.008227104,0.003575404,-0.6187382,2017-01-03 13:23:27,NaN
-0.16280572,0.095768064,9.816227,-1.2627468E-4,-5.938823E-6,-0.047591645,33.0,-0.15288772,0.08486859,9.805092,-0.010556453,-0.0031465008,0.001558725,0.008258492,0.0033602144,-0.6269154,2017-01-03 13:23:28,NaN
-0.18195933,0.08619126,9.816227,2.1436733E-4,-6.592405E-4,-0.045538604,33.0,-0.15560094,0.082348995,9.80507,-0.007843232,-6.269062E-4,0.015200687,0.0082429955,0.0035535125,-0.6264446,2017-01-03 13:23:29,NaN
-0.18195933,0.08619126,9.80665,-0.003988372,0.0023117932,0.20292582,33.0,-0.16207191,0.076172344,9.805016,-0.0149925975,0.005549737,0.0016343753,0.00820804,0.004000184,-0.6271845,2017-01-03 13:23:30,NaN
-0.17238252,0.08619126,9.80665,-0.0031219965,0.0020886383,0.07879497,37.0,-0.15451011,0.084769756,9.805067,-0.008934067,-0.0030476712,0.0015836646,0.008294824,0.0034558165,-0.62428415,2017-01-03 13:23:31,NaN
-0.18195933,0.095768064,9.825804,-0.0016076196,-1.53618E-4,0.10414191,41.0,-0.15695687,0.08016859,9.805067,0.0071330373,0.015173844,0.015203181,0.008309586,0.0034213746,-0.6502796,2017-01-03 13:23:32,NaN
-0.16280572,0.08619126,9.816227,-9.33006E-4,0.0018358309,-0.031577177,33.0,-0.15510285,0.079863004,9.8050995,0.005279025,0.0018590784,0.01517159,0.00814982,0.003564273,-0.63111174,2017-01-03 13:23:33,NaN
-0.1436521,0.095768064,9.816227,-0.003075333,-9.986428E-4,0.10364515,37.0,-0.1504626,0.08042182,9.805166,-0.012981568,0.0013002625,0.0014839063,0.00799221,0.00343433,-0.6241555,2017-01-03 13:23:34,NaN
-0.16280572,0.095768064,9.816227,2.4188908E-4,0.0010868642,0.013765722,41.0,-0.15322445,0.08607304,9.805076,0.0034006315,-0.017971307,0.015194868,0.008313521,0.0033440066,-0.6260794,2017-01-03 13:23:35,NaN
-0.17238252,0.076614454,9.816227,-0.0064226636,0.0021681807,0.297104,37.0,-0.15641397,0.08131608,9.805066,0.0065901596,0.01402635,0.015204843,0.008250617,0.0035667638,-0.6313563,2017-01-03 13:23:36,NaN
-0.17238252,0.076614454,9.816227,-6.8543863E-4,-8.4759627E-4,-0.03684833,41.0,-0.15440626,0.082813546,9.805085,-0.0090379035,-0.014711812,0.015185723,0.008233356,0.0034674013,-0.6286959,2017-01-03 13:23:37,NaN
-0.15322891,0.08619126,9.797073,7.592726E-4,9.54267E-4,-0.07306924,44.0,-0.15128654,0.08554462,9.80511,0.0014627207,-0.0038225392,-0.012079911,0.008203468,0.003351128,-0.6196729,2017-01-03 13:23:38,NaN
-0.16280572,0.095768064,9.80665,0.004888145,-0.002379689,-0.2300037,41.0,-0.14735259,0.09048815,9.805126,-0.0024712288,0.004854285,0.0015238096,0.008328465,0.0028933769,-0.6332019,2017-01-03 13:23:39,NaN
-0.15322891,0.10534488,9.80665,-0.002095739,0.0017446857,0.114480264,41.0,-0.14954741,0.086651444,9.805127,-2.764009E-4,-0.0049293577,0.0015229783,0.008203688,0.0032189614,-0.62231153,2017-01-03 13:23:40,NaN
-0.17238252,0.08619126,9.80665,-0.001778839,2.9962673E-4,0.0066655604,44.0,-0.15299404,0.08284113,9.805107,-0.010450135,-0.0011190412,0.015163277,0.008145948,0.003512511,-0.6189375,2017-01-03 13:23:41,NaN
-0.17238252,0.06703765,9.80665,-0.0017392276,0.0035308904,0.12112504,44.0,-0.15533154,0.07895138,9.805102,-0.021732979,-0.010849642,0.015168265,0.008068756,0.0037184628,-0.6199511,2017-01-03 13:23:42,NaN
-0.16280572,0.095768064,9.816227,9.830099E-4,0.0025028342,-0.02569712,44.0,-0.15523161,0.0821627,9.8050785,-0.021832906,-0.014060959,0.015192374,0.008183463,0.0036369266,-0.6176513,2017-01-03 13:23:43,NaN
-0.17238252,0.08619126,9.80665,-0.0010722083,-0.0016487873,0.04362893,44.0,-0.16099769,0.07919529,9.805009,-0.0024464838,0.0025267908,0.0016410258,0.00826054,0.0039313696,-0.62052643,2017-01-03 13:23:44,NaN
-0.17238252,0.08619126,9.816227,-0.0020754454,5.23687E-4,0.032318123,44.0,-0.15597555,0.07812607,9.8050995,0.0061517167,-0.010024336,0.0015504118,0.008040489,0.0038034876,-0.6167121,2017-01-03 13:23:45,NaN
-0.18195933,0.095768064,9.816227,-1.4855673E-4,1.3102854E-4,-0.13147455,44.0,-0.15351017,0.08066061,9.805118,0.0036863459,-0.012558868,0.015153302,0.008103864,0.0035363738,-0.62528825,2017-01-03 13:23:46,NaN
-0.16280572,0.08619126,9.825804,-0.0058452864,0.0021926188,0.07893965,44.0,-0.15799792,0.07867519,9.805062,0.008174097,-0.024193795,0.015208169,0.008190924,0.003728205,-0.6300498,2017-01-03 13:23:47,NaN
-0.1436521,0.095768064,9.80665,-0.0021522185,2.2234755E-4,0.12107122,44.0,-0.15522467,0.07297153,9.805151,0.0054008393,0.022370901,0.0014997014,0.007844024,0.0038671403,-0.6235576,2017-01-03 13:23:48,NaN
-0.15322891,0.095768064,9.816227,0.001179795,7.13714E-4,0.02286088,44.0,-0.15460324,0.07924602,9.805111,0.004779428,0.016096408,0.015159121,0.008085262,0.0036186534,-0.6258979,2017-01-03 13:23:49,NaN
-0.18195933,0.06703765,9.825804,-0.0028746214,0.0030198772,0.12875086,41.0,-0.15609117,0.07529471,9.805119,-0.020973347,-0.020813325,0.015151639,0.007964421,0.0038273248,-0.62360543,2017-01-03 13:23:50,NaN
-0.17238252,0.08619126,9.80665,0.004742152,-0.0059306445,-0.1498315,44.0,-0.15461297,0.08048102,9.805101,0.004789157,0.0012410635,0.0015487492,0.008122472,0.0036072514,-0.62324375,2017-01-03 13:23:51,NaN
-0.16280572,0.076614454,9.825804,0.0022655195,0.0021180266,-0.0946308,48.0,-0.1561286,0.07781431,9.8050995,0.0063047702,0.017528117,0.0015512431,0.008022149,0.0038417336,-0.61452323,2017-01-03 13:23:52,NaN
-0.15322891,0.095768064,9.816227,3.930461E-4,-0.0029851175,-0.07714551,37.0,-0.15787442,0.07627271,9.805082,0.0080506075,0.019069722,0.015188217,0.0080538,0.0038804354,-0.6223304,2017-01-03 13:23:53,NaN
-0.1340753,0.10534488,9.787497,0.00544102,-0.002124867,-0.19837822,44.0,-0.15298122,0.07756432,9.805151,0.0031573924,0.0041577625,-0.0121206455,0.007946366,0.003652205,-0.6215384,2017-01-03 13:23:54,NaN
-0.1340753,0.10534488,9.80665,2.937679E-4,-7.534827E-4,0.059195522,37.0,-0.15464257,0.07946803,9.805109,0.0048187464,0.015874406,0.0015412674,0.008062701,0.0036854031,-0.6188966,2017-01-03 13:23:55,NaN
-0.18195933,0.08619126,9.816227,-3.516913E-4,-1.8579759E-4,0.094175786,41.0,-0.15446717,0.079923525,9.805108,-0.022597358,0.0017985608,0.015162447,0.008108526,0.0035901158,-0.6260425,2017-01-03 13:23:56,NaN
-0.16280572,0.076614454,9.825804,-0.0038598904,2.1233463E-5,0.02204042,37.0,-0.1583805,0.07838797,9.8050585,0.00855666,-0.010286228,0.015212325,0.008153225,0.0038357605,-0.6221141,2017-01-03 13:23:57,NaN
-0.17238252,0.076614454,9.825804,-6.016613E-4,0.001740163,-0.0962869,37.0,-0.16839907,0.069089025,9.804961,0.004954888,-9.872899E-4,0.028929107,0.00817983,0.0043846276,-0.6360582,2017-01-03 13:23:58,NaN
-0.16280572,0.08619126,9.80665,-0.0021284288,0.0042833406,0.004980613,41.0,-0.17247277,0.06261599,9.804934,0.009028603,0.03272644,0.015337024,0.008000684,0.004849479,-0.6269191,2017-01-03 13:23:59,NaN
-0.16280572,0.06703765,9.80665,8.42163E-4,5.521331E-4,0.06194786,44.0,-0.1651779,0.06718322,9.805029,-0.011886616,0.014538866,0.0016210742,0.007977573,0.004361648,-0.631999,2017-01-03 13:24:00,NaN
-0.16280572,0.095768064,9.80665,-8.551521E-4,-0.0032086438,0.061867,48.0,-0.15622,0.07743978,9.8050995,-0.007224171,0.004282311,0.0151707595,0.008066726,0.003736942,-0.6262502,2017-01-03 13:24:01,NaN
-0.16280572,0.076614454,9.816227,0.0011894105,9.5560926E-4,-0.02485077,41.0,-0.15491454,0.076042965,9.805133,0.005090718,-0.00794123,0.015137507,0.007962742,0.0037440765,-0.62483776,2017-01-03 13:24:02,NaN
-0.1436521,0.10534488,9.787497,0.0044724997,-0.0037547925,0.092073366,44.0,-0.14570227,0.080741026,9.805236,0.009498793,9.810616E-4,-0.012205441,0.007848146,0.0032472902,-0.62288636,2017-01-03 13:24:03,NaN
-0.17238252,0.08619126,9.80665,5.4329616E-4,-0.001026593,-0.07208466,41.0,-0.15416184,0.0850088,9.80507,0.004338023,0.010333633,0.0015803394,0.008270479,0.0034888338,-0.6191304,2017-01-03 13:24:04,NaN
-0.16280572,0.095768064,9.816227,0.0010360362,-0.0021305624,-0.05162055,44.0,-0.1523415,0.078843705,9.805151,0.0025176788,-0.010741967,0.015120049,0.007990141,0.0035571638,-0.62437415,2017-01-03 13:24:05,NaN
-0.15322891,0.076614454,9.825804,0.005035103,-0.0021601922,-0.081667505,44.0,-0.15296048,0.080576204,9.805127,0.0031366614,0.0011458837,0.015143326,0.008087633,0.0035064793,-0.6263221,2017-01-03 13:24:06,NaN
-0.16280572,0.08619126,9.816227,-0.001144148,9.4206375E-4,-0.009652506,44.0,-0.16101784,0.06959568,9.805081,0.01119401,0.012126408,0.0015687009,0.007889672,0.0042128963,-0.62281364,2017-01-03 13:24:07,NaN
-0.15322891,0.08619126,9.816227,8.883619E-4,0.0021431795,0.07105711,44.0,-0.15161434,0.07627083,9.8051815,0.0017905205,0.0054512513,0.015088459,0.0078567155,0.003627056,-0.6226896,2017-01-03 13:24:08,NaN
-0.15322891,0.08619126,9.816227,-1.1478485E-4,-0.0023621803,0.13980359,44.0,-0.155405,0.07608811,9.805123,0.0055811843,0.0056339726,0.015146651,0.007984898,0.0037521177,-0.6258198,2017-01-03 13:24:09,NaN
-0.18195933,0.076614454,9.816227,-0.0049492414,0.0035936644,-0.026935672,44.0,-0.1570109,0.07456632,9.80511,-0.006433261,-0.0064645787,0.015160783,0.00796698,0.0038823355,-0.62407726,2017-01-03 13:24:10,NaN
-0.18195933,0.08619126,9.825804,-6.012159E-4,1.3445062E-4,-0.018259427,41.0,-0.15204531,0.07488314,9.805186,0.002221482,0.0068389447,0.0014639547,0.007816115,0.0036860162,-0.622919,2017-01-03 13:24:11,NaN
-0.15322891,0.076614454,9.835381,-0.0062761735,0.0013870486,0.20963906,44.0,-0.15463148,0.07623057,9.805136,-0.008812694,-0.008128829,0.015135013,0.007960953,0.0037273366,-0.6247883,2017-01-03 13:24:12,NaN
-0.16280572,0.076614454,9.80665,-4.4101867E-4,-6.0937303E-4,0.08976657,44.0,-0.1540019,0.08018779,9.805114,0.0041780844,-0.012086055,0.0015371108,0.008109712,0.0035505735,-0.6272544,2017-01-03 13:24:13,NaN
-0.18195933,0.076614454,9.816227,-0.003043037,-5.771935E-4,-0.13243215,48.0,-0.15551732,0.0771066,9.805114,-0.02154719,-0.009004865,0.015156627,0.008061685,0.0036527596,-0.6327091,2017-01-03 13:24:14,NaN
-0.17238252,0.076614454,9.787497,-0.0027116735,0.0013285137,0.083668575,41.0,-0.15383917,0.08031617,9.805116,0.004015341,0.0014059182,0.0015346168,0.008081477,0.0036037513,-0.62110287,2017-01-03 13:24:15,NaN
-0.17238252,0.08619126,9.825804,-0.0040285015,0.0010360037,0.076158635,41.0,-0.15637104,0.07660479,9.805104,-0.007073131,0.0051172944,0.015166603,0.008036257,0.003774088,-0.62581563,2017-01-03 13:24:16,NaN
-0.16280572,0.076614454,9.816227,0.0033645048,-0.001138995,-0.060292616,41.0,-0.15196045,0.08036288,9.805144,0.0021366223,0.0013592083,0.0151267,0.008024281,0.0035261943,-0.6212014,2017-01-03 13:24:17,NaN
-0.17238252,0.08619126,9.825804,-0.0018452542,-6.763333E-5,-0.006653885,44.0,-0.15764473,0.073844604,9.805105,0.007820916,-0.0057428693,0.01516494,0.007936975,0.0039736377,-0.6198325,2017-01-03 13:24:18,NaN
-0.16280572,0.08619126,9.816227,-0.0025707919,-8.384086E-4,-0.038352117,48.0,-0.15295765,0.07649527,9.80516,0.0031338297,0.0052268207,0.015110904,0.007918263,0.0036520506,-0.6248101,2017-01-03 13:24:19,NaN
-0.17238252,0.08619126,9.825804,3.6132414E-4,-0.0031086465,-0.00785693,41.0,-0.15970558,0.07644675,9.805053,-0.0037385891,0.005275336,0.015218144,0.008113955,0.0039580665,-0.62135834,2017-01-03 13:24:20,NaN
-0.19153613,0.08619126,9.816227,-0.039288167,0.033419337,-0.25491714,48.0,-0.1626131,0.1119053,9.804663,-0.041692115,-0.030183217,0.042847898,0.009928841,0.0016498611,-0.7196779,2017-01-03 13:24:21,NaN
0.62249243,-0.45010993,9.892841,0.15418403,0.42020264,-0.045918968,22.0,-0.2252799,-0.3267329,9.798616,-1.1912363,-0.027396152,0.008033877,-0.013974746,0.014639598,-0.20351548,2017-01-03 13:24:22,NaN
-0.019153614,0.7182605,10.28549,0.010241359,0.1302138,-0.18641372,22.0,-0.41920713,0.1341874,9.796767,-0.8474852,0.35614508,0.18694726,0.003291826,0.022204878,0.16185933,2017-01-03 13:24:23,NaN
1.091756,0.61291564,9.710882,-0.16574457,-0.024299486,0.64630353,29.0,0.14189404,0.41734353,9.796738,-0.4960231,0.22281282,0.064393215,0.01916648,0.011748158,0.7690272,2017-01-03 13:24:24,NaN
-2.719813,0.51714754,9.662998,0.11208235,0.23705824,-0.1658979,33.0,-1.9748166,0.4223166,9.596466,-0.85821575,-0.32697418,-0.32100922,-0.066452526,0.07937589,0.7838475,2017-01-03 13:24:25,NaN
-2.27928,0.22984336,9.720459,-0.06470005,-0.029804932,0.0071827234,37.0,-2.447013,0.2625032,9.49282,0.15879439,0.21420895,-0.026677892,-0.0894701,0.089420624,0.77241385,2017-01-03 13:24:26,NaN
-5.3438582,0.6512229,8.542512,0.14982761,0.70561886,-0.11688888,33.0,-2.815979,0.22776353,9.390889,-2.482336,0.27618933,-0.7011071,-0.10544529,0.10039559,0.769185,2017-01-03 13:24:27,NaN
-9.232041,1.7429788,3.5913026,-0.03933863,0.069252454,0.011899127,22.0,-8.977351,1.602923,3.6066897,-0.25724453,0.14048134,-0.051779184,-0.39372212,0.40136382,0.67386496,2017-01-03 13:24:28,NaN
-9.308656,1.9728222,2.96881,-0.058107775,0.055816624,0.03835654,29.0,-9.117781,1.8518946,3.0995083,-0.26663843,0.09581503,-0.048550542,-0.39635193,0.42996988,0.6575244,2017-01-03 13:24:29,NaN
-1.7429788,0.4405331,10.620679,0.8809391,-2.3043964,-1.1406468,37.0,-6.3786135,1.6061981,7.2735004,4.3355613,-0.6663941,2.1109185,-0.15252988,0.32540643,0.59040976,2017-01-03 13:24:30,NaN
-0.19153613,0.11492168,9.80665,0.23549156,-0.6954148,0.47766402,37.0,-0.9015109,-0.14842787,9.763997,0.72444636,0.25739065,0.042653367,0.00926083,0.04570503,-0.3547824,2017-01-03 13:24:31,NaN
1.8866309,-0.9768343,10.46745,-0.17554963,-0.3586497,-0.19351281,37.0,-0.006454825,0.057830777,9.806478,1.6817575,-0.8614313,0.054653473,0.0028200636,-9.21719E-4,-0.41418916,2017-01-03 13:24:32,NaN
0.34476504,-0.5746084,9.816227,0.0143475775,0.40894702,-0.15035342,37.0,0.47386187,-0.2290667,9.792516,-0.7054078,0.33802947,0.23205967,-0.024344536,-0.011312919,-0.6328336,2017-01-03 13:24:33,NaN
0.095768064,-0.16280572,9.80665,9.685606E-6,0.0014797837,-0.095920995,33.0,0.0944026,-0.15371959,9.804992,-0.012680515,-0.009724587,0.015278831,-0.00911811,0.0012085983,-0.63072366,2017-01-03 13:24:34,NaN
0.08619126,-0.17238252,9.816227,-0.0024837058,2.3946029E-4,0.028361905,33.0,0.09303501,-0.15392147,9.805001,-0.0113129215,0.0040976414,0.0152696865,-0.009091178,0.0012025601,-0.6250162,2017-01-03 13:24:35,NaN
0.08619126,-0.18195933,9.816227,0.0024193956,-0.0016578694,0.09272739,33.0,0.09103,-0.15837653,9.804949,0.0043124272,0.008552698,0.015321229,-0.009201741,0.0014427331,-0.6265738,2017-01-03 13:24:36,NaN
0.08619126,-0.17238252,9.825804,-0.0,0.0,0.0,41.0,0.09391529,-0.15228134,9.805018,0.0014271426,-0.011162823,0.015252229,-0.009056498,0.0010943672,-0.62321436,2017-01-03 13:24:37,NaN
0.10534488,-0.15322891,9.816227,-0.0013008255,5.3795235E-4,0.015376512,33.0,0.094949014,-0.15321298,9.804994,3.934222E-4,-0.010231186,0.015277169,-0.0091254385,0.0010916663,-0.62397724,2017-01-03 13:24:38,NaN
0.095768064,-0.17238252,9.80665,8.2889886E-4,-0.0030675041,0.10891864,29.0,0.09186461,-0.15482852,9.804997,0.0034778207,0.0050046896,0.0016526643,-0.009090337,0.0012755031,-0.6247974,2017-01-03 13:24:39,NaN
0.08619126,-0.17238252,9.816227,-0.0012969038,0.001115652,-0.067460254,29.0,0.0902724,-0.1617206,9.804901,-0.008550308,-0.0017235602,0.015369444,-0.009313339,0.0015624427,-0.6251292,2017-01-03 13:24:40,NaN
0.08619126,-0.15322891,9.80665,0.0022883299,0.0010934104,-0.080489665,33.0,0.08944429,-0.15558396,9.805008,-0.007722203,0.0057601384,0.0016418571,-0.009031544,0.0014700653,-0.6311815,2017-01-03 13:24:41,NaN
0.08619126,-0.17238252,9.835381,-0.0039050274,0.008277153,0.039513674,41.0,0.09015103,-0.15097289,9.805074,-0.022049282,-0.026091628,0.056057576,-0.008878632,0.0012468136,-0.62707555,2017-01-03 13:24:42,NaN
0.08619126,-0.20111294,9.835381,-6.4945914E-4,-0.0015631922,0.036172338,33.0,0.08756041,-0.15764907,9.804993,-0.0058383215,-0.03303579,0.0152779985,-0.009067569,0.0015244369,-0.62373966,2017-01-03 13:24:43,NaN
0.095768064,-0.17238252,9.80665,-1.0518017E-4,1.2609205E-4,-0.023416577,33.0,0.084502734,-0.16201329,9.804948,-0.016400995,-0.0014308837,0.0017025435,-0.009141109,0.0018011581,-0.62511104,2017-01-03 13:24:44,NaN
0.076614454,-0.17238252,9.883265,0.0013444006,-0.0039368235,0.12688582,29.0,0.085436806,-0.15425551,9.805066,0.009905626,0.004431689,0.042445537,-0.008850102,0.0015853243,-0.63114154,2017-01-03 13:24:45,NaN
0.08619126,-0.15322891,9.80665,0.0011903819,-0.0031189974,0.05870209,33.0,0.089919746,-0.1478363,9.805123,0.005422681,-0.0019875304,0.0015271349,-0.008748665,0.0011403812,-0.62571084,2017-01-03 13:24:46,NaN
0.10534488,-0.15322891,9.816227,0.0,-0.0,-0.0,33.0,0.0875329,-0.15249215,9.805074,0.007809531,0.0026683295,0.01519653,-0.008853641,0.0014095869,-0.62797356,2017-01-03 13:24:47,NaN
0.08619126,-0.16280572,9.835381,-0.003224752,0.0014482046,-0.10455152,37.0,0.08137765,-0.15217046,9.805132,3.4443277E-4,-0.011273699,0.015138337,-0.008625571,0.0017365058,-0.63631797,2017-01-03 13:24:48,NaN
0.08619126,-0.1436521,9.844957,8.476622E-6,-0.0014747229,-0.016850147,29.0,0.08670027,-0.15184247,9.805092,-0.0049781846,0.0020186529,0.0151790725,-0.008762548,0.0016432859,-0.64739555,2017-01-03 13:24:49,NaN
0.076614454,-0.16280572,9.835381,0.007491774,-0.0052371803,0.23577484,29.0,0.07466201,-0.16181514,9.805032,-0.006560271,0.011991312,0.042479623,-0.008785712,0.0023186405,-0.63676035,2017-01-03 13:24:50,NaN
0.095768064,-0.17238252,9.835381,-6.8722107E-4,0.0019343256,-0.08813787,33.0,0.06980113,-0.16902426,9.804946,-0.0016993935,0.005580093,0.04256525,-0.008883209,0.002833518,-0.64449984,2017-01-03 13:24:51,NaN
0.08619126,-0.19153613,9.835381,-9.864534E-4,0.006033655,-0.03327209,29.0,0.07645115,-0.17081307,9.804865,0.005270933,-0.0062514483,0.02902637,-0.00918023,0.0026024783,-0.6419466,2017-01-03 13:24:52,NaN
0.076614454,-0.18195933,9.844957,-0.0,-0.0,-0.0,29.0,0.073067054,-0.17088138,9.80489,0.008655028,-0.0061831377,0.04262178,-0.009080268,0.0027098607,-0.6396508,2017-01-03 13:24:53,NaN
0.08619126,-0.17238252,9.844957,-1.2445268E-4,9.314865E-4,0.03519794,29.0,0.066985585,-0.16668075,9.805005,0.014736499,0.016856924,0.042506225,-0.008691205,0.002890736,-0.64665025,2017-01-03 13:24:54,NaN
0.06703765,-0.17238252,9.825804,-0.00692943,0.0045923297,-0.18702793,26.0,0.06924,-0.16600098,9.805001,-0.014758606,-0.02468389,0.028890034,-0.008765967,0.0026947567,-0.63913465,2017-01-03 13:24:55,NaN
0.08619126,-0.16280572,9.835381,0.0012964549,0.0097238235,-0.03237556,26.0,0.07838947,-0.17139289,9.804839,0.01695296,-0.0056716288,0.02905131,-0.009281118,0.0024913033,-0.6374395,2017-01-03 13:24:56,NaN
0.08619126,-0.18195933,9.854534,0.0021020218,-0.001724393,-0.015199561,26.0,0.07217672,-0.16565257,9.804986,-0.017695328,0.01582875,0.028904997,-0.008851022,0.0025578612,-0.6382316,2017-01-03 13:24:57,NaN
0.076614454,-0.18195933,9.844957,-0.0030624554,0.0014198439,0.028270645,29.0,0.06980623,-0.16377936,9.805035,0.011915856,3.3519085E-4,0.02885595,-0.008713571,0.0025450736,-0.63425696,2017-01-03 13:24:58,NaN
0.076614454,-0.17238252,9.835381,9.985908E-4,9.196006E-4,-0.023882251,33.0,0.06898167,-0.16552638,9.805011,0.012740415,0.015702544,0.028880058,-0.008753879,0.0026403747,-0.63481253,2017-01-03 13:24:59,NaN
0.076614454,-0.17238252,9.835381,-3.887555E-4,-0.002355971,0.1160392,33.0,0.06891965,-0.16944174,9.804945,-8.179085E-4,0.0059975716,0.028946564,-0.008961876,0.002583505,-0.6185856,2017-01-03 13:25:00,NaN
0.076614454,-0.19153613,9.825804,0.003673465,8.3864427E-7,-0.0058471686,29.0,0.069063246,-0.16645092,9.804995,-9.6150604E-4,0.0030067547,0.028895853,-0.008817997,0.002583056,-0.62741035,2017-01-03 13:25:01,NaN
0.076614454,-0.17238252,9.835381,-0.0025076373,0.0013873229,0.05728851,33.0,0.06709708,-0.17433542,9.804872,0.0010046503,-0.016349442,0.042640068,-0.009061771,0.0029331837,-0.629109,2017-01-03 13:25:02,NaN
0.076614454,-0.18195933,9.835381,0.0058220434,-0.0033399314,0.15050855,29.0,0.06830257,-0.1663929,9.805001,-2.0083522E-4,0.0029487184,0.028890034,-0.008777455,0.0026577553,-0.6315104,2017-01-03 13:25:03,NaN
0.076614454,-0.17238252,9.825804,-6.1258225E-4,-0.0032283962,0.015087108,33.0,0.069508836,-0.16510825,9.805015,-0.0014070936,0.015284429,0.015256385,-0.0087725,0.0025447174,-0.62938774,2017-01-03 13:25:04,NaN
0.076614454,-0.17238252,9.835381,5.689868E-4,-8.458576E-4,0.14648215,29.0,0.06846152,-0.16267021,9.805062,-3.5977972E-4,-7.739589E-4,0.028828515,-0.008670214,0.002409629,-0.6205208,2017-01-03 13:25:05,NaN
0.076614454,-0.15322891,9.816227,-0.0015030906,0.0017837294,-0.018120296,26.0,0.071014516,-0.16271974,9.805043,0.010707571,-7.2441745E-4,0.015227289,-0.008711244,0.0024618797,-0.6341422,2017-01-03 13:25:06,NaN
0.076614454,-0.17238252,9.854534,4.962232E-4,-5.435719E-4,0.009737848,26.0,0.07120537,-0.16004594,9.805085,-0.0031036295,0.010222106,0.02880524,-0.008613201,0.002363501,-0.6337483,2017-01-03 13:25:07,NaN
0.076614454,-0.17238252,9.844957,9.867973E-4,0.0047165994,-0.1259193,29.0,0.06754267,-0.17281449,9.804895,5.590692E-4,0.02299066,0.042615958,-0.008988652,0.0029506886,-0.6363307,2017-01-03 13:25:08,NaN
0.076614454,-0.17238252,9.835381,0.0074602193,-0.0029850537,0.011232518,26.0,0.065605596,-0.17268671,9.80491,0.0024961424,0.009242538,0.042600993,-0.008943028,0.0029562358,-0.6305709,2017-01-03 13:25:09,NaN
0.08619126,-0.17238252,9.835381,0.0,0.0,0.0,26.0,0.06822842,-0.16751443,9.804982,0.013493663,0.0040702596,0.028908322,-0.008810614,0.0027253989,-0.63402206,2017-01-03 13:25:10,NaN
0.076614454,-0.18195933,9.864111,0.005747502,-3.4025902E-4,-0.077912755,29.0,0.06709262,-0.17119564,9.804926,0.014629466,0.02137181,0.015344506,-0.00891723,0.0028948137,-0.6345081,2017-01-03 13:25:11,NaN
0.095768064,-0.16280572,9.825804,0.0013180969,-0.001125795,0.02577921,26.0,0.07217261,-0.15604079,9.805143,-0.0040708766,0.006216962,0.028747879,-0.008492596,0.0021721635,-0.63158184,2017-01-03 13:25:12,NaN
0.06703765,-0.18195933,9.835381,0.003679031,-0.002393568,-0.067339055,26.0,0.068067946,-0.17088856,9.804924,0.013654139,0.007444393,0.042586863,-0.008942036,0.0028295866,-0.6330496,2017-01-03 13:25:13,NaN
0.08619126,-0.17238252,9.835381,2.7525393E-4,-3.192028E-5,-0.04055877,29.0,0.07184791,-0.15914665,9.805096,-0.017366515,0.009322826,0.028795263,-0.008580677,0.002374457,-0.6396155,2017-01-03 13:25:14,NaN
0.08619126,-0.15322891,9.835381,-0.0015009347,-0.0033301774,0.12414724,29.0,0.06690811,-0.16730419,9.804995,0.0148139745,0.0038600138,0.028895853,-0.008757642,0.0027769562,-0.634578,2017-01-03 13:25:15,NaN
0.08619126,-0.17238252,9.825804,-0.0059715356,0.0034390937,4.4399296E-4,29.0,0.07047914,-0.16213521,9.805057,-0.015997747,-0.028549647,0.015213988,-0.008656358,0.0025146443,-0.6386437,2017-01-03 13:25:16,NaN
0.06703765,-0.19153613,9.844957,-0.0034426004,0.0017626653,0.0057205968,29.0,0.063074134,-0.17746489,9.804842,0.005027603,4.0037153E-4,0.029048817,-0.009046075,0.0032231498,-0.63169277,2017-01-03 13:25:17,NaN
0.06703765,-0.18195933,9.835381,-0.004709033,6.5442506E-4,-0.07042987,29.0,0.06353823,-0.17293333,9.804919,0.0045635053,-0.017751541,0.015351157,-0.008862872,0.0031135238,-0.6364599,2017-01-03 13:25:18,NaN
0.076614454,-0.18195933,9.835381,-0.0021602549,0.0035091469,-0.00554102,26.0,0.073366396,-0.16147193,9.805046,-0.005264659,0.0116481185,0.028844312,-0.008778211,0.0021727323,-0.62026405,2017-01-03 13:25:19,NaN
0.08619126,-0.17238252,9.816227,-0.0,-0.0,-0.0,26.0,0.07687902,-0.15704918,9.805092,-0.008777278,-0.020015342,0.0151790725,-0.00872687,0.0018245293,-0.6141438,2017-01-03 13:25:20,NaN