ACC_X,ACC_Y,ACC_Z,GYRO_X,GYRO_Y,GYRO_Z,LIGH_1,GRAV_X,GRAV_Y,GRAV_Z,LINACC_X,LINACC_Y,LINACC_Z,ROTVEC_X,ROTVEC_Y,ROTVEC_Z,TIME,VOICE
9.56723,1.2354081,1.5227122,-4.1595526,-2.5378041,-4.4545007,0.0,0.40162787,0.03475912,0.91514313,0.54054713,0.080675825,-0.7443477,-0.12599188,-0.0504564,-0.9402024,2016-11-16 07:28:15,57.97115661283003
9.528923,0.90979666,2.0590134,-0.44153935,-0.119596496,0.05481364,0.0,0.9699017,0.11842257,0.2127602,-7.469058E-4,-0.030285068,-0.008012712,0.62689686,-0.042747274,0.76349694,2016-11-16 07:28:15,52.39327012774544
8.743625,0.8331822,4.3957543,0.008565826,0.2657349,-0.02320029,0.0,0.89883006,0.07986468,0.4309596,0.0018365383,-7.791519E-4,0.004535973,0.54286236,-0.043351293,0.8271849,2016-11-16 07:28:15,52.50371543035938
9.078813,0.48841715,3.6870706,0.6843749,0.18398522,-0.124362774,0.0,0.92824256,0.050887126,0.36847848,-0.0017135143,-9.5350295E-4,0.0074392557,0.5605608,-0.01481131,0.8252542,2016-11-16 07:28:16,74.24018784786563
9.193734,0.48841715,3.3997664,0.91954625,-0.066071175,0.12186882,0.0,0.9236886,0.047244273,0.38022003,0.010971189,-4.1322038E-4,-0.03978756,0.5556968,-0.016510658,0.828536,2016-11-16 07:28:17,59.321001993801524
9.126697,0.48841715,3.4763808,0.08027849,-0.010395017,-0.005813854,0.0,0.9332503,0.047840964,0.35602683,0.0019535422,-6.238744E-5,-0.0032328963,0.5684357,-0.010217512,0.8207155,2016-11-16 07:28:18,60.68512416397715
9.212888,0.45010993,3.4859576,0.1178654,0.037369326,0.01595748,0.0,0.9359113,0.04578803,0.3492472,0.0022577047,0.0030571893,0.0073540807,0.56992054,-0.007835356,0.8200149,2016-11-16 07:28:19,44.34370239396489
9.136273,0.46926352,3.6296098,0.053655684,-0.007159872,0.024807395,0.0,0.928263,0.047065217,0.36893436,0.0040295124,7.402152E-4,0.0013941526,0.562363,-0.013383272,0.82451046,2016-11-16 07:28:20,52.217687180557505
9.050082,0.4309563,3.8402996,-0.10446612,-0.0031018741,-0.0021672358,0.0,0.92059404,0.045250885,0.38789055,0.002924025,-0.0021894425,-3.504753E-5,0.5534175,-0.011114433,0.830885,2016-11-16 07:28:21,52.76186457884449
8.944737,0.4309563,3.916914,0.118410915,0.002288606,0.024839437,0.0,0.9146505,0.043408286,0.40190816,-9.433031E-4,0.0015481599,0.0016815662,0.54654723,-0.011699661,0.8353342,2016-11-16 07:28:22,49.81444117727379
8.963891,0.4405331,4.050989,0.0650624,0.014974901,0.042340133,0.0,0.9108933,0.045054067,0.41017506,0.0048662424,-0.0010735467,0.0059012473,0.5437107,-0.01321182,0.8369461,2016-11-16 07:28:23,49.216773192284684
8.973468,0.45010993,4.060566,-0.2808447,0.025514945,-0.04744981,0.0,0.90972596,0.046835147,0.4125591,0.006960094,4.6338886E-5,0.0036338568,0.54220265,0.0012022532,0.8392814,2016-11-16 07:28:24,53.19986526232569
8.916007,0.39264908,4.1180267,-0.13260077,0.012583697,-0.02422177,0.0,0.9079089,0.04548618,0.4166921,0.0048015714,-4.6505406E-4,0.0025685132,0.5401731,-0.0037703724,0.84018064,2016-11-16 07:28:25,48.1094739193328
8.916007,0.4309563,4.1946416,0.22965668,0.025543477,0.017475251,0.0,0.9049096,0.045007847,0.42321748,0.0049651265,-0.0010381378,0.004640758,0.5375501,-0.009409713,0.84125626,2016-11-16 07:28:26,51.83005223158102
8.858546,0.4405331,4.1946416,0.042724065,0.008329925,0.042574413,0.0,0.9031825,0.044979494,0.42689377,0.0027350783,-0.0047320947,0.0020259619,0.5355186,-0.01405665,0.84200007,2016-11-16 07:28:27,44.411805951356335
8.896853,0.45010993,4.2425256,0.018692138,0.0067858943,0.045812517,0.0,0.9054092,0.044494744,0.42220172,-5.1629543E-4,0.0033702627,-0.0019553602,0.5373124,-0.013424405,0.84090906,2016-11-16 07:28:28,57.31429540014891
8.868123,0.4405331,4.213795,0.27990454,0.007017399,0.07070082,0.0,0.90300614,0.04283713,0.42748684,0.0018724203,1.5219674E-4,6.0629845E-4,0.5352994,-0.011312434,0.8425604,2016-11-16 07:28:29,56.634198403433146
8.8777,0.4405331,4.2999864,-0.36761335,-0.0051717036,-0.049600717,0.0,0.9000666,0.045136128,0.43340844,0.005832672,-8.4441155E-5,0.0053314865,0.5324985,-0.009430277,0.84438115,2016-11-16 07:28:30,61.71814081758623
8.829816,0.41180268,4.261679,0.045415774,0.012441415,-0.10130779,0.0,0.89927197,0.045885514,0.43497625,-2.3114681E-4,-0.0028495789,-1.0219216E-4,0.5317476,-0.010526397,0.84477735,2016-11-16 07:28:31,52.635237331220104
8.839393,0.46926352,4.31914,0.011874173,0.006479851,-0.006607355,0.0,0.8985243,0.046038512,0.4365027,0.0033786893,0.0016829111,0.0043991804,0.530017,-0.010938073,0.8457772,2016-11-16 07:28:32,46.965324483857664
8.829816,0.41180268,4.3382936,0.26072767,0.013516518,0.070341796,0.0,0.893876,0.04679196,0.44586572,0.0042480826,-0.0017173328,0.0025592446,0.526653,-0.009941052,0.8479003,2016-11-16 07:28:33,53.13954316491209
8.781932,0.45968673,4.4244847,-0.080799945,0.0051280176,-0.030110901,0.0,0.89346075,0.046030283,0.44677642,0.0027154088,8.462332E-4,0.0045834184,0.52576977,-0.008206903,0.84869367,2016-11-16 07:28:34,45.84748989398
8.801085,0.4213795,4.4244847,-0.07422399,0.018497821,-0.011329625,0.0,0.89292794,0.046505425,0.44779122,0.0071595907,0.0022415444,0.00455004,0.5257854,-0.004411453,0.84911156,2016-11-16 07:28:35,49.88782586217639
8.619126,0.45968673,4.6926355,0.1417861,0.007946228,0.04282928,0.0,0.87652606,0.044249177,0.47931615,0.006894231,0.002506882,0.002453804,0.5104948,-0.008411345,0.8579477,2016-11-16 07:28:36,50.7955649979353
8.599973,0.48841715,4.7022123,0.12655807,0.02176981,0.031066174,0.0,0.8780577,0.049334157,0.47600505,0.0043753386,-0.0024332851,0.0047927797,0.5113109,-0.0059801997,0.857462,2016-11-16 07:28:37,48.72860579746754
8.695741,0.49799395,4.6255975,-0.18204714,0.006429656,0.018964257,0.0,0.8823298,0.04642004,0.46833685,1.9407272E-4,-0.0022603422,-4.3275952E-4,0.51540637,-0.00211432,0.855501,2016-11-16 07:28:38,51.92151665254822
8.63828,0.45010993,4.6830587,-0.030084377,0.002140432,0.023359343,0.0,0.8770405,0.045959506,0.47821304,4.811883E-4,9.4694644E-4,-0.0022555888,0.511179,-0.009296598,0.857286,2016-11-16 07:28:39,43.76597181083545
8.628703,0.4213795,4.7500963,0.051972568,-0.011118813,0.03608903,0.0,0.8761123,0.04618752,0.47988963,0.0033650994,0.0017082877,0.0019274652,0.50957584,-0.009902002,0.8580739,2016-11-16 07:28:40,52.74096623094104
8.6095495,0.4213795,4.76925,-0.2176438,0.01696864,-0.033485394,0.0,0.87554955,0.045510244,0.48097995,0.004915476,0.003297422,0.005710095,0.5087614,-0.0063441345,0.85906756,2016-11-16 07:28:41,51.29516667429202
8.599973,0.47884035,4.721366,-0.22271231,-0.003387332,-0.018802464,0.0,0.8752807,0.046713497,0.48135394,0.0022474527,0.0020570196,4.6351552E-4,0.5089319,-0.002299981,0.85935605,2016-11-16 07:28:42,50.778091834588615
8.590396,0.4405331,4.855441,-0.9427867,-0.03724329,-0.04997085,0.0,0.87087816,0.046171784,0.48932543,0.0056610703,0.0026146322,-6.492138E-4,0.50504583,-0.0059826914,0.86125386,2016-11-16 07:28:43,52.14001901360816
8.504205,0.45010993,4.8937483,-0.13199149,-0.04656099,-0.009144981,0.0,0.8678667,0.04803066,0.49446976,0.002760172,-2.1249801E-4,-0.0037546754,0.50273436,-0.008651505,0.8621727,2016-11-16 07:28:44,50.896067699057554
8.197746,0.5363012,5.391742,-0.9469273,0.06573723,-0.7296947,0.0,0.84034866,0.050620213,0.5396773,2.4449825E-4,-8.627735E-4,0.011205792,0.48089176,-0.015798558,0.87305266,2016-11-16 07:28:45,51.20484040218922
7.8912888,0.5267244,5.803545,-0.029182453,0.004087003,0.013063327,0.0,0.80744654,0.054335944,0.58743316,0.0019131303,0.0012632795,0.0034989715,0.42166564,-0.17425045,0.7986706,2016-11-16 07:28:46,53.39764279022611
7.728483,0.5363012,6.1004257,0.10178248,0.106753685,0.013214625,0.0,0.7877042,0.0570556,0.6134059,0.0021748543,-2.7391687E-4,0.009693444,0.40713027,-0.17035082,0.8007496,2016-11-16 07:28:47,52.40478602085115
7.632715,0.63206923,6.2249246,-0.122760504,-0.033141352,0.029663844,0.0,0.77777404,0.058855936,0.62578225,0.0031484365,7.396862E-4,0.010244012,0.39843422,-0.16785435,0.80258334,2016-11-16 07:28:48,50.64158247579709
7.575254,0.58418524,6.301539,-0.03322619,0.07769556,-0.06243246,0.0,0.77091587,0.059077222,0.6341914,0.0022513866,5.599782E-4,0.008599043,0.39529705,-0.16432823,0.8058831,2016-11-16 07:28:49,44.15280481808815
7.517793,0.545878,6.301539,-0.15149407,-0.01895808,-0.028285451,0.0,0.76472044,0.060157534,0.64154804,0.0043433905,0.0012726486,-0.0014380813,0.392165,-0.16015945,0.80945426,2016-11-16 07:28:51,45.482814965721104
7.4507556,0.545878,6.445191,-0.016769331,0.028818203,-0.055012427,0.0,0.7554424,0.059710085,0.65248865,0.0048674345,-0.0039599426,0.005146265,0.3851661,-0.1601582,0.8094695,2016-11-16 07:28:52,50.85353380450569
7.441179,0.5554548,6.4643445,0.16827424,0.021834949,0.03526836,0.0,0.753669,0.061858103,0.65433675,0.007592857,-2.3027882E-4,0.00821197,0.38247216,-0.1619218,0.8056676,2016-11-16 07:28:53,49.76930637233002
7.4124484,0.59376204,6.4739213,0.08654845,0.0716939,0.0042670923,0.0,0.7527007,0.06237237,0.65540165,0.0037164092,-0.0018799715,0.005160153,0.38201526,-0.16223268,0.80568343,2016-11-16 07:28:54,48.578207654455674
7.4124484,0.61291564,6.483498,7.9843507E-4,0.010158053,0.0022215548,0.0,0.7529624,0.062414702,0.655097,0.0064194202,-9.1915205E-4,0.0054243207,0.38186,-0.16271625,0.80513114,2016-11-16 07:28:55,48.78477439859057
7.4028716,0.59376204,6.493075,-0.00945394,0.011563685,0.010414679,0.0,0.75220805,0.0602459,0.65616584,0.0050734878,-0.0024364889,0.003525138,0.38118362,-0.16217619,0.80579346,2016-11-16 07:28:56,53.718434783509856
7.431602,0.62249243,6.531382,-0.043943204,0.01045218,-0.001697991,0.0,0.7489998,0.061855823,0.6596766,0.006480813,-0.003037613,0.007653773,0.37950307,-0.16233489,0.80500245,2016-11-16 07:28:57,50.10130621943681
7.393295,0.59376204,6.5218053,-0.033788357,0.047950532,-0.015198261,0.0,0.74930555,0.061334312,0.65937805,0.0041608214,-6.470531E-4,0.0060738325,0.38077992,-0.16032654,0.8070435,2016-11-16 07:28:58,49.18741896403583
7.383718,0.62249243,6.5218053,0.087964326,0.015129566,-0.0020441657,0.0,0.7487373,0.062099013,0.65995157,0.0075917244,-6.2631443E-4,0.005596459,0.37974334,-0.16048546,0.80731,2016-11-16 07:28:59,50.948391374100275
7.383718,0.5746084,6.5505357,0.009253815,0.03649822,-0.0016906285,0.0,0.74779284,0.06157261,0.66107094,0.006634474,-4.4330955E-6,0.005385697,0.3790151,-0.1618378,0.80593264,2016-11-16 07:29:00,48.32888754221463
7.431602,0.58418524,6.5601125,0.13044968,-0.022640567,0.028691707,0.0,0.74737275,0.059485815,0.6617366,0.006117165,0.0048027784,0.0046939254,0.378165,-0.16210066,0.8066583,2016-11-16 07:29:01,51.75584896298328
7.4028716,0.5650316,6.540959,-0.040364683,0.039567266,-0.04802881,0.0,0.74676347,0.060896277,0.66229606,0.0068820715,0.0025220513,0.021540046,0.37840483,-0.1604402,0.80759156,2016-11-16 07:29:02,47.53554813514071
7.383718,0.5746084,6.5122285,-0.0029949504,0.03030801,0.0056071193,0.0,0.7487005,0.0618383,0.6600179,0.0067598224,-0.004065659,0.008319199,0.3796597,-0.16105455,0.80697775,2016-11-16 07:29:03,44.026894817803324
7.393295,0.5650316,6.540959,0.05959084,-0.023412133,0.047139198,0.0,0.74633765,0.06158157,0.6627125,0.008993149,-4.9225986E-5,0.0077393055,0.37757477,-0.16054627,0.8068533,2016-11-16 07:29:04,41.463866611579306
7.393295,0.61291564,6.5505357,-0.028303776,0.040536534,-0.0021318025,0.0,0.7477894,0.06054986,0.66116923,0.0018541217,-9.4377995E-4,0.01201278,0.37765613,-0.16225827,0.8063361,2016-11-16 07:29:05,51.557670050931286
7.383718,0.5650316,6.5505357,-0.0032780939,0.007970011,-0.0055662207,0.0,0.7458474,0.06098464,0.6633193,0.0075260997,0.002567429,0.003220737,0.3776664,-0.16055629,0.806752,2016-11-16 07:29:06,49.38909793729998
7.393295,0.5746084,6.5122285,-0.026341055,0.008554882,-0.01952957,0.0,0.7476433,0.060122427,0.66137356,0.008782983,0.0060821474,0.004078269,0.37761855,-0.16131249,0.8069923,2016-11-16 07:29:07,51.760236606844636
7.374141,0.641646,6.5122285,-0.2534367,-0.051807433,-0.007978618,0.0,0.74655,0.061203633,0.6625083,0.008940518,0.0032094307,0.00874567,0.37914658,-0.15942824,0.8085194,2016-11-16 07:29:08,42.201406807051015
7.383718,0.63206923,6.540959,-0.19218998,-0.041679118,-0.011230878,0.0,0.7474014,0.061712146,0.6615004,0.007974565,-2.486296E-4,0.0049982667,0.37852842,-0.16100733,0.80718607,2016-11-16 07:29:09,50.11647012789034
7.374141,0.63206923,6.588843,0.0112358425,-0.008919494,-0.018952793,0.0,0.7456792,0.062198132,0.66339564,0.008695245,-7.7444315E-4,0.005088389,0.37701377,-0.16148643,0.806228,2016-11-16 07:29:10,47.452988458723595
7.3645644,0.63206923,6.5696893,0.012625763,0.039857566,-0.0103232665,0.0,0.74703354,0.061040252,0.6619782,0.0064653754,-0.0041918196,0.009294093,0.37783504,-0.16122675,0.8065003,2016-11-16 07:29:11,51.617698631215305
7.383718,0.60333884,6.588843,-0.024178991,0.006050606,-0.0011359046,0.0,0.74584484,0.060246028,0.66338974,0.007597506,0.0013941601,0.008932412,0.3771789,-0.16138254,0.8062145,2016-11-16 07:29:12,46.9154404721498
7.374141,0.5554548,6.588843,0.029961884,-0.019213239,0.010374377,0.0,0.74646443,0.059441563,0.6627651,0.0059910417,0.002996102,0.00372082,0.3779536,-0.16093211,0.80786955,2016-11-16 07:29:13,52.13448346233327
7.345411,0.63206923,6.531382,-0.054642554,0.028285362,0.0035465509,0.0,0.7455015,0.06044941,0.66375715,0.0031840205,1.7695129E-4,0.0103776455,0.37741667,-0.16140854,0.8063579,2016-11-16 07:29:14,48.317639993944084
7.4028716,0.61291564,6.579266,0.039888896,0.03668311,-0.009496112,0.0,0.74452114,0.0590463,0.6649826,0.006051123,0.0042933486,0.008270562,0.3759308,-0.16194402,0.8068751,2016-11-16 07:29:15,47.11542777046756
7.422025,0.58418524,6.5505357,0.11162798,0.05310022,0.016779853,0.0,0.74697745,0.05984385,0.6621505,0.0055804253,-0.0020336583,0.008105516,0.37768638,-0.1619051,0.8064204,2016-11-16 07:29:16,52.52468683209553
7.3645644,0.58418524,6.540959,0.03465577,-0.012414622,0.005736595,0.0,0.74552345,0.060816266,0.66369873,0.0069309473,0.0027704202,0.00765872,0.37620968,-0.16226237,0.80559945,2016-11-16 07:29:17,46.15202274529405
7.431602,0.62249243,6.5026517,-0.032025658,0.0039355494,0.030447997,0.0,0.74543875,0.058591135,0.66399413,0.011898398,-0.0037319995,0.0073614717,0.37658355,-0.16282465,0.80569756,2016-11-16 07:29:18,45.15797951402696
7.345411,0.60333884,6.588843,0.01888534,-0.029981181,0.012328311,0.0,0.74396044,0.060494967,0.6654796,0.007452786,0.0019556805,0.0030320883,0.37551895,-0.16177426,0.8061322,2016-11-16 07:29:19,50.57085611014613
7.3645644,0.59376204,6.5601125,0.080892146,-0.009566908,-0.019885005,0.0,0.7457804,0.060224757,0.66346395,0.005730927,0.0021559335,0.010807633,0.37592402,-0.16251852,0.8059695,2016-11-16 07:29:20,51.76073989474803
7.383718,0.59376204,6.6079965,0.045087475,0.021143174,-0.018874744,0.0,0.7450332,0.05950027,0.6643684,0.0044366717,0.0010190941,0.005106449,0.3766237,-0.16125447,0.80726683,2016-11-16 07:29:21,47.53225276052173
7.393295,0.5650316,6.5505357,-0.062290855,0.057652384,-0.038862336,0.0,0.74564105,0.058998533,0.6637309,0.008769929,-0.001310762,0.0046960115,0.3773511,-0.16104703,0.8081746,2016-11-16 07:29:22,50.993162819255026
7.393295,0.61291564,6.6079965,-0.063904226,0.0034556761,-0.027962077,0.0,0.7444886,0.060406145,0.6648969,0.010010958,0.0021851026,0.009292603,0.37752962,-0.16000172,0.8079775,2016-11-16 07:29:23,47.67156005279108
7.3645644,0.60333884,6.5601125,0.118884645,0.040670864,0.0049567046,0.0,0.7448178,0.060328215,0.66453516,0.006701827,0.0011938214,0.0048303604,0.37672853,-0.1612039,0.80675596,2016-11-16 07:29:24,44.73864866859222
7.393295,0.58418524,6.531382,0.028441694,0.0036000626,-0.009462909,0.0,0.7456127,0.058772914,0.6637827,0.0060092807,0.0016522817,0.0093874335,0.376721,-0.16302845,0.80616724,2016-11-16 07:29:25,48.15558891410725
7.383718,0.641646,6.5696893,0.006704393,-0.0040410683,-0.028878484,0.0,0.7467092,0.06118401,0.6623307,0.006716192,0.0042328164,0.008068204,0.37738347,-0.16182947,0.8062739,2016-11-16 07:29:26,47.46810416953488
7.3645644,0.641646,6.540959,0.085843116,0.013451136,-0.013899779,0.0,0.7448855,0.062138278,0.66429234,0.009534061,-0.0015985258,0.006086707,0.3763479,-0.16092114,0.80670637,2016-11-16 07:29:27,50.21285557011899
6.943185,0.6703765,7.144298,-0.10039869,0.09350174,-0.02114976,0.0,0.7059156,0.06803028,0.70502144,0.0021392703,3.6098063E-4,0.0156281,0.3562332,-0.15321834,0.8084485,2016-11-16 07:29:28,60.79693836916462
6.301539,0.7086837,7.6231384,-0.11601189,0.0131879635,-0.11214812,0.0,0.65104043,0.07277679,0.75554615,0.004079938,0.003404647,0.017116249,0.3226274,-0.14101522,0.81178707,2016-11-16 07:29:29,57.88166888713798
5.45878,0.89064306,8.24563,0.031243768,0.27314162,-0.03320943,0.0,0.56548727,0.08446932,0.8204201,-0.007655382,0.006079592,0.02044493,0.27857986,-0.12034672,0.8117771,2016-11-16 07:29:30,57.56629107631117
9.701305,-0.08619126,2.2218192,0.5882562,-7.8985887,1.0234644,0.0,0.9326171,-0.032016702,0.35944438,0.05233264,0.024895675,-0.11937316,0.4570523,-0.18733984,0.80197054,2016-11-16 07:29:31,64.26822536828942
9.069236,0.31603462,3.7732618,0.006710117,0.09084457,-0.019299464,0.0,0.92832386,0.031532865,0.37043267,0.0041933656,0.0035576038,0.014966637,0.5327751,-0.1836882,0.77158225,2016-11-16 07:29:32,64.71080089809205
9.021352,0.37349546,3.86903,-0.09134935,-0.030705826,8.447254E-4,0.0,0.91812515,0.034731872,0.39476576,0.0033999681,0.005181551,0.0019971132,0.5210471,-0.17829475,0.77891964,2016-11-16 07:29:33,61.37187968682376
8.973468,0.36391866,3.9552212,0.012114348,-0.012042208,-0.007936377,0.0,0.91499645,0.036369912,0.40181908,6.7198277E-4,6.955378E-4,0.0017616749,0.51292646,-0.18939936,0.77355653,2016-11-16 07:29:34,42.89773492200446
8.983045,0.35434186,3.9935284,-0.24315989,-0.05870366,0.0024011736,0.0,0.9147395,0.035454065,0.40248543,-4.1425228E-5,-0.0011645854,0.005952239,0.5125996,-0.18809511,0.774594,2016-11-16 07:29:35,47.70660999685708
9.030929,0.33518824,4.0222588,-0.29275262,-0.009154895,-0.042400263,0.0,0.9119681,0.03781968,0.40851414,0.009540379,-0.0035193637,0.0019446015,0.51216507,-0.18336156,0.7779252,2016-11-16 07:29:36,48.60262797227308
8.954314,0.32561144,4.0701427,-0.23962492,0.0030668625,-0.020683428,0.0,0.9112112,0.03584307,0.4103771,0.004489541,-0.0025173537,-4.181266E-5,0.5107044,-0.1861985,0.7765164,2016-11-16 07:29:37,51.33942591945612
8.973468,0.37349546,4.0892963,0.061103906,-0.0030896275,0.0050138114,0.0,0.91066813,0.034335043,0.41170964,0.005026996,0.003726244,0.0054920316,0.50970805,-0.18713355,0.77664864,2016-11-16 07:29:38,46.39729300899651
8.983045,0.38307226,4.050989,-0.09762035,-0.002580765,-0.030467177,0.0,0.9101166,0.036815174,0.41271338,0.0016443729,0.0021547005,-0.0013128817,0.5091435,-0.18598463,0.77708465,2016-11-16 07:29:39,44.606506954535675
8.954314,0.38307226,4.1180267,-0.23850986,0.015447327,-0.036458954,0.0,0.90994596,0.037500583,0.41302794,0.0038492084,0.0014972687,0.006989777,0.50974447,-0.18328491,0.77898806,2016-11-16 07:29:40,49.427416699185486
8.963891,0.32561144,4.0892963,0.061385505,0.00276319,0.0070937243,0.0,0.9095098,0.035286956,0.41418204,0.0021653771,0.0016940497,-0.0035676658,0.5081107,-0.18718603,0.77702343,2016-11-16 07:29:41,49.29170987765229
8.963891,0.37349546,4.0797195,0.0021773162,0.004915457,0.0011445066,0.0,0.9091,0.035959728,0.415023,0.0055791736,0.001995109,0.0012963116,0.50771874,-0.18736397,0.7769747,2016-11-16 07:29:42,47.96324738740202
8.935161,0.35434186,4.10845,-0.06484356,-0.06785682,0.0013471016,0.0,0.910069,0.03654247,0.41284266,0.006445229,0.004280787,-0.001140058,0.508186,-0.18713143,0.77673817,2016-11-16 07:29:43,50.55280028946905
8.916007,0.31603462,4.0892963,0.057461962,0.00826289,0.018221408,0.0,0.9088402,0.03669127,0.41552773,0.003929794,0.0014261007,0.0036100447,0.50722647,-0.18781184,0.77637005,2016-11-16 07:29:44,45.59033594880421
8.925584,0.36391866,4.0892963,-0.025536839,-0.0044151596,0.0033414005,0.0,0.90909564,0.035710838,0.4150541,0.0046331882,4.5280904E-4,0.002169609,0.5073251,-0.1882297,0.77654165,2016-11-16 07:29:46,48.90154719872895
8.973468,0.35434186,4.0892963,1.7329975E-4,0.010333836,-0.011600269,0.0,0.90886974,0.036130317,0.4155122,0.0048691034,0.0028157905,0.004634261,0.5070691,-0.18830526,0.77641183,2016-11-16 07:29:47,51.831249835031066
8.954314,0.36391866,4.0797195,-0.19912165,-0.011930135,-0.019035505,0.0,0.90970856,0.035463113,0.41373026,9.858608E-5,-0.001233153,0.0035194755,0.5091044,-0.18396786,0.7787471,2016-11-16 07:29:48,48.65008561078433
8.925584,0.35434186,4.1276035,0.20192215,0.030552953,0.0058579184,0.0,0.9073108,0.036307763,0.4188902,0.0034786463,-0.0011324324,0.001283288,0.5061671,-0.18672928,0.77757806,2016-11-16 07:29:49,47.45874963439572
8.916007,0.35434186,4.1276035,0.120904,-0.04189363,0.0064030457,0.0,0.90825343,0.03593352,0.41687468,0.007316172,0.0049275644,6.132424E-4,0.5060825,-0.18763557,0.7774171,2016-11-16 07:29:50,45.67424605546765
8.963891,0.38307226,4.0797195,-0.0029466685,-0.0018546015,-0.019495988,0.0,0.9071331,0.03377097,0.41948652,0.0037122369,0.004212022,0.00643909,0.5051566,-0.18873462,0.7772568,2016-11-16 07:29:51,45.52925254733757
8.954314,0.37349546,4.1180267,-0.2335824,-0.0062190993,0.009598367,0.0,0.90792733,0.035373233,0.41763228,0.004795134,8.363873E-4,0.0025828183,0.5062483,-0.18723795,0.7774105,2016-11-16 07:29:52,50.78676862536784
8.973468,0.40222588,4.0892963,-0.21388967,-0.0042724856,-0.044502895,0.0,0.90872985,0.035949506,0.41583362,0.007983625,0.0021309555,0.009095103,0.50775534,-0.18407802,0.7792691,2016-11-16 07:29:53,47.931368805337094
8.954314,0.38307226,4.098873,0.21004376,0.009362921,0.0057936395,0.0,0.9076402,0.034985114,0.41828865,0.004042387,0.0040500797,0.0010941029,0.5056846,-0.1869753,0.7776845,2016-11-16 07:29:54,54.427126270932945
8.963891,0.35434186,4.1276035,-0.0031799343,-0.0056381337,-0.004394729,0.0,0.9083701,0.03469604,0.4167253,0.0024664402,0.0033252686,0.0062838495,0.5059063,-0.18877222,0.77698606,2016-11-16 07:29:55,50.88918052384634
8.944737,0.36391866,4.0892963,0.024578698,-0.0055809105,-0.04745354,0.0,0.9079394,0.035076767,0.41763097,0.002794385,0.0057728663,-0.0012295842,0.50638837,-0.18653736,0.7780645,2016-11-16 07:29:56,51.07630855982187
8.954314,0.36391866,4.098873,-0.04566239,1.5404099E-4,0.0027665815,0.0,0.908527,0.037860345,0.41610724,0.0051521063,-6.299801E-4,0.0021941662,0.50618714,-0.18849516,0.7757452,2016-11-16 07:29:57,53.54962372123278
8.935161,0.33518824,4.0892963,0.015485404,-0.01715774,-0.065433115,0.0,0.9072203,0.032579634,0.41939202,0.004553139,0.008750487,0.0017976463,0.5048596,-0.18843615,0.7784564,2016-11-16 07:29:58,51.78266119447638
8.916007,0.37349546,4.10845,-0.16065486,0.010303652,-0.02781056,0.0,0.9082325,0.036308214,0.41688797,0.0025137067,-0.0010802336,0.0014204383,0.50649625,-0.18576206,0.77864397,2016-11-16 07:29:59,47.97055204703359
8.935161,0.34476504,4.098873,-0.012385668,0.0060074567,0.06907562,0.0,0.90836316,0.03631634,0.4166025,0.003379643,-0.0018137135,0.0045737326,0.50645447,-0.18810722,0.77613765,2016-11-16 07:30:00,43.27597943460787
8.916007,0.38307226,4.156334,0.19397515,0.005241122,0.03535394,0.0,0.90692145,0.037250713,0.41964963,0.0018074512,-0.0019792207,-0.0012097359,0.50527763,-0.18670574,0.7777721,2016-11-16 07:30:01,47.60550547482599
8.935161,0.38307226,4.1371803,0.05188767,0.009481498,0.005856109,0.0,0.9076318,0.036525875,0.41817507,0.0041618347,0.002504401,0.0038989484,0.5053713,-0.18914536,0.7761081,2016-11-16 07:30:02,46.622232497810444
8.935161,0.35434186,4.146757,-0.09275211,0.0041167033,0.016437937,0.0,0.90731823,0.037390705,0.41877866,5.456805E-4,-1.883693E-4,0.0043066144,0.5060195,-0.18653901,0.77737194,2016-11-16 07:30:03,50.855308992528364
8.887277,0.38307226,4.1276035,0.019699842,-0.0019028147,0.010616392,0.0,0.90648115,0.037959523,0.42053664,3.592968E-4,0.0010318235,7.0902705E-4,0.5041816,-0.18863182,0.7764391,2016-11-16 07:30:04,46.27594893355529
8.944737,0.36391866,4.1276035,0.066295356,0.0052550817,0.010160895,0.0,0.90771127,0.034973193,0.4181353,0.004041016,0.001327727,0.0010795891,0.50571984,-0.18894033,0.7762016,2016-11-16 07:30:05,52.956972542729034
8.896853,0.37349546,4.098873,-0.014164096,-0.011100834,0.06635157,0.0,0.9076044,0.037081234,0.41818562,2.1797419E-4,0.0011367761,1.0046363E-4,0.5059101,-0.18613383,0.7779352,2016-11-16 07:30:06,50.743992341399604
8.935161,0.35434186,4.1276035,0.30089086,0.0113867475,0.0495837,0.0,0.90787756,0.037638463,0.41754258,0.0029289126,-0.0032785982,0.0055108666,0.50523835,-0.1881553,0.77639437,2016-11-16 07:30:07,53.7687282201292
8.944737,0.34476504,4.0701427,0.03431394,-0.016408931,0.017088596,0.0,0.90738153,0.035028808,0.41884565,0.005346298,8.4947795E-5,-0.003518343,0.5055096,-0.18812184,0.7772407,2016-11-16 07:30:08,46.72083111693652
8.944737,0.33518824,4.1659107,0.042484477,0.02531895,-0.009496514,0.0,0.90601695,0.035401225,0.42175844,0.0057139397,-0.0011775494,0.0014218688,0.5034541,-0.18967056,0.77673066,2016-11-16 07:30:09,49.39845651577337
8.935161,0.33518824,4.146757,0.05045621,0.04488253,0.01877541,0.0,0.90809226,0.03741784,0.41709512,0.0047006607,0.0016251504,0.0068840086,0.5056183,-0.18894158,0.7758653,2016-11-16 07:30:10,44.8441169136887
8.944737,0.37349546,4.1659107,-0.1393975,0.01688083,-0.0041208253,0.0,0.90678144,0.035183344,0.42013052,0.0010240078,-0.0036913194,0.0030688345,0.5045657,-0.18663476,0.7784131,2016-11-16 07:30:11,47.27376010024581
8.925584,0.36391866,4.156334,-0.07890838,-0.014596107,0.0013274807,0.0,0.90728295,0.036940493,0.41889498,0.0034267902,-0.0027442463,-5.031824E-4,0.505935,-0.18471703,0.77910095,2016-11-16 07:30:12,53.756679987891765
8.954314,0.31603462,4.10845,-0.19022685,0.001815017,-0.028727889,0.0,0.9065667,0.034489296,0.4206511,0.005223632,-0.0012281649,0.0023999512,0.5054345,-0.18591793,0.7787799,2016-11-16 07:30:13,55.19941661384291
8.896853,0.33518824,4.10845,-0.10059712,-4.575597E-4,-0.008896372,0.0,0.90740275,0.036418345,0.4186811,0.0014744997,6.437041E-4,0.003360957,0.50563586,-0.18642095,0.77813625,2016-11-16 07:30:14,53.25600561585449
8.90643,0.33518824,4.1371803,-0.032782648,0.0062877024,-0.007360092,0.0,0.9068658,0.03679051,0.41981056,0.0038924217,3.1000376E-4,-0.0015215576,0.5053381,-0.18671642,0.77798104,2016-11-16 07:30:15,48.08036158981942
8.944737,0.38307226,4.1946416,-0.06270096,-0.004768981,-0.006140149,0.0,0.9059918,0.03298493,0.42200816,-7.516146E-5,2.1960214E-4,9.2595816E-5,0.5045651,-0.1851305,0.7803721,2016-11-16 07:30:16,50.06525994282714
8.944737,0.34476504,4.1371803,-0.051042043,-0.010267916,0.0064992886,0.0,0.907934,0.035795253,0.41758165,8.6957216E-4,0.0022823513,7.0783496E-4,0.50544167,-0.18812433,0.77713776,2016-11-16 07:30:17,43.826170490411684
8.916007,0.39264908,4.1276035,0.022992661,0.004251896,-0.038023684,0.0,0.90656507,0.034850847,0.42062473,-5.983114E-4,0.0012725033,0.0023463964,0.5040334,-0.18945247,0.77694803,2016-11-16 07:30:18,47.19646498814892
8.935161,0.36391866,4.1276035,0.095923364,8.832675E-4,-0.0031655033,0.0,0.90600055,0.035931412,0.42174885,0.004754007,0.005913671,4.6911836E-4,0.5043303,-0.18645488,0.7786429,2016-11-16 07:30:19,47.70507798105417
8.916007,0.37349546,4.1659107,-0.0141435005,-0.010085056,-0.02139943,0.0,0.9057827,0.036881946,0.42213428,0.007911265,0.0011088401,0.0010393858,0.5047067,-0.18500689,0.7795504,2016-11-16 07:30:20,50.03674153094261
8.925584,0.36391866,4.1659107,0.03897825,0.0072301016,0.003323095,0.0,0.9064256,0.03610378,0.42081952,0.0044208765,0.0010038055,0.004119277,0.5045102,-0.18748021,0.7778251,2016-11-16 07:30:21,44.52059829650778
8.925584,0.31603462,4.0892963,0.056730114,-0.008496952,-0.0030872119,0.0,0.9070288,0.037098143,0.4194311,0.0028101802,-1.1250377E-6,0.0026416779,0.5052223,-0.18636729,0.7782266,2016-11-16 07:30:22,49.33799493485053
8.90643,0.35434186,4.175488,0.03261614,-0.025164288,0.034061186,0.0,0.9061364,0.038616914,0.42121905,0.0056008697,-0.0014560595,-9.848773E-4,0.50423074,-0.18718892,0.7772701,2016-11-16 07:30:23,43.05117048804717
8.916007,0.32561144,4.1276035,-0.024035428,0.018691188,0.01780618,0.0,0.90699893,0.037433997,0.419466,0.0027555227,-0.003988128,0.0017896593,0.5049416,-0.18724102,0.7773979,2016-11-16 07:30:24,47.302995477532555
8.791509,0.40222588,4.501099,-0.0060029305,0.07050382,0.0013110964,0.0,0.89225924,0.03591741,0.4500926,0.005879879,-0.0035557114,0.003193736,0.4953171,-0.17836691,0.78759533,2016-11-16 07:30:25,53.34488026724897
8.676587,0.34476504,4.606444,-0.072856724,0.0061471476,-0.034039646,0.0,0.8831466,0.036963053,0.46763852,0.0022387505,9.9770725E-5,4.2128563E-4,0.48548135,-0.17615987,0.7923336,2016-11-16 07:30:26,64.42197985632194
8.628703,0.37349546,4.663905,-0.22308835,-0.015700888,-0.03948239,0.0,0.8807738,0.036669623,0.4721153,-2.1964312E-4,0.0013009831,0.003665775,0.48405033,-0.1721432,0.7957379,2016-11-16 07:30:27,67.93664191709124
8.619126,0.35434186,4.711789,-0.04989467,0.017246818,-2.7669477E-4,0.0,0.876791,0.03697918,0.4794476,-0.001132369,9.6895173E-4,0.0031956732,0.48037484,-0.17300925,0.7962118,2016-11-16 07:30:28,61.953557101913674
8.628703,0.36391866,4.7788267,-0.07339451,0.019113874,-0.11699648,0.0,0.8732406,0.038950726,0.48573008,0.0023483038,0.0010670088,-0.0010137856,0.47696766,-0.1734403,0.79611874,2016-11-16 07:30:29,55.01138909819173
8.599973,0.39264908,4.807557,0.020247944,-1.3354786E-4,0.002894185,0.0,0.8728828,0.03751305,0.48648584,0.0075052977,0.0034152456,0.0032775104,0.47565585,-0.17486107,0.79518497,2016-11-16 07:30:30,59.32144540932807
8.552089,0.36391866,4.7884035,0.035833694,0.015480448,-0.029871725,0.0,0.87334937,0.039668437,0.48547634,0.00328058,0.002186954,0.004020959,0.47596094,-0.17599975,0.7942773,2016-11-16 07:30:31,52.476889905814055
8.599973,0.39264908,4.759673,-0.026015801,-0.03284295,-0.014243994,0.0,0.8730694,0.037119273,0.48618087,0.0014374852,0.003763333,-0.007131368,0.47552902,-0.1758633,0.794998,2016-11-16 07:30:32,48.852227006036216
8.6095495,0.37349546,4.817134,-0.028646246,0.0076546697,0.0111724995,0.0,0.87356377,0.037023265,0.48529953,0.002108872,1.723133E-4,0.003166467,0.47734824,-0.17274575,0.79651356,2016-11-16 07:30:33,48.144914154901585
8.542512,0.4405331,4.7884035,-7.107281E-4,-0.013614118,0.017838199,0.0,0.87240446,0.03869383,0.48725078,0.005071759,0.0012772754,-0.0014333725,0.47562146,-0.17454728,0.79530734,2016-11-16 07:30:34,50.779295429525895
8.619126,0.36391866,4.807557,-0.013966853,0.014634498,0.0031247316,0.0,0.8735616,0.038734943,0.48516962,0.0029892325,4.2344257E-4,0.00347355,0.47553656,-0.17528787,0.7947757,2016-11-16 07:30:35,51.95232628650015
8.580819,0.37349546,4.817134,-0.014600676,-0.009690951,0.022918813,0.0,0.87242556,0.037257906,0.48732466,0.0032324195,8.308217E-4,0.004106343,0.4749223,-0.17585707,0.79502743,2016-11-16 07:30:36,50.45719181383451
8.571242,0.38307226,4.7884035,-0.008599388,0.0045156474,0.0054051485,0.0,0.87261313,0.039516155,0.48681077,0.005845785,5.1989406E-4,0.0029006302,0.4754345,-0.17443065,0.7952565,2016-11-16 07:30:37,53.40602823114707
8.590396,0.40222588,4.76925,-0.053525884,-0.020114083,-0.009928577,0.0,0.87202716,0.0363728,0.48810416,0.004520893,0.0045917146,-0.00139907,0.47504508,-0.17387211,0.796925,2016-11-16 07:30:38,46.55987297356469
8.599973,0.37349546,4.8267107,-0.0029234136,-0.035041578,0.015213994,0.0,0.87291527,0.03871567,0.48633307,0.005538821,4.111603E-4,0.001427263,0.47520784,-0.17460732,0.79553986,2016-11-16 07:30:39,46.418119908597745
8.628703,0.35434186,4.7979803,0.025475666,0.020625914,0.034808863,0.0,0.8735025,0.040503036,0.48513177,0.006991446,-0.00418444,0.004419267,0.47661754,-0.17435907,0.7945537,2016-11-16 07:30:40,51.228073449606946
8.561666,0.38307226,4.7500963,0.046117935,-0.076891795,-0.0053967303,0.0,0.87363815,0.041081198,0.4848388,0.004737973,-6.5632164E-5,-8.408129E-4,0.47552553,-0.17440733,0.79469275,2016-11-16 07:30:41,46.218843333002766
8.552089,0.41180268,4.76925,-0.19721588,-0.0016538065,-0.04894118,0.0,0.8739098,0.038495675,0.48456126,-0.0012176633,0.003395073,0.0020530224,0.47743624,-0.17238827,0.7968169,2016-11-16 07:30:42,47.22145786729889
8.542512,0.41180268,4.7788267,-0.13749376,-0.013871384,-0.016099535,0.0,0.87421805,0.037946273,0.48404852,0.0063016415,0.0048772283,0.006460279,0.47759795,-0.17187695,0.79702026,2016-11-16 07:30:43,49.34696132276153
8.561666,0.41180268,4.7500963,0.018837173,0.005887785,-0.018966231,0.0,0.8728837,0.04072719,0.4862257,0.0037010908,0.0012672693,4.0987134E-4,0.47562498,-0.17480844,0.7945475,2016-11-16 07:30:44,45.7172309459701
8.532935,0.36391866,4.759673,-0.010790715,-0.016566064,0.047285005,0.0,0.8731036,0.036909044,0.48613542,0.0035151243,-5.793497E-4,0.0023782551,0.47560576,-0.17509645,0.7950187,2016-11-16 07:30:45,50.693747920850925
8.571242,0.37349546,4.76925,9.75968E-4,0.011632193,0.0032341627,0.0,0.87360585,0.03857558,0.4851028,0.004900396,-0.0013828799,0.0035397708,0.4752533,-0.17581335,0.79457444,2016-11-16 07:30:46,48.31040129080022
8.599973,0.37349546,4.7500963,0.030049741,3.0098675E-4,8.993669E-4,0.0,0.87251043,0.03928649,0.48701346,0.0030764341,-2.3783743E-4,6.375909E-4,0.47551143,-0.17550239,0.79474854,2016-11-16 07:30:48,49.144498331378934
8.590396,0.40222588,4.7405195,-0.0312762,-8.8415766E-4,-0.053539533,0.0,0.8730306,0.03898819,0.4861045,0.0033385754,0.002024468,-0.0020127296,0.47569188,-0.17362177,0.7958159,2016-11-16 07:30:49,49.082391171524236
8.590396,0.36391866,4.817134,-0.1338461,0.02075881,-0.041153446,0.0,0.87221295,0.038230192,0.48762992,0.0023696423,-0.0010040924,0.0010362267,0.47590974,-0.17183729,0.7975423,2016-11-16 07:30:50,52.29734622396673
8.571242,0.4213795,4.7979803,-0.029042166,-0.014778005,0.08933613,0.0,0.87318206,0.039226588,0.48581305,0.0023866892,-0.0019162893,0.0028302968,0.47654215,-0.1727825,0.7959274,2016-11-16 07:30:51,47.2150968444599
8.552089,0.37349546,4.7884035,0.07345441,-0.0060706977,0.0016637001,0.0,0.8715177,0.0360483,0.48903716,0.0060665607,0.0011266731,0.0014626384,0.47543722,-0.17351574,0.79697156,2016-11-16 07:30:52,50.97897445197074
8.590396,0.38307226,4.7788267,0.06568976,0.0030192614,0.00127216,0.0,0.8721099,0.038932633,0.48775876,5.938411E-4,0.0010014139,7.8999996E-4,0.47466424,-0.17485008,0.7956059,2016-11-16 07:30:53,54.829325450822765
8.561666,0.37349546,4.7405195,-0.0052865436,-0.011126995,-0.003015558,0.0,0.87177,0.039112885,0.4883516,0.0057986975,-9.633973E-4,0.0011987686,0.47526523,-0.17479676,0.79520875,2016-11-16 07:30:54,52.8967962545869
8.6095495,0.35434186,4.76925,-0.02933399,-0.026815975,-8.976087E-6,0.0,0.872073,0.038876757,0.48782897,0.0025294423,-0.002669908,0.0037364066,0.4748606,-0.17447995,0.7958073,2016-11-16 07:30:55,48.41221006588491
8.552089,0.4213795,4.759673,0.012635412,-0.03987919,-0.023092246,0.0,0.8724566,0.038417663,0.48717898,1.8721819E-4,0.0035391487,-0.0014604628,0.475074,-0.17494145,0.79510236,2016-11-16 07:30:56,54.526938701518915
8.571242,0.41180268,4.7788267,-0.0024715734,0.0057907496,-0.035291914,0.0,0.8703489,0.037755463,0.4909862,0.00810951,0.0032373667,0.0055669844,0.47302875,-0.17509586,0.7958435,2016-11-16 07:30:57,54.458397875771716
8.561666,0.41180268,4.76925,-0.035187654,-0.06893915,0.009653277,0.0,0.8705961,0.037770525,0.49054646,0.0019758344,-6.4234436E-4,-0.0047049224,0.4745725,-0.17231724,0.7975108,2016-11-16 07:30:58,48.35187856879395
8.590396,0.40222588,4.865018,-0.23427965,-0.0090051545,-0.029860351,0.0,0.87011266,0.038892318,0.49131578,0.004499018,-6.1855465E-4,0.0021786094,0.47430474,-0.172598,0.7967374,2016-11-16 07:30:59,50.98852870718221
8.542512,0.38307226,4.8267107,-0.17357196,-0.010748536,-0.0063693104,0.0,0.87038714,0.040096935,0.49073255,0.0013813972,-9.745322E-4,0.0016376972,0.47395763,-0.17367281,0.79615974,2016-11-16 07:31:00,53.66419645523345
8.542512,0.39264908,4.855441,0.022590274,-0.016629238,0.024093308,0.0,0.8704644,0.039721012,0.49062616,0.0060216784,0.0042097904,0.0020498633,0.47332227,-0.17341919,0.7961251,2016-11-16 07:31:01,49.549174031724455
8.542512,0.36391866,4.8362875,-0.2833395,-0.014760027,-0.011586184,0.0,0.87005335,0.037743326,0.49151054,0.0045460463,-0.0034737587,0.0029905438,0.47388235,-0.17174569,0.798201,2016-11-16 07:31:02,48.34561749648443
8.561666,0.41180268,4.865018,0.053570263,-7.132938E-4,0.0070301583,0.0,0.86952,0.03740211,0.49247956,0.0051142573,7.7933446E-4,0.0019598305,0.472697,-0.17458385,0.79606986,2016-11-16 07:31:03,49.32025656822028
8.599973,0.38307226,4.8362875,0.01164717,-0.022497162,-0.0030101067,0.0,0.8698349,0.03963744,0.49174806,0.0086836815,0.001315333,0.0017701685,0.47341898,-0.17255531,0.7975851,2016-11-16 07:31:04,48.4315153500005
8.571242,0.40222588,4.865018,0.014416083,-0.010484023,0.0072831563,0.0,0.87080675,0.03844524,0.49012,-3.1113625E-5,0.0024471097,0.005224347,0.47344616,-0.17436983,0.7964859,2016-11-16 07:31:05,49.2222582284833
8.561666,0.41180268,4.8745947,0.03253592,-0.0072141616,0.039916366,0.0,0.8703594,0.038840976,0.4908826,0.00628078,0.0021503419,0.007383555,0.4733028,-0.17480637,0.7960113,2016-11-16 07:31:06,48.627873960644024
8.561666,0.37349546,4.8458643,0.10080002,0.0074889585,0.0017734675,0.0,0.86933666,0.039676763,0.4926251,0.0062500834,0.0012759119,0.002847612,0.47270966,-0.17476512,0.7956786,2016-11-16 07:31:07,51.84447870223035
8.599973,0.41180268,4.759673,0.010149735,-0.0034502146,-0.03586757,0.0,0.8700257,0.037940823,0.4915442,6.672144E-4,1.6549975E-4,0.0010036528,0.4727242,-0.17488007,0.79654616,2016-11-16 07:31:08,53.395008473610474
8.312668,0.5267244,5.2289367,-0.023327148,0.23475036,0.013719517,0.0,0.8692594,0.045726318,0.49223676,-0.020025551,0.007723838,0.039589584,0.4740779,-0.17992899,0.789093,2016-11-16 07:31:09,55.491704403766285
7.3549876,0.47884035,6.579266,-0.03246171,0.19906445,-0.0068937526,0.0,0.7691661,0.050659094,0.6370378,-0.0044963956,1.1637062E-4,0.0132187605,0.40402842,-0.1490448,0.82499915,2016-11-16 07:31:10,64.97721963560652
8.925584,0.46926352,4.0222588,-0.026034359,-0.5738242,0.030402465,0.0,0.87771493,0.052638702,0.4762832,0.031004548,-0.0045260936,-0.062068373,0.45960408,-0.18982244,0.77967733,2016-11-16 07:31:11,60.043992271689504
9.519346,0.32561144,2.6623523,-0.082242794,0.016429923,0.015103507,0.0,0.9636764,0.036008134,0.2646341,0.008484721,0.0021998845,-0.014805913,0.55875504,-0.23883589,0.7170797,2016-11-16 07:31:12,57.929824052720875
8.868123,-0.095768064,2.825158,0.38851523,-1.4942036,-0.020303592,0.0,0.9678162,0.0132332845,0.2513099,0.03428036,0.042214498,-0.11542182,0.55260915,-0.23953412,0.7232832,2016-11-16 07:31:13,66.09931090108971
9.222465,0.6512229,3.323152,-0.0291277,-0.7015064,-0.299706,0.0,0.9311959,0.07621139,0.35646313,0.00971055,-0.009398013,-0.017021507,0.51129204,-0.24921839,0.704917,2016-11-16 07:31:14,60.87478290522691
10.199299,-0.2681506,1.5610195,11.0728445,-0.18659762,2.380383,0.0,0.9706753,-0.025687154,0.23901814,-0.012624741,0.0078098457,-0.017421752,0.49723846,-0.32522595,0.674111,2016-11-16 07:31:15,60.317869014279005
9.3182335,-1.3215994,2.8060043,0.23741752,0.39426655,-0.18948835,0.0,0.9505068,-0.17261691,0.25834116,0.039759815,-0.08871062,0.056125134,-0.6122574,0.060360037,-0.7870386,2016-11-16 07:31:16,69.7658051025366
9.615114,0.10534488,1.8387469,0.31702888,0.12713082,-0.23045538,0.0,0.98361826,0.002968275,0.18023963,-0.0024015307,0.007285518,0.0069458187,0.6425559,-0.02524289,0.76532674,2016-11-16 07:31:17,71.61996218802737
9.586384,0.047884032,1.9632454,0.26727915,0.04021076,0.035798978,0.0,0.98001355,0.0067043984,0.19881746,-7.879734E-4,3.659865E-5,0.007153824,0.63286793,-0.019967362,0.77343357,2016-11-16 07:31:18,55.912483058235324
9.586384,0.095768064,1.9632454,-0.26572827,-0.0108389,0.026339926,0.0,0.979379,0.009175875,0.20182319,0.0017658472,-0.0022677071,0.0033386946,0.6310952,-0.021289289,0.7747167,2016-11-16 07:31:19,50.33128395144548
9.586384,0.08619126,1.9919758,-0.38315016,-0.011945742,-0.08512743,0.0,0.9787686,0.010140672,0.20471732,-5.568266E-4,-0.002337262,-5.21183E-4,0.63096094,-7.2217773E-4,0.77577597,2016-11-16 07:31:20,46.191429384560976
9.615114,0.076614454,2.0494366,0.31876165,-9.5382426E-4,0.08265768,0.0,0.97862375,0.008474577,0.20548409,0.0025119185,-5.5846665E-4,0.003630519,0.6301151,-0.0089984955,0.776238,2016-11-16 07:31:21,45.73540768883327
9.605537,0.15322891,2.0207062,0.08013097,0.026232757,0.016967082,0.0,0.97803205,0.010146481,0.20820734,0.002150774,0.0016528759,-0.003115952,0.6296409,-0.019532394,0.7759699,2016-11-16 07:31:22,46.91853002220768
9.548077,0.10534488,2.087744,1.0373523,0.017639011,0.083746955,0.0,0.9778449,0.008064689,0.20917484,-0.0015619397,-0.002174423,0.0017405301,0.62864345,-0.015583938,0.77710414,2016-11-16 07:31:23,48.553559617241135
9.595961,0.095768064,2.087744,0.43560013,0.04384792,0.039441943,0.0,0.97735983,0.008259631,0.21142271,0.0018776059,-0.0012578042,0.0023160875,0.62815744,-0.013732774,0.7775827,2016-11-16 07:31:24,50.43329549128715
9.576807,0.10534488,2.0973208,-0.23639321,0.012447883,-0.08850057,0.0,0.9772999,0.011654677,0.2115394,0.0018836856,-8.7182224E-4,4.981309E-4,0.62712586,-0.017514857,0.77811104,2016-11-16 07:31:25,48.75654044598996
9.557653,0.08619126,2.0973208,-0.08875357,7.919103E-5,-0.03429311,0.0,0.9771599,0.009628247,0.21228728,0.002985239,1.857644E-4,-0.0011544675,0.62712616,-0.02109098,0.7778811,2016-11-16 07:31:26,44.457315348467084
9.56723,0.12449849,2.087744,-0.27893496,-0.012743283,-0.0043221205,0.0,0.97707313,0.011067685,0.21261626,0.0020573735,-0.0012282245,-0.0032677203,0.6273274,-0.0010849847,0.7786897,2016-11-16 07:31:27,48.79365819284618
9.548077,0.076614454,2.0590134,0.14135379,0.0023470307,-0.028136212,0.0,0.9770527,0.008276262,0.21283683,-8.1413984E-4,0.0023096753,2.477765E-4,0.62708896,-0.017700616,0.77822983,2016-11-16 07:31:28,50.966589906484
9.586384,0.12449849,2.135628,0.3644572,0.016717244,0.032485276,0.0,0.9767167,0.009383414,0.21432793,-0.0023027062,-0.0014356393,0.004993826,0.62712544,-0.01460514,0.7783295,2016-11-16 07:31:29,51.1294860524331
9.56723,0.12449849,2.1739352,0.09330768,0.00603999,0.042273298,0.0,0.97599775,0.010279976,0.21753806,2.4199486E-4,-0.0024432596,4.1931868E-4,0.6251657,-0.013297262,0.7799873,2016-11-16 07:31:30,48.46491348468871
9.5385,0.095768064,2.1643584,-0.17900692,0.0060210917,-0.043159574,0.0,0.9758428,0.013405181,0.21806213,-0.0024739504,-0.0035804622,0.0025522858,0.6258307,1.7263349E-4,0.77989554,2016-11-16 07:31:31,50.672047769736736
9.586384,0.12449849,2.1164744,-0.3906868,-0.022680528,-0.039749306,0.0,0.97555244,0.011832147,0.21944803,0.0026156306,-0.003931554,-0.0033327788,0.6246215,-0.014277009,0.78034145,2016-11-16 07:31:32,52.48169278272368
9.548077,0.10534488,2.1547816,0.1852589,0.0030878617,0.002360687,0.0,0.9755163,0.010083753,0.21969573,-0.0011986494,6.3282624E-4,7.4356794E-5,0.62458855,-0.020355385,0.7799803,2016-11-16 07:31:33,48.35825765551317
9.576807,0.11492168,2.1643584,0.017807301,0.02217804,0.034474928,0.0,0.9758176,0.012240414,0.21824317,-0.001491785,0.0034053465,0.0014874637,0.62497157,-0.021356374,0.7795089,2016-11-16 07:31:34,45.368000095452594
9.605537,0.11492168,2.1643584,-0.03858536,7.7424245E-4,-0.033468124,0.0,0.9757051,0.010532985,0.21883458,5.4347515E-4,-7.013595E-4,5.853176E-5,0.6247317,-0.016503436,0.7801145,2016-11-16 07:31:35,47.34567323837816
9.548077,0.10534488,2.1930888,-0.6183188,0.003989712,-0.04520807,0.0,0.97539,0.011311893,0.22019595,0.0047852397,3.8630422E-4,5.763024E-4,0.6251029,-0.0043330663,0.7804053,2016-11-16 07:31:36,52.177087759726135
9.528923,0.08619126,2.1739352,-0.571458,0.004376909,-0.091581546,0.0,0.97538877,0.00898136,0.22030911,-0.0011287332,8.5507333E-4,-2.875477E-4,0.6239178,-0.0020316548,0.78142,2016-11-16 07:31:37,47.468950475122966
9.624691,0.15322891,2.1547816,-1.2764986,-0.03342831,-0.07051545,0.0,0.97519016,0.012105289,0.22103745,0.0068781376,0.0034370562,-9.6684694E-4,0.62389505,-0.006424657,0.78127754,2016-11-16 07:31:38,44.15566304790363
9.557653,0.11492168,2.183512,0.7422372,0.015424458,0.10624128,0.0,0.9752149,0.01175751,0.22094744,6.508827E-5,-0.0010148734,-0.0020893067,0.6235755,-0.020341106,0.7807107,2016-11-16 07:31:39,47.203743982393284
9.586384,0.12449849,2.2409728,0.017218223,0.0026737996,0.0033477212,0.0,0.97457486,0.010712659,0.22380602,7.163286E-4,0.004749275,0.0038067102,0.6226578,-0.016691972,0.78175634,2016-11-16 07:31:40,45.736330784754806
9.586384,0.095768064,2.2218192,0.04315994,8.09271E-4,-0.08860719,0.0,0.9743092,0.010324426,0.2249778,0.0019408464,3.9003603E-4,-0.0021776855,0.62269074,-0.019412251,0.78155667,2016-11-16 07:31:42,50.01206863582658
9.548077,0.1340753,2.2026656,0.13823901,-0.020085886,-0.05483362,0.0,0.97428626,0.010536899,0.22506706,-7.212162E-6,0.0030195536,-2.3694336E-4,0.62231684,0.0014287964,0.782739,2016-11-16 07:31:43,49.12300544933405
9.509769,0.095768064,2.183512,-0.8511473,-0.015951453,-0.07146664,0.0,0.9739234,0.012298826,0.22654358,0.0013289452,0.002159004,-0.0056005865,0.6222254,9.91704E-4,0.782799,2016-11-16 07:31:44,51.363007774861565
9.5385,0.1436521,2.183512,0.3474459,-0.013440148,0.016444253,0.0,0.974639,0.012132931,0.22345394,0.0025631785,0.0016201176,4.273355E-4,0.62280893,-0.014404814,0.7817418,2016-11-16 07:31:45,47.79602172398482
9.528923,0.1340753,2.183512,-0.694198,-0.010912777,-0.08699157,0.0,0.9740749,0.014323158,0.22577232,-0.0017474294,-6.848518E-4,-0.0029116422,0.6219774,-0.0071700076,0.78275615,2016-11-16 07:31:46,52.98497456816412
9.557653,0.15322891,2.2505496,0.64714,0.026045736,0.02146395,0.0,0.9745979,0.014296186,0.22350542,-0.0021966696,3.865175E-4,9.84326E-4,0.623162,-0.018262062,0.7811591,2016-11-16 07:31:47,50.57834976576171
9.56723,0.10534488,2.2122424,0.16403276,0.015960978,0.017982814,0.0,0.9745001,0.013084421,0.22400519,0.001740396,0.0015772972,-0.0011654049,0.6226552,-0.019994954,0.781426,2016-11-16 07:31:48,51.28415808915328
9.557653,0.1340753,2.1643584,0.2406348,-0.02458091,0.017124454,0.0,0.97443515,0.014818856,0.22417954,0.0047680736,-0.0011107353,0.0014549941,0.6223919,-0.022497065,0.7813846,2016-11-16 07:31:49,46.1877564967508
9.500193,0.12449849,2.2409728,0.06297614,-0.017578997,0.017428068,0.0,0.97366,0.011473224,0.22771603,6.0009956E-4,0.002247014,-0.003790602,0.6211459,-0.01902418,0.7827181,2016-11-16 07:31:50,49.6116916580892
9.56723,0.17238252,2.231396,-0.059386693,-0.001450259,-0.011899352,0.0,0.9737943,0.01390148,0.22700518,-0.0014333725,-2.261661E-4,0.0045036077,0.621336,-0.018629625,0.7825759,2016-11-16 07:31:51,51.09932981857794
9.557653,0.18195933,2.2122424,-0.4806435,0.032436527,-0.06401919,0.0,0.97467226,0.014958329,0.22313699,6.2686205E-4,5.850671E-4,0.0073700994,0.6230149,-0.00563378,0.78195405,2016-11-16 07:31:52,51.77031230574017
9.557653,0.1340753,2.183512,-0.9054229,0.005209577,-0.080305606,0.0,0.973556,0.015353211,0.22793192,7.638931E-4,-0.0017861677,6.3355267E-4,0.6213101,0.002257476,0.78350633,2016-11-16 07:31:53,53.167928766662385
9.509769,0.1340753,2.2026656,0.0039918395,0.013912612,0.13591316,0.0,0.9731615,0.012370674,0.22979033,0.0011692643,0.0013165837,-3.0058622E-4,0.62105507,-0.0026181166,0.7836434,2016-11-16 07:31:54,51.62598213120992
9.548077,0.18195933,2.27928,1.0918262,0.028790941,0.06955987,0.0,0.9737646,0.015169869,0.22705144,5.6010485E-4,-0.0044244025,0.003440231,0.6213152,-0.01703045,0.7826698,2016-11-16 07:31:55,51.568261503259976
9.548077,0.1340753,2.2122424,0.021353602,0.0017512983,-0.014868891,0.0,0.973573,0.014363594,0.22792345,-0.0012417436,-0.001636873,-0.0021528304,0.62121814,-0.018550271,0.78265667,2016-11-16 07:31:56,50.565401273782086
9.528923,0.15322891,2.2218192,0.22189462,-0.020081561,0.049518034,0.0,0.97302294,0.01269598,0.23035847,0.0022315383,-1.1849217E-4,-0.0025894344,0.62047327,-0.014659623,0.78356045,2016-11-16 07:31:57,54.79783506650649
9.5385,0.095768064,2.2984335,-0.23968157,0.0075557576,-0.0324729,0.0,0.9728558,0.013610454,0.23101152,4.851222E-4,0.002842201,0.0014739335,0.62030786,-0.012237511,0.78383195,2016-11-16 07:31:58,59.14759821694905
9.500193,0.08619126,2.2697031,-0.7257043,0.039001677,0.035810318,0.0,0.97378093,0.011954082,0.22717357,-0.0024160743,-1.0424573E-4,0.004409194,0.62096477,-6.6860666E-4,0.7837652,2016-11-16 07:31:59,52.18924331875881
9.557653,0.11492168,2.2409728,-0.29209727,-0.017794194,0.071781285,0.0,0.97316515,0.013227228,0.2297272,0.0030710697,-0.0023205215,9.3878806E-4,0.62055844,-0.008735494,0.7837886,2016-11-16 07:32:00,52.29584512894572
9.5385,0.1340753,2.2409728,-0.65725935,3.548779E-4,-0.04480862,0.0,0.9737377,0.014502313,0.22721012,-0.0023542643,-0.0017427057,0.004295677,0.6212262,-0.0058746138,0.78338856,2016-11-16 07:32:01,49.33874472896933
9.5385,0.11492168,2.2409728,0.07833224,-0.008140315,0.03386101,0.0,0.9728937,0.016071785,0.2306933,-0.004506707,-0.0033216868,-0.0037985146,0.61985993,-0.011059328,0.7841626,2016-11-16 07:32:02,51.76158243813448
9.557653,0.12449849,2.2888567,0.12507813,-0.0039719986,0.021488404,0.0,0.9721498,0.01330282,0.23398256,0.0031051636,-5.0449185E-4,-3.6530197E-4,0.61911845,-0.0135646425,0.7846402,2016-11-16 07:32:03,49.6503145527939
9.548077,0.17238252,2.27928,0.4400825,0.0109457625,0.037718825,0.0,0.97282434,0.01674523,0.23093829,-0.0014677048,0.0035590716,0.0016790181,0.62014943,-0.0071304115,0.7841454,2016-11-16 07:32:04,45.8017485679262
9.5385,0.16280572,2.231396,0.6006669,0.006016022,0.019493766,0.0,0.9727872,0.016838886,0.2310875,-4.273653E-4,-0.0039512534,0.0013912767,0.6201917,-0.011856542,0.7838393,2016-11-16 07:32:05,53.06497596027242
9.548077,0.17238252,2.27928,-0.0149153825,-0.06669153,0.010924249,0.0,0.97216177,0.012771502,0.23396243,0.002092421,0.0028079245,-0.0061023384,0.61901194,-0.019401116,0.78434736,2016-11-16 07:32:06,50.538403283353155
9.519346,0.12449849,2.2984335,-0.19151942,-0.007882837,-0.010156259,0.0,0.971954,0.014501917,0.23472385,-5.8317184E-4,-0.001811943,-2.2600591E-4,0.61834794,-0.016476328,0.78507745,2016-11-16 07:32:07,54.83357832244158
9.500193,0.16280572,2.336741,-1.1492605,-0.006661403,-0.13068125,0.0,0.9721886,0.016885227,0.23358984,0.0030634403,0.0016505457,-0.0019072294,0.6191813,0.005595296,0.7852039,2016-11-16 07:32:08,47.06641322570951
9.548077,0.1436521,2.2409728,-0.35872382,-5.6019868E-5,-0.086841784,0.0,0.97270197,0.015431402,0.23154429,-0.0033046007,-0.0026387377,-0.0018602461,0.6196436,-0.011279455,0.7843502,2016-11-16 07:32:09,43.32088990035417
9.509769,0.19153613,2.2409728,-0.3992523,-8.762493E-4,-0.19129944,0.0,0.97182137,0.016845295,0.23511606,0.0015417337,0.0014935024,0.0021727234,0.61889976,5.5939646E-4,0.78536713,2016-11-16 07:32:10,49.21504202593467
9.5385,0.1436521,2.3080103,0.7211198,0.0047849454,0.11299596,0.0,0.9713841,0.016156582,0.23696405,9.3865395E-4,0.0013392512,-4.0189922E-4,0.6175129,-4.567453E-4,0.7864436,2016-11-16 07:32:11,48.225053196651906
9.528923,0.15322891,2.2697031,-0.092859894,-0.0068690083,0.011791315,0.0,0.9712319,0.017364321,0.2375021,0.002097845,-6.8564154E-4,8.816421E-4,0.61797386,-0.0128829,0.7854917,2016-11-16 07:32:12,44.98948543793496
9.5385,0.1436521,2.3080103,-1.3343341,-0.0070664077,-0.10971063,0.0,0.9719778,0.016035814,0.23452485,0.0013457537,-0.0012776908,9.4918907E-4,0.61851877,-0.0060864016,0.78547543,2016-11-16 07:32:13,49.12763059259924
9.509769,0.15322891,2.327164,-0.77699494,-0.006588415,-0.05488755,0.0,0.97148544,0.015375346,0.23660009,-0.0011086464,2.011247E-4,-0.0010530204,0.6179653,-0.0037106161,0.78600496,2016-11-16 07:32:14,46.501935099143125
9.528923,0.11492168,2.3175871,-0.4188918,0.0019973165,-0.023096949,0.0,0.97080135,0.015035205,0.23941302,-0.0014026165,-0.00214196,3.0189753E-5,0.61665785,-0.0031312879,0.78705543,2016-11-16 07:32:15,53.03803271389857
9.557653,0.19153613,2.3175871,0.058490317,-0.014733742,-0.025142524,0.0,0.97168434,0.014457494,0.23584,0.003566265,0.004944383,7.404834E-4,0.6176054,-0.020172283,0.785364,2016-11-16 07:32:16,45.599587153158375
9.56723,0.1436521,2.336741,0.5939084,6.5466855E-4,-0.010768769,0.0,0.97098076,0.014057513,0.23874432,0.0032877922,-0.0040708752,-0.0031442642,0.6168644,-0.013271463,0.7864331,2016-11-16 07:32:17,46.96542329490774
9.548077,0.16280572,2.3080103,-0.23965466,0.0069961585,-0.05597361,0.0,0.97135335,0.014102929,0.23722102,0.0029680133,0.0024819812,-0.001821965,0.61798656,-0.017511453,0.785291,2016-11-16 07:32:18,50.3577272703813
9.548077,0.11492168,2.336741,0.06597848,-0.018887585,0.06267367,0.0,0.97041816,0.014200849,0.2410126,0.0019015074,0.0014037294,-0.0024891645,0.6159653,-0.018331693,0.78677964,2016-11-16 07:32:19,46.485469450911474
9.528923,0.1436521,2.3654714,0.0972919,-0.024513576,0.07880266,0.0,0.9703721,0.015817128,0.24109733,-9.7209215E-4,-0.0011934545,-0.0026220977,0.6158801,-0.014998266,0.7870436,2016-11-16 07:32:20,54.841006144616216
9.500193,0.12449849,2.3175871,0.85862386,0.0046820873,0.08355339,0.0,0.97127885,0.015364089,0.23744768,0.0020458698,-0.00158088,9.5406175E-4,0.61745465,-0.013002637,0.7859626,2016-11-16 07:32:21,42.54437042310968
9.528923,0.22026655,2.4133554,0.10131139,0.0016848487,0.0043856693,0.0,0.9704599,0.017307408,0.24064109,0.0028457642,-0.0016477313,-0.0031339824,0.6164177,-0.018247776,0.78633124,2016-11-16 07:32:22,51.7960512922858
9.490616,0.16280572,2.384625,-0.030339535,-0.0028962637,-0.0051479,0.0,0.9703189,0.014271989,0.2414076,0.0029823184,0.0040054284,4.5329332E-5,0.61578435,-0.005739901,0.78768605,2016-11-16 07:32:23,46.36035563328031
9.519346,0.17238252,2.3463178,-0.47752553,0.008278459,-0.11523483,0.0,0.9707263,0.015889574,0.23966205,0.0016156435,-3.1418167E-4,-2.4971366E-4,0.61636376,-0.0024045066,0.78729945,2016-11-16 07:32:25,53.11223181304967
9.519346,0.20111294,2.3942018,0.78500557,0.0065606143,0.106435776,0.0,0.9703062,0.015297047,0.2413956,-0.0018829107,-5.3937733E-4,0.0019549131,0.61565983,-0.009418419,0.7875479,2016-11-16 07:32:26,45.27853380445439
9.528923,0.17238252,2.3942018,-0.08754705,0.012738567,0.0020438225,0.0,0.97032773,0.013827635,0.2413976,-0.0028799772,-0.0019808644,-0.0019635707,0.6157233,-0.015652632,0.78715044,2016-11-16 07:32:27,48.35685961712055
9.490616,0.10534488,2.3463178,0.16859138,5.592991E-4,0.05633079,0.0,0.97069585,0.016736323,0.23972797,-0.0022733212,-0.005811424,-2.8914213E-4,0.6159234,-0.022215456,0.7863892,2016-11-16 07:32:28,53.439319470479056
9.548077,0.1436521,2.3750482,0.5321655,-0.009416104,0.09891408,0.0,0.9701043,0.016556196,0.2421229,-0.0026777983,-8.834973E-4,-0.0035765618,0.61516404,-0.022974204,0.7869075,2016-11-16 07:32:29,46.85095356709532
9.481039,0.17238252,2.3558946,-0.05989796,0.024312349,0.030496085,0.0,0.9715712,0.017510394,0.23609906,-0.0022044778,-8.511916E-5,0.0035007,0.61643535,-0.01840066,0.7863136,2016-11-16 07:32:30,42.79474778313816
9.500193,0.1340753,2.4229321,0.07870805,0.010085322,0.04058131,0.0,0.9691914,0.013432815,0.24594253,0.002212584,0.0021801786,0.0021079332,0.61424625,-0.013568488,0.7884743,2016-11-16 07:32:31,53.063154124465015
9.509769,0.15322891,2.336741,-0.45760816,-0.023857174,-0.042620342,0.0,0.9697591,0.017069109,0.24346653,0.0015897751,0.0034660902,0.002845019,0.61452377,0.002756736,0.78882104,2016-11-16 07:32:32,48.76338044214027
9.500193,0.18195933,2.384625,0.5659412,0.0054023257,0.054922275,0.0,0.96960413,0.015164088,0.24420883,-0.0011632442,0.0014812332,0.0010302663,0.61480486,-0.006855528,0.7883475,2016-11-16 07:32:33,48.582139003146914
9.481039,0.15322891,2.432509,0.18501022,0.042145364,0.046064723,0.0,0.9697471,0.018263526,0.2434276,-0.0032203794,-7.762704E-4,0.007523924,0.61459875,-0.014747791,0.788008,2016-11-16 07:32:34,51.05368363048481
9.509769,0.19153613,2.4037786,0.10941408,0.04190938,0.006500371,0.0,0.9688465,0.016880829,0.247086,6.4122677E-4,0.0017262492,-1.655072E-4,0.61365134,-0.017682508,0.78844565,2016-11-16 07:32:35,43.35980978945046
9.509769,0.16280572,2.432509,-0.4624005,0.02499468,-0.047530666,0.0,0.9695549,0.018393688,0.24418204,-0.002050221,-0.0036605299,0.0028448105,0.61476636,0.0017689669,0.7886205,2016-11-16 07:32:36,45.839950768623545
9.500193,0.15322891,2.432509,0.115970984,0.029637903,0.027179372,0.0,0.9691968,0.016185269,0.24575537,0.0021621585,-0.0014732722,-0.005350083,0.61418456,-0.015161309,0.7883391,2016-11-16 07:32:37,48.477348980737496
9.481039,0.17238252,2.480393,0.09760543,0.006610649,0.05859024,0.0,0.968528,0.013730271,0.24852577,-9.3221664E-5,-0.0028256737,-0.0013142377,0.61333644,-0.01323098,0.7891884,2016-11-16 07:32:38,49.65845607295795
9.490616,0.1340753,2.5091233,-0.42715245,0.009473844,-0.089266665,0.0,0.9689345,0.014221667,0.24690826,0.001458466,0.0032467023,0.002258584,0.6132341,-0.016360154,0.7890496,2016-11-16 07:32:39,48.52292757822325
9.490616,0.18195933,2.432509,-0.65289253,-0.0153713,-0.021142663,0.0,0.96874005,0.016202169,0.24754818,0.0016256571,-0.0014843494,-2.4041533E-4,0.6132125,-0.009322208,0.789452,2016-11-16 07:32:40,49.52177473487207
9.509769,0.1340753,2.4612393,-0.57444376,0.0030715035,-0.15083653,0.0,0.9684786,0.014398627,0.24868031,-0.0019948483,1.9143336E-4,-0.0014696121,0.61332965,-6.9053395E-4,0.78972334,2016-11-16 07:32:41,44.96989722474001
9.500193,0.17238252,2.4516625,-0.15636005,-0.00699116,0.032782335,0.0,0.96872246,0.015690947,0.24765007,0.004589975,-0.0010345094,-3.9716065E-4,0.61288816,-0.007087441,0.789827,2016-11-16 07:32:42,48.38821146555016
9.509769,0.18195933,2.480393,0.07056432,0.014605407,-0.0059166146,0.0,0.9680104,0.014150345,0.25051096,0.004340291,0.0013727322,0.0035292506,0.6118424,-0.016757013,0.7901188,2016-11-16 07:32:43,47.1133379741067
9.452309,0.18195933,2.4612393,-0.16850135,-0.047318943,-0.017178476,0.0,0.96754533,0.015447322,0.25222504,8.673072E-4,0.0039433558,-0.0019785762,0.6110834,-0.015648825,0.79074836,2016-11-16 07:32:44,53.28378906799926
9.519346,0.11492168,2.4899697,0.3580844,0.026416969,0.035352096,0.0,0.9682104,0.016493104,0.249593,0.0031930208,-0.004554054,0.0043102354,0.6128353,-0.0140894735,0.7894519,2016-11-16 07:32:45,49.66091903391992
9.500193,0.16280572,2.5187001,0.8746618,0.001223675,0.10485241,0.0,0.9670537,0.014434569,0.2541626,0.0033336878,0.0031031286,-0.0030239224,0.61135435,-0.014392913,0.790625,2016-11-16 07:32:46,51.28117692536935
9.490616,0.15322891,2.4612393,0.064370826,0.0017198736,-0.07105194,0.0,0.9676582,0.015501585,0.2517881,0.0017336011,0.002030191,0.0013766587,0.61093664,-0.017496556,0.79071397,2016-11-16 07:32:47,52.34384889144806
9.490616,0.1340753,2.3942018,0.15359421,0.013045359,0.025793778,0.0,0.9679892,0.014378441,0.25057948,0.0014628172,0.004131019,0.002352506,0.6121216,-0.016413804,0.78989285,2016-11-16 07:32:48,47.98008265745832
9.519346,0.15322891,2.4420857,0.10592985,-0.017635327,0.0069101113,0.0,0.9674745,0.017296927,0.25237626,-0.0019807816,-5.901437E-4,-0.0021950006,0.611573,-0.019576972,0.78993255,2016-11-16 07:32:49,48.858175996149804
9.500193,0.1436521,2.4995465,-0.6678972,-0.009737704,-0.07330552,0.0,0.9677727,0.015343382,0.25135747,0.003573954,0.00216028,-0.0021016598,0.611743,-0.0023448942,0.7908972,2016-11-16 07:32:50,49.49921641026379
9.500193,0.17238252,2.4708161,-1.0271428,0.019379713,-0.11583476,0.0,0.9667942,0.0146977585,0.2551333,0.0036367178,9.711571E-4,0.008539915,0.6103971,0.0010429693,0.7920234,2016-11-16 07:32:51,48.48662552974066
9.509769,0.12449849,2.5474305,0.15229625,-0.0022805212,0.02975133,0.0,0.9665822,0.015906235,0.2558631,0.00480783,-0.0011170674,0.0010325909,0.6101784,-0.013701272,0.7915452,2016-11-16 07:32:52,45.9301159186883
9.490616,0.15322891,2.5091233,0.020045027,-0.005046357,-0.0025411458,0.0,0.9670274,0.015787119,0.25418237,0.0023623705,7.0267916E-4,-0.001983732,0.6105344,-0.018044949,0.7909634,2016-11-16 07:32:53,52.0717474498728
9.500193,0.1436521,2.480393,0.059647277,0.002637967,0.055778142,0.0,0.9665906,0.01530402,0.2558678,-1.5068054E-4,0.0011244128,-0.0035974383,0.609836,-0.018912626,0.7914435,2016-11-16 07:32:54,48.40491135184991
9.471462,0.16280572,2.480393,-0.87584746,0.007839813,-0.12939075,0.0,0.9670784,0.015621511,0.2539987,-0.0015935898,1.5171804E-4,0.0011005402,0.61066115,-0.0027675254,0.7917,2016-11-16 07:32:55,52.99011388628128
9.490616,0.10534488,2.4899697,1.0034593,0.0010496025,0.07349275,0.0,0.96650904,0.013696197,0.25626692,0.0038793087,-0.002731054,0.0016949773,0.6097215,-0.012655342,0.7920295,2016-11-16 07:32:56,50.070152307057825
9.481039,0.1436521,2.528277,-0.05225224,-0.015611611,0.038157966,0.0,0.9670632,0.014769772,0.2541079,-0.0025172234,-8.7927096E-5,0.0028073788,0.61003107,-0.014109554,0.7916626,2016-11-16 07:32:57,43.031034538761894
9.461885,0.18195933,2.4516625,0.7784903,0.012295737,0.0701667,0.0,0.96558434,0.0153172845,0.2596389,-0.0010828376,3.0597672E-4,-0.0035314858,0.60878813,-0.015227018,0.7925439,2016-11-16 07:32:58,51.31156954391913
9.490616,0.16280572,2.5187001,0.029191297,0.0012933798,5.535218E-4,0.0,0.9668509,0.014973036,0.25490215,0.0035378933,5.718339E-4,1.4305115E-4,0.61024684,-0.019600935,0.7910733,2016-11-16 07:32:59,49.137516498096154
9.481039,0.1436521,2.5474305,0.165277,0.019682497,0.1359115,0.0,0.96505696,0.012650022,0.26173496,0.0014552474,0.0048907064,0.004915446,0.60768235,-0.011826339,0.7936635,2016-11-16 07:33:00,45.93112716246999
9.452309,0.16280572,2.5761611,-0.50526255,0.00198927,0.0075732167,0.0,0.966084,0.014252271,0.2578345,0.0013698936,-0.0014849957,0.0011233985,0.6088718,-0.003911968,0.7930776,2016-11-16 07:33:01,52.857066611238125
9.490616,0.16280572,2.5378537,-0.1791719,-0.008914118,-0.06174468,0.0,0.96491104,0.016834226,0.26203698,0.003471136,-2.8948113E-4,-0.0028910637,0.60706884,-0.0174441,0.7936453,2016-11-16 07:33:02,51.07324084190487
9.471462,0.1436521,2.5187001,0.1735346,0.0020561242,0.0503861,0.0,0.9648195,0.014203324,0.26252943,0.0016285777,0.0014739623,-0.0024878979,0.6068633,-0.020333411,0.79359365,2016-11-16 07:33:03,55.86780003530903
9.490616,0.12449849,2.5953147,0.27553326,-0.0048488206,0.034381583,0.0,0.9638529,0.014103722,0.2660611,0.004549563,-0.001238036,-0.0011416972,0.605821,-0.011117785,0.7950788,2016-11-16 07:33:04,44.10360131526029
9.500193,0.1436521,2.633622,-0.28568164,0.03660397,-0.010302219,0.0,0.9647567,0.015963117,0.26265872,-0.0012130141,6.871596E-4,0.009009063,0.6059827,-0.01186408,0.79484576,2016-11-16 07:33:05,50.67512121101896
9.404425,0.1340753,2.6048915,-0.023827799,0.0077963513,-0.02896796,0.0,0.96415085,0.014680699,0.26494828,-0.004535198,-8.1276055E-4,9.176731E-4,0.6058202,-0.016788995,0.79464626,2016-11-16 07:33:06,51.84043485834805
9.461885,0.15322891,2.6048915,0.41666692,-0.012506274,0.06392397,0.0,0.9637651,0.016476149,0.26624334,-0.0012280941,0.0020337347,-0.001303494,0.6051405,-0.01790901,0.79506916,2016-11-16 07:33:07,52.540667362811334
9.471462,0.17238252,2.6527755,-0.11893517,0.015848419,-0.0515436,0.0,0.9637609,0.015750298,0.26630214,0.0027384162,0.0017158929,0.0043111145,0.6049353,-0.01903749,0.7951252,2016-11-16 07:33:08,50.532974811566554
9.452309,0.12449849,2.5953147,-0.79843545,-0.0068243314,-0.07865662,0.0,0.9628771,0.018460132,0.2693082,0.0016493201,-8.441862E-4,-0.0015687048,0.6041501,-0.016516075,0.79585534,2016-11-16 07:33:09,45.48639127085701
9.423578,0.17238252,2.6144683,-0.055650145,-0.038919672,-0.0023800025,0.0,0.96336436,0.015598599,0.26774204,0.002075851,0.0039525116,-0.007590592,0.6050097,-0.016909271,0.7952026,2016-11-16 07:33:10,50.63861594977286
9.471462,0.16280572,2.6719291,-0.076739594,0.014095581,-0.008453675,0.0,0.9636509,0.016132714,0.26667708,0.0028648376,5.0944276E-4,0.0058221817,0.60528857,-0.015593019,0.7951134,2016-11-16 07:33:11,45.703694160549844
9.461885,0.19153613,2.6719291,-1.0717547,-0.016783454,-0.08396159,0.0,0.9629274,0.014375892,0.2693772,0.0035392642,-0.0015716702,0.0013410747,0.6039595,-0.009676719,0.7965518,2016-11-16 07:33:12,47.70844420623524
9.461885,0.22026655,2.6719291,0.053785287,0.024370989,0.045847,0.0,0.9623796,0.017647276,0.27113476,0.0031568408,0.0046785288,0.0013862252,0.6039897,-0.012701767,0.7962846,2016-11-16 07:33:13,47.140367427051075
9.471462,0.1436521,2.6144683,0.35717803,-0.01000155,0.002151607,0.0,0.963012,0.018144047,0.26884693,0.0034395456,-0.0034003798,-0.0019837916,0.60437846,-0.013538253,0.7959157,2016-11-16 07:33:14,45.34109062770515
9.452309,0.17238252,2.6048915,0.12747341,-0.034396604,0.004459494,0.0,0.96332157,0.017315952,0.26779038,0.0011537671,-0.0016815662,-0.0047513843,0.6047848,-0.016841723,0.795409,2016-11-16 07:33:15,52.283483788592406
9.442732,0.1436521,2.6719291,-0.03892688,0.031180965,0.020346636,0.0,0.96256936,0.015420368,0.2705965,0.0010070801,-7.6251477E-4,0.0019344091,0.60405415,-0.021391932,0.79559815,2016-11-16 07:33:17,51.29467889132512
9.414001,0.16280572,2.6240451,0.16144322,0.005807053,0.0127686635,0.0,0.96222866,0.018038884,0.27164418,0.0032591224,-0.0041777734,-0.0028811693,0.603935,-0.021124164,0.7956038,2016-11-16 07:33:18,49.57466130386851
9.452309,0.18195933,2.6431987,-0.25654602,0.011114855,-0.03969482,0.0,0.9628684,0.018596994,0.26933005,0.002629578,-0.0028070267,-0.0015789568,0.60486484,-0.005821103,0.795971,2016-11-16 07:33:19,50.068039597994066
9.423578,0.19153613,2.6240451,-0.87330884,0.0090612145,-0.038305886,0.0,0.9635066,0.01620801,0.2671936,-8.995533E-4,3.76096E-4,0.004331976,0.6052202,-0.013488633,0.7953134,2016-11-16 07:33:20,51.23044610012207
9.452309,0.1436521,2.6910827,-0.07767129,-0.0047004395,0.04735412,0.0,0.9624288,0.016456142,0.27103478,0.0011587143,1.3485737E-4,0.001458019,0.6039137,-0.016196297,0.7961029,2016-11-16 07:33:21,49.12397971295674
9.423578,0.20111294,2.633622,-0.77533454,0.011866977,-0.05402944,0.0,0.96268463,0.017901806,0.2700328,-0.0010768771,0.0024184156,-0.0013474822,0.6042245,0.002204037,0.7967333,2016-11-16 07:33:22,46.73824303758331
9.442732,0.17238252,2.6527755,0.8065077,-0.010043751,0.08437545,0.0,0.9628596,0.015681865,0.26954702,0.0045776963,0.00277072,2.3010373E-4,0.60350305,-0.014370118,0.7965671,2016-11-16 07:33:23,49.16708309198527
9.452309,0.18195933,2.6719291,0.5050157,0.0048118257,0.112100564,0.0,0.9625444,0.019127175,0.27044865,-0.0018728375,-0.0014780704,-9.4911456E-4,0.6043832,-0.014592381,0.7958149,2016-11-16 07:33:24,48.543667274308724
9.423578,0.17238252,2.6048915,0.7355161,0.021182787,0.09260603,0.0,0.9619903,0.017190685,0.27254182,0.0054712296,0.004365418,-0.0018847585,0.60315657,-0.01212497,0.7969127,2016-11-16 07:33:25,48.487677008871515
9.423578,0.17238252,2.7006595,-0.5841339,-0.0013651836,-0.06207496,0.0,0.96170324,0.016984645,0.27356595,0.0018187165,-4.0684082E-4,0.0011140406,0.60215956,-0.016382,0.79740536,2016-11-16 07:33:26,47.53466538853672
9.404425,0.17238252,2.6527755,0.06159978,0.0028046544,-0.07408751,0.0,0.96211416,0.01796569,0.27205458,0.0014505386,-6.093364E-4,0.0034656227,0.6028696,-0.024509093,0.7961377,2016-11-16 07:33:27,47.20063610206846
9.414001,0.17238252,2.6910827,0.14532728,0.009613876,0.017077848,0.0,0.96206576,0.017981162,0.27222425,0.0034440756,0.0033660308,0.0023458898,0.60254234,-0.022909578,0.79648364,2016-11-16 07:33:28,49.406807876603274
9.452309,0.1436521,2.681506,0.055957697,0.0010665506,0.031457152,0.0,0.96141165,0.018604232,0.274484,0.003090024,-0.0037901532,0.00212878,0.60181,-0.020857599,0.79717594,2016-11-16 07:33:29,49.22726193058965
9.404425,0.16280572,2.7006595,-0.6224222,1.1943531E-4,-0.05686476,0.0,0.9614914,0.015209744,0.2744141,0.0029985309,0.002457169,2.9239058E-4,0.60219306,-0.010563139,0.79781675,2016-11-16 07:33:30,47.681220392322665
9.423578,0.1436521,2.719813,-1.1424155,-0.01682068,-0.047502924,0.0,0.960872,0.014424392,0.27661708,7.29084E-4,2.1088775E-4,0.003807813,0.6011753,-0.008851571,0.7987004,2016-11-16 07:33:31,51.00094262337254
9.433155,0.21068975,2.7102363,0.1448875,0.014738116,3.8688467E-4,0.0,0.96139836,0.018593038,0.27453113,0.0022108555,-0.0010046456,0.004727006,0.6017279,-0.019878358,0.79737353,2016-11-16 07:33:32,58.31835038127459
9.423578,0.17238252,2.72939,0.29671428,9.6888305E-4,-0.017239057,0.0,0.9605296,0.017707491,0.2776136,0.0010569692,-1.5477836E-4,9.083748E-4,0.60071826,-0.012779543,0.7987322,2016-11-16 07:33:33,44.9649196350276
9.471462,0.22026655,2.72939,3.0968006,0.0060721184,0.2772489,0.0,0.9605689,0.015863325,0.27758923,-0.0019021034,-0.0020966642,-0.0030242503,0.60127485,0.002531304,0.79897183,2016-11-16 07:33:34,51.850070607206376
9.414001,0.19153613,2.6431987,0.3635643,0.010288084,0.07540316,0.0,0.9608989,0.018033652,0.27631158,0.0016576052,4.639551E-4,2.836585E-4,-0.6008875,-0.024772454,-0.79875714,2016-11-16 07:33:35,50.561386683654746
9.452309,0.16280572,2.6910827,-1.0015844,-0.008840548,-0.054972462,0.0,0.9607388,0.0181507,0.2768601,-1.4489889E-4,-5.583763E-4,-2.4148822E-4,-0.5999619,-0.037699178,-0.79840404,2016-11-16 07:33:36,46.799886495727954
9.414001,0.19153613,2.719813,0.835455,0.020456744,0.12968363,0.0,0.96052974,0.019527225,0.27749106,0.0020589232,2.7285889E-5,9.417534E-4,0.60131884,-0.0036498823,0.798705,2016-11-16 07:33:37,48.03316211692113
9.414001,0.18195933,2.7581203,-0.21273401,-0.0072670034,0.0023686662,0.0,0.9595422,0.019530784,0.28088632,-8.779168E-4,0.0018023085,-0.0014106035,0.59995127,8.097229E-4,0.79991305,2016-11-16 07:33:38,48.19033545365383
9.433155,0.18195933,2.777274,0.59236103,0.007338757,0.05579795,0.0,0.95959145,0.018103292,0.280814,0.001968503,0.001478985,-2.5174022E-4,0.59967417,-0.012515035,0.799498,2016-11-16 07:33:39,49.275937627447036
9.461885,0.22026655,2.767697,-0.2910195,-0.009461676,-3.7983293E-4,0.0,0.9588672,0.0174964,0.2833149,0.0036956072,0.0029376019,9.906292E-5,0.59867704,-0.015675463,0.8000332,2016-11-16 07:33:40,52.38665080601613
9.385271,0.20111294,2.767697,0.17227876,1.1102864E-4,0.008488224,0.0,0.9594279,0.019012775,0.28131256,0.0011895895,0.0023925304,0.0010947585,0.59898937,-0.013708883,0.79991233,2016-11-16 07:33:41,52.969406404404054
9.394848,0.18195933,2.7964275,0.17507702,0.0025419197,-8.923679E-4,0.0,0.95861906,0.019021185,0.28405604,2.5570393E-5,0.0033940598,-6.1133504E-4,0.59799266,-0.0121568795,0.8007833,2016-11-16 07:33:42,50.85238369945367
9.414001,0.19153613,2.7964275,0.13063012,-0.0026953008,-0.0072542625,0.0,0.9582719,0.0196428,0.28518257,0.0023379922,-6.78692E-5,1.733303E-4,0.5976459,-0.015702058,0.80074537,2016-11-16 07:33:43,51.02641633842549
9.423578,0.19153613,2.825158,0.1007124,0.008597182,-0.005240329,0.0,0.95898,0.020308234,0.28274542,0.0016717911,-7.5879134E-4,0.0014929175,0.5988691,-0.018245326,0.7995501,2016-11-16 07:33:44,45.06967267111403
9.385271,0.21068975,2.777274,0.1359172,0.004704131,-0.015896019,0.0,0.9585469,0.019644652,0.2842566,-8.5890293E-4,0.0017882343,-8.814931E-4,0.5981474,-0.012230203,0.8006285,2016-11-16 07:33:45,51.62053465329719
9.423578,0.21068975,2.767697,-1.5194943,-0.0020438416,-0.14169858,0.0,0.9574599,0.020630216,0.28782782,0.0022625923,-0.001998974,0.0030902028,0.59720963,-0.0060149827,0.80164516,2016-11-16 07:33:46,49.88668362046045
9.433155,0.19153613,2.8060043,0.012988284,-0.0026522337,-0.011801412,0.0,0.95736784,0.020725211,0.28812712,3.4415722E-4,-0.0020698756,0.001998365,0.59693664,-0.0043587824,0.8019329,2016-11-16 07:33:47,44.824040048844
9.385271,0.22026655,2.7964275,0.19331998,-0.00550916,0.037472557,0.0,0.95797396,0.020096181,0.2861503,0.001622498,-0.0071183685,-0.0045992136,0.5969771,-0.01626607,0.8011329,2016-11-16 07:33:48,49.4060084333959
9.375694,0.19153613,2.7868507,1.1473575,-0.0018278639,0.09088239,0.0,0.9577474,0.021477705,0.2868077,-0.0010842085,-0.0018943809,-0.002303511,0.59649146,-0.018677555,0.8012255,2016-11-16 07:33:49,50.21719753501024
9.385271,0.21068975,2.8538885,0.073005825,0.0072508976,0.07951956,0.0,0.9573672,0.01924078,0.2882325,0.0042081475,3.7088245E-4,0.0030238032,0.5964096,-0.007050552,0.80220824,2016-11-16 07:33:50,46.63376516126937
9.337387,0.18195933,2.9017725,0.43940654,-0.0024621212,0.032448046,0.0,0.9567363,0.019349802,0.29031226,-0.0038955808,-7.861182E-4,0.0056352913,0.5959389,-0.0020353189,0.8027989,2016-11-16 07:33:51,52.50300229497773
9.3661175,0.22984336,2.8538885,0.11308196,0.009248482,0.024290526,0.0,0.9559485,0.02213,0.2926991,0.0027239919,-5.3001754E-4,0.001390487,0.5944686,-0.012762042,0.8032092,2016-11-16 07:33:52,50.16024879325765
9.3661175,0.19153613,2.8538885,0.035333242,-0.0038862217,-0.06453811,0.0,0.95600754,0.019377949,0.29270104,-3.4940243E-4,1.349356E-4,-0.0012634695,0.5942543,-0.014501214,0.8033532,2016-11-16 07:33:53,52.48066428279425
9.356541,0.20111294,2.8538885,-0.52625376,-0.009358267,-0.024020297,0.0,0.95602804,0.020696308,0.29254407,-0.001311481,-7.345714E-5,-0.0012319386,0.5942949,-0.0077838376,0.80369514,2016-11-16 07:33:54,50.52304952718409
9.3661175,0.18195933,2.9113493,-0.87003374,-0.0022735712,-0.11597671,0.0,0.9553473,0.021852149,0.29467615,0.0033813715,0.0015438404,0.002175033,0.59420997,0.0047529107,0.8042108,2016-11-16 07:33:55,49.10289885343681
9.404425,0.23942018,2.8921957,-0.4987431,-0.0037984478,-0.08638373,0.0,0.9551915,0.020576673,0.29527244,0.0014942288,8.220244E-4,-8.60095E-5,0.5933397,0.0011053937,0.80480516,2016-11-16 07:33:56,46.79784456945167
9.375694,0.20111294,2.920926,0.5295818,-0.006230858,0.04291955,0.0,0.95499754,0.021489976,0.29583406,0.0026986003,0.002851136,0.0011990666,0.59329706,-0.011070102,0.80421746,2016-11-16 07:33:57,51.234491743088384
9.337387,0.21068975,2.9113493,-0.0973503,4.000736E-4,-0.012712764,0.0,0.95475084,0.021218853,0.29664892,-0.0019598603,3.3356622E-4,4.3535233E-4,0.59298843,-0.016382908,0.80401397,2016-11-16 07:33:58,51.881152301992685
9.375694,0.21068975,2.930503,0.3617733,0.0075974027,0.082016654,0.0,0.9545329,0.020109812,0.29742673,0.0022037625,3.739018E-4,5.232394E-4,0.59302664,-0.007308944,0.8047111,2016-11-16 07:33:59,46.821557981686595
9.346964,0.22026655,2.930503,-1.021436,0.0067704716,-0.09285611,0.0,0.9532755,0.021269102,0.30135262,5.120635E-4,0.0011105221,-0.002364844,0.59187394,0.004560923,0.80593604,2016-11-16 07:34:00,50.82830307899115
9.346964,0.20111294,2.930503,0.21109441,0.010515236,0.043573312,0.0,0.95421857,0.021533208,0.2983341,-0.0023750067,-8.8278763E-4,6.0385466E-4,0.5923636,-0.017040072,0.8043892,2016-11-16 07:34:01,47.213868099913476
9.356541,0.23942018,2.9496565,0.14844313,0.012567357,0.017207759,0.0,0.95401216,0.021534922,0.29899344,7.534623E-4,0.0028405413,0.0019431412,0.5919116,-0.01749528,0.8047374,2016-11-16 07:34:02,52.21498338932848
9.3661175,0.2681506,2.9113493,-0.010481098,-0.009269686,-0.005206485,0.0,0.9545959,0.022166867,0.29707786,-8.286238E-4,0.0011548288,2.2947788E-5,0.5923627,-0.01673744,0.8044479,2016-11-16 07:34:03,52.38501063305744
9.32781,0.22026655,2.9400797,-0.47076443,0.0075169876,-0.09067844,0.0,0.95419544,0.020372322,0.2984896,-0.002367556,0.0021148566,0.0014838576,0.59210664,0.006281582,0.8057754,2016-11-16 07:34:04,52.82247361864827
9.375694,0.21068975,2.9783869,-0.85710955,0.010383831,-0.12693654,0.0,0.95466197,0.023617508,0.2967539,0.0020079017,-0.0020646714,4.2653084E-4,0.5922683,-0.008734641,0.8050897,2016-11-16 07:34:06,52.09411879698335
9.346964,0.22984336,2.920926,0.50214213,0.0031312136,0.098615974,0.0,0.9537818,0.021469438,0.29973224,-1.3709068E-5,0.0019590072,-0.0016648173,0.5916777,-0.0070821824,0.80564815,2016-11-16 07:34:07,51.821690677610974
9.337387,0.25857377,2.9496565,0.059971794,0.029931886,0.022137694,0.0,0.9541443,0.022821723,0.29847595,0.002568841,-0.0021709986,0.004423231,0.59158665,-0.014822372,0.8051359,2016-11-16 07:34:08,49.47491487135799
9.375694,0.22026655,2.9592333,0.21063392,0.0063155927,0.058674525,0.0,0.9539614,0.020615123,0.29922006,0.0027822852,0.0017981287,0.002618581,0.59157807,-0.02373381,0.8043688,2016-11-16 07:34:09,51.649984073937645
9.337387,0.24899697,2.9113493,-1.1798646,0.012572935,-0.1496807,0.0,0.95472884,0.020411454,0.29677635,-0.0029230714,0.0019490328,0.0032768846,0.5922051,8.2792115E-4,0.805634,2016-11-16 07:34:10,48.25291164189822
9.3661175,0.22984336,2.9783869,-0.79740036,-0.01289615,-0.06723064,0.0,0.95275307,0.022065729,0.30294347,0.0039018989,3.164895E-4,-0.0027758777,0.59065956,0.0025459782,0.8067832,2016-11-16 07:34:11,53.81121679347535
9.32781,0.2777274,2.9783869,-0.027977467,0.024275357,0.0015262878,0.0,0.9527211,0.023780787,0.30291393,-8.80301E-4,0.004402397,9.4136596E-4,0.5905309,-0.009033203,0.8063364,2016-11-16 07:34:12,46.907116463004144
9.385271,0.20111294,2.96881,-0.021120213,0.0055872537,0.046929356,0.0,0.9527809,0.021754663,0.30287796,0.00590539,0.0026304368,9.5269084E-4,0.5903821,-0.015736185,0.8059752,2016-11-16 07:34:13,50.841602894636665
9.308656,0.20111294,2.9592333,-0.059461065,-0.00667024,-0.016823336,0.0,0.95215124,0.021239929,0.3048883,6.849766E-4,-5.9079006E-4,-1.3297796E-4,0.5900807,-0.015845649,0.80618024,2016-11-16 07:34:14,50.95798484440296
9.394848,0.19153613,3.0071173,-0.25703287,-0.0037931977,-0.04115716,0.0,0.9517529,0.021836692,0.30608743,0.0069132447,-0.0021658372,7.264912E-4,0.58954215,7.324219E-4,0.80753267,2016-11-16 07:34:15,50.50112566544868
9.3661175,0.22026655,2.9879637,0.46438903,0.031862605,0.06957416,0.0,0.95253855,0.023951637,0.30347413,0.0022066832,-5.602706E-4,-0.0014947951,0.5901345,-0.0113518825,0.8064087,2016-11-16 07:34:16,44.028216978897575
9.3182335,0.19153613,3.0071173,0.07505235,-0.0017059055,2.5560526E-4,0.0,0.9524701,0.024086604,0.30367854,-0.0016546845,-0.004523525,0.0032463074,0.5891143,-0.016789883,0.80675745,2016-11-16 07:34:17,49.5195218232663
9.308656,0.20111294,3.0071173,0.06443902,-0.0015032289,0.031476714,0.0,0.9517494,0.021490688,0.30612296,9.036064E-5,8.3306804E-5,-3.2675266E-4,0.589128,-8.9702994E-4,0.80776095,2016-11-16 07:34:18,55.57643704510852
9.337387,0.19153613,2.9975405,0.031238068,-0.0448627,-0.0033041649,0.0,0.949639,0.023680445,0.31244996,0.004144788,-2.3359433E-4,-7.5119734E-4,0.5860313,-0.016088296,0.8090331,2016-11-16 07:34:19,51.46759468435373
9.3182335,0.20111294,3.0262709,0.035551667,0.018335935,0.058995903,0.0,0.9497843,0.024710666,0.31192812,0.0030468106,7.344391E-4,6.698072E-4,0.5868467,-0.012128655,0.8087538,2016-11-16 07:34:20,48.70549730869686
9.270349,0.22026655,3.064578,-0.21878184,0.003432555,-0.04189811,0.0,0.95078653,0.025897417,0.3087627,-9.3507767E-4,-4.2833947E-4,0.0030020773,0.58802325,0.007704948,0.80872995,2016-11-16 07:34:21,40.62946954671104
9.32781,0.23942018,3.083732,0.51988196,0.014079848,0.12018358,0.0,0.95019126,0.021355903,0.31093472,6.853342E-4,0.0039043687,0.004607588,0.5869262,-0.005100728,0.8092257,2016-11-16 07:34:22,49.47786555120504
9.3182335,0.19153613,3.1028855,0.9064592,0.0058667525,0.10096124,0.0,0.94851136,0.020644046,0.31606945,0.0023474097,-0.001005033,4.892945E-4,0.5849686,-0.008208718,0.8104598,2016-11-16 07:34:23,50.350942479043766
9.337387,0.21068975,3.1028855,0.97763604,0.005508285,0.08386802,0.0,0.94959575,0.022643777,0.3126582,0.0022821426,0.002662735,0.0076949894,0.5854633,-0.015046373,0.80961466,2016-11-16 07:34:24,48.76600278663773
9.308656,0.22984336,3.083732,0.84298164,-0.00248221,0.06652882,0.0,0.9482174,0.022629816,0.31681475,0.004536152,-9.625368E-4,8.944273E-4,0.58397406,-0.015641203,0.810539,2016-11-16 07:34:25,49.5793220800934
9.299079,0.2777274,3.122039,-0.060724944,-0.058148883,-0.09131776,0.0,0.9466363,0.023864605,0.3214192,0.0020487905,0.0041500237,-0.0022282004,0.5818577,-0.013145109,0.8123168,2016-11-16 07:34:26,49.38819397948094
9.3182335,0.22984336,3.1890767,0.115143165,0.005591159,-1.7375546E-4,0.0,0.9460767,0.02113823,0.32325235,-7.5519085E-5,0.0030652098,-8.9123845E-4,0.5815311,-0.015150495,0.8124689,2016-11-16 07:34:27,51.58153550720013
9.32781,0.23942018,3.169923,0.23489334,5.5516785E-4,7.364255E-4,0.0,0.94689363,0.023913134,0.3206564,-0.0018737316,-0.0023941826,-0.0012329519,0.5830623,-0.011170601,0.8115617,2016-11-16 07:34:28,50.538258530066415
9.32781,0.24899697,3.1028855,0.48983616,-0.024438579,0.024257448,0.0,0.94556797,0.026916707,0.32430965,0.006152034,-0.0015210137,-0.0074035823,0.5809926,-0.013470944,0.81273687,2016-11-16 07:34:29,51.112778708404335
9.279925,0.22026655,3.1890767,0.21464136,-6.468195E-4,0.056357257,0.0,0.9461579,0.024058273,0.3228104,7.95722E-4,0.0013538301,0.0025395155,0.58157086,-0.014176983,0.8123601,2016-11-16 07:34:30,50.93693712586358
9.289502,0.22026655,3.2082303,-1.1689992,-0.014743835,-0.11905456,0.0,0.94348305,0.023584975,0.33058038,0.002438128,0.0017670449,-0.0040896833,0.57860476,0.0066357316,0.81550765,2016-11-16 07:34:31,46.59217393366265
9.279925,0.24899697,3.2561142,0.22373137,0.01659779,0.0034187522,0.0,0.94374526,0.023200484,0.3298586,2.464652E-4,-0.0015424639,0.004363477,0.57844234,-0.014834431,0.81452537,2016-11-16 07:34:32,50.098638705261976
9.222465,0.22984336,3.2561142,0.041584305,0.02869128,-0.062080164,0.0,0.94366914,0.027309556,0.32976153,-0.002572,-0.0038117226,0.0024071932,0.5789858,-0.0109482845,0.8143931,2016-11-16 07:34:33,50.21366660081003
9.232041,0.22026655,3.2273839,-0.09540318,0.021419697,-0.08206772,0.0,0.9435959,0.02366124,0.3302529,0.0033970475,-1.9748509E-4,0.0057352185,0.57876086,-0.006059411,0.8149323,2016-11-16 07:34:34,50.290432439269786
9.260772,0.21068975,3.323152,-0.16694939,0.019929798,-0.006701541,0.0,0.942341,0.02328985,0.33384287,0.0027213693,-0.003661191,0.004029542,0.57758564,-0.0023289532,0.815989,2016-11-16 07:34:35,55.23824279061806
9.279925,0.23942018,3.265691,0.8772341,-0.0010210316,0.13009587,0.0,0.9416812,0.026070073,0.3354946,0.005220115,1.8489733E-4,7.6425076E-4,0.57636607,-0.0061497274,0.8166063,2016-11-16 07:34:36,53.654785079951964
9.232041,0.2777274,3.2848446,0.06294852,-0.008835834,0.0367554,0.0,0.94193786,0.023522655,0.3349622,9.703636E-5,0.001818547,-0.0016953647,0.576491,-0.017570494,0.8156873,2016-11-16 07:34:37,48.26342805006096
9.251195,0.24899697,3.2848446,0.16680816,-0.012588587,0.034177933,0.0,0.9422708,0.026296139,0.33381745,0.0017049313,-8.5377134E-4,0.0014345944,0.576491,-0.016005648,0.81568134,2016-11-16 07:34:38,48.08212112692459
9.232041,0.19153613,3.3614593,0.39939335,0.030409269,0.03614376,0.0,0.9404168,0.023712665,0.33919594,0.004617572,5.628299E-4,-0.0012250841,0.5751599,-0.018334134,0.81648695,2016-11-16 07:34:39,45.215474400076246
9.212888,0.21068975,3.3518825,-1.1723211,-0.01643261,-0.10985003,0.0,0.9402046,0.024036145,0.33976105,0.0037541986,0.0031743646,-0.0015175939,0.57391787,0.0016558424,0.81867903,2016-11-16 07:34:40,52.47299894860062
9.232041,0.23942018,3.3614593,0.8321388,0.006613921,0.07990873,0.0,0.9402869,0.026075723,0.33938277,0.0037269592,3.1065568E-4,0.0016287863,0.574623,-0.008320505,0.81764704,2016-11-16 07:34:41,48.19952375045921
9.260772,0.25857377,3.4380736,0.19847897,0.03488294,0.0037868964,0.0,0.9385186,0.026057849,0.34424412,0.006521225,2.0952895E-4,0.006417066,0.57299334,-0.01310651,0.81844884,2016-11-16 07:34:42,44.226868381396386
9.212888,0.24899697,3.4093432,-0.0019352697,-0.0074298154,0.037811622,0.0,0.9380648,0.025037114,0.34555382,0.004972577,-0.0015564915,0.004249364,0.5717215,-0.015938008,0.81907463,2016-11-16 07:34:43,50.12310903612682
9.222465,0.2777274,3.4093432,0.1023997,0.020606443,-0.0023762228,0.0,0.9374176,0.027868763,0.34709018,8.3464384E-4,-0.0014525447,0.006349176,0.57172704,-0.012980271,0.8192633,2016-11-16 07:34:44,48.0221309806409
9.222465,0.2873042,3.4476504,0.7508849,0.007996251,0.07258401,0.0,0.93754095,0.026407393,0.34687126,0.0035501719,0.0027951915,0.00487563,0.5712517,-0.008839779,0.81995684,2016-11-16 07:34:45,49.80769645587089
9.222465,0.2681506,3.4093432,0.08719162,0.0027679084,0.03704699,0.0,0.9369882,0.02608503,0.34838602,0.0011962056,-5.8401935E-4,0.004255742,0.57074636,-0.009011732,0.8202866,2016-11-16 07:34:46,50.25010251525381
9.155427,0.24899697,3.4284968,0.078170866,0.02488551,0.029227119,0.0,0.93631124,0.02628714,0.3501861,-0.002003193,-9.1762654E-4,-5.5235624E-4,0.57056445,-0.01660605,0.8197495,2016-11-16 07:34:47,46.83778111905316
9.203311,0.25857377,3.41892,-0.27503535,0.007807603,-0.31272307,0.0,0.9364674,0.02564253,0.34981593,7.265806E-4,0.0025700293,0.0028778315,0.56983554,0.0028575927,0.8215498,2016-11-16 07:34:48,47.460639429204406
9.174581,0.25857377,3.4380736,0.2542407,0.048601676,0.13883626,0.0,0.9337767,0.024153335,0.35704035,0.002461791,0.0013480987,-0.002462238,0.5680813,-0.0042074434,0.8224869,2016-11-16 07:34:49,48.389126173941165
9.222465,0.25857377,3.5051112,0.7548604,-0.0024009235,0.06975053,0.0,0.93552583,0.0258885,0.35230866,0.002594471,5.230941E-4,-4.671216E-4,0.56904185,-0.00827291,0.82153714,2016-11-16 07:34:50,53.249176308148634
9.184157,0.22984336,3.4763808,0.24995796,-0.005793372,0.073424414,0.0,0.9351254,0.027012395,0.35328567,0.0020897388,-0.0034373011,0.0012888312,0.5686113,-0.0142325815,0.82126975,2016-11-16 07:34:51,52.766736577531965
9.155427,0.24899697,3.5434184,0.17077282,0.010354032,0.060776927,0.0,0.9333059,0.02783209,0.35800186,-5.865097E-5,-4.7338568E-4,-0.0013071895,0.5665902,-0.012418818,0.8228257,2016-11-16 07:34:52,49.9853744201193
9.184157,0.25857377,3.5625722,-0.007568435,0.006298409,0.021456089,0.0,0.9328491,0.028245898,0.3591585,0.008216023,0.0010169689,0.002426356,0.5661201,-0.009415255,0.823347,2016-11-16 07:34:53,49.217588843677085
9.165004,0.2873042,3.5913026,-0.16435036,-0.0076767355,-0.16718404,0.0,0.9321726,0.028284166,0.36090755,0.0020013452,0.0019876007,-0.0040811,0.56502956,-0.011022212,0.8239948,2016-11-16 07:34:54,54.475737242342134
9.184157,0.2873042,3.5434184,-0.03547786,-0.009831607,0.033345465,0.0,0.9318456,0.026545955,0.36188248,4.374385E-4,7.61671E-4,0.0035769343,0.5648294,0.0039290716,0.824998,2016-11-16 07:34:55,50.3931700350977
9.155427,0.22984336,3.5817258,-0.19717097,-0.03838165,-0.05458077,0.0,0.9285546,0.024006484,0.3704186,0.0056770444,-3.9467402E-4,-0.004957974,0.5619452,-0.011496666,0.8261462,2016-11-16 07:34:56,46.89141488801895
9.126697,0.29688102,3.6104562,0.10558991,0.010881811,0.019250527,0.0,0.9296473,0.026595866,0.36748943,7.150769E-4,0.0025324505,8.26776E-4,0.56237257,-0.0074091754,0.8261531,2016-11-16 07:34:57,43.48449968789435
9.174581,0.22026655,3.620033,-1.3497204,-0.01661887,-0.2194595,0.0,0.92930454,0.028304704,0.36822835,0.0019909143,5.90235E-5,0.0011614561,0.5621778,7.117861E-4,0.8266707,2016-11-16 07:34:58,50.895334482434
9.097966,0.24899697,3.6487634,0.6938602,0.032310963,0.046882324,0.0,0.92963845,0.027256796,0.36746368,-0.0012052655,-0.0018235892,0.0046821535,0.56240934,-0.01021824,0.8258806,2016-11-16 07:34:59,48.06800647703294
9.11712,0.2777274,3.6487634,0.060996667,0.024642441,0.027228048,0.0,0.9270503,0.023467649,0.3742018,0.0023426414,-0.001911087,0.0038523376,0.5596158,-0.012801679,0.8276663,2016-11-16 07:35:00,57.47198225637247
9.126697,0.2777274,3.6870706,0.02372465,-9.225281E-4,0.08989404,0.0,0.9267217,0.027148804,0.3747665,0.0035860538,2.5588088E-4,5.1113963E-4,0.55887437,-0.0122752,0.8280899,2016-11-16 07:35:01,49.91171757788233
9.14585,0.22984336,3.6774938,0.09613183,0.0034495364,-0.01760015,0.0,0.9266635,0.027271122,0.3749015,0.0036780834,-0.0018319469,0.0051793754,0.55872446,-0.008039977,0.82852316,2016-11-16 07:35:02,47.890988698443195
9.136273,0.22026655,3.6966474,-0.017384237,0.0050512487,0.021843627,0.0,0.92591554,0.025845114,0.37684536,0.0025197864,-0.0032165125,0.0040863156,0.5587728,-0.0073354007,0.828554,2016-11-16 07:35:03,53.89682550653613
9.088389,0.25857377,3.7349546,-1.1948147,-0.018423827,-0.17232214,0.0,0.92455935,0.025084889,0.38021132,0.0057762265,-6.559808E-4,0.0018417835,0.5568905,0.007572296,0.8304668,2016-11-16 07:35:04,53.19697681809803
9.088389,0.25857377,3.7924154,-0.45461038,0.0064828503,0.051342566,0.0,0.92233145,0.025941135,0.38552785,0.00313133,0.0033236016,4.0632486E-4,0.5543665,-0.004654706,0.83173835,2016-11-16 07:35:05,49.6228864783194
9.078813,0.2777274,3.8307228,0.5416877,-0.020729838,0.04047411,0.0,0.92253447,0.026864951,0.3849786,0.0028725863,-0.0014026333,0.0020591617,0.5540041,-0.003760479,0.83199036,2016-11-16 07:35:07,48.9055431659422
9.059659,0.29688102,3.8019924,0.05748447,-0.011961519,0.008489773,0.0,0.9219967,0.026846763,0.38626584,0.005337417,0.005259244,-1.2648106E-4,0.5536976,-0.0117339995,0.83156645,2016-11-16 07:35:08,50.755974588758974
9.040505,0.22026655,3.8307228,0.09858301,-0.0020069643,-0.044763234,0.0,0.92100704,0.027206464,0.38859466,0.006357789,-0.0037004836,3.888011E-4,0.55308384,0.0067746276,0.832979,2016-11-16 07:35:09,45.379039000991924
9.097966,0.24899697,3.8881836,-0.5418954,-0.027381223,-0.035081133,0.0,0.9193771,0.024586853,0.39260843,0.0030724406,-9.610318E-5,-0.0016025007,0.5508665,-0.0067987796,0.83390063,2016-11-16 07:35:10,46.54373662978678
9.021352,0.29688102,3.8307228,-0.034953035,0.0017168487,-0.01712343,0.0,0.91997373,0.027458355,0.39101714,0.004456699,1.0165945E-4,0.0018711686,0.5518624,0.004547836,0.8337143,2016-11-16 07:35:11,53.43140716792333
9.040505,0.23942018,3.8594532,0.0842846,0.009311514,0.1664222,0.0,0.92027485,0.025641479,0.39043137,0.0042223334,8.446891E-4,0.005238712,0.55216825,0.0026436045,0.83347636,2016-11-16 07:35:12,48.611473359954765
9.069236,0.25857377,3.8498764,0.16768327,0.01943825,0.0606215,0.0,0.92068636,0.025169445,0.38949093,-0.0010542274,-0.0016210862,0.008084089,0.5522381,-0.0061895787,0.83301765,2016-11-16 07:35:13,52.31379177339398
9.050082,0.24899697,3.8881836,0.68038356,0.0198835,0.07436249,0.0,0.91921675,0.02723801,0.3928087,3.7515163E-4,0.0019183047,0.0039018393,0.5506947,-0.0075031053,0.83389,2016-11-16 07:35:14,48.27918834965182
9.069236,0.22984336,3.8019924,0.31846315,2.8281967E-4,0.031169295,0.0,0.9184377,0.02554749,0.3947397,0.0040699244,0.0038461927,0.0010150969,0.55017555,-0.008662694,0.8341429,2016-11-16 07:35:15,44.90034632399038
9.040505,0.25857377,3.8786068,-1.0146359,-0.016586035,-0.13760756,0.0,0.918289,0.026528534,0.39502096,0.0022887588,0.003706023,0.0016628504,0.54973406,0.007037859,0.835193,2016-11-16 07:35:16,51.17106760262226
9.030929,0.25857377,3.964798,0.0018860511,0.014056427,0.00677312,0.0,0.91696846,0.0267726,0.39806038,0.0025659204,-0.003175376,-2.6020408E-4,0.54873234,-0.009527743,0.8350583,2016-11-16 07:35:17,46.29094935974842
9.040505,0.23942018,3.8881836,0.5283134,0.013137329,0.087765485,0.0,0.91690844,0.028237581,0.3980973,0.005578637,-0.0036924183,-0.0013209879,0.5486285,-0.006728278,0.8352718,2016-11-16 07:35:18,52.862708191450814
9.021352,0.2681506,3.86903,-1.1673961,-0.02087123,-0.15034258,0.0,0.91684777,0.025727196,0.39840707,0.0036605597,5.911067E-4,3.9184093E-4,0.548772,-0.0062780227,0.83529574,2016-11-16 07:35:19,52.91835823900441
9.040505,0.23942018,3.9743748,-0.552201,-0.016337695,-0.056373,0.0,0.9164756,0.02615889,0.3992346,0.0030296445,0.0029319804,0.002565831,0.5478926,-0.006613238,0.8358879,2016-11-16 07:35:20,46.25594770657544
9.011775,0.2681506,3.9456444,-0.0022637376,0.007378275,-0.0021631424,0.0,0.9155344,0.026573751,0.40136117,0.0069617033,-0.0012318995,0.0012703538,0.5471754,-0.013714859,0.835728,2016-11-16 07:35:21,45.017456389236855
9.002198,0.2681506,3.964798,-0.0724762,-0.015014474,-0.02681391,0.0,0.91533875,0.026057027,0.40184063,0.0032000542,-0.0035031587,-8.5800886E-5,0.5466203,-0.013961985,0.8360587,2016-11-16 07:35:22,49.59561200460925
9.040505,0.25857377,3.964798,-0.23545548,-0.013742308,-0.048915394,0.0,0.9152674,0.025720024,0.40202487,0.004305184,6.0026534E-4,5.874932E-4,0.5464119,-0.010758128,0.83649904,2016-11-16 07:35:23,46.265935678297595
9.021352,0.23942018,3.9743748,0.2678795,0.0056550396,0.023009779,0.0,0.9144304,0.026747892,0.40385824,0.0012513995,-0.0022979341,-0.0012921989,0.5460884,-0.01374579,0.8364063,2016-11-16 07:35:24,45.02061326671945
9.002198,0.25857377,3.916914,-0.81296754,-0.0067700725,-0.043181106,0.0,0.9141313,0.025162652,0.4046368,0.009369731,0.0020757746,0.0037985146,0.5459689,0.0018023466,0.8375702,2016-11-16 07:35:25,52.83941995155351
8.992621,0.2777274,3.9552212,-0.58923626,-0.009857439,-0.14329264,0.0,0.9151288,0.026606446,0.40228263,0.0043764114,-0.0013358276,-0.0014666617,0.5462092,-0.008539689,0.8367825,2016-11-16 07:35:26,49.5846892566835
9.002198,0.23942018,3.9935284,-0.083983645,0.013100626,-0.024960417,0.0,0.9143358,0.02731312,0.4040348,0.00609076,9.3150325E-4,0.001790762,0.5451993,-0.0173752,0.8365884,2016-11-16 07:35:27,48.72230992660987
8.963891,0.2681506,4.0318356,-0.012638639,-0.007585562,-0.0057491814,0.0,0.9129498,0.026598856,0.40720397,0.0027053952,8.580107E-4,0.003235072,0.5438791,-0.0149060795,0.8376841,2016-11-16 07:35:28,52.363883408416925
8.963891,0.31603462,3.9456444,0.36525,-0.008712756,0.07719246,0.0,0.91507864,0.030055331,0.40215376,5.5241585E-4,-0.0044570044,0.0034462512,0.5457065,-0.018206082,0.8358797,2016-11-16 07:35:29,52.93058667899753
8.954314,0.2777274,3.9552212,-0.18312064,2.997485E-5,-0.024032177,0.0,0.9134856,0.02747067,0.40594277,0.0011991262,-0.004907869,0.0015498698,0.5446667,-0.018263286,0.83675814,2016-11-16 07:35:30,45.17107033395984
9.011775,0.31603462,4.098873,-0.085862376,-0.0027406784,-0.0135499425,0.0,0.9133545,0.027630398,0.40622666,0.0013392568,-1.7128512E-4,0.0031992197,0.5447752,-0.0100276135,0.8375137,2016-11-16 07:35:31,54.18294553763236
8.983045,0.30645782,4.0222588,0.08890815,-0.0010632792,-0.011207295,0.0,0.9131471,0.026786666,0.4067491,0.007392943,-3.41665E-4,0.001740694,0.5444197,-0.008102748,0.83793426,2016-11-16 07:35:32,52.06372676350078
8.983045,0.23942018,4.012682,-0.17400882,0.0049615297,-0.061026808,0.0,0.9123668,0.027688332,0.40843615,0.0042942762,-0.0031355266,9.5918775E-4,0.5440211,-0.0040264702,0.83844626,2016-11-16 07:35:33,48.690494538723485
8.963891,0.22984336,4.060566,-1.0984488,-0.012450989,-0.124711744,0.0,0.9126432,0.029808315,0.40766883,0.0020133257,-0.0013444778,-1.1622906E-4,0.54380035,0.007434273,0.8390169,2016-11-16 07:35:34,50.07973301218047
8.944737,0.25857377,4.0701427,-1.6055036,-0.010171665,-0.12732494,0.0,0.9098065,0.026162466,0.4142072,0.0029129386,2.568178E-4,0.0011307895,0.5413732,0.015011671,0.8406478,2016-11-16 07:35:35,48.942242824269115
8.963891,0.31603462,4.0222588,0.27846777,0.007284159,0.02452313,0.0,0.91196835,0.032822896,0.40894553,0.001801014,-0.0044215713,-0.0015898943,0.54392,-0.007388028,0.8381556,2016-11-16 07:35:36,57.09502845842013
8.916007,0.2681506,4.175488,-0.04620386,0.0019352895,-0.03173977,0.0,0.9068362,0.028673314,0.42050672,0.003066659,-0.0012214184,0.005328208,0.5387298,-0.0045314236,0.84179807,2016-11-16 07:35:37,56.270859332576116
8.90643,0.2777274,4.2521024,0.038588595,0.0078014163,0.02703174,0.0,0.9033951,0.030032968,0.42775616,0.0054351687,-0.0036260765,0.004152894,0.5352769,-0.0073749064,0.8437351,2016-11-16 07:35:38,56.31905582782598
8.8777,0.25857377,4.2904096,0.16067328,0.012607074,0.0630929,0.0,0.8997603,0.02680661,0.43556026,0.006144583,-4.138425E-4,0.0022007525,0.5315994,-0.008164123,0.8460536,2016-11-16 07:35:39,42.16529971788711
8.839393,0.30645782,4.309563,-0.36465985,-0.012798195,-0.07810951,0.0,0.8988953,0.029557195,0.4371655,0.0069776177,-1.3711117E-4,0.001632154,0.53038174,-0.0,0.8472735,2016-11-16 07:35:40,50.660435577071254
8.868123,0.2777274,4.357447,-0.22892426,-0.018074708,-0.19646206,0.0,0.89826673,0.030157927,0.43841472,0.005640626,-0.002708096,0.001383841,0.52999353,0.0037782684,0.847716,2016-11-16 07:35:41,38.233137572772776
8.801085,0.24899697,4.3861775,0.42015964,0.036855813,0.124001496,0.0,0.8975053,0.028182061,0.4401023,7.1138144E-4,-0.0025078133,0.0071507394,0.52941614,-0.008033488,0.8473603,2016-11-16 07:35:42,49.39671956821683
8.810662,0.2873042,4.405331,0.12838908,0.017677302,-0.047959257,0.0,0.8966757,0.030478498,0.4416376,4.6241283E-4,0.0016046762,0.0019417703,0.5291436,-0.00317852,0.8479076,2016-11-16 07:35:43,47.049532050818044
8.810662,0.29688102,4.3478703,0.042397562,-0.0069725947,0.014636151,0.0,0.89621127,0.03132941,0.44251975,0.0028441548,3.4768134E-5,0.0011169612,0.5279867,-0.005888548,0.84832704,2016-11-16 07:35:44,51.280985743223624
8.820239,0.29688102,4.31914,0.6001043,0.0031146156,0.061236706,0.0,0.8954891,0.031217987,0.44398728,0.0016623139,-0.0027892217,0.0024798214,0.5275094,-0.003978069,0.8487758,2016-11-16 07:35:45,49.614928574755425
8.829816,0.2873042,4.414908,0.24126136,0.008099485,0.038825892,0.0,0.8949465,0.030213669,0.44514933,0.006061852,9.0515986E-4,0.004370928,0.526255,-0.008060339,0.849271,2016-11-16 07:35:46,55.964093509606876
8.791509,0.2873042,4.3861775,-0.001297548,-0.016811136,-0.037610564,0.0,0.8946163,0.030305436,0.44580644,0.004376769,-9.621959E-4,-0.0020394921,0.5263661,-0.007416211,0.84923816,2016-11-16 07:35:47,51.35713562408288
8.772355,0.2777274,4.3861775,0.74010026,0.009340047,0.05112243,0.0,0.8940774,0.03100032,0.44683838,0.0030489564,-0.0026262663,-3.1626225E-4,0.5264911,-6.224389E-4,0.84965134,2016-11-16 07:35:48,49.52457000184951
8.772355,0.30645782,4.4244847,-0.07176411,-0.014181988,-0.029165244,0.0,0.89319426,0.029745428,0.44868603,0.0019391179,0.0024448894,0.0028054118,0.52468044,-0.0077521857,0.8502649,2016-11-16 07:35:49,49.737238389873525
8.7532015,0.2873042,4.462792,-0.36555874,0.021967258,-0.10505159,0.0,0.892167,0.028359495,0.45081463,0.0010948181,8.947253E-4,0.00442186,0.5244248,0.0055377423,0.85123885,2016-11-16 07:35:50,47.936116320060066
8.781932,0.31603462,4.4436383,-0.69778156,0.003828351,-0.07265265,0.0,0.89235437,0.033381075,0.45009917,0.003809154,-0.0020827018,0.0022586584,0.5241046,0.005698213,0.85136384,2016-11-16 07:35:51,54.4202392900917
8.7532015,0.31603462,4.4915223,-0.21410868,0.011531391,-0.15736711,0.0,0.89127505,0.03002101,0.45246813,0.0028820038,-0.0016194414,-9.387732E-6,0.52315676,-0.004033865,0.8515012,2016-11-16 07:35:52,48.599542102436345
8.762778,0.31603462,4.4819455,0.6613563,0.01303958,0.057155643,0.0,0.8911258,0.030398684,0.45273712,0.0030602217,0.001949897,0.0045486093,0.5232607,-0.004627415,0.8513311,2016-11-16 07:35:53,49.52980015811238
8.829816,0.29688102,4.510676,0.09700529,0.01028355,0.08148848,0.0,0.8905762,0.030451812,0.45381358,0.0036759973,7.312279E-4,0.005309373,0.5226364,-0.0030857483,0.8518512,2016-11-16 07:35:54,49.4469736042536
8.7532015,0.25857377,4.4819455,0.22262871,0.0089763645,0.050848216,0.0,0.88983536,0.030896876,0.4552345,0.005339384,0.0022363365,0.002041936,0.5219733,-0.0033895127,0.85225874,2016-11-16 07:35:55,45.10748928817938
8.7532015,0.2873042,4.510676,-0.52084446,-0.0022957255,-0.09456528,0.0,0.88890755,0.03200709,0.45696715,0.0043069124,-7.1397424E-4,0.0032447577,0.5213651,-0.0057411995,0.85237795,2016-11-16 07:35:57,52.55251543856847
8.772355,0.29688102,4.4723687,-0.004091461,-0.0034436705,-0.023750588,0.0,0.8895055,0.03262015,0.4557585,0.004721403,0.0034923702,0.0063438118,0.52111995,-0.0073120017,0.852378,2016-11-16 07:35:58,46.36929906161902
8.772355,0.30645782,4.501099,-0.4509277,0.0053856494,-0.07837508,0.0,0.8889512,0.031668086,0.45690587,0.005227506,-0.004245091,0.00332883,0.5210287,-1.7263349E-4,0.85296136,2016-11-16 07:35:59,51.72758965594704
8.772355,0.31603462,4.462792,-1.0181493,-0.008508349,-0.18004785,0.0,0.887862,0.03271964,0.45894495,0.0072372556,-3.4046546E-4,-0.0025146902,0.52070874,0.008960327,0.853528,2016-11-16 07:36:00,49.39765272729087
8.762778,0.2681506,4.4915223,-0.027377743,0.0066412673,-0.047489736,0.0,0.88908875,0.03170916,0.45663518,0.007031381,-0.0051420536,0.0036162138,0.52137864,0.0044367146,0.8529926,2016-11-16 07:36:01,48.99448608498248
8.695741,0.30645782,4.55856,1.1164213,0.018905934,0.16966505,0.0,0.88820946,0.031783365,0.45833793,-7.9888105E-4,-4.925318E-4,0.0066452026,0.5205469,-0.0014024811,0.8532055,2016-11-16 07:36:02,54.887524649867885
8.762778,0.31603462,4.5298295,-0.69886273,-0.0016861212,-0.24251094,0.0,0.8864918,0.029581629,0.46179783,0.0037891269,7.1825273E-4,0.0052600503,0.51866686,0.006473181,0.8547612,2016-11-16 07:36:03,56.854173237306924
8.743625,0.32561144,4.5777135,-0.89448535,7.276434E-4,-0.112843454,0.0,0.8859599,0.033395093,0.46255797,0.006300211,-1.4065206E-4,0.0044513345,0.5185071,0.009812054,0.8548794,2016-11-16 07:36:04,46.57764749178416
8.695741,0.31603462,4.55856,-0.65211785,0.015983861,-0.20208192,0.0,0.8856018,0.03104237,0.46340662,0.0037339926,-7.975362E-4,6.622374E-4,0.5181552,0.007128321,0.8550726,2016-11-16 07:36:05,49.622458654541035
8.743625,0.2873042,4.5872903,0.8598806,4.758673E-4,0.132067,0.0,0.88528246,0.03277345,0.46389738,0.003922403,-0.0014800355,4.1651726E-4,0.51737976,-0.0015148529,0.8550847,2016-11-16 07:36:06,43.84947556029079
8.686164,0.29688102,4.5872903,0.36191148,0.0021955832,0.19936356,0.0,0.88516706,0.03360072,0.46405843,0.0040798187,-0.0023606531,0.0011564791,0.5175853,-0.0016737438,0.854902,2016-11-16 07:36:07,40.94511379667264
8.724471,0.29688102,4.596867,-1.2219443,-0.014691058,-0.19863276,0.0,0.88422745,0.030516181,0.46605834,0.0021473765,6.4955465E-4,0.0029565692,0.5163118,-0.0022706392,0.85575855,2016-11-16 07:36:08,47.0817914500548
8.695741,0.2873042,4.5777135,-0.6727112,-0.02609894,-0.079372935,0.0,0.8847219,0.032333627,0.46499646,0.0034813285,-0.0045560338,3.1396747E-4,0.5168353,-0.0053293165,0.8550852,2016-11-16 07:36:09,47.11938270629964
8.695741,0.34476504,4.606444,0.7980622,0.009991228,0.13470037,0.0,0.88382804,0.031131834,0.46677485,0.0064127445,0.0020118747,0.0023199916,0.51634026,-0.006470878,0.8553579,2016-11-16 07:36:10,53.65521795833694
8.714894,0.32561144,4.5298295,-0.12770298,-0.004930829,-0.035305936,0.0,0.88399965,0.035901017,0.4661069,0.005183935,1.9473955E-4,-0.0017471313,0.51631147,0.005776132,0.8560404,2016-11-16 07:36:11,43.381415325255254
8.6574335,0.30645782,4.596867,0.8832938,0.016221555,0.15455918,0.0,0.8832532,0.031412,0.46784285,0.006006658,9.459108E-4,0.0032005012,0.5163667,-0.0034526698,0.85554045,2016-11-16 07:36:12,46.93220801390848
8.695741,0.2777274,4.644751,-0.06920489,0.0047588586,-0.04029639,0.0,0.88165325,0.031691104,0.47083262,0.0057156086,-0.0031856988,0.0030198693,0.5143984,-0.005216275,0.8566165,2016-11-16 07:36:13,44.322719504275845
8.66701,0.32561144,4.6255975,0.09914953,0.0011150433,0.015712922,0.0,0.8828556,0.03189803,0.46856,0.0034980178,-6.3536316E-4,4.889667E-4,0.5153688,-0.008829659,0.855686,2016-11-16 07:36:14,48.936153779314395
8.63828,0.31603462,4.606444,-0.72329235,-0.01914359,-0.11514878,0.0,0.88214654,0.031830896,0.46989816,0.0050964355,0.0014022067,-6.851554E-4,0.51467377,2.9901E-4,0.8567881,2016-11-16 07:36:15,48.0755436343896
8.676587,0.36391866,4.6351743,0.6339278,0.01520021,0.057764538,0.0,0.88122416,0.03405811,0.47147012,0.0032085776,0.0020075925,0.005340457,0.5143202,-0.0020499092,0.8568701,2016-11-16 07:36:16,51.597488882127905
8.619126,0.30645782,4.673482,0.22481799,0.018504664,0.018529898,0.0,0.88011676,0.03029407,0.47378987,0.0051635504,0.0019614622,0.0022777915,0.51231927,-0.0071990443,0.85772043,2016-11-16 07:36:17,50.87799838270074
8.647857,0.32561144,4.6926355,-0.35899627,-0.029144933,-0.11339136,0.0,0.8787666,0.037203655,0.47579938,0.003673792,-0.0038621463,0.0010662079,0.5117045,0.009056268,0.8588787,2016-11-16 07:36:18,49.37096557458881
8.619126,0.33518824,4.673482,0.09875424,-0.014638457,0.0101411585,0.0,0.8784877,0.031951256,0.47669542,0.002996862,0.002184622,-0.001810044,0.5114696,-0.005724304,0.8583314,2016-11-16 07:36:19,47.342289264633386
8.619126,0.31603462,4.673482,-0.22463828,-0.012937373,-0.015586995,0.0,0.87846446,0.035043024,0.47652093,0.003954828,-9.0779364E-4,0.0023521185,0.51128894,-0.0058542867,0.85826516,2016-11-16 07:36:20,50.40977636960463
8.63828,0.30645782,4.7500963,0.71549416,0.0052597853,0.12726827,0.0,0.87609124,0.03237526,0.48105708,0.0014426112,-0.0030392408,7.3978305E-4,0.5092116,-0.0025224583,0.8598971,2016-11-16 07:36:21,49.48667045006019
8.6095495,0.32561144,4.7022123,-0.93301785,-0.010658858,-0.13398428,0.0,0.8763206,0.03415194,0.4805161,0.0022358894,-9.247586E-4,-7.5545907E-4,0.509772,0.013446586,0.86014044,2016-11-16 07:36:22,50.25615914913398
8.628703,0.34476504,4.7405195,-0.15576242,0.0057814885,0.03227506,0.0,0.8766729,0.034360345,0.47985837,0.003872037,-1.2758002E-4,0.005701661,0.5100512,0.007094796,0.8598703,2016-11-16 07:36:23,50.07841667679173
8.628703,0.33518824,4.721366,0.09042456,-0.009590975,0.18260244,0.0,0.8762915,0.0330575,0.48064572,0.0041635633,0.0012188666,0.0011663735,0.5093835,0.0066771456,0.8602283,2016-11-16 07:36:24,48.83543655835885
8.628703,0.32561144,4.7788267,0.17179535,0.030899176,0.009115931,0.0,0.87466645,0.03012853,0.48378822,0.005837202,0.001141347,0.0028271675,0.5082951,-0.0030247832,0.8604673,2016-11-16 07:36:25,48.764626397509254
8.619126,0.29688102,4.76925,0.04949954,-0.053751078,-0.00430289,0.0,0.8710885,0.031521965,0.49011347,0.008303404,-0.0030013714,-0.002292782,0.50510573,-0.0050390055,0.86209226,2016-11-16 07:36:26,45.44731232763694
8.542512,0.31603462,4.76925,0.070157185,-0.025323622,0.025952648,0.0,0.8729213,0.033090655,0.48673746,-0.0012528896,-8.5517764E-4,-4.8965216E-5,0.5064558,-0.003270938,0.86142766,2016-11-16 07:36:27,51.292802457620695
8.6095495,0.40222588,4.7500963,0.69353074,0.009095772,-0.06930243,0.0,0.87251294,0.03517063,0.48732355,0.0021582842,-9.034872E-4,0.003140986,0.50652283,0.012092973,0.8620202,2016-11-16 07:36:28,43.767067622057105
8.504205,0.36391866,4.817134,-0.92969847,-0.0018887101,-0.11536967,0.0,0.8726052,0.034716498,0.4871908,2.69413E-5,4.8668683E-4,0.0014739633,0.5054926,0.0133799305,0.86263174,2016-11-16 07:36:29,55.73025627014039
8.542512,0.33518824,4.8458643,0.8438028,0.034862254,0.12774168,0.0,0.87016064,0.033929016,0.49159878,0.0016570687,-0.0016222075,0.0045924783,0.50447226,2.7295752E-4,0.862812,2016-11-16 07:36:30,51.66241968865897
8.571242,0.33518824,4.8362875,-0.54073715,-0.0043585747,-0.04581603,0.0,0.8703387,0.034076527,0.49127322,0.0023539066,0.0020524114,0.0011963546,0.504612,0.0074971453,0.86304796,2016-11-16 07:36:31,48.33862971979541
8.580819,0.35434186,4.8745947,0.030264158,0.020927599,0.010747153,0.0,0.8690767,0.034352943,0.49348316,0.0036857128,-0.001037918,0.0076506436,0.50314945,0.002799645,0.86365986,2016-11-16 07:36:32,51.0694290671522
8.552089,0.33518824,4.865018,0.57423323,-0.0024233568,0.033162944,0.0,0.8676882,0.03326733,0.49599433,0.004990816,-8.616112E-4,3.9586425E-4,0.50231874,3.45267E-4,0.86406535,2016-11-16 07:36:33,47.93735949006113
8.465898,0.33518824,4.8841715,-0.9073334,-0.011657437,-0.13878456,0.0,0.866459,0.03329384,0.49813676,-0.0025433898,7.7454746E-4,1.7276406E-4,0.50068146,0.013237737,0.8654747,2016-11-16 07:36:34,50.24058971461507
8.485051,0.29688102,5.0182467,0.43468684,0.018266182,0.05867399,0.0,0.8668588,0.033611942,0.49741942,0.00687325,0.0014786571,0.0056961775,0.50121105,-0.0010641845,0.86461234,2016-11-16 07:36:35,43.215941158031356
8.571242,0.32561144,4.903325,-0.21610266,-0.0135063855,-0.05365847,0.0,0.8655827,0.03464371,0.4995663,0.004156947,-0.0024664775,0.0017391443,0.50041896,-0.0011580606,0.86501867,2016-11-16 07:36:36,47.489990509551035
8.513782,0.33518824,4.8937483,0.12828769,0.005227268,0.024498234,0.0,0.8666649,0.032909878,0.49780414,0.002061665,0.001330398,0.0016019344,0.5011151,-0.0050552445,0.86434674,2016-11-16 07:36:37,48.96168176567511
8.523358,0.30645782,4.9224787,-0.2532559,0.005728084,-0.22643593,0.0,0.86441123,0.032151118,0.5017563,0.004357457,0.002847474,0.0024766922,0.49935797,0.008248557,0.86617255,2016-11-16 07:36:38,44.54693211426385
8.523358,0.34476504,4.8937483,-0.6859071,-0.018518304,-0.1572242,0.0,0.86489654,0.035083424,0.50072277,0.0018815994,0.0010909438,-0.0013260841,0.49947312,0.010038752,0.8660803,2016-11-16 07:36:39,50.059050818923424
8.504205,0.30645782,4.9224787,-0.19305088,-0.00528918,-0.055057537,0.0,0.8656084,0.03332129,0.49961156,0.002208352,0.0037599988,6.605685E-4,0.5004678,-8.544922E-4,0.8650233,2016-11-16 07:36:40,50.7467833308815
8.485051,0.34476504,4.9416323,-0.6888258,-0.009027148,-0.0810115,0.0,0.86477995,0.03267417,0.5010869,0.0010749102,0.0042203255,1.8769503E-4,0.4991563,0.01268592,0.86633664,2016-11-16 07:36:41,47.26910027802613
8.494628,0.34476504,4.9224787,0.051048085,0.010130297,0.027319092,0.0,0.863503,0.03343028,0.50323457,0.0061944723,-0.0029813629,0.0030144453,0.49853805,-1.7263349E-4,0.86619484,2016-11-16 07:36:42,50.95548328892207
8.485051,0.38307226,4.999093,0.10774085,-3.4297886E-4,0.011068263,0.0,0.8612274,0.035402067,0.5069854,0.00456357,-0.0013145767,-0.0026769638,0.49722096,-0.0023353428,0.86673546,2016-11-16 07:36:43,49.61832717295171
8.513782,0.36391866,4.960786,-0.7556149,-0.024781387,-0.08092089,0.0,0.8635954,0.03364442,0.5030615,0.004099965,-2.9874593E-4,0.0013169646,0.49818313,0.0048690606,0.8666811,2016-11-16 07:36:44,42.937346673954444
8.475474,0.37349546,4.960786,0.53767705,0.021331234,-0.01866799,0.0,0.86411387,0.035557877,0.50203884,7.0625544E-4,-0.0013938062,2.9933453E-4,0.49864915,0.0056245145,0.86642444,2016-11-16 07:36:45,50.02072917929415
8.475474,0.32561144,4.9703627,1.9405117,0.018146645,0.40171912,0.0,0.8621414,0.03491201,0.50546366,0.005616188,-0.00258914,0.0027198792,0.497062,0.003229677,0.8672404,2016-11-16 07:36:46,52.399130496587745
8.513782,0.35434186,4.9895163,0.670447,0.00497979,0.27550244,0.0,0.86162835,0.03621072,0.50624645,0.0052084923,-0.0010044388,0.0028213859,0.49713558,-0.0018472591,0.86678064,2016-11-16 07:36:47,48.009282472934096
8.485051,0.36391866,4.951209,0.1470127,-0.0010660079,0.044599056,0.0,0.8635887,0.034601085,0.5030083,0.0022224188,0.00250737,0.0022369623,0.4980142,-0.0028208545,0.8662443,2016-11-16 07:36:48,53.76634152123963
8.494628,0.37349546,5.0278234,-0.038341213,-0.009095991,0.12234319,0.0,0.8597916,0.032556687,0.50960624,0.0040457845,-2.6691332E-4,-0.0023788214,0.49522293,-0.0061400277,0.8675695,2016-11-16 07:36:50,50.49299679481866
8.456321,0.38307226,4.9416323,-0.64542294,3.738138E-4,-0.08600751,0.0,0.8602199,0.034720283,0.5087398,0.00262779,0.0043145977,-0.0044166446,0.49586236,-0.001582212,0.86758846,2016-11-16 07:36:51,47.020408394331454
8.456321,0.34476504,5.0182467,-0.018309318,-0.005766559,9.6671656E-4,0.0,0.8601882,0.034335274,0.5088195,0.0026597977,0.0027825572,-0.0015677214,0.49572498,-0.002264067,0.8675509,2016-11-16 07:36:52,49.210811839470445
8.456321,0.32561144,5.0374002,0.3693472,0.03221218,0.033953544,0.0,0.85944057,0.035723392,0.50998604,-3.56853E-4,4.0987134E-4,0.006794572,0.4953495,-0.0016870453,0.8677987,2016-11-16 07:36:53,49.89815774945835
8.465898,0.35434186,5.0278234,-0.73974776,-0.029002728,-0.09075859,0.0,0.857766,0.034126952,0.5129064,2.3704767E-4,0.0019402504,-0.0018103123,0.4937552,0.0026351358,0.8690656,2016-11-16 07:36:54,52.18117360093152
8.42759,0.31603462,5.0278234,-0.5166211,-0.010009943,-0.09422954,0.0,0.85815334,0.037190232,0.5120446,0.0018272996,-0.004793428,9.5021725E-4,0.49390748,0.012938302,0.8692924,2016-11-16 07:36:55,53.90874839413335
8.446744,0.36391866,5.0661306,0.2871604,0.007823775,0.09572089,0.0,0.85804605,0.03615683,0.51229846,0.0039004683,-0.00280701,0.0026336908,0.49425116,0.002224227,0.8686823,2016-11-16 07:36:56,48.84515417095031
8.437167,0.33518824,5.00867,-0.09089346,-0.009123864,-0.05805475,0.0,0.8588616,0.03406059,0.5110739,0.0070082545,-0.0017186925,0.0018818378,0.4946318,-0.0070368005,0.8677998,2016-11-16 07:36:57,50.01088207976531
8.446744,0.37349546,5.0661306,0.085518524,-0.030198744,0.010370476,0.0,0.8567288,0.03724944,0.5144203,0.005150795,-2.471693E-4,-0.0022896528,0.49345946,-0.0073678307,0.8683279,2016-11-16 07:36:58,52.91569710525191
8.437167,0.32561144,5.046977,0.007798686,-0.007240384,-0.007665528,0.0,0.8568042,0.036179382,0.51437116,0.0012999773,-0.0019235685,0.0014327168,0.4930186,-0.00239208,0.869068,2016-11-16 07:36:59,47.66194963541297
8.446744,0.33518824,5.0182467,0.14577545,-4.8979616E-4,0.0055014305,0.0,0.8558892,0.036888506,0.51584196,0.0058945417,-0.0026924983,-0.0035615563,0.49215055,-0.0020499092,0.8695259,2016-11-16 07:37:00,52.3996455928244
8.408437,0.38307226,5.0757074,-0.87594163,-0.024115033,-0.19455925,0.0,0.8554509,0.035026014,0.5166981,0.0074435472,0.003065031,0.002202332,0.49124485,0.010445396,0.87077546,2016-11-16 07:37:01,47.72347641961164
8.389283,0.36391866,5.133168,-0.13615754,0.010825254,-0.025042903,0.0,0.8524492,0.03631858,0.5215473,0.0036545992,6.561652E-4,0.0021678805,0.48940212,4.882813E-4,0.87131536,2016-11-16 07:37:02,51.023615602655205
8.341399,0.33518824,5.2002063,0.038651627,0.013274221,-0.03620859,0.0,0.84967107,0.0371704,0.52600133,0.0025265217,0.0028036088,-3.400445E-4,0.48759574,0.0024687194,0.8724434,2016-11-16 07:37:03,49.22499647457666
8.39886,0.32561144,5.161899,-0.11642627,-0.020282531,-0.012323486,0.0,0.85078615,0.0352632,0.5243276,0.0042566657,0.0017122738,-4.7671795E-4,0.48751712,0.0087754885,0.87285525,2016-11-16 07:37:04,51.37250286647532
8.322245,0.36391866,5.1906295,0.17614266,0.015625438,0.046748865,0.0,0.8513056,0.0351091,0.5234941,0.0037571192,-0.0018286854,-0.0035987496,0.4885514,0.0019028878,0.87191445,2016-11-16 07:37:05,52.5519139906773
8.350976,0.32561144,5.171476,0.20371234,0.025922034,0.10208626,0.0,0.85056293,0.034696944,0.5247274,0.0015325546,-0.0043803584,0.0040227175,0.4874111,-0.0038871297,0.872149,2016-11-16 07:37:06,48.64357772869827
8.331821,0.33518824,5.209783,0.039006844,0.03333479,-0.13475947,0.0,0.84958833,0.035129208,0.5262754,6.1059E-4,-7.3072687E-4,0.005301237,0.48674124,0.0022107877,0.8728898,2016-11-16 07:37:07,45.878048696449426
8.293514,0.32561144,5.2002063,0.29087758,-0.010698753,0.055169627,0.0,0.84831065,0.034707777,0.52836007,0.004734695,-0.006191643,-0.002508521,0.4856059,-0.0011835158,0.8733441,2016-11-16 07:37:08,46.51016094075133
8.360553,0.2873042,5.1906295,0.19978818,-0.0018090062,0.006801879,0.0,0.84716594,0.036862116,0.53004813,0.003014803,-0.0036121048,0.0025461912,0.48464465,-8.36872E-4,0.87382686,2016-11-16 07:37:09,47.80896899816327
8.341399,0.31603462,5.267244,0.12633263,0.0026454916,0.019437887,0.0,0.8463312,0.034057856,0.53156704,0.00481534,-0.0017819554,0.005931437,0.48329338,-0.0019028878,0.87457925,2016-11-16 07:37:10,51.442008951117096
8.283937,0.32561144,5.3725886,0.35141763,0.04396875,0.09578101,0.0,0.84139055,0.03555228,0.539257,0.001049161,-0.0052063446,-0.0018981099,0.4813375,8.004686E-4,0.8758432,2016-11-16 07:37:11,45.51153759361832
8.274361,0.34476504,5.3247046,0.04790043,-0.025782015,0.014099396,0.0,0.8415527,0.03485633,0.5390493,0.004653156,-4.5509636E-4,4.771948E-4,0.48026362,6.9053395E-4,0.87641835,2016-11-16 07:37:12,51.1209010969112
8.283937,0.34476504,5.2768207,-0.0013924685,0.023124361,0.034395896,0.0,0.84085083,0.032735385,0.54027605,6.399751E-4,0.002453588,0.0048594475,0.47985393,-0.0,0.87663984,2016-11-16 07:37:13,50.02912525225397
8.255207,0.36391866,5.315128,-0.016600188,-0.0077027986,0.0020724216,0.0,0.8401092,0.03584878,0.5412314,0.0031421185,-0.002535276,2.9152632E-4,0.47872066,-9.991885E-4,0.8771123,2016-11-16 07:37:14,47.652903068217974
8.293514,0.38307226,5.3438582,0.21356499,-0.0031350418,0.097582154,0.0,0.8402238,0.032194305,0.5412833,0.0021334887,0.002858393,1.2391806E-4,0.47879314,-0.0012084345,0.8771922,2016-11-16 07:37:15,53.29257732365054
8.2169,0.32561144,5.3438582,0.07318982,-0.016604854,0.049906425,0.0,0.837354,0.032708365,0.5456817,0.002886355,5.5637956E-4,-0.002080679,0.47632805,-2.9901E-4,0.8785717,2016-11-16 07:37:16,48.27555399762226
8.2169,0.34476504,5.3821654,-0.36728084,-4.5883912E-4,0.0159431,0.0,0.8375836,0.034685023,0.54520696,0.004686594,-0.001402989,2.3162365E-4,0.4768111,0.0055242716,0.87859344,2016-11-16 07:37:17,48.424482212930656
8.274361,0.4213795,5.353435,0.2315579,0.009049373,0.05336426,0.0,0.83770514,0.03656614,0.54489726,0.002779305,-5.48251E-4,0.0032266378,0.47741845,0.0034612908,0.8780922,2016-11-16 07:37:18,51.60346797053187
8.2169,0.34476504,5.3725886,0.002538655,0.001686572,-0.16679965,0.0,0.8373435,0.03446375,0.54558975,0.0030518174,-0.0010373034,6.9469213E-4,0.4764902,0.010128894,0.8789329,2016-11-16 07:37:19,53.34239604754977
8.197746,0.32561144,5.3821654,0.033577587,0.005720998,0.012745769,0.0,0.83594286,0.03500147,0.54769915,0.002471745,0.0030855685,0.0035253167,0.47542658,0.0035568364,0.87923485,2016-11-16 07:37:20,48.3551500865861
8.169016,0.32561144,5.439626,-0.75408,-0.0068962798,-0.08638746,0.0,0.8334025,0.034148987,0.5516105,0.00301224,-0.002721727,-3.2925606E-4,0.47290263,0.018752797,0.8809129,2016-11-16 07:37:21,41.87014748098066
8.2169,0.38307226,5.391742,0.66459644,-0.01652864,0.095778435,0.0,0.83358485,0.036045548,0.5512141,0.004850149,-0.0037412345,-0.0019806623,0.47346273,0.008147679,0.88048273,2016-11-16 07:37:22,49.10955779218713
8.207323,0.34476504,5.439626,-0.083199106,0.018954422,0.064525515,0.0,0.83285445,0.03430105,0.55242807,0.004678905,8.779131E-4,0.0015810132,0.47307393,0.015556663,0.8808532,2016-11-16 07:37:23,47.97647021903536
8.1402855,0.32561144,5.4683566,-0.45477313,-0.0032648644,-0.0839777,0.0,0.83105695,0.035354003,0.5550625,0.00446254,7.756166E-4,1.50203705E-5,0.47215408,0.008286408,0.88121307,2016-11-16 07:37:24,53.966298380952715
8.149862,0.34476504,5.439626,0.060200337,-0.0064404495,-0.020036824,0.0,0.8308198,0.033936165,0.55550593,-0.0012414455,0.0021104962,-0.0032385588,0.47119436,0.003993024,0.88158584,2016-11-16 07:37:25,45.570834026826404
8.159439,0.35434186,5.48751,-0.09941326,-0.014021779,-0.019236222,0.0,0.8299794,0.03555658,0.5566595,0.0054622293,0.004456736,-0.0024415255,0.470997,0.004978015,0.8816733,2016-11-16 07:37:26,51.56242894535229
8.1881695,0.29688102,5.48751,0.036317457,-0.0010994287,0.044350043,0.0,0.83023757,0.03313143,0.5564241,0.0042636395,0.0030785687,6.6423416E-4,0.47075802,-2.9901E-4,0.88147765,2016-11-16 07:37:27,47.27353550830314
8.1402855,0.32561144,5.544971,-0.5298468,-0.005584588,-0.10503303,0.0,0.8267163,0.03599777,0.56146634,0.003935933,-0.0035062432,-5.7053566E-4,0.46839613,0.005003394,0.88303894,2016-11-16 07:37:28,53.855861185007406
8.121132,0.32561144,5.48751,-0.6589892,0.0028437441,-0.0998615,0.0,0.82641953,0.03421473,0.5620143,0.005205035,0.0018870495,0.002816379,0.46786425,0.0154103795,0.8836326,2016-11-16 07:37:29,48.65354426535829
8.082825,0.35434186,5.544971,-0.24383488,-0.033082478,-0.02620904,0.0,0.82301337,0.03365392,0.5670243,0.007443428,0.0043008104,-0.0038650632,0.46548048,0.006021173,0.88469464,2016-11-16 07:37:30,52.392721732023624
8.073248,0.34476504,5.5737014,-0.056880586,0.0038203988,-0.09616597,0.0,0.82453364,0.03701025,0.56460124,0.003250301,-0.0018716864,0.0011063218,0.46672863,0.0038909612,0.8838413,2016-11-16 07:37:31,46.04110802110025
8.082825,0.37349546,5.554548,0.00397776,0.017068602,0.022357332,0.0,0.82253283,0.03318608,0.56774855,0.0012185574,-0.00379017,0.0010634065,0.46493262,0.003252664,0.88481,2016-11-16 07:37:32,47.69591973664731
8.063671,0.34476504,5.707777,0.26793104,0.0049460893,0.22453701,0.0,0.8144095,0.03587655,0.5791805,0.0026905537,0.0012009032,0.00402987,0.45958328,0.0044534756,0.8875921,2016-11-16 07:37:33,53.37361563163414
7.9966335,0.31603462,5.659893,0.059588056,-0.0046304595,0.04916595,0.0,0.8138227,0.037304934,0.57991457,0.006052792,-1.4523417E-4,0.006441891,0.45789585,0.005024198,0.88848984,2016-11-16 07:37:34,48.49563079872628
8.025364,0.36391866,5.707777,-0.43074444,-0.008974186,0.054558024,0.0,0.8128237,0.03521677,0.5814443,-6.3717365E-4,8.6578727E-4,8.29339E-4,0.45782554,0.006468575,0.8886604,2016-11-16 07:37:35,52.49976214787975
7.9870567,0.31603462,5.7365074,-0.050598495,-0.0037176833,0.025724575,0.0,0.81235677,0.036986258,0.58198667,0.0045419335,9.292737E-5,0.001506269,0.4570863,0.0021836602,0.88869095,2016-11-16 07:37:36,44.69024310506878
7.9583263,0.35434186,5.803545,0.59272075,0.026448207,0.120324895,0.0,0.8105687,0.036034886,0.58453375,0.0044059157,-0.001602307,0.0028076768,0.45573524,0.0034912964,0.8894629,2016-11-16 07:37:37,46.8807108208675
7.9966335,0.40222588,5.7365074,-0.5279696,-0.020035665,-0.08875965,0.0,0.8107331,0.036942955,0.5842493,0.0041930676,1.2180209E-4,-0.0017079115,0.45537338,0.012743345,0.89007497,2016-11-16 07:37:38,50.75332620068575
7.9487495,0.34476504,5.707777,0.20769528,0.027545882,0.08304179,0.0,0.8093339,0.035301328,0.58628696,0.0038521886,8.226745E-4,8.4131956E-4,0.45592877,0.002612419,0.889367,2016-11-16 07:37:39,47.398320161710316
7.9391727,0.34476504,5.765238,0.12798251,0.007590866,0.017489687,0.0,0.8093866,0.03569798,0.58619034,0.0027874112,4.5541674E-4,7.2717667E-6,0.45490363,0.0050152927,0.89002454,2016-11-16 07:37:40,45.000196337705574
7.929596,0.36391866,5.793968,0.03343089,-0.0017692187,-0.008109328,0.0,0.8087626,0.03462532,0.5871151,0.0014385581,0.0024508685,0.0030199885,0.45467073,7.4252475E-4,0.88989145,2016-11-16 07:37:42,50.07943452617481
7.9583263,0.40222588,5.755661,0.05700928,-0.003183641,-0.027177464,0.0,0.80862916,0.034784146,0.58728945,0.0024273992,0.005026821,9.351969E-5,0.45424554,0.0030370743,0.890292,2016-11-16 07:37:43,45.95194232587821
7.967903,0.34476504,5.755661,-0.07376486,-0.012464221,-0.31578156,0.0,0.80949867,0.03723638,0.5859397,0.0035135746,-0.0021612123,0.0014333129,0.45456314,0.007599796,0.89033324,2016-11-16 07:37:44,46.68251324347907
7.9104424,0.34476504,5.8226986,-0.4129604,-0.00883371,-0.18347552,0.0,0.80599517,0.037737023,0.590718,0.0020948052,-0.0025340095,-0.0023272038,0.4529925,0.012460742,0.8912661,2016-11-16 07:37:45,50.04657973821175
7.9487495,0.35434186,5.765238,0.2564195,-5.05446E-4,0.05560181,0.0,0.8068566,0.037577767,0.589551,0.0041096807,-0.0012894124,-0.0010908842,0.45300576,0.0071544033,0.8910403,2016-11-16 07:37:46,45.32716063444105
