ACC_X,ACC_Y,ACC_Z,LIGH_1,GRAV_X,GRAV_Y,GRAV_Z,LINACC_X,LINACC_Y,LINACC_Z,TIME,VOICE
8.628703,0.21068975,2.4708161,14.0,9.779409,-0.21792556,0.58567494,0.040861044,0.5992953,1.2530719,2017-06-08 21:59:53,56.085079654544714
9.509769,-0.076614454,2.72939,5.0,9.656826,-0.027240695,1.6753027,-0.14982383,-0.068101734,0.8853226,2017-06-08 21:59:54,73.80639490307802
9.356541,-0.08619126,3.1411927,5.0,9.493382,-0.040861044,2.4516625,-0.12258312,-0.040861044,0.74911916,2017-06-08 21:59:55,78.24295083505575
8.848969,-0.06703765,4.453215,8.0,9.289077,-0.05448139,3.1463003,-0.36774936,-0.027240695,1.1985906,2017-06-08 21:59:56,82.45976319202312
8.772355,-0.038307227,4.663905,8.0,8.798745,-0.05448139,4.31765,-0.12258312,0.027240695,0.24516624,2017-06-08 21:59:57,68.6963539090774
9.452309,-0.08619126,2.9496565,5.0,8.785125,-0.040861044,4.3448906,0.6401563,-0.013620348,-1.648062,2017-06-08 21:59:58,59.26280176348064
9.289502,-0.08619126,3.514688,11.0,9.275456,-0.040861044,3.1871612,-0.16344418,-0.068101734,0.6946377,2017-06-08 21:59:59,79.12332842743898
9.691729,-0.019153614,1.6184803,5.0,9.316318,-0.05448139,3.0645783,0.38136974,0.027240695,-1.4301364,2017-06-08 22:00:00,84.24003262497769
9.576807,-0.06703765,2.2218192,2.0,9.547864,-0.068101734,2.2064962,0.05448139,0.0,0.0,2017-06-08 22:00:01,81.59875520385572
9.56723,-0.076614454,2.3654714,2.0,9.493382,-0.068101734,2.465283,0.068101734,0.0,-0.16344418,2017-06-08 22:00:02,52.65180069541981
9.461885,-0.095768064,2.7389667,2.0,9.41166,-0.095342435,2.73769,0.05448139,0.0,0.027240695,2017-06-08 22:00:03,54.54305268813805
9.414001,-0.095768064,2.96881,5.0,9.384419,-0.08172209,2.8330321,0.05448139,0.0,0.068101734,2017-06-08 22:00:04,50.50671480079393
9.404425,-0.12449849,3.0071173,5.0,9.343558,-0.068101734,2.969236,0.013620348,0.027240695,0.10896278,2017-06-08 22:00:05,53.03633848196619
9.289502,-0.076614454,3.41892,5.0,9.261836,-0.08172209,3.2007816,0.013620348,0.013620348,0.28602728,2017-06-08 22:00:06,54.863394104888805
9.279925,-0.10534488,3.5338416,5.0,9.220975,-0.068101734,3.323365,0.05448139,-0.013620348,0.13620347,2017-06-08 22:00:07,78.37106245763087
9.222465,-0.06703765,3.620033,5.0,9.207355,-0.08172209,3.3642259,0.013620348,0.027240695,0.23154591,2017-06-08 22:00:08,79.72877977253772
9.030929,-0.08619126,4.050989,5.0,9.139253,-0.08172209,3.5549107,-0.08172209,-0.013620348,0.44947144,2017-06-08 22:00:09,80.84668435341516
9.040505,-0.06703765,4.0318356,5.0,9.01667,-0.08172209,3.8545582,0.068101734,0.027240695,0.040861044,2017-06-08 22:00:10,74.91474310462931
9.002198,-0.095768064,4.0892963,5.0,8.975809,-0.068101734,3.9499006,0.040861044,-0.027240695,0.12258312,2017-06-08 22:00:11,79.41918260584215
8.858546,-0.095768064,4.462792,5.0,8.921328,-0.068101734,4.0452433,-0.05448139,-0.027240695,0.3949901,2017-06-08 22:00:12,82.77752755383713
8.896853,-0.08619126,4.3287168,5.0,8.812365,-0.068101734,4.2904096,0.068101734,-0.027240695,0.08172209,2017-06-08 22:00:13,54.58797555055845
9.021352,-0.1340753,4.060566,5.0,8.825985,-0.08172209,4.263169,0.2043052,0.027240695,-0.17706451,2017-06-08 22:00:15,71.00473263164005
9.002198,-0.06703765,4.1276035,5.0,8.934948,-0.08172209,4.031623,0.08172209,0.013620348,0.08172209,2017-06-08 22:00:16,78.94351129526748
8.762778,-0.11492168,4.6926355,8.0,8.934948,-0.08172209,4.0180025,-0.027240695,0.08172209,0.23154591,2017-06-08 22:00:17,82.97746691628166
8.810662,0.076614454,4.271256,11.0,8.608059,-0.05448139,4.69902,0.3405087,0.040861044,-0.7354987,2017-06-08 22:00:18,69.38139787145732
8.829816,-0.1340753,4.4340615,11.0,8.526338,-0.05448139,4.835223,0.5992953,0.05448139,-0.98066497,2017-06-08 22:00:19,77.9131300175755
8.724471,-0.06703765,4.4819455,11.0,8.798745,-0.05448139,4.31765,-0.12258312,0.05448139,0.08172209,2017-06-08 22:00:20,82.71290735373798
8.465898,-0.076614454,5.2002063,8.0,8.444615,-0.068101734,4.971427,0.040861044,0.0,0.14982383,2017-06-08 22:00:21,77.67345476537889
8.7053175,-0.076614454,4.903325,8.0,8.3765135,-0.068101734,5.09401,0.31326798,0.013620348,-0.2043052,2017-06-08 22:00:22,83.57558702063457
9.050082,-0.06703765,3.9839516,8.0,8.621679,-0.05448139,4.671779,0.38136974,0.0,-0.47671217,2017-06-08 22:00:23,82.6261399903791
9.078813,-0.076614454,4.0318356,8.0,8.907707,-0.05448139,4.0861044,0.14982383,0.0,-0.16344418,2017-06-08 22:00:24,78.74795712871207
8.954314,-0.095768064,4.232949,8.0,8.989429,-0.068101734,3.9090397,-0.040861044,-0.027240695,0.27240694,2017-06-08 22:00:25,83.38649090953781
8.954314,-0.08619126,4.2425256,8.0,8.907707,-0.068101734,4.099725,0.068101734,-0.027240695,0.08172209,2017-06-08 22:00:26,82.38245883491396
8.90643,-0.08619126,4.31914,8.0,8.853226,-0.08172209,4.2223077,0.05448139,0.0,0.12258312,2017-06-08 22:00:27,79.57370210915667
8.90643,-0.08619126,4.309563,8.0,8.825985,-0.068101734,4.276789,0.095342435,-0.027240695,0.040861044,2017-06-08 22:00:28,80.33719066327768
8.916007,-0.095768064,4.31914,8.0,8.812365,-0.095342435,4.2904096,0.10896278,0.0,0.027240695,2017-06-08 22:00:29,82.62948603034684
8.90643,-0.10534488,4.3287168,8.0,8.812365,-0.068101734,4.2904096,0.10896278,-0.013620348,0.027240695,2017-06-08 22:00:30,82.81075925929244
8.90643,-0.095768064,4.3478703,8.0,8.812365,-0.095342435,4.2904096,0.068101734,0.0,0.068101734,2017-06-08 22:00:31,76.46114941413731
8.90643,-0.10534488,4.3287168,8.0,8.812365,-0.095342435,4.2904096,0.08172209,0.0,0.027240695,2017-06-08 22:00:32,80.51588822462433
8.896853,-0.095768064,4.2999864,8.0,8.812365,-0.08172209,4.2904096,0.08172209,-0.013620348,0.027240695,2017-06-08 22:00:33,78.30642681704745
8.8777,-0.10534488,4.367024,8.0,8.812365,-0.095342435,4.2904096,0.05448139,-0.013620348,0.068101734,2017-06-08 22:00:34,56.78239864994997
8.8777,-0.10534488,4.405331,11.0,8.812365,-0.08172209,4.3040295,0.068101734,0.0,0.068101734,2017-06-08 22:00:35,78.36486427852239
8.839393,-0.095768064,4.462792,8.0,8.798745,-0.08172209,4.31765,0.027240695,-0.013620348,0.14982383,2017-06-08 22:00:36,83.22991131132008
8.839393,-0.10534488,4.4819455,11.0,8.757884,-0.08172209,4.3993726,0.08172209,-0.013620348,0.05448139,2017-06-08 22:00:37,77.4982462107646
8.848969,-0.095768064,4.4819455,8.0,8.744264,-0.095342435,4.440233,0.095342435,-0.013620348,0.013620348,2017-06-08 22:00:38,56.41907528648497
8.868123,-0.095768064,4.3957543,8.0,8.771504,-0.08172209,4.372132,0.10896278,-0.013620348,-0.013620348,2017-06-08 22:00:39,58.53396764063204
8.8777,-0.095768064,4.3766007,8.0,8.812365,-0.08172209,4.3040295,0.05448139,0.0,0.10896278,2017-06-08 22:00:40,77.30394799078735
8.8777,-0.095768064,4.3478703,8.0,8.785125,-0.08172209,4.358511,0.095342435,-0.013620348,0.0,2017-06-08 22:00:41,83.48433148282314
8.858546,-0.08619126,4.4244847,8.0,8.785125,-0.08172209,4.3448906,0.068101734,-0.013620348,0.095342435,2017-06-08 22:00:42,81.11421801515549
8.8777,-0.095768064,4.367024,8.0,8.785125,-0.08172209,4.3448906,0.095342435,-0.013620348,0.0,2017-06-08 22:00:43,79.11914485566768
8.829816,-0.095768064,4.4915223,8.0,8.771504,-0.08172209,4.372132,0.068101734,0.0,0.10896278,2017-06-08 22:00:44,79.49011852245886
8.839393,-0.08619126,4.4723687,8.0,8.757884,-0.08172209,4.3993726,0.095342435,-0.013620348,0.05448139,2017-06-08 22:00:45,81.71522507388795
8.848969,-0.10534488,4.4244847,8.0,8.744264,-0.095342435,4.426613,0.095342435,-0.013620348,0.027240695,2017-06-08 22:00:46,73.04171811938761
8.848969,-0.10534488,4.4723687,8.0,8.757884,-0.08172209,4.4129925,0.095342435,-0.013620348,0.040861044,2017-06-08 22:00:47,76.7904664219614
8.858546,-0.095768064,4.453215,8.0,8.757884,-0.08172209,4.3993726,0.095342435,-0.013620348,0.040861044,2017-06-08 22:00:48,72.75078866586699
8.8777,-0.095768064,4.357447,8.0,8.771504,-0.08172209,4.385752,0.095342435,0.0,0.05448139,2017-06-08 22:00:49,82.10344082671793
8.868123,-0.095768064,4.405331,8.0,8.771504,-0.08172209,4.358511,0.08172209,-0.013620348,0.027240695,2017-06-08 22:00:50,74.4554327956793
8.858546,-0.095768064,4.3957543,8.0,8.785125,-0.095342435,4.358511,0.068101734,0.0,0.095342435,2017-06-08 22:00:51,81.9245401483912
8.868123,-0.08619126,4.4244847,8.0,8.771504,-0.08172209,4.372132,0.08172209,-0.013620348,0.040861044,2017-06-08 22:00:52,57.22158791937251
8.848969,-0.10534488,4.453215,8.0,8.771504,-0.08172209,4.385752,0.08172209,-0.013620348,0.05448139,2017-06-08 22:00:53,54.87486836097471
8.839393,-0.10534488,4.4723687,8.0,8.757884,-0.08172209,4.3993726,0.095342435,-0.027240695,0.05448139,2017-06-08 22:00:54,77.52234247482356
8.848969,-0.10534488,4.453215,8.0,8.757884,-0.095342435,4.4129925,0.095342435,0.0,0.0,2017-06-08 22:00:55,83.62272614531068
8.868123,-0.095768064,4.405331,8.0,8.757884,-0.095342435,4.3993726,0.12258312,-0.013620348,0.027240695,2017-06-08 22:00:56,58.10555677369169
8.887277,-0.10534488,4.3766007,8.0,8.785125,-0.08172209,4.358511,0.08172209,-0.013620348,0.12258312,2017-06-08 22:00:57,74.97358105945979
8.983045,-0.08619126,4.098873,8.0,8.853226,-0.08172209,4.2086873,0.14982383,-0.013620348,-0.10896278,2017-06-08 22:00:59,69.02793966011967
8.963891,-0.08619126,4.175488,8.0,8.907707,-0.08172209,4.0861044,0.05448139,0.0,0.10896278,2017-06-08 22:01:00,77.97162188296885
8.963891,-0.095768064,4.1276035,8.0,8.880466,-0.08172209,4.140586,0.068101734,0.027240695,-0.013620348,2017-06-08 22:01:01,83.92872742743762
8.935161,-0.10534488,4.2042184,8.0,8.880466,-0.068101734,4.140586,0.08172209,-0.027240695,0.027240695,2017-06-08 22:01:02,76.88421322883022
8.925584,-0.095768064,4.232949,8.0,8.880466,-0.08172209,4.154206,0.068101734,0.0,0.10896278,2017-06-08 22:01:03,83.92056511015333
8.935161,-0.095768064,4.232949,8.0,8.853226,-0.095342435,4.195067,0.068101734,0.0,0.068101734,2017-06-08 22:01:04,84.19922407207994
8.916007,-0.095768064,4.261679,8.0,8.853226,-0.08172209,4.2086873,0.068101734,-0.013620348,0.08172209,2017-06-08 22:01:05,83.60155370958198
8.916007,-0.08619126,4.2904096,8.0,8.839605,-0.08172209,4.2223077,0.08172209,0.0,0.040861044,2017-06-08 22:01:06,83.81355373266533
8.896853,-0.095768064,4.3287168,8.0,8.839605,-0.095342435,4.2495484,0.05448139,0.0,0.10896278,2017-06-08 22:01:07,82.31737906762368
8.916007,-0.08619126,4.2904096,8.0,8.825985,-0.08172209,4.263169,0.068101734,-0.013620348,0.095342435,2017-06-08 22:01:08,82.845231566596
8.887277,-0.095768064,4.3478703,8.0,8.812365,-0.095342435,4.3040295,0.068101734,0.0,0.05448139,2017-06-08 22:01:09,64.1155667924293
8.8777,-0.095768064,4.3861775,8.0,8.798745,-0.08172209,4.33127,0.08172209,-0.013620348,0.05448139,2017-06-08 22:01:10,77.73396915424969
8.8777,-0.10534488,4.367024,8.0,8.798745,-0.08172209,4.33127,0.08172209,-0.013620348,0.027240695,2017-06-08 22:01:11,84.19017574185638
8.8777,-0.095768064,4.367024,8.0,8.798745,-0.08172209,4.33127,0.08172209,-0.013620348,0.040861044,2017-06-08 22:01:12,83.28947648469112
8.887277,-0.10534488,4.3382936,8.0,8.798745,-0.08172209,4.33127,0.10896278,-0.013620348,0.0,2017-06-08 22:01:13,70.1426454038864
8.896853,-0.095768064,4.3382936,8.0,8.812365,-0.08172209,4.3040295,0.05448139,-0.013620348,0.12258312,2017-06-08 22:01:14,77.04341259919423
8.935161,-0.095768064,4.232949,8.0,8.853226,-0.08172209,4.2223077,0.095342435,0.0,0.0,2017-06-08 22:01:15,84.34505998124942
8.848969,-0.095768064,4.4819455,8.0,8.866846,-0.08172209,4.195067,-0.040861044,0.0,0.3405087,2017-06-08 22:01:16,82.6962446714746
8.925584,-0.076614454,4.31914,8.0,8.812365,-0.08172209,4.2904096,0.10896278,0.0,0.17706451,2017-06-08 22:01:17,81.72050027661618
8.8777,-0.076614454,3.4763808,8.0,8.853226,-0.08172209,4.2086873,0.13620347,-0.013620348,-0.13620347,2017-06-08 22:01:18,78.30807509414667
8.810662,-0.076614454,4.3957543,8.0,8.717022,-0.068101734,4.4810944,-0.027240695,0.027240695,0.47671217,2017-06-08 22:01:19,83.0383871454908
9.222465,-0.06703765,3.6104562,8.0,8.853226,-0.05448139,4.2086873,0.38136974,0.013620348,-0.6537767,2017-06-08 22:01:20,77.20855625303346
9.203311,-0.06703765,3.667917,8.0,9.0983925,-0.068101734,3.6366327,0.08172209,0.0,0.08172209,2017-06-08 22:01:21,81.77523223901028
9.203311,-0.076614454,3.6583402,8.0,9.125632,-0.05448139,3.5957716,0.08172209,0.0,0.040861044,2017-06-08 22:01:22,81.397736707312
9.193734,-0.076614454,3.6487634,8.0,9.112013,-0.040861044,3.6230123,0.095342435,-0.013620348,0.013620348,2017-06-08 22:01:23,72.13573245362392
9.212888,-0.05746084,3.6104562,8.0,9.112013,-0.040861044,3.609392,0.095342435,-0.013620348,0.040861044,2017-06-08 22:01:24,78.06933506556862
9.212888,-0.06703765,3.6583402,8.0,9.112013,-0.040861044,3.609392,0.095342435,-0.013620348,0.040861044,2017-06-08 22:01:25,83.37483805645141
9.203311,-0.06703765,3.6774938,8.0,9.112013,-0.05448139,3.609392,0.095342435,0.0,0.068101734,2017-06-08 22:01:26,75.14797279638711
9.203311,-0.06703765,3.6774938,8.0,9.0983925,-0.05448139,3.6366327,0.095342435,-0.013620348,0.040861044,2017-06-08 22:01:27,75.96108764188432
9.203311,-0.06703765,3.667917,8.0,9.0983925,-0.05448139,3.6366327,0.10896278,0.0,0.027240695,2017-06-08 22:01:28,78.8874286623167
9.193734,-0.06703765,3.6774938,8.0,9.0983925,-0.040861044,3.6366327,0.10896278,-0.027240695,0.027240695,2017-06-08 22:01:29,82.33012211839369
9.193734,-0.05746084,3.6966474,8.0,9.0983925,-0.040861044,3.6366327,0.095342435,-0.013620348,0.027240695,2017-06-08 22:01:30,82.57333636468756
9.203311,-0.05746084,3.6391866,8.0,9.112013,-0.05448139,3.6230123,0.08172209,0.0,0.040861044,2017-06-08 22:01:31,78.7706073004812
9.203311,-0.06703765,3.6870706,8.0,9.112013,-0.05448139,3.609392,0.095342435,0.0,0.027240695,2017-06-08 22:01:32,80.84870556302435
9.222465,-0.05746084,3.5051112,8.0,9.112013,-0.05448139,3.5957716,0.12258312,-0.013620348,-0.013620348,2017-06-08 22:01:33,78.4720227821717
9.241618,-0.076614454,3.5817258,8.0,9.125632,-0.040861044,3.568531,0.10896278,-0.027240695,-0.027240695,2017-06-08 22:01:34,82.95388724594908
9.232041,-0.06703765,3.5529952,8.0,9.139253,-0.040861044,3.5549107,0.08172209,-0.027240695,0.05448139,2017-06-08 22:01:35,83.93347874099868
9.241618,-0.076614454,3.5338416,8.0,9.139253,-0.05448139,3.5549107,0.08172209,-0.013620348,0.095342435,2017-06-08 22:01:36,77.59613966775039
9.193734,-0.076614454,3.6870706,8.0,9.139253,-0.05448139,3.5412903,0.068101734,0.013620348,0.05448139,2017-06-08 22:01:37,79.36972035117651
9.212888,-0.06703765,3.6008794,8.0,9.125632,-0.05448139,3.568531,0.08172209,0.0,0.027240695,2017-06-08 22:01:38,75.60010297477609
9.203311,-0.076614454,3.6487634,8.0,9.125632,-0.05448139,3.5821512,0.068101734,0.0,0.068101734,2017-06-08 22:01:39,77.62871695973594
9.155427,-0.076614454,3.7445314,8.0,9.0983925,-0.05448139,3.650253,0.068101734,0.0,0.08172209,2017-06-08 22:01:40,83.97892638792051
9.165004,-0.06703765,3.7541082,8.0,9.084772,-0.068101734,3.6911142,0.08172209,0.0,0.013620348,2017-06-08 22:01:41,82.51572213072237
9.14585,-0.05746084,3.8019924,8.0,9.071152,-0.068101734,3.718355,0.08172209,0.013620348,-0.068101734,2017-06-08 22:01:43,82.85020604697152
9.155427,-0.076614454,3.7732618,8.0,9.071152,-0.040861044,3.718355,0.095342435,-0.013620348,0.05448139,2017-06-08 22:01:44,56.99678001444618
9.155427,-0.076614454,3.7062242,8.0,9.071152,-0.05448139,3.718355,0.08172209,0.0,0.05448139,2017-06-08 22:01:45,58.0417976526416
9.184157,-0.076614454,3.7445314,8.0,9.071152,-0.05448139,3.718355,0.10896278,0.0,-0.013620348,2017-06-08 22:01:46,57.19234804513267
9.174581,-0.076614454,3.7062242,8.0,9.084772,-0.05448139,3.6911142,0.095342435,-0.013620348,-0.013620348,2017-06-08 22:01:47,78.41616904153561
9.241618,-0.076614454,3.514688,8.0,9.084772,-0.040861044,3.677494,0.16344418,-0.013620348,-0.13620347,2017-06-08 22:01:48,82.93829488310494
9.251195,-0.076614454,3.4955344,8.0,9.139253,-0.05448139,3.5549107,0.12258312,-0.013620348,-0.08172209,2017-06-08 22:01:49,83.25300851246664
9.260772,-0.06703765,3.4763808,8.0,9.166493,-0.040861044,3.4731886,0.10896278,-0.027240695,0.013620348,2017-06-08 22:01:50,79.27961955921432
9.260772,-0.06703765,3.4859576,8.0,9.166493,-0.040861044,3.4595683,0.095342435,-0.013620348,0.027240695,2017-06-08 22:01:51,83.80154221920101
9.260772,-0.05746084,3.4955344,8.0,9.166493,-0.040861044,3.4595683,0.08172209,0.0,0.027240695,2017-06-08 22:01:52,83.3384630185559
9.337387,-0.05746084,3.2561142,8.0,9.193734,-0.040861044,3.4187074,0.12258312,-0.027240695,-0.14982383,2017-06-08 22:01:53,81.2972858905748
9.414001,-0.076614454,3.122039,8.0,9.261836,-0.040861044,3.2280223,0.13620347,-0.013620348,-0.16344418,2017-06-08 22:01:54,78.80261024157446
9.461885,-0.076614454,2.6240451,8.0,9.384419,-0.040861044,2.8466525,0.08172209,-0.027240695,-0.12258312,2017-06-08 22:01:55,84.07069406578265
9.500193,-0.08619126,2.528277,8.0,9.438901,-0.068101734,2.669588,0.08172209,0.027240695,-0.13620347,2017-06-08 22:01:56,83.41066792530015
9.471462,-0.08619126,2.72939,8.0,9.438901,-0.08172209,2.628727,0.040861044,0.0,0.095342435,2017-06-08 22:01:57,82.79059792644985
9.461885,-0.08619126,2.8060043,8.0,9.425281,-0.068101734,2.6832085,0.027240695,0.0,0.08172209,2017-06-08 22:01:58,84.41568451756393
9.385271,-0.076614454,2.9592333,8.0,9.39804,-0.05448139,2.8057916,-0.027240695,0.027240695,0.36774936,2017-06-08 22:01:59,82.29406948669599
9.394848,-0.095768064,2.9879637,8.0,9.343558,-0.05448139,2.9556153,0.05448139,-0.013620348,0.027240695,2017-06-08 22:02:00,80.7117095703108
9.423578,-0.095768064,2.9496565,8.0,9.343558,-0.08172209,2.9556153,0.08172209,-0.013620348,-0.05448139,2017-06-08 22:02:01,83.01340633135872
9.433155,-0.095768064,2.882619,8.0,9.357179,-0.068101734,2.9147542,0.068101734,-0.013620348,-0.10896278,2017-06-08 22:02:02,57.1589608914729
9.433155,-0.10534488,2.8921957,8.0,9.370799,-0.068101734,2.8738933,0.040861044,-0.013620348,0.068101734,2017-06-08 22:02:03,56.246683999665514
9.452309,-0.095768064,2.7964275,8.0,9.370799,-0.08172209,2.860273,0.068101734,-0.013620348,-0.013620348,2017-06-08 22:02:04,83.83786278475534
9.442732,-0.095768064,2.834735,8.0,9.384419,-0.08172209,2.8466525,0.05448139,0.0,0.05448139,2017-06-08 22:02:05,83.82867039075109
9.442732,-0.095768064,2.834735,8.0,9.384419,-0.095342435,2.819412,0.068101734,0.013620348,0.0,2017-06-08 22:02:06,82.1376154812557
9.442732,-0.08619126,2.815581,8.0,9.384419,-0.068101734,2.819412,0.05448139,-0.027240695,-0.040861044,2017-06-08 22:02:07,66.58538501053346
9.461885,-0.08619126,2.777274,8.0,9.39804,-0.068101734,2.8057916,0.05448139,-0.027240695,-0.027240695,2017-06-08 22:02:08,82.75200410092111
9.452309,-0.08619126,2.767697,8.0,9.39804,-0.068101734,2.7921712,0.05448139,-0.013620348,-0.013620348,2017-06-08 22:02:09,76.76966050883573
9.452309,-0.095768064,2.777274,8.0,9.39804,-0.08172209,2.7649305,0.068101734,0.0,0.013620348,2017-06-08 22:02:10,79.05434615048267
9.461885,-0.095768064,2.7868507,8.0,9.39804,-0.08172209,2.7649305,0.068101734,-0.013620348,0.040861044,2017-06-08 22:02:11,76.82949687600542
9.452309,-0.095768064,2.7964275,8.0,9.39804,-0.068101734,2.7785509,0.040861044,0.0,0.013620348,2017-06-08 22:02:12,77.38564928249636
9.452309,-0.076614454,2.815581,8.0,9.39804,-0.08172209,2.7785509,0.05448139,-0.013620348,0.027240695,2017-06-08 22:02:13,80.93929782347645
9.442732,-0.08619126,2.815581,8.0,9.384419,-0.05448139,2.819412,0.05448139,-0.013620348,0.013620348,2017-06-08 22:02:14,77.08912764683286
9.452309,-0.08619126,2.8060043,8.0,9.39804,-0.068101734,2.8057916,0.05448139,-0.013620348,0.0,2017-06-08 22:02:15,83.32480270803514
9.452309,-0.095768064,2.8060043,8.0,9.39804,-0.08172209,2.7785509,0.040861044,0.0,0.013620348,2017-06-08 22:02:16,78.65839453044521
9.442732,-0.095768064,2.815581,8.0,9.39804,-0.095342435,2.7785509,0.040861044,0.0,0.027240695,2017-06-08 22:02:17,78.08479470926667
9.442732,-0.10534488,2.777274,8.0,9.39804,-0.08172209,2.7785509,0.068101734,-0.013620348,0.013620348,2017-06-08 22:02:18,83.71110247546923
9.452309,-0.08619126,2.8443117,11.0,9.39804,-0.08172209,2.7785509,0.05448139,-0.013620348,0.013620348,2017-06-08 22:02:19,81.16239327643618
9.433155,-0.10534488,2.882619,11.0,9.384419,-0.095342435,2.8057916,0.05448139,-0.027240695,0.040861044,2017-06-08 22:02:20,79.86254609215422
9.414001,-0.08619126,2.9496565,8.0,9.370799,-0.08172209,2.860273,0.040861044,-0.013620348,0.068101734,2017-06-08 22:02:21,65.12976849613307
9.414001,-0.08619126,2.9975405,8.0,9.357179,-0.08172209,2.901134,0.068101734,-0.013620348,-0.027240695,2017-06-08 22:02:22,75.6512065713912
9.423578,-0.10534488,2.8634653,8.0,9.343558,-0.095342435,2.941995,0.05448139,0.0,0.068101734,2017-06-08 22:02:23,81.4947690989989
9.385271,-0.08619126,3.0262709,8.0,9.329938,-0.08172209,2.9828563,0.027240695,0.013620348,0.095342435,2017-06-08 22:02:24,73.65016700226346
9.394848,-0.08619126,2.9400797,8.0,9.329938,-0.068101734,3.010097,0.040861044,-0.013620348,0.08172209,2017-06-08 22:02:25,78.40797431647867
9.375694,-0.08619126,3.083732,8.0,9.316318,-0.08172209,3.050958,0.040861044,-0.013620348,0.095342435,2017-06-08 22:02:26,83.8821551360887
9.452309,-0.08619126,2.7581203,11.0,9.329938,-0.068101734,2.9964767,0.12258312,0.0,-0.095342435,2017-06-08 22:02:28,83.03438281885683
9.414001,-0.08619126,2.930503,11.0,9.384419,-0.08172209,2.8330321,0.040861044,0.013620348,0.10896278,2017-06-08 22:02:29,74.66832417289149
9.414001,-0.08619126,3.0071173,11.0,9.357179,-0.08172209,2.9283745,0.040861044,0.0,0.040861044,2017-06-08 22:02:30,77.37499096760168
9.414001,-0.076614454,2.9975405,11.0,9.343558,-0.08172209,2.9556153,0.05448139,0.0,0.0,2017-06-08 22:02:31,80.05739826557188
9.404425,-0.08619126,2.9879637,11.0,9.343558,-0.068101734,2.969236,0.040861044,-0.013620348,0.027240695,2017-06-08 22:02:32,72.29943502238721
8.7053175,0.7469909,2.2026656,11.0,9.370799,-0.08172209,2.860273,-0.27240694,0.5448139,-0.47671217,2017-06-08 22:02:33,80.45641223926074
9.442732,-0.06703765,2.834735,8.0,9.452521,0.0,2.587866,-0.027240695,-0.05448139,0.4086104,2017-06-08 22:02:34,83.41815381075376
9.471462,-0.11492168,2.719813,8.0,9.452521,-0.027240695,2.587866,0.027240695,-0.05448139,0.10896278,2017-06-08 22:02:35,72.29484007894135
9.423578,-0.11492168,2.9400797,8.0,9.438901,-0.095342435,2.6559677,-0.013620348,-0.027240695,0.25878662,2017-06-08 22:02:36,77.0457984027445
9.375694,-0.10534488,3.169923,8.0,9.357179,-0.095342435,2.9147542,0.013620348,0.013620348,0.13620347,2017-06-08 22:02:37,76.23655795611447
9.260772,-0.095768064,3.6104562,8.0,9.275456,-0.095342435,3.1599207,-0.013620348,0.013620348,0.32688835,2017-06-08 22:02:38,78.68491022678793
9.299079,-0.08619126,3.4093432,8.0,9.193734,-0.095342435,3.4187074,0.095342435,0.0,0.027240695,2017-06-08 22:02:39,83.95126612794328
9.346964,-0.076614454,3.1986535,8.0,9.207355,-0.08172209,3.3506055,0.16344418,-0.013620348,-0.16344418,2017-06-08 22:02:40,82.53254787514743
9.346964,-0.06703765,3.1986535,8.0,9.261836,-0.08172209,3.2007816,0.08172209,0.013620348,0.013620348,2017-06-08 22:02:41,68.5665400531427
9.356541,-0.095768064,3.2082303,8.0,9.275456,-0.05448139,3.1871612,0.08172209,-0.040861044,0.05448139,2017-06-08 22:02:42,82.59091517280659
9.346964,-0.095768064,3.1986535,8.0,9.275456,-0.08172209,3.1871612,0.08172209,-0.013620348,0.0,2017-06-08 22:02:43,81.89304490453671
9.3661175,-0.095768064,3.1603463,8.0,9.275456,-0.08172209,3.1871612,0.095342435,-0.013620348,-0.027240695,2017-06-08 22:02:44,72.84097889309375
9.3661175,-0.08619126,3.1411927,8.0,9.275456,-0.08172209,3.1599207,0.08172209,0.013620348,-0.013620348,2017-06-08 22:02:45,80.1253618402308
9.356541,-0.08619126,3.1603463,8.0,9.289077,-0.068101734,3.1190596,0.068101734,-0.013620348,0.08172209,2017-06-08 22:02:46,82.82560323809518
9.356541,-0.06703765,3.1507695,8.0,9.275456,-0.068101734,3.1599207,0.068101734,0.013620348,0.013620348,2017-06-08 22:02:47,75.09796649164885
9.346964,-0.08619126,3.2273839,8.0,9.275456,-0.068101734,3.1735408,0.068101734,-0.013620348,0.027240695,2017-06-08 22:02:48,82.20285229696499
9.346964,-0.076614454,3.217807,8.0,9.275456,-0.068101734,3.1735408,0.08172209,-0.013620348,0.013620348,2017-06-08 22:02:49,77.82457814230067
9.356541,-0.08619126,3.1603463,8.0,9.275456,-0.068101734,3.1735408,0.068101734,-0.013620348,0.05448139,2017-06-08 22:02:50,82.33823625844012
9.356541,-0.076614454,3.1986535,8.0,9.275456,-0.08172209,3.1735408,0.068101734,-0.013620348,0.013620348,2017-06-08 22:02:51,62.83041065018494
9.337387,-0.076614454,3.1986535,8.0,9.275456,-0.05448139,3.1871612,0.068101734,-0.013620348,-0.013620348,2017-06-08 22:02:52,79.82778560379566
9.375694,-0.076614454,3.0358477,8.0,9.275456,-0.05448139,3.1735408,0.10896278,0.027240695,-0.095342435,2017-06-08 22:02:53,76.58685161998646
9.375694,-0.047884032,3.1316159,8.0,9.316318,-0.068101734,3.050958,0.12258312,0.013620348,-0.31326798,2017-06-08 22:02:54,82.98107762835558
9.356541,-0.047884032,3.083732,8.0,9.316318,-0.05448139,3.0373375,0.05448139,-0.013620348,0.068101734,2017-06-08 22:02:55,82.48513870585974
9.3182335,-0.047884032,3.3135753,8.0,9.275456,-0.040861044,3.1599207,0.040861044,-0.013620348,0.10896278,2017-06-08 22:02:56,81.31309390995108
9.346964,-0.05746084,3.217807,8.0,9.275456,-0.040861044,3.1735408,0.08172209,-0.013620348,-0.013620348,2017-06-08 22:02:57,83.48760303378691
9.346964,-0.05746084,3.217807,8.0,9.289077,-0.040861044,3.13268,0.05448139,-0.013620348,0.10896278,2017-06-08 22:02:58,84.01596911702785
9.337387,-0.06703765,3.2369606,8.0,9.275456,-0.05448139,3.1871612,0.068101734,-0.013620348,0.040861044,2017-06-08 22:02:59,81.59475975633953
9.346964,-0.06703765,3.2273839,8.0,9.261836,-0.05448139,3.2007816,0.08172209,0.0,0.027240695,2017-06-08 22:03:00,77.64452018879118
9.337387,-0.076614454,3.2465374,8.0,9.261836,-0.040861044,3.214402,0.068101734,-0.013620348,0.068101734,2017-06-08 22:03:01,81.34713593831812
9.32781,-0.06703765,3.265691,8.0,9.261836,-0.05448139,3.214402,0.08172209,0.0,0.027240695,2017-06-08 22:03:02,57.04421752182786
9.337387,-0.06703765,3.2561142,8.0,9.261836,-0.040861044,3.2280223,0.068101734,-0.027240695,0.013620348,2017-06-08 22:03:03,77.36245131282965
9.308656,-0.06703765,3.3518825,8.0,9.261836,-0.040861044,3.2280223,0.05448139,-0.013620348,0.027240695,2017-06-08 22:03:04,83.63158203714474
9.299079,-0.05746084,3.3518825,8.0,9.248216,-0.05448139,3.2416425,0.05448139,0.0,0.10896278,2017-06-08 22:03:05,82.38352106360095
9.3182335,-0.05746084,3.2465374,8.0,9.234595,-0.05448139,3.2825036,0.10896278,0.0,-0.040861044,2017-06-08 22:03:06,84.18506545129135
9.308656,-0.05746084,3.3423057,8.0,9.248216,-0.05448139,3.2552629,0.08172209,0.013620348,0.0,2017-06-08 22:03:07,83.40410505725032
9.308656,-0.05746084,3.3806129,8.0,9.234595,-0.040861044,3.2825036,0.10896278,0.0,-0.013620348,2017-06-08 22:03:08,82.1096745562795
9.3182335,-0.06703765,3.3327289,8.0,9.234595,-0.040861044,3.2825036,0.095342435,0.0,0.068101734,2017-06-08 22:03:09,77.3566549067518
9.308656,-0.06703765,3.3901896,8.0,9.234595,-0.040861044,3.296124,0.068101734,-0.013620348,0.027240695,2017-06-08 22:03:10,84.3667252769014
9.3182335,-0.076614454,3.2848446,8.0,9.234595,-0.040861044,3.2825036,0.068101734,-0.013620348,0.068101734,2017-06-08 22:03:11,81.59393569760104
9.308656,-0.05746084,3.3518825,8.0,9.234595,-0.040861044,3.296124,0.068101734,-0.013620348,-0.013620348,2017-06-08 22:03:13,65.90532339324432
9.32781,-0.05746084,3.3135753,8.0,9.234595,-0.05448139,3.2825036,0.08172209,-0.013620348,0.08172209,2017-06-08 22:03:14,72.60808469674389
9.3182335,-0.06703765,3.3614593,8.0,9.234595,-0.05448139,3.2825036,0.08172209,0.0,0.013620348,2017-06-08 22:03:15,70.0583701312319
9.32781,-0.076614454,3.323152,8.0,9.234595,-0.040861044,3.2825036,0.08172209,-0.013620348,0.013620348,2017-06-08 22:03:16,82.22575842019975
9.337387,-0.06703765,3.2561142,11.0,9.234595,-0.040861044,3.2825036,0.10896278,-0.013620348,-0.05448139,2017-06-08 22:03:17,82.39276125228429
9.337387,-0.076614454,3.2273839,11.0,9.248216,-0.040861044,3.2416425,0.095342435,-0.013620348,0.013620348,2017-06-08 22:03:18,81.65358488702424
9.337387,-0.076614454,3.2465374,11.0,9.261836,-0.05448139,3.214402,0.08172209,-0.013620348,0.068101734,2017-06-08 22:03:19,74.38434654382061
9.337387,-0.076614454,3.2273839,11.0,9.248216,-0.068101734,3.2552629,0.08172209,0.0,0.0,2017-06-08 22:03:20,72.93882129264529
9.346964,-0.076614454,3.265691,11.0,9.261836,-0.05448139,3.2007816,0.08172209,-0.013620348,0.027240695,2017-06-08 22:03:21,76.00063253534279
9.346964,-0.076614454,3.2273839,11.0,9.261836,-0.05448139,3.2007816,0.08172209,0.0,0.013620348,2017-06-08 22:03:22,82.34573086036848
9.346964,-0.06703765,3.2273839,11.0,9.261836,-0.05448139,3.2007816,0.08172209,0.0,0.027240695,2017-06-08 22:03:23,78.57356810096685
9.32781,-0.06703765,3.2465374,11.0,9.261836,-0.040861044,3.2007816,0.08172209,-0.013620348,0.027240695,2017-06-08 22:03:24,81.186361975619
9.346964,-0.05746084,3.2369606,11.0,9.261836,-0.040861044,3.214402,0.08172209,-0.013620348,0.0,2017-06-08 22:03:25,76.25519274541159
9.337387,-0.06703765,3.2561142,11.0,9.261836,-0.040861044,3.2007816,0.08172209,-0.027240695,0.040861044,2017-06-08 22:03:26,79.33280572926166
9.346964,-0.05746084,3.2465374,11.0,9.261836,-0.05448139,3.214402,0.08172209,-0.013620348,0.013620348,2017-06-08 22:03:27,76.71405742320499
9.337387,-0.06703765,3.2465374,11.0,9.261836,-0.040861044,3.214402,0.068101734,-0.027240695,0.027240695,2017-06-08 22:03:28,79.41378872602695
9.337387,-0.06703765,3.2561142,11.0,9.261836,-0.040861044,3.214402,0.08172209,-0.013620348,-0.027240695,2017-06-08 22:03:29,83.71087459425824
9.337387,-0.05746084,3.3039982,8.0,9.234595,-0.040861044,3.3097444,0.10896278,-0.013620348,-0.013620348,2017-06-08 22:03:30,82.17054496330528
9.481039,-0.06703765,2.7964275,5.0,9.289077,-0.040861044,3.1463003,0.14982383,-0.013620348,-0.24516624,2017-06-08 22:03:31,82.18713887332004
9.519346,-0.06703765,2.4612393,5.0,9.425281,-0.05448139,2.6832085,0.095342435,-0.027240695,-0.29964766,2017-06-08 22:03:32,83.48870035273684
9.643845,-0.038307227,2.0207062,5.0,9.466142,-0.040861044,2.547005,0.095342435,-0.013620348,-0.32688835,2017-06-08 22:03:33,83.33522667510778
9.682152,-0.05746084,1.8100165,5.0,9.547864,-0.05448139,2.2201166,0.12258312,-0.013620348,-0.44947144,2017-06-08 22:03:34,83.90817008005172
9.615114,-0.06703765,2.1930888,5.0,9.602345,-0.040861044,1.9613299,0.013620348,-0.013620348,0.14982383,2017-06-08 22:03:35,81.39191092550745
9.509769,-0.02873042,2.5378537,8.0,9.561484,-0.05448139,2.1520147,-0.027240695,0.027240695,0.32688835,2017-06-08 22:03:36,77.58499019199985
9.375694,-0.076614454,3.074155,8.0,9.466142,-0.05448139,2.5333848,-0.068101734,-0.013620348,0.46309182,2017-06-08 22:03:37,84.0371250970525
9.308656,-0.06703765,3.2848446,8.0,9.329938,-0.05448139,2.9964767,0.0,-0.013620348,0.23154591,2017-06-08 22:03:38,84.07511856423665
8.868123,-0.076614454,4.367024,8.0,9.193734,-0.040861044,3.405087,-0.28602728,-0.027240695,1.0215261,2017-06-08 22:03:39,81.557641160024
8.925584,-0.06703765,4.280833,8.0,8.866846,-0.040861044,4.167826,0.027240695,-0.10896278,0.17706451,2017-06-08 22:03:40,51.37005657630898
8.868123,-0.06703765,4.3861775,8.0,8.785125,-0.05448139,4.3448906,0.068101734,0.0,0.13620347,2017-06-08 22:03:41,53.293630206173844
9.299079,-0.05746084,3.3423057,8.0,8.921328,-0.040861044,4.072484,0.35412902,-0.013620348,-0.7354987,2017-06-08 22:03:42,52.05656677763143
9.270349,-0.038307227,3.4476504,8.0,9.166493,-0.040861044,3.486809,0.13620347,-0.013620348,-0.12258312,2017-06-08 22:03:43,51.06912679440783
9.011775,-0.06703765,4.0797195,8.0,9.166493,-0.040861044,3.4731886,-0.095342435,0.0,0.47671217,2017-06-08 22:03:44,53.15260378468363
8.714894,-0.047884032,4.76925,8.0,8.975809,-0.040861044,3.9499006,-0.24516624,0.0,0.8036005,2017-06-08 22:03:45,52.134052674630624
6.2823853,0.019153614,7.795521,14.0,8.417375,-0.040861044,5.025908,-2.0430522,0.040861044,2.6151068,2017-06-08 22:03:46,53.303440637441966
8.207323,-0.12449849,5.7365074,8.0,6.891896,-0.040861044,6.973618,1.2122109,-0.040861044,-1.5118586,2017-06-08 22:03:47,52.0852669189165
8.90643,-0.10534488,4.2521024,8.0,7.681876,-0.027240695,6.0882955,1.1849703,-0.068101734,-1.7434045,2017-06-08 22:03:48,52.13407073336973
8.896853,-0.095768064,4.3287168,8.0,8.717022,-0.05448139,4.4947147,0.17706451,-0.040861044,-0.16344418,2017-06-08 22:03:49,51.64810998303337
8.90643,-0.08619126,4.2425256,5.0,8.839605,-0.08172209,4.2495484,0.068101734,-0.013620348,0.068101734,2017-06-08 22:03:50,52.934103224053786
8.90643,-0.11492168,4.2904096,5.0,8.825985,-0.08172209,4.276789,0.068101734,0.0,0.05448139,2017-06-08 22:03:51,53.64793368734142
8.858546,-0.10534488,4.357447,5.0,8.798745,-0.095342435,4.31765,0.08172209,0.0,0.040861044,2017-06-08 22:03:52,51.031847738105434
8.676587,-0.05746084,4.817134,5.0,8.771504,-0.08172209,4.372132,-0.08172209,0.027240695,0.47671217,2017-06-08 22:03:53,52.37966175705075
2.7581203,0.81402856,9.3182335,31.0,8.22669,-0.040861044,5.339176,-5.134871,0.7763598,4.0180025,2017-06-08 22:03:54,52.421477054459686
0.10534488,0.17238252,10.093954,76.0,3.6638737,0.42223078,9.0983925,-3.1599207,-0.27240694,0.84446156,2017-06-08 22:03:55,52.51057141690225
0.10534488,0.17238252,10.084377,76.0,0.19068487,0.32688835,9.80665,-0.095342435,-0.16344418,0.29964766,2017-06-08 22:03:56,51.476756770491065
0.10534488,0.17238252,10.093954,76.0,0.12258312,0.23154591,9.80665,-0.027240695,-0.05448139,0.29964766,2017-06-08 22:03:58,53.2763360582942
0.10534488,0.16280572,10.093954,76.0,0.12258312,0.23154591,9.80665,-0.027240695,-0.08172209,0.28602728,2017-06-08 22:03:59,53.2106126540246
0.095768064,0.17238252,10.1226845,76.0,0.12258312,0.23154591,9.80665,-0.027240695,-0.08172209,0.31326798,2017-06-08 22:04:00,51.77313343655739
0.095768064,0.16280572,10.1226845,76.0,0.12258312,0.23154591,9.80665,-0.027240695,-0.08172209,0.31326798,2017-06-08 22:04:01,50.82988113384066
0.095768064,0.17238252,10.1226845,76.0,0.12258312,0.21792556,9.80665,-0.027240695,-0.040861044,0.32688835,2017-06-08 22:04:02,50.955848337084944
0.10534488,0.16280572,10.103531,76.0,0.08172209,0.14982383,9.80665,0.013620348,0.0,0.31326798,2017-06-08 22:04:03,51.131880047576026
0.08619126,0.18195933,10.1226845,76.0,0.08172209,0.14982383,9.80665,0.013620348,0.013620348,0.31326798,2017-06-08 22:04:04,51.42582717209998
0.08619126,0.16280572,10.113108,76.0,0.08172209,0.14982383,9.80665,0.0,0.027240695,0.31326798,2017-06-08 22:04:05,52.90238139202798
0.08619126,0.17238252,10.103531,76.0,0.08172209,0.16344418,9.80665,0.013620348,0.013620348,0.28602728,2017-06-08 22:04:06,53.56571491329268
0.08619126,0.17238252,10.103531,76.0,0.08172209,0.16344418,9.80665,0.013620348,-0.013620348,0.29964766,2017-06-08 22:04:07,51.74372975677423
0.08619126,0.16280572,10.093954,76.0,0.068101734,0.17706451,9.80665,0.027240695,-0.013620348,0.31326798,2017-06-08 22:04:08,49.467381745539086
0.095768064,0.17238252,10.113108,76.0,0.068101734,0.17706451,9.80665,0.027240695,-0.013620348,0.28602728,2017-06-08 22:04:09,50.65059156221285
0.08619126,0.16280572,10.103531,76.0,0.068101734,0.17706451,9.80665,0.027240695,-0.013620348,0.31326798,2017-06-08 22:04:10,52.55189087670607
0.095768064,0.18195933,10.103531,76.0,0.068101734,0.17706451,9.80665,0.027240695,-0.027240695,0.29964766,2017-06-08 22:04:11,50.7175565132761
0.10534488,0.16280572,10.103531,76.0,0.068101734,0.17706451,9.80665,0.027240695,-0.013620348,0.28602728,2017-06-08 22:04:12,50.56529783045397
0.10534488,0.17238252,10.084377,79.0,0.05448139,0.17706451,9.80665,0.040861044,-0.013620348,0.28602728,2017-06-08 22:04:13,51.90887252753506
0.08619126,0.16280572,10.093954,76.0,0.068101734,0.17706451,9.80665,0.027240695,-0.013620348,0.29964766,2017-06-08 22:04:14,50.02274027771652
0.095768064,0.17238252,10.103531,76.0,0.068101734,0.17706451,9.80665,0.027240695,0.0,0.29964766,2017-06-08 22:04:15,51.402758429932845
0.095768064,0.16280572,10.084377,79.0,0.05448139,0.17706451,9.80665,0.040861044,-0.027240695,0.29964766,2017-06-08 22:04:16,51.39939102616992
0.095768064,0.16280572,10.093954,76.0,0.040861044,0.17706451,9.80665,0.05448139,-0.027240695,0.27240694,2017-06-08 22:04:17,50.63046011848307
0.095768064,0.16280572,10.084377,76.0,0.05448139,0.16344418,9.80665,0.027240695,0.0,0.28602728,2017-06-08 22:04:18,51.31972171540666
0.095768064,0.17238252,10.103531,76.0,0.068101734,0.16344418,9.80665,0.027240695,0.0,0.29964766,2017-06-08 22:04:19,50.735188291263206
0.10534488,0.16280572,10.084377,76.0,0.068101734,0.16344418,9.80665,0.027240695,0.0,0.29964766,2017-06-08 22:04:20,51.85477921335967
0.08619126,0.17238252,10.103531,76.0,0.08172209,0.16344418,9.80665,0.013620348,0.0,0.27240694,2017-06-08 22:04:21,50.46474727040283
0.076614454,0.18195933,10.103531,76.0,0.08172209,0.16344418,9.80665,0.0,0.0,0.28602728,2017-06-08 22:04:22,50.79185424980932
0.095768064,0.16280572,10.103531,76.0,0.08172209,0.16344418,9.80665,0.013620348,-0.013620348,0.27240694,2017-06-08 22:04:23,52.111241094493224
0.10534488,0.16280572,10.084377,76.0,0.08172209,0.16344418,9.80665,0.013620348,0.0,0.29964766,2017-06-08 22:04:24,55.57535874470339
0.11492168,0.15322891,10.084377,76.0,0.08172209,0.16344418,9.80665,0.013620348,-0.013620348,0.29964766,2017-06-08 22:04:25,52.465317432619955
0.10534488,0.16280572,10.093954,76.0,0.08172209,0.16344418,9.80665,0.013620348,0.0,0.27240694,2017-06-08 22:04:26,52.46308754751125
0.10534488,0.15322891,10.093954,76.0,0.08172209,0.14982383,9.80665,0.013620348,0.0,0.29964766,2017-06-08 22:04:27,53.42205226222557
0.095768064,0.18195933,10.093954,76.0,0.08172209,0.14982383,9.80665,0.013620348,0.013620348,0.29964766,2017-06-08 22:04:28,53.32155116604941
0.10534488,0.17238252,10.113108,76.0,0.068101734,0.14982383,9.80665,0.027240695,0.013620348,0.31326798,2017-06-08 22:04:29,50.160225532503794
0.095768064,0.16280572,10.103531,76.0,0.068101734,0.14982383,9.80665,0.027240695,0.013620348,0.28602728,2017-06-08 22:04:30,51.731090394693055
0.095768064,0.16280572,10.103531,76.0,0.068101734,0.14982383,9.80665,0.027240695,0.0,0.27240694,2017-06-08 22:04:31,51.211088202758084
0.095768064,0.16280572,10.1226845,76.0,0.068101734,0.14982383,9.80665,0.013620348,0.013620348,0.27240694,2017-06-08 22:04:32,53.31298153169479
0.10534488,0.18195933,10.084377,76.0,0.068101734,0.16344418,9.80665,0.013620348,0.013620348,0.29964766,2017-06-08 22:04:33,55.07411791048436
0.08619126,0.17238252,10.103531,76.0,0.068101734,0.16344418,9.80665,0.027240695,0.013620348,0.28602728,2017-06-08 22:04:34,52.026208337965684
0.08619126,0.17238252,10.103531,76.0,0.08172209,0.16344418,9.80665,0.0,0.0,0.27240694,2017-06-08 22:04:35,51.717204126042176
0.095768064,0.16280572,10.0748005,76.0,0.08172209,0.16344418,9.80665,0.013620348,0.0,0.28602728,2017-06-08 22:04:36,52.200548485472666
0.095768064,0.17238252,10.093954,76.0,0.08172209,0.16344418,9.80665,0.013620348,0.0,0.29964766,2017-06-08 22:04:37,53.695260108351974
0.10534488,0.15322891,10.084377,76.0,0.08172209,0.16344418,9.80665,0.013620348,-0.013620348,0.27240694,2017-06-08 22:04:38,51.199474642420284
0.08619126,0.18195933,10.084377,76.0,0.08172209,0.16344418,9.80665,0.0,0.013620348,0.28602728,2017-06-08 22:04:39,50.72528011210193
0.08619126,0.17238252,10.084377,76.0,0.08172209,0.16344418,9.80665,0.013620348,-0.013620348,0.28602728,2017-06-08 22:04:40,53.06021596461322
0.08619126,0.17238252,10.084377,76.0,0.08172209,0.16344418,9.80665,0.0,0.0,0.27240694,2017-06-08 22:04:41,54.95707886955248
0.10534488,0.16280572,10.093954,76.0,0.068101734,0.16344418,9.80665,0.027240695,0.0,0.27240694,2017-06-08 22:04:43,54.60991127626098
0.10534488,0.17238252,10.103531,76.0,0.068101734,0.14982383,9.80665,0.027240695,0.0,0.29964766,2017-06-08 22:04:44,51.51268505598718
0.095768064,0.17238252,10.084377,76.0,0.068101734,0.14982383,9.80665,0.013620348,0.0,0.28602728,2017-06-08 22:04:45,51.72535669459397
0.095768064,0.17238252,10.103531,76.0,0.068101734,0.16344418,9.80665,0.027240695,0.0,0.29964766,2017-06-08 22:04:46,50.90685797356305
0.095768064,0.17238252,10.103531,76.0,0.068101734,0.16344418,9.80665,0.013620348,0.013620348,0.28602728,2017-06-08 22:04:47,51.08250451159469
0.095768064,0.16280572,10.093954,76.0,0.068101734,0.16344418,9.80665,0.027240695,-0.013620348,0.29964766,2017-06-08 22:04:48,52.96810002913883
0.10534488,0.17238252,10.093954,76.0,0.068101734,0.16344418,9.80665,0.027240695,-0.013620348,0.27240694,2017-06-08 22:04:49,53.43876141086006
0.10534488,0.16280572,10.093954,76.0,0.068101734,0.16344418,9.80665,0.040861044,-0.013620348,0.28602728,2017-06-08 22:04:50,53.39205668058242
0.10534488,0.17238252,10.093954,76.0,0.068101734,0.14982383,9.80665,0.027240695,-0.013620348,0.27240694,2017-06-08 22:04:51,52.871744288482454
0.095768064,0.16280572,10.103531,76.0,0.068101734,0.14982383,9.80665,0.027240695,0.0,0.29964766,2017-06-08 22:04:52,51.1041081104236
0.095768064,0.17238252,10.113108,76.0,0.068101734,0.14982383,9.80665,0.013620348,0.027240695,0.29964766,2017-06-08 22:04:53,51.360022582347035
0.10534488,0.16280572,10.084377,76.0,0.08172209,0.16344418,9.80665,0.013620348,-0.013620348,0.27240694,2017-06-08 22:04:54,51.06096182596599
0.095768064,0.16280572,10.103531,76.0,0.08172209,0.16344418,9.80665,0.0,0.0,0.28602728,2017-06-08 22:04:55,52.004028884648335
0.10534488,0.17238252,10.103531,76.0,0.08172209,0.16344418,9.80665,0.013620348,-0.013620348,0.27240694,2017-06-08 22:04:56,50.96754187339428
0.10534488,0.15322891,10.084377,76.0,0.08172209,0.16344418,9.80665,0.013620348,0.0,0.29964766,2017-06-08 22:04:57,48.62672018554997
0.076614454,0.17238252,10.103531,76.0,0.08172209,0.16344418,9.80665,-0.013620348,0.0,0.29964766,2017-06-08 22:04:58,50.90971744567434
0.08619126,0.17238252,10.084377,76.0,0.08172209,0.16344418,9.80665,0.013620348,-0.013620348,0.28602728,2017-06-08 22:04:59,51.54537881538247
0.10534488,0.17238252,10.093954,76.0,0.08172209,0.17706451,9.80665,0.0,-0.013620348,0.28602728,2017-06-08 22:05:00,50.99576510580961
0.10534488,0.16280572,10.093954,76.0,0.068101734,0.16344418,9.80665,0.027240695,0.0,0.29964766,2017-06-08 22:05:01,52.498747334205035
0.08619126,0.17238252,10.084377,76.0,0.068101734,0.16344418,9.80665,0.013620348,0.013620348,0.31326798,2017-06-08 22:05:02,51.80797593945265
0.10534488,0.17238252,10.093954,76.0,0.068101734,0.16344418,9.80665,0.027240695,-0.013620348,0.29964766,2017-06-08 22:05:03,51.03828624850423
0.095768064,0.16280572,10.093954,76.0,0.068101734,0.16344418,9.80665,0.027240695,-0.013620348,0.28602728,2017-06-08 22:05:04,50.00769545850241
0.08619126,0.17238252,10.084377,76.0,0.05448139,0.16344418,9.80665,0.040861044,-0.013620348,0.28602728,2017-06-08 22:05:05,49.05095032177833
0.10534488,0.17238252,10.093954,76.0,0.05448139,0.16344418,9.80665,0.040861044,-0.013620348,0.28602728,2017-06-08 22:05:06,52.14886327881721
0.095768064,0.16280572,10.084377,76.0,0.05448139,0.16344418,9.80665,0.027240695,0.0,0.29964766,2017-06-08 22:05:07,50.258200115542955
0.095768064,0.17238252,10.103531,76.0,0.068101734,0.16344418,9.80665,0.027240695,0.0,0.27240694,2017-06-08 22:05:08,53.05649767102381
0.10534488,0.15322891,10.093954,76.0,0.068101734,0.16344418,9.80665,0.027240695,-0.013620348,0.27240694,2017-06-08 22:05:09,53.39571849404738
0.08619126,0.16280572,10.103531,76.0,0.08172209,0.16344418,9.80665,0.013620348,-0.013620348,0.27240694,2017-06-08 22:05:10,51.95073703667292
0.08619126,0.17238252,10.093954,76.0,0.068101734,0.16344418,9.80665,0.027240695,-0.013620348,0.27240694,2017-06-08 22:05:11,60.79026016277004
0.08619126,0.16280572,10.084377,76.0,0.068101734,0.16344418,9.80665,0.013620348,-0.013620348,0.27240694,2017-06-08 22:05:12,53.727061761389685
0.08619126,0.17238252,10.093954,76.0,0.068101734,0.16344418,9.80665,0.027240695,-0.013620348,0.27240694,2017-06-08 22:05:13,50.13067651920855
0.095768064,0.16280572,10.084377,76.0,0.068101734,0.16344418,9.80665,0.027240695,-0.013620348,0.29964766,2017-06-08 22:05:14,53.38223897637967
0.08619126,0.17238252,10.093954,76.0,0.068101734,0.16344418,9.80665,0.027240695,0.013620348,0.29964766,2017-06-08 22:05:15,53.17275952241125
0.08619126,0.16280572,10.103531,76.0,0.068101734,0.16344418,9.80665,0.013620348,-0.013620348,0.29964766,2017-06-08 22:05:16,52.69742325667028
0.095768064,0.17238252,10.103531,76.0,0.068101734,0.16344418,9.80665,0.013620348,0.013620348,0.28602728,2017-06-08 22:05:17,52.085175352147665
0.095768064,0.17238252,10.103531,76.0,0.068101734,0.16344418,9.80665,0.027240695,0.0,0.28602728,2017-06-08 22:05:18,53.47890140871496
0.08619126,0.17238252,10.093954,76.0,0.068101734,0.16344418,9.80665,0.027240695,-0.013620348,0.29964766,2017-06-08 22:05:19,52.82856294341447
0.08619126,0.17238252,10.103531,76.0,0.068101734,0.16344418,9.80665,0.013620348,0.0,0.29964766,2017-06-08 22:05:20,53.59082192580426
0.10534488,0.16280572,10.103531,76.0,0.068101734,0.16344418,9.80665,0.027240695,0.0,0.28602728,2017-06-08 22:05:21,52.44701560689806
0.08619126,0.16280572,10.103531,76.0,0.05448139,0.16344418,9.80665,0.027240695,0.0,0.29964766,2017-06-08 22:05:22,51.17109482532083
0.095768064,0.17238252,10.103531,76.0,0.05448139,0.16344418,9.80665,0.027240695,0.013620348,0.28602728,2017-06-08 22:05:23,53.02274571340706
0.08619126,0.17238252,10.103531,76.0,0.068101734,0.16344418,9.80665,0.013620348,0.0,0.29964766,2017-06-08 22:05:24,52.991381999666146
0.08619126,0.17238252,10.103531,76.0,0.068101734,0.16344418,9.80665,0.027240695,0.013620348,0.28602728,2017-06-08 22:05:25,51.62565447267876
0.08619126,0.16280572,10.093954,76.0,0.068101734,0.16344418,9.80665,0.013620348,0.0,0.28602728,2017-06-08 22:05:27,52.59809080375927
0.095768064,0.17238252,10.093954,76.0,0.08172209,0.16344418,9.80665,0.0,-0.013620348,0.31326798,2017-06-08 22:05:28,51.89884525599925
0.095768064,0.17238252,10.093954,76.0,0.08172209,0.16344418,9.80665,0.013620348,0.0,0.28602728,2017-06-08 22:05:29,51.834394390473804
0.08619126,0.17238252,10.093954,76.0,0.08172209,0.16344418,9.80665,0.013620348,-0.013620348,0.27240694,2017-06-08 22:05:30,52.62489867470576
0.08619126,0.15322891,10.084377,76.0,0.08172209,0.16344418,9.80665,0.013620348,-0.013620348,0.28602728,2017-06-08 22:05:31,52.75769300172796
0.095768064,0.16280572,10.103531,76.0,0.08172209,0.16344418,9.80665,0.0,0.0,0.28602728,2017-06-08 22:05:32,53.15782999167668
0.08619126,0.17238252,10.103531,76.0,0.08172209,0.16344418,9.80665,0.013620348,0.0,0.29964766,2017-06-08 22:05:33,51.07156384624357
0.10534488,0.17238252,10.103531,79.0,0.068101734,0.16344418,9.80665,0.027240695,-0.013620348,0.28602728,2017-06-08 22:05:34,50.262669898604656
0.08619126,0.18195933,10.103531,79.0,0.068101734,0.16344418,9.80665,0.013620348,-0.013620348,0.27240694,2017-06-08 22:05:35,49.928260881980265
0.095768064,0.18195933,10.103531,76.0,0.068101734,0.16344418,9.80665,0.013620348,0.0,0.28602728,2017-06-08 22:05:36,51.27224871075947
0.095768064,0.17238252,10.084377,79.0,0.05448139,0.16344418,9.80665,0.040861044,0.0,0.28602728,2017-06-08 22:05:37,51.91806575862293
0.095768064,0.16280572,10.103531,79.0,0.068101734,0.16344418,9.80665,0.027240695,-0.013620348,0.28602728,2017-06-08 22:05:38,49.28790756443646
0.095768064,0.17238252,10.103531,76.0,0.068101734,0.16344418,9.80665,0.027240695,0.013620348,0.29964766,2017-06-08 22:05:39,50.21273997622325
0.095768064,0.18195933,10.084377,79.0,0.068101734,0.16344418,9.80665,0.013620348,0.0,0.29964766,2017-06-08 22:05:40,52.034263008997655
0.08619126,0.16280572,10.103531,79.0,0.068101734,0.16344418,9.80665,0.027240695,0.013620348,0.28602728,2017-06-08 22:05:41,52.74219112516729
0.08619126,0.16280572,10.103531,76.0,0.068101734,0.16344418,9.80665,0.027240695,0.0,0.31326798,2017-06-08 22:05:42,51.5039813342474
0.10534488,0.16280572,10.093954,76.0,0.068101734,0.16344418,9.80665,0.013620348,0.0,0.28602728,2017-06-08 22:05:43,50.67292604305845
0.08619126,0.15322891,10.093954,79.0,0.068101734,0.16344418,9.80665,0.027240695,-0.013620348,0.29964766,2017-06-08 22:05:44,52.840786293121425
0.095768064,0.15322891,10.084377,76.0,0.068101734,0.16344418,9.80665,0.027240695,-0.013620348,0.28602728,2017-06-08 22:05:45,51.79171536288422
0.095768064,0.17238252,10.103531,76.0,0.068101734,0.16344418,9.80665,0.027240695,0.0,0.29964766,2017-06-08 22:05:46,52.75863515675742
0.095768064,0.17238252,10.103531,76.0,0.08172209,0.16344418,9.80665,0.0,-0.013620348,0.28602728,2017-06-08 22:05:47,53.10548163784536
0.10534488,0.17238252,10.093954,76.0,0.08172209,0.16344418,9.80665,0.013620348,-0.013620348,0.27240694,2017-06-08 22:05:48,52.60148903825022
0.095768064,0.17238252,10.084377,76.0,0.08172209,0.16344418,9.80665,0.013620348,-0.013620348,0.28602728,2017-06-08 22:05:49,53.768894300102595
0.08619126,0.17238252,10.103531,76.0,0.08172209,0.16344418,9.80665,0.013620348,-0.013620348,0.28602728,2017-06-08 22:05:50,50.719460253691445
0.095768064,0.16280572,10.093954,79.0,0.08172209,0.16344418,9.80665,0.013620348,0.0,0.28602728,2017-06-08 22:05:51,52.015088460323256
0.095768064,0.15322891,10.084377,79.0,0.08172209,0.16344418,9.80665,0.013620348,-0.013620348,0.28602728,2017-06-08 22:05:52,50.50164573952334
0.095768064,0.16280572,10.084377,76.0,0.08172209,0.16344418,9.80665,0.0,0.0,0.29964766,2017-06-08 22:05:53,52.776809199713526
0.076614454,0.18195933,10.103531,79.0,0.08172209,0.14982383,9.80665,0.0,0.013620348,0.28602728,2017-06-08 22:05:54,52.80359318499681
0.08619126,0.17238252,10.113108,79.0,0.08172209,0.16344418,9.80665,0.0,0.0,0.31326798,2017-06-08 22:05:55,53.22885328846699
0.08619126,0.18195933,10.093954,79.0,0.08172209,0.16344418,9.80665,0.013620348,0.0,0.29964766,2017-06-08 22:05:56,52.54942915681581
0.10534488,0.16280572,10.103531,79.0,0.08172209,0.16344418,9.80665,0.013620348,0.013620348,0.28602728,2017-06-08 22:05:57,53.53954838565252
0.095768064,0.17238252,10.103531,79.0,0.068101734,0.16344418,9.80665,0.027240695,0.0,0.31326798,2017-06-08 22:05:58,51.22779393717158
0.095768064,0.17238252,10.093954,79.0,0.068101734,0.16344418,9.80665,0.013620348,0.013620348,0.29964766,2017-06-08 22:05:59,50.81403509696823
0.095768064,0.17238252,10.103531,79.0,0.068101734,0.16344418,9.80665,0.027240695,-0.013620348,0.29964766,2017-06-08 22:06:00,53.121875053356085
0.10534488,0.17238252,10.103531,79.0,0.068101734,0.16344418,9.80665,0.013620348,0.0,0.29964766,2017-06-08 22:06:01,52.98949005475472
0.095768064,0.16280572,10.093954,79.0,0.05448139,0.16344418,9.80665,0.027240695,0.013620348,0.29964766,2017-06-08 22:06:02,53.12616343102511
0.095768064,0.16280572,10.113108,79.0,0.05448139,0.16344418,9.80665,0.040861044,0.013620348,0.31326798,2017-06-08 22:06:03,53.283665731344676
0.08619126,0.19153613,10.093954,79.0,0.05448139,0.16344418,9.80665,0.0,0.013620348,0.29964766,2017-06-08 22:06:04,52.853786391202256
0.076614454,0.17238252,10.113108,79.0,0.068101734,0.16344418,9.80665,0.027240695,0.0,0.31326798,2017-06-08 22:06:05,49.402122913545355
0.076614454,0.18195933,10.093954,79.0,0.068101734,0.16344418,9.80665,0.013620348,0.0,0.29964766,2017-06-08 22:06:06,53.92516703429973
0.08619126,0.16280572,10.103531,79.0,0.068101734,0.16344418,9.80665,0.013620348,0.013620348,0.29964766,2017-06-08 22:06:07,53.52862633321947
0.095768064,0.17238252,10.103531,79.0,0.068101734,0.16344418,9.80665,0.013620348,-0.013620348,0.31326798,2017-06-08 22:06:08,53.48293731675024
0.095768064,0.16280572,10.103531,79.0,0.068101734,0.16344418,9.80665,0.027240695,-0.013620348,0.29964766,2017-06-08 22:06:09,53.50258521129659
0.095768064,0.18195933,10.113108,79.0,0.08172209,0.16344418,9.80665,0.0,0.0,0.29964766,2017-06-08 22:06:10,49.817379690536285
0.095768064,0.18195933,10.103531,79.0,0.08172209,0.16344418,9.80665,-0.013620348,0.013620348,0.31326798,2017-06-08 22:06:11,51.397180794485735
0.08619126,0.18195933,10.103531,79.0,0.08172209,0.16344418,9.80665,0.027240695,0.0,0.28602728,2017-06-08 22:06:12,52.554569430707815
0.10534488,0.17238252,10.093954,79.0,0.068101734,0.16344418,9.80665,0.013620348,0.013620348,0.28602728,2017-06-08 22:06:13,51.566985799738546
0.08619126,0.16280572,10.093954,79.0,0.05448139,0.16344418,9.80665,0.040861044,0.0,0.29964766,2017-06-08 22:06:14,52.026514405932645
0.08619126,0.17238252,10.103531,79.0,0.05448139,0.16344418,9.80665,0.027240695,0.0,0.29964766,2017-06-08 22:06:15,53.29212616306256
0.095768064,0.16280572,10.084377,79.0,0.05448139,0.16344418,9.80665,0.040861044,-0.013620348,0.28602728,2017-06-08 22:06:16,52.51835638141074
0.10534488,0.16280572,10.084377,79.0,0.05448139,0.16344418,9.80665,0.040861044,-0.013620348,0.27240694,2017-06-08 22:06:18,50.97875396473266
0.095768064,0.16280572,10.093954,79.0,0.05448139,0.16344418,9.80665,0.027240695,0.0,0.29964766,2017-06-08 22:06:19,52.12630540335141
0.08619126,0.17238252,10.093954,79.0,0.040861044,0.16344418,9.80665,0.05448139,0.0,0.27240694,2017-06-08 22:06:20,52.532644794023895
0.08619126,0.18195933,10.093954,79.0,0.040861044,0.17706451,9.80665,0.05448139,-0.013620348,0.29964766,2017-06-08 22:06:21,56.08078378005595
0.095768064,0.16280572,10.093954,79.0,0.027240695,0.16344418,9.80665,0.068101734,-0.013620348,0.28602728,2017-06-08 22:06:22,51.00568646786424
0.08619126,0.17238252,10.103531,79.0,0.040861044,0.16344418,9.80665,0.05448139,-0.013620348,0.28602728,2017-06-08 22:06:23,54.23073976074918
0.10534488,0.16280572,10.093954,79.0,0.027240695,0.16344418,9.80665,0.068101734,-0.013620348,0.28602728,2017-06-08 22:06:24,53.793001457031494
0.10534488,0.16280572,10.084377,79.0,0.068101734,0.16344418,9.80665,0.013620348,0.0,0.28602728,2017-06-08 22:06:25,53.26880304946236
0.095768064,0.17238252,10.093954,79.0,0.08172209,0.14982383,9.80665,0.013620348,0.013620348,0.29964766,2017-06-08 22:06:26,54.77656161452194
0.095768064,0.17238252,10.103531,79.0,0.08172209,0.14982383,9.80665,0.0,0.0,0.28602728,2017-06-08 22:06:27,55.14440583168546
0.08619126,0.17238252,10.093954,79.0,0.08172209,0.14982383,9.80665,0.0,0.0,0.28602728,2017-06-08 22:06:28,55.63979194454632
0.08619126,0.17238252,10.103531,79.0,0.068101734,0.16344418,9.80665,0.027240695,-0.013620348,0.28602728,2017-06-08 22:06:29,55.43363056502742
0.10534488,0.15322891,10.084377,79.0,0.068101734,0.16344418,9.80665,0.027240695,-0.013620348,0.27240694,2017-06-08 22:06:30,54.76665630895185
0.095768064,0.16280572,10.103531,79.0,0.05448139,0.16344418,9.80665,0.027240695,0.0,0.28602728,2017-06-08 22:06:31,53.70003846523719
0.095768064,0.17238252,10.103531,79.0,0.068101734,0.16344418,9.80665,0.0,0.0,0.29964766,2017-06-08 22:06:32,54.40620019262019
0.076614454,0.18195933,10.093954,79.0,0.05448139,0.16344418,9.80665,0.040861044,0.0,0.29964766,2017-06-08 22:06:33,53.25982994186325
0.08619126,0.15322891,10.093954,79.0,0.05448139,0.16344418,9.80665,0.027240695,0.0,0.28602728,2017-06-08 22:06:34,54.26647297645598
0.095768064,0.16280572,10.084377,79.0,0.05448139,0.16344418,9.80665,0.027240695,0.0,0.28602728,2017-06-08 22:06:35,52.305282726634516
0.095768064,0.17238252,10.103531,79.0,0.05448139,0.16344418,9.80665,0.040861044,0.0,0.29964766,2017-06-08 22:06:36,53.15796750327341
0.095768064,0.17238252,10.103531,79.0,0.068101734,0.16344418,9.80665,0.013620348,-0.013620348,0.28602728,2017-06-08 22:06:37,53.23658429265207
0.076614454,0.18195933,10.103531,79.0,0.068101734,0.16344418,9.80665,0.013620348,-0.013620348,0.27240694,2017-06-08 22:06:38,52.797793166069724
0.08619126,0.18195933,10.103531,79.0,0.068101734,0.16344418,9.80665,0.0,0.0,0.28602728,2017-06-08 22:06:39,55.293859172004744
0.08619126,0.17238252,10.093954,79.0,0.068101734,0.16344418,9.80665,0.013620348,0.0,0.28602728,2017-06-08 22:06:40,50.61090062413748
0.08619126,0.17238252,10.084377,79.0,0.068101734,0.16344418,9.80665,0.0,0.013620348,0.29964766,2017-06-08 22:06:41,51.66998920078514
0.095768064,0.17238252,10.084377,76.0,0.068101734,0.16344418,9.80665,0.0,0.013620348,0.29964766,2017-06-08 22:06:42,52.109383617899674
0.08619126,0.18195933,10.093954,76.0,0.068101734,0.16344418,9.80665,0.013620348,-0.013620348,0.29964766,2017-06-08 22:06:43,50.80549598224462
0.095768064,0.17238252,10.093954,79.0,0.068101734,0.16344418,9.80665,0.013620348,0.013620348,0.29964766,2017-06-08 22:06:44,51.21951287767162
0.076614454,0.17238252,10.093954,79.0,0.068101734,0.16344418,9.80665,0.013620348,0.0,0.28602728,2017-06-08 22:06:45,52.31732538213403
0.095768064,0.17238252,10.093954,73.0,0.068101734,0.16344418,9.80665,0.0,-0.013620348,0.27240694,2017-06-08 22:06:46,49.15486302920058
0.10534488,0.17238252,10.103531,79.0,0.068101734,0.16344418,9.80665,0.013620348,0.0,0.29964766,2017-06-08 22:06:47,50.997106747447646
0.10534488,0.15322891,10.093954,79.0,0.08172209,0.16344418,9.80665,0.013620348,-0.013620348,0.27240694,2017-06-08 22:06:48,51.2875779634906
0.11492168,0.15322891,10.103531,73.0,0.08172209,0.16344418,9.80665,0.013620348,-0.013620348,0.31326798,2017-06-08 22:06:49,51.5881121024068
0.11492168,0.1436521,10.093954,73.0,0.068101734,0.16344418,9.80665,0.040861044,-0.013620348,0.28602728,2017-06-08 22:06:50,50.51642341413343
0.12449849,0.16280572,10.103531,76.0,0.068101734,0.16344418,9.80665,0.040861044,-0.013620348,0.28602728,2017-06-08 22:06:51,51.96130832797709
0.11492168,0.15322891,10.103531,73.0,0.05448139,0.16344418,9.80665,0.068101734,-0.013620348,0.29964766,2017-06-08 22:06:52,49.117767113123456
0.12449849,0.15322891,10.093954,73.0,0.068101734,0.16344418,9.80665,0.040861044,-0.027240695,0.27240694,2017-06-08 22:06:53,50.948629698474655
0.10534488,0.17238252,10.103531,73.0,0.08172209,0.16344418,9.80665,0.013620348,-0.013620348,0.29964766,2017-06-08 22:06:54,51.20309228057823
0.11492168,0.16280572,10.103531,76.0,0.08172209,0.16344418,9.80665,0.013620348,-0.013620348,0.28602728,2017-06-08 22:06:55,51.43372077222995
0.10534488,0.16280572,10.103531,73.0,0.095342435,0.16344418,9.80665,0.0,0.0,0.28602728,2017-06-08 22:06:56,53.64422783932198
0.12449849,0.15322891,10.103531,76.0,0.08172209,0.14982383,9.80665,0.013620348,0.0,0.27240694,2017-06-08 22:06:57,54.066861129211794
0.11492168,0.15322891,10.0748005,76.0,0.068101734,0.14982383,9.80665,0.027240695,0.0,0.27240694,2017-06-08 22:06:58,51.726412413054504
0.11492168,0.17238252,10.093954,76.0,0.05448139,0.14982383,9.80665,0.05448139,0.013620348,0.29964766,2017-06-08 22:06:59,53.73545362423606
0.10534488,0.15322891,10.093954,76.0,0.05448139,0.14982383,9.80665,0.05448139,0.013620348,0.29964766,2017-06-08 22:07:00,53.96105880332726
0.11492168,0.17238252,10.103531,76.0,0.040861044,0.14982383,9.80665,0.068101734,0.0,0.27240694,2017-06-08 22:07:01,52.30491103374585
0.10534488,0.17238252,10.093954,79.0,0.040861044,0.14982383,9.80665,0.068101734,-0.013620348,0.29964766,2017-06-08 22:07:02,53.576184873234624
0.12449849,0.16280572,10.093954,76.0,0.040861044,0.16344418,9.80665,0.05448139,-0.013620348,0.28602728,2017-06-08 22:07:03,54.7988692690954
0.12449849,0.15322891,10.084377,76.0,0.040861044,0.16344418,9.80665,0.068101734,-0.013620348,0.28602728,2017-06-08 22:07:04,55.21276229429155
0.11492168,0.15322891,10.103531,76.0,0.08172209,0.14982383,9.80665,0.027240695,0.0,0.27240694,2017-06-08 22:07:06,55.88868117569235
0.11492168,0.16280572,10.093954,76.0,0.08172209,0.14982383,9.80665,0.013620348,0.013620348,0.29964766,2017-06-08 22:07:07,53.23749973534949
0.12449849,0.1436521,10.093954,79.0,0.068101734,0.14982383,9.80665,0.027240695,0.0,0.28602728,2017-06-08 22:07:08,52.44909217920109
0.12449849,0.15322891,10.084377,79.0,0.05448139,0.14982383,9.80665,0.040861044,0.013620348,0.28602728,2017-06-08 22:07:09,53.48961197695093
0.11492168,0.15322891,10.093954,79.0,0.068101734,0.14982383,9.80665,0.040861044,0.0,0.28602728,2017-06-08 22:07:10,54.764824219736006
0.12449849,0.16280572,10.103531,79.0,0.068101734,0.14982383,9.80665,0.040861044,0.0,0.28602728,2017-06-08 22:07:11,54.54502256089675
0.1340753,0.15322891,10.093954,79.0,0.08172209,0.14982383,9.80665,0.027240695,0.0,0.28602728,2017-06-08 22:07:12,53.76036612699895
0.11492168,0.15322891,10.084377,79.0,0.08172209,0.14982383,9.80665,0.040861044,0.0,0.27240694,2017-06-08 22:07:13,53.199643027563546
0.11492168,0.16280572,10.093954,79.0,0.068101734,0.14982383,9.80665,0.040861044,-0.013620348,0.27240694,2017-06-08 22:07:14,54.00783891357223
0.11492168,0.1436521,10.093954,79.0,0.08172209,0.14982383,9.80665,0.040861044,-0.027240695,0.27240694,2017-06-08 22:07:15,55.411601266073674
0.12449849,0.1436521,10.0748005,79.0,0.08172209,0.14982383,9.80665,0.040861044,0.0,0.28602728,2017-06-08 22:07:16,54.81076974779471
0.11492168,0.15322891,10.103531,79.0,0.095342435,0.14982383,9.80665,0.027240695,0.0,0.28602728,2017-06-08 22:07:17,53.93032017553152
0.12449849,0.15322891,10.093954,79.0,0.095342435,0.14982383,9.80665,0.027240695,0.0,0.27240694,2017-06-08 22:07:18,54.78778496057907
0.12449849,0.15322891,10.084377,79.0,0.095342435,0.14982383,9.80665,0.013620348,0.013620348,0.31326798,2017-06-08 22:07:19,54.666692753555836
0.12449849,0.16280572,10.093954,79.0,0.095342435,0.14982383,9.80665,0.0,0.0,0.28602728,2017-06-08 22:07:20,54.07999122756146
0.12449849,0.16280572,10.093954,79.0,0.08172209,0.14982383,9.80665,0.027240695,0.0,0.27240694,2017-06-08 22:07:21,55.475323290501024
0.11492168,0.17238252,10.093954,79.0,0.08172209,0.14982383,9.80665,0.027240695,0.0,0.27240694,2017-06-08 22:07:22,53.47379084161489
0.11492168,0.15322891,10.093954,79.0,0.068101734,0.14982383,9.80665,0.027240695,0.013620348,0.27240694,2017-06-08 22:07:23,52.76617897373142
0.12449849,0.17238252,10.103531,79.0,0.08172209,0.14982383,9.80665,0.040861044,0.0,0.27240694,2017-06-08 22:07:24,54.41484109440982
0.11492168,0.15322891,10.093954,79.0,0.08172209,0.14982383,9.80665,0.040861044,0.013620348,0.29964766,2017-06-08 22:07:25,54.18410519428302
0.10534488,0.16280572,10.093954,76.0,0.08172209,0.14982383,9.80665,0.027240695,-0.013620348,0.29964766,2017-06-08 22:07:26,56.17156674400797
0.11492168,0.17238252,10.103531,79.0,0.08172209,0.14982383,9.80665,0.040861044,0.0,0.28602728,2017-06-08 22:07:27,55.230942063896144
0.11492168,0.15322891,10.093954,79.0,0.08172209,0.14982383,9.80665,0.027240695,0.0,0.28602728,2017-06-08 22:07:28,53.63541019354201
0.12449849,0.15322891,10.093954,79.0,0.08172209,0.14982383,9.80665,0.027240695,0.0,0.29964766,2017-06-08 22:07:29,55.72030398465682
0.10534488,0.17238252,10.093954,79.0,0.08172209,0.14982383,9.80665,0.013620348,0.013620348,0.28602728,2017-06-08 22:07:30,53.989193018129704
0.10534488,0.16280572,10.103531,79.0,0.08172209,0.14982383,9.80665,0.013620348,0.013620348,0.28602728,2017-06-08 22:07:31,54.09992773996429
0.11492168,0.16280572,10.103531,79.0,0.08172209,0.14982383,9.80665,0.027240695,0.0,0.27240694,2017-06-08 22:07:32,55.74524917415401
0.095768064,0.17238252,10.084377,79.0,0.08172209,0.14982383,9.80665,0.013620348,0.0,0.28602728,2017-06-08 22:07:33,53.75961240821827
0.095768064,0.16280572,10.093954,79.0,0.08172209,0.16344418,9.80665,0.013620348,-0.013620348,0.28602728,2017-06-08 22:07:34,55.085701565539836
0.10534488,0.15322891,10.103531,79.0,0.08172209,0.16344418,9.80665,0.013620348,-0.013620348,0.28602728,2017-06-08 22:07:35,53.69436816947086
0.095768064,0.17238252,10.084377,79.0,0.08172209,0.16344418,9.80665,0.013620348,0.0,0.28602728,2017-06-08 22:07:36,53.03041842673426
0.10534488,0.17238252,10.093954,79.0,0.08172209,0.16344418,9.80665,0.013620348,-0.013620348,0.29964766,2017-06-08 22:07:37,53.679106579561726
0.10534488,0.17238252,10.093954,79.0,0.08172209,0.16344418,9.80665,0.013620348,0.0,0.28602728,2017-06-08 22:07:38,54.91198956145947
0.10534488,0.16280572,10.103531,79.0,0.068101734,0.16344418,9.80665,0.027240695,0.0,0.28602728,2017-06-08 22:07:39,52.19344438000608
0.11492168,0.17238252,10.113108,79.0,0.068101734,0.16344418,9.80665,0.027240695,0.0,0.28602728,2017-06-08 22:07:40,53.121089171262376
0.11492168,0.16280572,10.103531,79.0,0.068101734,0.14982383,9.80665,0.027240695,0.013620348,0.28602728,2017-06-08 22:07:41,52.50389098900157
0.11492168,0.17238252,10.084377,79.0,0.08172209,0.16344418,9.80665,0.013620348,0.0,0.28602728,2017-06-08 22:07:42,55.76829827680968
0.095768064,0.16280572,10.093954,79.0,0.08172209,0.16344418,9.80665,0.013620348,0.0,0.29964766,2017-06-08 22:07:43,52.84740755954818
0.095768064,0.16280572,10.093954,79.0,0.068101734,0.16344418,9.80665,0.027240695,-0.013620348,0.28602728,2017-06-08 22:07:44,54.7731042792808
0.10534488,0.16280572,10.113108,79.0,0.068101734,0.16344418,9.80665,0.040861044,0.0,0.29964766,2017-06-08 22:07:45,52.094856584605125
0.10534488,0.16280572,10.093954,79.0,0.068101734,0.16344418,9.80665,0.027240695,-0.013620348,0.28602728,2017-06-08 22:07:46,55.00036108738335
0.095768064,0.16280572,10.093954,79.0,0.068101734,0.16344418,9.80665,0.027240695,0.0,0.27240694,2017-06-08 22:07:47,53.09649203982633
0.095768064,0.17238252,10.103531,79.0,0.08172209,0.16344418,9.80665,0.013620348,0.0,0.29964766,2017-06-08 22:07:48,53.71675850149185
0.10534488,0.16280572,10.113108,79.0,0.08172209,0.16344418,9.80665,0.013620348,0.013620348,0.29964766,2017-06-08 22:07:49,53.846624594711784
0.10534488,0.17238252,10.084377,79.0,0.08172209,0.16344418,9.80665,0.027240695,-0.013620348,0.27240694,2017-06-08 22:07:51,55.624603218504866
0.095768064,0.16280572,10.093954,79.0,0.08172209,0.16344418,9.80665,0.013620348,-0.013620348,0.27240694,2017-06-08 22:07:52,53.14859136792557
0.11492168,0.16280572,10.084377,79.0,0.08172209,0.16344418,9.80665,0.027240695,-0.013620348,0.28602728,2017-06-08 22:07:53,54.25324075735121
0.095768064,0.17238252,10.093954,79.0,0.068101734,0.16344418,9.80665,0.027240695,-0.013620348,0.27240694,2017-06-08 22:07:54,54.42053104317212
0.11492168,0.17238252,10.103531,79.0,0.08172209,0.14982383,9.80665,0.013620348,0.013620348,0.29964766,2017-06-08 22:07:55,53.553531066499964
0.11492168,0.16280572,10.093954,79.0,0.08172209,0.14982383,9.80665,0.013620348,0.0,0.27240694,2017-06-08 22:07:56,54.216509806007835
0.11492168,0.16280572,10.103531,79.0,0.068101734,0.14982383,9.80665,0.027240695,0.013620348,0.29964766,2017-06-08 22:07:57,53.37739743029876
0.11492168,0.16280572,10.103531,79.0,0.05448139,0.14982383,9.80665,0.040861044,0.013620348,0.28602728,2017-06-08 22:07:58,54.45829082634643
0.10534488,0.17238252,10.093954,79.0,0.068101734,0.14982383,9.80665,0.027240695,0.0,0.28602728,2017-06-08 22:07:59,55.89036588989479
0.10534488,0.16280572,10.103531,79.0,0.095342435,0.14982383,9.80665,0.0,0.0,0.28602728,2017-06-08 22:08:00,54.17703458346991
0.10534488,0.16280572,10.113108,79.0,0.08172209,0.14982383,9.80665,0.013620348,0.0,0.31326798,2017-06-08 22:08:01,54.0857338044037
0.10534488,0.16280572,10.103531,79.0,0.08172209,0.14982383,9.80665,0.013620348,0.013620348,0.28602728,2017-06-08 22:08:02,54.32120295264796
0.10534488,0.18195933,10.113108,79.0,0.08172209,0.14982383,9.80665,0.013620348,0.027240695,0.28602728,2017-06-08 22:08:03,55.02263264117041
0.11492168,0.17238252,10.113108,73.0,0.08172209,0.16344418,9.80665,0.013620348,-0.013620348,0.29964766,2017-06-08 22:08:04,54.435672977750464
0.10534488,0.16280572,10.093954,79.0,0.08172209,0.16344418,9.80665,0.013620348,0.0,0.28602728,2017-06-08 22:08:05,53.4946755044951
0.11492168,0.15322891,10.103531,79.0,0.08172209,0.16344418,9.80665,0.013620348,-0.013620348,0.28602728,2017-06-08 22:08:06,53.06979116523198
0.10534488,0.17238252,10.103531,79.0,0.08172209,0.16344418,9.80665,0.013620348,0.0,0.29964766,2017-06-08 22:08:07,53.51015625169013
0.095768064,0.16280572,10.093954,79.0,0.08172209,0.16344418,9.80665,0.013620348,0.0,0.31326798,2017-06-08 22:08:08,53.192211822086435
0.095768064,0.17238252,10.103531,79.0,0.08172209,0.16344418,9.80665,0.013620348,0.0,0.29964766,2017-06-08 22:08:09,54.13793807344167
0.10534488,0.17238252,10.093954,79.0,0.08172209,0.16344418,9.80665,0.013620348,-0.013620348,0.29964766,2017-06-08 22:08:10,52.63360642118379
0.10534488,0.16280572,10.084377,5.0,0.08172209,0.16344418,9.80665,0.013620348,-0.013620348,0.27240694,2017-06-08 22:08:11,56.39811602816352
0.11492168,0.15322891,10.084377,79.0,0.08172209,0.16344418,9.80665,0.013620348,-0.013620348,0.27240694,2017-06-08 22:08:12,57.92884606431684
0.10534488,0.16280572,10.103531,79.0,0.068101734,0.16344418,9.80665,0.027240695,-0.013620348,0.27240694,2017-06-08 22:08:13,52.139492638106645
0.095768064,0.16280572,10.103531,79.0,0.08172209,0.14982383,9.80665,0.0,0.027240695,0.28602728,2017-06-08 22:08:14,52.88444046218363
0.11492168,0.16280572,10.093954,79.0,0.08172209,0.14982383,9.80665,0.013620348,0.0,0.28602728,2017-06-08 22:08:15,52.57486924142458
0.11492168,0.16280572,10.084377,79.0,0.08172209,0.14982383,9.80665,0.013620348,0.0,0.29964766,2017-06-08 22:08:16,53.02765580660982
0.12449849,0.15322891,10.084377,79.0,0.068101734,0.14982383,9.80665,0.05448139,0.0,0.27240694,2017-06-08 22:08:17,50.64434747064371
0.11492168,0.15322891,10.103531,79.0,0.095342435,0.14982383,9.80665,0.027240695,0.0,0.28602728,2017-06-08 22:08:18,52.03224353770936
0.10534488,0.18195933,10.113108,79.0,0.095342435,0.14982383,9.80665,-0.013620348,0.0,0.28602728,2017-06-08 22:08:19,51.21605624471794
0.095768064,0.17238252,10.084377,79.0,0.095342435,0.14982383,9.80665,-0.013620348,0.0,0.28602728,2017-06-08 22:08:20,52.93717439197616
0.08619126,0.17238252,10.103531,79.0,0.095342435,0.16344418,9.80665,0.0,0.0,0.29964766,2017-06-08 22:08:21,51.326114654753525
0.095768064,0.16280572,10.103531,79.0,0.095342435,0.16344418,9.80665,0.0,0.0,0.31326798,2017-06-08 22:08:22,53.00138961760026
0.095768064,0.16280572,10.113108,79.0,0.08172209,0.17706451,9.80665,0.013620348,-0.027240695,0.31326798,2017-06-08 22:08:23,51.84127653108472
0.10534488,0.17238252,10.103531,76.0,0.08172209,0.17706451,9.80665,0.013620348,-0.027240695,0.28602728,2017-06-08 22:08:24,53.682652306672665
0.095768064,0.17238252,10.113108,79.0,0.08172209,0.17706451,9.80665,0.013620348,-0.013620348,0.28602728,2017-06-08 22:08:25,52.45109844883574
0.10534488,0.17238252,10.103531,79.0,0.08172209,0.17706451,9.80665,0.013620348,-0.027240695,0.28602728,2017-06-08 22:08:26,51.426115188588184
0.10534488,0.16280572,10.103531,79.0,0.068101734,0.16344418,9.80665,0.027240695,-0.013620348,0.31326798,2017-06-08 22:08:27,52.84354080449374
0.11492168,0.15322891,10.093954,79.0,0.068101734,0.17706451,9.80665,0.027240695,-0.027240695,0.31326798,2017-06-08 22:08:28,54.35264781637473
0.10534488,0.17238252,10.113108,76.0,0.068101734,0.17706451,9.80665,0.040861044,-0.013620348,0.28602728,2017-06-08 22:08:29,53.95846254849194
0.11492168,0.17238252,10.084377,76.0,0.068101734,0.17706451,9.80665,0.027240695,-0.027240695,0.28602728,2017-06-08 22:08:30,53.838675494064354
0.10534488,0.17238252,10.093954,79.0,0.08172209,0.16344418,9.80665,0.013620348,-0.013620348,0.28602728,2017-06-08 22:08:31,53.232249301272304
0.11492168,0.17238252,10.103531,79.0,0.08172209,0.16344418,9.80665,0.013620348,-0.013620348,0.28602728,2017-06-08 22:08:32,51.62911517609311
0.10534488,0.16280572,10.113108,79.0,0.08172209,0.16344418,9.80665,0.013620348,-0.013620348,0.28602728,2017-06-08 22:08:33,51.794687463076244
0.10534488,0.15322891,10.103531,79.0,0.068101734,0.16344418,9.80665,0.040861044,-0.013620348,0.28602728,2017-06-08 22:08:35,54.08969594488671
0.10534488,0.16280572,10.093954,79.0,0.08172209,0.16344418,9.80665,0.027240695,0.0,0.28602728,2017-06-08 22:08:36,55.31967315418764
0.10534488,0.1436521,10.084377,79.0,0.08172209,0.16344418,9.80665,0.027240695,-0.013620348,0.28602728,2017-06-08 22:08:37,52.240397380264184
0.11492168,0.17238252,10.103531,79.0,0.08172209,0.14982383,9.80665,0.027240695,0.0,0.27240694,2017-06-08 22:08:38,50.88181055793483
0.10534488,0.17238252,10.103531,79.0,0.068101734,0.14982383,9.80665,0.040861044,0.0,0.28602728,2017-06-08 22:08:39,53.56926159159114
0.11492168,0.16280572,10.113108,79.0,0.08172209,0.14982383,9.80665,0.027240695,0.0,0.28602728,2017-06-08 22:08:40,52.26177345903423
0.095768064,0.16280572,10.084377,79.0,0.08172209,0.14982383,9.80665,0.027240695,0.013620348,0.28602728,2017-06-08 22:08:41,51.45184786949261
0.10534488,0.15322891,10.103531,79.0,0.08172209,0.14982383,9.80665,0.013620348,0.0,0.29964766,2017-06-08 22:08:42,53.30864348369392
0.10534488,0.16280572,10.093954,79.0,0.08172209,0.14982383,9.80665,0.027240695,0.0,0.27240694,2017-06-08 22:08:43,51.496608345531
0.10534488,0.15322891,10.103531,79.0,0.08172209,0.14982383,9.80665,0.013620348,0.0,0.27240694,2017-06-08 22:08:44,52.69589934915331
0.11492168,0.16280572,10.093954,79.0,0.068101734,0.14982383,9.80665,0.013620348,0.013620348,0.27240694,2017-06-08 22:08:45,50.221284915794264
0.095768064,0.16280572,10.093954,79.0,0.068101734,0.16344418,9.80665,0.027240695,-0.013620348,0.29964766,2017-06-08 22:08:46,52.16901376969449
0.095768064,0.16280572,10.113108,79.0,0.068101734,0.16344418,9.80665,0.040861044,0.0,0.29964766,2017-06-08 22:08:47,52.695628684315
0.11492168,0.16280572,10.093954,79.0,0.08172209,0.16344418,9.80665,0.027240695,-0.013620348,0.28602728,2017-06-08 22:08:48,51.861477536487264
0.11492168,0.16280572,10.093954,79.0,0.08172209,0.16344418,9.80665,0.013620348,-0.013620348,0.27240694,2017-06-08 22:08:49,49.158245059062864
0.10534488,0.16280572,10.103531,79.0,0.068101734,0.16344418,9.80665,0.040861044,-0.013620348,0.27240694,2017-06-08 22:08:50,51.925730109044736
0.10534488,0.16280572,10.093954,79.0,0.068101734,0.16344418,9.80665,0.040861044,0.013620348,0.29964766,2017-06-08 22:08:51,51.462048350297664
0.10534488,0.17238252,10.103531,79.0,0.068101734,0.14982383,9.80665,0.040861044,0.013620348,0.29964766,2017-06-08 22:08:52,51.56111077431419
0.095768064,0.16280572,10.113108,79.0,0.068101734,0.14982383,9.80665,0.040861044,0.013620348,0.29964766,2017-06-08 22:08:53,49.79299609846115
0.10534488,0.17238252,10.093954,79.0,0.08172209,0.16344418,9.80665,0.013620348,0.0,0.28602728,2017-06-08 22:08:54,51.07355157292488
0.11492168,0.15322891,10.113108,79.0,0.08172209,0.16344418,9.80665,0.013620348,-0.013620348,0.29964766,2017-06-08 22:08:55,53.426119555685105
0.11492168,0.17238252,10.103531,79.0,0.08172209,0.16344418,9.80665,0.013620348,0.0,0.29964766,2017-06-08 22:08:56,50.66134778586903
0.10534488,0.17238252,10.093954,79.0,0.08172209,0.16344418,9.80665,0.013620348,-0.013620348,0.29964766,2017-06-08 22:08:57,51.79006646735328
0.10534488,0.16280572,10.093954,79.0,0.08172209,0.16344418,9.80665,0.013620348,-0.013620348,0.28602728,2017-06-08 22:08:58,52.363699564585446
0.11492168,0.17238252,10.103531,79.0,0.08172209,0.16344418,9.80665,0.013620348,-0.013620348,0.28602728,2017-06-08 22:08:59,51.988481439435795
0.10534488,0.17238252,10.093954,79.0,0.08172209,0.16344418,9.80665,0.027240695,-0.013620348,0.28602728,2017-06-08 22:09:00,51.76381162415257
0.10534488,0.17238252,10.103531,79.0,0.08172209,0.16344418,9.80665,0.013620348,-0.013620348,0.31326798,2017-06-08 22:09:01,53.90403007759953
0.10534488,0.16280572,10.103531,79.0,0.08172209,0.14982383,9.80665,0.013620348,0.0,0.29964766,2017-06-08 22:09:02,52.684024658644915
0.095768064,0.17238252,10.093954,79.0,0.068101734,0.14982383,9.80665,0.027240695,0.0,0.27240694,2017-06-08 22:09:03,51.41922404223935
0.10534488,0.16280572,10.093954,79.0,0.068101734,0.14982383,9.80665,0.027240695,0.0,0.28602728,2017-06-08 22:09:04,51.973169330735956
0.095768064,0.17238252,10.103531,79.0,0.08172209,0.16344418,9.80665,0.013620348,-0.013620348,0.31326798,2017-06-08 22:09:05,54.96127219403846
0.095768064,0.16280572,10.103531,79.0,0.08172209,0.14982383,9.80665,0.013620348,0.013620348,0.29964766,2017-06-08 22:09:06,53.477878569834814
0.095768064,0.18195933,10.103531,79.0,0.08172209,0.14982383,9.80665,0.013620348,0.013620348,0.31326798,2017-06-08 22:09:07,53.80000939682085
0.11492168,0.17238252,10.093954,79.0,0.08172209,0.14982383,9.80665,0.013620348,0.027240695,0.28602728,2017-06-08 22:09:08,54.368647702308635
0.11492168,0.18195933,10.103531,79.0,0.08172209,0.16344418,9.80665,0.013620348,0.0,0.31326798,2017-06-08 22:09:09,54.65842723460089
0.10534488,0.16280572,10.103531,79.0,0.08172209,0.16344418,9.80665,0.013620348,-0.013620348,0.29964766,2017-06-08 22:09:10,55.145167628338015
0.10534488,0.16280572,10.113108,79.0,0.08172209,0.16344418,9.80665,0.013620348,0.0,0.29964766,2017-06-08 22:09:11,54.25460063968215
0.095768064,0.18195933,10.113108,79.0,0.08172209,0.16344418,9.80665,0.013620348,0.013620348,0.31326798,2017-06-08 22:09:12,56.11200012783413
0.095768064,0.16280572,10.093954,79.0,0.08172209,0.16344418,9.80665,0.013620348,0.0,0.29964766,2017-06-08 22:09:13,54.666772065390376
0.095768064,0.16280572,10.093954,79.0,0.08172209,0.16344418,9.80665,0.027240695,-0.013620348,0.28602728,2017-06-08 22:09:14,54.44334364894874
0.095768064,0.16280572,10.103531,79.0,0.068101734,0.16344418,9.80665,0.027240695,0.013620348,0.31326798,2017-06-08 22:09:15,54.037446765353096
0.11492168,0.16280572,10.103531,79.0,0.068101734,0.16344418,9.80665,0.040861044,-0.013620348,0.29964766,2017-06-08 22:09:16,55.3853314835726
0.10534488,0.17238252,10.113108,79.0,0.068101734,0.16344418,9.80665,0.027240695,0.013620348,0.29964766,2017-06-08 22:09:17,52.56070819994968
0.11492168,0.16280572,10.093954,79.0,0.08172209,0.16344418,9.80665,0.027240695,-0.013620348,0.28602728,2017-06-08 22:09:18,52.566991803031556
0.10534488,0.17238252,10.093954,79.0,0.08172209,0.16344418,9.80665,0.027240695,-0.013620348,0.27240694,2017-06-08 22:09:20,53.12751680583076
0.095768064,0.16280572,10.093954,79.0,0.08172209,0.16344418,9.80665,0.027240695,0.0,0.29964766,2017-06-08 22:09:21,53.14054601199067
0.10534488,0.16280572,10.103531,79.0,0.08172209,0.16344418,9.80665,0.013620348,0.0,0.28602728,2017-06-08 22:09:22,53.019173022644736
0.095768064,0.18195933,10.103531,79.0,0.068101734,0.16344418,9.80665,0.027240695,-0.013620348,0.29964766,2017-06-08 22:09:23,51.64987046224664
0.10534488,0.17238252,10.113108,79.0,0.068101734,0.16344418,9.80665,0.027240695,-0.013620348,0.29964766,2017-06-08 22:09:24,52.960907926785026
0.10534488,0.16280572,10.103531,79.0,0.068101734,0.16344418,9.80665,0.027240695,-0.013620348,0.29964766,2017-06-08 22:09:25,50.59949708271375
0.095768064,0.17238252,10.103531,79.0,0.08172209,0.16344418,9.80665,0.027240695,-0.013620348,0.28602728,2017-06-08 22:09:26,51.56770406463177
0.095768064,0.16280572,10.113108,79.0,0.08172209,0.16344418,9.80665,0.013620348,-0.013620348,0.28602728,2017-06-08 22:09:27,51.76809544250417
0.095768064,0.17238252,10.113108,79.0,0.08172209,0.16344418,9.80665,0.013620348,0.013620348,0.29964766,2017-06-08 22:09:28,51.767343889540186
0.11492168,0.15322891,10.093954,79.0,0.08172209,0.16344418,9.80665,0.027240695,-0.013620348,0.28602728,2017-06-08 22:09:29,52.093732467017304
0.095768064,0.17238252,10.093954,42.0,0.08172209,0.16344418,9.80665,0.013620348,0.0,0.28602728,2017-06-08 22:09:30,51.171310130817616
7.2592196,0.0,-6.789956,8.0,1.3211737,0.16344418,9.724928,7.232404,-0.3405087,-10.528528,2017-06-08 22:09:31,52.17135406451325
9.739613,-0.08619126,-0.50757074,8.0,9.670446,-0.10896278,1.5527196,0.05448139,0.05448139,-2.628727,2017-06-08 22:09:32,53.646694311472174
9.682152,-0.038307227,-1.388637,8.0,9.520623,-0.08172209,-2.3426998,0.040861044,0.027240695,0.10896278,2017-06-08 22:09:33,52.9487576064135
9.346964,-0.076614454,2.930503,14.0,9.724928,-0.05448139,-1.1713499,-0.19068487,-0.013620348,3.800077,2017-06-08 22:09:34,52.59588175448742