ACC_X,ACC_Y,ACC_Z,GYRO_X,GYRO_Y,GYRO_Z,LIGH_1,GRAV_X,GRAV_Y,GRAV_Z,LINACC_X,LINACC_Y,LINACC_Z,ROTVEC_X,ROTVEC_Y,ROTVEC_Z,TIME,VOICE
0.23441601,-1.7581201,10.38128,0.006161142,-4.312247E-4,-0.01688639,80.0,0.24390024,-1.6430893,9.664945,-0.026395766,0.124598734,-0.60032326,-0.06579299,-0.053816773,0.5107699,2016-12-12 07:58:52,50.88259227518048
0.252356,-1.750944,10.284404,0.005459696,-2.9450655E-4,-0.01519274,80.0,0.23865181,-1.6508718,9.663751,-0.014900212,0.10246435,-0.6362024,-0.067737944,-0.05193722,0.48688316,2016-12-12 07:58:53,60.869637490429085
0.23322001,-1.760512,10.348989,0.0073712766,-0.0075455457,-0.016273476,80.0,0.23948227,-1.6501948,9.663844,0.033770278,0.104337156,-0.75810033,-0.06857095,-0.050784655,0.47185177,2016-12-12 07:58:54,65.31080414527602
0.24637601,-1.7581201,10.264072,0.0043691546,-0.002607748,-0.012340397,80.0,0.237726,-1.6570358,9.662718,-0.0038659913,0.09869214,-0.60015905,-0.06901509,-0.050748885,0.47026128,2016-12-12 07:58:55,66.33853865363109
0.26312,-1.760512,10.278424,0.0038762838,-1.2940168E-4,-0.013473585,80.0,0.25171998,-1.6541346,9.66286,0.014911976,0.10039733,-0.59762454,-0.068623565,-0.051206104,0.46893236,2016-12-12 07:58:56,59.24883883749577
0.25116,-1.7748641,10.210252,0.0034852177,0.009735227,-0.012546137,78.0,0.24638869,-1.6631262,9.661456,-0.009555326,0.110541716,-0.61816466,-0.06933521,-0.050946813,0.46590438,2016-12-12 07:58:57,59.49022552265007
3.477968,-1.7222401,9.845472,0.07436122,-0.31042877,0.19030587,73.0,3.2190568,-1.7360716,9.099128,-0.40721506,-0.02339958,-0.6638205,-0.008019393,-0.18976122,0.4291368,2016-12-12 07:58:58,59.74255854487903
3.451656,-1.44716,9.66368,-0.23358278,0.48875922,-0.06387014,76.0,3.4223318,-1.6277064,9.044811,-0.48260817,0.15672566,-0.506445,0.010277393,-0.19681811,0.46667948,2016-12-12 07:58:59,70.31841183825479
3.451656,-1.8705441,9.82514,0.00332883,0.021890163,-0.014712423,76.0,3.1416368,-1.7590998,9.121736,-0.14736323,0.21310426,-0.236964,0.0028049066,-0.18685026,0.49276307,2016-12-12 07:59:00,70.56111395326818
3.394248,-1.9028361,9.786868,0.0030231625,-0.0024292618,-0.009136967,76.0,3.1814423,-1.7760799,9.104634,-0.20562984,0.1183841,-0.67744976,0.0065136654,-0.1890779,0.5078802,2016-12-12 07:59:01,68.4489353490006
3.3954442,-1.894464,9.764144,0.0027209893,-0.0023852438,-0.008290887,80.0,3.1834495,-1.7733685,9.104461,-0.21917057,0.1234877,-0.67164314,0.008987818,-0.1889998,0.5180631,2016-12-12 07:59:02,71.05997632765292
3.3954442,-1.8980521,9.779693,0.002377294,1.2895465E-4,-0.007496685,76.0,3.1836252,-1.7801975,9.1030655,-0.21301498,0.12622648,-0.6897826,0.010931586,-0.18908542,0.5278851,2016-12-12 07:59:03,56.40416035733751
3.39066,-1.9076201,9.785672,0.0020318627,1.5960634E-4,-0.009172857,76.0,3.186344,-1.7747595,9.103178,-0.21388388,0.13644846,-0.6609657,0.012947267,-0.18894318,0.53531975,2016-12-12 07:59:04,65.47251521917698
3.397836,-1.906424,9.778496,0.0017928481,-0.002245769,-0.008513071,80.0,3.1870654,-1.778598,9.102175,-0.21794689,0.12543401,-0.6643606,0.014392576,-0.18897377,0.54221714,2016-12-12 07:59:05,57.619582379409415
3.4289322,-1.9076201,9.778496,0.0016266927,-0.002194032,-0.0056400374,80.0,3.175947,-1.7803353,9.1057205,-0.23743717,0.1129327,-0.6751678,0.01525774,-0.18842676,0.5477309,2016-12-12 07:59:06,71.3823989930163
3.387072,-1.8968561,9.768929,0.016075574,-0.0143695325,-0.00755997,76.0,3.1838303,-1.7775166,9.1035185,-0.21280982,0.116947345,-0.682154,0.016860345,-0.1885881,0.5530954,2016-12-12 07:59:07,59.47849839905252
3.4205601,-1.894464,9.791653,0.0012917072,2.9218197E-4,-0.0047466755,76.0,3.1814623,-1.7809389,9.103677,-0.22115766,0.10993717,-0.6568787,0.018289538,-0.18843336,0.5601579,2016-12-12 07:59:08,64.79848172626629
3.3918562,-1.888484,9.78328,0.0010694265,3.272891E-4,-0.0067556873,76.0,3.1763556,-1.7735038,9.106912,-0.24420448,0.11258827,-0.68115216,0.020151393,-0.18780486,0.56746984,2016-12-12 07:59:09,64.69606297563547
3.413384,-1.8860921,9.780889,6.303489E-4,0.0030435175,-0.0038559437,73.0,3.188318,-1.7637538,9.104624,-0.22387013,0.13190629,-0.69181204,0.022739861,-0.1878197,0.5751494,2016-12-12 07:59:11,61.3119461702118
3.455244,-1.8502121,9.767733,0.009840623,-0.018314525,-0.0035188496,76.0,3.227552,-1.7305263,9.097175,-0.22410424,0.1244697,-0.66218555,0.026401846,-0.18835115,0.5795261,2016-12-12 07:59:12,66.3542114478864
3.41458,-1.8813081,9.800024,-4.1463226E-4,0.007014692,-0.0033158362,80.0,3.1909854,-1.7683792,9.102794,-0.25110272,0.114124686,-0.68885905,0.024388717,-0.18786147,0.58255315,2016-12-12 07:59:13,69.58009277302753
3.4074042,-1.872936,9.7773,-3.7891418E-4,0.004432559,-0.003104411,80.0,3.177367,-1.7745185,9.106362,-0.21807723,0.103201576,-0.6589777,0.024068711,-0.187418,0.5841185,2016-12-12 07:59:14,56.787584564076276
3.403816,-1.8765241,9.766536,0.0020283535,0.0018751323,-0.0027838126,80.0,3.1799643,-1.7699144,9.10635,-0.20949996,0.11378566,-0.6685586,0.024816792,-0.18732186,0.58612067,2016-12-12 07:59:15,64.19588759999917
3.3954442,-1.8765241,9.764144,-3.8158894E-4,0.0017491281,-0.0025112405,80.0,3.186174,-1.7713498,9.103902,-0.24634618,0.11833032,-0.66861475,0.025461253,-0.1875686,0.58822316,2016-12-12 07:59:16,55.340908954379785
3.445676,-1.8705441,9.73544,-3.639534E-4,0.003992155,-0.0022717193,80.0,3.1825686,-1.7746394,9.10452,-0.27506754,0.11504078,-0.7194237,0.025484115,-0.18748116,0.5893735,2016-12-12 07:59:17,53.16137056491285
3.4086,-1.8813081,9.803612,-3.8332492E-4,0.0014469922,-0.002043508,80.0,3.174564,-1.7711636,9.107992,-0.2244684,0.12569252,-0.6609365,0.025632955,-0.1869883,0.5905035,2016-12-12 07:59:18,64.16238068151495
3.38468,-1.893268,9.768929,-4.0409714E-4,0.0037924796,-0.001856193,80.0,3.1749291,-1.7698009,9.1081295,-0.23008302,0.11629107,-0.69309044,0.02580797,-0.18694547,0.5909554,2016-12-12 07:59:19,57.19224341621545
3.382288,-1.9028361,9.722284,-0.002814956,0.0013191253,-0.0017290637,80.0,3.1779923,-1.7678834,9.107433,-0.27127165,0.12658055,-0.6878069,0.026370756,-0.18696183,0.59256685,2016-12-12 07:59:20,67.1754566927335
3.473184,-1.8753281,9.779693,0.0021179914,-0.0012007803,8.2723796E-4,80.0,3.1735222,-1.7726532,9.108065,-0.29966187,0.10267478,-0.67162794,0.026202898,-0.1868993,0.59328914,2016-12-12 07:59:21,60.64170564155033
3.48036,-1.88968,9.816769,-0.0027110204,0.008523777,9.1800094E-4,80.0,3.1762826,-1.7678312,9.108041,-0.22992548,0.12663272,-0.61902684,0.026059056,-0.1869228,0.59148705,2016-12-12 07:59:22,68.77816401722222
3.3787,-1.874132,9.779693,-0.0026932359,0.003586769,-0.0014454573,80.0,3.1798038,-1.7699506,9.1064,-0.24434419,0.108965404,-0.6792723,0.025967851,-0.18715908,0.5909812,2016-12-12 07:59:23,65.42895270039818
3.427736,-1.8705441,9.802416,-2.4604797E-4,0.0034139007,-0.0013659149,80.0,3.17647,-1.7817751,9.105258,-0.25246233,0.08278891,-0.66486675,0.02512538,-0.1874295,0.5899219,2016-12-12 07:59:24,61.625746204741894
3.320096,-2.0535321,9.754577,-2.4386495E-4,0.008240953,-0.006181434,80.0,3.1638694,-1.7730519,9.111346,-0.32127458,0.13217619,-0.68509007,0.02491448,-0.1866279,0.58927655,2016-12-12 07:59:25,70.29560337069944
3.317704,-1.8872881,9.752184,-0.0026334599,8.917451E-4,-0.0012823939,80.0,3.1657455,-1.7668163,9.111905,-0.17229046,0.14199981,-0.6558277,0.025130128,-0.18652251,0.58885807,2016-12-12 07:59:26,65.00569441381214
3.365544,-1.884896,9.770124,0.002288267,8.5914135E-4,-0.0012803748,80.0,3.1742904,-1.7698835,9.108337,-0.22115386,0.1197966,-0.66896254,0.025711022,-0.18693063,0.59065056,2016-12-12 07:59:27,64.07037677650666
3.424148,-1.87174,9.779693,-1.5431643E-4,8.632988E-4,0.0011936054,80.0,3.1708176,-1.7701331,9.109497,-0.2162544,0.13629092,-0.6582354,0.02554121,-0.18679553,0.5904576,2016-12-12 07:59:28,71.0405371482286
3.3918562,-1.8860921,9.779693,-1.7142296E-4,8.711666E-4,-0.0011624247,80.0,3.170295,-1.7710639,9.109499,-0.22156098,0.12579218,-0.6821534,0.025228309,-0.18683793,0.58937347,2016-12-12 07:59:29,65.42889082911802
3.3739161,-1.89566,9.780889,-1.6792119E-4,8.637756E-4,-0.0010960028,80.0,3.1694286,-1.7728226,9.109458,-0.21525136,0.11805341,-0.678606,0.025325025,-0.18683037,0.5901996,2016-12-12 07:59:30,58.55894592459226
3.351192,-1.9088161,9.75936,-1.5500933E-4,7.980317E-4,-0.0010861158,80.0,3.1694577,-1.7731265,9.109389,-0.27023822,0.080673665,-0.6858511,0.025330897,-0.18683903,0.5902721,2016-12-12 07:59:31,68.83954650246108
3.39664,-1.878916,9.77132,-1.404658E-4,-0.0016766936,-0.001076892,80.0,3.1753972,-1.7679987,9.108316,-0.21167496,0.107329324,-0.6689836,0.025547775,-0.18695572,0.5894912,2016-12-12 07:59:32,67.91669410033276
3.38468,-1.87772,9.78926,0.0023177192,8.0911815E-4,-0.0010913163,80.0,3.1681578,-1.7676747,9.110901,-0.19977848,0.13157324,-0.6472633,0.025072718,-0.18666753,0.58843184,2016-12-12 07:59:33,57.88219168804656
3.3858762,-1.8837,9.796436,-1.0047108E-4,7.556379E-4,-0.0010414049,80.0,3.174526,-1.7745714,9.107342,-0.21015404,0.08281667,-0.6675661,0.025242262,-0.18713002,0.5894505,2016-12-12 07:59:34,69.67764042913413
3.4109921,-1.87772,9.778496,-1.1701882E-4,-0.0017116815,0.0013982654,80.0,3.1672354,-1.7680731,9.111144,-0.22103257,0.13237098,-0.66615564,0.02570996,-0.18654756,0.5913084,2016-12-12 07:59:35,56.02186942410438
3.38468,-1.890876,9.767733,0.0023433864,-0.0017425865,0.0013975501,80.0,3.1687014,-1.7714709,9.109975,-0.21119478,0.11342516,-0.6685212,0.025791198,-0.18669614,0.59202677,2016-12-12 07:59:36,69.44415517875565
3.3787,-1.8968561,9.784476,-7.6286495E-5,0.0031582117,0.001415275,80.0,3.1719007,-1.7706556,9.10902,-0.2402873,0.12261238,-0.6766525,0.026515974,-0.186725,0.5944851,2016-12-12 07:59:37,60.659425758731274
3.382288,-1.8968561,9.774908,-9.6313655E-5,6.7830086E-4,-0.0010642037,80.0,3.1687524,-1.7709465,9.110059,-0.22310354,0.119929574,-0.6684376,0.026444107,-0.18659331,0.59466815,2016-12-12 07:59:38,64.25050823127883
3.394248,-1.884896,9.779693,-4.6104193E-5,-0.0018567741,-0.0010646507,80.0,3.1705236,-1.769378,9.109748,-0.23090047,0.12269422,-0.67951256,0.026899152,-0.18657081,0.5960627,2016-12-12 07:59:39,70.61343377634037
3.382288,-1.893268,9.810788,-0.0024848431,5.3593516E-4,0.0013580918,80.0,3.1658514,-1.7701656,9.111219,-0.23916094,0.1111426,-0.69358903,0.026936935,-0.18636413,0.5970007,2016-12-12 07:59:41,61.25193507478983
3.38468,-1.893268,9.797632,2.592802E-6,0.0029893667,-0.0010674298,80.0,3.1717467,-1.7712857,9.10895,-0.22967736,0.113610454,-0.66356677,0.027036443,-0.18665978,0.5967895,2016-12-12 07:59:42,55.501905549354795
3.382288,-1.9183841,9.770124,5.5365264E-5,5.336702E-4,0.0013289228,76.0,3.1660213,-1.7725888,9.110688,-0.24616672,0.13861923,-0.66302437,0.02626997,-0.1865318,0.5945943,2016-12-12 07:59:43,55.31312264979902
3.3954442,-1.893268,9.78328,5.4858625E-5,5.455613E-4,0.001313813,80.0,3.1689627,-1.768432,9.110473,-0.22408932,0.11287615,-0.6632395,0.026526598,-0.18652484,0.59455854,2016-12-12 07:59:44,53.16026224740378
3.369132,-1.884896,9.77132,6.240606E-5,-0.0018679947,0.0037308037,72.0,3.170754,-1.7686914,9.109799,-0.21512218,0.11620471,-0.67348087,0.026382042,-0.18663737,0.5937493,2016-12-12 07:59:45,57.869874906300694
3.4169722,-1.9243641,9.796436,0.0025033504,-0.0018650293,-0.0011587813,77.0,3.1757483,-1.7656385,9.108653,-0.20295155,0.14437355,-0.6519027,0.026477452,-0.18678054,0.5929419,2016-12-12 07:59:46,56.94530003992516
3.365544,-1.92556,9.760556,-0.0023716986,4.6864152E-4,-0.0011599436,77.0,3.171941,-1.7686317,9.109396,-0.24622692,0.13181232,-0.6655121,0.026122883,-0.18672869,0.5924887,2016-12-12 07:59:47,54.11472639492794
3.400228,-1.87772,9.78328,0.0025132746,4.5859814E-4,-0.0011484846,77.0,3.1690388,-1.7671883,9.110689,-0.2383654,0.13086379,-0.69292265,0.02599025,-0.18657096,0.5920866,2016-12-12 07:59:48,54.504715661963786
3.4050121,-1.884896,9.779693,-0.002376385,4.6038628E-4,-0.0011772588,80.0,3.168302,-1.7666271,9.111052,-0.23671003,0.118268944,-0.66864103,0.025752582,-0.18655406,0.5910937,2016-12-12 07:59:49,60.51915023825531
3.4074042,-1.862172,9.786868,8.78945E-5,-0.0044204295,-0.00113336,80.0,3.1690824,-1.7683902,9.11044,-0.20722558,0.094977796,-0.65609545,0.025310295,-0.18669835,0.58942753,2016-12-12 07:59:50,62.12324058975389
3.399032,-1.872936,9.773712,-0.0047591627,0.002912417,0.001294218,80.0,3.1661568,-1.7677302,9.111585,-0.2579913,0.13151772,-0.68006784,0.02513395,-0.18656576,0.58897436,2016-12-12 07:59:51,58.38474858263985
3.387072,-1.915992,9.773712,9.3355775E-5,4.6935678E-4,0.0013280734,80.0,3.1660006,-1.7677714,9.111632,-0.20073943,0.13267274,-0.6644722,0.025180757,-0.1865531,0.5892001,2016-12-12 07:59:52,57.10600644239386
3.4086,-1.8980521,9.768929,1.1605024E-4,4.724264E-4,-0.0011458099,80.0,3.1690168,-1.7713253,9.109892,-0.19174334,0.09563056,-0.6674083,0.025025759,-0.18681142,0.58874184,2016-12-12 07:59:53,57.581128900857514
3.365544,-1.8837,9.7773,9.9018216E-5,4.8661232E-4,-0.0011902153,80.0,3.1685503,-1.7647426,9.111333,-0.23167759,0.10938948,-0.6755349,0.025120858,-0.18660206,0.58807755,2016-12-12 07:59:54,57.460983722838776
3.363152,-1.8753281,9.766536,8.850545E-5,4.7904253E-4,-0.0011896715,99.0,3.17013,-1.7676024,9.110229,-0.23488224,0.13642961,-0.66946405,0.024945613,-0.1867763,0.58761317,2016-12-12 07:59:55,61.985340182523096
3.393052,-1.8980521,9.764144,-0.0023011044,0.002927959,-0.0011889935,99.0,3.1662657,-1.7653086,9.112018,-0.23755029,0.12676351,-0.68561494,0.024865495,-0.18654273,0.58741176,2016-12-12 07:59:56,50.83118310191112
3.393052,-1.8920721,9.792849,0.0026091784,-0.0019759089,-0.0012147129,99.0,3.1708941,-1.7675767,9.109966,-0.21856998,0.12449542,-0.6828817,0.024773292,-0.18683486,0.5867777,2016-12-12 07:59:57,57.9986479604524
3.39664,-1.888484,9.7773,1.5728176E-4,4.6637654E-4,0.0012081787,70.0,3.1672108,-1.7671239,9.111337,-0.23421325,0.111792006,-0.67074764,0.024525575,-0.18668067,0.58615994,2016-12-12 07:59:58,58.992022627488836
3.4086,-1.894464,9.797632,-0.0022746548,-0.0019943714,-0.0012478605,66.0,3.1626098,-1.7658064,9.113189,-0.2184823,0.1286575,-0.6521511,0.02435534,-0.18644972,0.5858447,2016-12-12 07:59:59,53.98168835141648
3.440892,-1.7007121,9.752184,-0.01933616,0.012594819,-0.091689,46.0,3.096384,-1.5738882,9.170915,-0.34929216,0.12562793,-0.78219783,0.02719162,-0.17797224,0.5730433,2016-12-12 08:00:00,63.664655504000166
3.3272722,-1.8071561,9.802416,0.0026865304,-0.0020682514,-0.0013075843,64.0,3.0969918,-1.6745507,9.152864,-0.23267245,0.0799813,-0.65433604,0.024603242,-0.18091024,0.57991314,2016-12-12 08:00:01,61.513677470235535
3.328468,-1.783236,9.80122,2.510026E-4,-0.002052173,0.0010388047,64.0,3.1179278,-1.6701301,9.146562,-0.20695232,0.12147797,-0.6594424,0.025505137,-0.18167186,0.580132,2016-12-12 08:00:02,67.62968893990998
3.2746482,-1.78204,9.846668,0.002711095,4.1598082E-4,0.0010146499,40.0,3.041808,-1.6530757,9.175245,-0.21490036,0.1433163,-0.66424716,0.023068592,-0.177934,0.5769813,2016-12-12 08:00:03,60.61893967803408
3.242356,-1.784432,9.81916,-0.0021606013,-0.0020365715,9.488985E-4,17.0,3.0498633,-1.675384,9.168524,-0.21880467,0.11143998,-0.6398726,0.023326643,-0.17886114,0.58108175,2016-12-12 08:00:04,57.38321151514637
3.257904,-1.784432,9.821552,3.0512363E-4,0.0028157532,-0.001569286,14.0,3.0534282,-1.6800077,9.166491,-0.22122021,0.10801234,-0.67778647,0.024065522,-0.17905289,0.5846858,2016-12-12 08:00:05,59.44843158684516
3.2567081,-1.771276,9.766536,-0.0021815002,-0.0020590127,0.0032589883,23.0,3.052057,-1.6775347,9.167399,-0.21900281,0.11287732,-0.6314286,0.024857458,-0.17881507,0.5879302,2016-12-12 08:00:06,57.345165997955725
3.2531202,-1.7748641,9.810788,0.0027190298,3.503859E-4,7.5339526E-4,38.0,3.0503352,-1.6790695,9.167693,-0.2159411,0.11732246,-0.6430957,0.025722763,-0.17865095,0.59226125,2016-12-12 08:00:08,58.775720052330705
3.261492,-1.792804,9.810788,2.682656E-4,3.0003488E-4,7.0176274E-4,38.0,3.0545647,-1.6816646,9.165807,-0.20453532,0.111139536,-0.63780457,0.026335858,-0.1788304,0.59480625,2016-12-12 08:00:09,58.65291089701469
3.2722561,-1.792804,9.817965,3.1333417E-4,2.7802587E-4,6.179884E-4,38.0,3.050743,-1.678578,9.167647,-0.20476884,0.10585414,-0.6383569,0.027153037,-0.17844568,0.5983872,2016-12-12 08:00:10,60.328337350854795
3.2531202,-1.783236,9.809592,3.1412393E-4,-0.0021486133,5.8968365E-4,38.0,3.052777,-1.6809912,9.166528,-0.20632307,0.11659677,-0.6526321,0.027490828,-0.17855383,0.5999948,2016-12-12 08:00:11,57.66733978572722
3.269864,-1.789216,9.81318,3.4302473E-4,3.0393898E-4,4.9841404E-4,38.0,3.0498958,-1.6781408,9.168009,-0.20800826,0.08835121,-0.6690911,0.027969193,-0.17826784,0.6019984,2016-12-12 08:00:12,54.46640871913477
3.257904,-1.786824,9.80122,0.002794601,2.632141E-4,0.002880022,38.0,3.056373,-1.6772207,9.16602,-0.19913901,0.10840733,-0.6304162,0.028679023,-0.17843938,0.60399187,2016-12-12 08:00:13,51.92156427431213
3.2591,-1.771276,9.816769,3.7908554E-4,0.0026673377,4.0233135E-4,38.0,3.0492818,-1.6779432,9.168248,-0.20981823,0.093332805,-0.64852005,0.028787648,-0.1781031,0.60561925,2016-12-12 08:00:14,61.17046465858698
3.249532,-1.7916081,9.790456,-0.002001591,0.014784813,-0.0020788163,128.0,3.046497,-1.6802644,9.168749,-0.20303485,0.12569574,-0.5989835,0.028844794,-0.17802218,0.6066767,2016-12-12 08:00:15,57.054890649154395
3.499496,-1.8119401,9.878961,0.0053466633,-0.86022896,-0.18048353,99.0,2.9922085,-1.6443671,9.193103,-0.05161153,0.10179303,-0.75283265,0.023311835,-0.1753248,0.5835768,2016-12-12 08:00:16,69.05628772818996
3.1574402,-1.9028361,9.850256,-0.14862534,0.14914306,0.015036464,62.0,2.9019873,-1.7821335,9.196351,-0.55804104,-0.17710137,-0.45536944,0.019742597,-0.1752908,0.60574216,2016-12-12 08:00:17,69.22888177727296
3.2722561,-1.832272,9.773712,0.100662656,-0.13680495,-0.009403534,36.0,3.0420413,-1.773552,9.152645,-0.25174278,0.03958397,-0.58399117,0.023852214,-0.18104176,0.60189986,2016-12-12 08:00:18,63.20528948460749
3.269864,-1.819116,9.820356,0.0028970838,5.8934093E-5,3.7174672E-4,38.0,3.0773976,-1.7500992,9.145337,-0.14941052,0.07619287,-0.60086745,0.024881417,-0.18193011,0.59724355,2016-12-12 08:00:19,67.39644294392879
3.2662761,-1.794,9.779693,5.0928444E-4,-0.004860878,2.6550144E-4,32.0,3.0845373,-1.721236,9.148408,-0.19369887,0.10266411,-0.6611843,0.026193468,-0.18131442,0.59686166,2016-12-12 08:00:20,62.309435195430105
3.2997642,-1.8239,9.808396,5.324334E-4,3.1858683E-5,0.0026335716,32.0,3.0870347,-1.717269,9.148312,-0.23784547,0.107827045,-0.6553005,0.026418796,-0.18129535,0.5967875,2016-12-12 08:00:21,59.236138590432496
3.3057442,-1.819116,9.815572,-0.0018957704,0.0025439113,9.9658966E-5,38.0,3.0860364,-1.7155725,9.148968,-0.2173156,0.10234759,-0.67497605,0.026381416,-0.18120867,0.5964726,2016-12-12 08:00:22,63.522311373336926
3.329664,-1.813136,9.800024,5.989522E-4,1.2233853E-4,0.0024576709,29.0,3.0872326,-1.7159994,9.148483,-0.21013972,0.09833266,-0.6670891,0.02652257,-0.18125607,0.59698564,2016-12-12 08:00:23,61.38892692814923
3.317704,-1.825096,9.79524,5.855933E-4,-0.0023319125,-5.4746866E-5,29.0,3.0925686,-1.714409,9.146977,-0.24068362,0.09872692,-0.6590268,0.026256055,-0.18150629,0.5948026,2016-12-12 08:00:24,64.31669569555561
3.316508,-1.808352,9.7940445,5.7386607E-4,1.322478E-4,-5.7309866E-5,29.0,3.0929942,-1.7096953,9.147718,-0.2247098,0.12496874,-0.6606787,0.0261688,-0.18141516,0.5935417,2016-12-12 08:00:25,64.04291866972787
3.298568,-1.8167241,9.782084,6.27324E-4,-0.004744947,-1.18769705E-4,40.0,3.0878298,-1.7157559,9.148328,-0.22150223,0.1021642,-0.6409324,0.025361959,-0.18144403,0.5918473,2016-12-12 08:00:26,64.66404101225142
3.30096,-1.8239,9.78926,6.5165013E-4,-0.002317682,-1.2496114E-4,47.0,3.092942,-1.7138397,9.146957,-0.2199781,0.11843232,-0.6506746,0.025180785,-0.18166135,0.59000456,2016-12-12 08:00:27,63.95070040774482
3.310528,-1.815528,9.800024,6.7902356E-4,0.0025646687,-1.418814E-4,47.0,3.0949357,-1.7084028,9.147302,-0.22157238,0.09875337,-0.6539187,0.024968857,-0.18164249,0.58784586,2016-12-12 08:00:28,61.2537147384179
3.260296,-1.8442321,9.691188,-0.18499738,0.28844643,0.007186234,44.0,3.0684876,-1.734219,9.151355,-0.25280455,0.023901101,-0.5254817,0.022642182,-0.1813786,0.58603543,2016-12-12 08:00:29,68.38512305068627
3.3117242,-1.803568,9.802416,0.0031929985,-0.002375275,-1.9551069E-4,53.0,3.0855029,-1.7086034,9.150452,-0.20828123,0.1093167,-0.6543571,0.023743648,-0.18136464,0.5838788,2016-12-12 08:00:30,64.84371119420834
3.297372,-1.808352,9.816769,-0.0016745105,-1.385808E-6,-2.4983287E-4,53.0,3.084596,-1.708866,9.150708,-0.22473611,0.107858025,-0.67802083,0.023718582,-0.18133184,0.5839437,2016-12-12 08:00:31,59.66006654495466
3.238768,-1.8382521,9.791653,0.0032578707,-0.004860714,-3.3438206E-4,53.0,3.0963802,-1.7058531,9.147289,-0.23926382,0.103694916,-0.6467548,0.024072403,-0.18176527,0.5832946,2016-12-12 08:00:32,57.46077476940435
3.122756,-1.771276,9.870588,0.005709447,-0.1343835,0.014317386,44.0,2.9430752,-1.7128888,9.196452,-0.12825316,-0.036096856,-0.6729402,0.012823728,-0.17591774,0.5556689,2016-12-12 08:00:33,59.19651238528154
3.3619561,-2.012868,9.770124,-0.004058741,0.007354349,0.002093345,53.0,3.1263566,-1.9316338,9.092034,-0.26071548,0.09319413,-0.6613456,0.0144884335,-0.19032969,0.5778529,2016-12-12 08:00:34,68.61566276180608
3.3368402,-2.026024,9.78328,9.057E-4,-9.5024705E-5,-3.6279112E-4,91.0,3.138668,-1.8929955,9.095919,-0.20654403,0.13063656,-0.6873621,0.01626541,-0.18966472,0.57699096,2016-12-12 08:00:35,60.437864172208684
3.39066,-2.036788,9.752184,0.003421858,-0.0025070906,-3.7673116E-4,91.0,3.1287932,-1.8969473,9.098498,-0.19010697,0.11113676,-0.66803724,0.015809016,-0.18935648,0.5770813,2016-12-12 08:00:36,64.49446985465828
3.3918562,-2.0224361,9.788064,0.0010060221,-0.002541095,-3.6978722E-4,91.0,3.1348636,-1.8975145,9.096288,-0.21752456,0.12731354,-0.68220836,0.015730726,-0.18966004,0.5760391,2016-12-12 08:00:37,65.8008270554717
3.3619561,-2.0379841,9.7773,0.0010481998,-5.9962273E-5,0.0019808635,91.0,3.1334848,-1.8939264,9.097511,-0.23205929,0.12611777,-0.6821809,0.015606446,-0.18950589,0.5750813,2016-12-12 08:00:38,65.91957729499946
3.339232,-2.012868,9.779693,-0.00381241,-4.4703484E-8,0.0019543096,136.0,3.1363163,-1.8991538,9.095446,-0.23999183,0.12687019,-0.6830501,0.015340506,-0.18980524,0.5744927,2016-12-12 08:00:39,64.77326121429051
3.349996,-2.0284162,9.75936,-0.0013385266,8.538365E-6,0.00194294,136.0,3.132587,-1.9008716,9.096373,-0.23534927,0.12634836,-0.69169104,0.01480213,-0.18972357,0.5730274,2016-12-12 08:00:40,59.968199918534054
3.353584,-2.018848,9.792849,0.0035930201,-0.002422452,0.0019129217,136.0,3.1277988,-1.8960283,9.09903,-0.21741322,0.12521175,-0.6495669,0.01451681,-0.18938816,0.5716212,2016-12-12 08:00:41,66.26951683424798
3.381092,-2.014064,9.766536,-0.0012856945,0.0024585873,-5.518347E-4,136.0,3.1329608,-1.892242,9.098043,-0.22540742,0.10388211,-0.6876286,0.014583033,-0.18951596,0.5705524,2016-12-12 08:00:42,62.785123261731144
3.365544,-2.0224361,9.762948,-0.0012685806,1.37239695E-5,0.0019006878,136.0,3.1361296,-1.8934342,9.096704,-0.20190643,0.13258988,-0.64950025,0.014081524,-0.189734,0.5682251,2016-12-12 08:00:43,66.2541594467007
3.376308,-2.0224361,9.774908,-0.0012769997,-0.0024094284,0.0018550754,121.0,3.1325183,-1.894233,9.09778,-0.24857378,0.1425551,-0.6783236,0.014004841,-0.1895948,0.5685203,2016-12-12 08:00:44,61.16558367369038
3.3858762,-2.0068882,9.780889,-0.011059567,0.03669685,-0.0029995441,44.0,3.138651,-1.8969036,9.095111,-0.21254122,0.13510054,-0.6857775,0.01382079,-0.18996699,0.56739944,2016-12-12 08:00:45,65.40607199602916
3.3488002,-2.032004,9.779693,0.0036240816,-0.0023956895,0.0018672794,32.0,3.130534,-1.8961306,9.098067,-0.2170701,0.108365536,-0.69119304,0.013333682,-0.18960452,0.5662804,2016-12-12 08:00:46,61.75711876842889
3.371524,-2.010476,9.774908,-0.0012365058,-0.0024187863,-6.337613E-4,38.0,3.1328046,-1.8924514,9.098053,-0.2458952,0.14314064,-0.69001114,0.013793192,-0.18957372,0.56727564,2016-12-12 08:00:47,64.9979502342698
3.3619561,-2.02124,9.764144,-0.0012443662,1.5197694E-4,-6.1611086E-4,17.0,3.133176,-1.8958374,9.097218,-0.24432781,0.14214666,-0.6824749,0.013419924,-0.1897125,0.5662438,2016-12-12 08:00:48,60.374824266405575
3.375112,-2.0332,9.797632,0.0011969432,-0.0022856593,0.0018125921,17.0,3.139424,-1.8972912,9.094761,-0.20100392,0.13232085,-0.6885195,0.0129521685,-0.19007486,0.5636974,2016-12-12 08:00:50,66.01314432794572
3.3787,-2.0224361,9.772516,-0.0012453943,1.3516843E-4,-6.277114E-4,17.0,3.1357615,-1.8959666,9.096301,-0.22141047,0.11809739,-0.6941548,0.013016537,-0.18986386,0.56421894,2016-12-12 08:00:51,55.46233356141762
3.375112,-2.0332,9.792849,0.0012172759,0.0074697435,-6.432384E-4,17.0,3.1360955,-1.8972797,9.095913,-0.20552842,0.12994024,-0.67540747,0.012942821,-0.1899211,0.56409466,2016-12-12 08:00:52,59.00914930965607
3.2411602,-2.073864,9.79524,-0.06971216,0.14916582,-0.003093958,17.0,3.0460145,-1.9288168,9.11986,-0.1891656,0.12830329,-0.7076719,0.008811154,-0.18691953,0.56403327,2016-12-12 08:00:53,59.87328220518627
2.8680081,-2.455388,11.76266,-0.60250413,0.5646458,0.8791901,14.0,2.4518523,-2.100294,9.259999,1.1099402,0.9614658,-0.042488895,-0.02020142,-0.16572078,0.54610926,2016-12-12 08:00:54,58.26918200103941
3.146676,-2.1456242,9.870588,-0.0037241653,0.017189816,-6.4995885E-4,14.0,2.8945508,-1.904695,9.174101,-0.28082916,0.1464451,-0.69768417,0.014554505,-0.17899518,0.6055799,2016-12-12 08:00:55,62.37831063196921
3.045016,-2.1240962,9.874176,-0.008513249,0.029090568,0.10430884,23.0,2.8235657,-1.9977243,9.176436,-0.2812503,0.15746786,-0.70969963,0.010931831,-0.17892042,0.6161396,2016-12-12 08:00:56,57.13794253020904
2.97206,-2.191072,9.832316,0.011104137,-0.07853281,0.026116252,23.0,2.822349,-2.0411294,9.1672535,-0.18080723,0.14276685,-0.709315,0.011097227,-0.18021387,0.6242755,2016-12-12 08:00:57,59.18654748424387
3.464812,-2.347748,9.650524,-0.120871864,-0.063868806,-0.6068798,32.0,3.2125204,-2.1042023,9.0234375,-0.25229162,0.24354573,-0.62708676,0.029679691,-0.19761534,0.65265745,2016-12-12 08:00:58,58.3422386007716
2.982824,-2.29034,9.919624,0.02332414,-0.049204804,-7.677525E-4,38.0,2.7293582,-2.0625694,9.190583,-0.19725393,0.15242271,-0.7158862,0.013201347,-0.17673837,0.6501983,2016-12-12 08:00:59,57.64770505779058
2.897908,-2.348944,9.894508,-0.08909986,0.2269672,-0.09608375,38.0,2.8091,-2.1035728,9.157202,-0.17731209,0.14131927,-0.6248826,0.018729378,-0.18100251,0.6672802,2016-12-12 08:01:00,59.96808625181893
3.3057442,-2.097784,9.782084,0.0037221164,-0.012305409,-7.775128E-4,36.0,3.090237,-1.9671274,9.096771,-0.20713528,0.14500864,-0.67335284,0.03733607,-0.18654707,0.67946607,2016-12-12 08:01:01,67.5039819350141
3.3212922,-2.115724,9.784476,0.0012667105,-0.0049134195,-8.338094E-4,64.0,3.109021,-1.9637902,9.091091,-0.21466304,0.13279797,-0.68860126,0.03918544,-0.1869437,0.68330544,2016-12-12 08:01:02,63.21897086018825
3.601156,-2.18868,10.74606,-0.006128527,0.012322918,-0.0032818466,64.0,3.1186697,-1.949293,9.090905,-0.18827012,0.14011896,-0.62061554,0.041224655,-0.1865299,0.687629,2016-12-12 08:01:03,66.95200476966838
3.3153121,-2.10496,9.766536,0.0036862046,-0.0021802783,-8.92438E-4,64.0,3.118508,-1.951906,9.090399,-0.22191988,0.14946605,-0.67254853,0.042756524,-0.1862539,0.6937326,2016-12-12 08:01:04,56.16774929675624
3.3798962,-2.113332,9.785672,-0.0011555254,0.0027049184,0.0014881417,30.0,3.1296506,-1.9572321,9.085424,-0.25144145,0.1465319,-0.69546413,0.044052973,-0.18663244,0.69763553,2016-12-12 08:01:05,58.630108859398675
3.365544,-2.0906081,9.780889,0.001316309,-0.002187118,-9.94049E-4,36.0,3.1275928,-1.9526722,9.087113,-0.2475193,0.15348391,-0.69616735,0.04539152,-0.1860801,0.70228416,2016-12-12 08:01:06,59.27363785185232
3.3583682,-2.091804,9.770124,-0.0010853708,-0.0022151768,-9.856373E-4,42.0,3.124635,-1.957157,9.087167,-0.24210517,0.14062706,-0.70209324,0.046137698,-0.18588923,0.7060304,2016-12-12 08:01:07,60.53041665089367
3.340428,-2.10496,9.773712,0.0013580769,-0.004685253,0.0014574751,64.0,3.1304033,-1.9569601,9.085224,-0.21122079,0.13364816,-0.6729402,0.047367018,-0.18584651,0.7096654,2016-12-12 08:01:08,66.8029506771598
3.37272,-2.0906081,9.77132,-0.0010424033,2.0122528E-4,0.0014201775,66.0,3.1356833,-1.9548486,9.083858,-0.1903928,0.13934754,-0.6743074,0.048481997,-0.18574639,0.7126933,2016-12-12 08:01:09,67.45069584310085
3.334448,-2.09898,9.768929,-0.0058819503,0.005093336,0.0038193539,64.0,3.131854,-1.9616301,9.083715,-0.24684593,0.114625916,-0.7103285,0.048862636,-0.18566598,0.7154707,2016-12-12 08:01:10,56.06596370037052
3.3619561,-2.091804,9.784476,-9.601936E-4,0.002663985,-0.0010987893,70.0,3.1254323,-1.9583187,9.086642,-0.23891602,0.13228944,-0.6978344,0.049525283,-0.18508777,0.7183922,2016-12-12 08:01:11,54.84218304140096
3.35478,-2.085824,9.791653,0.0015036613,-0.0022431463,-0.0011289865,80.0,3.1373663,-1.9606763,9.08202,-0.24492168,0.1394998,-0.6845161,0.050269425,-0.1855233,0.71962774,2016-12-12 08:01:12,61.91156093073873
3.41458,-2.1336641,9.78328,-9.164661E-4,0.0050111264,0.0012686402,96.0,3.1327584,-1.9618332,9.083361,-0.2303937,0.14432299,-0.69872344,0.050132684,-0.18537599,0.7199465,2016-12-12 08:01:13,68.11340430239315
3.349996,-2.061904,9.827532,0.006444171,-0.012332022,0.0012541935,70.0,3.1206543,-1.9569284,9.088584,-0.22575375,0.13367987,-0.6994804,0.05028899,-0.18461381,0.7216741,2016-12-12 08:01:14,54.79572918982412
3.377504,-2.094196,9.77132,-8.686036E-4,-8.030236E-5,-0.0012193546,40.0,3.124169,-1.9536864,9.088074,-0.25094315,0.13333368,-0.67487377,0.051140584,-0.18445024,0.7238326,2016-12-12 08:01:15,58.4635954557956
3.3643482,-2.109744,9.797632,-0.0033251867,-8.7842345E-5,-0.0012376904,56.0,3.1175902,-1.9557645,9.089886,-0.26469782,0.15397958,-0.7149223,0.05117092,-0.18419121,0.72515297,2016-12-12 08:01:16,56.821724199542786
3.3464081,-2.107352,9.772516,0.0015770122,-0.007383451,-0.0012515336,64.0,3.1246912,-1.9610791,9.086302,-0.18583676,0.15105698,-0.6838228,0.051313862,-0.18464692,0.72526914,2016-12-12 08:01:17,59.98337391267444
3.3858762,-2.0906081,9.80122,0.001623258,-0.004958689,-0.0012320727,46.0,3.1269317,-1.9535782,9.087147,-0.15489246,0.14300986,-0.6710183,0.051804688,-0.18439302,0.7257995,2016-12-12 08:01:18,60.63329875470585
3.292588,-2.126488,9.829925,0.87413156,-1.8428416,-0.12099732,46.0,3.0451434,-1.973972,9.110485,-0.21276072,0.17404403,-0.72541916,0.048455644,-0.18206216,0.7281885,2016-12-12 08:01:19,60.47000429180522
3.446872,-1.9817721,9.76534,-0.022844061,0.058605656,-0.0061382204,50.0,3.2582967,-1.8165709,9.069397,-0.24119945,0.14486922,-0.69833535,0.060422648,-0.1842242,0.7209616,2016-12-12 08:01:20,62.41100288209842
3.4971042,-1.846624,9.717501,-0.05706006,0.073269665,-0.030578222,46.0,3.177009,-1.7020721,9.120306,-0.37750295,0.08714388,-0.43932256,0.062007707,-0.17649062,0.7247059,2016-12-12 08:01:21,54.6824074744447
3.51026,-1.8274881,9.737832,0.0014860108,-0.0022707433,-0.0012685433,66.0,3.2736661,-1.7265179,9.081446,-0.25812194,0.11891002,-0.6815023,0.06483775,-0.18102835,0.7236648,2016-12-12 08:01:22,57.98963641948774
3.5246122,-1.845428,9.736636,-0.0033852085,0.0026873797,0.0011514053,62.0,3.2774272,-1.7212161,9.081096,-0.24000879,0.12540801,-0.6423843,0.0651175,-0.18097723,0.72347134,2016-12-12 08:01:23,56.20799769700676
3.527004,-1.832272,9.733048,-9.6969306E-4,2.7182698E-4,-0.0013405308,64.0,3.2820783,-1.7264962,9.078414,-0.2174179,0.12251988,-0.6438708,0.06482393,-0.18145984,0.72235554,2016-12-12 08:01:24,57.5563529445009
3.523416,-1.8179201,9.718697,-0.0033591613,0.0026794672,0.001023978,70.0,3.28191,-1.7249379,9.07877,-0.24748628,0.09657018,-0.65667063,0.06467303,-0.18146354,0.7216347,2016-12-12 08:01:25,59.67692463209424
3.529396,-1.84184,9.7198925,-8.566156E-4,2.3816526E-4,9.317249E-4,64.0,3.2921033,-1.7197678,9.076058,-0.21576487,0.08978023,-0.6486176,0.06524858,-0.18163815,0.7215805,2016-12-12 08:01:27,54.42925301372792
3.509064,-1.821508,9.730657,0.0016759261,2.0304322E-4,0.0033527836,64.0,3.295988,-1.7211888,9.074379,-0.20470396,0.13500322,-0.6479057,0.06482815,-0.18202399,0.7196387,2016-12-12 08:01:28,64.54728684090298
3.50428,-1.8490161,9.710324,-7.4445456E-4,0.0026093423,-0.0015321448,64.0,3.287147,-1.7236447,9.07712,-0.21832886,0.12656741,-0.6188526,0.06424144,-0.18184812,0.71910995,2016-12-12 08:01:29,54.696915211318576
3.5126522,-1.8227041,9.727068,-7.675141E-4,1.9694865E-4,8.959919E-4,23.0,3.289587,-1.7229365,9.07637,-0.21230099,0.09976766,-0.6399328,0.0642891,-0.18193632,0.71883297,2016-12-12 08:01:30,67.81548816872547
3.5222201,-1.832272,9.712716,0.0041487366,1.8192828E-4,-0.0015369877,14.0,3.2882502,-1.7213463,9.077158,-0.22320582,0.1073378,-0.6379501,0.06416528,-0.18186988,0.7183783,2016-12-12 08:01:31,70.28807593326408
3.5557082,-1.814332,9.734244,-7.308349E-4,1.9042194E-4,9.1262907E-4,38.0,3.2887037,-1.7193583,9.077371,-0.1976362,0.11171777,-0.6425223,0.06374455,-0.181988,0.7165129,2016-12-12 08:01:32,59.122712387105196
3.542552,-1.832272,9.734244,-6.953031E-4,1.489222E-4,9.217188E-4,32.0,3.2901757,-1.7195364,9.076802,-0.24998453,0.11273557,-0.65505034,0.06373407,-0.1820711,0.71627766,2016-12-12 08:01:33,55.437734785188326
3.5808241,-1.826292,9.739028,0.004155621,-0.007132992,-0.0015565827,38.0,3.286625,-1.7190424,9.078181,-0.19134295,0.10126959,-0.63812196,0.06341276,-0.18199007,0.71555936,2016-12-12 08:01:34,56.7748966354545
3.5006921,-1.834664,9.736636,0.004175842,1.6978383E-4,8.93943E-4,32.0,3.2863803,-1.7187574,9.078325,-0.24899581,0.10155454,-0.6678788,0.06305282,-0.18209514,0.7142307,2016-12-12 08:01:35,61.73618784199835
3.5246122,-1.826292,9.750988,-0.003154315,0.0050106347,0.0032729208,32.0,3.277143,-1.7159969,9.082186,-0.23909692,0.122255236,-0.66043085,0.062429838,-0.18176901,0.71294844,2016-12-12 08:01:36,60.718110965598854
3.5282001,-1.814332,9.74142,-6.71871E-4,-0.0023067743,-0.0017093867,29.0,3.280711,-1.718669,9.080392,-0.21878509,0.11121099,-0.6406962,0.06225937,-0.18207878,0.7121262,2016-12-12 08:01:37,62.05681864782239
3.530592,-1.820312,9.727068,0.0042138696,-0.00232324,6.4054877E-4,32.0,3.288096,-1.7199563,9.0774765,-0.23173225,0.114707746,-0.6866671,0.062282242,-0.18247868,0.7112774,2016-12-12 08:01:38,56.293021501355945
3.554512,-1.821508,9.722284,-7.259548E-4,0.0049346983,5.241111E-4,32.0,3.2902184,-1.7181948,9.077042,-0.22841391,0.11288126,-0.6512223,0.06260707,-0.18242836,0.71193993,2016-12-12 08:01:39,55.57023786457358
3.513848,-1.8167241,9.722284,0.001657933,0.002413556,4.4676661E-4,29.0,3.2918906,-1.7173518,9.076594,-0.20401743,0.11492022,-0.64090604,0.0629318,-0.18237907,0.7127851,2016-12-12 08:01:40,60.63431954110743
3.513848,-1.846624,9.710324,-8.4508955E-4,0.0023388863,-0.0019911006,29.0,3.2894459,-1.7230475,9.076402,-0.21005028,0.11042057,-0.63392276,0.0626813,-0.18249229,0.71294725,2016-12-12 08:01:41,58.61107740453588
3.5246122,-1.8239,9.712716,-8.6936355E-4,-1.5589595E-4,4.556179E-4,40.0,3.2937412,-1.7196915,9.0754795,-0.22369477,0.122148566,-0.6300614,0.063074246,-0.1824856,0.7133339,2016-12-12 08:01:42,59.11111973053666
3.505476,-1.8286841,9.716304,-0.003313288,0.002240181,4.7066063E-4,38.0,3.2912722,-1.7234477,9.075663,-0.21898791,0.10404051,-0.6382494,0.06266915,-0.18259953,0.712682,2016-12-12 08:01:43,57.53954962031124
3.536572,-1.8239,9.701952,0.0015065446,-2.193749E-4,4.6901405E-4,29.0,3.2862732,-1.7221144,9.077725,-0.22518268,0.10058964,-0.6314029,0.062348887,-0.1824209,0.7120706,2016-12-12 08:01:44,54.8941374081792
3.536572,-1.814332,9.715108,0.0014698878,-0.0027178824,4.6923757E-4,29.0,3.2935295,-1.7217346,9.075169,-0.22988662,0.115321346,-0.6459195,0.06267138,-0.18266769,0.71213716,2016-12-12 08:01:45,56.33115272177263
3.5030842,-1.8286841,9.71152,-0.0010000989,0.002133742,-0.0019971356,40.0,3.2881339,-1.7215667,9.077157,-0.22691023,0.110705376,-0.6379507,0.062489893,-0.18245226,0.71224606,2016-12-12 08:01:46,54.492084888518406
3.525808,-1.8382521,9.71152,-0.0010457411,0.002103582,4.382804E-4,70.0,3.291717,-1.718087,9.076517,-0.25322717,0.098637044,-0.6469635,0.06222098,-0.18263344,0.7102733,2016-12-12 08:01:47,58.24565271987818
3.5162401,-1.869348,9.691188,-0.0010287985,0.006837696,4.4842064E-4,98.0,3.2935917,-1.7170036,9.076043,-0.18916035,0.14038448,-0.6486328,0.0624006,-0.18263847,0.7105219,2016-12-12 08:01:48,59.424743076284834
3.4983,-1.857388,9.716304,-0.003545843,0.004382089,5.0489604E-4,83.0,3.2888272,-1.7177348,9.077633,-0.246549,0.10855726,-0.6338871,0.062160194,-0.18249854,0.71043205,2016-12-12 08:01:49,55.31566014189475
3.521024,-1.8382521,9.709128,0.006232634,-0.005301088,4.6358258E-4,83.0,3.2868629,-1.7229356,9.077358,-0.23894525,0.05790844,-0.6604735,0.061960854,-0.18260461,0.7106511,2016-12-12 08:01:50,61.17709325096267
3.511456,-1.8286841,9.721088,0.0013055205,-3.8805604E-4,4.5631826E-4,83.0,3.2886205,-1.7179608,9.077663,-0.24795155,0.110723205,-0.6195049,0.06204672,-0.18253268,0.7100707,2016-12-12 08:01:51,58.50902051740696
3.501888,-1.8286841,9.710324,0.0012806728,-0.0028353184,-0.0019937828,91.0,3.2926342,-1.7198592,9.07585,-0.23197775,0.10882483,-0.6344746,0.062149037,-0.18275118,0.71009773,2016-12-12 08:01:52,63.082208275370675
3.5186322,-1.8334681,9.703148,-0.0035312995,-3.5773218E-4,0.002909243,91.0,3.295293,-1.7161353,9.07559,-0.23171091,0.13168475,-0.6383225,0.062230084,-0.18275988,0.709526,2016-12-12 08:01:53,56.59964584614636
3.5282001,-1.8382521,9.716304,-0.001045078,-0.0027064532,4.607141E-4,91.0,3.29319,-1.7159637,9.076385,-0.22065818,0.11272037,-0.66264325,0.062097706,-0.18269388,0.70932496,2016-12-12 08:01:54,51.880338261929566
3.50428,-1.8274881,9.700756,-9.7552687E-4,-0.0026628673,4.5095384E-4,53.0,3.2911677,-1.7189726,9.07655,-0.23942426,0.11688743,-0.6289911,0.061908867,-0.18273507,0.70931107,2016-12-12 08:01:55,59.12207170698554
3.4695961,-1.8286841,9.715108,-9.161383E-4,-2.1615624E-4,4.478842E-4,23.0,3.2973857,-1.7162173,9.074815,-0.25473434,0.11605478,-0.6343138,0.06186724,-0.1829911,0.70787984,2016-12-12 08:01:56,62.724171000320794
3.523416,-1.83586,9.715108,0.0015749931,-1.8242002E-4,4.0905178E-4,14.0,3.2902436,-1.7188386,9.07691,-0.21044834,0.11223756,-0.6346102,0.06124538,-0.18290828,0.7069659,2016-12-12 08:01:57,60.997873736678805
3.507868,-1.826292,9.707932,-8.3325803E-4,-1.8928945E-4,4.2557716E-4,14.0,3.2937698,-1.7188731,9.075624,-0.22605829,0.10981091,-0.63709146,0.06150004,-0.18300197,0.7073946,2016-12-12 08:01:58,59.48336533212136
3.499496,-1.8227041,9.681621,-7.7570975E-4,0.0022769421,4.4380873E-4,29.0,3.2911904,-1.7175403,9.076813,-0.23222588,0.11353578,-0.6263351,0.061325226,-0.18289512,0.70695466,2016-12-12 08:01:59,56.70415985297503
3.499496,-1.8167241,9.724676,0.0017056763,-0.0026115477,3.9013475E-4,38.0,3.286699,-1.7188381,9.078195,-0.2391089,0.12419804,-0.6345219,0.060862657,-0.18285705,0.70606637,2016-12-12 08:02:01,56.32953108756961
3.531788,-1.837056,9.707932,0.0017667785,-0.002608791,3.573224E-4,38.0,3.2915535,-1.7176533,9.076659,-0.22229455,0.12538287,-0.6492127,0.061300617,-0.1829247,0.7068239,2016-12-12 08:02:02,53.73967878893766
3.554512,-1.820312,9.725872,0.0042339563,-0.007454708,-0.0021168813,38.0,3.2986138,-1.7161708,9.074376,-0.22480245,0.11610125,-0.63355625,0.061761845,-0.18308765,0.7073005,2016-12-12 08:02:03,59.89179487543795
3.4971042,-1.869348,9.700756,-0.0030809417,-1.6658008E-4,3.1472743E-4,38.0,3.291588,-1.7057066,9.0789,-0.21628012,0.066765405,-0.63620764,0.061806317,-0.1824417,0.70715487,2016-12-12 08:02:04,56.38429058576954
3.523416,-1.8394481,9.725872,-0.0030616596,-1.551956E-4,3.386885E-4,85.0,3.2908027,-1.7182065,9.076828,-0.21706542,0.10330153,-0.6502403,0.061396662,-0.18286914,0.70736396,2016-12-12 08:02:05,65.41573020004012
3.523416,-1.8382521,9.7198925,0.0018681511,-1.7645955E-4,-0.002091013,59.0,3.287126,-1.7175627,9.078281,-0.22074206,0.111121416,-0.6344354,0.061216317,-0.18272686,0.707155,2016-12-12 08:02:06,52.940841990445435
3.51026,-1.832272,9.685208,-5.613938E-4,-0.0050037354,3.702417E-4,98.0,3.287931,-1.7116386,9.079108,-0.25581717,0.16847353,-0.65154785,0.061415814,-0.18254438,0.7070114,2016-12-12 08:02:07,62.23671266891348
3.547336,-1.8167241,9.724676,-0.0054203644,0.004823163,0.0027949587,98.0,3.2864904,-1.714005,9.079184,-0.2596496,0.08836714,-0.63472885,0.06112234,-0.18263237,0.706438,2016-12-12 08:02:08,63.873641113031894
3.523416,-1.837056,9.749792,0.0019667074,-0.0025368333,2.669692E-4,98.0,3.2894027,-1.7136576,9.078195,-0.23401335,0.105458416,-0.67159754,0.061408587,-0.18267442,0.70702755,2016-12-12 08:02:09,60.81135938088455
3.535376,-1.83586,9.740224,-4.4223666E-4,-0.0025190562,1.7240644E-4,98.0,3.2846744,-1.7146379,9.0797205,-0.22199792,0.114046216,-0.67365915,0.061560743,-0.18240994,0.70842314,2016-12-12 08:02:10,69.60592003959034
3.529396,-1.825096,9.697168,-0.0028444752,0.002365902,1.0743737E-4,29.0,3.2900424,-1.7211049,9.076554,-0.23935382,0.08605127,-0.6385539,0.061642192,-0.18282464,0.70876265,2016-12-12 08:02:11,61.968218625181564
3.515044,-1.8274881,9.722284,-3.7354976E-4,-9.997189E-5,3.5077333E-5,47.0,3.2953246,-1.7169238,9.07543,-0.23765929,0.110564366,-0.6456588,0.062095366,-0.18282808,0.70912296,2016-12-12 08:02:12,55.916426920113224
3.544944,-1.821508,9.73544,0.0021256134,-0.0025444925,1.79559E-5,74.0,3.298,-1.7167811,9.074484,-0.22302404,0.12745091,-0.64421266,0.062023256,-0.18298426,0.7084404,2016-12-12 08:02:13,64.05727073841437
3.711188,-1.784432,9.700756,-0.00763344,0.004719168,0.0024239942,85.0,3.2942321,-1.7169429,9.075823,-0.12154373,0.13566111,-0.6978899,0.06206098,-0.18278496,0.7091599,2016-12-12 08:02:14,62.88812710770743
3.513848,-1.846624,9.707932,-0.0027523935,0.0047775507,-7.6405704E-5,85.0,3.29307,-1.7194741,9.075765,-0.21718992,0.10801409,-0.63695174,0.062082846,-0.18278556,0.7097384,2016-12-12 08:02:15,64.02167798842693
3.515044,-1.837056,9.721088,-2.7040392E-4,-0.0025579184,-1.0051578E-4,85.0,3.2941005,-1.7165443,9.075945,-0.22692339,0.121707834,-0.63677114,0.062232424,-0.18270949,0.7097641,2016-12-12 08:02:16,55.45611768740072
3.494712,-1.83586,9.698364,0.0045986697,-0.005043149,-1.1255592E-4,85.0,3.2964942,-1.7179577,9.074809,-0.20300183,0.110726275,-0.6199679,0.062181313,-0.18288538,0.70940095,2016-12-12 08:02:17,53.23081116659119
3.541356,-1.819116,9.72348,-0.0027852058,0.002219841,0.0023156628,74.0,3.2934625,-1.7159387,9.076291,-0.2526774,0.11035335,-0.65077686,0.062023908,-0.1827321,0.7090074,2016-12-12 08:02:18,60.20646190880586
3.5162401,-1.82988,9.707932,-2.7886033E-4,-2.0578504E-4,-1.3329834E-4,74.0,3.296137,-1.719667,9.074615,-0.23445494,0.11260507,-0.6524533,0.061536692,-0.1831303,0.7072824,2016-12-12 08:02:19,57.8643807404163
3.529396,-1.8334681,9.722284,-2.2508949E-4,-0.0026428849,-1.2853742E-4,74.0,3.2931736,-1.7145609,9.076656,-0.24339843,0.12129911,-0.6181208,0.06153856,-0.18284522,0.7070688,2016-12-12 08:02:20,56.94085871174808
3.542552,-1.8227041,9.710324,-1.9879639E-4,0.0046589226,-1.1111051E-4,74.0,3.292629,-1.7135082,9.077052,-0.24035482,0.103215754,-0.66676,0.061258063,-0.18288414,0.70596874,2016-12-12 08:02:21,65.2580536873906
3.535376,-1.8334681,9.727068,-2.283454E-4,-2.0635128E-4,0.0022985414,59.0,3.2976162,-1.7171992,9.074545,-0.23297581,0.11148484,-0.6525234,0.061409432,-0.18318276,0.70627165,2016-12-12 08:02:22,62.024819041917176
3.509064,-1.832272,9.71152,-0.0026323572,-0.0026714504,0.00230778,59.0,3.2989218,-1.714436,9.074592,-0.23884647,0.10587591,-0.6512807,0.061588537,-0.18311594,0.70638657,2016-12-12 08:02:23,65.12672421035718
3.521024,-1.8274881,9.728264,-2.4764985E-4,0.0021701753,-1.4173985E-4,68.0,3.2919755,-1.7136128,9.07727,-0.2206766,0.11985534,-0.62468207,0.061643623,-0.18272422,0.7075149,2016-12-12 08:02:24,62.87659127346704
3.530592,-1.8286841,9.707932,0.0021330565,-3.016442E-4,-1.6223639E-4,59.0,3.2939684,-1.714266,9.076424,-0.21748745,0.10126214,-0.6315093,0.061587688,-0.18286112,0.70709556,2016-12-12 08:02:25,63.73947167093669
3.499496,-1.804764,9.717501,-3.426969E-4,-0.0027845204,-1.8269569E-4,59.0,3.2967918,-1.7144326,9.075368,-0.23380028,0.12262349,-0.64093584,0.061756916,-0.18295132,0.7073278,2016-12-12 08:02:26,62.66084949692149
3.527004,-1.846624,9.716304,-0.0027588233,-3.568977E-4,-2.3196638E-4,59.0,3.291129,-1.7150483,9.077305,-0.22391485,0.11961568,-0.6425877,0.06141814,-0.18279515,0.70698696,2016-12-12 08:02:27,63.88828107164565
3.553316,-1.8179201,9.721088,0.0020906478,-3.556311E-4,-2.8198212E-4,59.0,3.2895494,-1.7106962,9.078699,-0.20037879,0.10004779,-0.642389,0.061480932,-0.18257953,0.7068916,2016-12-12 08:02:28,60.729069581401625
3.515044,-1.831076,9.717501,-4.2051077E-4,-4.6429038E-4,0.0021442696,59.0,3.298732,-1.7171181,9.074156,-0.23783992,0.08884192,-0.64334524,0.06151214,-0.1832026,0.7064777,2016-12-12 08:02:29,57.34663657728896
3.513848,-1.84782,9.712716,0.0018926635,-5.0994754E-4,-2.8060377E-4,85.0,3.292534,-1.7180201,9.076234,-0.24284196,0.11544804,-0.65083414,0.060947474,-0.18310185,0.7054115,2016-12-12 08:02:30,62.09532812900336
3.515044,-1.832272,9.72348,-0.0030758828,-5.2958727E-4,-2.66172E-4,68.0,3.296044,-1.7133347,9.075846,-0.21182401,0.11176132,-0.64045775,0.06106335,-0.18311732,0.7047143,2016-12-12 08:02:31,59.52618643765615
3.5377681,-1.837056,9.709128,0.0018512681,-0.0029396415,-2.6690215E-4,85.0,3.290357,-1.714218,9.077742,-0.24741116,0.11446605,-0.6313865,0.060642987,-0.18299294,0.70410335,2016-12-12 08:02:32,57.02187850064112
3.513848,-1.825096,9.717501,-0.0054242834,0.0044629723,-2.6375055E-4,104.0,3.294275,-1.7138889,9.076385,-0.266217,0.11599106,-0.66742754,0.060747594,-0.18314748,0.70387065,2016-12-12 08:02:33,63.044083480016155
3.5377681,-1.8274881,9.737832,-0.0028725117,-3.7764013E-4,-2.546832E-4,81.0,3.3012161,-1.7169143,9.073289,-0.22220016,0.10100582,-0.65497494,0.060959127,-0.18350753,0.7040265,2016-12-12 08:02:35,62.291466347862325
3.5030842,-1.821508,9.680425,0.0020005032,0.0020855963,0.002174288,51.0,3.2969034,-1.71701,9.074841,-0.23727673,0.12722206,-0.58883977,0.060765762,-0.1833563,0.7039563,2016-12-12 08:02:36,63.7384802383357
3.525808,-1.837056,9.707932,-3.901273E-4,-3.4026802E-4,-2.8494E-4,62.0,3.305618,-1.7150152,9.072046,-0.24411008,0.112472974,-0.6442571,0.061522692,-0.18349223,0.70522577,2016-12-12 08:02:37,60.68590245367129
3.5401602,-1.834664,9.71152,0.002011992,-3.734976E-4,-2.9572845E-4,62.0,3.2973046,-1.716635,9.074764,-0.22730741,0.11563699,-0.63436407,0.061357602,-0.18316953,0.7060519,2016-12-12 08:02:38,56.772270310720046
3.530592,-1.82988,9.705541,0.001954697,0.0020129085,-2.7235597E-4,62.0,3.3017805,-1.7155896,9.073336,-0.23479164,0.093958385,-0.6489485,0.061722297,-0.18324596,0.70660967,2016-12-12 08:02:39,61.865873337567734
3.538964,-1.8382521,9.709128,-5.4623187E-4,0.004416272,-2.648756E-4,53.0,3.3006637,-1.7159754,9.073668,-0.23830052,0.12227672,-0.6354612,0.061500307,-0.18327424,0.70599985,2016-12-12 08:02:40,57.814011623293084
3.523416,-1.84184,9.724676,-0.002972111,-4.8096478E-4,-2.8259307E-4,53.0,3.2939165,-1.7167666,9.07597,-0.23787148,0.11191753,-0.6343547,0.06135029,-0.18300411,0.7065437,2016-12-12 08:02:41,58.25031344696323
3.530592,-1.834664,9.7198925,-4.3765455E-4,0.0019676387,-2.655387E-4,53.0,3.2988832,-1.719035,9.073735,-0.24845278,0.11443302,-0.63539284,0.06131229,-0.18332772,0.7059606,2016-12-12 08:02:42,62.621293061347664
3.5246122,-1.8239,9.709128,-4.2516738E-4,-4.4503808E-4,-2.7427822E-4,44.0,3.2989118,-1.7171717,9.0740795,-0.22809213,0.1151004,-0.65059626,0.061572265,-0.1831929,0.70668143,2016-12-12 08:02:43,58.724228208081
3.547336,-1.821508,9.736636,0.0020995215,-0.002822876,-3.0145794E-4,44.0,3.2991538,-1.7141917,9.074554,-0.19914632,0.10970833,-0.6381617,0.061743047,-0.18306923,0.70689505,2016-12-12 08:02:44,59.20152671863117
3.5437481,-1.8286841,9.701952,-0.0027569234,0.0020856857,0.0021423995,53.0,3.3034332,-1.7129146,9.073238,-0.23553105,0.11337752,-0.6382821,0.06192454,-0.1831911,0.7067705,2016-12-12 08:02:45,59.45634360129099
3.513848,-1.84782,9.709128,-2.3898482E-4,-0.0028075874,-3.266409E-4,44.0,3.300228,-1.7155399,9.073908,-0.20405191,0.10238018,-0.64239544,0.06161557,-0.18320203,0.7064364,2016-12-12 08:02:46,62.20332990474948
3.5222201,-1.8382521,9.722284,-0.0026366115,0.0021084845,-3.2956153E-4,44.0,3.3018425,-1.7160149,9.073233,-0.2395137,0.107885204,-0.64187574,0.061650198,-0.18328455,0.7063876,2016-12-12 08:02:47,60.54480455896679
3.5222201,-1.819116,9.6876,-1.6629696E-4,-0.0027517527,-3.522113E-4,44.0,3.3019803,-1.7109063,9.074146,-0.2262199,0.12854177,-0.63617843,0.061934073,-0.18306153,0.7067615,2016-12-12 08:02:48,60.15146288424039
3.554512,-1.8286841,9.728264,-1.1782348E-4,-2.7257204E-4,-3.6484003E-4,44.0,3.299461,-1.7178088,9.073758,-0.23352292,0.11326719,-0.6341741,0.06180856,-0.1831579,0.7075597,2016-12-12 08:02:49,65.73062001337047
3.529396,-1.82988,9.73544,-1.462847E-4,0.002130285,0.002015181,53.0,3.2994075,-1.7187434,9.0736,-0.22879268,0.10994068,-0.63433254,0.061750326,-0.18319947,0.707472,2016-12-12 08:02:50,59.01017455321424
3.532984,-1.82988,9.7198925,-7.016957E-5,-0.0027228296,-4.4994056E-4,53.0,3.2992933,-1.7149065,9.0743685,-0.26359072,0.108993605,-0.69336456,0.062109172,-0.18297122,0.7083262,2016-12-12 08:02:51,58.529317813192364
3.523416,-1.814332,9.72946,-0.0024671182,0.0021422058,-4.6943128E-4,44.0,3.2972796,-1.7135425,9.075357,-0.24048868,0.1067695,-0.6409464,0.061867874,-0.18291509,0.7075529,2016-12-12 08:02:52,60.226996729518085
3.5616882,-1.825096,9.72946,-0.002442591,-2.3205578E-4,-4.3091178E-4,53.0,3.3042772,-1.712172,9.0730715,-0.19641484,0.13086408,-0.6504086,0.062323,-0.18307921,0.70802885,2016-12-12 08:02:53,60.273501449876505
3.529396,-1.7808441,9.734244,-0.0023985878,0.0070139766,-4.4161826E-4,53.0,3.295745,-1.7156099,9.075525,-0.283883,0.14656214,-0.64556354,0.06191084,-0.1828773,0.7082067,2016-12-12 08:02:54,57.17024843370781
3.523416,-1.83586,9.701952,0.0025159344,-0.002687335,0.0019648895,53.0,3.2976787,-1.7134356,9.0752325,-0.21856122,0.11524843,-0.63389647,0.062133547,-0.18284243,0.7084667,2016-12-12 08:02:55,63.292007388182384
3.5162401,-1.826292,9.725872,0.002534248,-0.0026587844,0.0019259006,53.0,3.3000236,-1.7140642,9.074262,-0.22578444,0.11222777,-0.631279,0.06222695,-0.18294604,0.7085465,2016-12-12 08:02:56,58.027434223365056
3.548532,-1.8167241,9.71152,9.359419E-5,-2.155602E-4,-5.4923445E-4,62.0,3.2947266,-1.7130843,9.07637,-0.27294132,0.09885581,-0.65069735,0.062073115,-0.18270418,0.7086351,2016-12-12 08:02:57,56.9902237353038
3.530592,-1.84184,9.717501,-0.0023368597,-1.5828013E-4,-5.757883E-4,53.0,3.3031254,-1.7137102,9.0732,-0.2274667,0.11138576,-0.6466922,0.062352568,-0.18305118,0.7085071,2016-12-12 08:02:58,63.067904453860706
3.5222201,-1.8239,9.707932,-0.0023160875,0.0047050416,-0.0030404627,53.0,3.3000917,-1.7122529,9.074579,-0.20299247,0.11284312,-0.6453133,0.062459573,-0.18282251,0.70916647,2016-12-12 08:02:59,58.84088480396279
3.521024,-1.83586,9.706737,1.4669448E-4,-1.873374E-4,-6.0806423E-4,53.0,3.2976966,-1.714693,9.074989,-0.22452363,0.116383135,-0.63533556,0.06218392,-0.18285932,0.70881283,2016-12-12 08:03:00,61.43766324946253
3.499496,-1.825096,9.71152,1.6031414E-4,-1.7760694E-4,-6.0887635E-4,53.0,3.2991097,-1.7155039,9.074323,-0.22550242,0.12035598,-0.64078563,0.062314965,-0.18290767,0.7091935,2016-12-12 08:03:01,61.8703079365216
3.541356,-1.8239,9.724676,2.0726025E-4,0.004673764,0.0017993897,53.0,3.294377,-1.7160659,9.075935,-0.25774288,0.106638275,-0.6523282,0.062248923,-0.18270524,0.7097229,2016-12-12 08:03:02,63.24416576152048
3.5341802,-1.821508,9.710324,-0.0022302046,-2.4209917E-4,-6.851256E-4,53.0,3.297595,-1.7139314,9.0751705,-0.22223318,0.113556676,-0.6423305,0.062478412,-0.18273368,0.7098223,2016-12-12 08:03:03,58.930322236697506
3.5162401,-1.8334681,9.718697,2.3728609E-4,-2.3189187E-4,-7.003248E-4,53.0,3.2990959,-1.7141157,9.07459,-0.23867227,0.10978432,-0.6500865,0.06259177,-0.18277586,0.7100432,2016-12-12 08:03:04,59.970750363209945
3.538964,-1.825096,9.701952,0.0026722401,-2.1459162E-4,-7.2313845E-4,53.0,3.2968693,-1.7175776,9.074745,-0.25405484,0.10512655,-0.64275545,0.06232307,-0.18284607,0.7098219,2016-12-12 08:03:06,59.326680355771316
3.511456,-1.832272,9.718697,2.6979297E-4,0.0022359192,0.0016643554,44.0,3.3013344,-1.7129575,9.073994,-0.21610154,0.13007863,-0.6447025,0.06277896,-0.18279469,0.71025604,2016-12-12 08:03:07,54.33658040445836
3.5162401,-1.837056,9.710324,-0.0021409914,-1.9341707E-4,-8.284822E-4,44.0,3.2996106,-1.7171516,9.07383,-0.23337328,0.121100515,-0.62812257,0.062640496,-0.18286529,0.7105359,2016-12-12 08:03:08,59.83802390675312
3.544944,-1.8167241,9.72348,0.0027303249,0.0022258162,-8.544028E-4,62.0,3.3018434,-1.7129042,9.07382,-0.21798459,0.119367845,-0.6448767,0.0630112,-0.1827392,0.7110333,2016-12-12 08:03:09,57.71694954719951
3.5186322,-1.840644,9.704344,2.9873848E-4,-0.0026907623,-8.7150186E-4,53.0,3.3002632,-1.7127334,9.074426,-0.21956484,0.09920681,-0.6454671,0.0630734,-0.18263303,0.7114761,2016-12-12 08:03:10,54.62655598101735
3.515044,-1.832272,9.717501,0.0027720705,-1.8899143E-4,-8.5760653E-4,53.0,3.3020682,-1.7145605,9.073424,-0.2608157,0.10335954,-0.65723234,0.06315818,-0.18274353,0.7117546,2016-12-12 08:03:11,60.47290237217502
3.527004,-1.813136,9.709128,3.8586557E-4,-0.0026097,0.0015441924,53.0,3.2890973,-1.7162963,9.077807,-0.22594665,0.0992318,-0.6456728,0.062396653,-0.18239349,0.71108437,2016-12-12 08:03:12,57.00213181050546
3.523416,-1.8394481,9.704344,0.0028293356,-0.0026656687,0.0015444979,53.0,3.3025513,-1.7155943,9.073052,-0.21847266,0.111893855,-0.6300953,0.06274376,-0.18293796,0.7102827,2016-12-12 08:03:13,59.68679768425764
3.4851441,-1.851408,9.705541,-0.0045098215,0.014411375,-0.003393814,85.0,3.3126295,-1.7034059,9.071676,-0.2514505,0.14800212,-0.6338649,0.06338267,-0.18290967,0.70959216,2016-12-12 08:03:14,54.60362118490562
3.5557082,-1.8286841,9.712716,0.005229488,-0.0051347464,0.001462467,85.0,3.2992766,-1.7114906,9.075021,-0.2360995,0.1279574,-0.6472639,0.06287101,-0.18261999,0.7107147,2016-12-12 08:03:15,57.16259854606363
3.482752,-1.8394481,9.705541,3.4074485E-4,-2.1758676E-4,0.0014552698,74.0,3.3039837,-1.7162491,9.072408,-0.30674013,0.10525895,-0.6773843,0.06305238,-0.18292178,0.7112949,2016-12-12 08:03:16,56.82201854789318
3.538964,-1.82988,9.669661,-0.0020714998,0.0021680295,0.0014883652,74.0,3.3085778,-1.7128232,9.071382,-0.22081834,0.13021292,-0.6520991,0.06325369,-0.18299536,0.7109205,2016-12-12 08:03:17,59.23145054278443
3.495908,-1.84184,9.721088,0.0027232245,-0.0028153956,0.0014490932,106.0,3.294851,-1.7054687,9.077761,-0.19148879,0.12799948,-0.60864335,0.06291073,-0.18222325,0.71074814,2016-12-12 08:03:18,52.55491891859787
3.4971042,-1.819116,9.692384,-0.0022190437,0.0020372272,0.0014286041,53.0,3.3087611,-1.7032336,9.073119,-0.24575113,0.09076646,-0.65992874,0.063683674,-0.18260361,0.7112588,2016-12-12 08:03:19,58.34010418618503
3.550924,-1.808352,9.715108,1.7150491E-4,-0.002861753,0.0014672652,53.0,3.2936733,-1.7158903,9.076224,-0.19864684,0.1235577,-0.6352964,0.06260337,-0.1825438,0.71111846,2016-12-12 08:03:20,58.18788310203398
3.5832162,-1.810744,9.739028,-0.0022499487,0.002041459,0.0014941618,83.0,3.2921267,-1.7152917,9.076899,-0.23368134,0.12415625,-0.6477777,0.06250554,-0.18248315,0.7109092,2016-12-12 08:03:21,59.16685390298703
3.509064,-1.815528,9.728264,0.0026633367,-0.0028164238,-0.0034097806,119.0,3.2943835,-1.7074457,9.077559,-0.25295243,0.103298314,-0.6471166,0.062594935,-0.18236019,0.7098989,2016-12-12 08:03:22,56.35964767224451
3.530592,-1.7904121,9.7198925,2.245903E-4,-0.0052094907,0.0014180914,104.0,3.2953362,-1.7125881,9.076243,-0.18023996,0.08858795,-0.6221207,0.06257549,-0.18255056,0.7103452,2016-12-12 08:03:23,57.98238878038666
3.48634,-1.798784,9.7198925,-0.0022188872,-3.3533573E-4,0.0014221817,128.0,3.299727,-1.7123301,9.0746975,-0.20814124,0.11515798,-0.6475865,0.06270096,-0.18272339,0.7101253,2016-12-12 08:03:24,55.19220767521362
3.5126522,-1.8286841,9.709128,0.0027083978,-0.0076423734,0.0014068708,128.0,3.300786,-1.7148715,9.0738325,-0.21066988,0.11022446,-0.64605975,0.06263393,-0.18286702,0.7100455,2016-12-12 08:03:25,63.02178049718371
3.493516,-1.920776,9.698364,0.0027648732,0.00206244,-0.0035043359,128.0,3.3014715,-1.7097031,9.074556,-0.25782472,0.13692103,-0.6549036,0.063247584,-0.18255436,0.7115542,2016-12-12 08:03:26,60.33169986733354
3.525808,-1.84184,9.727068,0.002759397,0.002052009,-0.0010718852,128.0,3.2898414,-1.7155641,9.077674,-0.22041853,0.110727884,-0.6386293,0.06256511,-0.18235414,0.71150434,2016-12-12 08:03:27,52.529692041886904
3.550924,-1.8382521,9.724676,0.0027600229,-0.005238205,-0.0010816827,128.0,3.2970843,-1.7142113,9.075301,-0.20958793,0.103708796,-0.652963,0.06279046,-0.18260819,0.71108985,2016-12-12 08:03:28,57.9370893251872
3.501888,-1.825096,9.713912,3.6367774E-4,0.0020794123,0.0013668239,128.0,3.300352,-1.7086167,9.075169,-0.19914398,0.12245938,-0.613627,0.06330488,-0.18244904,0.71179396,2016-12-12 08:03:29,52.27175166099983
3.547336,-1.8753281,9.672052,0.002816245,-0.005294487,-0.0010744408,128.0,3.2918239,-1.7095977,9.078081,-0.23278819,0.07842238,-0.6190876,0.06291332,-0.18217736,0.7117371,2016-12-12 08:03:30,51.10081499984219
3.471988,-1.809548,9.712716,-0.004495807,0.0069371164,0.0037723705,128.0,3.2987187,-1.7071216,9.076044,-0.23306935,0.11558248,-0.64265203,0.06341947,-0.18228687,0.71227026,2016-12-12 08:03:31,50.25141781515878
3.5186322,-1.7796481,9.718697,0.0027912185,-0.002806589,-0.0011371896,128.0,3.3002954,-1.7041878,9.076023,-0.25660864,0.062304188,-0.63310564,0.06351747,-0.1822558,0.71202403,2016-12-12 08:03:32,53.0213896227945
3.47438,-1.83586,9.704344,3.4261495E-4,-0.0052248687,0.0012868792,128.0,3.300252,-1.7000917,9.076807,-0.20163609,0.091516405,-0.6311258,0.06381754,-0.1820412,0.7126192,2016-12-12 08:03:33,52.36227091177043
3.5162401,-1.815528,9.715108,3.3332407E-4,-3.1730533E-4,-0.0011587068,128.0,3.2977703,-1.708573,9.076117,-0.25195786,0.083035134,-0.6485598,0.06352842,-0.18223894,0.71299946,2016-12-12 08:03:34,54.10703920231135
3.579628,-1.8119401,9.745008,0.0027778074,-0.005207941,-0.0011833757,128.0,3.3034682,-1.706581,9.07442,-0.19363603,0.092203066,-0.64547294,0.063638635,-0.18243782,0.71230596,2016-12-12 08:03:35,56.43911111721431
3.55212,-1.813136,9.724676,0.0028101876,-3.273636E-4,0.0012757406,128.0,3.299542,-1.7127173,9.074691,-0.20832624,0.10998686,-0.64759356,0.063229136,-0.18254212,0.7121572,2016-12-12 08:03:37,59.1674699894573
3.5186322,-1.815528,9.72348,3.7795305E-4,-0.0028081685,-0.0012043715,128.0,3.290313,-1.7093412,9.078678,-0.23190731,0.11575477,-0.64241004,0.06324603,-0.18197863,0.71316236,2016-12-12 08:03:38,58.557740158171555
3.5282001,-1.826292,9.717501,0.002844356,-3.8307905E-4,0.0012240037,128.0,3.29625,-1.7100651,9.076387,-0.20802988,0.10905089,-0.6542694,0.0633633,-0.18225849,0.71280485,2016-12-12 08:03:39,55.177639972498596
3.536572,-1.825096,9.730657,-0.0020443648,0.0020836592,0.0012480319,128.0,3.2967532,-1.712406,9.075764,-0.22546704,0.118670076,-0.63814825,0.06339199,-0.18233576,0.7131341,2016-12-12 08:03:40,60.40090973182686
3.530592,-1.826292,9.713912,4.0738285E-4,-3.439784E-4,0.0012118146,128.0,3.2995086,-1.7093598,9.075336,-0.22749534,0.12291224,-0.662496,0.06373236,-0.18227683,0.71359485,2016-12-12 08:03:41,54.0897979443045
3.535376,-1.810744,9.72946,4.452318E-4,-3.4110248E-4,0.0012084544,128.0,3.2950068,-1.7099591,9.076859,-0.22840953,0.1079609,-0.6502087,0.06352008,-0.1821379,0.71355635,2016-12-12 08:03:42,57.10968906403319
3.5186322,-1.82988,9.715108,-0.0020424873,0.0020904094,0.0011894777,128.0,3.2946267,-1.7098157,9.077025,-0.23955344,0.10092837,-0.64765084,0.06342214,-0.18214895,0.71323246,2016-12-12 08:03:43,57.13566791911624
3.517436,-1.8274881,9.72348,3.052801E-4,0.0020526499,0.0011664703,128.0,3.2969294,-1.7082357,9.076486,-0.23127076,0.103704415,-0.6434066,0.06368758,-0.18213172,0.7136704,2016-12-12 08:03:44,56.46001639296685
3.517436,-1.834664,9.707932,2.484396E-4,0.004461959,-0.0012448803,128.0,3.296368,-1.7129756,9.075797,-0.240204,0.11212036,-0.6405068,0.063394025,-0.18233053,0.7132713,2016-12-12 08:03:45,56.25083383156114
3.5461402,-1.8179201,9.7198925,1.5196949E-4,0.0019588172,0.0012186021,128.0,3.2916403,-1.7085665,9.0783415,-0.23655981,0.11054946,-0.6379618,0.063053764,-0.1820923,0.7121533,2016-12-12 08:03:46,58.8044102544832
3.517436,-1.810744,9.713912,1.2002885E-4,-5.2401423E-4,0.0012189895,128.0,3.2908654,-1.7091978,9.0785055,-0.20623891,0.12187837,-0.633015,0.06287386,-0.18213178,0.7116824,2016-12-12 08:03:47,50.8347673470351
3.56408,-1.820312,9.743813,0.002467282,-0.0030660778,0.0011794418,128.0,3.2880056,-1.7093617,9.07951,-0.17202275,0.13367446,-0.6188544,0.062760666,-0.18203011,0.7117091,2016-12-12 08:03:48,50.16243513479619
3.5748441,-1.8179201,9.731853,0.0025147647,-0.0030261576,-0.0012967288,128.0,3.2983892,-1.7112569,9.075385,-0.22622283,0.104271255,-0.6540747,0.06322003,-0.18244825,0.7121086,2016-12-12 08:03:49,51.417990950299135
3.541356,-1.8119401,9.722284,1.3813376E-4,0.0019092262,0.0011520013,128.0,3.2952392,-1.7122222,9.076348,-0.23056875,0.10808979,-0.6267992,0.06300443,-0.18238837,0.71190214,2016-12-12 08:03:50,53.50479741416733
3.530592,-1.8227041,9.715108,0.0025938451,-5.465895E-4,-0.0013023168,128.0,3.2999885,-1.7075363,9.075505,-0.2413675,0.100815706,-0.6443875,0.06360358,-0.1822982,0.71281546,2016-12-12 08:03:51,58.42394127996357
3.5186322,-1.820312,9.71152,0.00266812,-0.0029743612,-0.001298897,128.0,3.2946544,-1.7079388,9.077368,-0.21919367,0.12552929,-0.6281728,0.063220195,-0.18217112,0.7122413,2016-12-12 08:03:52,62.935011012470156
3.531788,-1.810744,9.74142,2.5990605E-4,-0.0029630214,0.0011428669,128.0,3.2926066,-1.7108716,9.0775585,-0.22004561,0.111832485,-0.64352995,0.0632411,-0.18213716,0.7129976,2016-12-12 08:03:53,60.741412322007065
3.5162401,-1.834664,9.71152,-0.0021203235,-4.797578E-4,0.0011319146,128.0,3.2966201,-1.7127182,9.075753,-0.24114801,0.10878976,-0.6261983,0.06319737,-0.1824048,0.71247405,2016-12-12 08:03:54,61.21563957737729
3.519828,-1.8119401,9.716304,3.7938356E-4,-0.0028739572,0.0011271313,128.0,3.2943625,-1.7146128,9.076215,-0.21589755,0.10450316,-0.64965695,0.06289212,-0.18244572,0.71192193,2016-12-12 08:03:55,59.4672564242655
3.531788,-1.8286841,9.713912,4.3419003E-4,-4.3031573E-4,0.0010998026,128.0,3.29587,-1.7126281,9.076043,-0.22635026,0.11486001,-0.64265376,0.063074425,-0.1824069,0.7121192,2016-12-12 08:03:56,59.70136537020227
3.523416,-1.8227041,9.705541,4.5853853E-4,-3.8832426E-4,0.0010823011,128.0,3.296028,-1.7104067,9.076405,-0.22140813,0.11708149,-0.6351158,0.06350739,-0.18220602,0.7134143,2016-12-12 08:03:57,57.60406856392748
3.531788,-1.821508,9.715108,-0.0019750297,-3.6935508E-4,-0.0013416708,128.0,3.295736,-1.7119337,9.076222,-0.23126784,0.10598639,-0.64366966,0.06323997,-0.18232445,0.7126632,2016-12-12 08:03:58,58.87575065257746
3.541356,-1.808352,9.713912,4.917532E-4,-3.695339E-4,0.0010734573,128.0,3.2883887,-1.7148563,9.078335,-0.25775138,0.11143574,-0.6295979,0.06274905,-0.1821986,0.71231145,2016-12-12 08:03:59,61.930253515525436
3.45644,-1.821508,9.709128,-0.0019131079,-3.438145E-4,0.0010504872,128.0,3.2971876,-1.7086446,9.076315,-0.20828854,0.066219464,-0.6531454,0.06342653,-0.18224669,0.71271837,2016-12-12 08:04:00,60.166924440701635
3.5437481,-1.808352,9.722284,5.0629675E-4,-0.0027853549,0.001049228,128.0,3.2956312,-1.7070048,9.077189,-0.23615679,0.12646335,-0.6546634,0.06335218,-0.18215029,0.71246564,2016-12-12 08:04:01,56.638828651112796
3.515044,-1.82988,9.718697,3.9868057E-4,-3.9711595E-4,0.0010362789,128.0,3.296779,-1.709886,9.07623,-0.20630525,0.11521,-0.63887775,0.06315608,-0.18235251,0.7119364,2016-12-12 08:04:02,59.42003417776449
3.47438,-1.821508,9.715108,0.0027268752,-4.7513843E-4,-0.0014391243,128.0,3.2944078,-1.7085003,9.077352,-0.22900838,0.1261638,-0.6353648,0.06298257,-0.18225566,0.7114691,2016-12-12 08:04:03,58.56655316887667
3.578432,-1.797588,9.740224,-0.0022243932,0.0042974204,9.846464E-4,128.0,3.297031,-1.7054734,9.076968,-0.16419338,0.12679859,-0.62976855,0.06306888,-0.18227941,0.71101135,2016-12-12 08:04:04,57.70968044979551
3.523416,-1.84184,9.698364,1.4993548E-4,0.004281521,9.397194E-4,128.0,3.2966533,-1.7035052,9.077475,-0.21839082,0.1144149,-0.6292624,0.06303264,-0.18222108,0.7106806,2016-12-12 08:04:05,60.31331758421345
3.519828,-1.8119401,9.706737,2.078861E-4,0.0043355227,9.6690655E-4,128.0,3.2943923,-1.7096081,9.077148,-0.2302198,0.093959995,-0.6439403,0.06272964,-0.18237124,0.7106752,2016-12-12 08:04:07,61.4692362887522
3.5246122,-1.803568,9.728264,0.00269109,-5.302727E-4,-0.003915943,128.0,3.2944033,-1.7098589,9.077098,-0.24456075,0.10566914,-0.6392057,0.0626354,-0.18241079,0.7103561,2016-12-12 08:04:08,56.98699899461329
3.499496,-1.820312,9.716304,2.5306642E-4,-5.199313E-4,-0.0014376193,128.0,3.2972186,-1.7063118,9.076742,-0.23098172,0.09964827,-0.6419541,0.06296537,-0.18234675,0.7107069,2016-12-12 08:04:09,56.8196414496547
3.515044,-1.8011761,9.727068,2.9046834E-4,-5.233586E-4,9.668395E-4,128.0,3.2939563,-1.704162,9.078331,-0.23543987,0.11614991,-0.63916945,0.062787056,-0.18218613,0.71025413,2016-12-12 08:04:10,61.9494161559988
3.530592,-1.809548,9.707932,3.3765286E-4,-5.196184E-4,9.5045567E-4,128.0,3.2954047,-1.7082682,9.077034,-0.23518735,0.10127982,-0.630899,0.06255535,-0.1824472,0.70970577,2016-12-12 08:04:11,55.98420235902217
3.5377681,-1.825096,9.713912,-0.0020605475,-4.7156215E-4,9.509772E-4,128.0,3.2956154,-1.7066845,9.077255,-0.25650457,0.12319559,-0.6641648,0.062653124,-0.1823827,0.709834,2016-12-12 08:04:12,59.76084439028713
3.5246122,-1.8239,9.709128,4.22962E-4,-4.529208E-4,9.1318786E-4,128.0,3.297202,-1.7089372,9.076255,-0.21903789,0.1113748,-0.6520096,0.06265486,-0.18252186,0.709894,2016-12-12 08:04:13,56.00371840702779
3.530592,-1.825096,9.733048,-0.0020030588,-4.272461E-4,8.8549405E-4,128.0,3.2989113,-1.7035043,9.076654,-0.22809272,0.13833573,-0.65160924,0.06293464,-0.18236962,0.7099807,2016-12-12 08:04:14,57.32420245041135
3.5282001,-1.8334681,9.705541,5.0193816E-4,0.0044507533,-0.0015351996,128.0,3.2991507,-1.7080876,9.075706,-0.22904958,0.13255641,-0.6561469,0.06277328,-0.18255773,0.70993483,2016-12-12 08:04:15,63.32579928380775
3.519828,-1.810744,9.733048,5.067289E-4,-4.168749E-4,-0.0015374795,128.0,3.299117,-1.7071681,9.075892,-0.22310324,0.12151597,-0.64041156,0.06281211,-0.18251848,0.7099659,2016-12-12 08:04:16,57.95823101358609
3.55212,-1.798784,9.724676,-0.0019173026,-0.002865553,8.831173E-4,128.0,3.29204,-1.7066274,9.078563,-0.21582799,0.12086072,-0.63654554,0.06289107,-0.18211779,0.71124214,2016-12-12 08:04:17,58.58916985089664
3.50428,-1.8274881,9.7198925,6.3403696E-4,-0.0028430074,-0.004021652,128.0,3.2953331,-1.7101848,9.076698,-0.23884705,0.11371523,-0.65395844,0.062895276,-0.18237713,0.7112234,2016-12-12 08:04:18,59.39424995106269
3.527004,-1.8179201,9.705541,6.53401E-4,-0.0027777702,-0.0015722439,128.0,3.2991338,-1.7094173,9.075461,-0.22189036,0.118070796,-0.6288824,0.06321751,-0.1824385,0.7117539,2016-12-12 08:04:19,62.9020191626773
3.511456,-1.820312,9.704344,6.5463036E-4,-3.709048E-4,-0.0016314238,83.0,3.2905087,-1.7114111,9.078217,-0.23290743,0.11368483,-0.6416759,0.06260514,-0.1822646,0.71102196,2016-12-12 08:04:20,57.26539962562165
3.554512,-1.8227041,9.727068,-0.0018045679,-3.6013126E-4,7.8921765E-4,38.0,3.2989416,-1.7083851,9.075726,-0.23165041,0.089202866,-0.6334031,0.063310936,-0.18236917,0.7119965,2016-12-12 08:04:21,55.94275105167582
3.530592,-1.8382521,9.72946,6.54988E-4,-2.9447675E-4,-0.0016181096,38.0,3.2955585,-1.7079508,9.077037,-0.24101357,0.10398937,-0.660795,0.06309289,-0.18226147,0.71163654,2016-12-12 08:04:22,60.03600462277156
3.523416,-1.8227041,9.701952,-0.0018158406,0.0021279603,7.3450804E-4,53.0,3.2962284,-1.7085925,9.0766735,-0.2319719,0.12367943,-0.64800274,0.063020706,-0.18233733,0.7113515,2016-12-12 08:04:23,61.23636332621287
3.5246122,-1.8179201,9.715108,5.7510287E-4,-3.9240718E-4,-0.0017583817,53.0,3.2919703,-1.7087433,9.07819,-0.2302499,0.11156857,-0.6369184,0.06276231,-0.18221436,0.7110458,2016-12-12 08:04:24,64.13194244376028
3.523416,-1.821508,9.717501,-0.0018657222,0.0020519346,6.571263E-4,44.0,3.2939901,-1.7102435,9.077175,-0.21387802,0.10289251,-0.64630526,0.06320354,-0.18220387,0.7125726,2016-12-12 08:04:25,55.52355022658669
3.5282001,-1.8286841,9.725872,-0.001813449,0.001999259,6.083548E-4,44.0,3.3046997,-1.7220825,9.071041,-0.2187164,0.10420959,-0.6380875,0.06318324,-0.18306698,0.7124135,2016-12-12 08:04:26,59.13241357091106
3.5246122,-1.82988,9.736636,6.568432E-4,-4.119575E-4,-0.0018022805,44.0,3.3018072,-1.707725,9.074808,-0.25509676,0.11019509,-0.65465224,0.06355824,-0.18241146,0.71240133,2016-12-12 08:04:27,56.190704807920405
3.523416,-1.8657601,9.731853,7.143393E-4,-0.0028318763,6.4780563E-4,44.0,3.2961032,-1.7121135,9.076055,-0.22492081,0.13570654,-0.6366618,0.06332006,-0.18232004,0.71292764,2016-12-12 08:04:28,55.73183922530559
3.553316,-1.7641001,9.730657,0.0030665696,-0.0028876662,6.230846E-4,44.0,3.296166,-1.7069612,9.077003,-0.25715017,0.057138916,-0.65365386,0.06358483,-0.18209526,0.71324176,2016-12-12 08:04:29,54.55027520219363
3.5461402,-1.837056,9.707932,5.3833425E-4,0.0019023418,6.2280893E-4,44.0,3.299387,-1.7038915,9.076408,-0.2503411,0.13794848,-0.6351123,0.063839674,-0.18208918,0.7133143,2016-12-12 08:04:30,55.31625717343595
3.494712,-1.8239,9.705541,4.568696E-4,0.0018724948,6.0874224E-4,68.0,3.296844,-1.7105117,9.076088,-0.22776802,0.084684364,-0.64260876,0.06351915,-0.18224618,0.7133497,2016-12-12 08:04:31,57.69271558360028
3.527004,-1.804764,9.707932,3.931448E-4,0.00421001,6.207749E-4,59.0,3.2995915,-1.7053914,9.076054,-0.2573124,0.11970453,-0.6414473,0.06357901,-0.18223019,0.7125103,2016-12-12 08:04:32,63.213719152579415
3.5126522,-1.83586,9.707932,-0.0020987839,-7.392913E-4,5.7321787E-4,70.0,3.2948027,-1.7050256,9.077863,-0.24774931,0.10811039,-0.6468138,0.063361555,-0.18205284,0.71237105,2016-12-12 08:04:33,59.03060343473371
3.530592,-1.825096,9.709128,0.0027216002,-7.482916E-4,-0.0018618554,62.0,3.29885,-1.7054743,9.076307,-0.22815381,0.12799378,-0.63640875,0.063718826,-0.18214579,0.7131487,2016-12-12 08:04:34,53.674327246829506
3.527004,-1.8274881,9.710324,2.5123358E-4,-0.0032037199,5.5295974E-4,53.0,3.3007417,-1.7078896,9.075166,-0.22865444,0.1160105,-0.6411381,0.06362585,-0.18233801,0.71283084,2016-12-12 08:04:35,54.032592083337356
3.527004,-1.831076,9.722284,2.5101006E-4,-7.699281E-4,5.4998696E-4,62.0,3.298064,-1.7108035,9.075588,-0.20262802,0.1166846,-0.6359318,0.063372746,-0.18236679,0.71266407,2016-12-12 08:04:36,58.68797043877859
3.5246122,-1.8382521,9.721088,-0.0021289364,0.0017355382,-0.0018930659,128.0,3.2997022,-1.7106051,9.075032,-0.22132191,0.11927491,-0.6329004,0.063532494,-0.1823892,0.7129859,2016-12-12 08:04:37,59.65270907702306
3.513848,-1.8179201,9.717501,-0.004492499,0.0041800737,5.016923E-4,83.0,3.2965431,-1.7097338,9.076343,-0.21730508,0.12253815,-0.6220213,0.063357405,-0.18226668,0.71269727,2016-12-12 08:04:38,57.291612115974
3.5186322,-1.8286841,9.715108,4.440546E-4,-0.0031104237,4.5970082E-4,62.0,3.2995248,-1.7110648,9.07501,-0.22628333,0.11283523,-0.6436866,0.063320406,-0.18246605,0.7122867,2016-12-12 08:04:39,52.114698736304746
3.547336,-1.808352,9.727068,4.7691911E-4,-6.328076E-4,4.549101E-4,38.0,3.2929888,-1.7105736,9.077476,-0.22325112,0.10136662,-0.642417,0.063148014,-0.182181,0.7125581,2016-12-12 08:04:40,61.26344599794882
3.5222201,-1.834664,9.727068,-0.0019006431,-5.861372E-4,4.2584538E-4,36.0,3.3017275,-1.7109938,9.074221,-0.25278467,0.10931816,-0.6516513,0.063443296,-0.18253343,0.71240455,2016-12-12 08:04:41,57.49615474835498
3.517436,-1.8167241,9.707932,-0.0018446669,-5.752444E-4,4.2557716E-4,36.0,3.2978933,-1.7128612,9.075262,-0.22552288,0.12180282,-0.6422382,0.06312932,-0.18249677,0.71205133,2016-12-12 08:04:43,57.61565988930376
3.550924,-1.777256,9.740224,-0.0018224195,-5.6935847E-4,0.0028458312,64.0,3.2972846,-1.7102376,9.07598,-0.22015141,0.11844649,-0.6415204,0.06309818,-0.18240748,0.71169174,2016-12-12 08:04:44,67.64783615795828
3.511456,-1.862172,9.707932,-0.0066610873,0.006794274,3.745407E-4,88.0,3.2975492,-1.7076114,9.076378,-0.2151029,0.13064064,-0.6219857,0.06341114,-0.18224323,0.7124759,2016-12-12 08:04:45,58.82858810337845
3.50428,-1.803568,9.718697,-0.0017419755,-0.005443886,-0.004557304,88.0,3.3107195,-1.7139279,9.070391,0.1628475,0.07528818,-0.516746,0.06408498,-0.18284401,0.71380866,2016-12-12 08:04:46,56.40721578248844
3.501888,-1.795196,9.709128,7.8368187E-4,-5.645752E-4,3.3062696E-4,88.0,3.2923136,-1.7076038,9.078279,-0.27655074,0.086396135,-0.67869014,0.06356241,-0.18192421,0.7138144,2016-12-12 08:04:47,55.97556278672041
3.5162401,-1.851408,9.71152,7.9330057E-4,-0.005442694,2.970323E-4,88.0,3.3044496,-1.71098,9.073235,-0.17710663,0.15956396,-0.6311095,0.063993044,-0.18247953,0.71402794,2016-12-12 08:04:48,58.02996330980704
3.556904,-1.808352,9.71152,8.429885E-4,-0.0029940754,3.2997876E-4,88.0,3.299923,-1.7127466,9.074547,-0.25698096,0.095605426,-0.6369734,0.06385706,-0.18234354,0.71442306,2016-12-12 08:04:49,58.34825237718624
3.5497282,-1.813136,9.717501,8.772537E-4,-5.2271783E-4,2.8511882E-4,88.0,3.2990732,-1.7121809,9.074962,-0.25304684,0.10573928,-0.63655835,0.06363461,-0.1823632,0.7136568,2016-12-12 08:04:50,58.032837430916146
3.5126522,-1.819116,9.71152,-0.0015565231,-5.196035E-4,2.8833002E-4,88.0,3.2966082,-1.7079345,9.076659,-0.24474779,0.11955358,-0.6348615,0.063622914,-0.18213007,0.7134407,2016-12-12 08:04:51,55.74945319523674
3.541356,-1.8286841,9.695972,9.0022385E-4,0.0019570738,0.0027174428,88.0,3.2992551,-1.7092613,9.075447,-0.23253275,0.1218148,-0.61693656,0.063462526,-0.18235546,0.7126226,2016-12-12 08:04:52,60.08641435843817
3.495908,-1.8274881,9.717501,9.06758E-4,0.0019885153,2.484694E-4,88.0,3.3106372,-1.701932,9.07268,-0.20201486,0.11838,-0.6376444,0.06402451,-0.18254586,0.71207476,2016-12-12 08:04:53,59.92476476831627
3.538964,-1.808352,9.710324,-0.003979251,0.0044866055,2.1718442E-4,88.0,3.300691,-1.7053423,9.075664,-0.23468526,0.10420564,-0.634661,0.06337426,-0.18235607,0.7115823,2016-12-12 08:04:54,53.467171142145496
-2.548676,1.582308,8.397117,6.611966,9.386971,-1.4246408,136.0,3.983439,0.34498408,8.954531,-1.5982933,0.23136409,-0.30131343,0.13767534,-0.15649788,0.5802368,2016-12-12 08:04:55,59.70103230166136
-2.570204,2.185092,8.998704,-0.7224782,-0.22527999,0.63565123,34.0,-0.08765187,1.0400504,9.750948,3.896224,-1.2383298,0.8646681,0.03570496,0.039561875,0.6825083,2016-12-12 08:04:56,62.67184914533229
0.124384,-4.9036,7.088692,-0.2507862,0.635008,1.0291352,19.0,-0.54559934,-4.826654,8.519162,-1.8193393,0.37475044,0.14237726,-0.15674667,-0.20266749,0.82620305,2016-12-12 08:04:57,54.45573682591829
0.38391602,-3.297372,10.222212,-0.3265502,-0.452572,-0.085328765,12.0,1.1419882,-5.810672,7.816799,1.0642482,-2.486988,-2.187741,-0.106264174,-0.30027008,0.81584907,2016-12-12 08:04:58,54.421154356324635
0.01794,-2.054728,10.174373,0.108481795,2.226052,0.09797124,12.0,0.43294698,-3.221308,9.252358,-0.24877304,-1.359136,-0.84307754,-0.06896038,-0.15331513,0.8371373,2016-12-12 08:04:59,60.784454163423625
0.31096,-1.960244,10.253308,0.0522698,0.043560013,0.21283925,12.0,1.1311111,-2.5508912,9.401274,0.83569914,-0.55596334,-0.8424667,-0.038282357,-0.13857473,0.76518196,2016-12-12 08:05:00,63.93410814902246
-0.01196,-1.771276,10.24374,0.0033940375,-4.2049587E-4,2.3520738E-4,12.0,0.087263346,-1.8476498,9.630628,0.105203345,-0.07398177,-0.6466016,-0.057964277,-0.074932374,0.7577986,2016-12-12 08:05:01,53.28636623124876
-0.02392,-1.766492,10.259288,0.0033870712,-3.9212406E-4,2.2544712E-4,12.0,-0.024415407,-1.7075919,9.656808,0.030600594,0.056508217,-0.57377607,-0.05850064,-0.064942665,0.7496097,2016-12-12 08:05:02,58.56012457942931
-0.032292,-1.8023721,10.236565,9.6966326E-4,-3.8032234E-4,-0.0021682754,4.0,-0.019031595,-1.7034278,9.657557,-0.013051596,0.09057225,-0.62684715,-0.059951477,-0.063305475,0.7309219,2016-12-12 08:05:03,58.76176872014959
-0.031096,-1.78802,10.232976,-0.0014444515,-3.6674738E-4,2.9537082E-4,12.0,-0.030094549,-1.7141926,9.6556225,0.024921453,0.07502338,-0.5689818,-0.06370352,-0.060350493,0.6976786,2016-12-12 08:05:04,59.10802223538064
-0.03588,-1.772472,10.238956,0.0010011345,-3.093332E-4,3.2941997E-4,4.0,-0.016902985,-1.7100554,9.656387,0.03691702,0.06959274,-0.5777847,-0.06689657,-0.056445815,0.64990187,2016-12-12 08:05:05,55.356097724297896
-0.049036,-1.778452,10.242544,-0.001406528,-3.1985343E-4,-0.0021285862,4.0,-0.014704452,-1.7098875,9.656423,0.03193955,0.064976625,-0.58612233,-0.07076742,-0.051493242,0.59301364,2016-12-12 08:05:06,63.139739573804704
-0.101660006,-1.749748,10.2258005,0.0010464266,-0.0027453452,3.07478E-4,4.0,-0.013546879,-1.7034856,9.657554,0.03190112,0.068986446,-0.579011,-0.074500784,-0.045292873,0.5242575,2016-12-12 08:05:07,64.39174898751833
-0.088504,-1.715064,10.209056,-0.0013780445,-0.0027094483,3.0966848E-4,4.0,-0.013036227,-1.692687,9.659452,0.007295774,0.04629691,-0.61299163,-0.07781776,-0.03807064,0.44468275,2016-12-12 08:05:08,59.95912786410493
0.015548,-1.8490161,10.297561,-0.0013109818,0.0046215504,2.6351959E-4,4.0,-0.016145956,-1.6994784,9.658256,-0.04006595,0.14714564,-0.5998358,-0.081614584,-0.030084545,0.35342103,2016-12-12 08:05:09,60.086154804058545
-0.01196,-1.826292,10.2628765,0.0010825172,0.0021897405,-0.0021289662,12.0,-0.028774954,-1.6912887,9.659665,-0.0024629515,0.099123366,-0.5757026,-0.0836956,-0.022119505,0.27090114,2016-12-12 08:05:10,61.69870249007944
-0.037076,-1.795196,10.252112,0.0010905117,-2.5370717E-4,3.6756694E-4,12.0,-0.012664982,-1.6946315,9.659112,0.008863019,0.093388624,-0.58941203,-0.08507383,-0.016875379,0.20113492,2016-12-12 08:05:11,53.25379123144978
-0.032292,-1.783236,10.249721,-0.0013549551,-2.5057793E-4,3.7112087E-4,12.0,-0.01809667,-1.6924832,9.65948,0.008215332,0.08836086,-0.56871176,-0.08584543,-0.011581569,0.14374639,2016-12-12 08:05:12,56.51074119852324
-0.022724,-1.7748641,10.261681,-0.0013730451,-2.1734834E-4,3.8419664E-4,12.0,-0.025323015,-1.695096,9.659007,0.016536988,0.08455212,-0.5811451,-0.08650561,-0.0066738008,0.09145849,2016-12-12 08:05:14,52.06522667098306
-0.044252,-1.795196,10.249721,0.0010659322,-2.2673607E-4,3.9097667E-4,12.0,-0.025495645,-1.6913354,9.659666,0.017560357,0.09788053,-0.59125036,-0.08648943,-0.003708396,0.05767403,2016-12-12 08:05:15,61.841608357905784
-0.031096,-1.777256,10.252112,0.0010349005,-2.0471215E-4,4.139021E-4,4.0,-0.026228365,-1.6871212,9.6604,0.021611633,0.10329086,-0.58931965,-0.0863445,-0.0011522181,0.028776698,2016-12-12 08:05:16,56.44186612812776
-0.034684002,-1.794,10.2557,9.98579E-4,-2.1593273E-4,4.420057E-4,12.0,-0.029726252,-1.688152,9.660211,0.00376175,0.09747604,-0.5847259,-0.08640653,5.556715E-4,0.011134094,2016-12-12 08:05:17,57.80812951289
-0.039468,-1.78204,10.253308,9.7183883E-4,0.0022567064,4.624799E-4,12.0,-0.027040033,-1.6913352,9.659661,-0.0019240337,0.0811369,-0.60560733,-0.08655819,0.0014366647,-6.078341E-4,2016-12-12 08:05:18,52.93021250305826
-0.08372,-1.77606,10.241348,-0.001422897,0.002264887,-0.0019461066,12.0,-0.03580928,-1.6931221,9.659319,-0.08843329,0.11522987,-0.65020114,-0.086627685,0.0027286292,-0.010302144,2016-12-12 08:05:19,49.837440150227565
-0.040664002,-1.78204,10.228192,9.7519904E-4,-2.0349026E-4,5.4306537E-4,12.0,-0.037419006,-1.691263,9.659638,-0.021871006,0.0836011,-0.60682553,-0.086515844,0.003242636,-0.015283238,2016-12-12 08:05:20,53.83817046667101
-0.033488,-1.789216,10.285601,-0.0014514253,-1.7820299E-4,-0.0018756241,4.0,-0.028122082,-1.6869426,9.660427,0.011345919,0.09988135,-0.5593927,-0.08629354,0.0029674664,-0.017638559,2016-12-12 08:05:21,55.696054893421135
-0.021528,-1.7748641,10.271248,9.215623E-4,0.0021749437,5.910471E-4,12.0,-0.038879886,-1.6826065,9.661144,-0.008979884,0.089865565,-0.59694767,-0.086041264,0.003953392,-0.022725761,2016-12-12 08:05:22,56.11891729126554
0.00598,-1.7748641,10.335833,7.928014E-4,-3.3281744E-4,5.880743E-4,12.0,-0.03295447,-1.678061,9.661958,0.05435354,0.13627104,-0.54709846,-0.0858273,0.0033124685,-0.018868417,2016-12-12 08:05:23,55.276064266282496
-0.025116,-1.79998,10.259288,7.4349344E-4,0.0020661205,5.6265295E-4,12.0,-0.03842516,-1.6875714,9.66028,0.013002841,0.10044863,-0.57508713,-0.08631653,0.0034995675,-0.017688354,2016-12-12 08:05:24,52.74997082494782
-0.050232,-1.78802,10.247328,0.003126435,-4.506111E-4,5.8446825E-4,4.0,-0.0328554,-1.6887308,9.660097,-0.0340514,0.095701285,-0.61832774,-0.08638663,0.0030698753,-0.016007463,2016-12-12 08:05:25,59.94780477220472
-0.043056,-1.792804,10.274837,6.2669814E-4,0.0019616038,-0.0018672645,12.0,-0.039146177,-1.6782631,9.6619,-0.0020701757,0.12650092,-0.6093489,-0.08584841,0.003211864,-0.014022082,2016-12-12 08:05:26,57.574415795450086
-0.031096,-1.7796481,10.261681,5.653873E-4,0.0019502938,-0.0018582344,4.0,-0.028338991,-1.6784405,9.661905,0.0075410083,0.09522753,-0.59738195,-0.085851334,0.0030758753,-0.018858984,2016-12-12 08:05:27,47.033500532920826
-0.040664002,-1.7904121,10.256896,-0.0019140765,-5.161315E-4,5.467236E-4,12.0,-0.032121673,-1.6869737,9.660409,0.014522328,0.07712635,-0.597683,-0.086276695,0.0035534012,-0.022039706,2016-12-12 08:05:28,51.20389658825885
-0.033488,-1.78204,10.2628765,-0.0018226281,-5.223453E-4,4.774928E-4,12.0,-0.03189603,-1.6832546,9.6610565,-0.009172028,0.091609485,-0.59703475,-0.08608619,0.0035141413,-0.0217688,2016-12-12 08:05:29,53.830200837772246
-0.032292,-1.78802,10.264072,-0.0018750504,-5.941987E-4,4.2081624E-4,4.0,-0.03142367,-1.6816739,9.661334,8.683324E-4,0.09558219,-0.6170909,-0.086001016,0.0035904772,-0.02295369,2016-12-12 08:05:30,52.333604167935384
-0.029900001,-1.783236,10.266464,-0.0018661618,-5.643815E-4,4.1622669E-4,12.0,-0.03214052,-1.6835732,9.661001,-0.007024519,0.09129078,-0.6222066,-0.08612103,0.003036841,-0.016098723,2016-12-12 08:05:31,55.501482343901515
-0.032292,-1.7808441,10.247328,-0.0018075183,0.0018965751,-0.0020657182,12.0,-0.025415068,-1.6789309,9.661828,0.011660931,0.107893094,-0.592676,-0.08587914,0.0029353441,-0.018958613,2016-12-12 08:05:32,60.4492294022466
-0.04186,-1.7904121,10.256896,-0.0018370748,-5.6244433E-4,-0.0020607486,4.0,-0.03058369,-1.6838844,9.660953,0.0041003115,0.10293957,-0.6031196,-0.086128496,0.0032313515,-0.019266456,2016-12-12 08:05:33,54.181093252118885
-0.038272,-1.786824,10.254504,-0.0018931627,-6.452352E-4,3.9274246E-4,4.0,-0.032779176,-1.6804671,9.661541,-0.014839178,0.09439693,-0.6049235,-0.08593925,0.0036103781,-0.022397399,2016-12-12 08:05:34,52.65912884087224
-0.029900001,-1.773668,10.280816,5.668774E-4,-5.815625E-4,-0.0020250306,12.0,-0.029480133,-1.6785946,9.661877,-0.0043641343,0.0867014,-0.6153519,-0.085837774,0.0036508196,-0.024850605,2016-12-12 08:05:35,53.71039707295303
-0.029900001,-1.77606,10.268856,5.809441E-4,-5.6396425E-4,0.0028709397,12.0,-0.03001756,-1.6777029,9.66203,0.015430442,0.085201085,-0.59366906,-0.085786104,0.0037927183,-0.026192283,2016-12-12 08:05:36,55.71737309164418
-0.037076,-1.7904121,10.256896,-0.0018441975,-4.9848855E-4,4.7959387E-4,12.0,-0.030470036,-1.6833347,9.661048,0.0078019653,0.10229338,-0.5970435,-0.086076416,0.0038088588,-0.026021771,2016-12-12 08:05:38,55.55637247868983
-0.029900001,-1.794,10.271248,-0.0018256977,-4.905611E-4,-0.001938276,4.0,-0.030843604,-1.6801857,9.661595,-0.016491603,0.106638275,-0.6048691,-0.085921004,0.0036538094,-0.02405263,2016-12-12 08:05:39,53.24767826601631
-0.029900001,-1.78802,10.268856,-0.0018075779,-4.682094E-4,5.120486E-4,12.0,-0.026985649,-1.6828843,9.661137,0.011286351,0.097959734,-0.5826035,-0.08605977,0.003583981,-0.025489345,2016-12-12 08:05:40,64.04554945413784
-0.040664002,-1.7748641,10.236565,-0.0017943382,-0.0028752387,5.348399E-4,4.0,-0.030216431,-1.6768932,9.662169,-0.005100431,0.10993074,-0.5983149,-0.08575354,0.003582625,-0.023646725,2016-12-12 08:05:41,58.73108911384479
0.010764,-1.78802,10.271248,6.504655E-4,-4.3085217E-4,5.4300576E-4,4.0,-0.031257797,-1.6795512,9.661704,-0.009729796,0.088136844,-0.5939953,-0.08588916,0.0036420936,-0.023680307,2016-12-12 08:05:42,55.66636077951856
-0.025116,-1.772472,10.274837,-0.0017664209,-3.9204955E-4,5.4914504E-4,4.0,-0.03148456,-1.6814189,9.66138,-0.021916559,0.11497312,-0.6170453,-0.08597364,0.0039172764,-0.026706722,2016-12-12 08:05:43,53.0319993774535
-0.039468,-1.7688841,10.260485,6.3961744E-4,-3.8193166E-4,-0.0018253922,4.0,-0.03294883,-1.67954,9.6617,-0.0042448277,0.11565599,-0.6095476,-0.08587152,0.004060089,-0.027524747,2016-12-12 08:05:44,53.16397111628944
-0.026312001,-1.772472,10.253308,-0.001773499,-3.9803982E-4,-0.0018284544,12.0,-0.027400061,-1.6834471,9.661038,0.009675938,0.1057688,-0.57193774,-0.086086966,0.003636085,-0.02583817,2016-12-12 08:05:45,51.255182781464306
-0.034684002,-1.7916081,10.2509165,6.3046813E-4,-4.066974E-4,6.3026696E-4,4.0,-0.02951401,-1.6787553,9.661847,3.8599223E-4,0.10567688,-0.5986375,-0.08584254,0.0037334745,-0.02578704,2016-12-12 08:05:46,49.01229781576401
-0.038272,-1.7796481,10.240152,6.411001E-4,0.002058059,-0.0017678663,4.0,-0.030297913,-1.6809932,9.661456,0.011562089,0.09147885,-0.5990286,-0.085951656,0.0038931803,-0.02713782,2016-12-12 08:05:47,49.23719683685886
-0.031096,-1.784432,10.256896,-0.0017922148,-4.0575862E-4,-0.001723513,4.0,-0.03389266,-1.6773689,9.662075,7.913399E-4,0.10586715,-0.59721243,-0.08576056,0.0040573063,-0.026968094,2016-12-12 08:05:48,56.71647679440797
-0.031096,-1.786824,10.230584,6.7412853E-4,-0.0028471947,-0.0016227961,4.0,-0.033339586,-1.6800821,9.661605,0.0025404145,0.117505856,-0.59289926,-0.08589774,0.0041050464,-0.027805159,2016-12-12 08:05:49,48.17418834490711
-0.057408,-1.783236,10.282012,-0.0017795116,0.0019933581,9.0779364E-4,12.0,-0.032680437,-1.6801908,9.661589,0.017551562,0.1162012,-0.5701912,-0.08592047,0.0037144134,-0.023665713,2016-12-12 08:05:50,47.27502957850544
-0.026312001,-1.772472,10.274837,6.255284E-4,-4.4618547E-4,9.350702E-4,12.0,-0.036495637,-1.6735077,9.662734,-0.010183636,0.09896438,-0.61210257,-0.0855656,0.004026534,-0.0251234,2016-12-12 08:05:51,41.89107673419273
-0.040664002,-1.772472,10.264072,6.036386E-4,-4.5122206E-4,9.3296915E-4,12.0,-0.03284194,-1.6806287,9.661511,0.011410064,0.10858736,-0.5917969,-0.08592824,0.0040462078,-0.02740904,2016-12-12 08:05:52,42.37222955831853
-0.04186,-1.78802,10.256896,0.0029914677,-4.0017068E-4,-0.0014471486,4.0,-0.032545973,-1.6796798,9.661679,-0.002645973,0.09757628,-0.6023936,-0.08588248,0.0039710244,-0.026728557,2016-12-12 08:05:53,45.82316603826291
-0.027508,-1.7748641,10.259288,5.229637E-4,0.0020543635,-0.0013925955,4.0,-0.02992101,-1.6788962,9.661821,0.0143309925,0.103143714,-0.5855068,-0.08584305,0.0038943014,-0.027409105,2016-12-12 08:05:54,60.158736383340646
-0.027508,-1.760512,10.248525,-0.0019392446,-0.0028357208,0.001090683,12.0,-0.03833457,-1.683795,9.660941,0.0023294294,0.08748101,-0.6019354,-0.08608189,0.004368343,-0.027832435,2016-12-12 08:05:55,60.35576368339502
-0.043056,-1.792804,10.2628765,-0.001962468,0.002032116,-0.0012867823,12.0,-0.035454135,-1.6782926,9.661908,-0.0043581338,0.104943454,-0.6021639,-0.08580819,0.0040934356,-0.02644513,2016-12-12 08:05:56,57.40256752520751
-0.04186,-1.795196,10.238956,-0.0019370615,-3.7169456E-4,-0.0012132674,4.0,-0.029515292,-1.6796864,9.661686,0.008756709,0.108333685,-0.5916221,-0.085883744,0.0038877206,-0.027560318,2016-12-12 08:05:57,58.59368931523261
-0.031096,-1.77606,10.2628765,4.861951E-4,-3.7661195E-4,0.0013048053,12.0,-0.030961363,-1.677059,9.662139,0.012094639,0.11335297,-0.55768067,-0.085741624,0.004058023,-0.028723218,2016-12-12 08:05:58,54.77646592930873
-0.050232,-1.766492,10.223409,4.4945627E-4,-3.516972E-4,0.001367338,12.0,-0.032859452,-1.6794093,9.661722,-0.01133145,0.101434715,-0.61311436,-0.08585053,0.0043490306,-0.030931415,2016-12-12 08:05:59,54.43081389766626
-0.038272,-1.784432,10.241348,3.610924E-4,-3.323406E-4,-0.0010405481,4.0,-0.034720182,-1.6773958,9.662068,0.0059438203,0.098664224,-0.59841657,-0.08575716,0.004175371,-0.027847135,2016-12-12 08:06:00,58.596866950376125
-0.037076,-1.7916081,10.247328,2.3418665E-4,-4.004985E-4,0.0014089718,4.0,-0.03341756,-1.6779596,9.661973,0.008442442,0.1076685,-0.5865508,-0.08579322,0.004000559,-0.026581777,2016-12-12 08:06:01,60.217514216086336
-0.033488,-1.783236,10.261681,0.0025788099,0.001976505,0.001367785,4.0,-0.03466379,-1.6744492,9.662579,0.009588215,0.10400281,-0.57637835,-0.08561559,0.0039530504,-0.025344323,2016-12-12 08:06:02,64.2088004857133
-0.027508,-1.773668,10.265268,4.849583E-5,0.0019079,-0.0010412112,12.0,-0.031957462,-1.6714119,9.663114,-0.00205746,0.108236216,-0.5937825,-0.08545179,0.0040450105,-0.028076705,2016-12-12 08:06:04,63.61538633489306
-0.032292,-1.795196,10.254504,1.347065E-5,-5.5620074E-4,0.001425758,12.0,-0.034338903,-1.6798276,9.661646,0.0027370967,0.10101649,-0.5928584,-0.08587758,0.004270309,-0.029133078,2016-12-12 08:06:05,57.649447590204865
-0.038272,-1.7808441,10.265268,3.899634E-5,0.0019336492,-9.94198E-4,12.0,-0.030704748,-1.6822891,9.661229,0.0027832536,0.10214301,-0.5872949,-0.086011104,0.0040618647,-0.028828576,2016-12-12 08:06:06,59.615589649422645
-0.008372,-1.7808441,10.2628765,7.353723E-5,-5.429536E-4,-9.4130635E-4,12.0,-0.039021265,-1.6803564,9.661535,0.0064267362,0.077763624,-0.60134095,-0.08590919,0.0042899624,-0.026574703,2016-12-12 08:06:07,62.5718994139659
-0.022724,-1.7533361,10.272444,1.2909621E-4,-4.8272312E-4,0.0015025288,4.0,-0.029530594,-1.677302,9.6621,0.0063494057,0.09995412,-0.5924036,-0.08576192,0.0038611155,-0.02728224,2016-12-12 08:06:08,54.50487507193774
-0.028704,-1.778452,10.289188,1.6874075E-4,-4.7662854E-4,0.0014967769,4.0,-0.03253365,-1.6767151,9.662192,-0.0038296483,0.12206893,-0.5779601,-0.085738726,0.0037660166,-0.02440253,2016-12-12 08:06:09,59.04024068354775
-0.040664002,-1.7856281,10.2557,1.8686801E-4,-4.467517E-4,0.001485087,4.0,-0.029787948,-1.6771055,9.662134,0.01805205,0.11211042,-0.5744307,-0.08575206,0.003859985,-0.027119469,2016-12-12 08:06:10,63.82025980941346
-0.03588,-1.792804,10.235368,-0.0022653416,-4.106015E-4,-9.171143E-4,4.0,-0.025408423,-1.6784158,9.661918,0.0056875786,0.091664284,-0.6117232,-0.08582283,0.0037041823,-0.027889721,2016-12-12 08:06:11,59.18777555577816
-0.040664002,-1.767688,10.259288,2.1018088E-4,0.0020754337,-8.858666E-4,4.0,-0.034917533,-1.6828573,9.661117,-0.016977534,0.1051628,-0.5897995,-0.086049,0.0039691874,-0.025251482,2016-12-12 08:06:12,56.64032827769422
-0.029900001,-1.7904121,10.2509165,1.9077957E-4,0.0021010935,-8.3140284E-4,12.0,-0.033985835,-1.6777008,9.662017,-0.017241834,0.10553528,-0.61879885,-0.08577723,0.004069239,-0.027045852,2016-12-12 08:06:13,61.90173162149386
-0.033488,-1.792804,10.264072,1.9484758E-4,0.0021312535,0.0016283244,4.0,-0.030574806,-1.671877,9.663038,0.017265193,0.11853505,-0.6058178,-0.08547655,0.0040005203,-0.028374443,2016-12-12 08:06:14,59.26849860305403
-0.028704,-1.7700801,10.259288,1.8513203E-4,-2.693534E-4,-7.9546124E-4,12.0,-0.034200978,-1.680052,9.661607,-7.1297743E-4,0.101987965,-0.5988777,-0.085895315,0.0041418998,-0.027722048,2016-12-12 08:06:15,61.259052179335754
-0.027508,-1.789216,10.259288,2.1726638E-4,-2.1670759E-4,-7.9123676E-4,4.0,-0.030723566,-1.6766672,9.662206,3.7243406E-4,0.11135288,-0.5958856,-0.08572533,0.003969259,-0.027840149,2016-12-12 08:06:16,56.46374244872777
-0.014352,-1.7533361,10.261681,2.5390834E-4,-2.1708012E-4,-7.966086E-4,4.0,-0.028990017,-1.6780591,9.66197,0.032005984,0.13388109,-0.57818276,-0.08580515,0.0037563224,-0.026374305,2016-12-12 08:06:17,54.52200173813579
-0.022724,-1.78802,10.252112,2.6880205E-4,-0.002668038,-7.75218E-4,12.0,-0.028729184,-1.6792474,9.661765,-0.020357182,0.11116467,-0.59034723,-0.08586356,0.0038168682,-0.0272123,2016-12-12 08:06:18,42.789062334603045
-0.02392,-1.772472,10.26766,2.9758364E-4,-2.2120774E-4,0.0017273128,12.0,-0.028775744,-1.6785963,9.661878,0.014280258,0.1046398,-0.5890385,-0.08582484,0.00393126,-0.028522795,2016-12-12 08:06:19,46.69891100370664
-0.037076,-1.783236,10.223409,2.7874112E-4,-1.8662214E-4,-7.1094185E-4,4.0,-0.029723888,-1.6808144,9.66149,0.014528113,0.09404972,-0.5774667,-0.08594621,0.0037967227,-0.026363298,2016-12-12 08:06:20,43.52543318937091
-0.038272,-1.773668,10.2557,0.0026875138,0.0022798926,0.0017358661,4.0,-0.036497403,-1.6765466,9.662207,-0.019753402,0.11386545,-0.6066496,-0.08572437,0.00398461,-0.024588712,2016-12-12 08:06:21,59.82932681359237
-0.034684002,-1.78802,10.236565,-0.0021648481,0.0022221506,-6.8668276E-4,12.0,-0.03587515,-1.6785321,9.661866,-0.0047791493,0.101116,-0.5974211,-0.08581736,0.004168969,-0.027067907,2016-12-12 08:06:22,50.53235608086102
-0.019136,-1.778452,10.268856,2.3323298E-4,-2.3272634E-4,-6.600991E-4,12.0,-0.041303717,-1.6774408,9.662034,-0.019775715,0.077091135,-0.606822,-0.085744165,0.0046239933,-0.029145304,2016-12-12 08:06:23,51.93815588046701
-0.022724,-1.792804,10.226996,2.2510439E-4,-2.462119E-4,-6.378591E-4,4.0,-0.031216145,-1.6719532,9.663023,0.026191855,0.06583499,-0.57114923,-0.08547296,0.0041705174,-0.029971564,2016-12-12 08:06:24,51.764413046304334
-0.044252,-1.786824,10.244936,0.0026496649,-2.477318E-4,0.0018142983,12.0,-0.039179556,-1.6796111,9.661666,-0.03319956,0.09764497,-0.60838616,-0.08586408,0.0044245115,-0.02805339,2016-12-12 08:06:25,66.28573444946856
-0.038272,-1.766492,10.254504,1.905188E-4,-2.4619699E-4,-5.9595704E-4,4.0,-0.033113685,-1.6773958,9.662073,-0.0044096857,0.07713614,-0.5888433,-0.08576157,0.0040484145,-0.027327161,2016-12-12 08:06:26,51.23432074029371
-0.033488,-1.7916081,10.2557,1.795888E-4,0.0021528006,-5.959794E-4,12.0,-0.035930917,-1.6794602,9.661703,-0.003638916,0.116931856,-0.59997785,-0.08585929,0.004291531,-0.028441124,2016-12-12 08:06:27,58.20204717657306
-0.034684002,-1.7963921,10.238956,1.7561764E-4,-2.821684E-4,-5.8330595E-4,4.0,-0.036851328,-1.6774871,9.662044,0.01338067,0.099768974,-0.5757173,-0.08574885,0.004479954,-0.030116715,2016-12-12 08:06:28,55.075032040960906
-0.037076,-1.78802,10.2509165,2.194941E-4,-3.0104816E-4,-5.5030733E-4,4.0,-0.034814965,-1.6773065,9.662082,0.0022610358,0.1023416,-0.6091665,-0.08573393,0.0045438386,-0.032071855,2016-12-12 08:06:29,51.75225157558603
-0.02392,-1.78802,10.237761,2.4747103E-4,0.0021448433,-5.818829E-4,4.0,-0.041316662,-1.6817688,9.66128,0.002935341,0.10864333,-0.58365625,-0.08596659,0.004642505,-0.029275421,2016-12-12 08:06:30,42.951579093950336
-0.034684002,-1.783236,10.2509165,2.3822486E-4,-3.0243397E-4,-6.036088E-4,12.0,-0.033495415,-1.6773119,9.662086,0.003580585,0.111904085,-0.596006,-0.08576638,0.0038587272,-0.024898898,2016-12-12 08:06:31,52.50436914189011
-0.045448,-1.7748641,10.238956,1.8194318E-4,-3.349632E-4,-6.178245E-4,4.0,-0.034684945,-1.676855,9.662161,-0.017940944,0.10279314,-0.60071605,-0.08574525,0.0038318702,-0.023886945,2016-12-12 08:06:32,52.52475880528823
-0.029900001,-1.7856281,10.246132,2.2745132E-4,-3.196299E-4,-6.480217E-4,12.0,-0.036329336,-1.6817112,9.661311,0.007922664,0.10750483,-0.5943886,-0.08600444,0.0036756748,-0.021033028,2016-12-12 08:06:33,54.88239903373711
-0.076544,-1.7904121,10.240152,2.4550408E-4,0.0021430105,0.0017580166,12.0,-0.034339108,-1.681939,9.661279,-0.04031911,0.09651304,-0.6243214,-0.086035445,0.003134726,-0.015945524,2016-12-12 08:06:35,48.25320621230338
-0.040664002,-1.756924,10.2628765,2.5654584E-4,-0.0051474273,-7.1300566E-4,4.0,-0.03336285,-1.6806147,9.661511,0.0073011513,0.07630933,-0.6013649,-0.085963145,0.0032154813,-0.017473036,2016-12-12 08:06:36,58.33402586708934
-0.02392,-1.798784,10.248525,2.3692846E-4,-2.8063357E-4,0.0016876683,4.0,-0.034922235,-1.6750743,9.662469,-0.016982235,0.07228169,-0.6147598,-0.0856629,0.0036186695,-0.021292558,2016-12-12 08:06:37,48.76713091057883
-0.04784,-1.78204,10.249721,2.181977E-4,-2.6729703E-4,0.0016781762,4.0,-0.034469575,-1.6781348,9.661939,-0.0057655754,0.12064926,-0.59734863,-0.085812114,0.0038083578,-0.02372331,2016-12-12 08:06:38,47.59402289213814
-0.055016,-1.765296,10.24374,2.3358315E-4,-0.0027482659,-7.911995E-4,12.0,-0.047266044,-1.6835006,9.660953,-0.005406042,0.08538345,-0.61029583,-0.08608318,0.004273488,-0.02145252,2016-12-12 08:06:39,44.645706079700425
-0.037076,-1.784432,10.258092,2.5328994E-4,-2.6969612E-4,-7.6755136E-4,12.0,-0.038822528,-1.6804659,9.661517,-0.0029425288,0.10755408,-0.5953788,-0.08592724,0.004028973,-0.02366547,2016-12-12 08:06:40,58.265516184832585
-0.046644002,-1.7808441,10.2557,2.6523322E-4,-2.8032064E-4,0.0016283691,12.0,-0.036991037,-1.6811275,9.66141,0.0060649626,0.114068575,-0.5883096,-0.08595117,0.0041975016,-0.026694365,2016-12-12 08:06:41,52.84055336103337
-0.031096,-1.789216,10.2628765,0.0026963502,-2.5320053E-4,-8.0733E-4,12.0,-0.03667162,-1.6816103,9.661327,0.0039923806,0.112389676,-0.5812176,-0.08597086,0.0042960653,-0.028017577,2016-12-12 08:06:42,51.55614932985478
-0.008372,-1.79998,10.305932,3.022924E-4,0.0022432953,-7.5799227E-4,12.0,-0.03787334,-1.6796536,9.661663,-0.05581334,0.110758424,-0.60001755,-0.08586717,0.004376897,-0.028275417,2016-12-12 08:06:43,52.80403158349354
-0.03588,-1.794,10.260485,2.990663E-4,-2.3914874E-4,-7.4236095E-4,4.0,-0.03737551,-1.6801525,9.661578,0.0044844933,0.109063454,-0.58575,-0.08589827,0.0042588986,-0.027193995,2016-12-12 08:06:44,50.950796442508164
-0.0131560005,-1.7796481,10.260485,2.8737634E-4,-2.6486814E-4,-7.284358E-4,12.0,-0.03806206,-1.6816052,9.661323,-0.0033780548,0.094454795,-0.5943769,-0.08598399,0.004053105,-0.024379274,2016-12-12 08:06:45,59.9082204267254
-0.055016,-1.7856281,10.238956,-0.0021760613,-2.6138127E-4,0.0017105117,12.0,-0.035354536,-1.6773963,9.6620655,0.002917463,0.09148776,-0.60320324,-0.085768856,0.0039434694,-0.024777206,2016-12-12 08:06:46,57.91308424562642
-0.040664002,-1.761708,10.266464,0.002765961,-2.4485588E-4,0.0016777292,12.0,-0.032805014,-1.6821513,9.661247,0.003074987,0.13098463,-0.6111971,-0.086011164,0.003951967,-0.02631434,2016-12-12 08:06:47,49.23717014370264
-0.058604002,-1.756924,10.240152,3.8529932E-4,0.0021080226,-7.372722E-4,12.0,-0.033898354,-1.6851549,9.66072,0.076133646,0.095689155,-0.55790395,-0.08616633,0.0039726715,-0.025859246,2016-12-12 08:06:48,57.69817954159269
-0.058604002,-1.8023721,10.210252,2.7889758E-4,-2.8258562E-4,-7.2577596E-4,12.0,-0.0255968,-1.6809916,9.66147,0.0222432,0.1213805,-0.59542555,-0.08596161,0.0035689578,-0.026167776,2016-12-12 08:06:49,59.825921245448
-0.037076,-1.7916081,10.254504,0.0026512295,-3.092736E-4,-6.9633126E-4,4.0,-0.031712066,-1.6814567,9.661372,0.013735936,0.110151395,-0.5895441,-0.08597497,0.003935884,-0.026786836,2016-12-12 08:06:50,63.12988064698884
-0.015548,-1.792804,10.247328,9.744614E-5,-1.4191866E-4,-6.702468E-4,4.0,-0.03725924,-1.6811519,9.661406,-0.0061632376,0.116436034,-0.6182149,-0.08596388,0.003962573,-0.023812946,2016-12-12 08:06:51,54.826314897742485
-0.052624002,-1.8011761,10.249721,1.4211237E-4,-0.0025930852,0.0017944798,4.0,-0.027733933,-1.6838131,9.660974,-0.025341934,0.089854896,-0.6030986,-0.08610884,0.0035715206,-0.024888093,2016-12-12 08:06:52,58.52009535172772
-0.0131560005,-1.7688841,10.264072,8.0272555E-5,0.0022343248,-6.251335E-4,4.0,-0.029621962,-1.6814594,9.661377,-0.016465962,0.10416867,-0.607479,-0.08598144,0.0037502302,-0.025874833,2016-12-12 08:06:53,55.00546441824163
-0.015548,-1.784432,10.20188,-0.0023228154,0.004742354,-6.3515455E-4,12.0,-0.032520913,-1.6824634,9.661194,-0.039696913,0.13784853,-0.60885847,-0.08602489,0.0039972845,-0.027002264,2016-12-12 08:06:54,53.79134194342947
-0.027508,-1.771276,10.260485,1.264885E-4,0.002218768,-0.0031027496,12.0,-0.03073914,-1.6794212,9.661729,-8.391383E-4,0.09305092,-0.5855992,-0.08586604,0.003999761,-0.028138096,2016-12-12 08:06:55,55.33069088140977
-0.027508,-1.794,10.230584,9.649247E-5,-2.3943186E-4,-6.711185E-4,12.0,-0.034193303,-1.6821235,9.661247,0.0028826976,0.09991642,-0.5812977,-0.086011864,0.0039365883,-0.0253143,2016-12-12 08:06:56,55.393705522100916
-0.032292,-1.7796481,10.242544,-0.0023250654,-2.4358928E-4,-6.752983E-4,4.0,-0.032315582,-1.6844144,9.660855,-0.0048075807,0.0964296,-0.58766896,-0.086137794,0.0037200623,-0.02388625,2016-12-12 08:06:57,60.56837752164842
-0.03588,-1.7856281,10.252112,0.0025498942,-2.7623773E-4,-6.747246E-4,4.0,-0.03294165,-1.677753,9.662012,-0.0054336493,0.10907105,-0.59488374,-0.08578505,0.0039359736,-0.026117947,2016-12-12 08:06:58,55.24475146244509
-0.028704,-1.771276,10.2628765,-0.0023656115,-2.643913E-4,0.0017921999,4.0,-0.03154299,-1.6804645,9.661545,0.003141013,0.07765549,-0.6061153,-0.085920446,0.0040043886,-0.027697263,2016-12-12 08:06:59,52.75746009680414
-0.029900001,-1.789216,10.258092,5.170703E-5,-0.0027486384,0.0017997846,4.0,-0.032136314,-1.6793814,9.661731,0.0013516863,0.10863866,-0.5879893,-0.08588142,0.003638369,-0.023118278,2016-12-12 08:07:00,52.59302590097204
-0.029900001,-1.7796481,10.244936,6.363541E-5,-3.041774E-4,-6.3151866E-4,4.0,-0.024455875,-1.6832758,9.661075,0.012620125,0.1250763,-0.6352894,-0.08608621,0.0033803268,-0.024624467,2016-12-12 08:07:01,58.60084306612531
0.258336,-1.699516,10.579816,0.0024622977,0.004589826,-0.0055085495,4.0,-0.026929833,-1.6728426,9.662881,-0.017361833,0.15344942,-0.6131518,-0.08554153,0.003585876,-0.025700746,2016-12-12 08:07:02,56.54098192835149
-0.034684002,-1.795196,10.265268,6.0521066E-5,-3.0070543E-4,-6.1453134E-4,4.0,-0.036509868,-1.6808544,9.661459,-0.011393868,0.105969585,-0.59782857,-0.08593882,0.004150485,-0.026439192,2016-12-12 08:07:03,55.178600256130565
-0.025116,-1.761708,10.228192,7.710606E-5,0.0021714866,-6.3209236E-4,12.0,-0.028795704,-1.6780295,9.661976,-0.025207704,0.11118644,-0.63080025,-0.08579489,0.003947129,-0.02870497,2016-12-12 08:07:04,52.727944692550196
-0.03588,-1.786824,10.241348,1.0626763E-4,-2.6021898E-4,-6.088093E-4,12.0,-0.030059883,-1.6775948,9.662048,0.0082121175,0.10922917,-0.59365153,-0.08576204,0.004190656,-0.030789353,2016-12-12 08:07:05,59.21367753191299
-0.037076,-1.7796481,10.228192,0.0025264323,-2.6999414E-4,-5.5051595E-4,4.0,-0.029376527,-1.6838696,9.660958,0.010091473,0.089798346,-0.6031138,-0.08610234,0.0038243649,-0.026839754,2016-12-12 08:07:06,58.163594703915145
-0.037076,-1.783236,10.271248,0.002495803,-3.0612946E-4,-5.440712E-4,4.0,-0.03302237,-1.6755959,9.662384,-7.3036697E-4,0.10644407,-0.58613986,-0.08566978,0.0040234933,-0.02712171,2016-12-12 08:07:07,54.10722778448013
-0.015548,-1.792804,10.24374,0.0024498105,0.00215967,-5.155131E-4,12.0,-0.031999182,-1.6817997,9.661312,-9.031799E-4,0.099044316,-0.59917295,-0.085997745,0.0038296734,-0.025381075,2016-12-12 08:07:09,56.75998772204813
-0.040664002,-1.784432,10.244936,-0.0024382025,-3.1508505E-4,-5.115345E-4,12.0,-0.030963605,-1.6796296,9.661693,-0.0034556044,0.10001857,-0.5963988,-0.085880734,0.0039187483,-0.027061895,2016-12-12 08:07:10,51.45197747981412
-0.027508,-1.761708,10.259288,-0.0024884641,-3.399402E-4,-4.8918277E-4,12.0,-0.03419807,-1.6815971,9.661339,0.0028779302,0.094462834,-0.57522625,-0.08597546,0.0041334643,-0.027600054,2016-12-12 08:07:11,59.90808557758725
-0.031096,-1.7856281,10.249721,-7.4125826E-5,0.00209634,0.0019603297,4.0,-0.0309263,-1.675724,9.662371,0.010933701,0.10870807,-0.58495736,-0.08567491,0.0040107127,-0.02821746,2016-12-12 08:07:12,53.11248265072922
-0.063388005,-1.772472,10.238956,-1.1481345E-4,-0.0027664304,-4.7945976E-4,4.0,-0.021347918,-1.6785628,9.661902,0.028884081,0.09869331,-0.5914058,-0.085832715,0.0035812156,-0.028870542,2016-12-12 08:07:13,53.530678040172205
-0.016744,-1.78204,10.2628765,0.0023353547,-3.132373E-4,-4.6446174E-4,4.0,-0.030649077,-1.6734385,9.662767,0.011210925,0.119365506,-0.58814883,-0.08556314,0.0038711873,-0.026797736,2016-12-12 08:07:14,57.32233573984611
-0.039468,-1.7904121,10.253308,-0.0024966449,-2.73481E-4,-4.248172E-4,12.0,-0.02889215,-1.6830517,9.661103,-0.00856015,0.102576286,-0.6017729,-0.08606356,0.0037364243,-0.026122155,2016-12-12 08:07:15,46.68802115089405
-0.046644002,-1.7748641,10.23178,-4.850328E-5,-3.055632E-4,-4.253462E-4,12.0,-0.029280208,-1.6795506,9.661711,0.014971794,0.09531346,-0.5784423,-0.08587663,0.003885478,-0.02767605,2016-12-12 08:07:16,44.856431797875864
-0.04186,-1.767688,10.248525,-2.450496E-5,0.0021481812,-4.1831285E-4,12.0,-0.032797612,-1.6853416,9.660691,0.016238388,0.09191446,-0.5902251,-0.08617486,0.003972285,-0.026502665,2016-12-12 08:07:17,56.524230309530154
-0.034684002,-1.767688,10.277228,0.0024125874,0.0021068454,-0.002857685,4.0,-0.026971987,-1.6777961,9.662022,-0.0042479853,0.09228388,-0.604443,-0.085787915,0.0038002965,-0.028087467,2016-12-12 08:07:18,43.00239148478905
-0.026312001,-1.777256,10.244936,-5.0909817E-5,-0.0028106868,-0.0028358176,4.0,-0.032348875,-1.6747805,9.662527,0.010707126,0.09769158,-0.5752333,-0.08562149,0.0041395864,-0.028886225,2016-12-12 08:07:19,61.81866646670908
-0.01196,-1.786824,10.266464,-7.762015E-5,-3.850609E-4,0.0020674318,12.0,-0.03157929,-1.6815171,9.661362,0.011476713,0.09932693,-0.5728104,-0.08597221,0.004059452,-0.028295906,2016-12-12 08:07:20,51.139920706813825
-0.016744,-1.773668,10.254504,-8.7954104E-5,-0.002785772,-3.4353882E-4,12.0,-0.030641807,-1.6798458,9.661656,0.0016501944,0.10458631,-0.5952397,-0.08589488,0.003846103,-0.02640689,2016-12-12 08:07:21,48.08686856184242
-0.032292,-1.778452,10.252112,-9.290129E-5,0.0021065772,-3.2483786E-4,4.0,-0.032019652,-1.6795927,9.661694,0.009840349,0.1144073,-0.5796546,-0.0858746,0.004032366,-0.027753612,2016-12-12 08:07:22,46.75524818292307
-0.026312001,-1.797588,10.236565,0.0023682863,0.0021491945,-3.0150265E-4,4.0,-0.0324813,-1.6836754,9.660981,-0.0073653026,0.104344614,-0.5456827,-0.08608945,0.0039530443,-0.02649406,2016-12-12 08:07:23,58.369488288038795
-0.025116,-1.778452,10.237761,-8.66577E-5,-2.9277802E-4,-2.989173E-4,4.0,-0.029510437,-1.6768117,9.662185,-0.0055904384,0.10522826,-0.60188806,-0.08574524,0.0036642407,-0.02501546,2016-12-12 08:07:24,50.17790410687078
-0.028704,-1.784432,10.242544,-9.1172755E-5,-2.6224554E-4,-2.9984117E-4,4.0,-0.028031122,-1.6802934,9.661585,-5.2312197E-4,0.093374595,-0.6084674,-0.08592553,0.003618325,-0.025307572,2016-12-12 08:07:25,48.18709187407932
-0.04186,-1.80596,10.2557,-7.6942146E-5,-0.002712354,-3.271401E-4,12.0,-0.033689957,-1.6774057,9.662068,0.018934049,0.13812238,-0.5924352,-0.08577017,0.0038865139,-0.025104571,2016-12-12 08:07:26,48.516359760122015
-0.00598,-1.777256,10.2628765,-0.0024917051,-2.4786592E-4,-3.1427294E-4,12.0,-0.030448088,-1.6828799,9.661128,-0.006528089,0.10514015,-0.5802204,-0.086063884,0.003552716,-0.023077527,2016-12-12 08:07:27,44.53261797561558
-0.025116,-1.783236,10.259288,-1.668185E-5,-2.220422E-4,0.002138175,4.0,-0.03014208,-1.6825738,9.661182,0.010521921,0.107838295,-0.57897013,-0.08605187,0.0034529958,-0.022108776,2016-12-12 08:07:28,47.48099945904517
-0.03588,-1.784432,10.259288,-5.9500337E-5,-0.0026586652,-3.1790882E-4,4.0,-0.030227002,-1.678652,9.661864,-0.009895002,0.09979995,-0.5902473,-0.08584107,0.003659181,-0.024503414,2016-12-12 08:07:29,47.730229514707716
-0.027508,-1.7808441,10.264072,-1.5565008E-4,0.0021569282,-3.228709E-4,12.0,-0.029322596,-1.6820407,9.661277,-0.0030105938,0.10358737,-0.5824632,-0.08600882,0.0038037193,-0.026662417,2016-12-12 08:07:30,49.325112596432945
-0.034684002,-1.784432,10.242544,0.0021907464,-3.351122E-4,-3.190562E-4,4.0,-0.02939794,-1.6808367,9.661487,0.0076780603,0.10239932,-0.5989976,-0.085944645,0.0038512186,-0.027187658,2016-12-12 08:07:31,50.283343544174635
-0.034684002,-1.79998,10.253308,0.0021257997,0.0020562708,-2.6971847E-4,12.0,-0.03524947,-1.6829487,9.6610985,-0.006545469,0.09550328,-0.5766624,-0.08605339,0.003984014,-0.025225135,2016-12-12 08:07:32,44.87149814017225
-0.033488,-1.7856281,10.261681,-3.2200664E-4,-3.7898123E-4,-2.8210133E-4,12.0,-0.031073244,-1.6803339,9.66157,2.2757538E-5,0.08137421,-0.6120716,-0.085927516,0.0036855012,-0.024281627,2016-12-12 08:07:33,52.22552990760793
-0.03588,-1.777256,10.24374,-2.7304143E-4,0.002055958,-0.0027438253,12.0,-0.032084234,-1.6829796,9.661104,0.0037957665,0.09308044,-0.58383214,-0.08605365,0.0039419974,-0.026612489,2016-12-12 08:07:34,45.03584319694184
-0.044252,-1.7856281,10.254504,-2.3686141E-4,-3.5780668E-4,0.0021791756,12.0,-0.030688308,-1.6817235,9.661327,-0.001984308,0.08955255,-0.60274494,-0.08599577,0.0037568,-0.02531496,2016-12-12 08:07:35,44.08716386757461
-0.037076,-1.784432,10.252112,-0.0050638244,-0.0027917475,0.002149187,4.0,-0.029091679,-1.6808927,9.661478,-0.0075636767,0.10234336,-0.6037901,-0.08595322,0.0037156052,-0.025796881,2016-12-12 08:07:36,62.98260387338981
-0.043056,-1.77606,10.276032,-1.4849007E-4,-2.8195977E-4,0.002159521,4.0,-0.031874478,-1.681069,9.661439,4.1752445E-4,0.09379502,-0.59426063,-0.08596812,0.0036409278,-0.023279425,2016-12-12 08:07:37,51.104969308326375
-0.026312001,-1.766492,10.252112,-1.1654198E-4,-1.9532442E-4,-3.1841546E-4,4.0,-0.028921012,-1.6853857,9.660696,-0.002609009,0.101438224,-0.587828,-0.08618886,0.0036230057,-0.024757542,2016-12-12 08:07:38,54.35771489080908
-0.040664002,-1.78204,10.249721,-4.6156347E-5,-0.002601564,-3.7052482E-4,12.0,-0.031025741,-1.6791004,9.661784,0.008442258,0.10533173,-0.59391576,-0.08587413,0.0034368834,-0.021444194,2016-12-12 08:07:39,48.69061386683062
-0.043056,-1.783236,10.237761,-3.284216E-5,-1.0277331E-4,-4.022196E-4,4.0,-0.024081603,-1.6778033,9.662027,0.009406398,0.10304069,-0.5781249,-0.08581281,0.0031375687,-0.0221108,2016-12-12 08:07:40,47.24283367581641
-0.031096,-1.784432,10.249721,1.937896E-5,-1.0161102E-4,0.002012685,12.0,-0.033048034,-1.6805801,9.661519,-0.011520034,0.10624387,-0.60374916,-0.085949,0.0035224229,-0.021217113,2016-12-12 08:07:41,49.81330529191946
-0.033488,-1.786824,10.252112,6.712973E-5,0.0023516566,-4.2203814E-4,12.0,-0.026678013,-1.6810292,9.66146,0.011593987,0.1093829,-0.5930442,-0.0859719,0.0033840293,-0.023383824,2016-12-12 08:07:42,49.061385781306114
-0.028704,-1.773668,10.265268,9.123981E-5,-6.0856342E-5,0.0020110533,12.0,-0.031013092,-1.6793708,9.661737,-0.010681092,0.09429727,-0.6178835,-0.08586963,0.0038701803,-0.026473472,2016-12-12 08:07:43,51.45999412633921
-0.03588,-1.7856281,10.242544,9.974092E-5,-6.28829E-5,-4.490465E-4,12.0,-0.03617992,-1.6814126,9.661365,-0.0038879178,0.092255384,-0.62184304,-0.08597889,0.003902078,-0.02374806,2016-12-12 08:07:44,45.18698416727538
-0.043056,-1.784432,10.217428,6.4089894E-5,-8.714199E-5,-4.6281517E-4,12.0,-0.034611072,-1.6816665,9.661324,-0.007103071,0.111137636,-0.5943758,-0.085994475,0.003808746,-0.023593046,2016-12-12 08:07:45,48.01312639544492
-0.033488,-1.797588,10.261681,4.9695373E-5,-0.0025179535,-0.0028939918,12.0,-0.030720895,-1.6794616,9.661722,0.002767106,0.118126325,-0.59995854,-0.08588218,0.00368536,-0.024501925,2016-12-12 08:07:46,47.99502390122121
-0.026312001,-1.7808441,10.289188,-0.0023455322,-4.0248036E-5,0.001976341,12.0,-0.027995823,-1.6849728,9.66077,0.012668178,0.10185119,-0.58297,-0.08616583,0.003644766,-0.02556235,2016-12-12 08:07:47,56.932586393372155
-0.033488,-1.7904121,10.254504,1.4666468E-4,-6.246567E-5,-5.1286817E-4,12.0,-0.030945992,-1.6785098,9.661885,0.018090008,0.096354194,-0.5842466,-0.0858293,0.00377703,-0.025446218,2016-12-12 08:07:49,52.188081434559315
-0.039468,-1.7856281,10.253308,1.5841424E-4,-0.0025086403,-5.078688E-4,12.0,-0.0312675,-1.6810534,9.661443,-0.004955499,0.097398594,-0.59066933,-0.08596919,0.0035825078,-0.022962583,2016-12-12 08:07:50,49.7194675616494
-0.025116,-1.7808441,10.26766,0.0026034042,-8.033216E-5,-4.780218E-4,12.0,-0.033221897,-1.6814992,9.66136,0.0014621039,0.093364805,-0.60869247,-0.08600136,0.0034043675,-0.01973485,2016-12-12 08:07:51,52.36946652554147
-0.037076,-1.78802,10.2628765,1.4474988E-4,-6.879866E-5,-4.5843422E-4,4.0,-0.031489637,-1.6805125,9.661537,0.0031943643,0.10511545,-0.5989479,-0.085973725,0.0027005426,-0.0126177315,2016-12-12 08:07:52,54.736436251177345
-0.020332001,-1.78204,10.260485,1.3113767E-4,-9.390712E-5,-4.5864284E-4,4.0,-0.030241122,-1.6791714,9.661774,-0.005125122,0.10167262,-0.6070821,-0.085898824,0.0028414386,-0.015002953,2016-12-12 08:07:53,58.3664165236529
-0.029900001,-1.7904121,10.2628765,-0.0023114383,0.0023450255,0.0019935295,4.0,-0.026936358,-1.6772565,9.662116,5.716419E-4,0.10478344,-0.6031524,-0.085792355,0.002982933,-0.018626722,2016-12-12 08:07:54,55.60823531623732
-0.026312001,-1.78204,10.252112,1.3324618E-4,0.002341181,0.002004765,12.0,-0.034274578,-1.6816802,9.6613245,0.0051934244,0.11590777,-0.58959144,-0.08600529,0.0035644462,-0.020962818,2016-12-12 08:07:55,45.73105913937827
-0.022724,-1.783236,10.2999525,1.2954324E-4,-1.0949373E-4,-4.3924153E-4,4.0,-0.02767718,-1.6792766,9.661763,0.01179082,0.10276333,-0.58915246,-0.08588323,0.0033604342,-0.022542223,2016-12-12 08:07:56,45.9043428363475
-0.01794,-1.772472,10.2509165,-0.0023445487,-1.386553E-4,-4.393384E-4,12.0,-0.029091997,-1.6779188,9.661993,0.010376004,0.10412118,-0.5937065,-0.08581439,0.0033613408,-0.021731162,2016-12-12 08:07:57,45.98257973946919
-0.033488,-1.7916081,10.265268,6.8701804E-5,-1.57848E-4,-4.709512E-4,4.0,-0.03035635,-1.6846673,9.660815,0.0019356512,0.10574469,-0.5984721,-0.086157314,0.00352137,-0.0227444,2016-12-12 08:07:58,45.76529382872633
-0.037076,-1.792804,10.248525,9.6559525E-5,-1.4546514E-4,0.0043903217,12.0,-0.02631513,-1.6748132,9.662541,-0.0143551305,0.11201076,-0.61109954,-0.08564877,0.0034376744,-0.024312127,2016-12-12 08:07:59,43.359801206463764
-0.020332001,-1.7916081,10.242544,1.10045075E-4,-1.6285479E-4,0.0019160137,12.0,-0.032681935,-1.6795267,9.661704,-0.008761935,0.09892536,-0.60117203,-0.08588073,0.0038387736,-0.025116608,2016-12-12 08:08:00,47.51899065844913
-0.032292,-1.792804,10.248525,0.0025911555,-1.7237663E-4,-5.676225E-4,12.0,-0.030900316,-1.6798568,9.661653,-0.005784317,0.10218319,-0.57491237,-0.08589948,0.003760487,-0.025260676,2016-12-12 08:08:01,52.157946024057495
-0.038272,-1.789216,10.254504,1.8065423E-4,-1.899004E-4,0.0018408298,12.0,-0.029874941,-1.6815825,9.661355,0.0060050585,0.095673665,-0.5931489,-0.085988484,0.0037396038,-0.02559992,2016-12-12 08:08:02,47.13132382728577
-0.026312001,-1.773668,10.2557,-0.002230838,-1.7142296E-4,-6.1967224E-4,4.0,-0.031917024,-1.6811851,9.661418,0.0039629764,0.11042306,-0.58710665,-0.08596364,0.0038814445,-0.026039043,2016-12-12 08:08:03,46.04703385045518
-0.039468,-1.795196,10.249721,2.2944063E-4,0.0022704005,-6.058067E-4,4.0,-0.0324243,-1.682168,9.661245,-0.0061122975,0.10226415,-0.596846,-0.086028226,0.003572775,-0.022149105,2016-12-12 08:08:04,56.90642217863224
-0.04186,-1.783236,10.249721,0.0027090386,-1.5671551E-4,-6.663874E-4,12.0,-0.030225212,-1.680052,9.661621,0.011634789,0.09840003,-0.59168696,-0.08592336,0.0034146572,-0.021648932,2016-12-12 08:08:05,56.472021350026935
-0.037076,-1.783236,10.2509165,2.753809E-4,-1.7367303E-4,-6.836578E-4,12.0,-0.029326752,-1.6782558,9.661936,0.0029652498,0.1037842,-0.58658874,-0.08582683,0.003490277,-0.023083637,2016-12-12 08:08:06,45.07106582445115
-0.02392,-1.773668,10.242544,-0.0021810383,-1.8291175E-4,-6.944537E-4,4.0,-0.031088373,-1.6820645,9.661269,-0.0035803725,0.110739574,-0.5824714,-0.086013295,0.0037670939,-0.025191927,2016-12-12 08:08:07,52.947186910628474
-0.064584,-1.789216,10.229388,2.7108192E-4,-1.8629432E-4,0.0017310008,12.0,-0.029354202,-1.6813844,9.661392,5.457996E-4,0.10185163,-0.58593583,-0.08597911,0.0037091055,-0.025558315,2016-12-12 08:08:08,50.970734194908296
-0.03588,-1.7700801,10.240152,2.6192516E-4,0.0022539496,-6.856248E-4,4.0,-0.030790918,-1.6800418,9.661621,0.0050890828,0.09003829,-0.57853174,-0.08591947,0.0035113357,-0.022434294,2016-12-12 08:08:09,61.83169560306532
-0.028704,-1.78802,10.24374,2.0170212E-4,0.0021923482,-7.194504E-4,12.0,-0.03146396,-1.6790079,9.661799,0.008004041,0.092268094,-0.60586107,-0.08585895,0.0036976414,-0.024210157,2016-12-12 08:08:10,54.809474831047694
-0.019136,-1.7748641,10.26766,2.008155E-4,0.0021000654,-7.2818995E-4,12.0,-0.034752447,-1.6817528,9.66131,-0.019204449,0.10387524,-0.5967811,-0.08599026,0.004002759,-0.02575508,2016-12-12 08:08:11,48.20685445144505
-0.015548,-1.792804,10.248525,-0.002217412,-3.5008788E-4,0.004102744,4.0,-0.029669555,-1.6784016,9.661908,0.0038184463,0.09885449,-0.5842244,-0.085821494,0.00380051,-0.026478177,2016-12-12 08:08:12,53.11515258368758
-0.04784,-1.794,10.270052,0.0026559457,-3.6366284E-4,-7.766038E-4,12.0,-0.03269842,-1.6802769,9.661573,0.009161581,0.10176307,-0.54867846,-0.085924275,0.003729396,-0.023827486,2016-12-12 08:08:13,52.38241833766858
-0.060996,-1.79998,10.241348,2.0159781E-4,-3.7793815E-4,-7.440895E-4,12.0,-0.031441893,-1.6817645,9.66132,0.0020461075,0.10984365,-0.57524556,-0.08599929,0.0037410744,-0.02468571,2016-12-12 08:08:14,46.21740273390067
-0.025116,-1.78802,10.235368,-0.0022456124,0.002104804,-7.082224E-4,12.0,-0.031211456,-1.681972,9.6612835,0.010648546,0.089303985,-0.5740841,-0.08601391,0.0036447013,-0.023703147,2016-12-12 08:08:15,49.24946417352946
-0.02392,-1.7796481,10.252112,0.0026270524,-3.6551058E-4,0.0017412677,4.0,-0.030866053,-1.6791452,9.661777,-0.0021620528,0.10767873,-0.5807675,-0.08586314,0.0037511096,-0.025183164,2016-12-12 08:08:16,42.00995495815086
-0.03588,-1.786824,10.2509165,1.6117096E-4,0.0020897985,-6.6839904E-4,12.0,-0.033637915,-1.6772419,9.662099,-0.010913914,0.103602126,-0.59599316,-0.0857633,0.0038500293,-0.02471429,2016-12-12 08:08:17,41.936256357373914
-0.04186,-1.783236,10.23178,1.6779453E-4,-3.2298267E-4,0.001779288,12.0,-0.031034952,-1.6821209,9.661258,0.0048450474,0.08915508,-0.59444183,-0.08602051,0.0036663779,-0.024056545,2016-12-12 08:08:18,49.9932289762431
-0.032292,-1.7808441,10.266464,0.002618499,0.0021562278,0.0017975345,12.0,-0.028250802,-1.6777602,9.6620245,0.012413199,0.10906375,-0.58410746,-0.08579394,0.0036435376,-0.025508786,2016-12-12 08:08:19,45.24966762735126
-0.02392,-1.771276,10.252112,1.7015636E-4,-3.0356646E-4,0.0018175989,4.0,-0.030583428,-1.6854571,9.660678,-0.010251427,0.10136691,-0.59861004,-0.08619731,0.003544874,-0.022870857,2016-12-12 08:08:20,43.34753218864847
-0.033488,-1.786824,10.247328,1.44355E-4,-2.605319E-4,-5.7498366E-4,4.0,-0.030427512,-1.6853937,9.660688,-0.00770351,0.10262641,-0.60218793,-0.086197704,0.0034509364,-0.021878438,2016-12-12 08:08:22,44.67698424888732
-0.01196,-1.786824,10.20188,0.0025569275,-2.3955107E-4,0.0018960461,12.0,-0.026497927,-1.6802967,9.66159,-0.043241926,0.10293942,-0.64075524,-0.085931055,0.0034568266,-0.024344785,2016-12-12 08:08:23,55.11263584745176
-0.043056,-1.7748641,10.236565,-0.0023373142,-2.3128092E-4,-5.230382E-4,12.0,-0.029620651,-1.6829156,9.661123,0.0050633503,0.09673253,-0.5850088,-0.08606192,0.0036258786,-0.024413636,2016-12-12 08:08:24,49.98912696021197
-0.033488,-1.7963921,10.256896,9.572506E-5,-1.9910932E-4,0.0019221902,4.0,-0.025595415,-1.6837553,9.66099,0.0055005862,0.086324826,-0.60069036,-0.08610325,0.0035918679,-0.026389793,2016-12-12 08:08:25,48.18720055221398
-0.032292,-1.7796481,10.221016,9.083748E-5,0.0022554994,0.0018897727,4.0,-0.0296154,-1.6828679,9.661134,-0.008087399,0.08960414,-0.58021516,-0.08605913,0.0036332735,-0.02450304,2016-12-12 08:08:26,48.590315278542576
-0.021528,-1.784432,10.247328,0.0025667027,-0.0026239008,-5.347952E-4,12.0,-0.030645406,-1.6837631,9.660973,0.011214596,0.11143296,-0.58994335,-0.086106084,0.0036380333,-0.023935245,2016-12-12 08:08:27,66.99880277486885
-0.034684002,-1.778452,10.237761,1.0996312E-4,-1.296103E-4,0.0018790737,12.0,-0.029234676,-1.6808102,9.661492,-0.004118676,0.08807386,-0.5894237,-0.08594852,0.003729001,-0.025868626,2016-12-12 08:08:28,52.14472580399053
-0.032292,-1.786824,10.236565,1.2659281E-4,-1.257956E-4,-5.823076E-4,12.0,-0.028863609,-1.6819869,9.661287,0.0058203926,0.10364114,-0.57886547,-0.08601969,0.0034714167,-0.023087336,2016-12-12 08:08:29,42.10326045658932
-0.028704,-1.786824,10.234172,-0.0023301467,-1.1238456E-4,0.0018312037,12.0,-0.029007146,-1.6846828,9.660818,-0.0050871465,0.098553166,-0.5709616,-0.08614803,0.003731833,-0.025975253,2016-12-12 08:08:30,44.37506813644418
-0.021528,-1.777256,10.26766,0.0025231764,-8.863211E-5,0.0018711984,12.0,-0.032972027,-1.6808659,9.661469,0.0029079737,0.109546125,-0.5870546,-0.085947245,0.003902838,-0.025666565,2016-12-12 08:08:31,53.98795424747719
-0.037076,-1.77606,10.242544,8.419156E-7,0.002278924,-5.651936E-4,12.0,-0.031938076,-1.6789962,9.661799,-0.012802076,0.09945582,-0.5950959,-0.085847616,0.0039489046,-0.026843827,2016-12-12 08:08:32,49.68982711550974
-0.034684002,-1.78802,10.260485,-7.017702E-5,-1.9410253E-4,-5.7798624E-4,12.0,-0.03214924,-1.6803657,9.661559,0.0025347609,0.09808628,-0.5881606,-0.085945584,0.0033076524,-0.019263634,2016-12-12 08:08:33,51.39494504457822
-0.034684002,-1.784432,10.247328,-5.9202313E-5,-1.8291175E-4,0.0018633306,4.0,-0.029502017,-1.6802523,9.661587,-0.009170016,0.09580767,-0.5917209,-0.08592657,0.0035738698,-0.023920635,2016-12-12 08:08:34,44.45250310143449
