ACC_X,ACC_Y,ACC_Z,GYRO_X,GYRO_Y,GYRO_Z,LIGH_1,GRAV_X,GRAV_Y,GRAV_Z,LINACC_X,LINACC_Y,LINACC_Z,ROTVEC_X,ROTVEC_Y,ROTVEC_Z,TIME,VOICE
3.8256378,0.39109802,8.469971,0.41227722,-0.13121033,0.016189575,84.0,3.4769304,0.44002324,9.159024,0.14278412,-0.44836408,0.1456604,-0.17362653,-0.05360569,-0.968576,2016-12-01 19:19:51,44.40690724378114
3.0057678,1.378952,8.581284,-0.26750183,-0.010406494,-0.058258057,67.0,3.3362,1.4723269,9.103429,-0.06704569,-0.10403788,-0.7390747,-0.15935174,-0.102280736,-0.970135,2016-12-01 19:19:52,56.84226491510863
2.676361,0.37425232,9.467163,-0.22650146,0.2008667,0.0019226074,23.0,2.8829331,0.6167515,9.353005,0.11014652,-0.07827014,-0.2756529,-0.14276108,-0.052428447,-0.9785312,2016-12-01 19:19:54,59.664437975897435
2.6343384,0.9066925,8.563538,0.20100403,-0.048919678,-0.09770203,15.0,2.9050496,0.7984534,9.332393,-0.20353436,0.01689899,-0.5441313,-0.14358503,-0.059697226,-0.98003036,2016-12-01 19:19:55,56.01626070513564
2.609024,0.52459717,9.12616,-0.094573975,-0.013427734,-0.01222229,12.0,2.702287,0.5791019,9.40918,0.036170483,-0.009233415,-0.21593475,-0.13469741,-0.046064477,-0.98288465,2016-12-01 19:19:56,58.93968180536898
2.9818726,-11.117706,7.1399994,-2.1582184,2.6299438,-4.1929474,3.0,7.002668,-4.624916,5.0737734,-4.805849,-7.0670853,1.237464,0.29582614,-0.3921689,0.82092154,2016-12-01 19:19:57,67.50297558146728
-0.5567322,-1.4028931,9.723465,0.014053345,0.03413391,0.0015716553,17.0,0.01019956,0.42565143,9.797402,-0.5100683,-1.8162167,-0.10405636,0.019128617,0.010274898,0.49405375,2016-12-01 19:19:58,67.70361592580022
-0.55825806,-1.4112549,9.7634735,2.2888184E-4,6.1035156E-4,3.0517578E-4,17.0,-0.46545494,-1.1083544,9.732692,-0.08065638,-0.29326034,0.045900345,-0.059142914,-0.016520986,0.619801,2016-12-01 19:19:59,58.01633795545722
-0.56951904,-1.4466095,9.732346,2.593994E-4,7.324219E-4,-1.5258789E-4,17.0,-0.5516139,-1.3791106,9.693512,-0.019075155,-0.06706154,-0.006381035,-0.07146396,-0.024669655,0.65150434,2016-12-01 19:20:00,62.22109210050129
-0.5814667,-1.4312592,9.7229,-1.5258789E-4,3.3569336E-4,1.5258789E-4,17.0,-0.57496744,-1.4195637,9.686313,-0.0040501356,-0.004974246,-0.010718346,-0.073906355,-0.025820483,0.65820396,2016-12-01 19:20:01,64.05508683796748
-0.5685272,-1.4204559,9.72377,8.69751E-4,0.0012664795,2.4414063E-4,17.0,-0.5744438,-1.4233823,9.685783,0.010325253,0.0020167828,0.0035209656,-0.07412454,-0.026013015,0.6584127,2016-12-01 19:20:02,66.68093124299362
-0.5575409,-1.4255676,9.740494,2.593994E-4,0.0014038086,7.171631E-4,17.0,-0.56443447,-1.413608,9.687802,0.009632647,0.012142658,-0.0072603226,-0.073361196,-0.026032452,0.6580453,2016-12-01 19:20:03,65.4936247486071
-0.570343,-1.4122772,9.718414,0.0010681152,3.8146973E-4,6.1035156E-5,17.0,-0.5681441,-1.4123726,9.687766,0.0055078864,-3.2031536E-4,-0.007839203,-0.07348088,-0.025874173,0.6580216,2016-12-01 19:20:04,66.85759160960936
-0.56877136,-1.4374542,9.712128,-3.3569336E-4,-3.0517578E-5,-5.340576E-4,17.0,-0.5688298,-1.4202085,9.686581,9.650588E-4,-0.020217419,0.0080451965,-0.073761106,-0.02610816,0.65828264,2016-12-01 19:20:05,71.29820311728014
-0.5576477,-1.4201508,9.713303,-5.187988E-4,-3.0517578E-5,-5.340576E-4,17.0,-0.57382923,-1.4192463,9.686425,0.011085272,0.0077135563,0.0116539,-0.0738904,-0.025883172,0.65822893,2016-12-01 19:20:06,69.13937824107329
-0.57385254,-1.4355011,9.727997,4.8828125E-4,-2.4414063E-4,-5.340576E-4,17.0,-0.5725837,-1.4220467,9.686089,-0.004466474,-0.012318969,0.00941658,-0.07385369,-0.026065668,0.65830624,2016-12-01 19:20:07,62.99615656213976
-0.57987976,-1.4205475,9.732346,-1.2207031E-4,-2.4414063E-4,-2.593994E-4,17.0,-0.5716364,-1.4167004,9.686929,-0.02085185,0.0130496025,0.0058698654,-0.07363501,-0.0258833,0.65810263,2016-12-01 19:20:08,68.91330123778255
-0.5851135,-1.4293976,9.717728,-4.272461E-4,-9.1552734E-5,-5.340576E-4,17.0,-0.5736885,-1.42271,9.6859255,0.004160404,-0.022794843,0.015951157,-0.07401472,-0.026019854,0.658362,2016-12-01 19:20:09,72.40907266522103
-0.58110046,-1.4039459,9.723511,4.5776367E-4,3.5095215E-4,-5.340576E-4,17.0,-0.5717352,-1.4157996,9.687055,0.0011502504,0.009531856,4.3201447E-4,-0.07368452,-0.025728662,0.6580462,2016-12-01 19:20:10,61.83871359080777
-0.5814667,-1.406723,9.722763,-1.2207031E-4,9.1552734E-5,-8.087158E-4,17.0,-0.5732318,-1.4137468,9.687265,-0.0051733255,0.010502815,-0.002711296,-0.073665045,-0.025697961,0.65802044,2016-12-01 19:20:11,70.07760187865578
-0.5788269,-1.4273834,9.720215,-1.2207031E-4,-2.4414063E-4,-0.0010375977,17.0,-0.5741418,-1.419432,9.68638,-0.0020210743,-0.0025429726,-0.004961014,-0.073920324,-0.025846032,0.6582243,2016-12-01 19:20:12,66.48876160340134
-0.580246,-1.4208374,9.744308,-2.1362305E-4,-7.7819824E-4,-6.1035156E-4,17.0,-0.5722985,-1.4159237,9.687002,-0.0054288507,0.0010168552,0.005203247,-0.073741846,-0.025796337,0.65810996,2016-12-01 19:20:13,68.0409315260095
-0.57777405,-1.4402618,9.734848,1.373291E-4,3.8146973E-4,-8.69751E-4,17.0,-0.5713798,-1.419366,9.686553,-0.0033094883,-0.016083479,0.013442993,-0.07393565,-0.02599039,0.65830743,2016-12-01 19:20:14,68.8884760880752
-0.5659485,-1.4388275,9.725616,3.0517578E-4,-7.6293945E-5,-0.0011444092,17.0,-0.5718063,-1.423875,9.685866,-0.009408593,6.121397E-4,0.0016345978,-0.07399419,-0.02613666,0.6584129,2016-12-01 19:20:15,62.87477175739714
-0.5751648,-1.445404,9.730637,-1.2207031E-4,3.5095215E-4,7.6293945E-5,17.0,-0.5712531,-1.4223664,9.686121,-0.0026381016,-0.008432865,-0.0041618347,-0.073820256,-0.025990497,0.6582504,2016-12-01 19:20:16,63.36056006998596
-0.58480835,-1.4320374,9.728104,-1.2207031E-4,4.5776367E-5,-0.0011444092,17.0,-0.5715282,-1.4236583,9.685915,-0.014961898,0.006722927,0.018957138,-0.073976666,-0.02613918,0.65840554,2016-12-01 19:20:17,68.52429864556338
-0.57429504,-1.4321289,9.718903,-1.2207031E-4,2.593994E-4,-5.340576E-4,17.0,-0.5730671,-1.4209757,9.686217,0.0017892122,-0.0048702955,-0.013772011,-0.0739298,-0.025955368,0.65828615,2016-12-01 19:20:18,69.04826471413577
-0.5761261,-1.430542,9.727661,-6.713867E-4,-2.4414063E-4,-5.340576E-4,17.0,-0.57308376,-1.4183286,9.686604,-6.085634E-4,-0.007581353,-0.007648468,-0.0737897,-0.025836015,0.6581544,2016-12-01 19:20:19,72.25149444306852
-0.5778198,-1.4281006,9.736023,7.324219E-4,-6.1035156E-4,-5.340576E-4,17.0,-0.5720748,-1.4202297,9.686386,-0.0057685375,-0.0118842125,0.0025987625,-0.07375405,-0.025977643,0.6582109,2016-12-01 19:20:20,72.15173619001669
-0.5909729,-1.4302826,9.750168,7.324219E-4,-6.866455E-4,-5.340576E-4,17.0,-0.5717271,-1.4226178,9.686056,-0.0055606365,-0.003533125,-0.003001213,-0.07386656,-0.026092518,0.6583266,2016-12-01 19:20:21,69.75780404523385
-0.5787964,-1.433197,9.740463,-1.2207031E-4,3.6621094E-4,-5.340576E-4,17.0,-0.5703253,-1.4173394,9.686913,0.0041086674,-0.016567826,0.01373291,-0.07374452,-0.02596008,0.658197,2016-12-01 19:20:22,63.55990490706269
-0.5688782,-1.4298553,9.74147,4.8828125E-4,-7.6293945E-5,-5.340576E-4,17.0,-0.5761916,-1.4205275,9.686098,0.012937427,-0.0021548271,0.009037018,-0.074031085,-0.025795057,0.65825236,2016-12-01 19:20:23,67.67948689862607
-0.576355,-1.452774,9.752014,3.6621094E-4,2.593994E-4,-1.5258789E-4,17.0,-0.5741235,-1.4212503,9.686114,0.001230061,-0.026531696,0.016100883,-0.07394268,-0.025860516,0.65824294,2016-12-01 19:20:24,70.58774808507077
-0.5849457,-1.4168243,9.750153,-1.2207031E-4,3.8146973E-4,-5.79834E-4,17.0,-0.57533276,-1.4172611,9.686628,-0.0053542852,0.005558729,0.016810417,-0.07383057,-0.025698703,0.6581027,2016-12-01 19:20:25,67.52874237878284
-0.5730591,-1.4259033,9.737061,4.8828125E-4,-2.4414063E-4,-9.0026855E-4,17.0,-0.5701436,-1.4179524,9.686832,-0.0019125938,-0.012012482,0.0042238235,-0.0736954,-0.025998963,0.65819305,2016-12-01 19:20:26,72.63411619619015
-0.58117676,-1.439209,9.7339325,2.89917E-4,-6.1035156E-5,-5.340576E-4,17.0,-0.57313025,-1.4210638,9.686201,0.003141582,-0.006449461,-0.0100746155,-0.073934406,-0.025979016,0.6583008,2016-12-01 19:20:27,59.51360417783627
-0.57980347,-1.4307709,9.747604,3.5095215E-4,3.8146973E-4,-6.5612793E-4,17.0,-0.5757116,-1.4214509,9.68599,-0.008340895,0.0042277575,0.016421318,-0.07403652,-0.025894037,0.6583069,2016-12-01 19:20:28,59.80601024595727
-0.57943726,-1.4202881,9.7308655,1.373291E-4,3.8146973E-4,-9.613037E-4,17.0,-0.575646,-1.4208876,9.686078,2.0986795E-4,0.0061826706,0.013271332,-0.074033916,-0.025937859,0.65832853,2016-12-01 19:20:29,61.22523828277324
-0.59324646,-1.4252777,9.713318,-4.7302246E-4,6.2561035E-4,-5.340576E-4,17.0,-0.5772267,-1.4202747,9.686072,-0.015024066,0.0020331144,-0.020003319,-0.074004516,-0.025857622,0.65827197,2016-12-01 19:20:30,61.11612213925655
-0.57099915,-1.4478455,9.75322,-7.324219E-4,3.8146973E-4,-4.7302246E-4,17.0,-0.5734887,-1.425236,9.685567,0.0074692965,-0.019423008,0.016269684,-0.07413336,-0.026146984,0.65848714,2016-12-01 19:20:31,62.36171391364013
-0.5707092,-1.4358215,9.737122,-1.2207031E-4,5.950928E-4,-0.0011444092,17.0,-0.5723144,-1.4217339,9.6861515,0.0011744499,-0.01941824,0.004758835,-0.07395809,-0.026058456,0.6583541,2016-12-01 19:20:32,68.93181430075819
-0.57221985,-1.4181061,9.727493,-5.340576E-4,5.645752E-4,-3.2043457E-4,17.0,-0.5764393,-1.4206554,9.686065,-0.014521241,-0.0054730177,-0.005044937,-0.07403158,-0.025835792,0.65827394,2016-12-01 19:20:33,67.42884765680586
-0.5781708,-1.4326324,9.732346,2.593994E-4,-1.373291E-4,-5.340576E-4,17.0,-0.5789823,-1.41995,9.686016,2.489686E-4,-0.017560363,6.017685E-4,-0.07409166,-0.025710883,0.6582383,2016-12-01 19:20:34,61.831272252816056
-0.58865356,-1.4311829,9.72995,3.2043457E-4,-2.4414063E-4,-5.340576E-4,17.0,-0.5775048,-1.4211471,9.685928,-0.007306814,0.0022704601,-6.8092346E-4,-0.07411198,-0.025754014,0.6582709,2016-12-01 19:20:35,61.578052467921964
-0.5765381,-1.4386597,9.741226,-4.7302246E-4,-1.8310547E-4,-7.9345703E-4,17.0,-0.5776392,-1.4223459,9.685744,-0.022537947,0.011434078,0.01580429,-0.074024715,-0.02589352,0.65830076,2016-12-01 19:20:36,68.17842422359453
-0.57714844,-1.4264374,9.724716,4.8828125E-4,3.3569336E-4,-0.0010986328,17.0,-0.5765575,-1.4192069,9.686269,-0.0066343546,-0.0065084696,-0.009607315,-0.0739816,-0.02577634,0.6582181,2016-12-01 19:20:37,65.91209482359841
-0.5885925,-1.4416809,9.747864,-1.2207031E-4,-2.4414063E-4,-9.1552734E-4,17.0,-0.57755625,-1.4239205,9.685519,0.0055733323,-0.0052485466,-0.0015668869,-0.07419123,-0.025916446,0.6583952,2016-12-01 19:20:38,71.45318773328486
-0.5713806,-1.4173737,9.721191,4.8828125E-4,-2.4414063E-4,-7.324219E-4,17.0,-0.5712291,-1.4159175,9.687066,0.004568815,0.008552551,-0.017961502,-0.073729604,-0.025903309,0.6581599,2016-12-01 19:20:39,59.62206696391555
-0.58192444,-1.4230957,9.7282715,-2.2888184E-4,-2.4414063E-4,-5.340576E-4,17.0,-0.5742581,-1.4201912,9.686262,0.017132998,-0.0027110577,-0.0037345886,-0.07394019,-0.025902411,0.6582636,2016-12-01 19:20:40,67.05002396639624
-0.58444214,-1.4323578,9.750076,1.5258789E-4,3.8146973E-4,-5.340576E-4,17.0,-0.5765977,-1.4198021,9.68618,-0.0076135397,0.011274815,0.007586479,-0.07400515,-0.025797341,0.65824074,2016-12-01 19:20:41,64.60357725906466
-0.56321716,-1.4374542,9.739395,-4.5776367E-4,-1.9836426E-4,-5.340576E-4,17.0,-0.57576126,-1.423023,9.685757,0.018628895,-0.0059695244,-0.010908127,-0.074033126,-0.026126286,0.6584267,2016-12-01 19:20:42,59.71783108681877
-0.5747223,-1.4374542,9.726547,-1.2207031E-4,3.3569336E-4,-5.340576E-4,17.0,-0.57368743,-1.4249146,9.685602,-0.004204154,0.013200283,-0.0076179504,-0.074096836,-0.026103465,0.6584463,2016-12-01 19:20:43,55.92053199146612
-0.5843048,-1.4360352,9.754166,4.8828125E-4,7.6293945E-4,-5.340576E-4,17.0,-0.5726932,-1.4209471,9.686244,-0.015242398,0.008384228,0.019762993,-0.07399184,-0.025989471,0.65833473,2016-12-01 19:20:44,55.18273874430272
-0.58317566,-1.4287262,9.744446,-1.2207031E-4,-2.4414063E-4,-7.019043E-4,17.0,-0.5770197,-1.423388,9.685629,-0.009382427,0.006030321,-0.003296852,-0.074106954,-0.025943171,0.65836746,2016-12-01 19:20:45,57.40777722293326
-0.5814667,-1.4310455,9.731796,4.4250488E-4,-8.544922E-4,-0.0010986328,17.0,-0.5741526,-1.4266504,9.685319,-0.0038028955,-0.011234522,0.004535675,-0.07417731,-0.02615133,0.65851116,2016-12-01 19:20:46,68.01212805009575
-0.58114624,-1.4366913,9.726883,-1.2207031E-4,3.0517578E-5,-5.340576E-4,17.0,-0.575813,-1.4225383,9.685825,0.0071316957,-0.011329651,0.004350662,-0.07408049,-0.025931338,0.65834814,2016-12-01 19:20:47,63.32244701161011
-0.58781433,-1.4263306,9.735886,4.8828125E-4,3.8146973E-4,-8.392334E-4,17.0,-0.578387,-1.4204756,9.685974,0.003463149,0.006251335,3.9958954E-4,-0.074033946,-0.025766306,0.65823877,2016-12-01 19:20:48,66.75924315874632
-0.5838623,-1.4224854,9.736282,0.0010681152,-8.392334E-4,-5.493164E-4,17.0,-0.5751629,-1.4247979,9.685532,-0.004537344,0.013730645,-0.003487587,-0.0741437,-0.025967736,0.6583985,2016-12-01 19:20:49,71.10639330869334
-0.5882263,-1.4285736,9.715164,2.746582E-4,5.645752E-4,-9.3078613E-4,17.0,-0.57957536,-1.4219892,9.685682,-0.003049314,-0.012917042,-0.013908386,-0.074107416,-0.025762446,0.6582731,2016-12-01 19:20:50,55.654883775845214
-0.5791168,-1.4268494,9.733459,-1.2207031E-4,1.373291E-4,-9.0026855E-4,17.0,-0.5815235,-1.4195492,9.685924,-0.0012316704,0.0073918104,-0.020244598,-0.07422764,-0.025564246,0.65822875,2016-12-01 19:20:51,70.93094827230351
-0.56359863,-1.427063,9.731613,-6.866455E-4,9.1552734E-4,-5.340576E-4,17.0,-0.5786627,-1.4251317,9.685274,0.013553679,-0.009329796,0.0037727356,-0.074273966,-0.02591967,0.65843785,2016-12-01 19:20:52,69.62714746327845
-0.58732605,-1.4375763,9.728638,0.0,-1.2207031E-4,-4.5776367E-5,17.0,-0.57724714,-1.4255034,9.685305,-0.007224381,-0.009127617,0.004047394,-0.07420994,-0.026035162,0.6584666,2016-12-01 19:20:53,55.06402765407891
-0.5749054,-1.4339294,9.742523,-1.2207031E-4,8.087158E-4,-3.6621094E-4,17.0,-0.57488436,-1.4222304,9.6859255,9.949803E-4,-0.0054860115,0.011185646,-0.07399855,-0.026010798,0.6583492,2016-12-01 19:20:54,60.6646920783553
-0.5647278,-1.4298248,9.7330475,-1.2207031E-4,-2.4414063E-4,-5.340576E-4,17.0,-0.5729703,-1.4209534,9.686227,0.011574686,-0.0039414167,-0.0035390854,-0.0739406,-0.025968432,0.6582984,2016-12-01 19:20:55,66.92591694361867
-0.58551025,-1.4324188,9.722946,6.1035156E-5,7.7819824E-4,7.6293945E-5,17.0,-0.5814455,-1.4234573,9.685354,0.002500832,0.012856603,-0.013475418,-0.07430609,-0.025748754,0.65836424,2016-12-01 19:20:56,66.43910843654892
-0.5832367,-1.4360962,9.742722,-1.2207031E-4,0.0,-1.5258789E-4,17.0,-0.5779055,-1.4235392,9.6855545,9.3483925E-4,-0.014933586,0.014583588,-0.07425794,-0.025855232,0.6583962,2016-12-01 19:20:57,71.49667994847194
-0.5851135,-1.4423828,9.744308,-1.8310547E-4,8.544922E-4,-0.0011444092,17.0,-0.5765575,-1.4294261,9.684768,0.005819738,-0.013140202,-2.117157E-4,-0.07436243,-0.026163805,0.65860933,2016-12-01 19:20:58,67.37536505077858
-0.5771942,-1.4285583,9.726059,-6.2561035E-4,4.8828125E-4,-0.0011444092,17.0,-0.576171,-1.4242721,9.685549,0.008932054,0.004577279,-0.015077591,-0.074131764,-0.026018685,0.65841925,2016-12-01 19:20:59,67.28096346428828
-0.57788086,-1.4271088,9.749161,-1.2207031E-4,3.8146973E-4,-5.340576E-4,17.0,-0.57778573,-1.4246148,9.685402,0.0036981702,0.004705906,0.015208244,-0.07428174,-0.02603473,0.65850186,2016-12-01 19:21:00,50.76787455043225
-0.58555603,-1.4170532,9.740143,4.8828125E-4,3.8146973E-4,-0.0011291504,17.0,-0.577761,-1.4214628,9.685867,-0.008610964,0.013817549,0.00356102,-0.074101046,-0.02586127,0.6583217,2016-12-01 19:21:01,63.183893832913974
-0.58010864,-1.4394226,9.74054,4.8828125E-4,-2.4414063E-4,-9.1552734E-5,17.0,-0.5761862,-1.4237893,9.685619,0.0013911724,-0.0068005323,-0.0046167374,-0.07417513,-0.025941717,0.6584004,2016-12-01 19:21:02,72.16736675982209
-0.5824585,-1.4367371,9.7348175,-2.4414063E-4,-6.1035156E-4,-5.340576E-4,17.0,-0.5786225,-1.4259888,9.68515,-0.0074412823,0.0023610592,-0.014816284,-0.07431266,-0.025826663,0.6584083,2016-12-01 19:21:03,69.18653425977712
-0.5790863,-1.4291382,9.719833,3.9672852E-4,5.187988E-4,1.2207031E-4,17.0,-0.57968366,-1.4269577,9.684945,0.0035665035,-3.7992E-4,-0.01656437,-0.0743767,-0.025949525,0.6585043,2016-12-01 19:21:04,69.73632768913856
-0.57725525,-1.4256439,9.730148,-1.373291E-4,0.0,1.2207031E-4,17.0,-0.57446265,-1.4222617,9.685946,-0.009222448,0.0058408976,-0.012353897,-0.07399512,-0.02595758,0.65831965,2016-12-01 19:21:05,72.22446137168858
-0.58258057,-1.4290009,9.738052,-7.4768066E-4,5.187988E-4,1.2207031E-4,17.0,-0.581467,-1.4204324,9.685796,4.3404102E-4,-0.0025110245,0.008985519,-0.07418112,-0.025664756,0.6582584,2016-12-01 19:21:06,62.022946225354936
-0.5819397,-1.4375916,9.73851,3.2043457E-4,-1.0681152E-4,1.2207031E-4,17.0,-0.578078,-1.4291152,9.684722,-0.0021089315,0.010710239,-0.005542755,-0.074402526,-0.026093343,0.65859234,2016-12-01 19:21:07,65.0904937480347
-0.5725708,-1.4412842,9.741913,7.324219E-4,6.1035156E-5,1.2207031E-4,17.0,-0.5785077,-1.4242854,9.685408,0.0022781491,-0.017516613,0.0037879944,-0.07423716,-0.02589356,0.65840596,2016-12-01 19:21:08,71.38963772732166
-0.5637512,-1.4258728,9.728806,-1.373291E-4,1.5258789E-4,-1.2207031E-4,17.0,-0.57191324,-1.4219339,9.686145,0.0024117231,-0.0072528124,0.010088921,-0.073925495,-0.026058968,0.65833825,2016-12-01 19:21:09,72.00174283595655
-0.55526733,-1.40271,9.736206,-6.713867E-4,5.187988E-4,1.2207031E-4,17.0,-0.5671789,-1.4129161,9.687743,-0.011005223,0.012768149,0.0148563385,-0.07342857,-0.025900282,0.65800947,2016-12-01 19:21:10,54.23267606042047
-0.5611725,-1.4191132,9.734222,-1.373291E-4,9.1552734E-5,1.2207031E-4,17.0,-0.5623402,-1.419093,9.687122,0.011223435,-0.0010743141,-8.802414E-4,-0.073494494,-0.026320914,0.658262,2016-12-01 19:21:11,55.70823305679838
-0.56866455,-1.4212189,9.718369,-5.645752E-4,5.187988E-4,1.2207031E-4,17.0,-0.56290066,-1.4176946,9.687295,0.009520233,-3.310442E-4,-0.0042791367,-0.07346142,-0.026246335,0.6582067,2016-12-01 19:21:12,53.715572621106496
-0.57167053,-1.4346466,9.710114,-7.4768066E-4,5.187988E-4,1.2207031E-4,17.0,-0.565395,-1.4221138,9.6865015,-0.0042192936,-0.0067852736,-0.019626617,-0.07373251,-0.026307194,0.6583725,2016-12-01 19:21:13,70.01373780094009
-0.5642395,-1.4341431,9.733353,-3.0517578E-4,-1.0681152E-4,1.2207031E-4,17.0,-0.5612858,-1.4175675,9.687407,0.0017044544,-0.008693576,0.014431953,-0.07345529,-0.026307363,0.65823555,2016-12-01 19:21:14,68.90942318039696
-0.56877136,-1.4291229,9.721878,-1.373291E-4,-1.0681152E-4,1.2207031E-4,17.0,-0.5667001,-1.4268938,9.685722,0.0023510456,0.0042767525,0.0029125214,-0.07393508,-0.026403466,0.658523,2016-12-01 19:21:15,71.0531924030481
-0.548172,-1.3967133,9.733093,2.89917E-4,-3.0517578E-5,1.2207031E-4,17.0,-0.5545888,-1.4156576,9.688071,0.009061635,0.014236927,-0.021683693,-0.0731033,-0.026490174,0.65815705,2016-12-01 19:21:16,65.01464963755095
-0.5861969,-1.4274902,9.75029,-1.373291E-4,5.187988E-4,-9.1552734E-5,17.0,-0.56564885,-1.4229364,9.686365,-0.030223131,0.008176088,0.010854721,-0.073720455,-0.02636804,0.6583984,2016-12-01 19:21:17,64.81462159445174
-0.5538635,-1.4109955,9.743912,-1.373291E-4,5.187988E-4,1.2207031E-4,17.0,-0.5605878,-1.42044,9.687027,0.01297456,0.024035096,-0.002199173,-0.07342223,-0.026414528,0.6582752,2016-12-01 19:21:18,56.42408749020607
-0.56233215,-1.4268494,9.742126,-3.0517578E-4,7.9345703E-4,1.2207031E-4,17.0,-0.5619155,-1.4200951,9.687,-0.0013896227,0.0075335503,0.0049819946,-0.0735174,-0.026375247,0.6583017,2016-12-01 19:21:19,68.57095349225948
-0.56895447,-1.4278107,9.737366,3.0517578E-4,-1.0681152E-4,1.2207031E-4,17.0,-0.56278694,-1.4228141,9.68655,-0.0016461015,0.006081581,0.0011024475,-0.07364587,-0.026475852,0.65841776,2016-12-01 19:21:20,71.97112212822935
-0.5703583,-1.420044,9.743652,-1.373291E-4,-1.0681152E-4,-2.1362305E-4,17.0,-0.5604249,-1.4211003,9.686939,-0.0011611581,-0.0035566092,-0.009043694,-0.07350421,-0.026470846,0.6583451,2016-12-01 19:21:21,64.46608059599276
-0.5575409,-1.4392853,9.753159,-4.5776367E-5,5.187988E-4,7.324219E-4,17.0,-0.5612643,-1.4229016,9.6866255,0.0067818165,-0.002611518,-0.011911392,-0.07363175,-0.026550064,0.65844953,2016-12-01 19:21:22,68.1792790676752
-0.56788635,-1.4083252,9.753662,9.918213E-4,-1.0681152E-4,1.2207031E-4,17.0,-0.564443,-1.4136741,9.687792,0.010821462,0.011356831,0.00749588,-0.07336395,-0.026034627,0.6580478,2016-12-01 19:21:23,70.99474632824035
-0.57218933,-1.4328156,9.727081,1.9836426E-4,-1.0681152E-4,1.2207031E-4,17.0,-0.55991596,-1.4181921,9.687395,-0.010026336,-0.010077,0.013949394,-0.0733786,-0.0263804,0.6582358,2016-12-01 19:21:24,61.62301204699682
-0.55859375,-1.432251,9.746368,0.0010070801,0.0010681152,1.2207031E-4,17.0,-0.5634776,-1.4227582,9.686519,0.008665562,-0.0015927553,0.0071868896,-0.073662,-0.026433768,0.65840375,2016-12-01 19:21:25,71.36077108419127
-0.56378174,-1.428894,9.750214,3.2043457E-4,3.0517578E-5,-3.3569336E-4,17.0,-0.5625267,-1.418116,9.687255,0.018479109,-0.013617635,0.0047626495,-0.07347805,-0.026236005,0.6582095,2016-12-01 19:21:26,72.14370987413443
-0.5560913,-1.4165039,9.737244,1.8310547E-4,-1.0681152E-4,1.2207031E-4,17.0,-0.561323,-1.4200783,9.687037,-0.0069136024,-0.016580105,0.012500763,-0.07343007,-0.02628101,0.6582093,2016-12-01 19:21:28,62.231315363636384
-0.5511322,-1.4445496,9.743317,3.6621094E-4,5.187988E-4,1.2207031E-4,17.0,-0.56186837,-1.4227992,9.686606,-0.0020611286,-0.020743132,0.026602745,-0.073573425,-0.026455056,0.6583711,2016-12-01 19:21:29,61.90643926821535
-0.56355286,-1.4328613,9.740738,-6.713867E-4,-1.0681152E-4,1.2207031E-4,17.0,-0.56129885,-1.4228166,9.686636,0.0013619065,-0.00902462,0.0025339127,-0.073569804,-0.026521446,0.65840393,2016-12-01 19:21:30,69.93116462283537
-0.5538635,-1.4172516,9.744293,1.0681152E-4,-3.6621094E-4,1.2207031E-4,17.0,-0.56440926,-1.4173295,9.68726,0.015322447,-0.0067179203,0.007024765,-0.07349905,-0.026174277,0.6581876,2016-12-01 19:21:31,71.71865748174935
-0.55418396,-1.4385834,9.762329,4.272461E-4,5.187988E-4,1.6784668E-4,17.0,-0.5591986,-1.4242635,9.686544,-0.0038799047,-0.0037721395,0.0021944046,-0.073580354,-0.02663797,0.65847,2016-12-01 19:21:32,68.4349120921855
-0.5617676,-1.4398499,9.754868,-1.373291E-4,3.6621094E-4,2.746582E-4,17.0,-0.560527,-1.4192209,9.687209,-0.009185374,-0.0018057823,-0.006788254,-0.073437676,-0.026395751,0.658273,2016-12-01 19:21:33,67.26910606880834
-0.57247925,-1.4442139,9.734177,-4.5776367E-4,-4.119873E-4,7.324219E-4,17.0,-0.56289667,-1.4244256,9.686307,0.0022907257,-0.009168744,4.1007996E-4,-0.07383251,-0.026559245,0.6585536,2016-12-01 19:21:34,72.0033778910202
-0.5787811,-1.4218292,9.729095,-3.6621094E-4,-2.2888184E-4,6.2561035E-4,17.0,-0.5581785,-1.4205867,9.687144,-0.0033925772,-0.0012347698,-0.0048065186,-0.07340879,-0.026538113,0.65833306,2016-12-01 19:21:35,56.195110940275654
-0.5701904,-1.4383392,9.721268,-1.373291E-4,-1.0681152E-4,1.2207031E-4,17.0,-0.5592979,-1.4215248,9.686942,-0.01464808,-0.008526325,-0.009320259,-0.07348174,-0.026530419,0.6583651,2016-12-01 19:21:36,60.64724748600361
-0.5814667,-1.4292603,9.7317505,2.1362305E-4,-3.6621094E-4,-2.2888184E-4,17.0,-0.5655938,-1.4204009,9.686741,-0.015184879,-0.0062744617,-5.598068E-4,-0.07366464,-0.026382497,0.6583783,2016-12-01 19:21:37,68.33576191863173
-0.5698242,-1.4131012,9.717255,-3.2043457E-4,-2.89917E-4,-3.0517578E-4,17.0,-0.56636673,-1.4202876,9.686712,-0.001344502,0.011681676,6.160736E-4,-0.07367979,-0.026244065,0.65831345,2016-12-01 19:21:38,66.86115570271963
-0.5528412,-1.4251099,9.718018,-8.8500977E-4,1.5258789E-5,0.0,17.0,-0.5647891,-1.4254074,9.686051,0.0020325184,-0.013654709,0.021119118,-0.07381288,-0.026465563,0.658495,2016-12-01 19:21:39,61.663279204073746
-0.5670471,-1.4174957,9.738495,-1.373291E-4,5.187988E-4,4.272461E-4,17.0,-0.5657672,-1.4239012,9.686217,0.018565595,0.0039610863,0.013866425,-0.07372535,-0.026281552,0.6583556,2016-12-01 19:21:40,61.631813857863534
-0.56536865,-1.431839,9.7439575,-1.373291E-4,5.187988E-4,1.5258789E-5,17.0,-0.5631031,-1.4211484,9.686776,0.0105804205,0.01227057,0.010020256,-0.07359698,-0.026369294,0.65833795,2016-12-01 19:21:41,62.57059553335675
-0.5690155,-1.4160004,9.713425,2.746582E-4,-1.0681152E-4,-4.8828125E-4,17.0,-0.5663948,-1.4227195,9.686355,0.0060939193,0.0051532984,0.0016708374,-0.073767304,-0.026301742,0.6583869,2016-12-01 19:21:42,64.53455832123178
-0.61047363,-1.4117126,9.70578,-2.746582E-4,-1.373291E-4,-4.8828125E-4,17.0,-0.55799025,-1.4196829,9.687287,-0.06205678,0.0067589283,-0.026774406,-0.073368736,-0.026511166,0.65829915,2016-12-01 19:21:43,68.19603144741016
-0.5440979,-1.4103851,9.753708,7.171631E-4,0.0011749268,6.1035156E-5,17.0,-0.55667055,-1.4053433,9.689454,0.02055204,0.0031501055,0.027031898,-0.07289007,-0.026003923,0.6577976,2016-12-01 19:21:44,71.16091750961712
-0.57164,-1.4258881,9.739853,-5.493164E-4,0.0021362305,7.324219E-4,17.0,-0.55768824,-1.4134067,9.688222,-0.019963026,-0.0061855316,-0.015489578,-0.073055685,-0.026166085,0.65796417,2016-12-01 19:21:45,71.0367463953224
-0.58543396,-1.4272461,9.74736,-7.324219E-4,0.0011291504,1.5258789E-4,17.0,-0.57160425,-1.4219372,9.686163,0.02251482,-0.0062527657,-0.004755974,-0.07390593,-0.026239062,0.6584227,2016-12-01 19:21:46,67.64637249475106
-0.5695038,-1.4241333,9.746704,-7.4768066E-4,0.0012664795,2.89917E-4,17.0,-0.5690141,-1.4218404,9.686329,0.0031010509,-0.0014380217,-7.505417E-4,-0.07382354,-0.02616734,0.6583445,2016-12-01 19:21:47,67.35017420815545
-0.5626068,-1.4187012,9.7573395,-7.4768066E-4,0.001739502,7.324219E-4,17.0,-0.56923723,-1.4133315,9.687562,0.013176024,2.5212765E-4,0.01183033,-0.073560916,-0.025856363,0.6580519,2016-12-01 19:21:48,66.98964780556287
-0.5581665,-1.4342651,9.748718,2.593994E-4,5.0354004E-4,-3.5095215E-4,17.0,-0.56543493,-1.4214346,9.686599,0.011235476,-0.014379382,0.014825821,-0.07368684,-0.026290122,0.65834105,2016-12-01 19:21:49,64.87215763536527
-0.5670471,-1.4488373,9.744156,-1.6784668E-4,6.4086914E-4,4.5776367E-5,17.0,-0.565139,-1.4260387,9.685939,-1.5592575E-4,-0.015313506,0.007563591,-0.07381603,-0.026525669,0.6585279,2016-12-01 19:21:50,58.353809887145445
-0.55992126,-1.4186859,9.75148,-1.2207031E-4,2.2888184E-4,3.3569336E-4,17.0,-0.56567365,-1.4190167,9.686939,-0.002312541,-0.0046862364,-0.0106134415,-0.07360486,-0.026189338,0.6582478,2016-12-01 19:21:51,65.4132599156947
-0.5683594,-1.4316254,9.735046,-3.8146973E-4,5.0354004E-4,2.593994E-4,17.0,-0.5687222,-1.421192,9.686442,-0.014041662,0.0088739395,0.0035133362,-0.07391979,-0.026246108,0.65843326,2016-12-01 19:21:52,69.68792712860824
-0.5634155,-1.4195404,9.728638,-3.8146973E-4,5.0354004E-4,-8.087158E-4,17.0,-0.5667176,-1.4158947,9.687335,0.014434099,-0.0068107843,-0.015870094,-0.07352396,-0.026030831,0.6581249,2016-12-01 19:21:53,71.7226168839831
-0.56536865,-1.4329681,9.748062,-1.0681152E-4,5.0354004E-4,2.593994E-4,17.0,-0.5661071,-1.4212768,9.686583,0.009795666,-0.0066432953,-8.1825256E-4,-0.073711865,-0.026261896,0.65833867,2016-12-01 19:21:54,66.0847501033824
-0.5697479,-1.4389954,9.736053,-2.89917E-4,5.950928E-4,2.593994E-4,17.0,-0.5671498,-1.4234169,9.686207,0.002856791,-0.010448694,-0.017475128,-0.07380775,-0.026362963,0.6584389,2016-12-01 19:21:55,71.15955777656015
-0.57873535,-1.4323578,9.735199,2.2888184E-4,-3.3569336E-4,2.593994E-4,17.0,-0.5635139,-1.4223729,9.686573,-0.01233542,-0.0017074347,-0.0074748993,-0.07361292,-0.026447438,0.65838665,2016-12-01 19:21:56,72.68186435289445
-0.5783386,-1.4302368,9.72493,-4.5776367E-5,8.392334E-4,2.593994E-4,17.0,-0.5706877,-1.4270651,9.685464,-0.0055007935,0.011642814,-0.014260292,-0.074084416,-0.026198301,0.65848976,2016-12-01 19:21:57,58.47109963735389
-0.5656738,-1.4376831,9.73819,1.8310547E-4,4.5776367E-4,8.392334E-4,17.0,-0.5640142,-1.4229485,9.68646,1.8781424E-4,-6.3216686E-4,-0.004828453,-0.0735779,-0.026256168,0.6582694,2016-12-01 19:21:58,63.14144379065546
-0.5665436,-1.435852,9.713501,-2.4414063E-4,5.0354004E-4,7.324219E-4,17.0,-0.5627793,-1.418641,9.687163,0.0029858947,-0.0024192333,-0.015271187,-0.073492564,-0.026286848,0.65824324,2016-12-01 19:21:59,65.39893574927086
-0.56573486,-1.433258,9.750885,-3.8146973E-4,1.9836426E-4,-1.5258789E-5,17.0,-0.5642575,-1.4233606,9.686384,0.00197649,-0.0017598867,0.018933296,-0.073718585,-0.026408527,0.6584186,2016-12-01 19:22:00,66.719134833199
-0.56004333,-1.4393768,9.741806,-3.8146973E-4,-1.2207031E-4,7.6293945E-4,17.0,-0.56419337,-1.4238976,9.68631,0.016899228,0.0085167885,0.007068634,-0.073687546,-0.026527658,0.65846545,2016-12-01 19:22:01,70.43829745779304
-0.5550995,-1.4226685,9.739365,-3.8146973E-4,-1.2207031E-4,6.1035156E-5,17.0,-0.5616405,-1.4210238,9.686879,-6.8736076E-4,0.008259892,-2.7370453E-4,-0.07354266,-0.026421033,0.6583381,2016-12-01 19:22:02,64.9935816556277
-0.56907654,-1.4329834,9.734299,-3.8146973E-4,5.0354004E-4,4.8828125E-4,17.0,-0.5664792,-1.4262801,9.685825,0.0028431416,3.1077862E-4,-0.0050239563,-0.073808886,-0.026466615,0.6584936,2016-12-01 19:22:03,69.63265016622303
-0.56427,-1.4297943,9.726028,-4.7302246E-4,-6.866455E-4,2.593994E-4,17.0,-0.5648468,-1.4237103,9.686299,0.006452501,-0.008121729,0.008980751,-0.07375163,-0.02639903,0.65843,2016-12-01 19:22:04,71.16350981656376
-0.5657959,-1.4083252,9.714798,-3.8146973E-4,5.0354004E-4,7.4768066E-4,17.0,-0.5723597,-1.422662,9.686012,2.0873547E-4,0.019666195,0.0052576065,-0.07396779,-0.026069326,0.6583646,2016-12-01 19:22:05,71.08996569242422
-0.5686798,-1.4164734,9.712692,-0.0010223389,1.9836426E-4,2.593994E-4,17.0,-0.5685268,-1.4227885,9.686219,-0.009538591,0.0104061365,-0.0062437057,-0.07394828,-0.026204795,0.65842575,2016-12-01 19:22:06,66.56227228763942
-0.5496521,-1.416687,9.728516,-3.8146973E-4,-1.0681152E-4,8.69751E-4,17.0,-0.56948096,-1.4167799,9.687044,0.02132386,0.0091820955,0.0052776337,-0.073650785,-0.02595764,0.65814936,2016-12-01 19:22:07,70.67074861481737
-0.5742645,-1.448822,9.7539215,-9.918213E-4,5.645752E-4,8.69751E-4,17.0,-0.5701412,-1.4304637,9.684994,0.005502045,0.02227068,0.022234917,-0.07418301,-0.026450735,0.6586704,2016-12-01 19:22:08,63.18860944762864
-0.57424927,-1.4271545,9.730713,-7.6293945E-4,1.0681152E-4,-1.0681152E-4,17.0,-0.56899214,-1.423278,9.686119,-0.007445276,0.004839897,-0.0060539246,-0.07382019,-0.02616953,0.658344,2016-12-01 19:22:09,66.98582191651788
-0.5729065,-1.4330597,9.733551,-4.4250488E-4,-1.2207031E-4,8.239746E-4,17.0,-0.57068413,-1.4232156,9.6860285,-0.0015571713,0.0011889935,-0.0037088394,-0.07388476,-0.026141046,0.658361,2016-12-01 19:22:10,54.86569242286642
-0.58029175,-1.4257813,9.746475,-3.8146973E-4,0.0,2.593994E-4,17.0,-0.5706324,-1.424725,9.685811,0.003993869,-3.721714E-4,0.009863853,-0.07398598,-0.026214188,0.65844935,2016-12-01 19:22:11,70.59068066011245
-0.56507874,-1.4347229,9.744476,-7.019043E-4,-1.2207031E-4,2.593994E-4,17.0,-0.568625,-1.4251881,9.685861,-0.0034270883,0.0042415857,-0.0062475204,-0.07395905,-0.02621099,0.65843433,2016-12-01 19:22:12,68.14045541333465
-0.57089233,-1.4198151,9.725006,-3.8146973E-4,0.0,-3.5095215E-4,17.0,-0.5674191,-1.4245116,9.68603,-0.007013738,0.017589092,-0.009343147,-0.07391259,-0.02623242,0.6584225,2016-12-01 19:22:13,72.10021473215905
-0.57499695,-1.434082,9.748978,-4.4250488E-4,-1.2207031E-4,8.69751E-4,17.0,-0.56997776,-1.4271498,9.6854925,-1.2260675E-4,-0.0050321817,0.0011558533,-0.07401825,-0.02624607,0.65848196,2016-12-01 19:22:14,72.25551695547837
-0.56858826,-1.4350433,9.729553,-3.8146973E-4,8.544922E-4,5.0354004E-4,17.0,-0.570575,-1.4257761,9.685659,8.922815E-5,-0.0048371553,-0.0066776276,-0.07394835,-0.026284687,0.65846753,2016-12-01 19:22:15,72.27388932157994
-0.5790863,-1.4394226,9.745697,-1.9836426E-4,-1.2207031E-4,2.593994E-4,17.0,-0.56756,-1.4242855,9.686055,-0.0068309307,-0.016498804,-0.002281189,-0.07394785,-0.026276654,0.6584631,2016-12-01 19:22:16,68.79047581095216
-0.5795746,-1.4281006,9.724197,-2.746582E-4,-4.8828125E-4,7.6293945E-4,17.0,-0.5706239,-1.4208506,9.68638,0.007011831,-0.005867481,0.010231018,-0.07377741,-0.025970949,0.6582189,2016-12-01 19:22:17,71.14221172380414
-0.5570221,-1.4114227,9.726715,-9.1552734E-5,-1.2207031E-4,8.8500977E-4,17.0,-0.56820744,-1.417811,9.686968,0.003926158,0.0066343546,-0.01609993,-0.07364598,-0.026045857,0.6581931,2016-12-01 19:22:18,70.68177599284645
-0.5831604,-1.4403534,9.7379,2.1362305E-4,4.8828125E-4,2.593994E-4,17.0,-0.5712723,-1.4286704,9.685192,-0.011434615,-0.0066628456,-0.008273125,-0.074154675,-0.026339078,0.65859807,2016-12-01 19:22:19,58.16237754758522
-0.5595856,-1.4227448,9.730103,1.2207031E-4,-1.2207031E-4,8.69751E-4,17.0,-0.5694706,-1.4240148,9.685984,0.022167385,0.006396413,-0.0056762695,-0.07392005,-0.02623211,0.6584261,2016-12-01 19:22:20,64.9803225249197
-0.54685974,-1.4035339,9.737473,-9.918213E-4,5.0354004E-4,8.69751E-4,17.0,-0.5672266,-1.4160603,9.687281,0.002762556,0.0069634914,0.006491661,-0.073547415,-0.026017448,0.6581295,2016-12-01 19:22:21,64.37621007788972
-0.5638733,-1.4270935,9.745926,-3.2043457E-4,5.0354004E-4,3.3569336E-4,17.0,-0.5674157,-1.4245074,9.686031,-0.002507925,-0.012871265,0.009334564,-0.07375688,-0.02626948,0.6583649,2016-12-01 19:22:22,61.95480520293224
-0.5752716,-1.4276428,9.743607,2.2888184E-4,3.8146973E-4,2.593994E-4,17.0,-0.5685122,-1.4217004,9.686379,0.014117479,-2.8717518E-4,-0.0052433014,-0.07380127,-0.026181405,0.6583408,2016-12-01 19:22:23,65.1194214418725
-0.5643616,-1.421051,9.751892,-3.6621094E-4,4.5776367E-4,8.69751E-4,17.0,-0.5696243,-1.4258058,9.685711,0.012311578,0.019950151,-0.011601448,-0.07399199,-0.026294062,0.65849406,2016-12-01 19:22:24,60.158109752272075
-0.5774994,-1.4279938,9.762665,-3.8146973E-4,1.5258789E-5,2.593994E-4,17.0,-0.5704019,-1.4220614,9.686216,-1.4781952E-4,-0.005628228,-0.01747036,-0.073950216,-0.026157266,0.6584019,2016-12-01 19:22:25,59.83552687873352
-0.5782013,-1.4364319,9.7343445,4.5776367E-5,7.324219E-4,8.69751E-4,17.0,-0.56981814,-1.4227055,9.686156,-0.0066365004,-0.007750869,0.003850937,-0.07388307,-0.026169077,0.65837485,2016-12-01 19:22:26,57.52602794581631
-0.5784302,-1.4334717,9.717438,-3.8146973E-4,5.0354004E-4,6.2561035E-4,17.0,-0.5714976,-1.4230576,9.686006,-0.010637462,-0.0048134327,-0.0061883926,-0.073926255,-0.02610741,0.65836394,2016-12-01 19:22:27,64.90867486394103
-0.57543945,-1.4287262,9.719467,-3.2043457E-4,-1.2207031E-4,8.69751E-4,17.0,-0.5742929,-1.4266305,9.685313,0.014625192,-0.012445927,0.01535511,-0.0741557,-0.026050603,0.6584478,2016-12-01 19:22:28,68.04814260832578
-0.5832825,-1.4277649,9.721573,1.2207031E-4,0.0010986328,-1.373291E-4,17.0,-0.571037,-1.42296,9.686046,-9.419918E-4,-0.003519535,0.014185905,-0.073933974,-0.02613168,0.65838045,2016-12-01 19:22:29,72.19727519439121
-0.5666046,-1.429184,9.745331,2.593994E-4,1.9836426E-4,2.593994E-4,17.0,-0.5702461,-1.420477,9.686458,0.010029495,6.5279007E-4,0.0018959045,-0.07381457,-0.026068125,0.6582882,2016-12-01 19:22:30,59.93407130276783
-0.55944824,-1.4179535,9.73497,-3.8146973E-4,5.0354004E-4,1.2207031E-4,17.0,-0.56930995,-1.4212092,9.686405,0.019773245,0.028386354,-0.016719818,-0.07369446,-0.026035456,0.65821165,2016-12-01 19:22:31,68.0868051878999
-0.57884216,-1.4181519,9.72821,-3.5095215E-4,5.340576E-4,2.593994E-4,17.0,-0.5678155,-1.4226713,9.686278,-0.009006381,0.012748599,-0.0073575974,-0.07382396,-0.026298495,0.65841323,2016-12-01 19:22:32,65.01878958603055
-0.5742035,-1.4466095,9.741821,-3.8146973E-4,2.2888184E-4,8.69751E-4,17.0,-0.57053816,-1.4290333,9.685182,-0.004566431,0.015469551,0.013902664,-0.07414324,-0.026381169,0.6586144,2016-12-01 19:22:33,58.65836398967025
-0.63664246,-1.4196167,9.715439,2.2888184E-4,0.0057373047,0.0027008057,17.0,-0.5655507,-1.4225098,9.686434,-0.20311546,0.035534024,-0.058566093,-0.07389082,-0.026064636,0.65832406,2016-12-01 19:22:34,66.3114369142066
-0.5683136,-1.4535675,9.748505,-9.0026855E-4,-3.0517578E-5,7.7819824E-4,17.0,-0.5716627,-1.4218435,9.686173,-0.016061306,0.026579976,-0.0053930283,-0.07391362,-0.026065214,0.6583356,2016-12-01 19:22:35,71.02825192595355
-0.5696106,-1.4369507,9.729706,-3.8146973E-4,-1.2207031E-4,2.593994E-4,17.0,-0.5704485,-1.4268836,9.685503,-2.270937E-5,0.001380086,-0.020825386,-0.074060574,-0.02624323,0.65850145,2016-12-01 19:22:36,69.87668250900245
-0.55270386,-1.4241638,9.734589,-3.8146973E-4,5.0354004E-4,8.69751E-4,17.0,-0.56690055,-1.4245552,9.686055,5.9086084E-4,-0.0055077076,0.015954018,-0.07378951,-0.02642822,0.65846395,2016-12-01 19:22:37,72.05825421445606
-0.5813141,-1.4301758,9.730743,-2.2888184E-4,-5.645752E-4,8.69751E-4,17.0,-0.56931746,-1.4230595,9.686132,-0.009301603,3.2186508E-4,-0.004630089,-0.073879264,-0.026201818,0.65839005,2016-12-01 19:22:38,63.05752239277294
-0.56103516,-1.419754,9.714844,-3.8146973E-4,-5.187988E-4,2.593994E-4,17.0,-0.5696714,-1.4278075,9.685413,0.010728419,0.013909459,-0.022292137,-0.0739673,-0.026406487,0.65854055,2016-12-01 19:22:39,64.48338067855879
-0.56918335,-1.4251862,9.717194,-3.8146973E-4,5.0354004E-4,2.593994E-4,17.0,-0.56586957,-1.4206289,9.686691,-0.007356584,0.005944252,-0.017457008,-0.073791474,-0.026280759,0.6583879,2016-12-01 19:22:40,66.37137092682097
-0.5647278,-1.4258118,9.72113,-3.8146973E-4,3.9672852E-4,2.593994E-4,17.0,-0.5710773,-1.4222746,9.686145,0.009415805,-0.014302611,0.001364708,-0.07390979,-0.026104147,0.6583541,2016-12-01 19:22:41,61.615076148276756
-0.56710815,-1.4410095,9.754684,-4.5776367E-5,1.5258789E-4,8.69751E-4,17.0,-0.5677488,-1.4265833,9.685706,-0.004221797,-0.013349891,0.005039215,-0.0739999,-0.026355345,0.65853,2016-12-01 19:22:42,69.46031896230862
-0.56632996,-1.4233856,9.743683,-3.8146973E-4,5.0354004E-4,5.493164E-4,17.0,-0.57108116,-1.4233062,9.685992,-0.004379034,-0.00462389,-0.011566162,-0.07394837,-0.026143095,0.65839356,2016-12-01 19:22:43,72.60516266552469
-0.56895447,-1.4318848,9.745209,3.8146973E-4,5.0354004E-4,2.593994E-4,17.0,-0.5668937,-1.4259796,9.685844,3.1924248E-4,0.0010972023,0.010808945,-0.07390569,-0.026406031,0.65850985,2016-12-01 19:22:44,69.06363653749679
-0.5540161,-1.4252777,9.734955,-6.1035156E-5,4.272461E-4,-6.1035156E-5,17.0,-0.56592023,-1.417505,9.687147,-0.004388571,-0.008387208,-0.0143013,-0.07355689,-0.026122577,0.6581892,2016-12-01 19:22:45,70.16174001972837
-0.5705261,-1.4319916,9.744049,-3.8146973E-4,-3.0517578E-5,8.69751E-4,17.0,-0.56671333,-1.4246055,9.686058,-0.009972811,-0.010937214,0.0129823685,-0.07382588,-0.026406916,0.6584708,2016-12-01 19:22:46,71.81186050825004
-0.57159424,-1.4298553,9.7348175,-3.8146973E-4,-4.5776367E-5,7.9345703E-4,17.0,-0.56602246,-1.4271322,9.685727,0.009607255,0.006155491,-0.008862495,-0.073919,-0.026483335,0.65855676,2016-12-01 19:22:47,57.2247844730519
-0.5694275,-1.4257507,9.745178,2.4414063E-4,4.4250488E-4,-1.6784668E-4,17.0,-0.56979173,-1.4257072,9.685716,0.004996538,0.008678436,0.013847351,-0.073994,-0.026283862,0.6584897,2016-12-01 19:22:48,71.54034076247302
-0.5708008,-1.4342804,9.731064,-9.1552734E-5,-1.0681152E-4,2.89917E-4,17.0,-0.564743,-1.4195075,9.686922,-0.010708809,-0.011818051,0.004603386,-0.073606014,-0.02617728,0.6582421,2016-12-01 19:22:49,71.9369970252533
-0.5577698,-1.4244232,9.735825,-9.1552734E-5,6.4086914E-4,-1.6784668E-4,17.0,-0.5677158,-1.4244545,9.686022,0.012493551,0.0052080154,0.011541367,-0.07387681,-0.026316497,0.65844876,2016-12-01 19:22:50,62.643384324286934
-0.57380676,-1.4265442,9.715103,-9.1552734E-5,-1.0681152E-4,1.6784668E-4,17.0,-0.57196206,-1.4230825,9.685973,0.0036115646,0.004313469,-3.0708313E-4,-0.07396996,-0.026100613,0.65838206,2016-12-01 19:22:51,67.44678842232295
-0.5742798,-1.4346619,9.734756,-9.1552734E-5,7.6293945E-5,-1.6784668E-4,17.0,-0.569214,-1.4245102,9.685926,0.01471293,-0.007135868,0.012554169,-0.07399608,-0.026293721,0.6584959,2016-12-01 19:22:52,69.61085371435021
-0.58610535,-1.4367981,9.727829,-9.1552734E-5,-4.272461E-4,-1.6784668E-4,17.0,-0.56685597,-1.4189333,9.686883,-0.00443393,0.006167412,0.008467674,-0.0736419,-0.026140532,0.6582406,2016-12-01 19:22:53,62.182497494527134
-0.5681915,-1.4368286,9.73645,-1.9836426E-4,-4.272461E-4,-5.187988E-4,17.0,-0.5735664,-1.4255327,9.685518,-0.009504378,0.008189678,0.009752274,-0.07407377,-0.026108831,0.65843767,2016-12-01 19:22:54,69.17554510316694
-0.58296204,-1.4230957,9.751083,3.3569336E-4,-2.593994E-4,2.746582E-4,17.0,-0.5738117,-1.4231972,9.685847,-0.010727167,0.01554656,0.01606369,-0.0740444,-0.02598619,0.658359,2016-12-01 19:22:55,64.00758957653085
-0.5718994,-1.4351044,9.727081,5.187988E-4,-5.645752E-4,-1.6784668E-4,17.0,-0.5665469,-1.4184153,9.686976,-0.0024906993,-0.011446834,-0.008353233,-0.07361211,-0.02613285,0.6582219,2016-12-01 19:22:56,68.94177296777231
-0.57429504,-1.4263,9.721146,-1.2207031E-4,1.9836426E-4,4.4250488E-4,17.0,-0.5700521,-1.4295254,9.685138,-0.009591222,0.016681552,-0.017108917,-0.07414504,-0.026418585,0.65863484,2016-12-01 19:22:57,68.04540813554989
-0.5829773,-1.4248505,9.748047,2.593994E-4,1.9836426E-4,4.4250488E-4,17.0,-0.5725126,-1.4266316,9.685419,-0.02089572,0.017427206,0.017855644,-0.07405994,-0.026192818,0.65847474,2016-12-01 19:22:59,68.82221848453418
-0.55996704,-1.4274445,9.727585,-1.6784668E-4,6.5612793E-4,-1.6784668E-4,17.0,-0.568721,-1.417997,9.68691,0.0046840906,0.0054045916,-0.004740715,-0.07367035,-0.026033074,0.6581985,2016-12-01 19:23:00,67.21014511082133
-0.5836792,-1.4360809,9.733566,-4.5776367E-4,-4.272461E-4,-1.6784668E-4,17.0,-0.5715462,-1.4258091,9.685596,8.8608265E-4,-0.0075029135,-0.004787445,-0.07399636,-0.026257632,0.6584772,2016-12-01 19:23:01,66.45614877103776
-0.57244873,-1.434555,9.742905,-3.5095215E-4,0.0,9.1552734E-5,17.0,-0.5703808,-1.428383,9.6852865,0.0038838387,-0.0012022257,-0.002087593,-0.07414099,-0.026423818,0.65863556,2016-12-01 19:23:02,63.522268509816726
-0.5671234,-1.4248047,9.721695,-9.1552734E-5,-3.0517578E-4,-1.6784668E-4,17.0,-0.56957585,-1.42428,9.685938,0.0055455565,0.006950736,-0.01577568,-0.07393351,-0.0262381,0.6584359,2016-12-01 19:23:03,66.00527886171764
-0.56604004,-1.4285583,9.734085,-9.1552734E-5,1.5258789E-5,4.4250488E-4,17.0,-0.5653353,-1.4216537,9.686572,0.003410697,-0.0011523962,0.0025186539,-0.07364106,-0.02618083,0.6582613,2016-12-01 19:23:04,69.71388466941674
-0.5803375,-1.4345398,9.725616,-4.5776367E-4,4.4250488E-4,9.1552734E-5,17.0,-0.57062733,-1.4216089,9.686269,-0.008706689,-0.0015420914,-3.2424927E-5,-0.073916845,-0.026198031,0.6584067,2016-12-01 19:23:05,59.75806391788926
-0.57484436,-1.4385529,9.771042,-1.6784668E-4,-3.6621094E-4,-1.6784668E-4,17.0,-0.5698307,-1.4249796,9.685821,-0.028130412,0.0016821623,0.013874054,-0.073968224,-0.026254775,0.65846175,2016-12-01 19:23:06,69.5276131575079
-0.571579,-1.435669,9.737808,-8.392334E-4,5.493164E-4,6.866455E-4,17.0,-0.57405484,-1.4201527,9.686279,-0.011067629,0.008600116,-0.0063438416,-0.07393185,-0.0259088,0.65826285,2016-12-01 19:23:07,71.44721555491083
-0.56892395,-1.4455414,9.738663,-2.89917E-4,5.950928E-4,3.0517578E-5,17.0,-0.5705255,-1.4212646,9.686325,-5.957484E-4,0.0076235533,-0.009159088,-0.07385342,-0.02608718,0.6583173,2016-12-01 19:23:08,65.30663497397457
-0.57580566,-1.4247589,9.722473,-9.1552734E-5,1.8310547E-4,-1.6784668E-4,17.0,-0.5708726,-1.4247292,9.685795,-0.0023268461,0.008284569,-0.012495995,-0.07399293,-0.02615129,0.6584199,2016-12-01 19:23:09,65.69204890559354
-0.5738983,-1.4286957,9.740295,7.6293945E-5,-2.593994E-4,-1.6784668E-4,17.0,-0.5700801,-1.4210463,9.686383,3.2663345E-4,0.0027394295,0.0045614243,-0.073941916,-0.026098974,0.6583673,2016-12-01 19:23:10,67.5859031707466
-0.56840515,-1.4182281,9.716873,-7.019043E-4,-3.0517578E-4,-1.6784668E-4,17.0,-0.57119095,-1.421915,9.686191,0.004259944,0.0056512356,-0.011832237,-0.073897086,-0.026115557,0.6583538,2016-12-01 19:23:11,66.9404862060395
-0.58099365,-1.4287109,9.721542,4.5776367E-4,-9.1552734E-4,-1.6784668E-4,17.0,-0.56892526,-1.4234041,9.686105,8.494854E-4,0.0055431128,-0.0012245178,-0.07397374,-0.026221564,0.65844715,2016-12-01 19:23:12,61.23941343207572
-0.5769348,-1.4137726,9.711899,-4.7302246E-4,-1.9836426E-4,4.4250488E-4,17.0,-0.5756991,-1.4250753,9.68546,-0.006013632,0.0148996115,-0.013204575,-0.07417116,-0.026031913,0.65844566,2016-12-01 19:23:13,68.44831004969213
-0.57566833,-1.4377136,9.716263,9.1552734E-5,-4.272461E-4,-1.6784668E-4,17.0,-0.57646215,-1.4249188,9.685437,0.0013906956,-0.012897015,0.0077400208,-0.0741938,-0.026013045,0.658447,2016-12-01 19:23:14,69.61362052924768
-0.5757141,-1.4298553,9.716568,-9.1552734E-5,1.9836426E-4,4.4250488E-4,17.0,-0.57612795,-1.4282091,9.684972,0.0011028051,0.0024825335,0.0026216507,-0.0743025,-0.026134215,0.65856415,2016-12-01 19:23:15,68.31926089696866
-0.56866455,-1.4251709,9.723358,1.8310547E-4,-4.272461E-4,-4.4250488E-4,17.0,-0.5746075,-1.4266324,9.685295,0.008354306,0.0039726496,0.008702278,-0.07414949,-0.026171073,0.6585077,2016-12-01 19:23:16,64.68571105901691
-0.56559753,-1.4259338,9.731262,-2.2888184E-4,-4.272461E-4,-3.0517578E-5,17.0,-0.5690558,-1.4266151,9.685624,-0.021487176,0.014052153,0.0172863,-0.074002825,-0.026346684,0.6585269,2016-12-01 19:23:17,57.284822109501825
-0.5940399,-1.4334564,9.732956,-6.5612793E-4,-4.272461E-4,-7.171631E-4,17.0,-0.5728906,-1.429571,9.684963,-0.01741612,0.01796782,0.013667107,-0.07424321,-0.026310798,0.6586271,2016-12-01 19:23:18,66.34978451338299
-0.57211304,-1.4311218,9.74411,-9.1552734E-5,1.9836426E-4,-1.6784668E-4,17.0,-0.5741569,-1.4305073,9.68475,-0.014566183,0.0010271072,-0.020685196,-0.07432112,-0.026297458,0.6586587,2016-12-01 19:23:19,68.24192162938212
-0.5516205,-1.4082336,9.759369,-1.8310547E-4,3.2043457E-4,-7.324219E-4,17.0,-0.5637884,-1.4123226,9.688028,0.041391253,0.0025407076,0.011815071,-0.07329134,-0.02600877,0.6579984,2016-12-01 19:23:20,64.11672100358203
-0.565155,-1.4168701,9.728455,-9.1552734E-5,-5.950928E-4,-7.6293945E-5,17.0,-0.559443,-1.4159651,9.687748,5.9723854E-4,0.011688113,-0.02296257,-0.073279575,-0.026314382,0.65815234,2016-12-01 19:23:21,67.08601719101948
-0.5680847,-1.436554,9.740494,0.0010375977,-7.7819824E-4,-5.950928E-4,17.0,-0.5677538,-1.4246131,9.685996,-0.014157534,-0.0065612793,-0.006829262,-0.07388402,-0.026321046,0.6584547,2016-12-01 19:23:22,68.79225518046205
-0.5877228,-1.4373932,9.751999,0.0011291504,-0.0013427734,1.5258789E-4,17.0,-0.5733733,-1.4280198,9.6851635,0.0017172098,-0.0047611,0.009005547,-0.074201845,-0.026233332,0.6585662,2016-12-01 19:23:23,73.78621733192817
-0.58058167,-1.4309387,9.724747,0.0011291504,-0.0010223389,-1.6784668E-4,17.0,-0.5736463,-1.4236463,9.685791,-0.0065760612,0.0055401325,-0.016562462,-0.0740143,-0.025946163,0.65832317,2016-12-01 19:23:24,65.4804371239494
-0.5532074,-1.4135742,9.741913,5.340576E-4,-3.6621094E-4,-3.0517578E-5,17.0,-0.56960773,-1.4255223,9.685754,-0.0065538883,-0.0089764595,0.006426811,-0.07402411,-0.0262515,0.6584877,2016-12-01 19:23:25,68.67658902801172
-0.5852051,-1.4294739,9.759735,5.340576E-4,4.272461E-4,-3.0517578E-5,17.0,-0.5755167,-1.425051,9.685473,0.0051106215,7.5256824E-4,-0.0073566437,-0.074133195,-0.025988525,0.6584042,2016-12-01 19:23:26,64.39756497565762
-0.57133484,-1.4335785,9.727982,5.950928E-4,-0.0010223389,-3.0517578E-5,17.0,-0.5719204,-1.426787,9.6854315,6.119609E-4,-0.0027891397,-0.0060596466,-0.07410655,-0.026242651,0.65852386,2016-12-01 19:23:27,65.74122822734587
-0.5712738,-1.4416656,9.743256,5.340576E-4,7.6293945E-5,-3.0517578E-5,17.0,-0.5698521,-1.4223858,9.6862,0.0028742552,-0.0025978088,0.006300926,-0.07387232,-0.026155654,0.6583625,2016-12-01 19:23:28,67.90028845096191
-0.5763397,-1.4328156,9.750565,-7.6293945E-5,3.6621094E-4,-3.2043457E-4,17.0,-0.5730048,-1.4257936,9.6855135,-0.004016638,-0.0010018349,0.0069589615,-0.074028805,-0.026187029,0.6584563,2016-12-01 19:23:29,66.3244233916956
-0.5607147,-1.4402924,9.732269,5.187988E-4,7.6293945E-5,5.79834E-4,17.0,-0.5663637,-1.4244885,9.686096,0.0123515725,0.0059502125,0.0015830994,-0.07383215,-0.026369972,0.6584546,2016-12-01 19:23:30,57.74606399741633
-0.5700531,-1.4429169,9.72493,-7.6293945E-5,-3.6621094E-4,-6.4086914E-4,17.0,-0.56990623,-1.4225562,9.686172,0.010562241,0.0025553703,0.016916275,-0.07388051,-0.02616002,0.6583688,2016-12-01 19:23:31,69.31693078646516
-0.5766449,-1.4276581,9.731186,-7.6293945E-5,-1.8310547E-4,-3.0517578E-5,17.0,-0.573653,-1.4243267,9.685691,0.0027562976,-0.0013401508,-0.011528969,-0.07407376,-0.026082505,0.6584239,2016-12-01 19:23:32,72.18683886638202
-0.5751343,-1.4444122,9.746506,5.950928E-4,-5.493164E-4,5.187988E-4,17.0,-0.57111716,-1.4296095,9.685061,-0.0016698837,-0.0055764914,0.007925034,-0.07414498,-0.026296351,0.65857095,2016-12-01 19:23:33,63.37342502747564
-0.58735657,-1.4374084,9.727951,5.340576E-4,-6.1035156E-5,-3.8146973E-4,17.0,-0.5700267,-1.4272287,9.685478,0.0114581585,0.010647535,-0.010602951,-0.07405865,-0.026332473,0.6585471,2016-12-01 19:23:34,60.7364674999102
-0.5793762,-1.4427185,9.734161,3.5095215E-4,7.6293945E-5,-6.4086914E-4,17.0,-0.57358104,-1.4270712,9.685291,0.014929056,2.8586388E-4,-0.0034284592,-0.07417356,-0.026189342,0.65852916,2016-12-01 19:23:35,67.78620971778747
-0.58148193,-1.4394379,9.733154,2.593994E-4,-4.119873E-4,-3.0517578E-5,17.0,-0.5719304,-1.4237454,9.685878,-0.003527224,-0.0044187307,0.0071725845,-0.07396531,-0.026187617,0.6584252,2016-12-01 19:23:36,67.96289642075786
-0.5710144,-1.4344177,9.72345,9.1552734E-5,-3.8146973E-4,-3.0517578E-5,17.0,-0.57220423,-1.4234356,9.685907,0.028813004,0.0062069893,0.014198303,-0.073991336,-0.026104646,0.6583947,2016-12-01 19:23:37,70.17345574285103
-0.57962036,-1.4372559,9.715744,-4.4250488E-4,3.2043457E-4,5.79834E-4,17.0,-0.5756238,-1.4261273,9.685309,0.005215049,0.0119223595,-0.0106163025,-0.07420781,-0.026074711,0.6584862,2016-12-01 19:23:38,57.85935780190793
-0.582901,-1.4404144,9.73941,4.5776367E-4,-4.8828125E-4,4.5776367E-5,17.0,-0.5747084,-1.4262177,9.685349,-0.0012513995,-0.010237336,0.006269455,-0.07418008,-0.026113471,0.65849274,2016-12-01 19:23:39,61.619060357980324
-0.57733154,-1.4477234,9.736969,-4.5776367E-4,7.6293945E-5,2.1362305E-4,17.0,-0.57251036,-1.4286385,9.685123,-4.683733E-4,-0.015055895,0.0018806458,-0.07414511,-0.026183052,0.6585118,2016-12-01 19:23:40,52.270232848973535
-0.57780457,-1.4267883,9.756271,1.9836426E-4,-5.187988E-4,5.79834E-4,17.0,-0.5701329,-1.4268543,9.685527,-0.01052928,0.019080639,0.010890007,-0.0739982,-0.026285917,0.65849286,2016-12-01 19:23:41,49.01602758527738
-0.576004,-1.4265289,9.733856,-2.2888184E-4,-5.493164E-4,-3.0517578E-5,17.0,-0.568492,-1.4268265,9.685627,-0.012026548,0.019721985,-0.015041351,-0.07398335,-0.026339084,0.6585133,2016-12-01 19:23:42,61.853726840001066
-0.56604004,-1.4297943,9.749359,3.5095215E-4,7.6293945E-5,-4.5776367E-4,17.0,-0.5741865,-1.4245142,9.685632,-0.006853223,0.0136243105,-0.005689621,-0.07409887,-0.02606902,0.6584293,2016-12-01 19:23:43,66.80012143009036
-0.5746155,-1.4421387,9.733627,-7.6293945E-5,-1.9836426E-4,-2.746582E-4,17.0,-0.5684183,-1.4289353,9.685321,0.0011115074,-0.0017393827,-0.0034732819,-0.07400246,-0.026447924,0.6585796,2016-12-01 19:23:44,66.2112592572885
-0.5778351,-1.4102631,9.719345,9.765625E-4,0.0011138916,5.79834E-4,17.0,-0.56097275,-1.4211689,9.686897,-0.024833858,0.0152801275,-0.025258064,-0.07352538,-0.0264523,0.6583459,2016-12-01 19:23:45,71.79973937627383
-0.5883789,-1.4311066,9.73558,2.89917E-4,-1.6784668E-4,-3.0517578E-5,17.0,-0.5747173,-1.4262086,9.68535,-0.010902524,0.003881812,-0.0017356873,-0.0742544,-0.026095273,0.65852,2016-12-01 19:23:46,54.74954735766184
-0.5896301,-1.4348145,9.747253,-7.6293945E-5,7.6293945E-5,-3.0517578E-5,17.0,-0.5764076,-1.4254186,9.685367,-0.0078023076,0.0012367964,-0.015575409,-0.074208036,-0.026017588,0.65845644,2016-12-01 19:23:47,56.07951597568893
-0.5764313,-1.4294128,9.72403,-5.493164E-4,6.713867E-4,-1.6784668E-4,17.0,-0.5701703,-1.4268453,9.685526,0.008444011,-0.0050559044,-0.003944397,-0.074165195,-0.026287261,0.6585762,2016-12-01 19:23:48,58.61683530239137
-0.5763092,-1.4386597,9.736618,-7.6293945E-5,-1.0681152E-4,4.272461E-4,17.0,-0.568428,-1.4282166,9.685427,-0.0022236705,0.00272429,0.0111608505,-0.07404111,-0.02643162,0.6585902,2016-12-01 19:23:49,67.28316816203827
-0.5803375,-1.435791,9.738846,-7.6293945E-5,4.119873E-4,-3.6621094E-4,17.0,-0.5731765,-1.4264213,9.6854105,0.0021843314,-0.01644218,0.0054159164,-0.07413561,-0.02618031,0.6585057,2016-12-01 19:23:50,70.94346501513951
-0.5658722,-1.4220276,9.739487,5.340576E-4,5.79834E-4,6.1035156E-5,17.0,-0.57017726,-1.4254287,9.685734,0.012590885,0.018199563,-0.01131916,-0.07393474,-0.026282018,0.6584594,2016-12-01 19:23:51,55.771749016805856
-0.57429504,-1.4414825,9.744537,2.89917E-4,-1.6784668E-4,-3.9672852E-4,17.0,-0.5730533,-1.427429,9.685269,0.00172019,-0.0036320686,-0.0015764236,-0.07421368,-0.026315212,0.6586148,2016-12-01 19:23:52,61.584537757628894
-0.5784607,-1.4345093,9.740158,2.4414063E-4,3.3569336E-4,-6.4086914E-4,17.0,-0.57566375,-1.4267575,9.685214,0.00733912,-0.0038051605,0.0013465881,-0.07420585,-0.026166722,0.65853333,2016-12-01 19:23:53,70.71845084149805
-0.5856323,-1.4291992,9.726028,0.0011138916,-5.493164E-4,-3.0517578E-5,17.0,-0.5726101,-1.4271291,9.68534,0.0027997494,0.0050315857,-0.018005371,-0.07413969,-0.026333343,0.65858763,2016-12-01 19:23:54,67.96666569041709
-0.5799713,-1.4361572,9.753159,-7.6293945E-5,-2.4414063E-4,-1.8310547E-4,17.0,-0.5693097,-1.4153773,9.687259,-0.025808811,0.0051976442,0.009037018,-0.073592685,-0.025911149,0.6580963,2016-12-01 19:23:55,67.38890846015585
-0.57806396,-1.442337,9.733627,5.340576E-4,7.6293945E-5,3.2043457E-4,17.0,-0.57230484,-1.4268017,9.685406,-0.012968898,-0.0046668053,-0.009316444,-0.07411082,-0.026162906,0.6584843,2016-12-01 19:23:56,65.90873991701974
-0.57977295,-1.4381256,9.732895,-4.5776367E-5,-5.187988E-4,-3.0517578E-5,17.0,-0.57183516,-1.4247077,9.685741,-0.0020338893,-0.010080576,0.001206398,-0.074026205,-0.026167111,0.65844464,2016-12-01 19:23:57,72.25501449088091
-0.5860901,-1.4395142,9.718613,1.373291E-4,2.89917E-4,1.9836426E-4,17.0,-0.5765664,-1.422296,9.685817,-0.006541133,-0.010225654,-0.015942574,-0.07410069,-0.025875898,0.6583291,2016-12-01 19:23:58,72.15153041196587
-0.5727234,-1.437851,9.7291565,-2.89917E-4,2.746582E-4,-3.0517578E-5,17.0,-0.5742759,-1.4241627,9.685678,6.850958E-4,-0.010611296,0.0022392273,-0.074140236,-0.02606098,0.65844554,2016-12-01 19:23:59,67.12790692016318
-0.5814667,-1.4250641,9.728165,4.7302246E-4,-5.340576E-4,-3.0517578E-5,17.0,-0.5751546,-1.4240363,9.685644,-0.0021845102,0.0055058002,0.0011587143,-0.074208,-0.025975427,0.65843433,2016-12-01 19:24:00,67.79562666191813
-0.5643921,-1.4394226,9.720383,7.6293945E-5,3.5095215E-4,-3.0517578E-5,17.0,-0.56329596,-1.4210211,9.686784,0.0029215813,-0.0134625435,-6.866455E-5,-0.07359879,-0.026357027,0.65833247,2016-12-01 19:24:01,70.1325487111386
-0.56578064,-1.4295654,9.730103,5.340576E-4,-2.1362305E-4,-3.0517578E-5,17.0,-0.557264,-1.4151405,9.687994,-0.0074517727,-0.010996342,0.009666443,-0.07321902,-0.026381634,0.6581575,2016-12-01 19:24:02,68.67760624048238
-0.57429504,-1.437027,9.75116,-7.6293945E-5,6.2561035E-4,-3.0517578E-5,17.0,-0.55423385,-1.4129952,9.688481,-0.017110527,-0.016509056,0.016209602,-0.07299206,-0.026403185,0.6580566,2016-12-01 19:24:03,67.76569436335647
-0.56640625,-1.4318542,9.727554,3.0517578E-4,-9.460449E-4,-8.087158E-4,17.0,-0.55551976,-1.4145937,9.688173,-0.008602917,-0.0100159645,-0.012951851,-0.07312241,-0.026446996,0.65814394,2016-12-01 19:24:04,69.8181672609182
-0.55747986,-1.431488,9.73558,-7.6293945E-5,4.119873E-4,-3.0517578E-5,17.0,-0.5575918,-1.4194032,9.687352,0.0058767796,-0.0028723478,-8.4400177E-4,-0.07345415,-0.026591184,0.6583832,2016-12-01 19:24:05,71.52743736079077
-0.5507965,-1.4168396,9.73439,-4.5776367E-5,-5.493164E-4,1.5258789E-5,17.0,-0.5535608,-1.4139769,9.688375,0.020470917,0.017903805,0.040700912,-0.07317888,-0.026438363,0.6581673,2016-12-01 19:24:06,68.98615664191433
-0.56170654,-1.4236298,9.729294,5.340576E-4,5.187988E-4,4.4250488E-4,17.0,-0.5553744,-1.4151173,9.688107,0.0012142062,-0.0061240196,0.009191513,-0.073109835,-0.026439397,0.65813375,2016-12-01 19:24:07,67.35256858926994
-0.55885315,-1.4208832,9.723373,-7.6293945E-5,-5.493164E-4,-5.950928E-4,17.0,-0.5558202,-1.4115278,9.688603,-0.006886363,0.00898242,-0.005432129,-0.073034786,-0.026369693,0.65806025,2016-12-01 19:24:08,70.91288772162383
-0.55023193,-1.4125671,9.750046,-6.5612793E-4,3.0517578E-5,5.493164E-4,17.0,-0.5548129,-1.41388,9.688319,0.012067854,0.015169978,0.020877838,-0.07304468,-0.026414283,0.65808845,2016-12-01 19:24:09,71.87997250224615
-0.5599823,-1.4226685,9.737427,0.0,-4.7302246E-4,-5.493164E-4,17.0,-0.5540302,-1.4150126,9.688197,-0.0027463436,-6.572008E-4,-0.008921623,-0.073003195,-0.026439222,0.65808094,2016-12-01 19:24:10,68.08634593743277
-0.5641327,-1.4114685,9.732956,-7.6293945E-5,7.6293945E-5,-3.0517578E-5,17.0,-0.5547801,-1.4156215,9.688066,-0.0017795563,0.00936079,-0.009191513,-0.07310846,-0.02648142,0.658155,2016-12-01 19:24:11,70.85489604013702
-0.532547,-1.4153137,9.714951,5.340576E-4,-9.918213E-4,-3.0517578E-5,17.0,-0.5429769,-1.4142703,9.688932,0.0399251,-0.00897789,-0.036942482,-0.072674185,-0.026930926,0.6581749,2016-12-01 19:24:12,69.17990147360273
-0.5647278,-1.4267731,9.716522,5.340576E-4,-4.119873E-4,-0.0010986328,17.0,-0.550684,-1.41534,9.688341,-0.013478279,-2.4700165E-4,0.006498337,-0.07292998,-0.026683813,0.6581724,2016-12-01 19:24:13,65.03842127611671
-0.5260315,-1.3910217,9.754272,-0.0019073486,7.6293945E-5,-3.0517578E-5,17.0,-0.53164995,-1.3966608,9.692114,0.0024939775,0.012635112,0.011003494,-0.07157245,-0.026636105,0.65747744,2016-12-01 19:24:14,60.346456978592286
-0.55656433,-1.4131012,9.741669,-7.6293945E-5,7.6293945E-5,-3.0517578E-5,17.0,-0.55391204,-1.4138097,9.688381,0.009679735,0.0061963797,-0.004529953,-0.07301147,-0.026446408,0.6580888,2016-12-01 19:24:15,68.22838479602407
-0.56666565,-1.4365692,9.720627,3.5095215E-4,7.6293945E-5,-3.0517578E-5,17.0,-0.5569767,-1.418718,9.687488,-0.007466078,-0.0114809275,-0.013729095,-0.07329837,-0.02651377,0.65826577,2016-12-01 19:24:16,71.52330489690421
-0.64042664,-1.4157715,9.731537,-2.593994E-4,-0.0015106201,-4.119873E-4,17.0,-0.5489217,-1.421013,9.68761,-0.18165642,0.035101652,-0.023961067,-0.07322484,-0.026785787,0.6583713,2016-12-01 19:24:17,66.73397500604611
-0.5632477,-1.4266815,9.726273,-1.0681152E-4,-3.3569336E-4,-4.5776367E-5,17.0,-0.55367416,-1.4192976,9.687592,-0.010638356,-0.010523915,-0.00921917,-0.07319027,-0.02667997,0.658299,2016-12-01 19:24:18,62.129312366426134
-0.55581665,-1.4317322,9.739655,5.0354004E-4,-4.119873E-4,-1.373291E-4,17.0,-0.5578299,-1.4160076,9.687835,-0.0063839555,7.247925E-4,0.0035486221,-0.073226385,-0.026378272,0.65815943,2016-12-01 19:24:19,68.22666084101954
-0.54345703,-1.4171906,9.737717,1.6784668E-4,2.1362305E-4,-4.5776367E-5,17.0,-0.5569043,-1.4150053,9.688034,0.009796143,0.0035281181,-0.010822296,-0.07328508,-0.026315974,0.6581559,2016-12-01 19:24:20,55.13127022405491
-0.5727539,-1.4277191,9.731201,-5.79834E-4,5.0354004E-4,-4.5776367E-5,17.0,-0.5568283,-1.414458,9.688118,-0.012445748,-0.015900135,0.003326416,-0.07316088,-0.026241802,0.6580557,2016-12-01 19:24:21,66.12527888505507
-0.5585327,-1.4197388,9.712357,1.6784668E-4,-2.4414063E-4,-4.8828125E-4,17.0,-0.5627799,-1.4173747,9.687348,0.007169485,0.001948595,-0.007382393,-0.07344541,-0.026238892,0.6581949,2016-12-01 19:24:22,66.63906643394773
-0.54867554,-1.4173279,9.734863,5.0354004E-4,-1.5258789E-5,-4.5776367E-5,17.0,-0.5532432,-1.4175975,9.687865,0.0060952306,0.0077147484,0.012061119,-0.073259056,-0.026668651,0.65832716,2016-12-01 19:24:23,70.09349572349092
-0.5683899,-1.4221649,9.728165,-1.0681152E-4,1.2207031E-4,-6.5612793E-4,17.0,-0.5578812,-1.4133997,9.688211,-0.0057165623,0.009521961,-0.0125103,-0.07319113,-0.026260007,0.6580802,2016-12-01 19:24:24,63.35759324189436
-0.56166077,-1.4429779,9.751144,-1.0681152E-4,2.1362305E-4,6.1035156E-5,17.0,-0.55607176,-1.4124064,9.688461,0.010936379,0.0017229319,0.0063972473,-0.07303251,-0.02630995,0.65802795,2016-12-01 19:24:25,72.3628319182758
-0.54763794,-1.396347,9.732697,1.6784668E-4,-1.373291E-4,-4.5776367E-5,17.0,-0.55681586,-1.4123014,9.688434,0.004236698,0.012019873,0.00845623,-0.07305387,-0.026277244,0.6580214,2016-12-01 19:24:26,70.2153735019015
-0.5802307,-1.3964996,9.75798,-0.001159668,-7.019043E-4,-0.0011138916,17.0,-0.55205876,-1.4152788,9.6882715,0.037752867,0.01354301,0.0994606,-0.073003285,-0.026573528,0.6581511,2016-12-01 19:24:28,69.16237810486695
-0.53352356,-1.4096222,9.767303,-7.9345703E-4,-3.0517578E-5,-5.340576E-4,17.0,-0.53742313,-1.4010195,9.691167,0.022301137,-0.0033717155,0.021609306,-0.07197537,-0.026600244,0.6576575,2016-12-01 19:24:29,72.36293517118334
-0.5485687,-1.4117584,9.733383,-2.89917E-4,-5.950928E-4,2.1362305E-4,17.0,-0.5393731,-1.4044383,9.690563,-0.010311663,-0.03042984,0.0032997131,-0.072051324,-0.026707081,0.6577507,2016-12-01 19:24:30,71.39119532263695
-0.5570221,-1.4294281,9.732941,-1.0681152E-4,-4.5776367E-5,-4.5776367E-5,17.0,-0.55280006,-1.4139142,9.688428,-0.004410982,-0.016141772,-0.0038490295,-0.07302616,-0.026503136,0.65812564,2016-12-01 19:24:31,68.18652782538581
-0.5586548,-1.4250641,9.731766,-4.5776367E-5,7.324219E-4,-6.5612793E-4,17.0,-0.5580179,-1.4141026,9.688102,0.021735787,-0.0059849024,-0.0029001236,-0.07316179,-0.026298946,0.65808606,2016-12-01 19:24:32,63.59551862956364
-0.56674194,-1.4186707,9.734619,2.4414063E-4,-7.7819824E-4,-4.5776367E-5,17.0,-0.55437076,-1.4171379,9.687868,-0.002873242,-0.00823009,-0.0025758743,-0.07315103,-0.026554583,0.6582142,2016-12-01 19:24:33,67.19676089655272
-0.5547943,-1.414444,9.752213,-1.2207031E-4,-1.9836426E-4,-1.5258789E-5,17.0,-0.56080097,-1.4129075,9.688115,-0.00559783,0.017692924,0.00549984,-0.073296346,-0.026066462,0.65803105,2016-12-01 19:24:34,67.35799847123117
-0.557251,-1.4128113,9.734741,4.7302246E-4,2.2888184E-4,-1.5258789E-5,17.0,-0.5605881,-1.4147063,9.687866,0.005667329,0.011750698,-0.0054397583,-0.07324484,-0.026234746,0.6580936,2016-12-01 19:24:35,73.74532953636948
-0.5449219,-1.4055634,9.742355,-4.272461E-4,2.1362305E-4,-1.5258789E-5,17.0,-0.55281174,-1.4104666,9.6889305,0.010214329,0.011799216,0.0024576187,-0.072683245,-0.02635882,0.6578809,2016-12-01 19:24:36,69.60583828331076
-0.5650177,-1.4246521,9.753616,4.8828125E-4,5.79834E-4,3.5095215E-4,17.0,-0.5531325,-1.4137412,9.688436,-0.014254272,-0.00647974,0.012659073,-0.07290163,-0.026475908,0.65804994,2016-12-01 19:24:37,63.34776905706298
-0.5527649,-1.4217072,9.738251,-1.2207031E-4,-3.3569336E-4,5.493164E-4,17.0,-0.55662346,-1.4135108,9.688268,0.0077533126,0.006665468,-0.0078315735,-0.073196426,-0.026401235,0.65815663,2016-12-01 19:24:38,72.19157869541591
-0.5917969,-1.4123535,9.74942,8.544922E-4,5.950928E-4,2.2888184E-4,17.0,-0.5354206,-1.415452,9.68918,0.031346858,-0.022645116,0.008821487,-0.072444834,-0.027222412,0.65821344,2016-12-01 19:24:39,72.56310037841298
-0.56463623,-1.418808,9.746796,4.8828125E-4,4.5776367E-5,-1.9836426E-4,17.0,-0.5545158,-1.4165839,9.68794,-0.010520577,0.010008216,9.069443E-4,-0.07313533,-0.026528032,0.65819263,2016-12-01 19:24:40,69.93483114134614
-0.558197,-1.4237823,9.746689,-1.2207031E-4,2.4414063E-4,0.0012054443,17.0,-0.5580354,-1.4169208,9.68769,0.0020866394,0.0040466785,0.013370514,-0.07327051,-0.026349172,0.65816605,2016-12-01 19:24:41,69.73391466344744
-0.5392151,-1.398819,9.741974,4.5776367E-5,-3.8146973E-4,4.272461E-4,17.0,-0.54828984,-1.4090207,9.689398,0.005658269,-0.0016684532,0.0017948151,-0.07270777,-0.026554381,0.6579951,2016-12-01 19:24:42,69.41107813390117
-0.5397339,-1.41922,9.73497,4.8828125E-4,-3.0517578E-5,5.950928E-4,17.0,-0.5492742,-1.4134352,9.688699,0.009585261,-1.8286705E-4,0.0020666122,-0.072786175,-0.026666394,0.6580923,2016-12-01 19:24:43,65.13066854531638
-0.5634918,-1.4298553,9.727661,-7.6293945E-5,1.8310547E-4,5.493164E-4,17.0,-0.55811393,-1.4176234,9.687581,-0.0047107935,-0.0070137978,-0.00111866,-0.0732693,-0.026424509,0.6582048,2016-12-01 19:24:44,66.55556191367693
-0.56581116,-1.4291687,9.713837,1.0681152E-4,6.1035156E-4,-3.8146973E-4,17.0,-0.55574244,-1.4163818,9.6879,-0.010523975,-0.012126088,0.0030870438,-0.07316945,-0.026473027,0.6581808,2016-12-01 19:24:45,68.09473148740531
-0.54400635,-1.402771,9.727585,2.89917E-4,2.4414063E-4,1.8310547E-4,17.0,-0.55273914,-1.4099381,9.689011,0.014972627,0.019858241,3.9672852E-4,-0.07291628,-0.026354121,0.65799356,2016-12-01 19:24:46,64.21607185608458
-0.5638428,-1.4113159,9.716492,5.0354004E-4,2.4414063E-4,-1.5258789E-5,17.0,-0.5586438,-1.4112139,9.688487,-0.004264593,0.0033705235,-0.0030298233,-0.07310947,-0.026194694,0.6580057,2016-12-01 19:24:47,58.954542441321436
-0.5421295,-1.4237518,9.728699,1.6784668E-4,-6.1035156E-5,5.950928E-4,17.0,-0.5569156,-1.4154055,9.687976,0.018716216,-0.0016857386,-0.0024232864,-0.07324538,-0.026451841,0.65820724,2016-12-01 19:24:48,64.66671174172406
-0.55911255,-1.4250641,9.73526,4.8828125E-4,2.4414063E-4,-7.4768066E-4,17.0,-0.556739,-1.415842,9.687922,0.0017726421,-9.4234943E-4,-0.0028820038,-0.073210366,-0.026462765,0.6581956,2016-12-01 19:24:49,67.0519867067778
-0.56596375,-1.4284668,9.730347,0.0010375977,2.4414063E-4,-1.5258789E-5,17.0,-0.5590203,-1.4198258,9.687207,0.001637578,0.0014971495,0.015507698,-0.073409036,-0.026476815,0.6583012,2016-12-01 19:24:50,71.2845741719727
-0.571579,-1.4273987,9.732483,2.593994E-4,0.0,-1.5258789E-5,17.0,-0.5548383,-1.4174253,9.687799,-0.0020143986,2.3937225E-4,-0.0045232773,-0.073177606,-0.026547408,0.6582236,2016-12-01 19:24:51,62.56311991410107
-0.5633545,-1.417984,9.745239,-1.2207031E-4,-3.8146973E-4,-1.5258789E-5,17.0,-0.55747604,-1.4137868,9.688179,0.009464681,0.009170413,-0.007549286,-0.07311054,-0.026351314,0.6580881,2016-12-01 19:24:52,63.96118913138849
-0.5619812,-1.4297028,9.723694,-1.2207031E-4,8.087158E-4,5.79834E-4,17.0,-0.55956566,-1.4162601,9.687698,-0.001737833,-0.013121128,-0.0126981735,-0.073340826,-0.026319776,0.6581854,2016-12-01 19:24:53,69.23779960674344
-0.5509949,-1.4311218,9.735367,1.8310547E-4,2.4414063E-4,5.950928E-4,17.0,-0.55290294,-1.4157852,9.688149,0.0048878193,-0.009611964,-1.8882751E-4,-0.072954595,-0.026483888,0.6580803,2016-12-01 19:24:54,70.92670280003995
-0.5626526,-1.4267883,9.739609,-2.746582E-4,7.019043E-4,4.5776367E-4,17.0,-0.5592453,-1.4161685,9.687729,-0.0045187473,-0.009710789,-0.0044965744,-0.073234506,-0.026264163,0.6581038,2016-12-01 19:24:55,71.33382982684162
-0.55996704,-1.4095001,9.744385,0.0010070801,1.9836426E-4,-1.5258789E-5,17.0,-0.55422515,-1.4155512,9.688108,7.31349E-4,0.008294225,-0.008277893,-0.07297601,-0.026484452,0.6580911,2016-12-01 19:24:56,53.98959944979323
-0.557724,-1.4320374,9.750977,9.1552734E-5,-1.6784668E-4,5.950928E-4,17.0,-0.560866,-1.4172314,9.68748,-0.0038499832,0.0030266047,-0.0062999725,-0.073375076,-0.026307363,0.6581959,2016-12-01 19:24:57,63.42084513558636
-0.5644226,-1.4301605,9.725769,4.8828125E-4,2.4414063E-4,-1.5258789E-5,17.0,-0.5596373,-1.4172132,9.687553,0.013116181,0.001811862,5.016327E-4,-0.07323836,-0.026337586,0.6581441,2016-12-01 19:24:58,69.97488341858985
-0.56088257,-1.4326782,9.752426,-1.2207031E-4,2.4414063E-4,-2.1362305E-4,17.0,-0.55700123,-1.4195049,9.68737,1.6796589E-4,-0.002441883,0.010138512,-0.07332852,-0.026542608,0.6582957,2016-12-01 19:24:59,62.10318213354837
-0.5534668,-1.42099,9.726776,-1.2207031E-4,-9.1552734E-5,-3.3569336E-4,17.0,-0.5600348,-1.4173238,9.687514,0.002227068,-0.0031558275,0.008690834,-0.073350295,-0.02634295,0.65820223,2016-12-01 19:25:00,62.04832027517999
-0.55851746,-1.4159393,9.72467,-4.5776367E-4,9.1552734E-5,-1.5258789E-5,17.0,-0.554533,-1.4161938,9.687997,-0.0025603771,0.015129566,-0.014904976,-0.073079765,-0.026452282,0.65812564,2016-12-01 19:25:01,71.8574973051067
-0.56596375,-1.4167175,9.737076,-1.2207031E-4,2.4414063E-4,5.645752E-4,17.0,-0.5629298,-1.4192152,9.68707,-0.00483346,0.007268429,-0.0051822662,-0.073427215,-0.026294965,0.65821517,2016-12-01 19:25:02,71.58189204377662
-0.5527649,-1.4203491,9.730148,9.1552734E-5,-3.8146973E-4,-2.2888184E-4,17.0,-0.5566076,-1.4138169,9.688225,0.0068157315,-0.006091118,0.013902664,-0.073103264,-0.026342599,0.6580799,2016-12-01 19:25:03,69.95652315853908
-0.55796814,-1.4188385,9.730682,2.746582E-4,-3.8146973E-4,-1.5258789E-5,17.0,-0.5559697,-1.4154112,9.688028,0.010905981,0.00732255,-0.0063886642,-0.0731474,-0.026413225,0.65813863,2016-12-01 19:25:04,65.20188187829719
-0.5565796,-1.4351349,9.748123,-1.2207031E-4,2.4414063E-4,-1.5258789E-5,17.0,-0.55637896,-1.4193159,9.687433,-0.0016867518,-0.0026175976,0.011616707,-0.07324743,-0.02642323,0.6581933,2016-12-01 19:25:05,66.4877777420231
-0.56674194,-1.4195404,9.725159,-4.5776367E-4,5.0354004E-4,-1.5258789E-5,17.0,-0.55549,-1.4205861,9.687299,0.014209509,0.015051365,-0.021954536,-0.07331745,-0.026641864,0.658342,2016-12-01 19:25:06,66.46358533165804
-0.64367676,-1.4384003,9.767151,-1.2207031E-4,0.0010070801,5.950928E-4,17.0,-0.55901176,-1.4089178,9.688801,-0.12814796,-0.020335555,0.0020885468,-0.073039964,-0.025884243,0.65780896,2016-12-01 19:25:07,68.44493393142045
-0.5357666,-1.396225,9.724167,-0.001083374,0.0014953613,-4.4250488E-4,17.0,-0.5551737,-1.4029384,9.689888,0.024341404,0.015246272,-0.02430439,-0.072660215,-0.026085472,0.65772665,2016-12-01 19:25:08,64.93349659038044
-0.5833893,-1.4160614,9.78064,-2.89917E-4,0.001083374,-5.493164E-4,17.0,-0.5478204,-1.3844495,9.6929655,0.16361374,0.060130715,-0.030205727,-0.071709745,-0.025573773,0.65698963,2016-12-01 19:25:09,68.4462530056601
-0.5406647,-1.3882904,9.71669,-0.0010528564,0.0015258789,-1.0681152E-4,17.0,-0.54446465,-1.3967115,9.691396,-0.0015298128,0.0046328306,-0.009429932,-0.0720536,-0.026165662,0.65746915,2016-12-01 19:25:10,64.16603955541203
-0.5609894,-1.4146271,9.723648,-7.019043E-4,2.4414063E-4,5.950928E-4,17.0,-0.5588984,-1.4142101,9.688036,-0.0015172362,-0.0024939775,-0.004808426,-0.07324208,-0.026313275,0.6581332,2016-12-01 19:25:11,59.97997369854994
-0.56985474,-1.4328918,9.740356,-0.001739502,0.0010681152,9.918213E-4,17.0,-0.56515497,-1.4280956,9.685636,-0.0056379437,0.0017205477,0.015527725,-0.07392342,-0.026489468,0.6585622,2016-12-01 19:25:12,70.09318305789229
-0.5597992,-1.416153,9.723282,-0.0016937256,0.0014648438,5.950928E-4,17.0,-0.5599308,-1.4206359,9.687036,-0.0099410415,0.010889292,0.017163277,-0.07347014,-0.02647234,0.65832907,2016-12-01 19:25:13,70.41981897535612
-0.5673065,-1.4329681,9.733185,-0.0013427734,8.087158E-4,5.950928E-4,17.0,-0.56318814,-1.4232605,9.686461,0.0029614568,0.016873121,-0.014300346,-0.07367853,-0.026446005,0.65841836,2016-12-01 19:25:14,62.595023684984035
-0.57463074,-1.4231873,9.707596,-3.0517578E-5,4.8828125E-4,4.272461E-4,17.0,-0.5646715,-1.4177645,9.687181,-0.014157057,0.014113069,-0.0026216507,-0.073459774,-0.026237844,0.65820146,2016-12-01 19:25:15,63.54167091964959
-0.57073975,-1.4197693,9.709274,1.5258789E-4,-8.8500977E-4,5.340576E-4,17.0,-0.55829895,-1.4163303,9.68776,0.012242079,0.02005446,0.008930206,-0.07325434,-0.026372373,0.65817016,2016-12-01 19:25:16,68.91131696054865
-0.5637207,-1.4213104,9.711685,-7.019043E-4,-2.89917E-4,9.765625E-4,17.0,-0.5621609,-1.4187254,9.687187,0.0057840347,0.025821447,-5.617142E-4,-0.073474705,-0.026313916,0.65824854,2016-12-01 19:25:17,70.01178058174266
-0.5536499,-1.4150543,9.715149,-4.119873E-4,-2.89917E-4,0.0010986328,17.0,-0.55714124,-1.4142499,9.688131,0.0076889396,-6.2310696E-4,0.007686615,-0.07318698,-0.02642571,0.65816474,2016-12-01 19:25:18,72.04796128959347
-0.5625,-1.3995972,9.708847,-4.5776367E-4,6.1035156E-5,0.0012207031,17.0,-0.56115246,-1.4144422,9.687871,-4.7194958E-4,0.022190094,-0.011041641,-0.07331114,-0.026304105,0.6581626,2016-12-01 19:25:19,72.57141563739096
-0.55522156,-1.4201813,9.720978,-7.9345703E-4,-8.69751E-4,2.89917E-4,17.0,-0.5640013,-1.416561,9.687397,0.022867203,0.005578637,0.011619568,-0.07345407,-0.026324656,0.65824395,2016-12-01 19:25:20,70.52597372552542
-0.56126404,-1.4109497,9.716675,-6.5612793E-4,-7.4768066E-4,8.69751E-4,17.0,-0.5565197,-1.4109185,9.688652,-0.008327961,-0.0044403076,-0.014102936,-0.073072,-0.02630446,0.6580446,2016-12-01 19:25:21,63.8463761272967
-0.5192871,-1.4432373,9.778671,-4.7302246E-4,-2.2888184E-4,8.69751E-4,17.0,-0.57042664,-1.4232833,9.686034,-0.09378308,0.0055212975,0.06500816,-0.07392528,-0.02616749,0.6583949,2016-12-01 19:25:22,65.66007592758467
-0.5626221,-1.4083252,9.71698,-7.9345703E-4,-2.89917E-4,8.392334E-4,17.0,-0.5625717,-1.4193748,9.687068,-0.005281687,0.015213609,1.04904175E-4,-0.07351285,-0.026322646,0.65827197,2016-12-01 19:25:23,69.08804014311778
-0.5520935,-1.4202881,9.721725,-0.0014038086,-2.89917E-4,0.0014801025,17.0,-0.5609886,-1.4176601,9.68741,0.011440933,0.0013993979,0.0060424805,-0.07345378,-0.026257943,0.65820897,2016-12-01 19:25:24,67.23334327655478
-0.57662964,-1.405838,9.7035675,-3.9672852E-4,-2.89917E-4,8.69751E-4,17.0,-0.56638587,-1.4139504,9.687638,-0.008310974,0.010374665,-0.0025434494,-0.07345797,-0.025921691,0.6580352,2016-12-01 19:25:25,68.26323388023992
-0.5660553,-1.4285431,9.703629,-0.001373291,2.89917E-4,9.1552734E-4,17.0,-0.57111734,-1.4183751,9.686713,0.008684874,-0.011473775,-7.953644E-4,-0.07372061,-0.02599206,0.6582019,2016-12-01 19:25:26,70.04154292532122
-0.5695038,-1.4212341,9.705444,-4.8828125E-4,3.3569336E-4,4.119873E-4,17.0,-0.56397736,-1.4198154,9.686921,-0.0027247071,0.0010589361,-6.484985E-5,-0.073603936,-0.026230235,0.65826875,2016-12-01 19:25:27,64.54708996254746
-0.57855225,-1.4236145,9.738068,-7.9345703E-4,-6.1035156E-4,5.950928E-4,17.0,-0.56576705,-1.417,9.687229,0.010076404,0.008532882,0.008644104,-0.07353288,-0.026109377,0.6581704,2016-12-01 19:25:28,72.56869531643011
-0.5750122,-1.4280701,9.720383,-8.392334E-4,-3.6621094E-4,2.593994E-4,17.0,-0.5639984,-1.418668,9.687088,0.04627943,-0.009715319,0.0068855286,-0.07353497,-0.026240809,0.65824014,2016-12-01 19:25:29,72.42150256559444
-0.5702057,-1.4288177,9.702606,-5.950928E-4,3.3569336E-4,8.69751E-4,17.0,-0.57271576,-1.4187849,9.68656,0.011030674,-0.013962984,-0.0017786026,-0.073777035,-0.026068576,0.6582698,2016-12-01 19:25:30,67.68756242338681
-0.5624542,-1.437027,9.687027,-4.119873E-4,-6.866455E-4,4.8828125E-4,17.0,-0.570166,-1.4264172,9.685589,0.009474218,-0.009949088,-0.01331234,-0.07400554,-0.026210431,0.65845704,2016-12-01 19:25:31,67.3897049787056
-0.55589294,-1.4215546,9.702576,-0.001373291,-3.3569336E-4,8.69751E-4,17.0,-0.5709465,-1.4262621,9.685565,0.01634723,0.009733558,0.01359272,-0.07403767,-0.026336893,0.658539,2016-12-01 19:25:32,72.59354874126676
-0.55033875,-1.4216614,9.716629,-0.0014038086,3.3569336E-4,-1.9836426E-4,17.0,-0.5552229,-1.4209706,9.687258,-0.00760597,-0.016481638,-0.012866974,-0.07338468,-0.026684301,0.6583974,2016-12-01 19:25:33,71.74846164821805
-0.5458679,-1.4211426,9.724747,-0.001083374,3.3569336E-4,2.593994E-4,17.0,-0.5538306,-1.4252362,9.68671,0.008270085,0.0039863586,0.010601044,-0.07343419,-0.026881957,0.65852493,2016-12-01 19:25:34,66.3215818878524
-0.557312,-1.4202118,9.740768,-0.0014038086,-8.8500977E-4,2.593994E-4,17.0,-0.5535836,-1.4176519,9.687838,-0.010903418,-0.012623787,-0.0016288757,-0.073143445,-0.02660442,0.6582365,2016-12-01 19:25:35,69.22240633754184
-0.55145264,-1.4138031,9.728256,-0.0012054443,-7.6293945E-5,2.593994E-4,17.0,-0.5462803,-1.4186008,9.688113,-0.010757744,0.0070061684,0.011310577,-0.07293077,-0.026922237,0.6582971,2016-12-01 19:25:36,67.07019251841521
-0.53041077,-1.395752,9.747147,-8.087158E-4,3.0517578E-4,-1.0681152E-4,17.0,-0.5360418,-1.3993292,9.691487,0.0019615293,0.0021122694,0.0062799454,-0.071950816,-0.026575558,0.6576325,2016-12-01 19:25:37,59.01156330333227
-0.5681915,-1.4398041,9.744553,4.272461E-4,-8.239746E-4,1.8310547E-4,17.0,-0.55067086,-1.4168503,9.688121,-0.022132814,-0.021524549,0.0053596497,-0.073042616,-0.02666234,0.6582169,2016-12-01 19:25:38,62.20805761197206
-0.5605774,-1.4249115,9.734741,4.272461E-4,-1.9836426E-4,-3.5095215E-4,17.0,-0.55116343,-1.4175961,9.6879835,0.004849136,-0.0021440983,-0.0014820099,-0.073126726,-0.026669718,0.6582623,2016-12-01 19:25:39,67.96523079556584
-0.5591278,-1.432312,9.727661,7.4768066E-4,0.0,-6.713867E-4,17.0,-0.5521924,-1.4172239,9.68798,4.1753054E-4,-0.01945734,0.015583038,-0.07312043,-0.026636701,0.6582419,2016-12-01 19:25:40,70.57084366009948
-0.5536804,-1.4334412,9.746414,0.0010375977,3.3569336E-4,-4.8828125E-4,17.0,-0.55070025,-1.4181963,9.6879225,-0.0014727116,7.145405E-4,-0.015083313,-0.0730658,-0.026736323,0.6582669,2016-12-01 19:25:41,72.24285764427924
-0.5541229,-1.4464264,9.7487335,3.3569336E-4,5.79834E-4,4.272461E-4,17.0,-0.5533404,-1.4209853,9.687363,-7.3701143E-4,-0.019110203,0.005877495,-0.07325931,-0.026739947,0.6583644,2016-12-01 19:25:42,69.43037922526617
-0.555603,-1.4256592,9.737869,1.6784668E-4,5.79834E-4,3.3569336E-4,17.0,-0.5544334,-1.4188236,9.687617,0.001978457,0.0017933846,-0.0107584,-0.07316217,-0.026615784,0.65825164,2016-12-01 19:25:43,72.16968493345124
-0.55389404,-1.4149475,9.767273,7.7819824E-4,-5.645752E-4,-9.1552734E-5,17.0,-0.5532324,-1.4130964,9.688522,0.0019943714,0.0023514032,0.02554226,-0.072779104,-0.026381547,0.65794015,2016-12-01 19:25:44,68.94395328388208
-0.54460144,-1.4317017,9.735733,0.0011749268,-4.5776367E-5,-5.187988E-4,17.0,-0.55163956,-1.4173108,9.687998,0.013646543,0.003813386,6.5231323E-4,-0.073038384,-0.026645754,0.6582061,2016-12-01 19:25:45,65.54247943369555
-0.5512543,-1.4260559,9.753342,7.7819824E-4,-4.5776367E-5,3.2043457E-4,17.0,-0.5538226,-1.4194905,9.687554,-0.012810767,-0.0197618,0.0041475296,-0.07322003,-0.026664762,0.6583058,2016-12-01 19:25:46,70.83571840298592
-0.55825806,-1.420929,9.745819,-4.4250488E-4,9.1552734E-5,1.373291E-4,17.0,-0.5515797,-1.4132605,9.688594,0.003111899,0.011980295,-0.0016536713,-0.07285294,-0.026534654,0.65805656,2016-12-01 19:25:47,67.98347420707873
-0.5501709,-1.4294128,9.747406,4.8828125E-4,1.2207031E-4,-1.6784668E-4,17.0,-0.55405444,-1.4183838,9.687704,0.0047962666,0.0022969246,0.009648323,-0.07318669,-0.026613936,0.65826285,2016-12-01 19:25:48,58.986957015486645
-0.55578613,-1.438797,9.737442,-4.5776367E-5,3.5095215E-4,-1.5258789E-5,17.0,-0.55209917,-1.4165924,9.688076,-6.0909986E-4,-0.014042258,-0.013767242,-0.07300126,-0.026650976,0.6581905,2016-12-01 19:25:49,62.38106707534832
-0.5605011,-1.423233,9.748932,-2.89917E-4,4.8828125E-4,7.6293945E-5,17.0,-0.5539481,-1.4180305,9.687761,0.0062172413,0.016101122,-0.0026369095,-0.073169924,-0.026604673,0.6582497,2016-12-01 19:25:50,67.68326752266037
-0.5672455,-1.4421997,9.739517,1.6784668E-4,4.5776367E-5,-1.5258789E-5,17.0,-0.5543218,-1.4180313,9.687739,-2.1535158E-4,7.13706E-4,0.013614655,-0.07318265,-0.026590278,0.6582485,2016-12-01 19:25:51,71.11483295601948
-0.55174255,-1.419693,9.758667,1.6784668E-4,5.79834E-4,-1.5258789E-5,17.0,-0.5496037,-1.4152627,9.688413,-0.0015972257,0.0033699274,-0.003586769,-0.07291934,-0.026667709,0.6581588,2016-12-01 19:25:52,71.30049737171107
-0.55911255,-1.4234619,9.749893,3.0517578E-4,-4.5776367E-5,-6.2561035E-4,17.0,-0.5507236,-1.4125328,9.688748,5.7703257E-4,0.0010200739,0.0028982162,-0.07283147,-0.026553374,0.6580557,2016-12-01 19:25:53,67.14430375713567
-0.54774475,-1.4250641,9.741684,6.1035156E-4,-4.5776367E-5,-9.0026855E-4,17.0,-0.54835975,-1.4114636,9.689038,3.2001734E-4,-0.007604122,0.014108658,-0.0727356,-0.026572125,0.6580181,2016-12-01 19:25:54,71.25789842390542
-0.54660034,-1.4230194,9.716949,5.0354004E-4,-4.5776367E-5,-1.5258789E-5,17.0,-0.552601,-1.4182994,9.6877985,0.008631349,9.833574E-4,-0.010294914,-0.07310728,-0.026680328,0.6582582,2016-12-01 19:25:55,67.08202856907548
-0.552536,-1.4505463,9.739685,0.0012054443,-4.5776367E-5,-1.5258789E-5,17.0,-0.54928756,-1.4176373,9.688084,0.0014244318,-0.028270602,0.012601852,-0.0730346,-0.026816037,0.65829307,2016-12-01 19:25:57,61.347361334529786
-0.55192566,-1.4203949,9.746506,1.6784668E-4,-5.493164E-4,-5.187988E-4,17.0,-0.5520762,-1.4144503,9.688392,0.009788334,0.0050063133,0.013936996,-0.07295523,-0.026662385,0.65817374,2016-12-01 19:25:58,68.43281428855656
-0.54789734,-1.4178925,9.774338,7.7819824E-4,-3.2043457E-4,-2.89917E-4,17.0,-0.54813594,-1.4159486,9.6883955,0.005778551,0.0063757896,0.0013828278,-0.07289505,-0.026750313,0.65818983,2016-12-01 19:25:59,67.79352523243784
-0.54693604,-1.437027,9.752258,0.0012207031,-4.5776367E-5,-4.5776367E-4,17.0,-0.5487331,-1.4175652,9.688126,-0.0066004395,-9.968281E-4,-0.027568817,-0.07302119,-0.026746918,0.6582504,2016-12-01 19:26:00,66.71161512510655
-0.5545502,-1.4367676,9.737839,4.8828125E-4,-2.1362305E-4,-1.5258789E-5,17.0,-0.5458208,-1.4177483,9.688264,-0.0033781528,-0.012411833,-0.004855156,-0.072883435,-0.026907738,0.6582662,2016-12-01 19:26:01,70.03026901019749
-0.54797363,-1.4156799,9.740829,-1.8310547E-4,6.2561035E-4,2.593994E-4,17.0,-0.54787767,-1.4168004,9.688286,0.0024757385,0.0055521727,-0.010154724,-0.07291799,-0.02679249,0.65822315,2016-12-01 19:26:02,72.4710898411274
-0.5402069,-1.4117584,9.738693,1.6784668E-4,5.79834E-4,5.950928E-4,17.0,-0.5488159,-1.4118283,9.688959,-0.013320327,-0.013109922,-0.026741982,-0.07276467,-0.026568292,0.6580305,2016-12-01 19:26:03,63.20827142836197
-0.53933716,-1.4271545,9.74176,-4.4250488E-4,-4.5776367E-5,5.950928E-4,17.0,-0.5457942,-1.4145434,9.688734,3.1739473E-4,-0.015210748,0.007823944,-0.072750516,-0.026798453,0.6581435,2016-12-01 19:26:04,65.63262546216646
-0.5483551,-1.4270935,9.741989,2.2888184E-4,-4.5776367E-5,3.3569336E-4,17.0,-0.55221957,-1.4117573,9.688776,-0.0052016377,0.0026910305,0.011400223,-0.07287756,-0.026434172,0.65801626,2016-12-01 19:26:05,68.94657150045663
-0.53912354,-1.4226685,9.732269,1.6784668E-4,-1.9836426E-4,7.6293945E-4,17.0,-0.5469301,-1.4161288,9.688437,6.08325E-4,-0.0011999607,0.015284538,-0.07291528,-0.026721569,0.6581848,2016-12-01 19:26:06,67.16613883097483
-0.5575409,-1.4289703,9.729065,0.0,-4.8828125E-4,7.6293945E-4,17.0,-0.5518679,-1.4173402,9.687982,-0.0031815767,-0.0061166286,-0.0017681122,-0.07307357,-0.02665886,0.65823036,2016-12-01 19:26:07,72.07952510749008
-0.560318,-1.4202881,9.742798,-1.8310547E-4,-1.0681152E-4,5.950928E-4,17.0,-0.54977137,-1.4101197,9.689154,-0.010528982,-0.0025639534,-0.012929916,-0.07273345,-0.026466822,0.6579621,2016-12-01 19:26:08,73.39530298037084
-0.5558014,-1.4195709,9.715271,1.6784668E-4,-4.5776367E-5,0.0011291504,17.0,-0.5508154,-1.4158406,9.688259,-0.008990169,-0.00199306,-0.012451172,-0.07289267,-0.026696466,0.65816057,2016-12-01 19:26:09,72.640036709396
-0.5541687,-1.432312,9.728561,6.866455E-4,-1.373291E-4,6.866455E-4,17.0,-0.5500605,-1.4174551,9.6880665,0.005790055,-0.004605651,0.0067300797,-0.073037595,-0.026834866,0.65830433,2016-12-01 19:26:10,70.0029440966099
-0.5561676,-1.4145813,9.719467,1.6784668E-4,-9.918213E-4,5.950928E-4,17.0,-0.54994035,-1.4111269,9.688998,0.0055036545,-0.009753704,-0.01241684,-0.072776705,-0.026498357,0.65799993,2016-12-01 19:26:11,67.8491714166315
-0.56163025,-1.4228058,9.713196,-4.4250488E-4,-4.8828125E-4,0.0010528564,17.0,-0.5549313,-1.4173915,9.6877985,3.068447E-4,0.007697463,-0.0027189255,-0.07311757,-0.026558375,0.65819967,2016-12-01 19:26:12,67.71733655894427
-0.5655365,-1.4233551,9.720963,1.6784668E-4,-0.0012359619,5.950928E-4,17.0,-0.5526403,-1.4151016,9.688264,-6.9248676E-4,-0.010724306,-0.0036067963,-0.073016435,-0.026544375,0.6581424,2016-12-01 19:26:13,68.63050541932124
-0.54200745,-1.4063263,9.718597,-6.5612793E-4,2.89917E-4,9.460449E-4,17.0,-0.5526461,-1.4139653,9.688429,-5.534291E-4,-0.015738368,0.0037174225,-0.07297431,-0.026501182,0.65809906,2016-12-01 19:26:14,68.02661448434813
-0.5539398,-1.4163666,9.717789,-3.5095215E-4,-6.4086914E-4,0.0017242432,17.0,-0.55212045,-1.4144989,9.688382,0.0041131973,0.0031541586,-0.013584137,-0.073016085,-0.02656996,0.65815556,2016-12-01 19:26:15,64.64192514819773
-0.5576477,-1.4223633,9.710907,-9.765625E-4,-7.324219E-4,0.0012054443,17.0,-0.5550713,-1.4233522,9.686916,0.003147781,0.008691788,0.008687973,-0.07340622,-0.026762743,0.65844893,2016-12-01 19:26:16,65.74794890945417
-0.54196167,-1.4204102,9.713196,-1.0681152E-4,-6.4086914E-4,0.0012054443,17.0,-0.55660945,-1.4210631,9.687164,-0.027970433,2.8324127E-4,-0.0031728745,-0.073373236,-0.026616711,0.6583565,2016-12-01 19:26:17,65.1285555434099
-0.5598602,-1.4250641,9.698608,-7.4768066E-4,-4.5776367E-5,0.0012054443,17.0,-0.5603397,-1.4225593,9.686729,0.0036799908,0.0013861656,-0.01930523,-0.073555656,-0.026529385,0.65840113,2016-12-01 19:26:18,69.7655196043458
-0.5431824,-1.4233856,9.718567,-4.4250488E-4,-4.5776367E-5,7.6293945E-4,17.0,-0.5584594,-1.4247075,9.6865225,0.016145587,0.009030938,0.018795013,-0.073571764,-0.026683314,0.6584894,2016-12-01 19:26:19,69.0810244290261
-0.5731201,-1.4278717,9.735092,-7.9345703E-4,-3.8146973E-4,0.0015563965,17.0,-0.5596465,-1.4212205,9.686966,-0.022172809,-0.0060287714,-0.0015802383,-0.07348226,-0.026505448,0.6583523,2016-12-01 19:26:20,69.47136515655848
-0.5465088,-1.4184113,9.719742,-9.613037E-4,-6.4086914E-4,5.0354004E-4,17.0,-0.5622925,-1.4216712,9.686747,0.022996604,0.0073274374,0.0079603195,-0.07348417,-0.026496558,0.6583486,2016-12-01 19:26:21,66.75461985194181
-0.55514526,-1.4358215,9.726425,-5.340576E-4,-4.5776367E-5,0.0012054443,17.0,-0.5599459,-1.4265617,9.686163,0.006226003,-0.005321145,0.0044670105,-0.07369167,-0.026728244,0.65857214,2016-12-01 19:26:22,61.293277971739016
-0.5613556,-1.4357452,9.720383,-1.8310547E-4,-4.5776367E-5,0.0012054443,17.0,-0.5626991,-1.4210422,9.686815,-0.0010669231,0.013661861,0.0049905777,-0.073604785,-0.026282895,0.6582967,2016-12-01 19:26:23,61.4765099464846
-0.56944275,-1.4226685,9.7379,-7.4768066E-4,-4.5776367E-5,0.0012054443,17.0,-0.56245154,-1.42286,9.6865635,-0.010049164,0.0062173605,0.017468452,-0.07365901,-0.026499862,0.65843683,2016-12-01 19:26:24,70.81252001094474
-0.56599426,-1.4304352,9.726654,-9.0026855E-4,-0.0011138916,1.5258789E-4,17.0,-0.55879825,-1.4201542,9.687171,-9.7596645E-4,-0.0055958033,-0.003961563,-0.07341374,-0.02649782,0.65831447,2016-12-01 19:26:25,66.52108236948564
-0.5766907,-1.4324646,9.717987,-4.5776367E-5,-2.4414063E-4,1.9836426E-4,17.0,-0.5626136,-1.4212238,9.686794,-0.01343751,-0.00653255,-0.006465912,-0.07349429,-0.026412454,0.6583097,2016-12-01 19:26:26,73.14306859416354
-0.566391,-1.427185,9.734238,-4.4250488E-4,-5.645752E-4,0.0012054443,17.0,-0.56536704,-1.4192035,9.68693,0.005790949,-0.0048309565,0.0073461533,-0.07369705,-0.026278233,0.65833986,2016-12-01 19:26:27,70.33633861150308
-0.5444031,-1.4191132,9.750229,1.6784668E-4,4.8828125E-4,-9.1552734E-5,17.0,-0.5599049,-1.4203098,9.687084,-0.014084399,0.013831139,-0.0066108704,-0.073457114,-0.026460994,0.6583167,2016-12-01 19:26:28,71.5542174285108
-0.5713043,-1.4135284,9.7560425,1.6784668E-4,-3.2043457E-4,5.950928E-4,17.0,-0.5581945,-1.4175085,9.687594,0.013231099,-0.004702568,0.0068674088,-0.07329468,-0.026420984,0.65821546,2016-12-01 19:26:29,66.35284891089862
-0.5681305,-1.4354248,9.747635,-4.4250488E-4,-9.613037E-4,-4.5776367E-4,17.0,-0.5584849,-1.419395,9.687302,0.005966246,-0.010956407,0.006655693,-0.07344792,-0.026459418,0.6583113,2016-12-01 19:26:30,66.96751122487409
-0.5599365,-1.4217682,9.747742,1.6784668E-4,5.340576E-4,1.5258789E-5,17.0,-0.55876863,-1.4189351,9.687352,0.0022881627,0.00535655,0.013938904,-0.07339688,-0.026472649,0.658293,2016-12-01 19:26:31,60.97293374100495
-0.55870056,-1.425293,9.755768,-4.5776367E-5,-4.5776367E-5,3.9672852E-4,17.0,-0.55635756,-1.4171156,9.6877575,-0.004634738,-0.008649707,0.0032367706,-0.07321767,-0.026477037,0.6582067,2016-12-01 19:26:32,69.89747703834682
-0.5619812,-1.4245605,9.742645,1.6784668E-4,-2.746582E-4,2.1362305E-4,17.0,-0.5600382,-1.4183197,9.687368,-0.007946968,0.0026950836,0.009670258,-0.07338751,-0.026380511,0.65824026,2016-12-01 19:26:33,68.55544466628702
-0.5791321,-1.4312592,9.750366,1.6784668E-4,-6.4086914E-4,-1.5258789E-5,17.0,-0.5618201,-1.4211628,9.686849,-0.011725426,0.010258675,0.003973961,-0.073593386,-0.026467139,0.65838724,2016-12-01 19:26:34,66.48913190784971
-0.5667572,-1.4136658,9.753326,4.272461E-4,-6.4086914E-4,5.950928E-4,17.0,-0.5542089,-1.420675,9.687359,0.0048465133,-0.005249381,-0.01448822,-0.07327726,-0.026694681,0.6583497,2016-12-01 19:26:35,55.500379500353105
-0.57884216,-1.4296112,9.747696,7.7819824E-4,4.119873E-4,-1.5258789E-5,17.0,-0.5614884,-1.4221057,9.686729,6.8998337E-4,0.0039362907,-0.0032539368,-0.07350075,-0.026368978,0.6582902,2016-12-01 19:26:36,65.29053040756584
-0.55914307,-1.4161835,9.736908,1.6784668E-4,1.0681152E-4,4.4250488E-4,17.0,-0.55925876,-1.4203217,9.6871195,0.009597957,0.017499447,-0.008542061,-0.07343562,-0.026486386,0.6583193,2016-12-01 19:26:37,69.44442111068797
-0.5619354,-1.4252777,9.745316,5.0354004E-4,2.2888184E-4,-3.5095215E-4,17.0,-0.55989116,-1.4165852,9.687631,0.0014284253,-1.9729137E-4,-2.603531E-4,-0.0733356,-0.02629658,0.65817076,2016-12-01 19:26:38,62.67415460961409
-0.5580597,-1.4235535,9.737289,1.6784668E-4,-4.272461E-4,-3.9672852E-4,17.0,-0.5588163,-1.41582,9.687805,0.005724311,-9.6809864E-4,-0.012501717,-0.07327213,-0.0262785,0.65812993,2016-12-01 19:26:39,63.12555741195144
-0.5576782,-1.4238586,9.741791,-2.746582E-4,-1.373291E-4,-6.2561035E-4,17.0,-0.5607062,-1.4212602,9.686899,-0.0027788281,-0.006930709,-0.0153923035,-0.07351973,-0.026466047,0.6583503,2016-12-01 19:26:40,67.55294436041899
-0.56233215,-1.4248352,9.720505,-1.0681152E-4,-4.5776367E-5,3.3569336E-4,17.0,-0.55803716,-1.4178833,9.687548,-0.0020458698,0.008101225,-0.0014343262,-0.073303305,-0.026441246,0.6582303,2016-12-01 19:26:41,68.87676376909744
-0.5704498,-1.4226074,9.740372,3.0517578E-4,9.1552734E-5,1.5258789E-5,17.0,-0.56015956,-1.4225777,9.686737,-0.010204434,0.007911682,0.009262085,-0.073550224,-0.026537038,0.65840244,2016-12-01 19:26:42,65.97104631784174
-0.556427,-1.4378357,9.734283,3.0517578E-4,-6.1035156E-5,1.5258789E-5,17.0,-0.5585504,-1.4244798,9.686551,0.009021521,-0.011481047,0.0016374588,-0.07356638,-0.026671177,0.6584804,2016-12-01 19:26:43,71.89664597198866
-0.548996,-1.4215088,9.7332,8.087158E-4,-5.0354004E-4,1.5258789E-5,17.0,-0.5584528,-1.4204296,9.687152,0.014295042,0.008249521,-0.013266563,-0.07342766,-0.026494868,0.65831983,2016-12-01 19:26:44,69.92256064751074
-0.5666199,-1.4381409,9.756638,-1.373291E-4,9.1552734E-5,5.340576E-4,17.0,-0.5611611,-1.4256946,9.686221,-0.0027829409,-0.009630084,0.011662483,-0.07368684,-0.026627496,0.6585172,2016-12-01 19:26:45,64.20197678739387
-0.56359863,-1.4360352,9.748001,9.0026855E-4,-3.3569336E-4,1.5258789E-5,17.0,-0.5618273,-1.424097,9.686417,0.005223632,0.006681204,-0.0061454773,-0.07360455,-0.026487002,0.65840316,2016-12-01 19:26:46,70.47814264951127
-0.56915283,-1.4320831,9.734985,8.087158E-4,-4.5776367E-4,1.5258789E-5,17.0,-0.55770546,-1.4179407,9.687559,0.005800247,0.0011143684,4.682541E-4,-0.07329417,-0.026456224,0.65823364,2016-12-01 19:26:47,67.70997211140069
-0.55908203,-1.4251556,9.749954,1.5258789E-5,9.1552734E-5,1.5258789E-5,17.0,-0.56087595,-1.4223597,9.686728,0.0029267073,0.010851741,0.0021371841,-0.07361125,-0.026471948,0.6583986,2016-12-01 19:26:48,64.03237775584469
-0.55241394,-1.4376068,9.752045,9.1552734E-4,-5.0354004E-4,1.5258789E-5,17.0,-0.55432224,-1.4225055,9.687083,0.0028603077,-0.0074648857,0.00242424,-0.07334925,-0.026759595,0.65841913,2016-12-01 19:26:49,67.57331175888633
-0.5786896,-1.4280853,9.758606,-1.373291E-4,-5.0354004E-4,-5.950928E-4,17.0,-0.55857176,-1.4182467,9.687465,-0.018090963,-7.2932243E-4,0.006832123,-0.07324108,-0.026441393,0.65819967,2016-12-01 19:26:50,67.56482252640487
-0.5590668,-1.4283447,9.728195,4.7302246E-4,9.1552734E-5,-4.8828125E-4,17.0,-0.5593503,-1.4181108,9.687439,0.00502944,-0.002647996,-0.017965317,-0.073390536,-0.026434097,0.6582697,2016-12-01 19:26:51,71.40695539673739
-0.56477356,-1.4406433,9.752563,4.7302246E-4,0.0,-5.0354004E-4,17.0,-0.56068903,-1.4210851,9.686926,0.003897667,-0.00790453,0.010276794,-0.07361236,-0.026428554,0.6583765,2016-12-01 19:26:52,69.15688050258078
-0.55311584,-1.4320831,9.744095,4.7302246E-4,-2.4414063E-4,1.5258789E-5,17.0,-0.55578476,-1.4189117,9.687527,-0.008046091,0.0022534132,-0.010175705,-0.07326511,-0.026567116,0.65827715,2016-12-01 19:26:53,66.6877510857291
-0.566452,-1.4355011,9.749771,0.0012054443,-3.5095215E-4,6.2561035E-4,17.0,-0.5572064,-1.4216784,9.687039,-1.2367964E-4,-0.003143549,0.011213303,-0.07335301,-0.026604798,0.6583403,2016-12-01 19:26:54,68.51124568665527
-0.5523987,-1.416626,9.765289,-4.4250488E-4,-5.0354004E-4,6.2561035E-4,17.0,-0.5489976,-1.413743,9.68867,-0.0024839044,0.002889514,0.0101156235,-0.07284216,-0.02663365,0.65810287,2016-12-01 19:26:55,72.09686653275723
-0.57107544,-1.4226685,9.757416,-1.373291E-4,2.89917E-4,6.2561035E-4,17.0,-0.55703366,-1.4158226,9.687907,-0.0118150115,0.002257824,0.00921154,-0.0731801,-0.026424874,0.65816087,2016-12-01 19:26:56,69.14294810403979
-0.5609436,-1.4225159,9.744431,2.2888184E-4,-2.89917E-4,3.9672852E-4,17.0,-0.55647033,-1.4217554,9.687071,-0.0023782253,-0.018444419,9.0026855E-4,-0.07339429,-0.02664829,0.65838337,2016-12-01 19:26:57,64.13800804208675
-0.5502777,-1.4225769,9.767273,3.8146973E-4,0.0,-6.1035156E-5,17.0,-0.5520592,-1.4129469,9.688612,-0.0060479045,-0.013917446,0.0042800903,-0.07278656,-0.026441693,0.6579752,2016-12-01 19:26:58,41.5047522756182
-0.5387268,-1.429657,9.739517,-7.6293945E-5,4.4250488E-4,1.5258789E-5,17.0,-0.5543805,-1.4158955,9.688048,0.005009353,0.0042750835,-0.007839203,-0.07310509,-0.026507212,0.6581668,2016-12-01 19:26:59,57.2338231835671
-0.56484985,-1.4467163,9.75148,-3.0517578E-4,-7.6293945E-5,1.5258789E-5,17.0,-0.55517817,-1.4265658,9.686438,-0.0021541119,-0.0072659254,0.0011091232,-0.07344278,-0.026868062,0.65852195,2016-12-01 19:27:00,65.70137051950385
-0.54797363,-1.4329987,9.743774,-1.373291E-4,9.1552734E-5,1.8310547E-4,17.0,-0.55920994,-1.4213905,9.686966,0.014231682,0.0015444756,0.0030584335,-0.07347376,-0.026528737,0.65836024,2016-12-01 19:27:01,72.12800356314543
-0.5379181,-1.4143982,9.746094,-4.7302246E-4,-2.4414063E-4,3.5095215E-4,17.0,-0.5540692,-1.4197528,9.687502,-0.022257209,-0.0015131235,-0.011140823,-0.07323817,-0.02666517,0.658315,2016-12-01 19:27:02,71.77235261178271
-0.5598602,-1.4287109,9.740845,-1.373291E-4,4.7302246E-4,1.5258789E-5,17.0,-0.55416816,-1.4174047,9.68784,-0.00483495,-0.008343458,0.010335922,-0.07325452,-0.026625762,0.65830255,2016-12-01 19:27:03,65.86338533216235
-0.5754547,-1.4263153,9.709686,-1.373291E-4,5.340576E-4,-6.1035156E-5,17.0,-0.5593534,-1.420409,9.687102,-0.019997478,0.0092663765,-0.027862549,-0.07363672,-0.026524443,0.6584386,2016-12-01 19:27:04,66.5273997511587
-0.57411194,-1.4463806,9.751343,4.7302246E-4,-5.0354004E-4,-5.950928E-4,17.0,-0.55796826,-1.424422,9.686592,-0.004098356,-0.0034308434,0.011516571,-0.07354446,-0.026691455,0.6584801,2016-12-01 19:27:05,65.91243063126859
-0.5540314,-1.4330139,9.740906,6.2561035E-4,-7.6293945E-5,-4.272461E-4,17.0,-0.5553778,-1.4226093,9.687008,-0.006884575,-0.003457427,0.0029258728,-0.073434144,-0.026662156,0.6584103,2016-12-01 19:27:06,71.89096906321234
-0.56288147,-1.4304047,9.7548065,-1.373291E-4,9.1552734E-5,-2.89917E-4,17.0,-0.55772835,-1.4175849,9.68761,-0.003497064,-0.005764127,0.005431175,-0.0732817,-0.026441874,0.65822,2016-12-01 19:27:07,60.4394444837456
-0.5751648,-1.4376831,9.7638855,1.373291E-4,9.1552734E-5,-3.0517578E-4,17.0,-0.55967265,-1.4233472,9.686652,0.0030351877,0.0108036995,0.016430855,-0.07356234,-0.026584972,0.65843344,2016-12-01 19:27:08,67.99133616466865
-0.5536804,-1.4378052,9.739517,9.1552734E-5,-6.713867E-4,3.9672852E-4,17.0,-0.5543477,-1.4196372,9.687503,0.001727283,-0.01875639,-0.0044498444,-0.07321766,-0.026675101,0.65831006,2016-12-01 19:27:09,62.13074392675995
-0.56474304,-1.4310913,9.744278,3.8146973E-4,-5.0354004E-4,-5.0354004E-4,17.0,-0.55704594,-1.4210068,9.687147,-0.0026702285,0.009663343,0.0037755966,-0.07335929,-0.026633406,0.6583583,2016-12-01 19:27:10,64.74764366731468
-0.5389862,-1.4229584,9.76532,1.2207031E-4,-5.0354004E-4,-2.4414063E-4,17.0,-0.5592091,-1.4205219,9.687094,-0.008982599,-0.0094822645,-0.016580582,-0.07344138,-0.026495878,0.6583271,2016-12-01 19:27:11,71.94131633146766
-0.5611725,-1.4350586,9.74411,3.0517578E-4,5.340576E-4,-5.950928E-4,17.0,-0.5568178,-1.4213878,9.687104,-0.013622284,0.0077939034,-0.01945877,-0.0733652,-0.026542695,0.6583139,2016-12-01 19:27:12,69.84618937704076
-0.56140137,-1.4225616,9.757568,4.7302246E-4,-5.0354004E-4,1.5258789E-5,17.0,-0.557954,-1.4149202,9.687986,-5.788803E-4,0.006662369,0.016674995,-0.073190086,-0.026332341,0.6581175,2016-12-01 19:27:13,66.12855078484642
-0.55470276,-1.4378662,9.7512665,4.7302246E-4,4.272461E-4,-3.0517578E-4,17.0,-0.5548419,-1.4153501,9.688102,0.0039575696,-0.015283823,0.0057878494,-0.07314604,-0.026445573,0.65815485,2016-12-01 19:27:14,66.95439632686178
-0.5566101,-1.4069061,9.745743,3.6621094E-4,5.187988E-4,1.5258789E-5,17.0,-0.5553705,-1.4146264,9.688177,0.0016573071,0.014754653,0.0027885437,-0.072957724,-0.026411735,0.65804416,2016-12-01 19:27:15,72.25350849538304
-0.5695038,-1.4274597,9.763458,3.8146973E-4,-5.0354004E-4,5.493164E-4,17.0,-0.55572826,-1.4169587,9.687817,-0.010264516,0.005516529,0.012915611,-0.07319292,-0.026494276,0.6582034,2016-12-01 19:27:16,71.45515941524222
-0.5410919,-1.4462585,9.765747,4.7302246E-4,-5.0354004E-4,2.89917E-4,17.0,-0.554863,-1.417692,9.687758,-0.0011822581,0.004965782,0.0029678345,-0.07318839,-0.026556546,0.6582337,2016-12-01 19:27:17,55.19813987224798
-0.5665283,-1.4159241,9.759415,6.2561035E-4,9.1552734E-5,-4.272461E-4,17.0,-0.5506058,-1.4122746,9.688792,-0.0070881844,-0.0032516718,0.0032682419,-0.07285356,-0.026650228,0.6581172,2016-12-01 19:27:18,72.05508783941443
-0.5498657,-1.4151611,9.732864,9.3078613E-4,-3.6621094E-4,-1.2207031E-4,17.0,-0.5512473,-1.4162475,9.688176,0.0065388083,0.0019676685,-0.010819435,-0.073011816,-0.026641492,0.6581908,2016-12-01 19:27:19,71.44712219719368
-0.55584717,-1.4269104,9.758209,4.7302246E-4,9.1552734E-5,-5.950928E-4,17.0,-0.5556347,-1.4187149,9.687564,-0.0032003522,-0.015375495,0.00808239,-0.07325269,-0.026565464,0.6582702,2016-12-01 19:27:20,59.94598148618509
-0.56855774,-1.4360809,9.752457,5.645752E-4,-6.1035156E-4,-7.6293945E-5,17.0,-0.5559584,-1.4197594,9.687392,0.0054051876,0.015269399,-0.0074653625,-0.07330258,-0.026592497,0.6583089,2016-12-01 19:27:21,67.55613413742626
-0.5492859,-1.4287262,9.72522,3.8146973E-4,-5.0354004E-4,-5.0354004E-4,17.0,-0.54909253,-1.4227502,9.6873455,-0.009851515,-0.008281589,-0.008461952,-0.07314307,-0.02689572,0.6583882,2016-12-01 19:27:22,70.72761004409399
-0.5527649,-1.4085999,9.741806,1.2207031E-4,3.5095215E-4,1.5258789E-5,17.0,-0.55322474,-1.4185463,9.687727,0.0034009814,-0.0037674904,-0.006884575,-0.07316457,-0.026652114,0.6582718,2016-12-01 19:27:23,67.88541295096476
-0.5693207,-1.4265442,9.738602,1.9836426E-4,9.1552734E-5,4.5776367E-4,17.0,-0.55176866,-1.416605,9.688093,-0.019503832,-7.519722E-4,0.006128311,-0.07304284,-0.026634889,0.65820265,2016-12-01 19:27:24,69.68517523278885
-0.5547943,-1.4265442,9.737686,4.5776367E-4,9.1552734E-5,1.5258789E-5,17.0,-0.55172694,-1.4182535,9.687856,0.006366551,0.007885456,0.0056524277,-0.073113784,-0.026720677,0.65828246,2016-12-01 19:27:25,64.2233297765105
-0.5422363,-1.4095306,9.738815,-3.3569336E-4,-1.0681152E-4,6.2561035E-4,17.0,-0.5502614,-1.4149208,9.688427,-0.0020713806,5.1140785E-4,0.003191948,-0.07292892,-0.026629383,0.6581435,2016-12-01 19:27:26,66.27693500629508
-0.5580902,-1.419754,9.732452,-1.373291E-4,-4.119873E-4,-5.950928E-4,17.0,-0.54951596,-1.4147965,9.688487,-0.011661947,0.0047085285,0.016643524,-0.07288635,-0.026698649,0.6581586,2016-12-01 19:27:27,66.12981049498255
-0.5599823,-1.432251,9.716644,4.7302246E-4,1.5258789E-5,4.7302246E-4,17.0,-0.5530225,-1.4195579,9.68759,-0.006175816,0.008767605,-0.013504982,-0.073195376,-0.0266982,0.65831107,2016-12-01 19:27:28,68.97109148377578
-0.5693817,-1.4250336,9.739548,-1.373291E-4,9.1552734E-5,2.746582E-4,17.0,-0.5529348,-1.417555,9.687889,6.698966E-4,0.004651189,0.0035581589,-0.07311781,-0.026625799,0.65823495,2016-12-01 19:27:30,72.0481317933132
-0.54652405,-1.4281921,9.739731,0.001083374,9.1552734E-5,1.5258789E-5,17.0,-0.55587184,-1.4223855,9.687014,0.015350223,-6.6137314E-4,0.0013599396,-0.073340386,-0.026721789,0.65839505,2016-12-01 19:27:31,66.82757306278104
-0.55610657,-1.4298859,9.731354,3.2043457E-4,-5.0354004E-4,-0.0010528564,17.0,-0.5509306,-1.4190632,9.687782,0.0032422543,-0.008678079,-0.012160301,-0.0731059,-0.026760226,0.6582992,2016-12-01 19:27:32,68.22146831060195
-0.5527649,-1.4402008,9.746948,4.7302246E-4,-1.0681152E-4,1.5258789E-5,17.0,-0.5539594,-1.4186879,9.687664,0.002921164,0.010031223,0.01210022,-0.07317916,-0.026722815,0.6583159,2016-12-01 19:27:33,67.06322376815517
-0.56326294,-1.432724,9.757202,0.0011749268,-6.1035156E-4,-3.8146973E-4,17.0,-0.55424356,-1.4160616,9.688032,-0.0030017495,-0.00482738,0.0011119843,-0.07320387,-0.026528273,0.6582266,2016-12-01 19:27:34,67.92863992483446
-0.56825256,-1.4310303,9.729797,4.7302246E-4,-5.0354004E-4,-6.1035156E-5,17.0,-0.5554236,-1.4204401,9.687324,0.0049186945,0.009693027,-0.012561798,-0.073309764,-0.0266389,0.6583367,2016-12-01 19:27:35,59.77653265315827
-0.5432892,-1.408432,9.741943,-1.373291E-4,-5.0354004E-4,1.5258789E-5,17.0,-0.5549176,-1.4172395,9.687821,2.721548E-4,0.0019659996,0.0059375763,-0.07317339,-0.026537322,0.6582163,2016-12-01 19:27:36,64.67810804481245
-0.5601654,-1.4219513,9.733078,9.0026855E-4,4.272461E-4,1.9836426E-4,17.0,-0.5549457,-1.4154513,9.688082,0.0028662682,0.002982974,-0.0068626404,-0.07313139,-0.02645139,0.6581507,2016-12-01 19:27:37,67.79053461903156
-0.5551758,-1.4269714,9.758667,-1.373291E-4,-2.2888184E-4,4.8828125E-4,17.0,-0.5536405,-1.419168,9.687612,0.0068567395,-0.006287694,0.00831604,-0.07320184,-0.026659591,0.65829414,2016-12-01 19:27:38,73.13563088364137
-0.5486908,-1.445282,9.762558,4.5776367E-5,5.187988E-4,6.2561035E-4,17.0,-0.55468494,-1.417752,9.68776,0.0030059814,0.008458018,0.0033845901,-0.07318457,-0.02656569,0.6582366,2016-12-01 19:27:39,73.27715768778158
-0.5499115,-1.4173431,9.743393,6.1035156E-5,-3.0517578E-4,1.5258789E-5,17.0,-0.55516225,-1.4173199,9.687797,0.0062681437,0.011159062,0.0014181137,-0.07317448,-0.02664318,0.658272,2016-12-01 19:27:40,71.25658917206937
-0.55288696,-1.410965,9.728546,4.7302246E-4,1.5258789E-5,1.5258789E-5,17.0,-0.5560186,-1.4194617,9.687434,-3.5881996E-5,0.0059936047,-0.021596909,-0.07319649,-0.026598759,0.65825975,2016-12-01 19:27:41,66.62283771629322
-0.5546417,-1.4274597,9.74379,2.1362305E-4,-1.8310547E-4,9.1552734E-5,17.0,-0.5520623,-1.4147018,9.688355,0.0018165112,-0.0038120747,-0.0015230179,-0.072993755,-0.026608994,0.6581649,2016-12-01 19:27:42,69.71059405904315
-0.56640625,-1.427948,9.751022,3.8146973E-4,-5.187988E-4,-1.6784668E-4,17.0,-0.55752826,-1.4167428,9.687744,-0.020283282,0.006905198,0.011352539,-0.07321028,-0.026376916,0.65815073,2016-12-01 19:27:43,71.32314242797537
-0.55093384,-1.4246826,9.7391815,3.5095215E-4,7.019043E-4,-4.5776367E-5,17.0,-0.55534035,-1.4185171,9.687611,0.015947104,0.010303378,-0.026155472,-0.073235326,-0.026569339,0.65826356,2016-12-01 19:27:44,62.01647468416483
-0.5583191,-1.4263611,9.72995,2.1362305E-4,7.6293945E-5,-3.2043457E-4,17.0,-0.55031973,-1.4202348,9.687645,-0.010350466,-0.0083462,-0.009082794,-0.073128775,-0.026828134,0.6583459,2016-12-01 19:27:45,67.22906617714045
-0.5561981,-1.4285126,9.748199,7.6293945E-5,7.6293945E-5,-2.746582E-4,17.0,-0.54956794,-1.4139826,9.6886015,0.0017228127,-0.0076910257,-0.006983757,-0.072870456,-0.026620692,0.6581101,2016-12-01 19:27:46,71.88702424509727
-0.54019165,-1.4301605,9.732422,7.4768066E-4,1.373291E-4,-5.187988E-4,17.0,-0.54556745,-1.4184812,9.688171,0.02136767,-0.015137792,0.008217812,-0.07275155,-0.027134078,0.6583189,2016-12-01 19:27:47,69.17048136110685
-1.1218414,-0.9964142,9.711548,0.0050354004,0.01222229,-0.010055542,8.0,-0.5529189,-1.4257078,9.686693,0.1682986,-0.5251453,-0.10313511,-0.07343548,-0.026894858,0.65813667,2016-12-01 19:27:48,67.20770929421377
-0.06826782,2.252777,8.5833435,-2.1011353,-0.38342285,-3.0666351,17.0,7.0751386,2.8416147,6.167496,-5.6058455,-1.8350439,2.2224517,0.02617745,-0.4299534,-0.28483352,2016-12-01 19:27:49,66.92189757427441
2.9175568,1.0491028,9.148514,-0.049621582,0.009933472,0.11607361,13.0,3.7511292,3.0647936,8.526809,-0.67940354,-1.9808564,0.65033627,-0.013550398,-0.25575128,-0.6572718,2016-12-01 19:27:50,67.62152100206114
-2.2982788,2.3368073,8.407303,0.9498596,-1.5384674,-1.0173035,4.0,-0.014690562,4.7903657,8.557018,-1.9645038,-2.0010471,0.027749062,0.12541148,-0.21905579,-0.84120774,2016-12-01 19:27:51,68.57940594544671
0.33639526,2.7042084,8.099045,0.11077881,-0.31217957,0.3739624,4.0,0.667518,4.1642594,8.853459,-0.7982689,-1.5120053,0.5274191,0.017823951,-0.2197305,-0.94746757,2016-12-01 19:27:52,68.51787741714745
0.74528503,2.3661804,8.686996,-0.024719238,0.0320282,0.059432983,6.0,1.5300283,3.3654475,9.083126,0.29863966,-0.64781356,0.8855314,-0.061684567,-0.18189149,-0.9765046,2016-12-01 19:27:53,57.147472661338355
4.0285645,0.36480713,9.049255,1.2499847,-0.33285522,0.81074524,6.0,3.818451,1.4094465,8.922068,0.5165386,-1.24858,1.1161871,-0.11495068,-0.17857078,-0.7807288,2016-12-01 19:27:54,57.73289010927183
7.271805,1.6276093,5.221512,0.06915283,-0.10295105,0.042144775,2.0,6.7080455,3.2245967,6.3854914,0.94090176,-1.6384046,-0.06273365,0.05039165,-0.4145977,-0.29197145,2016-12-01 19:27:55,61.943156418305875
7.802948,2.277649,3.9115143,0.2411499,-0.2160492,-0.005722046,6.0,7.6911535,3.3039098,5.1088862,0.5648999,-0.94450307,-0.9729123,0.11603692,-0.4756211,-0.15334912,2016-12-01 19:27:56,65.50030066510142
7.5133667,3.0692596,6.7189484,0.44206238,0.3547516,0.64849854,3.0,6.7831535,1.3790444,6.9467583,0.90835714,0.7812587,-0.44724083,0.18087476,-0.35939145,0.1947711,2016-12-01 19:27:57,58.01166885713215
-1.1402893,-1.1717072,8.902573,0.21055603,1.1810303,0.3664856,33.0,-3.241031,0.5810368,9.237343,1.5773067,-2.055847,-0.7144747,-0.06804703,0.10203144,0.79476804,2016-12-01 19:27:58,62.366516651608165
-3.3325348,-1.2807312,10.557129,0.026123047,-1.1858368,-0.26905823,11.0,-4.3158946,-0.33281615,8.799583,1.9894753,-0.36815706,-0.47095203,-0.1971583,0.11169019,0.8080323,2016-12-01 19:27:59,57.88512018086272
-0.16627502,-1.3821564,9.828201,-3.0517578E-4,-7.6293945E-4,-9.1552734E-5,12.0,-0.66976154,-0.73338366,9.756226,0.347139,-0.66960144,0.07144165,-0.050257318,-0.006715225,0.76522094,2016-12-01 19:28:00,67.87123548886564
-0.21928406,-1.3973389,9.752777,-0.0016174316,-0.0017547607,7.019043E-4,12.0,-0.26038185,-1.3102647,9.715235,0.040518075,-0.085431576,0.02542305,-0.05367715,-0.042185657,0.7575448,2016-12-01 19:28:01,72.33566081574796
-0.23855591,-1.4014282,9.72934,-5.645752E-4,-7.019043E-4,2.593994E-4,12.0,-0.24027333,-1.3973522,9.70361,0.0015172362,-0.005672097,0.005718231,-0.056372825,-0.04552677,0.74909204,2016-12-01 19:28:02,68.68326587616158
-0.24342346,-1.404602,9.7374115,-0.0010070801,-9.918213E-4,-4.5776367E-5,12.0,-0.23877576,-1.4018304,9.703001,-0.016343817,0.0073857307,-0.008665085,-0.056677654,-0.045508035,0.7451459,2016-12-01 19:28:03,64.76752912068149
-0.24440002,-1.3996124,9.741867,-0.0013427734,7.6293945E-5,9.1552734E-5,13.0,-0.24013582,-1.3950065,9.703951,-0.005263403,0.0120818615,-0.022274017,-0.05658531,-0.04510285,0.74496675,2016-12-01 19:28:04,68.19508954612002
-0.24372864,-1.3978271,9.768768,1.5258789E-4,-4.7302246E-4,-3.9672852E-4,12.0,-0.24025108,-1.3925722,9.704299,-0.0050780773,0.012435436,-0.0038871765,-0.05651155,-0.044999175,0.74489826,2016-12-01 19:28:05,68.00232363711207
-0.22613525,-1.3975525,9.767044,-4.8828125E-4,9.1552734E-5,1.6784668E-4,12.0,-0.2418719,-1.3915066,9.7044115,-0.0022909641,0.0092025995,-0.022537231,-0.05648706,-0.044968557,0.7448768,2016-12-01 19:28:06,66.81361587845711
-0.22758484,-1.3986359,9.782059,4.5776367E-4,9.1552734E-5,-9.1552734E-5,12.0,-0.23671259,-1.3908757,9.704628,0.010767028,3.3056736E-4,0.020767212,-0.056268025,-0.045011178,0.7447927,2016-12-01 19:28:07,64.35629107134142
-0.24497986,-1.4031067,9.746277,1.2207031E-4,-5.0354004E-4,-3.2043457E-4,12.0,-0.23655526,-1.3928425,9.70435,-0.008200377,0.0011399984,-0.007118225,-0.056361955,-0.045053724,0.74484944,2016-12-01 19:28:08,62.54092765058083
-0.24076843,-1.3953094,9.726929,2.593994E-4,3.8146973E-4,2.4414063E-4,13.0,-0.24006303,-1.3934304,9.70418,0.007886872,-0.0089377165,0.004009247,-0.056531984,-0.045040652,0.74492157,2016-12-01 19:28:09,66.84425954398793
-0.23324585,-1.391571,9.740799,4.4250488E-4,-2.593994E-4,-3.6621094E-4,12.0,-0.23790058,-1.3924222,9.704378,-0.006056547,0.005840063,-0.010313034,-0.056384485,-0.045090552,0.74487215,2016-12-01 19:28:10,68.31766284015002
-0.2348938,-1.3878021,9.739899,-4.5776367E-4,-5.0354004E-4,-3.2043457E-4,12.0,-0.23808765,-1.3947657,9.704038,0.006867856,0.010844469,-0.0034713745,-0.05650015,-0.04516146,0.7449483,2016-12-01 19:28:11,63.28935294448143
-0.23886108,-1.397934,9.749695,5.0354004E-4,4.7302246E-4,2.4414063E-4,12.0,-0.23943558,-1.3948178,9.703997,0.0061649233,0.009631157,-2.527237E-4,-0.05641453,-0.04511666,0.74489456,2016-12-01 19:28:12,67.46916107456889
-0.22744751,-1.4012451,9.758881,4.5776367E-4,-3.6621094E-4,-9.765625E-4,12.0,-0.23354426,-1.3963518,9.703918,0.007965401,0.0019233227,4.1294098E-4,-0.056361794,-0.045318864,0.74493957,2016-12-01 19:28:13,71.76014698178876
-0.25099182,-1.4096985,9.753464,-4.5776367E-4,6.1035156E-4,-3.6621094E-4,12.0,-0.24239293,-1.3968631,9.703629,-0.015608281,-0.015042067,0.00860405,-0.056681376,-0.045099705,0.7450089,2016-12-01 19:28:14,71.45423657995514
-0.24511719,-1.391571,9.7444,2.593994E-4,9.1552734E-5,-5.0354004E-4,12.0,-0.2383336,-1.390774,9.704603,0.0013760626,0.0057393312,-0.0111961365,-0.056437556,-0.044957973,0.7448509,2016-12-01 19:28:15,66.23897582303334
-0.24615479,-1.4194031,9.753632,4.4250488E-4,4.119873E-4,2.4414063E-4,12.0,-0.2410423,-1.3907511,9.70454,-0.0189109,-0.017269492,-0.005250931,-0.05648302,-0.04489806,0.74485093,2016-12-01 19:28:16,65.6182373729225
-0.23504639,-1.4056396,9.731812,1.2207031E-4,6.4086914E-4,-9.0026855E-4,12.0,-0.23471487,-1.395417,9.704025,0.013228491,-0.023326993,-0.003668785,-0.056393553,-0.04530096,0.7449478,2016-12-01 19:28:17,64.70958212280813
-0.23690796,-1.3864288,9.748718,5.0354004E-4,4.7302246E-4,3.0517578E-5,12.0,-0.24011405,-1.3931491,9.704219,0.0040971637,0.007042289,0.013792992,-0.05652489,-0.045027416,0.7449139,2016-12-01 19:28:18,65.57855099437857
-0.24394226,-1.3941193,9.779877,1.2207031E-4,9.1552734E-5,3.0517578E-5,12.0,-0.24090329,-1.3947768,9.703965,-0.001271069,0.008876562,0.023180962,-0.056642722,-0.04506581,0.74498,2016-12-01 19:28:19,65.29569955830806
-0.2424469,-1.3970947,9.738815,8.239746E-4,2.4414063E-4,-7.9345703E-4,12.0,-0.2385799,-1.3926014,9.704335,0.0024635196,0.017314434,-0.02189064,-0.056449324,-0.045056272,0.7448897,2016-12-01 19:28:20,71.43777829526043
-0.2374115,-1.4140625,9.74765,-3.5095215E-4,-2.4414063E-4,-3.6621094E-4,12.0,-0.23651913,-1.3948276,9.704066,0.005008653,0.0059757233,-0.0049934387,-0.05644285,-0.045216456,0.74494123,2016-12-01 19:28:21,72.2781160416383
-0.2348938,-1.3945465,9.760498,1.5258789E-4,3.9672852E-4,-3.9672852E-4,12.0,-0.23363873,-1.3952364,9.704077,0.014594555,0.003120184,0.006105423,-0.056347087,-0.04532955,0.7449366,2016-12-01 19:28:22,72.37171853843016
-0.23934937,-1.4073944,9.775452,2.1362305E-4,2.89917E-4,4.5776367E-5,13.0,-0.23737128,-1.393249,9.704272,0.0017481893,0.016406417,-0.01488781,-0.056424417,-0.045123246,0.74490124,2016-12-01 19:28:23,72.0118267266667
-0.23860168,-1.4151306,9.7473755,-2.89917E-4,-1.373291E-4,-1.5258789E-4,13.0,-0.2356483,-1.3951491,9.7040415,-0.007562652,-0.022376537,0.011668205,-0.056420244,-0.04525876,0.7449454,2016-12-01 19:28:24,72.35394660564648
-0.23924255,-1.3963318,9.723099,-4.8828125E-4,9.1552734E-5,-6.2561035E-4,12.0,-0.23664004,-1.3928658,9.704345,6.7065656E-4,0.0070137978,-0.01771164,-0.05638448,-0.045131993,0.7448862,2016-12-01 19:28:25,70.82244654414976
-0.23431396,-1.4022827,9.740524,2.89917E-4,9.1552734E-5,-1.8310547E-4,12.0,-0.2392631,-1.3926156,9.704317,0.0065260977,-0.009921312,0.020137787,-0.056412116,-0.04505757,0.74487334,2016-12-01 19:28:26,69.14134866015962
-0.22917175,-1.4064331,9.739578,5.79834E-4,3.8146973E-4,-3.6621094E-4,13.0,-0.2417723,-1.3941537,9.704033,-0.0052174777,-0.012735724,0.02537918,-0.05661981,-0.045013156,0.7449517,2016-12-01 19:28:27,56.426364943790794
-0.24287415,-1.4104309,9.771759,1.2207031E-4,6.866455E-4,-3.0517578E-5,12.0,-0.2384424,-1.3918972,9.70444,0.008093983,0.012376785,-0.004292488,-0.05650186,-0.045069925,0.7449179,2016-12-01 19:28:28,59.718257221017225
-0.23638916,-1.3848114,9.746292,2.1362305E-4,-4.4250488E-4,-8.69751E-4,13.0,-0.2375624,-1.3902857,9.704692,-0.013425991,-0.023716927,0.0017080307,-0.056336556,-0.044995394,0.7448182,2016-12-01 19:28:29,61.17962630506932
-0.23200989,-1.4114075,9.736069,3.0517578E-5,6.1035156E-4,-2.746582E-4,12.0,-0.23729123,-1.399784,9.703333,-1.9179285E-4,-0.006198287,-0.0032129288,-0.056723125,-0.04524665,0.7450776,2016-12-01 19:28:30,68.27384363434314
-0.24642944,-1.3940277,9.737289,5.0354004E-4,4.7302246E-4,-3.6621094E-4,12.0,-0.24140497,-1.3921496,9.70433,-0.003972575,0.0045130253,-0.011334419,-0.05649968,-0.045051485,0.7449107,2016-12-01 19:28:31,61.475013062661795
-0.2467041,-1.410141,9.738876,1.2207031E-4,9.1552734E-5,-3.6621094E-4,12.0,-0.23793758,-1.3929713,9.704299,-0.009600729,-0.01859045,-0.024320602,-0.056476388,-0.045139752,0.74493027,2016-12-01 19:28:32,63.125467494192876
-0.23451233,-1.3968506,9.756775,-4.8828125E-4,0.001159668,-5.0354004E-4,13.0,-0.2379865,-1.3947705,9.704039,0.005418867,6.160736E-4,0.022564888,-0.056523565,-0.045138847,0.7449512,2016-12-01 19:28:33,66.73347145975298
-0.22154236,-1.4107056,9.759689,7.6293945E-4,3.9672852E-4,-3.6621094E-4,12.0,-0.23545481,-1.3959372,9.703933,0.0043626875,-0.008694053,0.0029258728,-0.056438208,-0.04529754,0.7449667,2016-12-01 19:28:34,71.16731522323703
-0.24156189,-1.402832,9.763443,1.2207031E-4,9.1552734E-5,-3.6621094E-4,12.0,-0.23675534,-1.3965749,9.70381,0.003576085,0.012867451,0.004995346,-0.05650782,-0.045280192,0.74499214,2016-12-01 19:28:35,65.31951507115728
-0.23890686,-1.4094238,9.759857,3.0517578E-4,4.7302246E-4,-7.6293945E-4,13.0,-0.23594375,-1.3953062,9.704012,-0.0041161478,-0.0051418543,0.012735367,-0.05639114,-0.04516539,0.7449006,2016-12-01 19:28:36,60.29048305332118
-0.2297821,-1.4130707,9.756332,5.0354004E-4,3.0517578E-4,-3.6621094E-4,13.0,-0.23719779,-1.3972785,9.703697,0.009306192,-0.007565975,0.001121521,-0.056594923,-0.045309145,0.7450412,2016-12-01 19:28:37,59.20895315763501
-0.2548523,-1.4181366,9.768478,1.2207031E-4,3.3569336E-4,-3.6621094E-4,13.0,-0.23978242,-1.3999305,9.703252,-0.018815398,-0.013240099,0.013944626,-0.056656007,-0.04534229,0.74507993,2016-12-01 19:28:38,64.46008326425827
-0.2288208,-1.3906097,9.766724,-3.0517578E-5,-1.9836426E-4,-2.1362305E-4,13.0,-0.23242176,-1.3918604,9.704592,-0.0011002421,0.012709856,-0.012476921,-0.056210794,-0.045294885,0.74486345,2016-12-01 19:28:39,61.86120214441832
-0.22627258,-1.3960876,9.744614,0.0013427734,3.9672852E-4,-7.6293945E-5,12.0,-0.23501275,-1.392188,9.704482,0.018501386,0.005607128,0.009871483,-0.056301225,-0.04515864,0.74485785,2016-12-01 19:28:40,69.00685702247644
-0.22451782,-1.3907013,9.73996,1.2207031E-4,0.0012817383,2.4414063E-4,12.0,-0.23478208,-1.392352,9.704464,0.0084564835,0.0020250082,-0.009301186,-0.05629777,-0.045173083,0.7448612,2016-12-01 19:28:41,73.30354276701097
-0.24169922,-1.3908691,9.747803,3.0517578E-4,9.1552734E-5,-3.6621094E-4,13.0,-0.23916934,-1.39206,9.704399,-0.0011200011,0.00882566,-0.024737358,-0.05645423,-0.045014363,0.7448776,2016-12-01 19:28:42,71.54295389637872
-0.2321167,-1.4083252,9.749084,-1.0681152E-4,-9.1552734E-5,-1.373291E-4,12.0,-0.2346579,-1.396545,9.703864,0.001660347,-0.0059313774,0.0041046143,-0.056355115,-0.04540904,0.74496716,2016-12-01 19:28:44,65.19087653243781
-0.23788452,-1.3992767,9.730667,1.2207031E-4,6.4086914E-4,1.6784668E-4,12.0,-0.23470405,-1.3969312,9.703808,-0.00362885,-8.254051E-4,-0.013990402,-0.05634571,-0.04533655,0.7449383,2016-12-01 19:28:45,68.76378653357015
-0.22698975,-1.4062805,9.765839,-4.8828125E-4,2.1362305E-4,-5.0354004E-4,12.0,-0.23331332,-1.3944751,9.704195,-0.0022731572,0.005800724,0.008256912,-0.05631182,-0.045308,0.7449134,2016-12-01 19:28:46,72.98152044213569
-0.2278595,-1.3894501,9.731262,1.2207031E-4,0.0012664795,-6.1035156E-5,12.0,-0.23907335,-1.3905461,9.704618,0.0080818385,0.0055196285,-0.008379936,-0.056402016,-0.044955514,0.74483407,2016-12-01 19:28:47,70.40571735093656
-0.2316742,-1.4116821,9.744827,1.6784668E-4,1.0681152E-4,2.2888184E-4,12.0,-0.23441613,-1.3968822,9.703821,8.176267E-4,-0.01077354,0.0074338913,-0.056429256,-0.04537102,0.7449876,2016-12-01 19:28:48,68.34480425101064
-0.24147034,-1.4002075,9.737869,5.187988E-4,6.866455E-4,-3.6621094E-4,12.0,-0.24011406,-1.3976179,9.703577,0.010111779,0.013288736,-0.009976387,-0.056668244,-0.045210663,0.7450407,2016-12-01 19:28:49,70.7658681199812
-0.22737122,-1.415451,9.744354,1.2207031E-4,3.3569336E-4,-6.1035156E-4,12.0,-0.23676369,-1.3973218,9.703701,0.0024832785,0.002840519,0.018000603,-0.056532096,-0.045310546,0.74501336,2016-12-01 19:28:50,71.93863544138287
-0.23930359,-1.3977661,9.747253,-4.5776367E-4,9.1552734E-5,-3.6621094E-4,12.0,-0.23736471,-1.392873,9.704327,0.0013508648,2.1636486E-4,0.0165596,-0.056412105,-0.04510805,0.7448905,2016-12-01 19:28:51,72.62254329455114
-0.24195862,-1.4060669,9.74794,1.2207031E-4,5.493164E-4,-0.0010986328,12.0,-0.23882248,-1.3947462,9.704021,-0.016139567,-0.012045145,0.015520096,-0.05656505,-0.045098808,0.7449562,2016-12-01 19:28:52,72.57144572003652
-0.24006653,-1.3884125,9.73877,1.2207031E-4,-6.1035156E-4,-6.5612793E-4,13.0,-0.23894313,-1.394752,9.704018,-0.006224349,-0.020282984,0.01589775,-0.056532055,-0.045132294,0.74495274,2016-12-01 19:28:53,67.49540737595483
-0.24023438,-1.4068604,9.765335,2.2888184E-4,0.0011901855,-3.6621094E-4,12.0,-0.2371517,-1.3926684,9.704361,-0.009019583,-0.013132691,0.016545296,-0.056397486,-0.045106787,0.74488354,2016-12-01 19:28:54,66.5145584080741
-0.22784424,-1.3923645,9.747208,1.2207031E-4,9.1552734E-5,-9.765625E-4,12.0,-0.23718184,-1.3961881,9.7038555,0.0033704638,-0.006970763,0.002995491,-0.056511536,-0.04525007,0.74498355,2016-12-01 19:28:55,62.15281781727252
-0.24879456,-1.4201355,9.775223,5.0354004E-4,9.1552734E-5,-1.373291E-4,12.0,-0.23891163,-1.3929741,9.704274,-0.0084206015,-0.019908667,0.022239685,-0.056498434,-0.04506479,0.74491465,2016-12-01 19:28:56,68.93283681746098
-0.2230072,-1.3966675,9.78241,-4.119873E-4,-5.340576E-4,-3.6621094E-4,12.0,-0.23227493,-1.3933133,9.704386,-0.011624604,-6.175041E-5,0.007062912,-0.056233853,-0.045296345,0.74487436,2016-12-01 19:28:57,72.70258700681654
-0.2421112,-1.3965302,9.742081,1.2207031E-4,-2.746582E-4,-8.392334E-4,13.0,-0.2384018,-1.3915422,9.704492,-7.466823E-4,-0.0053015947,-0.004261017,-0.056359623,-0.04504109,0.74484414,2016-12-01 19:28:58,71.18989335777482
-0.23114014,-1.3892059,9.729019,-4.8828125E-4,3.6621094E-4,-3.6621094E-4,12.0,-0.23159628,-1.395381,9.704105,0.031753227,-0.0082376,-0.011478424,-0.056274522,-0.045403786,0.74492913,2016-12-01 19:28:59,67.74151311977086
-0.24028015,-1.3925018,9.75386,7.324219E-4,-5.187988E-4,-3.8146973E-4,12.0,-0.23201427,-1.394447,9.70423,-0.0011383891,0.0014806986,-3.71933E-5,-0.056260362,-0.04535152,0.744905,2016-12-01 19:29:00,69.96149876392852
-0.22090149,-1.406311,9.750717,-2.89917E-4,-7.4768066E-4,-3.6621094E-4,12.0,-0.2289514,-1.3916312,9.704706,0.011364043,-0.011766553,-0.0109062195,-0.056120656,-0.045307152,0.7448271,2016-12-01 19:29:01,61.67995664519934
-0.23138428,-1.3956299,9.741013,4.7302246E-4,9.1552734E-5,-9.765625E-4,12.0,-0.235404,-1.394766,9.7041025,-0.0076025873,-0.009582043,0.024690628,-0.056371816,-0.045262035,0.7449248,2016-12-01 19:29:02,68.68112808897364
-0.2321167,-1.4049072,9.7716675,1.2207031E-4,2.593994E-4,-7.9345703E-4,12.0,-0.23180059,-1.3952848,9.704115,9.238422E-4,-0.00557673,0.017002106,-0.05622177,-0.045354605,0.7448887,2016-12-01 19:29:03,69.58152993962128
-0.22851563,-1.4087524,9.76207,2.4414063E-4,-4.119873E-4,1.2207031E-4,12.0,-0.23032828,-1.3898597,9.704928,0.011831701,-0.024234772,0.0042037964,-0.05608806,-0.045239534,0.7447894,2016-12-01 19:29:04,68.62811794457862
-0.22949219,-1.4023743,9.750549,1.2207031E-4,9.1552734E-5,-3.6621094E-4,12.0,-0.23317467,-1.3910813,9.704685,0.007033214,0.006664872,-0.012684822,-0.05619625,-0.04517478,0.74481606,2016-12-01 19:29:05,71.98238665752959
-0.22741699,-1.397232,9.7487335,-1.8310547E-4,-1.5258789E-5,1.5258789E-5,12.0,-0.23045383,-1.3900547,9.704897,0.011416703,-0.009782314,-0.005681038,-0.056089297,-0.045243107,0.7447912,2016-12-01 19:29:06,64.26317790763255
-0.24111938,-1.4241028,9.754868,4.272461E-4,-3.3569336E-4,6.2561035E-4,12.0,-0.23067884,-1.3962836,9.703997,-0.012253359,-0.029022336,-0.0055599213,-0.056271963,-0.045456555,0.7449459,2016-12-01 19:29:07,66.96699539652151
