ACC_X,ACC_Y,ACC_Z,GYRO_X,GYRO_Y,GYRO_Z,LIGH_1,GRAV_X,GRAV_Y,GRAV_Z,LINACC_X,LINACC_Y,LINACC_Z,ROTVEC_X,ROTVEC_Y,ROTVEC_Z,TIME,VOICE
5.056554,-0.08619126,7.872135,-0.0012217305,0.0,0.019547688,2.0,5.2871,-0.3193,8.253099,-0.0039,0.2267,-0.024699999,0.058,-0.275396,0.253999,2017-06-04 21:55:57,35.1215116292262
5.056554,-0.095768064,7.8529816,0.012217305,-0.0012217305,0.02076942,2.0,5.2911,-0.1267,8.2557,-0.0077,0.0427,0.0021,0.06695,-0.27311,0.250741,2017-06-04 21:55:58,39.56453132709049
5.085284,-0.076614454,7.833828,-0.0012217305,0.004886922,0.02443461,2.0,5.2934,-0.1108,8.254499,0.017199999,0.0359,-0.057,0.067354,-0.273462,0.248665,2017-06-04 21:55:59,44.42767643604108
5.056554,-0.08619126,7.8625584,0.0061086523,0.0,0.021991149,2.0,5.2931,-0.0872,8.255,-4.9999997E-4,0.0244,-0.0123,0.069004,-0.272671,0.250736,2017-06-04 21:56:00,43.93871130046218
5.0757074,-0.076614454,7.881712,-0.0061086523,0.0012217305,0.02687807,2.0,5.2981997,-0.0788,8.2518,0.026099999,0.0069999998,0.024899999,0.068547,-0.273253,0.247393,2017-06-04 21:56:01,45.44801963191012
5.056554,-0.08619126,7.8625584,-0.0036651916,0.0,0.015882496,2.0,5.2967,-0.090399995,8.2526,0.0117999995,0.0071,0.0019999999,0.068146996,-0.273027,0.24817,2017-06-04 21:56:03,39.897770977369944
5.0661306,-0.076614454,7.872135,0.012217305,0.0,0.019547688,2.0,5.2999,-0.0892,8.2506,0.022799999,0.0064999997,0.0274,0.068148,-0.273297,0.247794,2017-06-04 21:56:04,40.23340055817562
5.056554,-0.076614454,7.881712,0.009773844,-0.0036651916,0.013439035,2.0,5.2952,-0.0815,8.2537,-0.0025,0.0109,0.0015,0.067598,-0.27323,0.245104,2017-06-04 21:56:05,42.948881906120036
5.046977,-0.05746084,7.8625584,0.0012217305,0.0,0.017104227,2.0,5.2995,-0.0782,8.250899,-0.0163,0.0255,-0.018199999,0.06789,-0.273326,0.245019,2017-06-04 21:56:06,42.76330519399228
5.056554,-0.06703765,7.8625584,0.009773844,-0.012217305,0.019547688,2.0,5.3173,-0.0835,8.2395,-0.012499999,0.0196,0.0277,0.068737,-0.274137,0.247696,2017-06-04 21:56:07,42.722263426179666
5.046977,-0.076614454,7.8529816,-0.0036651916,-0.0036651916,0.019547688,2.0,5.2945,-0.0813,8.2542,0.0084,0.0186,0.014099999,0.068686,-0.272827,0.248546,2017-06-04 21:56:08,42.71780420701158
5.0374002,-0.10534488,7.8529816,0.0061086523,0.0036651916,0.015882496,2.0,5.3101997,-0.0942,8.243899,-0.0327,-0.0066,-0.0144,0.067861,-0.274027,0.247376,2017-06-04 21:56:09,40.591056198221445
5.056554,-0.095768064,7.881712,0.0061086523,-0.0012217305,0.017104227,2.0,5.304,-0.0799,8.248,-0.0095999995,-0.012,0.0061,0.068792,-0.273372,0.248129,2017-06-04 21:56:10,42.162663790130054
5.056554,-0.08619126,7.8625584,0.0012217305,-0.002443461,0.02076942,2.0,5.3002996,-0.0806,8.2504,0.0142,0.0179,0.0201,0.068702,-0.27317,0.248151,2017-06-04 21:56:11,39.531586640405294
5.046977,-0.095768064,7.872135,0.008552114,-0.0061086523,0.015882496,4.0,5.3011,-0.0804,8.2499,-0.0155,-0.0079,-0.0061,0.06853,-0.273198,0.248205,2017-06-04 21:56:12,40.280080050538615
5.0374002,-0.076614454,7.872135,0.002443461,0.0036651916,0.019547688,4.0,5.3069,-0.0841,8.246099,-0.0435,0.0117999995,-0.0199,0.067893,-0.27377298,0.245667,2017-06-04 21:56:13,44.09633888324191
5.0278234,-0.06703765,8.034941,0.0036651916,0.0,0.02321288,2.0,5.2918997,-0.0722,8.255899,-0.0011,-0.0082,0.023799999,0.068775,-0.273069,0.247283,2017-06-04 21:56:14,42.34608028860635
5.0661306,-0.08619126,7.8625584,0.0061086523,-0.0012217305,0.02443461,2.0,5.2966,-0.0914,8.2527,0.0206,0.0477,0.0422,0.067636,-0.273229,0.246623,2017-06-04 21:56:15,42.35016721183481
5.046977,-0.076614454,7.8912888,0.0061086523,-0.0012217305,0.017104227,2.0,5.3089,-0.0898,8.2448,-0.009,0.0178,0.0416,0.067363,-0.27401,0.244952,2017-06-04 21:56:16,44.43712674845369
5.0661306,-0.076614454,7.881712,0.009773844,0.0036651916,0.019547688,2.0,5.2950997,-0.081099994,8.2537,0.037499998,0.0072999997,0.0436,0.068427,-0.272873,0.247473,2017-06-04 21:56:17,44.7513313886379
5.056554,-0.05746084,7.8912888,-0.0061086523,0.0,0.02321288,2.0,5.2978997,-0.086399995,8.2519,0.0202,-0.0156,0.0094,0.068189,-0.273164,0.247564,2017-06-04 21:56:18,46.616957875834125
5.046977,-0.095768064,7.872135,-0.0036651916,-0.007330383,0.02443461,4.0,5.2991,-0.0801,8.2512,0.0094,-0.0105,0.0332,0.068439,-0.273234,0.247487,2017-06-04 21:56:19,46.42808854534952
5.056554,-0.095768064,7.8625584,0.002443461,-0.004886922,0.017104227,2.0,5.2977,-0.0836,8.2521,-4.9999997E-4,-0.0084999995,-0.0126,0.068319,-0.273114,0.247524,2017-06-04 21:56:20,45.68163428169203
5.056554,-0.08619126,7.881712,-0.004886922,-0.002443461,0.02321288,2.0,5.2997,-0.0711,8.250899,-0.006,-5.9999997E-4,-0.0030999999,0.068943,-0.273059,0.247351,2017-06-04 21:56:21,45.08049246473776
5.0661306,-0.095768064,7.881712,-0.009773844,-0.0012217305,0.017104227,2.0,5.3037996,-0.0784,8.248199,0.0212,-0.0134,-0.050899997,0.068658,-0.27339,0.247439,2017-06-04 21:56:22,45.67347903808216
5.0661306,-0.08619126,7.8912888,0.0012217305,-0.002443461,0.02321288,2.0,5.3008,-0.0758,8.2501,0.0106,-0.0061,0.0253,0.068738,-0.273188,0.247421,2017-06-04 21:56:23,42.732065362645535
5.0374002,-0.05746084,7.881712,0.0061086523,-0.0012217305,0.018325957,2.0,5.2948,-0.0778,8.254,0.0061999997,-0.021399999,-0.0398,0.06846,-0.272991,0.247498,2017-06-04 21:56:24,43.969177802441735
5.0661306,-0.06703765,7.843405,-0.013439035,0.012217305,0.02687807,2.0,5.3008,-0.0945,8.2499,0.0122,0.0016999999,0.0084,0.067918,-0.273413,0.247881,2017-06-04 21:56:25,40.8562243955914
5.046977,-0.08619126,7.881712,0.008552114,-0.002443461,0.02076942,2.0,5.302,-0.0984,8.2491,-0.0139999995,0.017199999,0.009099999,0.067415,-0.273577,0.247158,2017-06-04 21:56:26,40.79818196363449
5.0757074,-0.10534488,7.833828,0.0036651916,-0.0012217305,0.019547688,2.0,5.3061,-0.088,8.2466,0.014099999,-0.014099999,-0.0319,0.067668,-0.273787,0.245619,2017-06-04 21:56:27,40.86280840632621
5.0661306,-0.06703765,7.8912888,0.0036651916,-0.0012217305,0.02076942,2.0,5.3016,-0.080299996,8.249599,0.0109,0.0095,0.0188,0.067873,-0.273488,0.245511,2017-06-04 21:56:28,41.36701001670029
5.0661306,-0.095768064,7.881712,-0.0061086523,-0.002443461,0.021991149,2.0,5.2971,-0.0766,8.2525,-0.009,-0.015,-0.0074,0.06806,-0.273139,0.24545799,2017-06-04 21:56:29,43.99942179768391
5.0374002,-0.095768064,7.872135,0.004886922,-0.0012217305,0.02076942,2.0,5.2994,-0.0743,8.2511,-0.0307,-0.0189,-0.0222,0.06824,-0.273042,0.245401,2017-06-04 21:56:30,40.967765012215374
5.046977,-0.095768064,7.9008656,-0.0036651916,0.0012217305,0.013439035,2.0,5.3015,-0.076,8.2497,-0.018299999,-0.015299999,0.025799999,0.068161,-0.273485,0.245419,2017-06-04 21:56:31,42.063957942204055
5.046977,-0.06703765,7.8529816,0.0061086523,-0.0036651916,0.02076942,2.0,5.2974997,-0.067099996,8.2523,-4.0E-4,-0.0046,-0.0128999995,0.068517,-0.273041,0.245319,2017-06-04 21:56:32,41.247438032180945
5.046977,-0.06703765,7.8912888,-0.008552114,0.0,0.019547688,2.0,5.296,-0.08,8.2532,-0.0128999995,0.017199999,0.0081,0.06789,-0.273088,0.245508,2017-06-04 21:56:33,40.353838296306236
5.056554,-0.095768064,7.8625584,0.002443461,0.0012217305,0.02076942,2.0,5.2948,-0.0792,8.254,0.0198,-0.0128999995,0.012999999,0.067905,-0.273038,0.245507,2017-06-04 21:56:34,41.50823765632297
5.0757074,-0.076614454,7.881712,0.0,0.002443461,0.021991149,2.0,5.2991,-0.0694,8.2513,0.0036,-0.021399999,0.010799999,0.068425,-0.27328,0.245354,2017-06-04 21:56:35,42.37217124805167
5.056554,-0.095768064,7.872135,0.0061086523,-0.0036651916,0.02076942,2.0,5.2995996,-0.078099996,8.250899,0.014599999,0.0056999996,-0.0199,0.068028,-0.273295,0.245475,2017-06-04 21:56:36,46.44476394708023
5.0182467,-0.038307227,7.881712,0.010995574,0.0,0.021991149,2.0,5.2976,-0.0722,8.2522,-0.041899998,0.039499998,0.0022,0.06827,-0.273078,0.245409,2017-06-04 21:56:37,47.08005144160338
5.094861,-0.05746084,7.8529816,0.014660766,-0.007330383,0.019547688,4.0,5.2981,-0.0713,8.2519,0.035299998,0.019,-0.0268,0.06833,-0.273128,0.245394,2017-06-04 21:56:38,40.276311452570624
5.085284,-0.076614454,7.833828,0.0012217305,0.0036651916,0.017104227,2.0,5.2977,-0.07,8.2522,-0.0034999999,-0.0016999999,0.0317,0.068384,-0.273088,0.245381,2017-06-04 21:56:39,40.09146222419507
5.0374002,-0.10534488,7.872135,0.008552114,0.004886922,0.009773844,2.0,5.297,-0.0756,8.2526,-0.0199,-0.0246,-0.0025,0.06806,-0.273175,0.245476,2017-06-04 21:56:40,49.86773315296758
5.056554,-0.10534488,7.8625584,0.0012217305,-0.0012217305,0.02076942,2.0,5.2973,-0.072399996,8.252399,-0.0106,-0.0288,-0.029099999,0.068268,-0.273096,0.245418,2017-06-04 21:56:41,43.895354376337494
5.0661306,-0.076614454,7.8912888,0.002443461,0.0,0.021991149,2.0,5.2959,-0.072299995,8.2533,0.0042,0.0101,-0.0188,0.06825,-0.27301,0.245424,2017-06-04 21:56:42,43.174288186865354
5.046977,-0.08619126,7.8912888,0.013439035,-0.007330383,0.015882496,2.0,5.2939,-0.076299995,8.254499,-0.0047,-0.0058,-0.0063,0.068035,-0.272954,0.245494,2017-06-04 21:56:43,49.9702510263101
5.056554,-0.095768064,7.833828,-0.0012217305,0.0,0.015882496,2.0,5.2964997,-0.081099994,8.2528,0.0195,-0.0103,-0.0126,0.067807,-0.273187,0.24556,2017-06-04 21:56:44,42.46154728262522
5.0374002,-0.076614454,7.881712,0.008552114,0.0,0.018325957,2.0,5.299,-0.0757,8.2513,-0.02,0.0011,0.0037,0.068216,-0.273037,0.245441,2017-06-04 21:56:45,42.81123279351283
5.056554,-0.08619126,7.833828,0.0012217305,0.0036651916,0.021991149,2.0,5.2938,-0.0736,8.2547,-0.0274,0.0116,-0.0083,0.068165,-0.272909,0.24547,2017-06-04 21:56:46,40.00079862126215
5.0757074,-0.12449849,7.833828,0.008552114,-0.004886922,0.021991149,2.0,5.2995,-0.0736,8.250999,0.0122,-0.049,-0.0468,0.068345,-0.273265,0.245416,2017-06-04 21:56:47,39.7897311705012
5.056554,-0.06703765,7.881712,0.012217305,-0.0012217305,0.019547688,2.0,5.2981997,-0.072399996,8.2518,0.0032,0.010199999,0.0139999995,0.068285,-0.273146,0.245436,2017-06-04 21:56:48,40.6595746921291
5.056554,-0.08619126,7.8912888,0.0012217305,-0.0012217305,0.02321288,2.0,5.2945,-0.0782,8.2542,0.03,-0.0041,-0.0164,0.067961,-0.273006,0.245539,2017-06-04 21:56:49,39.933505205279346
5.046977,-0.095768064,7.8625584,0.004886922,-0.0012217305,0.015882496,2.0,5.2929997,-0.0786,8.2551,-0.0109,-0.013499999,-0.025999999,0.067917,-0.272854,0.245553,2017-06-04 21:56:50,43.486839748854095
5.0757074,-0.095768064,7.8625584,0.002443461,0.0,0.021991149,2.0,5.2924,-0.076799996,8.2555,0.0116,-0.014599999,-0.0343,0.06797,-0.272873,0.245532,2017-06-04 21:56:51,44.03694471527538
5.056554,-0.076614454,7.843405,0.002443461,0.0,0.021991149,2.0,5.2918,-0.080299996,8.255899,0.0154,0.0078,0.029399998,0.067822,-0.272884,0.245583,2017-06-04 21:56:52,38.59651203634679
5.0374002,-0.095768064,7.843405,0.0,-0.0061086523,0.019547688,2.0,5.2971,-0.081599995,8.2525,-0.0061,-0.0115,-0.018199999,0.067841,-0.273008,0.245583,2017-06-04 21:56:53,38.886677479770725
5.0182467,-0.06703765,7.824251,-0.0036651916,-0.002443461,0.02076942,2.0,5.2953997,-0.0765,8.2536,0.0275,-0.0629,0.0495,0.067993,-0.273066,0.245524,2017-06-04 21:56:54,43.121427974888405
5.0278234,-0.05746084,7.9008656,-0.0012217305,-0.002443461,0.021991149,2.0,5.2959,-0.0769,8.2533,-0.0058,-0.0050999997,2.0E-4,0.06804,-0.273069,0.245508,2017-06-04 21:56:55,43.489563635939106
5.056554,-0.095768064,7.9008656,0.014660766,0.0,0.013439035,2.0,5.2991,-0.079799995,8.2512,-0.0081,-0.0094,0.015,0.067806,-0.273248,0.245585,2017-06-04 21:56:56,38.89418753610576
5.056554,-0.05746084,7.881712,0.010995574,0.0012217305,0.014660766,2.0,5.2995996,-0.0757,8.250899,5.9999997E-4,0.0231,0.0128,0.068156,-0.273265,0.245481,2017-06-04 21:56:57,44.40683639870963
5.046977,-0.10534488,7.8625584,0.009773844,-0.004886922,0.017104227,4.0,5.2967,-0.074499995,8.2528,-0.0169,0.029399998,0.0241,0.068295,-0.273056,0.245444,2017-06-04 21:56:58,39.98614700746852
5.056554,-0.076614454,7.8529816,0.004886922,0.0012217305,0.015882496,4.0,5.2946,-0.078499995,8.2541,-0.0050999997,-0.0033999998,-0.0064999997,0.067948,-0.27302,0.245548,2017-06-04 21:56:59,36.765112819629934
5.056554,-0.10534488,7.8912888,0.0061086523,0.0012217305,0.02321288,4.0,5.2962,-0.0722,8.2532,0.0101,-0.028299998,0.0325,0.068243,-0.273101,0.245471,2017-06-04 21:57:00,40.12177376116982
5.0661306,-0.08619126,7.872135,-0.004886922,0.0,0.013439035,2.0,5.3006997,-0.0769,8.250199,-0.0023999999,0.0138,-0.014699999,0.068138,-0.273304,0.245511,2017-06-04 21:57:01,40.94062420497355
5.056554,-0.06703765,7.8625584,0.002443461,-0.0036651916,0.015882496,4.0,5.2984,-0.069299996,8.251699,0.0128,0.0072,0.0042,0.068445,-0.273115,0.245426,2017-06-04 21:57:02,41.10901063978382
5.056554,-0.08619126,7.872135,0.0012217305,-0.0012217305,0.017104227,2.0,5.2985,-0.072,8.2516,0.0069999998,-0.0089,0.0115,0.068285,-0.273189,0.245479,2017-06-04 21:57:03,44.55557598760345
5.056554,-0.095768064,7.8625584,0.007330383,-0.002443461,0.02565634,2.0,5.2985997,-0.0783,8.2515,-0.0162,-0.0133,-0.035099998,0.068027,-0.273237,0.245554,2017-06-04 21:57:04,40.45368704458302
5.0757074,-0.06703765,7.8529816,0.0012217305,-0.002443461,0.014660766,2.0,5.2957,-0.0777,8.2534,-0.0137,-0.012399999,-0.0464,0.067946,-0.273104,0.245587,2017-06-04 21:57:05,44.16734225171551
5.046977,-0.095768064,7.872135,0.002443461,-0.002443461,0.028099801,2.0,5.3002996,-0.0748,8.2505,-0.0133,0.0127,0.0218,0.068217,-0.273288,0.245507,2017-06-04 21:57:06,39.42073037227337
5.046977,-0.10534488,7.8912888,-0.0012217305,0.0,0.015882496,4.0,5.2977,-0.0708,8.2522,8.0E-4,-0.0307,0.0325,0.068366,-0.273046,0.245471,2017-06-04 21:57:07,39.12624618894924
5.056554,-0.076614454,7.9008656,-0.002443461,0.0,0.02565634,2.0,5.2973,-0.0769,8.252399,0.027999999,-0.0341,-0.0023999999,0.068075,-0.273217,0.245557,2017-06-04 21:57:08,39.40381213758847
5.085284,-0.05746084,7.8529816,0.012217305,0.0,0.014660766,2.0,5.2915998,-0.076,8.256,-0.0011999999,0.0036,0.023699999,0.068036,-0.272814,0.245573,2017-06-04 21:57:09,40.01508788765372
5.056554,-0.10534488,7.8912888,0.0,-0.0061086523,0.017104227,2.0,5.2985997,-0.080299996,8.2515,0.018199999,-0.0218,0.0436,0.067916,-0.273141,0.245622,2017-06-04 21:57:10,40.70087472678839
5.056554,-0.08619126,7.833828,-0.0012217305,0.0,0.02565634,2.0,5.3016996,-0.0756,8.249499,-0.0058,-0.0061999997,-0.0418,0.068206,-0.273377,0.245527,2017-06-04 21:57:11,39.09891849150778
5.0374002,-0.095768064,7.8912888,0.0061086523,0.002443461,0.018325957,2.0,5.2999997,-0.076699995,8.2506,0.0167,0.0029,-0.0106999995,0.068234,-0.273411,0.245516,2017-06-04 21:57:12,39.06179090773805
5.0278234,-0.06703765,7.8912888,-0.002443461,0.002443461,0.018325957,2.0,5.295,-0.0752,8.2539,-0.0122,0.0030999999,-0.0311,0.068129,-0.272991,0.245565,2017-06-04 21:57:13,45.468774701292716
4.9799395,-0.10534488,8.025364,0.012217305,-0.0036651916,0.015882496,2.0,5.2778997,-0.0743,8.2649,-0.072299995,-0.0251,0.1431,0.067964,-0.272591,0.24562,2017-06-04 21:57:14,47.17315478707907
5.0374002,-0.08619126,7.9008656,0.0,0.002443461,0.02321288,2.0,5.3009,-0.079799995,8.25,-0.0056999996,-0.0157,-0.035499997,0.06789,-0.273353,0.244605,2017-06-04 21:57:15,40.30445194620653
5.056554,-0.076614454,7.8529816,-0.0012217305,-0.0012217305,0.015882496,2.0,5.3036,-0.083799995,8.248199,0.015999999,-0.008599999,0.0453,0.067466,-0.273683,0.24433699,2017-06-04 21:57:16,38.66890537622273
5.0661306,-0.08619126,7.833828,0.009773844,-0.0012217305,0.02076942,2.0,5.296,-0.0756,8.2532,0.0083,-0.0058999998,-0.048,0.067692,-0.273131,0.244183,2017-06-04 21:57:17,41.132951854608244
5.0661306,-0.076614454,7.8625584,-0.008552114,0.0,0.02321288,2.0,5.3023,-0.0835,8.2491,-0.0041,0.0111,-0.023699999,0.067436,-0.27361,0.244265,2017-06-04 21:57:18,44.547879741823664
5.056554,-0.06703765,7.8912888,0.007330383,0.0,0.014660766,2.0,5.297,-0.0843,8.2525,0.0126,0.0011999999,-0.0016,0.067339,-0.27324,0.244297,2017-06-04 21:57:19,41.786224104126426
5.056554,-0.08619126,7.881712,0.0012217305,-0.0012217305,0.014660766,2.0,5.2977,-0.074,8.2521,-0.0187,-0.0078,-0.0398,0.067819,-0.273234,0.244147,2017-06-04 21:57:20,43.296774871843986
5.056554,-0.06703765,7.872135,0.0061086523,-0.007330383,0.010995574,2.0,5.2939997,-0.0711,8.2546,0.0061999997,0.0128999995,0.0021,0.06768,-0.273109,0.244045,2017-06-04 21:57:21,44.74410778607995
5.056554,-0.08619126,7.872135,0.002443461,-0.0012217305,0.019547688,2.0,5.2908998,-0.081999995,8.2564,0.0095,-0.0099,0.0098,0.068132,-0.27278998,0.24697,2017-06-04 21:57:22,43.905696759938735
5.0661306,-0.095768064,7.8625584,0.007330383,-0.002443461,0.015882496,2.0,5.302,-0.0808,8.2493,0.0056,-0.0015,-0.0036,0.068095,-0.273428,0.246034,2017-06-04 21:57:23,43.984711516174215
5.046977,-0.08619126,7.8912888,0.010995574,0.0,0.018325957,2.0,5.2927,-0.0824,8.2553,-2.0E-4,-0.0016999999,0.0232,0.068053,-0.272911,0.246333,2017-06-04 21:57:24,41.01633728998273
5.0278234,-0.08619126,7.843405,0.009773844,-0.002443461,0.017104227,2.0,5.2973,-0.084,8.2523,-0.0298,0.0016999999,-0.0327,0.06795,-0.27318498,0.246368,2017-06-04 21:57:26,40.69708093443602
5.056554,-0.06703765,7.872135,0.002443461,0.0061086523,0.019547688,2.0,5.3047,-0.0808,8.2476,0.0018,2.9999999E-4,-0.018099999,0.068134,-0.273612,0.246308,2017-06-04 21:57:27,38.35400020074357
5.046977,-0.076614454,7.872135,0.0036651916,-0.002443461,0.019547688,4.0,5.2998,-0.0841,8.2507,-0.0013,0.0016999999,0.039499998,0.06798,-0.273324,0.246348,2017-06-04 21:57:28,39.64973215798021
5.046977,-0.05746084,7.8529816,0.010995574,0.0,0.02443461,2.0,5.2971,-0.083299994,8.2525,0.0033999998,0.029399998,-0.0019999999,0.068018,-0.273157,0.246335,2017-06-04 21:57:29,43.0129276610247
5.0278234,-0.095768064,7.8529816,0.002443461,0.002443461,0.017104227,2.0,5.2955,-0.079799995,8.2535,-0.020399999,0.0063,-0.0095,0.068167,-0.27297,0.246293,2017-06-04 21:57:30,45.6802369653809
5.0661306,-0.10534488,7.843405,0.004886922,0.0,0.021991149,2.0,5.2977,-0.076299995,8.2521,0.009099999,0.0139,-0.003,0.068317,-0.273108,0.246241,2017-06-04 21:57:31,42.74519225926529
5.056554,-0.08619126,7.8912888,0.0036651916,-0.007330383,0.019547688,2.0,5.296,-0.080699995,8.2532,0.0025,-0.0016,0.0143,0.068066,-0.272969,0.246319,2017-06-04 21:57:32,42.508133653618955
5.046977,-0.06703765,7.881712,0.008552114,-0.0012217305,0.013439035,2.0,5.2962,-0.0744,8.253099,-0.0104,0.0121,0.0037,0.068387,-0.273001,0.246232,2017-06-04 21:57:33,45.7096857988562
5.0661306,-0.06703765,7.872135,0.0012217305,-0.0036651916,0.02076942,2.0,5.2948,-0.0774,8.254,0.0037,-0.0050999997,-0.0023999999,0.068244,-0.272945,0.246267,2017-06-04 21:57:34,38.65198207208474
5.0661306,-0.076614454,7.8529816,0.013439035,-0.004886922,0.010995574,2.0,5.2999997,-0.0729,8.2507,0.005,-0.009099999,0.015999999,0.068516,-0.273195,0.246193,2017-06-04 21:57:35,40.967352829077626
5.046977,-0.095768064,7.872135,0.010995574,0.0036651916,0.017104227,4.0,5.2936997,-0.0788,8.2547,-0.0103,-0.012399999,-0.0093,0.068123,-0.272972,0.246309,2017-06-04 21:57:36,43.03368606579774
5.0757074,-0.076614454,7.872135,0.0036651916,0.002443461,0.017104227,4.0,5.2962,-0.077,8.253099,-0.011899999,0.0053,-0.0019999999,0.068216,-0.27295,0.246284,2017-06-04 21:57:37,39.50432023023357
5.0374002,-0.08619126,7.8625584,0.0012217305,-0.002443461,0.019547688,4.0,5.2976,-0.0713,8.2522,0.018099999,0.009,0.0206,0.068558,-0.273041,0.246185,2017-06-04 21:57:38,41.66592583078489
5.046977,-0.08619126,7.8625584,0.004886922,0.0,0.018325957,2.0,5.298,-0.0775,8.2519,-0.0254,-0.0037,-0.035499997,0.068242,-0.273145,0.246279,2017-06-04 21:57:39,45.14365181116482
5.0374002,-0.08619126,7.8625584,0.010995574,0.0,0.018325957,2.0,5.2977,-0.0755,8.2522,-0.021399999,-0.0064,-0.014699999,0.068362,-0.273095,0.246252,2017-06-04 21:57:40,40.87976023906417
5.0661306,-0.076614454,7.8912888,-0.0012217305,-0.0036651916,0.02076942,2.0,5.2941,-0.076,8.254499,-0.0050999997,-0.0056,-0.0323,0.068263,-0.27289099,0.246285,2017-06-04 21:57:41,41.90400207974391
5.056554,-0.11492168,7.8912888,0.014660766,-0.002443461,0.017104227,2.0,5.2925,-0.0744,8.2555,-0.011299999,0.0121,-0.0446,0.068338,-0.272793,0.246263,2017-06-04 21:57:42,42.43423197876987
5.056554,-0.095768064,7.881712,0.015882496,-0.0036651916,0.019547688,2.0,5.2942,-0.074499995,8.2544,0.0072999997,-0.0150999995,0.011,0.068246,-0.27289099,0.246292,2017-06-04 21:57:43,42.12563286439848
5.056554,-0.095768064,7.881712,-0.002443461,-0.0012217305,0.019547688,2.0,5.2992,-0.074999996,8.2512,0.0209,-0.0058999998,0.0288,0.068357,-0.273205,0.24626,2017-06-04 21:57:44,45.749272875491016
5.046977,-0.06703765,7.8529816,0.0012217305,0.0012217305,0.019547688,2.0,5.2984,-0.0766,8.251699,0.0218,-0.0055,-0.0014,0.06832,-0.273149,0.246267,2017-06-04 21:57:45,47.07864236521614
5.046977,-0.10534488,7.8625584,0.010995574,0.0012217305,0.017104227,2.0,5.3005,-0.0734,8.250299,0.0074,-0.028299998,0.021,0.068506,-0.27323,0.246219,2017-06-04 21:57:46,41.689489176558624
5.046977,-0.076614454,7.9008656,0.0036651916,-0.002443461,0.018325957,2.0,5.295,-0.076699995,8.253799,-0.0041,0.0246,-0.049799997,0.06827,-0.273059,0.246293,2017-06-04 21:57:47,41.69974367934621
5.056554,-0.05746084,7.881712,0.0,0.0036651916,0.02076942,2.0,5.2971,-0.076799996,8.2525,-0.0061999997,-0.0345,-0.022599999,0.068293996,-0.273081,0.246285,2017-06-04 21:57:48,45.09065922463263
5.0278234,-0.10534488,7.9104424,-0.0036651916,-0.0012217305,0.02565634,2.0,5.2943997,-0.076,8.2542,-0.0185,-0.028099999,0.0618,0.068514,-0.27328,0.246224,2017-06-04 21:57:49,40.01572079443882
5.0661306,-0.06703765,7.881712,0.017104227,0.0012217305,0.014660766,2.0,5.2957,-0.0805,8.2534,0.0186,0.0178,0.0174,0.068096,-0.273048,0.246339,2017-06-04 21:57:50,40.75299749201852
5.046977,-0.08619126,7.8625584,0.004886922,-0.0012217305,0.02321288,2.0,5.2935,-0.081999995,8.2548,0.0067,-0.0101,-7.0E-4,0.067993,-0.27293,0.246374,2017-06-04 21:57:51,42.8938710668904
5.0278234,-0.06703765,7.8625584,0.004886922,-0.004886922,0.014660766,4.0,5.2935,-0.0725,8.2549,0.0246,-0.0093,0.0164,0.068443,-0.272821,0.246233,2017-06-04 21:57:52,47.68885847084425
5.0374002,-0.095768064,7.881712,0.007330383,-0.0012217305,0.014660766,2.0,5.2963,-0.0757,8.253,-0.0134,-0.0148,0.0122,0.068252,-0.272977,0.246292,2017-06-04 21:57:53,46.2432322807416
5.0278234,-0.08619126,7.8625584,-0.008552114,0.002443461,0.02076942,2.0,5.2981997,-0.0818,8.251699,-0.0202,-4.9999997E-4,0.0036,0.068073,-0.273206,0.24635,2017-06-04 21:57:54,42.29449533736802
5.056554,-0.076614454,7.8625584,0.018325957,-0.0036651916,0.010995574,2.0,5.2932997,-0.0795,8.2549,-0.013599999,-0.0018,0.0352,0.06806,-0.272855,0.246359,2017-06-04 21:57:55,42.01567121431669
5.056554,-0.06703765,7.8529816,0.012217305,-0.004886922,0.017104227,2.0,5.298,-0.0808,8.2519,-0.0047,0.0083,0.0164,0.06812,-0.273182,0.246346,2017-06-04 21:57:56,39.87896378351935
5.0374002,-0.11492168,7.8625584,0.007330383,0.0,0.019547688,2.0,5.2981997,-0.0841,8.251699,-0.0081,-0.0267,0.0050999997,0.067904,-0.273194,0.246418,2017-06-04 21:57:57,38.135409595823205
5.046977,-0.076614454,7.872135,-0.007330383,0.0036651916,0.013439035,2.0,5.2936997,-0.0821,8.2546,-9.0E-4,0.0016999999,-0.029,0.067928,-0.273041,0.246418,2017-06-04 21:57:58,38.4419535986014
5.0278234,-0.06703765,7.9008656,0.0,-0.0012217305,0.018325957,2.0,5.2956,-0.076799996,8.2535,0.0116,0.0045,-0.007999999,0.068278,-0.272991,0.246323,2017-06-04 21:57:59,39.90119334617826
5.046977,-0.08619126,7.872135,0.018325957,-0.004886922,0.015882496,2.0,5.2967997,-0.0844,8.2526,-0.019299999,5.9999997E-4,-0.0162,0.068031,-0.273201,0.24639,2017-06-04 21:58:00,42.58112390174361
5.046977,-0.095768064,7.8625584,0.008552114,-0.002443461,0.019547688,4.0,5.2983,-0.0808,8.251699,-0.021599999,-0.011,-0.0289,0.068133,-0.273194,0.246366,2017-06-04 21:58:01,45.32812383202335
4.999093,-0.08619126,7.9008656,-0.0061086523,0.0,0.019547688,4.0,5.2936997,-0.0796,8.2547,-0.0072999997,-0.0025,-0.0117999995,0.068176,-0.273069,0.246363,2017-06-04 21:58:02,47.23210593900714
5.046977,-0.038307227,7.9008656,0.008552114,0.0012217305,0.02076942,4.0,5.2941,-0.08,8.2544,-0.038799997,-0.0117,-0.0242,0.06811,-0.272947,0.246388,2017-06-04 21:58:03,39.124715745964316
5.046977,-0.06703765,7.8625584,0.004886922,0.0012217305,0.02321288,4.0,5.295,-0.0712,8.2539,-0.010799999,0.007999999,-0.0191,0.068591,-0.272871,0.246243,2017-06-04 21:58:04,39.80775773962621
5.046977,-0.08619126,7.8529816,0.013439035,0.002443461,0.018325957,4.0,5.2945,-0.077,8.2541,0.0072,-0.0055,-0.018,0.068277,-0.272897,0.24634,2017-06-04 21:58:05,50.659564373532106
5.0374002,-0.095768064,7.9008656,0.0012217305,-0.0036651916,0.021991149,4.0,5.2945,-0.0777,8.2541,0.0524,0.0050999997,0.0174,0.068229,-0.272942,0.24635799,2017-06-04 21:58:06,47.930262500255225
5.056554,-0.06703765,7.8625584,0.009773844,0.0,0.015882496,4.0,5.2901998,-0.074499995,8.257,0.0255,0.0122,0.0158,0.068324,-0.272758,0.24632,2017-06-04 21:58:07,47.898584136387626
5.0661306,-0.095768064,7.872135,-0.0061086523,0.004886922,0.02565634,4.0,5.2957997,-0.0779,8.2533,0.014099999,-0.0139999995,8.0E-4,0.068236,-0.273017,0.24634899,2017-06-04 21:58:08,43.379686968136554
5.046977,-0.08619126,7.843405,0.013439035,-0.0012217305,0.014660766,4.0,5.2941,-0.0766,8.2544,0.0,0.0234,0.0033999998,0.068281,-0.272841,0.246335,2017-06-04 21:58:09,38.916483342582346
5.0661306,-0.076614454,7.8912888,0.0061086523,0.002443461,0.02076942,4.0,5.2932,-0.085599996,8.2549,0.0198,-0.0264,0.0196,0.066004,-0.273419,0.240255,2017-06-04 21:58:10,64.76325263971235
5.056554,-0.06703765,7.8529816,-0.002443461,0.0012217305,0.018325957,2.0,5.2953997,-0.0925,8.2535,0.0098,0.027199998,-0.0133,0.068113,-0.272966,0.248194,2017-06-04 21:58:11,48.90851981560211
5.0661306,-0.06703765,7.881712,0.010995574,-0.004886922,0.017104227,2.0,5.2957,-0.0808,8.2534,-0.0148,0.0075,-0.0164,0.068202,-0.272952,0.246638,2017-06-04 21:58:12,39.4569848922852
5.0661306,-0.08619126,7.881712,0.0061086523,0.0012217305,0.017104227,2.0,5.2922,-0.0806,8.2556,-0.0046,-0.0115,0.0,0.068132,-0.272832,0.246668,2017-06-04 21:58:13,41.36264536546632
5.056554,-0.076614454,7.872135,0.0,0.002443461,0.02076942,2.0,5.2929,-0.0757,8.255199,0.018,0.0045,0.0177,0.068326,-0.272869,0.246614,2017-06-04 21:58:14,40.656229483098805
5.046977,-0.06703765,7.8529816,-0.002443461,0.0,0.02076942,2.0,5.2960997,-0.079799995,8.253099,-0.0117,0.0173,-0.027999999,0.068227,-0.273038,0.246641,2017-06-04 21:58:15,40.51889774707038
5.0374002,-0.08619126,7.8912888,0.0061086523,0.0036651916,0.02076942,2.0,5.2991,-0.072299995,8.2513,-0.0082,-0.019199999,0.0023,0.06862,-0.273087,0.246533,2017-06-04 21:58:16,40.66336118581248
5.056554,-0.08619126,7.9104424,-0.0012217305,0.0,0.017104227,2.0,5.3006,-0.0769,8.250299,-0.015299999,-0.014599999,-0.0491,0.068432,-0.273255,0.246584,2017-06-04 21:58:17,43.35221193343124
5.046977,-0.095768064,7.872135,0.007330383,-0.008552114,0.017104227,2.0,5.2964997,-0.0787,8.2529,2.0E-4,-0.0144,0.009699999,0.068334,-0.27299199,0.246612,2017-06-04 21:58:18,40.06398379032766
5.0757074,-0.076614454,7.872135,0.0036651916,-0.0012217305,0.021991149,2.0,5.3004,-0.0769,8.2504,-0.0221,-0.0044,0.011399999,0.068389,-0.273184,0.246596,2017-06-04 21:58:19,38.78998249081367
5.056554,-0.095768064,7.8529816,0.0,0.0012217305,0.015882496,2.0,5.2977,-0.077,8.2521,-0.0018999999,-0.0049,0.0242,0.068384,-0.273091,0.246601,2017-06-04 21:58:20,42.04578252275367
5.056554,-0.076614454,7.8625584,-0.002443461,0.002443461,0.02443461,2.0,5.2952,-0.080299996,8.2537,5.9999997E-4,0.0077,-0.0163,0.0682,-0.272981,0.246656,2017-06-04 21:58:21,44.811640505255
5.046977,-0.10534488,7.8529816,0.0,0.002443461,0.021991149,2.0,5.2999997,-0.0804,8.2506,-0.0066,-0.021399999,-0.0117,0.06826,-0.273265,0.246637,2017-06-04 21:58:22,40.06607218491803
5.0278234,-0.095768064,7.8625584,-0.007330383,-0.0012217305,0.021991149,2.0,5.2936997,-0.0796,8.2546,0.0276,-0.0037999998,-0.0050999997,0.068282,-0.272952,0.246634,2017-06-04 21:58:23,39.17940833002237
5.0374002,-0.076614454,7.8912888,0.007330383,-0.0012217305,0.02443461,2.0,5.2931,-0.0777,8.255,0.0052,-0.0042999997,-0.0131,0.068285,-0.272845,0.246635,2017-06-04 21:58:24,41.91566629281584
5.0661306,-0.05746084,7.8529816,0.007330383,-0.004886922,0.017104227,2.0,5.2966,-0.0711,8.2528,0.0074,0.0178,-0.028199999,0.068693,-0.272924,0.246513,2017-06-04 21:58:25,38.760211688067876
5.0661306,-0.076614454,7.881712,0.0012217305,-0.007330383,0.018325957,4.0,5.3006997,-0.0788,8.250199,-0.0018999999,-0.0044,-0.0252,0.068399,-0.273226,0.246602,2017-06-04 21:58:26,37.733999136103755
5.046977,-0.076614454,7.8529816,0.0061086523,-0.0036651916,0.017104227,4.0,5.2971997,-0.0742,8.2525,0.0328,-0.0078,0.0273,0.068513,-0.27303,0.246577,2017-06-04 21:58:27,38.89385838911728
5.046977,-0.10534488,7.8529816,0.012217305,0.0012217305,0.010995574,2.0,5.2985,-0.076299995,8.2516,-0.0023999999,-0.024899999,-0.0116,0.068391,-0.273047,0.246618,2017-06-04 21:58:28,38.90745517993037
5.046977,-0.08619126,7.881712,0.0036651916,-0.002443461,0.017104227,2.0,5.2987,-0.0748,8.2515,-0.011399999,-0.0069999998,0.0071,0.068507,-0.273117,0.246581,2017-06-04 21:58:29,39.0955260287418
5.056554,-0.06703765,7.9104424,0.004886922,0.0,0.017104227,2.0,5.3004,-0.073699996,8.2504,-0.0101,-0.0196,-0.0095,0.068652,-0.273102,0.246538,2017-06-04 21:58:30,41.52560505528892
5.056554,-0.06703765,7.8625584,0.0061086523,-0.002443461,0.015882496,2.0,5.2991,-0.074999996,8.2513,-0.0257,-0.0166,0.0109,0.068505,-0.273143,0.246582,2017-06-04 21:58:31,47.48236312924238
5.0661306,-0.08619126,7.872135,0.009773844,-0.002443461,0.010995574,2.0,5.2995,-0.072,8.250999,0.0018999999,-0.011399999,-0.0075,0.068762,-0.273183,0.246508,2017-06-04 21:58:32,48.364281463710476
5.056554,-0.08619126,7.872135,0.0,0.0,0.02443461,2.0,5.2974,-0.0817,8.2523,-0.0069,-0.0202,0.011299999,0.068162,-0.273126,0.246674,2017-06-04 21:58:33,58.24468372078317
5.0661306,-0.10534488,7.833828,-0.002443461,0.0012217305,0.019547688,4.0,5.2943,-0.078,8.2543,0.035499997,0.015299999,0.0256,0.068293,-0.272915,0.24664,2017-06-04 21:58:34,46.35826234393061
5.046977,-0.076614454,7.872135,-0.0012217305,0.002443461,0.015882496,2.0,5.3058,-0.083,8.2469,-0.0049,0.0084999995,0.0198,0.068295,-0.273524,0.24663,2017-06-04 21:58:35,47.30528387928247
5.0661306,-0.076614454,7.881712,0.008552114,-0.0012217305,0.018325957,2.0,5.2991,-0.0793,8.2512,0.0019999999,0.0069999998,-0.0011999999,0.068301,-0.273199,0.24663,2017-06-04 21:58:36,46.19974189583013
5.046977,-0.08619126,7.9008656,0.008552114,-0.0012217305,0.02321288,2.0,5.3002,-0.0756,8.2505,-9.0E-4,-0.0067999996,-0.0385,0.068555,-0.273325,0.246568,2017-06-04 21:58:37,49.42981355524192
5.0374002,-0.08619126,7.8625584,0.0036651916,-0.004886922,0.019547688,2.0,5.3009996,-0.0778,8.25,-0.0312,0.0156,-0.0088,0.068406,-0.27328598,0.246627,2017-06-04 21:58:38,40.925254664986724
5.056554,-0.08619126,7.881712,0.0036651916,0.0012217305,0.02321288,2.0,5.3013,-0.078499995,8.2498,0.011299999,-0.0032,0.0321,0.068343,-0.273292,0.246648,2017-06-04 21:58:39,40.977255575545286
5.0757074,-0.095768064,7.8529816,0.0036651916,-0.0036651916,0.021991149,2.0,5.3032,-0.0738,8.2486,0.0087,0.0213,0.063099995,0.068619,-0.273386,0.246536,2017-06-04 21:58:40,43.111221190206166
5.056554,-0.076614454,7.8625584,0.002443461,-0.002443461,0.019547688,2.0,5.3046,-0.0752,8.2477,0.0154,-0.0067,0.006,0.068574,-0.273459,0.24655099,2017-06-04 21:58:41,43.65037808763273
5.046977,-0.08619126,7.881712,0.010995574,0.0012217305,0.018325957,2.0,5.2991,-0.075899996,8.2512,-0.0134,-0.0064999997,0.0029,0.068474,-0.27309,0.24659,2017-06-04 21:58:42,45.0103978189233
5.056554,-0.06703765,7.881712,-0.007330383,-0.0012217305,0.018325957,2.0,5.2999,-0.0721,8.2507,0.0089,0.0098,0.0264,0.068655,-0.273155,0.246542,2017-06-04 21:58:44,43.59184382503324
5.0374002,-0.08619126,7.881712,0.007330383,0.004886922,0.015882496,2.0,5.2991,-0.0782,8.2512,0.026999999,-0.0075999997,-0.0277,0.068552,-0.273134,0.246573,2017-06-04 21:58:45,41.891953558199035
5.0374002,0.0,7.9008656,0.007330383,0.010995574,0.02076942,2.0,5.3026,-0.092999995,8.248799,0.0169,-0.0977,-0.0099,0.067708,-0.27357,0.246824,2017-06-04 21:58:46,49.427420957376555
5.0661306,-0.08619126,7.8625584,0.0061086523,-0.0012217305,0.018325957,2.0,5.3019,-0.079799995,8.2494,0.0078,-0.0034999999,-0.0053,0.068386,-0.273365,0.246626,2017-06-04 21:58:47,43.65134011180743
5.0661306,-0.095768064,7.881712,0.0061086523,0.0,0.02321288,2.0,5.2964997,-0.0788,8.2529,-0.0117999995,0.0150999995,0.0011999999,0.068345,-0.273006,0.246635,2017-06-04 21:58:48,40.35153337888744
5.0278234,-0.095768064,7.881712,0.0,-0.004886922,0.014660766,2.0,5.3005,-0.0758,8.250299,-0.0145,0.0036,-0.0033999998,0.068488,-0.273235,0.246585,2017-06-04 21:58:49,41.65998046858561
5.0661306,-0.08619126,7.9008656,0.010995574,-0.0061086523,0.013439035,2.0,5.297,-0.085599996,8.2525,0.0067,0.0016999999,0.019,0.068032,-0.273082,0.246718,2017-06-04 21:58:50,43.301268971304836
5.0661306,-0.076614454,7.881712,-0.0012217305,-0.004886922,0.021991149,2.0,5.2976,-0.0747,8.2522,0.013599999,0.0025,0.013499999,0.068497,-0.273059,0.246584,2017-06-04 21:58:51,48.80845073918162
5.046977,-0.076614454,7.8625584,0.004886922,-0.0036651916,0.014660766,2.0,5.2956,-0.0758,8.2535,-0.0103,0.0041,-0.003,0.068396,-0.272959,0.246608,2017-06-04 21:58:52,37.83039868741461
5.046977,-0.08619126,7.8625584,-0.002443461,0.002443461,0.02443461,2.0,5.2950997,-0.0822,8.2537,-0.0083,1.0E-4,0.009,0.068104,-0.273012,0.246699,2017-06-04 21:58:53,43.2419020938097
5.0757074,-0.076614454,7.8625584,-0.0012217305,-0.002443461,0.019547688,4.0,5.2988997,-0.08,8.2513,0.0149,0.0077,-0.0164,0.068266,-0.273198,0.246647,2017-06-04 21:58:54,42.07945025523919
5.0661306,-0.095768064,7.881712,-0.0012217305,0.004886922,0.019547688,4.0,5.2939,-0.078499995,8.254499,-0.0075999997,-0.0018999999,-0.011899999,0.068191,-0.272919,0.246671,2017-06-04 21:58:55,41.365184305372395
5.0374002,-0.076614454,7.9008656,-0.007330383,0.0,0.02321288,4.0,5.2992997,-0.0819,8.250999,0.0196,-0.01,-0.0431,0.068182,-0.273246,0.246673,2017-06-04 21:58:56,47.55348812314405
5.0661306,-0.06703765,7.9008656,0.0036651916,0.0,0.02321288,4.0,5.2925,-0.0769,8.2554,0.0084999995,0.014099999,0.0175,0.068362,-0.272874,0.246622,2017-06-04 21:58:57,39.74364149171478
5.056554,-0.095768064,7.8912888,0.0036651916,-0.0012217305,0.02076942,4.0,5.2978997,-0.0729,8.252,0.0034999999,-0.0187,0.023599999,0.068587,-0.273052,0.246558,2017-06-04 21:58:58,42.54230041478624
5.0661306,-0.095768064,7.8529816,0.002443461,0.0012217305,0.021991149,4.0,5.2969,-0.078,8.2527,0.0042999997,0.015899999,0.0067,0.068292,-0.273019,0.246644,2017-06-04 21:58:59,37.666018570047534
5.0661306,-0.10534488,7.8625584,0.0012217305,0.002443461,0.02321288,4.0,5.2927,-0.0788,8.2553,0.0072999997,0.0064999997,0.0184,0.068231,-0.272831,0.246672,2017-06-04 21:59:00,41.41205364998982
5.0661306,-0.076614454,7.881712,-0.0012217305,-0.0012217305,0.017104227,4.0,5.2931,-0.0775,8.255,0.0243,0.0047,0.0202,0.068318,-0.27282,0.246646,2017-06-04 21:59:01,45.860312297938194
5.0661306,-0.08619126,7.872135,-0.0012217305,0.0,0.02443461,4.0,5.2936997,-0.0769,8.2547,-0.0211,0.0042,-0.0641,0.068346,-0.272795,0.246636,2017-06-04 21:59:02,42.83150995076193
5.046977,-0.05746084,7.872135,0.012217305,-0.002443461,0.015882496,4.0,5.2973,-0.0784,8.2523,-0.029199999,0.0064,-0.0526,0.068321,-0.273088,0.246642,2017-06-04 21:59:03,40.6089252114043
5.046977,-0.06703765,7.8625584,0.008552114,-0.0012217305,0.012217305,4.0,5.2952,-0.0734,8.2537,-0.0106,0.0123,-0.0165,0.06848,-0.272967,0.246587,2017-06-04 21:59:04,38.30031912251269
5.056554,-0.076614454,7.872135,0.010995574,0.0012217305,0.02076942,4.0,5.297,-0.078899994,8.2525,0.0,0.0066,-0.0034999999,0.068289,-0.273078,0.246639,2017-06-04 21:59:05,40.27337437673775
5.0661306,-0.095768064,7.8529816,0.010995574,-0.0036651916,0.012217305,4.0,5.2984,-0.077599995,8.2516,0.0061,0.0039999997,0.0254,0.068414,-0.273034,0.246614,2017-06-04 21:59:06,39.39567062938987
5.056554,-0.06703765,7.872135,0.0061086523,-0.004886922,0.018325957,4.0,5.2973,-0.0796,8.252399,0.0016,-0.0026,0.0345,0.068264,-0.273099,0.246664,2017-06-04 21:59:07,38.44872303332531
5.056554,-0.08619126,7.8529816,0.0,-0.0012217305,0.018325957,4.0,5.2927,-0.081199996,8.2553,0.0222,-4.9999997E-4,0.0053,0.068102,-0.272946,0.246713,2017-06-04 21:59:08,41.79082182646128
5.056554,-0.076614454,7.872135,0.0,-0.002443461,0.02321288,4.0,5.292,-0.074,8.2558,-0.0019999999,0.0021,-0.037699997,0.068465,-0.272825,0.246611,2017-06-04 21:59:09,46.09908045700575
5.056554,-0.08619126,7.8912888,0.0061086523,-0.002443461,0.02076942,4.0,5.2938,-0.0777,8.2546,0.0045,0.0053999997,-0.0127,0.068303,-0.27288198,0.246658,2017-06-04 21:59:10,42.64098591378905
5.0374002,-0.095768064,7.9008656,0.008552114,-0.004886922,0.02076942,4.0,5.2964,-0.0766,8.253,-0.0157,-0.0139,0.0297,0.068325,-0.273003,0.24666099,2017-06-04 21:59:11,37.4688634536033
5.0374002,-0.08619126,7.8529816,-0.007330383,-0.0036651916,0.02076942,4.0,5.2939997,-0.074099995,8.254499,-0.0122,-0.0077,-0.0179,0.068479,-0.272843,0.24662,2017-06-04 21:59:12,38.48121830785728
5.056554,-0.10534488,7.8625584,0.010995574,-0.0012217305,0.017104227,4.0,5.2927,-0.074999996,8.2553,-0.0026,0.023799999,-0.0078,0.068352,-0.272769,0.24666,2017-06-04 21:59:13,39.535878602193996
5.0374002,-0.06703765,7.833828,-0.0061086523,-0.007330383,0.02321288,2.0,5.2921,-0.071899995,8.2557,-0.0223,0.0,0.0016999999,0.068554,-0.272713,0.246595,2017-06-04 21:59:14,41.71761683815742
5.046977,-0.08619126,7.9008656,-0.0036651916,0.0036651916,0.021991149,2.0,5.2897,-0.072299995,8.257299,-0.0058,-0.0103,0.0197,0.068567,-0.27265,0.246589,2017-06-04 21:59:15,38.88685022027315
5.056554,-0.06703765,7.881712,-0.0061086523,0.0,0.02321288,4.0,5.2952,-0.0753,8.2537,-8.0E-4,0.014099999,-0.022499999,0.068381,-0.27295,0.24664,2017-06-04 21:59:16,41.06503029878907
5.0278234,-0.047884032,7.872135,0.007330383,0.007330383,0.02076942,4.0,5.2922997,-0.0804,8.2556,0.0424,-0.0311,-0.0574,0.068156,-0.272828,0.24670699,2017-06-04 21:59:17,43.89384007841281
5.046977,-0.06703765,7.872135,-0.009773844,-0.002443461,0.018325957,4.0,5.2948,-0.073,8.254,-0.0039999997,0.0106999995,0.0026,0.068556,-0.272922,0.246595,2017-06-04 21:59:18,38.41804527157296
5.056554,-0.08619126,7.8625584,0.009773844,0.002443461,0.015882496,2.0,5.2981997,-0.0748,8.2518,0.0032,-0.0071,-0.0056,0.068512,-0.27309,0.246616,2017-06-04 21:59:19,41.738079355315435
5.0661306,-0.076614454,7.8912888,0.0061086523,-0.0036651916,0.02076942,4.0,5.2995,-0.0761,8.250999,0.0164,-0.0256,-0.0075,0.068472,-0.273177,0.246633,2017-06-04 21:59:20,43.360984637635866
5.0661306,-0.05746084,7.8625584,0.012217305,-0.0012217305,0.018325957,4.0,5.2943,-0.067099996,8.2544,0.015199999,0.0149,-0.0104,0.068819,-0.272773,0.246536,2017-06-04 21:59:21,45.02650718097614
5.046977,-0.076614454,7.8529816,0.008552114,-0.0061086523,0.009773844,2.0,5.2953997,-0.0711,8.2537,-0.0082,-7.0E-4,-0.024,0.068651,-0.272881,0.246604,2017-06-04 21:59:22,46.087397018947634
5.046977,-0.08619126,7.872135,0.010995574,-0.002443461,0.018325957,2.0,5.2941,-0.0761,8.2544,-0.0084999995,0.014099999,-9.0E-4,0.068355,-0.272795,0.246688,2017-06-04 21:59:23,40.22624491486157
5.056554,-0.06703765,7.8625584,0.0061086523,0.0,0.019547688,2.0,5.2932997,-0.0749,8.255,-0.0254,-0.0169,0.039499998,0.068437,-0.272812,0.24665,2017-06-04 21:59:24,37.68589314363674
5.0374002,-0.095768064,7.8625584,-0.008552114,-0.004886922,0.02443461,4.0,5.2935,-0.073199995,8.2548,-0.0187,-0.0173,-0.020299999,0.068458,-0.272791,0.246628,2017-06-04 21:59:25,40.5879286303111
5.0661306,-0.095768064,7.8912888,0.008552114,-0.004886922,0.018325957,2.0,5.2942,-0.0752,8.2544,0.0095999995,-0.0164,0.01,0.068432,-0.272871,0.246642,2017-06-04 21:59:26,42.228289310547794
5.056554,-0.076614454,7.9104424,0.0036651916,-0.004886922,0.02076942,2.0,5.2931,-0.0751,8.2551,0.0053,0.0424,1.0E-4,0.068437,-0.272903,0.24666099,2017-06-04 21:59:27,42.77096481507169
5.0374002,-0.06703765,7.8912888,0.008552114,-0.0036651916,0.015882496,2.0,5.2981,-0.0778,8.2519,0.022699999,-0.0045,0.0047999998,0.068371,-0.273119,0.246677,2017-06-04 21:59:28,44.048174997355645
5.0374002,-0.06703765,7.8529816,0.013439035,-0.0012217305,0.015882496,2.0,5.2924,-0.0775,8.2555,0.0019999999,0.0144,-0.0014,0.068305,-0.27272,0.246701,2017-06-04 21:59:29,40.287333077216516
5.046977,-0.076614454,7.8529816,0.009773844,-0.002443461,0.021991149,2.0,5.2971997,-0.0721,8.2525,-0.0039999997,0.01,-0.0296,0.068628,-0.272978,0.246621,2017-06-04 21:59:30,43.52168403311333
5.056554,-0.076614454,7.872135,0.010995574,0.0,0.014660766,2.0,5.2950997,-0.0736,8.253799,-0.0158,0.0209,0.0234,0.068545,-0.27289099,0.246687,2017-06-04 21:59:31,39.35998922278938
5.0374002,-0.06703765,7.8529816,0.009773844,-0.0012217305,0.009773844,2.0,5.2960997,-0.0755,8.2532,-0.0337,0.0137,-0.047,0.06845,-0.272975,0.246718,2017-06-04 21:59:32,38.7498462174902
5.056554,-0.08619126,7.8625584,-0.002443461,-0.002443461,0.021991149,2.0,5.2943997,-0.0738,8.2543,0.0023999999,-0.007999999,-0.0149,0.068525,-0.272856,0.246697,2017-06-04 21:59:33,43.604566692643544
5.046977,-0.076614454,7.9008656,0.009773844,-0.0012217305,0.017104227,2.0,5.2901,-0.0733,8.257,0.0011999999,0.0112,0.0018,0.068494,-0.272681,0.246708,2017-06-04 21:59:34,37.692691775325486
5.0182467,-0.05746084,7.872135,0.008552114,-0.004886922,0.017104227,2.0,5.2936,-0.071499996,8.2548,-0.0094,0.0094,-0.0198,0.068618,-0.272786,0.246662,2017-06-04 21:59:35,40.30673329249663
5.0661306,-0.095768064,7.881712,-0.004886922,-0.004886922,0.019547688,2.0,5.2932997,-0.072,8.255,0.020399999,-0.0196,0.0127,0.068577,-0.272706,0.246676,2017-06-04 21:59:36,38.18356331499066
5.046977,-0.076614454,7.833828,-0.0036651916,0.0,0.019547688,2.0,5.2960997,-0.0682,8.2532,-0.0189,-0.0039999997,0.0323,0.06884,-0.272927,0.246593,2017-06-04 21:59:37,38.760204465801266
5.046977,-0.095768064,7.872135,0.002443461,0.002443461,0.02076942,2.0,5.2939997,-0.0779,8.254499,0.021599999,0.015299999,0.0184,0.068322,-0.272887,0.246749,2017-06-04 21:59:38,42.285461979314405
5.046977,-0.08619126,7.9008656,0.009773844,-0.002443461,0.015882496,2.0,5.2889,-0.0779,8.2578,0.008599999,-0.0036,0.0339,0.068193,-0.272505,0.246794,2017-06-04 21:59:39,45.07461249051563
5.0374002,-0.06703765,7.881712,0.0012217305,0.0,0.018325957,2.0,5.2932,-0.0744,8.255,-0.024899999,0.0122,-0.0099,0.068481,-0.272796,0.246716,2017-06-04 21:59:40,38.08144692367443
5.0374002,-0.076614454,7.881712,0.014660766,-0.002443461,0.02076942,2.0,5.2960997,-0.073199995,8.2532,-0.0064,-0.0173,-0.0019999999,0.068512,-0.272911,0.246702,2017-06-04 21:59:41,40.63654527059037
5.046977,-0.08619126,7.881712,0.0061086523,-0.002443461,0.013439035,2.0,5.2995,-0.0721,8.250999,-0.0067999996,-0.0095999995,-0.0285,0.068683,-0.27312,0.246655,2017-06-04 21:59:42,41.720543355104695
5.046977,-0.06703765,7.872135,0.004886922,-0.002443461,0.013439035,2.0,5.2931,-0.0769,8.255,-0.0011,0.0139,0.0,0.068368,-0.272766,0.246731,2017-06-04 21:59:43,40.006231724212846
5.0661306,-0.08619126,7.872135,0.0,-0.0036651916,0.019547688,2.0,5.2974997,-0.0761,8.2523,-0.0026,0.0033999998,-0.0081,0.068466,-0.27301,0.246678,2017-06-04 21:59:44,40.81194683736285
5.046977,-0.095768064,7.881712,0.0036651916,-0.002443461,0.02076942,2.0,5.296,-0.0736,8.2533,0.006,-0.0084,0.0191,0.068547,-0.272946,0.246641,2017-06-04 21:59:45,43.39952994010815
5.0374002,-0.095768064,7.8912888,0.0012217305,-0.004886922,0.02076942,2.0,5.2974,-0.0756,8.2523,-0.0149,-0.014099999,0.0235,0.068361,-0.273063,0.246687,2017-06-04 21:59:46,44.00712794431236
5.056554,-0.076614454,7.8625584,0.007330383,0.0,0.015882496,2.0,5.2936,-0.0716,8.2548,0.0195,-4.9999997E-4,0.0099,0.068603,-0.272786,0.246621,2017-06-04 21:59:47,44.676357105203564
5.046977,-0.08619126,7.8529816,0.0012217305,-0.002443461,0.017104227,2.0,5.296,-0.076699995,8.2532,0.0094,0.0045,0.0134,0.068394,-0.272986,0.24668,2017-06-04 21:59:48,42.375790011466975
5.056554,-0.06703765,7.9008656,0.009773844,0.009773844,0.02321288,4.0,5.2960997,-0.075899996,8.2532,0.016099999,0.0133,0.0492,0.06843,-0.272985,0.246639,2017-06-04 21:59:49,45.50901828105073
5.0278234,-0.11492168,7.8529816,0.0,-0.0012217305,0.02565634,4.0,5.2943997,-0.0783,8.2542,-0.0208,-0.0332,-0.015199999,0.068292,-0.272918,0.246696,2017-06-04 21:59:50,45.66183183117558
5.056554,-0.08619126,7.872135,0.010995574,-0.0012217305,0.013439035,4.0,5.292,-0.0712,8.2558,0.0053999997,0.029399998,0.0616,0.068573,-0.27278,0.246619,2017-06-04 21:59:51,46.37077927113253
5.046977,-0.06703765,7.9008656,0.0061086523,-0.0012217305,0.02687807,4.0,5.2908998,-0.0809,8.2565,0.0155,-0.030599998,0.0023999999,0.068121,-0.272753,0.24675299,2017-06-04 21:59:52,41.71057498089432
5.046977,-0.08619126,7.9008656,0.009773844,-0.0036651916,0.0061086523,4.0,5.2988,-0.0734,8.2514,-0.0021,-0.010199999,0.044,0.068699,-0.273146,0.2466,2017-06-04 21:59:53,39.75461464180096
5.056554,-0.05746084,7.8625584,-0.0012217305,0.0012217305,0.02321288,4.0,5.2974997,-0.075899996,8.2522,0.0069999998,0.0232,-0.0011,0.068469,-0.27306,0.246693,2017-06-04 21:59:54,40.1162316784874
5.056554,-0.076614454,7.8625584,0.008552114,0.0,0.021991149,4.0,5.292,-0.077599995,8.2558,-0.0162,0.028099999,0.0075999997,0.068152,-0.272843,0.24679,2017-06-04 21:59:55,42.24656096898596
5.0661306,-0.095768064,7.8529816,0.0012217305,0.0012217305,0.015882496,4.0,5.2949,-0.0707,8.254,-0.0016,0.018299999,0.044,0.068677,-0.272847,0.246648,2017-06-04 21:59:56,43.631954932450355
5.0374002,-0.06703765,7.881712,0.007330383,0.0012217305,0.02321288,4.0,5.2960997,-0.074099995,8.2532,-0.0234,0.0121,-0.0071,0.068484,-0.27281,0.246696,2017-06-04 21:59:57,44.0908012056375
5.085284,-0.047884032,7.8146744,0.004886922,-0.002443461,0.019547688,4.0,5.2957,-0.0714,8.2535,-0.016099999,-0.0371,0.0334,0.068442,-0.272656,0.2467,2017-06-04 21:59:58,39.40042929280441
5.0278234,-0.076614454,7.8625584,-0.014660766,-0.0061086523,0.02565634,2.0,5.2899,-0.078999996,8.2571,0.039499998,0.0064999997,-0.0166,0.068212,-0.272669,0.246786,2017-06-04 21:59:59,49.115755325959036
5.0374002,-0.05746084,7.872135,0.004886922,0.0061086523,0.019547688,4.0,5.2918,-0.078999996,8.255899,-0.0163,0.0242,-0.009699999,0.068343,-0.272738,0.24674399,2017-06-04 22:00:00,42.7372069991247
5.056554,-0.08619126,7.872135,0.0061086523,-0.008552114,0.019547688,4.0,5.2964,-0.0711,8.253,-0.0013,-0.0105,-0.0067999996,0.068663,-0.272941,0.246587,2017-06-04 22:00:01,42.912210699912386
5.056554,-0.076614454,7.881712,-0.012217305,0.0,0.02321288,2.0,5.2969,-0.0773,8.2526,0.0079,-0.0042,-0.0058999998,0.06836,-0.273069,0.246679,2017-06-04 22:00:03,43.18901166150411
5.046977,-0.06703765,7.872135,0.007330383,0.002443461,0.019547688,4.0,5.2977,-0.0805,8.2521,-0.0061,-0.0016999999,0.0137,0.068241,-0.273135,0.246716,2017-06-04 22:00:04,41.54799814126744
5.056554,-0.10534488,7.8912888,0.0036651916,-0.002443461,0.018325957,4.0,5.2925,-0.083799995,8.2554,-9.999999E-4,-0.0196,5.9999997E-4,0.06806,-0.272737,0.246783,2017-06-04 22:00:05,41.414626099835765
5.0374002,-0.05746084,7.8912888,0.004886922,0.002443461,0.02076942,2.0,5.2921,-0.082499996,8.2557,0.0150999995,0.0196,0.0061999997,0.068105,-0.273009,0.246758,2017-06-04 22:00:06,43.0453236510914
5.0182467,-0.095768064,7.920019,0.007330383,0.004886922,0.017104227,4.0,5.2956,-0.0743,8.2535,0.0396,0.0021,-0.0101,0.068502,-0.272936,0.246644,2017-06-04 22:00:07,41.957508136212354
5.085284,-0.038307227,7.9104424,0.0012217305,0.0036651916,0.019547688,4.0,5.2971997,-0.0815,8.252399,0.0263,0.0446,0.0223,0.068301,-0.272823,0.24667,2017-06-04 22:00:08,42.82569224619692
5.0661306,-0.10534488,7.833828,0.007330383,-0.0061086523,0.015882496,4.0,5.2953997,-0.0839,8.2535,0.0075,-0.0179,-0.049399998,0.068029,-0.273052,0.246711,2017-06-04 22:00:09,42.64314419502335
5.0374002,-0.076614454,7.9104424,0.007330383,0.007330383,0.012217305,2.0,5.2927,-0.0753,8.2554,0.0082,-0.0515,-0.030299999,0.06822,-0.272956,0.246634,2017-06-04 22:00:10,42.320829103236186
5.046977,-0.076614454,7.8529816,0.004886922,-0.004886922,0.015882496,4.0,5.2922,-0.0822,8.2556,-0.007999999,0.0,0.0088,0.06805,-0.272851,0.246672,2017-06-04 22:00:11,45.51806775724775
5.056554,-0.076614454,7.843405,0.0061086523,-0.0061086523,0.02321288,4.0,5.2939997,-0.0739,8.2546,0.0142,9.999999E-4,-0.019,0.068488,-0.272786,0.246534,2017-06-04 22:00:12,41.58699297826668
5.056554,-0.08619126,7.872135,0.012217305,0.0,0.015882496,4.0,5.2934,-0.077599995,8.2549,-0.0109,-0.005,-0.022499999,0.068297,-0.272827,0.246599,2017-06-04 22:00:13,43.08386411051867
5.056554,-0.076614454,7.881712,0.007330383,-0.002443461,0.02321288,4.0,5.2914,-0.081199996,8.2561,0.0296,-0.0011999999,0.0058999998,0.068096,-0.272791,0.246686,2017-06-04 22:00:14,40.37891235645886
5.056554,-0.08619126,7.8625584,0.010995574,-0.0012217305,0.014660766,4.0,5.2885,-0.076299995,8.257999,0.0075999997,-0.0061,-0.0112,0.068364,-0.272771,0.246616,2017-06-04 22:00:15,39.78845035980248
5.0374002,-0.095768064,7.843405,0.002443461,0.0,0.014660766,4.0,5.2943997,-0.0802,8.2542,-0.0184,-0.0117,-0.036399998,0.068187,-0.27295,0.246667,2017-06-04 22:00:16,42.09110188123788
5.056554,-0.10534488,7.8625584,0.0012217305,0.0,0.019547688,4.0,5.2969,-0.078499995,8.2526,-0.0063,-0.0056,-0.024699999,0.068399,-0.273002,0.246582,2017-06-04 22:00:17,43.033085326877455
5.0278234,-0.08619126,7.8625584,0.0,-0.0012217305,0.019547688,4.0,5.2964997,-0.0831,8.2528,0.0138,5.9999997E-4,-0.0123,0.068075,-0.273103,0.246681,2017-06-04 22:00:18,42.111989512430135
5.0661306,-0.095768064,7.872135,0.012217305,-0.004886922,0.013439035,4.0,5.2967,-0.0756,8.2528,0.0075999997,-0.0148,-0.005,0.068389,-0.273101,0.246594,2017-06-04 22:00:19,41.49540671808634
5.056554,-0.076614454,7.8529816,-0.002443461,0.0012217305,0.02443461,4.0,5.2946997,-0.0705,8.2541,-0.0131,-0.011299999,-0.0111,0.068631,-0.272759,0.246523,2017-06-04 22:00:20,41.393359771920295
5.046977,-0.08619126,7.8625584,-0.0036651916,-0.0012217305,0.019547688,4.0,5.2945,-0.0761,8.2542,-0.0273,-0.0056999996,-0.030599998,0.068387,-0.272898,0.246615,2017-06-04 22:00:21,44.07682531742716
5.056554,-0.095768064,7.824251,0.0036651916,-0.0061086523,0.02076942,4.0,5.2924,-0.078999996,8.2555,0.0111,-0.0105,-0.0401,0.068119,-0.272975,0.246668,2017-06-04 22:00:22,48.08961600971934
5.0182467,-0.076614454,7.8625584,-0.010995574,0.012217305,0.02687807,2.0,5.2913,-0.082499996,8.2562,-0.0427,0.010199999,-0.0307,0.06802,-0.272802,0.246677,2017-06-04 22:00:23,43.530364540173366
5.056554,-0.076614454,7.881712,0.0012217305,0.0,0.014660766,2.0,5.2827997,-0.083299994,8.2616,-0.0084,2.0E-4,0.0061999997,0.067914,-0.27239498,0.246705,2017-06-04 22:00:24,46.0639943794242
5.0278234,-0.08619126,7.872135,0.007330383,-0.002443461,0.015882496,2.0,5.2875,-0.0835,8.2586,-0.006,-0.008599999,0.027099999,0.06792,-0.272601,0.246713,2017-06-04 22:00:25,43.60798715422455
5.0374002,-0.08619126,7.881712,-0.0036651916,-0.002443461,0.021991149,2.0,5.2862,-0.081099994,8.2595,-0.0071,-0.0011999999,0.0044,0.068029,-0.272535,0.246677,2017-06-04 22:00:26,45.8368900968665
5.046977,-0.095768064,7.872135,0.010995574,-0.0036651916,0.018325957,2.0,5.2858,-0.0839,8.2597,0.0213,-0.0188,0.024899999,0.067907,-0.272471,0.246731,2017-06-04 22:00:27,46.899060196062344
5.046977,-0.095768064,7.8529816,0.010995574,-0.0036651916,0.02076942,2.0,5.2815,-0.081,8.2624,7.0E-4,0.028099999,0.035099998,0.067955,-0.272235,0.246726,2017-06-04 22:00:28,46.91002653000617
5.0661306,-0.08619126,7.881712,0.0012217305,-0.0036651916,0.021991149,2.0,5.2801,-0.082499996,8.2633,0.0223,2.0E-4,-0.0089,0.067872,-0.272186,0.246762,2017-06-04 22:00:29,47.86231594375707
5.0278234,-0.095768064,7.881712,0.007330383,0.0012217305,0.017104227,2.0,5.2808,-0.084199995,8.262899,-0.0157,-0.0079,-0.0061,0.067801,-0.272235,0.246788,2017-06-04 22:00:30,48.950211233783364
5.0182467,-0.08619126,7.8625584,-0.0036651916,0.0,0.02565634,4.0,5.2830997,-0.084699996,8.2614,0.0348,-0.0077,0.029299999,0.067809,-0.272423,0.24677,2017-06-04 22:00:31,49.104784178614324
5.0374002,-0.076614454,7.9104424,0.0036651916,0.0012217305,0.017104227,4.0,5.2871,-0.079399996,8.2589,-0.0109,0.0167,-0.024899999,0.06812,-0.272524,0.246693,2017-06-04 22:00:32,49.96948544625041
5.046977,-0.095768064,7.872135,0.007330383,0.0,0.019547688,4.0,5.2897997,-0.0801,8.2572,0.0050999997,-0.0121,0.0034999999,0.068126,-0.272652,0.246695,2017-06-04 22:00:33,49.12197611829406
5.0182467,-0.08619126,7.881712,0.008552114,-0.0012217305,0.021991149,4.0,5.2882,-0.0805,8.2582,0.029,0.0075999997,0.0233,0.0681,-0.272594,0.246733,2017-06-04 22:00:34,45.51318111322382
5.0661306,-0.08619126,7.843405,0.0,-0.004886922,0.017104227,4.0,5.2907,-0.084,8.2565,-0.015,0.0016999999,0.0101,0.067959,-0.272786,0.246761,2017-06-04 22:00:35,44.87384121740929
5.0278234,-0.095768064,7.8529816,0.012217305,0.004886922,0.015882496,4.0,5.2964,-0.085999995,8.2528,-0.0150999995,-0.0079,-0.0064,0.067991,-0.27299199,0.246736,2017-06-04 22:00:36,46.31051978963609
1.2449849,0.5554548,5.813122,0.0061086523,0.0012217305,0.017104227,4.0,4.7857,-0.0023,8.5596,-3.3327,0.5514,-2.3653,0.06417,-0.243852,0.246726,2017-06-04 22:00:37,55.73161101871696
5.1235914,-0.12449849,7.8912888,-0.008552114,-0.004886922,0.02443461,4.0,5.0329,-0.0707,8.4163,0.2024,-0.0277,-0.1488,0.062034998,-0.257972,0.23725499,2017-06-04 22:00:38,59.9636867579074
4.999093,-0.095768064,7.8912888,-0.004886922,0.0,0.017104227,4.0,5.224,-0.091699995,8.2989,0.0047999998,0.048299998,-0.1551,0.066306,-0.269215,0.246115,2017-06-04 22:00:39,47.427110562639314
4.999093,-0.1340753,7.9008656,0.0,-0.002443461,0.02076942,4.0,5.2430997,-0.091199994,8.286799,-0.0142,-0.0425,-0.0156,0.066735,-0.270298,0.246013,2017-06-04 22:00:40,45.46196196285182
4.9895163,-0.095768064,7.8529816,-0.008552114,0.0,0.018325957,2.0,5.2444997,-0.1028,8.2858,0.0061999997,0.027199998,0.018,0.066883996,-0.270308,0.248586,2017-06-04 22:00:41,45.14544971904988
5.0374002,-0.10534488,7.833828,0.0036651916,0.0061086523,0.017104227,2.0,5.2906,-0.0774,8.256599,0.0013,-0.0145,4.9999997E-4,0.069138,-0.272481,0.249607,2017-06-04 22:00:42,46.32673246840489
5.0278234,-0.095768064,7.872135,0.004886922,-0.0036651916,0.010995574,2.0,5.285,-0.0764,8.2603,-0.0128999995,-0.0154,-0.0028,0.068775,-0.272232,0.248519,2017-06-04 22:00:43,44.61023445022352
5.0661306,-0.095768064,7.833828,0.009773844,-0.02321288,0.012217305,2.0,5.2662997,-0.0629,8.2723,0.018,-0.0254,-0.0411,0.069444,-0.270977,0.249996,2017-06-04 22:00:44,45.46012330119546
5.00867,-0.076614454,7.881712,0.014660766,-0.002443461,0.010995574,2.0,5.2648,-0.064399995,8.2733,0.0103,-0.017199999,0.0064,0.06952,-0.270821,0.250089,2017-06-04 22:00:45,43.567571266368
4.960786,-0.12449849,7.920019,0.014660766,-0.0012217305,0.009773844,2.0,5.2016,-0.092099994,8.3129,0.0139999995,-0.0301,0.0163,0.066538,-0.267668,0.248375,2017-06-04 22:00:46,46.08017733368293
5.085284,-0.095768064,7.153875,0.013439035,-0.0036651916,0.014660766,2.0,5.2483997,-0.1028,8.283299,0.0819,0.009699999,-0.7389,0.067917,-0.270284,0.252258,2017-06-04 22:00:47,45.24406894128782
4.9799395,-0.11492168,7.8912888,0.0061086523,0.0036651916,0.017104227,4.0,5.226,-0.1033,8.2973995,-0.0056,-0.0202,-0.026099999,0.067138,-0.269202,0.250689,2017-06-04 22:00:48,45.925832149124595
5.0182467,-0.15322891,7.8625584,0.002443461,-0.014660766,0.02076942,4.0,5.2279,-0.1015,8.2962,-0.0209,-0.0212,0.0667,0.067183,-0.269246,0.25065,2017-06-04 22:00:49,45.54452626548216
4.759673,-0.11492168,8.274361,-0.019547688,-0.18936823,-0.21746802,2.0,5.0608,-0.3482,8.3926,0.0144,0.2365,0.2617,0.053858,-0.259226,0.26404,2017-06-04 22:00:50,44.816406943546276
4.55856,0.50757074,8.762778,0.5534439,-0.2602286,-0.7257079,4.0,4.732,0.57409996,8.5702,0.0576,-0.0449,0.6206,0.096243,-0.231899,0.260664,2017-06-04 22:00:51,44.71261586336525
1.9536686,7.632715,2.9113493,0.1160644,-0.7318166,-0.3726278,2.0,2.6611,7.5283,5.6931,0.77959996,-0.8005,2.4617,0.392594,-0.218649,-0.156492,2017-06-04 22:00:52,45.44484980123009
2.327164,7.5944076,3.916914,0.17715092,0.052534413,0.096516706,2.0,2.6773,8.537,4.0151,0.096,-0.19119999,-0.085499994,0.351948,-0.414025,-0.447595,2017-06-04 22:00:53,46.373700694024826
1.3503298,8.647857,2.9975405,0.05009095,-0.1600467,0.032986723,2.0,1.229,9.2961,2.8706,0.2157,-0.18609999,0.24859999,0.460845,-0.37463298,-0.424272,2017-06-04 22:00:54,45.579792668179536
1.2066777,8.973468,2.566584,-0.089186326,-0.05497787,0.02687807,1.0,1.5182999,9.2758,2.7969,0.057099998,0.151,0.22289999,0.448798,-0.396613,-0.425595,2017-06-04 22:00:55,44.95180459184689
1.3599066,8.791509,2.7389667,0.007330383,-0.042760566,0.009773844,1.0,1.5239999,9.240399,2.9088,0.27899998,0.37649998,-0.0648,0.444084,-0.393038,-0.428407,2017-06-04 22:00:56,46.75978564022441
1.541866,8.944737,2.6527755,0.030543262,-0.015882496,0.0061086523,1.0,1.5803,9.2607,2.8125,0.0365,0.1554,-0.0345,0.442264,-0.400442,-0.430641,2017-06-04 22:00:57,45.224266877526404
1.436521,8.973468,2.681506,0.008552114,0.019547688,0.014660766,1.0,1.5748,9.2766,2.763,-0.0634,0.16569999,0.0539,0.440058,-0.406781,-0.43735,2017-06-04 22:00:58,45.349955586879815
1.6472107,8.916007,2.9783869,0.03176499,-0.034208454,-0.007330383,1.0,1.5606999,9.2642,2.8119,-0.0176,0.155,0.0149,0.440826,-0.403361,-0.435753,2017-06-04 22:00:59,45.21493500487435
1.4269443,9.069236,2.9879637,-0.0012217305,-0.02076942,0.017104227,1.0,1.6119,9.234,2.8815,-0.2065,0.3531,-0.0389,0.436142,-0.403561,-0.436594,2017-06-04 22:01:00,45.22430355913062
1.7429788,8.820239,2.9017725,0.019547688,0.010995574,0.02076942,1.0,1.9089999,9.131,3.0249999,-0.077599995,0.1506,0.010799999,0.425629,-0.405049,-0.425934,2017-06-04 22:01:01,43.971364996185194
1.7621324,8.820239,2.882619,0.002443461,-0.008552114,0.02687807,1.0,1.9031999,9.1511,2.9671,-0.034199998,-0.0359,0.0149,0.42728,-0.407722,-0.426722,2017-06-04 22:01:02,44.22573964875242
2.2601264,8.63828,2.825158,-0.036651913,0.040317107,0.017104227,1.0,2.3437,9.0132,3.0721,0.0082,-0.038799997,0.24509999,0.411226,-0.41744,-0.415576,2017-06-04 22:01:03,42.99364918895382
2.1068976,8.781932,2.681506,-0.008552114,0.06963864,0.039095376,1.0,2.1524,9.0919,2.9789,0.014699999,-0.0177,-0.1999,0.413512,-0.421119,-0.430072,2017-06-04 22:01:04,43.80339277504948
2.2409728,8.66701,2.7485435,0.02687807,0.010995574,0.013439035,1.0,2.3528,8.969,3.1922,-0.039699998,-0.0157,-0.3417,0.403793,-0.417363,-0.422306,2017-06-04 22:01:05,43.34308805058499
2.3558946,8.628703,2.9017725,0.012217305,-0.034208454,0.02076942,1.0,2.3944,8.9703,3.1575,0.030399999,-0.0127,0.0308,0.412572,-0.409946,-0.405264,2017-06-04 22:01:06,43.3667479520355
1.532289,9.021352,2.7102363,0.111177474,0.06963864,-0.09162979,1.0,1.5755999,9.287499,2.7256,-0.043199997,-1.0E-4,0.050699998,0.443867,-0.404985,-0.432411,2017-06-04 22:01:07,43.952911925993945
1.6376339,8.925584,2.6719291,0.009773844,-0.014660766,0.034208454,1.0,1.6970999,9.2307,2.8432,-0.0139999995,-0.0016999999,-0.0898,0.445984,-0.394654,-0.414738,2017-06-04 22:01:08,45.490720927065034
1.6184803,8.963891,2.4133554,0.034208454,-0.008552114,-0.02076942,1.0,1.6761,9.312699,2.5755,-0.015,-0.0264,0.0185,0.44503298,-0.411765,-0.427173,2017-06-04 22:01:09,46.26976391809549
2.0015526,8.90643,2.719813,0.0012217305,-0.02321288,0.019547688,1.0,1.9727999,9.191999,2.7900999,0.13159999,0.092199996,-0.1881,0.427478,-0.418337,-0.427849,2017-06-04 22:01:10,44.656849259046886
2.4899697,8.619126,2.7581203,0.06841691,-0.04642576,0.12217305,1.0,2.4401,9.0563,2.8634,0.18329999,-0.15089999,-0.0602,0.423627,-0.414849,-0.399029,2017-06-04 22:01:11,43.737597514766414
2.5187001,8.734048,2.767697,0.0061086523,-0.02076942,0.007330383,1.0,2.5807,9.0454,2.7731,0.0143,-0.0209,0.0832,0.429276,-0.417531,-0.379451,2017-06-04 22:01:12,44.63085164901486
2.4420857,8.686164,3.1794999,0.007330383,0.1160644,0.010995574,1.0,2.5191,8.9628,3.0809,0.1478,-0.0819,0.033299997,0.425259,-0.404034,-0.377137,2017-06-04 22:01:13,43.90596454910682
2.4708161,8.619126,2.96881,0.057421334,0.0,0.013439035,1.0,2.5093,8.9674,3.0755,0.083399996,-0.0729,-0.0327,0.416318,-0.41215,-0.39388,2017-06-04 22:01:14,44.52244011554573
2.6623523,8.513782,2.8443117,0.040317107,-0.04642576,0.009773844,1.0,2.5403,8.9422,3.1230998,0.1961,-0.1312,-0.1893,0.410203,-0.414531,-0.398844,2017-06-04 22:01:15,45.42369641426853
2.4708161,8.628703,2.8538885,0.0012217305,-0.040317107,0.004886922,1.0,2.5635,8.9565,3.0626,0.0026999998,-0.1072,-0.111899994,0.410462,-0.417938,-0.399637,2017-06-04 22:01:16,45.05813382097279
2.5091233,8.504205,3.323152,0.014660766,0.02321288,0.032986723,1.0,2.6083,8.869599,3.2703998,0.1935,-0.19409999,-0.1525,0.39897498,-0.417218,-0.406952,2017-06-04 22:01:17,43.8777250207308
2.480393,8.599973,3.371036,0.02321288,-0.04520403,0.02076942,1.0,2.5630999,8.8799,3.2782,0.0016,0.0047,0.1776,0.401092,-0.413731,-0.406683,2017-06-04 22:01:18,44.68471996764386
2.4995465,8.695741,3.217807,0.014660766,-0.002443461,0.015882496,1.0,2.5565,8.9191,3.1753,0.018099999,0.061899997,0.1453,0.404279,-0.417926,-0.406249,2017-06-04 22:01:19,44.77006355059551
2.5378537,8.619126,2.920926,-0.004886922,0.02076942,0.018325957,1.0,2.5658,8.9366,3.1183,0.081599995,-0.0139,0.0098,0.41202,-0.414168,-0.394622,2017-06-04 22:01:20,48.405239292888155
2.585738,8.63828,3.3039982,-0.0720821,-0.032986723,0.015882496,1.0,2.5923998,8.9339,3.1037998,-0.20279999,0.0574,0.3518,0.411591,-0.415139,-0.394138,2017-06-04 22:01:22,47.154353358924