ACC_X,ACC_Y,ACC_Z,LIGH_1,GRAV_X,GRAV_Y,GRAV_Z,LINACC_X,LINACC_Y,LINACC_Z,TIME,VOICE
3.3327289,3.3135753,8.37013,2.0,1.4709975,3.5821512,9.01667,1.2258313,-0.013620348,0.16344418,2017-06-08 19:36:23,58.25571682845734
1.3599066,1.5514427,10.496181,0.0,2.7649305,2.6832085,9.01667,-0.87170225,-0.98066497,0.5448139,2017-06-08 19:36:24,60.62703231345242
3.217807,0.35434186,9.519346,0.0,2.7104492,1.525479,9.302697,0.84446156,-0.91256326,0.08172209,2017-06-08 19:36:25,79.19069041207035
2.2601264,-0.19153613,10.0748005,0.0,2.5742457,0.43585113,9.452521,0.32688835,-0.068101734,0.31326798,2017-06-08 19:36:26,78.53200079187735
3.7541082,-2.9113493,9.021352,0.0,2.8466525,-0.17706451,9.384419,0.87170225,-2.6151068,-0.35412902,2017-06-08 19:36:27,76.38466160937483
2.7868507,-4.817134,8.532935,0.0,3.650253,-2.6423473,8.717022,-0.51757324,-1.9749503,-0.43585113,2017-06-08 19:36:28,81.37628123605131
2.1452048,-2.767697,9.605537,0.0,3.1735408,-4.140586,8.294791,-0.62653595,1.838747,1.1713499,2017-06-08 19:36:29,77.89902238456234
2.9496565,-1.1971009,9.576807,0.0,2.8057916,-2.5197642,9.057531,0.13620347,1.293933,0.53119355,2017-06-08 19:36:30,78.65699361617703
2.8921957,-1.340753,9.56723,0.0,2.8330321,-1.3484143,9.289077,0.027240695,-0.027240695,0.28602728,2017-06-08 19:36:31,82.83170628999721
2.6431987,-1.2737153,9.643845,0.0,2.8466525,-1.2530719,9.302697,-0.27240694,-0.21792556,0.32688835,2017-06-08 19:36:32,80.11613515138023
2.6623523,-1.436521,9.576807,0.0,2.7104492,-1.1168685,9.357179,0.0,-0.040861044,0.36774936,2017-06-08 19:36:33,71.28001001969862
2.834735,-1.3982137,9.56723,0.0,2.6559677,-1.0623871,9.384419,0.14982383,-0.32688835,0.17706451,2017-06-08 19:36:34,78.7114681380208
2.72939,-1.4269443,9.605537,0.0,2.7240696,-1.293933,9.329938,0.013620348,-0.16344418,0.25878662,2017-06-08 19:36:35,83.82481711461284
2.7102363,-1.3982137,9.586384,2.0,2.73769,-1.2666924,9.329938,-0.027240695,-0.095342435,0.25878662,2017-06-08 19:36:36,82.61660685361831
2.7006595,-1.4652514,9.595961,2.0,2.6151068,-1.3211737,9.357179,0.068101734,-0.19068487,0.24516624,2017-06-08 19:36:37,81.67281321794826
2.767697,-1.3694834,9.605537,0.0,2.628727,-1.3620348,9.357179,0.13620347,-0.013620348,0.23154591,2017-06-08 19:36:38,80.6453736864002
2.834735,-1.3311762,9.576807,0.0,2.6559677,-1.375655,9.343558,0.08172209,0.040861044,0.25878662,2017-06-08 19:36:39,75.45928539273648
2.9879637,-1.1683705,9.576807,0.0,2.73769,-1.3075534,9.329938,0.19068487,0.13620347,0.27240694,2017-06-08 19:36:40,78.83908177856893
3.016694,-1.043872,9.605537,0.0,2.8330321,-1.1849703,9.316318,0.14982383,0.12258312,0.29964766,2017-06-08 19:36:41,83.76075051783111
5.4204726,-0.1340753,8.101978,0.0,2.9556153,-1.0896277,9.289077,1.9885707,0.35412902,-0.35412902,2017-06-08 19:36:42,82.67056473095747
6.4547677,7.4986396,-1.5705963,2.0,4.8760843,0.040861044,8.512717,1.6344416,5.9112306,-7.6273947,2017-06-08 19:36:43,82.3371408444472
3.083732,8.063671,-4.711789,2.0,6.6194887,7.1779227,0.8580819,-3.486809,0.8580819,-5.3800373,2017-06-08 19:36:44,84.73119704852749
2.8538885,8.0445175,-4.7500963,2.0,3.214402,8.076866,-4.535576,-0.29964766,-0.040861044,-0.14982383,2017-06-08 19:36:45,84.47949945243998
2.920926,8.0445175,-4.7405195,2.0,2.901134,8.076866,-4.7535014,-0.013620348,-0.027240695,0.040861044,2017-06-08 19:36:46,82.08855421530774
4.2425256,7.9391727,-3.9264908,2.0,3.1054392,8.063246,-4.630918,1.1441091,-0.14982383,0.7627395,2017-06-08 19:36:47,64.09774245944735
3.4380736,-2.930503,8.973468,0.0,5.9657125,7.6273947,-1.56634,-3.0918188,-11.38661,10.61025,2017-06-08 19:36:48,78.47192686799623
2.882619,-1.4556746,9.653421,2.0,4.7943625,-1.293933,8.458236,-1.56634,0.29964766,1.1032481,2017-06-08 19:36:49,78.82589420511846
2.5570073,-0.5363012,9.739613,2.0,3.0373375,-1.607201,9.193734,-0.29964766,1.3075534,0.55843425,2017-06-08 19:36:50,79.38557051234741
2.4708161,-0.7374141,9.787497,2.0,2.5742457,-0.8580819,9.425281,-0.10896278,0.0,0.3405087,2017-06-08 19:36:51,77.9702763909156
2.528277,-0.93852705,9.787497,2.0,2.3563201,-0.7354987,9.493382,0.19068487,-0.24516624,0.25878662,2017-06-08 19:36:52,77.64452992058474
2.6144683,-1.0630256,9.720459,2.0,2.4108014,-0.84446156,9.466142,0.17706451,-0.2043052,0.25878662,2017-06-08 19:36:53,76.34822149168804
2.5953147,-1.1875241,9.710882,2.0,2.4789033,-0.95342433,9.452521,0.13620347,-0.16344418,0.28602728,2017-06-08 19:36:54,57.04091474579378
2.5187001,-1.1971009,9.739613,2.0,2.4925234,-1.0623871,9.425281,0.013620348,-0.12258312,0.29964766,2017-06-08 19:36:55,77.50228490057077
2.566584,-1.4939818,9.643845,2.0,2.465283,-1.1441091,9.425281,0.08172209,-0.3949901,0.24516624,2017-06-08 19:36:56,74.97545148778549
2.585738,-1.532289,9.662998,2.0,2.4789033,-1.293933,9.39804,0.095342435,-0.21792556,0.25878662,2017-06-08 19:36:57,67.5084558171817
2.5953147,-1.7429788,9.576807,0.0,2.4925234,-1.375655,9.384419,0.08172209,-0.14982383,0.24516624,2017-06-08 19:36:58,65.26019448510556
2.6527755,-1.484405,9.653421,0.0,2.5061438,-1.4437568,9.370799,0.12258312,-0.05448139,0.25878662,2017-06-08 19:36:59,76.24279907933087
2.7006595,-1.8195933,9.548077,0.0,2.587866,-1.4982383,9.343558,-0.10896278,-0.3949901,0.31326798,2017-06-08 19:37:00,79.2808950082824
2.7102363,-1.5610195,9.595961,0.0,2.6423473,-1.5390993,9.316318,-0.12258312,-0.027240695,0.31326798,2017-06-08 19:37:02,81.74753342848908
2.030283,-1.388637,9.77792,0.0,2.465283,-1.525479,9.370799,-0.35412902,0.13620347,0.4086104,2017-06-08 19:37:03,80.55128675363693
2.2888567,-1.1779473,9.739613,0.0,2.083913,-1.3620348,9.493382,0.13620347,0.13620347,0.25878662,2017-06-08 19:37:04,82.45462008815296
2.5187001,-0.641646,9.749189,0.0,2.2609777,-0.96704465,9.493382,0.29964766,0.29964766,0.23154591,2017-06-08 19:37:05,70.00034017700897
2.8060043,-1.2641385,9.509769,0.0,2.3971813,-0.8036005,9.479762,0.24516624,-0.3949901,0.12258312,2017-06-08 19:37:06,78.27371037341281
6.8091097,3.0358477,6.157887,0.0,2.5061438,-1.2803127,9.39804,3.0918188,2.1520147,-1.1985906,2017-06-08 19:37:07,79.42920000789081
7.9966335,5.45878,-1.3024458,2.0,6.891896,2.2609777,6.6058683,0.7763598,2.819412,-7.4230895,2017-06-08 19:37:08,82.90613892733278
7.536947,5.305551,-3.5529952,5.0,8.117727,5.393657,-1.0487667,-0.36774936,-0.28602728,-2.165635,2017-06-08 19:37:09,79.37667027137637
7.603985,5.1810527,-3.2561142,5.0,7.7091165,5.339176,-2.860273,-0.095342435,-0.17706451,-0.32688835,2017-06-08 19:37:10,83.31156991184534
7.517793,5.209783,-3.572149,5.0,7.6546354,5.202973,-3.2416425,-0.040861044,-0.027240695,0.0,2017-06-08 19:37:11,81.82381962108984
7.249643,5.2480903,-3.9743748,2.0,7.559293,5.175732,-3.486809,-0.12258312,-0.23154591,-0.3949901,2017-06-08 19:37:12,79.83192861572628
6.8186865,5.439626,-4.5202527,2.0,7.2051635,5.2165933,-4.113345,-0.32688835,0.13620347,-0.3405087,2017-06-08 19:37:13,82.2840360645864
6.8091097,5.353435,-4.5394063,2.0,6.891896,5.366417,-4.4538536,-0.095342435,0.0,-0.095342435,2017-06-08 19:37:14,82.25990489735761
6.8569937,5.363012,-4.4819455,2.0,6.7965536,5.4208984,-4.535576,0.08172209,-0.027240695,0.095342435,2017-06-08 19:37:15,66.90270043524961
7.029376,5.2480903,-4.3478703,2.0,6.864655,5.3800373,-4.4810944,0.095342435,-0.12258312,0.10896278,2017-06-08 19:37:16,77.44110949095025
5.947197,1.8291701,7.833828,2.0,7.8998013,5.3527966,-2.2609777,-1.6753027,-3.0237172,9.847511,2017-06-08 19:37:17,82.59634935249773
5.133168,1.7621324,8.39886,0.0,6.9872384,2.941995,6.2244987,-1.6344416,-0.939804,1.8115062,2017-06-08 19:37:18,75.99173897559895
5.0182467,2.327164,8.389283,0.0,5.366417,2.0158114,7.9542828,-0.10896278,0.53119355,0.17706451,2017-06-08 19:37:19,80.73203912896112
4.912902,2.3558946,8.42759,0.0,5.1212506,2.3018386,8.049625,-0.17706451,-0.027240695,0.3949901,2017-06-08 19:37:20,82.35667808486973
5.6407394,3.3806129,7.4507556,0.0,4.9578066,2.4380422,8.104107,0.61291564,0.8989429,-0.61291564,2017-06-08 19:37:21,78.37411319347025
4.606444,-0.33518824,9.002198,0.0,5.393657,2.9556153,7.641015,-0.58567494,-2.969236,1.3484143,2017-06-08 19:37:22,83.81590190259521
3.4955344,-0.91937345,9.481039,0.0,4.903325,0.667397,8.471856,-1.3892754,-1.6753027,0.96704465,2017-06-08 19:37:23,74.96981201037056
3.6104562,0.038307227,9.452309,0.0,3.6230123,-0.7218784,9.084772,0.013620348,0.7763598,0.38136974,2017-06-08 19:37:24,79.1795065636157
2.9113493,-0.11492168,9.643845,0.0,3.3369853,-0.2043052,9.220975,-0.38136974,0.040861044,0.38136974,2017-06-08 19:37:25,58.80466736986257
1.8483237,-0.7661445,9.892841,0.0,2.9147542,-0.095342435,9.370799,-1.0896277,-0.8036005,0.50395286,2017-06-08 19:37:26,71.7511026533863
2.2601264,-0.40222588,9.80665,0.0,2.192876,-0.4086104,9.561484,0.013620348,-0.040861044,0.29964766,2017-06-08 19:37:27,81.1980112393704
6.4643445,3.4859576,6.6654577,2.0,2.192876,-0.36774936,9.561484,3.4731886,2.8466525,-2.070293,2017-06-08 19:37:28,82.52353909837058
7.632715,6.033388,-0.94810385,2.0,6.6194887,3.0645783,6.565007,1.0215261,2.969236,-7.7091165,2017-06-08 19:37:29,76.93051690986215
7.7093296,5.93762,-0.7086837,5.0,7.9951434,5.6796846,-0.095342435,-0.23154591,0.17706451,-0.43585113,2017-06-08 19:37:30,83.88354228186232
7.6614456,5.995081,-0.7565677,2.0,7.736357,5.979333,-0.6946377,-0.08172209,0.027240695,-0.05448139,2017-06-08 19:37:31,81.97968138640803
7.73806,5.90889,-0.49799395,2.0,7.722737,6.0065737,-0.6810174,0.027240695,-0.10896278,0.13620347,2017-06-08 19:37:32,81.65333961360656
8.0445175,5.410896,0.32561144,5.0,7.736357,6.0065737,-0.55843425,0.2043052,-0.31326798,0.36774936,2017-06-08 19:37:33,82.07337314537978
8.0445175,5.535394,0.15322891,5.0,7.927042,5.761407,-0.05448139,0.12258312,-0.2043052,0.23154591,2017-06-08 19:37:34,81.28181900143326
8.00621,5.602432,0.038307227,5.0,8.076866,5.5571017,0.17706451,-0.10896278,0.095342435,-0.16344418,2017-06-08 19:37:35,84.30032811918622
8.0445175,5.449203,0.095768064,5.0,8.049625,5.597963,0.095342435,0.027240695,-0.12258312,0.0,2017-06-08 19:37:36,82.52107499178472
7.8146744,5.8322754,-0.8619126,2.0,8.049625,5.597963,0.05448139,-0.013620348,-0.095342435,-0.83084124,2017-06-08 19:37:37,79.98737011289472
7.603985,5.985504,-1.1875241,5.0,7.9815235,5.6660643,-0.49033248,-0.38136974,0.3949901,-1.1849703,2017-06-08 19:37:38,84.00348685654026
7.536947,6.1100025,-1.3120226,5.0,7.722737,5.952092,-0.95342433,-0.19068487,0.16344418,-0.29964766,2017-06-08 19:37:39,83.78993840225802
7.5465236,6.1100025,-1.1013328,5.0,7.600154,6.0882955,-1.1304889,-0.027240695,0.0,0.095342435,2017-06-08 19:37:40,82.8440839123695
7.536947,6.1387334,-1.2066777,5.0,7.559293,6.115536,-1.2394516,-0.027240695,0.027240695,0.027240695,2017-06-08 19:37:41,78.74898019637465
7.52737,6.157887,-1.3215994,5.0,7.5456724,6.1563973,-1.1849703,-0.027240695,0.0,-0.10896278,2017-06-08 19:37:42,83.89055488089973
7.479486,6.167464,-1.4652514,5.0,7.532052,6.142777,-1.2394516,-0.040861044,0.027240695,-0.17706451,2017-06-08 19:37:43,79.82877499175272
7.469909,6.205771,-1.532289,5.0,7.518432,6.1563973,-1.3484143,-0.040861044,0.040861044,-0.12258312,2017-06-08 19:37:44,70.08909029170641
7.52737,6.14831,-1.13964,5.0,7.4911914,6.1700177,-1.4165161,0.068101734,-0.08172209,0.24516624,2017-06-08 19:37:46,67.44217889413547
7.2592196,6.493075,-1.388637,5.0,7.518432,6.197258,-1.1304889,-0.16344418,0.14982383,0.05448139,2017-06-08 19:37:47,73.95687002489218
8.2169,5.2289367,1.6663644,5.0,7.43671,6.3198414,-0.96704465,1.2803127,-1.7978858,2.315459,2017-06-08 19:37:48,82.96486160948129
5.535394,7.2209125,4.012682,2.0,7.3277473,6.4560447,0.8853226,-1.9477097,0.7627395,2.4925234,2017-06-08 19:37:49,81.84565117326494
7.3645644,4.8745947,4.357447,2.0,5.9929533,6.8782754,3.5957716,1.375655,-1.9477097,0.95342433,2017-06-08 19:37:50,83.44950537424077
6.6079965,5.0182467,5.439626,2.0,6.7148314,5.393657,4.69902,-0.16344418,-0.28602728,0.6401563,2017-06-08 19:37:51,77.49640032515462
6.540959,4.9703627,5.5258174,2.0,6.592248,5.0395284,5.2165933,-0.040861044,-0.068101734,0.29964766,2017-06-08 19:37:52,63.820458431942164
5.851429,4.903325,6.339846,2.0,6.483285,4.944186,5.448139,-0.4086104,-0.068101734,0.74911916,2017-06-08 19:37:53,83.28432533230168
5.4204726,4.9416323,6.7133417,2.0,5.8703694,4.903325,6.1291566,-0.44947144,0.08172209,0.5448139,2017-06-08 19:37:54,82.35328284266286
5.5258174,4.9224787,6.646304,2.0,5.3800373,4.9169455,6.565007,0.10896278,0.027240695,0.095342435,2017-06-08 19:37:55,80.22785884727216
5.5258174,4.9416323,6.6367273,2.0,5.3800373,4.903325,6.5786276,0.25878662,0.027240695,-0.08172209,2017-06-08 19:37:56,82.51264245288527
5.6120086,4.9224787,6.540959,2.0,5.448139,4.8897047,6.5377665,0.17706451,0.013620348,-0.013620348,2017-06-08 19:37:57,59.840166898366505
5.6407394,4.903325,6.5122285,2.0,5.50262,4.8897047,6.483285,0.12258312,0.040861044,0.027240695,2017-06-08 19:37:58,77.74265677590026
5.659893,4.903325,6.493075,2.0,5.5434813,4.8760843,6.469665,0.16344418,0.0,0.013620348,2017-06-08 19:37:59,83.15556573246134
5.7748146,4.8841715,6.397307,2.0,5.5571017,4.8760843,6.4424243,0.14982383,0.027240695,0.013620348,2017-06-08 19:38:00,80.41800373323514
6.1004257,4.9224787,6.1387334,2.0,5.7069254,4.862464,6.3334613,0.4086104,0.040861044,-0.19068487,2017-06-08 19:38:01,58.85168633224563
6.0716953,4.8937483,6.1866174,2.0,5.979333,4.8488436,6.074675,0.10896278,0.05448139,0.095342435,2017-06-08 19:38:02,68.46052087394911
6.14831,4.903325,6.090849,2.0,5.9929533,4.835223,6.0610547,0.14982383,0.05448139,0.040861044,2017-06-08 19:38:03,82.5084387193936
6.1100025,4.903325,6.1387334,2.0,6.020194,4.835223,6.0474343,0.13620347,0.040861044,0.068101734,2017-06-08 19:38:04,62.93751242464282
6.1004257,4.8745947,6.1387334,2.0,6.020194,4.835223,6.0610547,0.05448139,0.068101734,0.10896278,2017-06-08 19:38:05,78.64213243016864
6.0716953,4.8745947,6.1866174,2.0,6.0065737,4.835223,6.074675,0.068101734,0.040861044,0.095342435,2017-06-08 19:38:06,67.66805833692928
6.090849,4.865018,6.14831,2.0,5.9929533,4.835223,6.074675,0.10896278,0.040861044,0.095342435,2017-06-08 19:38:07,83.29214554713266
6.1100025,4.865018,6.157887,2.0,5.9929533,4.835223,6.074675,0.08172209,0.05448139,0.095342435,2017-06-08 19:38:08,84.86813908104297
6.042965,4.8841715,6.205771,2.0,5.9929533,4.821603,6.0882955,0.068101734,0.068101734,0.08172209,2017-06-08 19:38:09,81.42354008432255
6.0525417,4.8841715,6.205771,2.0,5.9929533,4.821603,6.0882955,0.095342435,0.05448139,0.05448139,2017-06-08 19:38:10,77.24823007772648
6.253655,4.8458643,5.995081,2.0,5.9929533,4.835223,6.0882955,0.2043052,0.013620348,-0.013620348,2017-06-08 19:38:11,83.84369998530994
6.253655,4.8267107,6.0238113,2.0,6.033814,4.835223,6.0474343,0.21792556,0.013620348,-0.040861044,2017-06-08 19:38:12,82.67889761145392
6.205771,4.8362875,6.042965,2.0,6.0882955,4.821603,5.9929533,0.12258312,0.05448139,0.08172209,2017-06-08 19:38:13,82.86669482250737
6.1387334,4.6351743,6.1770406,2.0,6.0882955,4.835223,5.9929533,-0.14982383,0.027240695,0.21792556,2017-06-08 19:38:14,77.20551674895711
5.506664,4.8362875,6.8282633,2.0,6.020194,4.7943625,6.0882955,-0.53119355,0.12258312,0.7627395,2017-06-08 19:38:15,84.07766724053133
5.6407394,4.8458643,6.531382,2.0,5.7477865,4.780742,6.3470817,-0.16344418,0.095342435,0.27240694,2017-06-08 19:38:16,83.05970825827147
5.650316,4.8362875,6.5696893,2.0,5.5843425,4.7943625,6.483285,0.068101734,0.027240695,0.068101734,2017-06-08 19:38:17,68.33400077039788
5.6886234,4.807557,6.5505357,2.0,5.5843425,4.807983,6.483285,0.095342435,0.0,0.068101734,2017-06-08 19:38:18,69.34365731277155
5.6982,4.807557,6.5218053,2.0,5.597963,4.780742,6.483285,0.08172209,0.027240695,0.027240695,2017-06-08 19:38:19,70.85406649507959
7.383718,5.0278234,5.085284,2.0,5.7069254,4.767122,6.401563,1.3075534,-1.3892754,-1.3484143,2017-06-08 19:38:20,64.90378288806961
7.795521,4.7500963,4.711789,2.0,6.551387,4.3993726,5.815888,0.6401563,0.50395286,-0.36774936,2017-06-08 19:38:21,64.0971327132971
6.2632318,6.895301,0.8619126,2.0,7.532052,4.5491962,4.33127,0.25878662,0.47671217,-1.8659877,2017-06-08 19:38:22,70.94092027098822
6.991069,5.8322754,3.8019924,2.0,7.5456724,5.5843425,2.8330321,-0.5448139,0.21792556,0.91256326,2017-06-08 19:38:23,69.72902459306857
6.991069,5.650316,4.1371803,2.0,7.05534,5.7886477,3.5821512,-0.08172209,-0.16344418,0.5448139,2017-06-08 19:38:24,75.32409796118125
6.991069,5.602432,4.1371803,2.0,6.932757,5.611583,4.072484,0.068101734,-0.027240695,0.08172209,2017-06-08 19:38:25,82.60923662075206
7.0102224,5.583278,4.1659107,2.0,6.9599977,5.5434813,4.113345,0.068101734,0.013620348,0.013620348,2017-06-08 19:38:26,81.26015943028702
7.038953,5.5641246,4.156334,2.0,6.973618,5.529861,4.113345,0.05448139,0.027240695,0.027240695,2017-06-08 19:38:27,83.82959538827603
7.019799,5.583278,4.1276035,2.0,6.973618,5.529861,4.113345,0.05448139,0.027240695,0.013620348,2017-06-08 19:38:28,84.3407129781272
7.038953,5.544971,4.1371803,2.0,6.973618,5.529861,4.113345,0.08172209,0.0,0.0,2017-06-08 19:38:29,83.42059709295923
7.038953,5.5641246,4.1180267,2.0,6.9872384,5.5162406,4.113345,0.05448139,0.027240695,0.027240695,2017-06-08 19:38:31,82.64545476674307
6.2728086,5.48751,5.401319,2.0,6.932757,5.50262,4.2223077,-0.61291564,-0.040861044,1.0896277,2017-06-08 19:38:32,81.3380382170075
6.789956,5.363012,4.817134,2.0,6.524146,5.434519,4.9169455,0.12258312,-0.040861044,0.040861044,2017-06-08 19:38:33,80.0683601626534
6.83784,5.3725886,4.7788267,2.0,6.5786276,5.3527966,4.9169455,0.24516624,0.013620348,-0.12258312,2017-06-08 19:38:34,75.71787105916415
6.8091097,5.3821654,4.7788267,2.0,6.7284517,5.325556,4.739881,0.095342435,0.040861044,0.068101734,2017-06-08 19:38:35,78.98054164103907
6.397307,5.4779334,5.1235914,2.0,6.701211,5.298315,4.821603,-0.27240694,0.12258312,0.36774936,2017-06-08 19:38:36,80.18155160799965
6.5026517,5.3725886,5.094861,2.0,6.4969053,5.3119354,5.08039,-0.027240695,0.068101734,0.027240695,2017-06-08 19:38:37,82.60680617214854
6.5122285,5.3821654,5.094861,2.0,6.4424243,5.3800373,5.08039,0.068101734,0.0,0.0,2017-06-08 19:38:38,84.02683419705296
6.7612257,5.391742,4.817134,2.0,6.4969053,5.3527966,5.025908,0.14982383,0.10896278,-0.12258312,2017-06-08 19:38:39,82.7033577871096
6.885724,5.353435,4.6926355,2.0,6.6331096,5.339176,4.8760843,0.23154591,0.040861044,-0.16344418,2017-06-08 19:38:40,60.415823280305574
6.9527617,5.305551,4.654328,2.0,6.7965536,5.298315,4.69902,0.17706451,-0.040861044,-0.068101734,2017-06-08 19:38:41,73.41328722403189
6.646304,5.305551,4.999093,2.0,6.810174,5.2846947,4.671779,-0.2043052,0.068101734,0.38136974,2017-06-08 19:38:42,83.22468629158477
6.588843,5.3247046,5.2480903,2.0,6.565007,5.339176,4.971427,-0.24516624,0.095342435,0.068101734,2017-06-08 19:38:43,63.654932158147545
6.483498,5.315128,5.2480903,2.0,6.387943,5.3527966,5.1621118,0.16344418,-0.13620347,0.08172209,2017-06-08 19:38:44,78.4889770352623
6.540959,5.2959743,5.133168,2.0,6.4424243,5.298315,5.1621118,0.10896278,-0.05448139,0.027240695,2017-06-08 19:38:45,78.27783275521423
6.579266,5.2863975,5.142745,2.0,6.483285,5.2710743,5.134871,0.08172209,0.0,-0.013620348,2017-06-08 19:38:46,82.94310744803678
6.579266,5.2959743,5.133168,2.0,6.5105257,5.257454,5.1076303,0.040861044,0.040861044,0.040861044,2017-06-08 19:38:47,82.87295657443315
6.6079965,5.2768207,5.104438,2.0,6.5105257,5.2710743,5.1076303,0.068101734,0.013620348,-0.013620348,2017-06-08 19:38:48,83.43951445785146
6.6175733,5.2959743,5.085284,2.0,6.5377665,5.2710743,5.08039,0.05448139,0.027240695,0.0,2017-06-08 19:38:49,79.60887747550599
6.6367273,5.2959743,5.0757074,2.0,6.551387,5.2710743,5.0531487,0.08172209,0.027240695,0.013620348,2017-06-08 19:38:50,83.53979263924374
6.6846113,5.2959743,5.0374002,2.0,6.5786276,5.2438335,5.0395284,0.10896278,0.013620348,0.013620348,2017-06-08 19:38:51,83.4639760572112
6.6079965,5.315128,5.0661306,2.0,6.5786276,5.257454,5.0395284,0.05448139,0.027240695,0.040861044,2017-06-08 19:38:52,83.83157252805971
6.6271505,5.2863975,5.085284,2.0,6.592248,5.2438335,5.0122876,0.05448139,0.040861044,0.05448139,2017-06-08 19:38:53,83.34240398213497
6.6654577,5.2959743,5.046977,2.0,6.565007,5.257454,5.0395284,0.068101734,0.040861044,-0.013620348,2017-06-08 19:38:54,76.64163166162704
6.6846113,5.257667,5.056554,2.0,6.551387,5.2710743,5.0531487,0.10896278,0.0,0.027240695,2017-06-08 19:38:55,80.52698461578927
6.6654577,5.2863975,5.046977,2.0,6.592248,5.2438335,5.0395284,0.08172209,0.027240695,0.027240695,2017-06-08 19:38:56,81.55872102173534
6.6750345,5.2768207,5.056554,2.0,6.592248,5.2302136,5.025908,0.068101734,0.068101734,0.040861044,2017-06-08 19:38:57,82.12240958957791
6.7708025,5.1523223,5.094861,2.0,6.6194887,5.2302136,5.0122876,0.13620347,-0.095342435,0.10896278,2017-06-08 19:38:58,78.46695302641754
6.799533,5.1140146,5.1140146,2.0,6.6603503,5.1484914,5.0395284,0.12258312,-0.013620348,0.05448139,2017-06-08 19:38:59,84.6022554436799
6.483498,5.085284,5.5258174,2.0,6.6603503,5.1076303,5.08039,-0.19068487,0.027240695,0.3405087,2017-06-08 19:39:00,85.15591691461572
6.3781533,5.2289367,5.439626,2.0,6.401563,5.175732,5.325556,-0.12258312,0.14982383,0.19068487,2017-06-08 19:39:01,84.7531766540461
6.397307,5.2289367,5.391742,2.0,6.2789803,5.2438335,5.407278,0.08172209,0.013620348,0.0,2017-06-08 19:39:02,82.93957799380635
6.435614,5.171476,5.439626,2.0,6.3198414,5.2165933,5.393657,0.095342435,-0.05448139,0.05448139,2017-06-08 19:39:03,81.07382875469305
6.339846,5.2289367,5.4779334,2.0,6.3334613,5.175732,5.407278,-0.040861044,0.08172209,0.14982383,2017-06-08 19:39:04,80.62988434477842
6.5122285,5.1140146,5.4300494,2.0,6.3198414,5.1621118,5.434519,0.068101734,0.05448139,0.0,2017-06-08 19:39:05,82.54847224317291
6.83784,5.0757074,5.0757074,2.0,6.3470817,5.1621118,5.407278,0.4086104,-0.040861044,-0.32688835,2017-06-08 19:39:06,75.07604159041871
6.6846113,5.1810527,5.2002063,2.0,6.592248,5.134871,5.134871,0.25878662,0.0,-0.068101734,2017-06-08 19:39:07,81.96497785533809
6.38773,5.305551,5.401319,2.0,6.6603503,5.1076303,5.0667696,-0.16344418,0.08172209,0.31326798,2017-06-08 19:39:08,63.216304664622896
6.6175733,5.0757074,5.3725886,2.0,6.469665,5.1212506,5.298315,-0.040861044,0.2043052,0.13620347,2017-06-08 19:39:09,75.45573258211523
6.7133417,5.0661306,5.305551,2.0,6.387943,5.175732,5.339176,0.29964766,-0.12258312,-0.10896278,2017-06-08 19:39:10,77.34098791763137
6.742072,4.9799395,5.305551,2.0,6.5377665,5.0395284,5.3119354,0.14982383,0.0,-0.013620348,2017-06-08 19:39:11,78.85451521646615
6.703765,4.951209,5.401319,2.0,6.6194887,4.985047,5.257454,0.068101734,-0.027240695,0.12258312,2017-06-08 19:39:12,83.30540545168711
6.588843,4.9224787,5.4683566,2.0,6.592248,4.9578066,5.3119354,-0.10896278,0.08172209,0.2043052,2017-06-08 19:39:13,70.77048033319193
6.579266,4.9703627,5.4779334,2.0,6.551387,4.9578066,5.3527966,0.0,0.013620348,0.10896278,2017-06-08 19:39:14,82.502077371766
6.5505357,4.951209,5.506664,2.0,6.4969053,4.930566,5.448139,0.05448139,0.0,0.068101734,2017-06-08 19:39:16,78.66678753923506
5.746084,4.3478703,6.7229185,2.0,6.4969053,4.9169455,5.448139,-0.55843425,-0.35412902,0.96704465,2017-06-08 19:39:17,82.07068383242002
2.0398598,1.685518,9.950302,2.0,5.50262,4.1269655,6.9872384,-2.3971813,-3.2552629,2.6151068,2017-06-08 19:39:18,67.92023826414407
1.6663644,2.1068976,9.557653,2.0,3.0781987,1.9068487,9.125632,-0.17706451,0.42223078,0.47671217,2017-06-08 19:39:19,82.05158254467068
1.1683705,1.3024458,9.921572,2.0,1.8659877,1.1441091,9.561484,-0.6946377,0.13620347,0.36774936,2017-06-08 19:39:20,74.64574353701286
0.90021986,1.2737153,9.959879,2.0,1.2122109,1.1304889,9.670446,-0.28602728,0.12258312,0.28602728,2017-06-08 19:39:21,81.50665549702686
0.9768343,1.2641385,9.931149,2.0,0.92618364,1.2394516,9.684067,0.027240695,0.040861044,0.24516624,2017-06-08 19:39:22,78.35538997242404
0.9672575,1.2449849,9.950302,2.0,0.91256326,1.2394516,9.697687,0.05448139,-0.013620348,0.24516624,2017-06-08 19:39:23,84.55438964543376
1.0151415,1.292869,9.940725,2.0,0.92618364,1.2258313,9.697687,0.068101734,0.05448139,0.24516624,2017-06-08 19:39:24,83.14531285601932
1.043872,1.3024458,9.940725,2.0,0.96704465,1.2530719,9.684067,0.068101734,0.027240695,0.27240694,2017-06-08 19:39:25,79.90864949372909
1.1683705,1.3503298,9.911995,2.0,0.99428535,1.2530719,9.684067,0.13620347,0.08172209,0.23154591,2017-06-08 19:39:26,78.42398266167935
1.0726024,1.4269443,9.921572,2.0,1.0351465,1.293933,9.670446,0.027240695,0.095342435,0.25878662,2017-06-08 19:39:27,83.13801750805487
1.0726024,1.4173675,9.921572,2.0,1.0351465,1.3211737,9.670446,0.027240695,0.08172209,0.25878662,2017-06-08 19:39:28,76.09280373697351
1.0534488,1.4077905,9.931149,2.0,1.0351465,1.375655,9.656826,0.027240695,0.040861044,0.28602728,2017-06-08 19:39:29,83.83751920041291
1.0534488,1.4173675,9.911995,2.0,1.0351465,1.375655,9.656826,0.040861044,0.0,0.27240694,2017-06-08 19:39:30,78.25211677924156
1.091756,1.3599066,9.950302,2.0,1.0351465,1.375655,9.656826,0.05448139,-0.027240695,0.28602728,2017-06-08 19:39:31,83.78331067899308
1.1204864,1.3694834,9.921572,2.0,1.0487667,1.3484143,9.670446,0.068101734,-0.013620348,0.27240694,2017-06-08 19:39:32,82.57087353321134
1.0821792,1.3215994,9.940725,2.0,1.0623871,1.3211737,9.670446,0.027240695,-0.013620348,0.25878662,2017-06-08 19:39:33,76.78088326891621
1.1109096,1.2737153,9.921572,2.0,1.0623871,1.334794,9.670446,0.027240695,-0.040861044,0.27240694,2017-06-08 19:39:34,82.68988323769376
1.0534488,1.1971009,9.940725,2.0,1.0623871,1.2803127,9.670446,0.0,-0.08172209,0.25878662,2017-06-08 19:39:35,80.50469301099172
0.9959879,1.1683705,9.950302,2.0,1.0487667,1.2394516,9.684067,-0.068101734,-0.10896278,0.27240694,2017-06-08 19:39:36,83.59595258829344
1.0630256,1.1683705,9.931149,2.0,1.0079057,1.1577295,9.697687,0.040861044,0.013620348,0.24516624,2017-06-08 19:39:37,82.04117522328303
1.0630256,1.1971009,9.940725,2.0,1.0079057,1.1441091,9.697687,0.05448139,0.027240695,0.24516624,2017-06-08 19:39:38,80.62739376438242
1.0821792,1.2354081,9.931149,2.0,1.0079057,1.1304889,9.697687,0.040861044,0.095342435,0.21792556,2017-06-08 19:39:39,58.9884857487412
1.0821792,1.1779473,9.940725,2.0,1.0351465,1.1713499,9.684067,0.040861044,-0.013620348,0.25878662,2017-06-08 19:39:40,79.73818589513725
1.1109096,1.1875241,9.931149,2.0,1.0487667,1.1441091,9.684067,0.040861044,0.027240695,0.27240694,2017-06-08 19:39:41,81.92488581551574
1.0726024,1.1683705,9.940725,2.0,1.0487667,1.1441091,9.684067,0.040861044,0.013620348,0.25878662,2017-06-08 19:39:42,77.02888975747496
1.1204864,1.0821792,9.950302,2.0,1.0487667,1.1441091,9.684067,0.05448139,-0.05448139,0.25878662,2017-06-08 19:39:43,77.55739172824163
1.1492168,1.0821792,9.940725,2.0,1.0760074,1.1168685,9.684067,0.068101734,-0.040861044,0.25878662,2017-06-08 19:39:44,84.22550980081996
1.1587936,1.1587936,9.940725,2.0,1.0896277,1.0760074,9.697687,0.0,0.05448139,0.32688835,2017-06-08 19:39:45,84.09012946921045
1.5993267,1.7142484,9.749189,2.0,1.1985906,1.2530719,9.656826,0.46309182,0.61291564,0.068101734,2017-06-08 19:39:46,82.03049303953367
1.6663644,1.3790601,9.864111,2.0,1.484618,1.5390993,9.575105,0.17706451,-0.17706451,0.28602728,2017-06-08 19:39:47,73.74056898601961
1.4460979,1.532289,9.844957,2.0,1.56634,1.4573771,9.575105,-0.10896278,0.10896278,0.24516624,2017-06-08 19:39:48,78.2233229970283
1.3120226,1.4939818,9.883265,2.0,1.4165161,1.4709975,9.602345,-0.10896278,0.013620348,0.27240694,2017-06-08 19:39:49,77.90265132783136
1.2162545,1.388637,9.940725,2.0,1.293933,1.4709975,9.615966,-0.068101734,0.13620347,0.24516624,2017-06-08 19:39:50,82.69626008111308
1.8483237,2.1068976,9.844957,2.0,1.375655,1.5527196,9.588725,0.3949901,0.47671217,0.42223078,2017-06-08 19:39:51,77.96017710912896
1.5227122,1.6184803,12.698846,2.0,2.1792555,1.375655,9.466142,-1.9340893,-0.27240694,0.24516624,2017-06-08 19:39:52,84.32420714430424
3.265691,0.90979666,9.002198,2.0,2.002191,0.92618364,9.561484,0.7354987,-0.27240694,-0.7218784,2017-06-08 19:39:53,83.66078186115715
4.759673,-0.90021986,8.944737,2.0,3.0373375,1.1713499,9.248216,2.3699405,-1.5390993,-0.58567494,2017-06-08 19:39:54,83.38075977565722
5.851429,0.32561144,8.24563,2.0,4.8760843,0.70825803,8.4854765,0.7354987,0.10896278,-0.040861044,2017-06-08 19:39:55,84.4079591553873
5.717354,0.20111294,7.881712,0.0,5.4208984,0.3405087,8.172209,0.53119355,0.013620348,-0.10896278,2017-06-08 19:39:56,83.53540155677086
6.0525417,-0.29688102,7.9487495,0.0,5.734166,-0.040861044,7.9542828,0.38136974,-0.25878662,0.2043052,2017-06-08 19:39:57,71.85150313099899
6.081272,0.0,8.063671,0.0,5.88399,-0.095342435,7.8453197,0.19068487,0.095342435,0.013620348,2017-06-08 19:39:58,80.66558909708374
6.042965,-0.1436521,8.015787,0.0,5.952092,0.0,7.7908387,0.068101734,-0.13620347,0.23154591,2017-06-08 19:40:00,83.62337804968973
5.9663506,-0.10534488,7.8912888,0.0,5.9112306,-0.040861044,7.8317,0.16344418,0.013620348,0.040861044,2017-06-08 19:40:01,83.96687964536139
5.90889,-0.08619126,8.264784,0.0,5.88399,-0.05448139,7.8453197,0.0,0.068101734,0.38136974,2017-06-08 19:40:02,83.94693530551551
5.554548,-0.47884035,8.437167,0.0,5.693305,-0.08172209,7.9815235,-0.23154591,-0.42223078,0.28602728,2017-06-08 19:40:03,81.23876529082932
5.4683566,-0.641646,8.264784,0.0,5.407278,-0.3949901,8.172209,0.027240695,-0.25878662,0.14982383,2017-06-08 19:40:04,84.29846807195047
5.410896,-1.0630256,8.0924015,0.0,5.393657,-0.7763598,8.158588,0.29964766,-0.29964766,0.13620347,2017-06-08 19:40:05,82.83900744483836
5.056554,0.6895301,8.590396,2.0,5.4208984,-0.83084124,8.131348,-0.62653595,1.375655,0.74911916,2017-06-08 19:40:06,73.5065322678027
4.5872903,-0.45968673,8.590396,2.0,4.903325,0.08172209,8.499097,-1.3211737,-0.667397,0.83084124,2017-06-08 19:40:07,81.47759210942702
4.2042184,-0.21068975,9.136273,2.0,4.658159,-0.12258312,8.6353,-0.53119355,0.19068487,0.6946377,2017-06-08 19:40:08,83.33810589467576
3.0262709,-1.3024458,9.078813,2.0,4.113345,-0.51757324,8.894087,-0.939804,-0.4086104,0.4086104,2017-06-08 19:40:09,81.73778083350783
2.882619,-1.8962077,9.864111,2.0,3.0237172,-1.0079057,9.275456,-0.19068487,-0.8580819,0.3405087,2017-06-08 19:40:10,76.12487769607121
3.1028855,-1.2162545,9.662998,2.0,2.7921712,-1.4301364,9.289077,0.38136974,0.12258312,0.027240695,2017-06-08 19:40:11,79.41182289815436
2.2984335,-0.89064306,10.228029,2.0,2.941995,-1.3211737,9.261836,-0.47671217,0.3405087,0.7763598,2017-06-08 19:40:12,83.84735618077272
2.4899697,-1.0151415,9.892841,2.0,2.6151068,-1.1304889,9.384419,0.068101734,-0.12258312,0.21792556,2017-06-08 19:40:13,76.75978583097061
2.5953147,-1.7908629,9.337387,2.0,2.5197642,-1.1168685,9.41166,0.14982383,-0.62653595,-0.08172209,2017-06-08 19:40:14,81.36178421641449
2.5474305,-1.6663644,9.414001,2.0,2.465283,-1.3075534,9.41166,-0.013620348,0.21792556,0.21792556,2017-06-08 19:40:15,74.82075456744221
2.4229321,-1.4173675,9.662998,2.0,2.3563201,-1.3892754,9.425281,0.05448139,0.040861044,0.05448139,2017-06-08 19:40:16,59.584234531201915
2.3080103,-1.532289,9.643845,2.0,2.2473574,-1.3075534,9.452521,0.14982383,-0.013620348,0.19068487,2017-06-08 19:40:17,61.36562155509593
2.1930888,-1.5035586,9.720459,2.0,2.192876,-1.2394516,9.479762,0.08172209,-0.16344418,0.17706451,2017-06-08 19:40:18,78.49093596922684
2.1260512,-1.5131354,9.816227,2.0,2.1792555,-1.2258313,9.493382,0.027240695,-0.095342435,0.19068487,2017-06-08 19:40:19,82.13665327341373
2.2984335,-1.541866,9.643845,2.0,2.1383946,-1.2530719,9.493382,0.23154591,-0.14982383,0.23154591,2017-06-08 19:40:20,69.64387049568981
2.2218192,-1.4460979,9.672575,2.0,2.1247742,-1.3075534,9.493382,0.0,-0.23154591,0.29964766,2017-06-08 19:40:21,81.42403091874897
2.231396,-1.4460979,9.739613,2.0,2.1520147,-1.4028958,9.466142,0.040861044,-0.08172209,0.28602728,2017-06-08 19:40:22,84.73114520841696
2.2601264,-1.13964,9.749189,2.0,2.1520147,-1.3484143,9.479762,0.12258312,0.21792556,0.32688835,2017-06-08 19:40:23,83.92398982176438
2.183512,-0.6703765,9.911995,2.0,2.165635,-1.1849703,9.493382,0.027240695,0.44947144,0.3949901,2017-06-08 19:40:24,83.23219471012764
1.7908629,-0.31603462,9.77792,2.0,2.1247742,-0.7899802,9.547864,-0.35412902,0.5448139,0.28602728,2017-06-08 19:40:25,79.30672703434922
1.2545617,-0.17238252,9.844957,5.0,1.7434045,-0.25878662,9.656826,-0.51757324,0.14982383,0.13620347,2017-06-08 19:40:26,82.63254337909953
1.1587936,0.40222588,10.141838,8.0,1.4028958,0.068101734,9.711308,-0.23154591,0.3405087,0.43585113,2017-06-08 19:40:27,79.07792799796863
1.1204864,0.8810662,9.969456,8.0,1.1849703,0.3949901,9.738548,-0.08172209,0.3949901,0.16344418,2017-06-08 19:40:28,82.37402329351798
1.1204864,0.61291564,10.132261,5.0,1.0487667,0.6537767,9.738548,0.095342435,-0.3949901,0.28602728,2017-06-08 19:40:29,83.89319055611104
1.1875241,0.5746084,9.9790325,5.0,1.0760074,0.61291564,9.738548,0.068101734,-0.14982383,0.31326798,2017-06-08 19:40:30,83.85103326898931
0.9864111,0.51714754,10.0748005,5.0,1.1032481,0.55843425,9.738548,-0.040861044,-0.013620348,0.14982383,2017-06-08 19:40:31,83.56681777358514
1.2737153,0.8619126,9.854534,8.0,1.0760074,0.5448139,9.738548,0.12258312,0.25878662,0.4086104,2017-06-08 19:40:32,84.1676203647564
0.842759,0.6703765,10.0269165,5.0,1.0487667,0.6537767,9.738548,-0.28602728,0.095342435,0.25878662,2017-06-08 19:40:33,83.44737927512872
1.0151415,0.49799395,10.132261,8.0,0.91256326,0.667397,9.752169,0.19068487,-0.05448139,0.28602728,2017-06-08 19:40:34,83.68367741719823
2.0973208,0.9864111,11.089942,8.0,1.1849703,0.5448139,9.724928,0.6810174,-0.16344418,1.4573771,2017-06-08 19:40:35,81.16259904130712
4.9320555,-3.4763808,9.519346,5.0,2.2609777,0.32688835,9.547864,2.6014864,-3.3642259,-0.87170225,2017-06-08 19:40:36,82.32362157795112
4.721366,-2.9496565,9.816227,11.0,4.1269655,-1.7706451,8.717022,0.5448139,-1.0079057,-0.57205456,2017-06-08 19:40:37,83.64286438852253
4.8745947,-0.5746084,8.274361,17.0,4.235928,-1.3484143,8.744264,0.29964766,0.55843425,-0.095342435,2017-06-08 19:40:38,82.32173040180515
5.841852,1.3120226,8.475474,17.0,4.385752,0.50395286,8.757884,1.2666924,-0.31326798,-0.83084124,2017-06-08 19:40:39,77.71047888687585
3.8498764,2.030283,7.603985,5.0,5.0122876,1.3484143,8.322032,-1.1441091,1.4301364,0.6810174,2017-06-08 19:40:40,83.57811413954933
6.8282633,1.6759412,11.032481,8.0,4.862464,1.375655,8.403754,2.083913,0.32688835,1.6753027,2017-06-08 19:40:41,80.9836981097107
4.548983,5.410896,9.126697,5.0,5.3800373,1.0623871,8.131348,-1.0487667,3.296124,-1.5390993,2017-06-08 19:40:42,74.1758668998199
2.4612393,4.1659107,6.8569937,17.0,4.508335,3.1871612,8.104107,-1.838747,0.95342433,-0.4086104,2017-06-08 19:40:43,83.06129426476912
4.711789,0.59376204,10.275913,36.0,3.4731886,3.5004294,8.4854765,1.525479,-2.860273,2.2201166,2017-06-08 19:40:44,81.73361103997198
3.8498764,2.4516625,9.481039,11.0,3.8136973,2.165635,8.771504,0.53119355,0.21792556,-0.46309182,2017-06-08 19:40:45,77.20599775298132
3.6104562,1.0821792,7.2209125,8.0,3.3506055,1.7161638,9.057531,-0.6810174,0.23154591,-0.95342433,2017-06-08 19:40:46,64.34239232055174
2.6527755,1.8291701,8.858546,8.0,3.3642259,1.0623871,9.152873,0.31326798,1.2394516,2.969236,2017-06-08 19:40:48,56.8421711105363
5.0182467,1.5993267,10.5440645,14.0,3.800077,0.6810174,9.01667,1.1985906,0.24516624,-0.12258312,2017-06-08 19:40:49,76.7759639402139
6.1195793,-0.11492168,7.9104424,28.0,4.671779,0.0,8.621679,1.0896277,0.095342435,-1.2258313,2017-06-08 19:40:50,83.509248419548
3.9743748,-0.35434186,7.1634517,11.0,5.2846947,-0.23154591,8.253931,-1.4709975,-0.31326798,-0.46309182,2017-06-08 19:40:51,82.41874874708142
7.1634517,-0.82360536,8.341399,5.0,4.930566,-0.17706451,8.4854765,2.002191,0.8853226,1.3484143,2017-06-08 19:40:52,75.88578588307932
9.902418,3.916914,-0.12449849,8.0,5.802268,0.939804,7.85894,2.3971813,2.6423473,-8.730643,2017-06-08 19:40:53,58.19371758763755
7.1347213,-9.375694,1.9632454,2.0,8.812365,1.8659877,3.8545582,-3.3914666,-8.158588,-4.658159,2017-06-08 19:40:54,61.133418253796464
3.4284968,-6.4547677,7.1634517,8.0,6.9872384,-6.2108784,2.9283745,-7.028099,-0.70825803,4.4538536,2017-06-08 19:40:55,58.63099495197625
2.4133554,-6.14831,9.624691,39.0,3.486809,-7.763598,4.8760843,-0.6537767,0.6946377,1.6344416,2017-06-08 19:40:56,59.26449075921107
6.3206925,-0.7086837,8.868123,45.0,4.0180025,-6.0065737,6.6331096,2.5061438,0.99428535,-2.002191,2017-06-08 19:40:57,59.91460362552678
10.228029,0.7278373,6.540959,39.0,6.6603503,-3.0237172,6.524146,1.9340893,1.6889231,-0.17706451,2017-06-08 19:40:58,62.18847789875014
7.422025,1.2545617,8.111555,34.0,8.499097,0.31326798,4.862464,-1.1304889,-0.53119355,0.50395286,2017-06-08 19:40:59,60.31539173531387
5.995081,-0.6895301,9.32781,70.0,7.695496,1.0487667,5.979333,-1.525479,-1.5118586,0.46309182,2017-06-08 19:41:00,59.60230419060294
5.544971,-1.2162545,5.985504,36.0,6.687591,0.5448139,7.1506824,-1.0896277,-1.8251265,-1.0896277,2017-06-08 19:41:01,59.44521763063153
4.271256,-3.016694,6.301539,48.0,7.0144787,-0.2043052,6.851035,-1.3892754,-1.5799603,0.70825803,2017-06-08 19:41:02,59.49449643320768
5.094861,-2.2218192,8.7532015,42.0,7.000859,-1.0623871,6.782933,0.939804,-1.0079057,3.0237172,2017-06-08 19:41:03,58.65703335692941
9.471462,-1.2162545,4.673482,59.0,6.360702,-1.6208212,7.2868857,1.2666924,0.8580819,-1.293933,2017-06-08 19:41:04,57.054203994005846
7.795521,-0.60333884,5.391742,51.0,6.3198414,-2.2745981,7.1506824,-0.3949901,2.3018386,0.095342435,2017-06-08 19:41:05,55.264120354126575
7.699753,0.6799533,6.1004257,36.0,5.9929533,-2.6423473,7.300506,0.58567494,2.941995,-1.8659877,2017-06-08 19:41:06,57.10009324360968
6.6846113,-3.4572272,9.107543,65.0,6.0610547,-2.587866,7.259645,-1.3484143,-1.6344416,3.609392,2017-06-08 19:41:07,58.71223895854203
5.3247046,-3.7349546,8.523358,65.0,6.401563,-2.4380422,7.0144787,-0.7763598,-0.96704465,-0.53119355,2017-06-08 19:41:08,57.11895515191995
4.807557,-4.146757,8.513782,102.0,6.3334613,-2.5606253,7.028099,-1.5935806,-1.375655,1.0079057,2017-06-08 19:41:09,57.070194586063664
-0.17238252,-2.72939,7.4028716,93.0,4.535576,-2.4380422,8.349273,-2.3699405,-2.192876,4.630918,2017-06-08 19:41:10,56.42524655105933
3.7924154,-1.934515,8.954314,102.0,2.6014864,-2.9147542,8.989429,0.84446156,1.3075534,0.21792556,2017-06-08 19:41:11,57.50170458185367
0.7469909,-3.5434184,9.557653,73.0,2.8330321,-2.9828563,8.907707,0.21792556,-1.4165161,1.3484143,2017-06-08 19:41:12,57.492399210593064
2.8060043,-3.8594532,8.887277,107.0,2.2745981,-3.6366327,8.825985,0.70825803,-0.08172209,0.05448139,2017-06-08 19:41:13,56.05421570347022
3.0262709,-4.0797195,8.418014,102.0,2.628727,-3.677494,8.703402,0.38136974,-0.32688835,-0.27240694,2017-06-08 19:41:14,56.82583349528925
4.807557,-4.8267107,7.383718,82.0,3.3369853,-4.1814466,8.21307,1.2530719,-0.667397,-0.83084124,2017-06-08 19:41:15,56.03102674016032
4.644751,-5.1906295,7.192182,82.0,4.440233,-4.6853995,7.3822284,0.29964766,-0.35412902,-0.19068487,2017-06-08 19:41:16,57.95060932564297
4.999093,-4.213795,7.680599,85.0,4.6853995,-4.739881,7.191543,0.040861044,0.96704465,0.0,2017-06-08 19:41:17,55.605013965541616
4.003105,-5.257667,6.6750345,85.0,4.4538536,-4.4810944,7.504812,-0.6401563,-0.8853226,-0.10896278,2017-06-08 19:41:18,55.67279809022604
2.9017725,-5.363012,8.025364,93.0,3.7728362,-5.4208984,7.2460246,-0.8172208,-0.12258312,0.91256326,2017-06-08 19:41:19,56.47691801444957
3.763685,-5.305551,7.536947,53.0,3.7047346,-4.862464,7.668256,0.12258312,-0.28602728,-0.095342435,2017-06-08 19:41:20,56.98053858089041
3.7253778,-5.8322754,7.2304893,62.0,3.8136973,-4.7535014,7.681876,-0.095342435,-0.95342433,-0.36774936,2017-06-08 19:41:21,56.79132032114279
2.4612393,-6.244078,7.3166804,56.0,3.323365,-5.88399,7.1098213,-0.84446156,-0.38136974,0.24516624,2017-06-08 19:41:22,56.99009443270018
1.9057846,-5.6120086,7.73806,68.0,2.5606253,-6.142777,7.2051635,-0.6946377,0.32688835,0.50395286,2017-06-08 19:41:23,55.57161877231568
1.7142484,-5.094861,8.341399,62.0,1.8523673,-5.734166,7.736357,-0.27240694,0.43585113,0.61291564,2017-06-08 19:41:24,55.234810569115254
2.681506,-5.8226986,7.97748,34.0,1.6889231,-5.1621118,8.172209,0.95342433,-0.47671217,-0.25878662,2017-06-08 19:41:25,56.61245796185618
3.265691,-5.7748146,7.52737,39.0,2.4925234,-5.339176,7.8317,0.6401563,-0.47671217,-0.25878662,2017-06-08 19:41:26,56.1871865694348
3.5051112,-5.8226986,7.3549876,36.0,3.1054392,-5.611583,7.409469,0.38136974,-0.2043052,-0.05448139,2017-06-08 19:41:27,55.57034992144193
3.6966474,-5.765238,7.3071036,39.0,3.3642259,-5.652444,7.2732654,0.28602728,-0.095342435,0.0,2017-06-08 19:41:28,56.21245175428547
4.501099,-4.8937483,6.9048777,39.0,3.5549107,-5.720546,7.1234417,0.5992953,0.6401563,0.24516624,2017-06-08 19:41:29,54.9559375871252
5.554548,-5.4683566,7.9104424,85.0,4.562816,-4.835223,7.2051635,1.648062,1.1304889,-1.4709975,2017-06-08 19:41:30,55.75603656389738
7.2304893,-1.6567876,2.7102363,28.0,5.4890003,-3.9771414,7.096201,2.6151068,1.5390993,-3.7864566,2017-06-08 19:41:31,57.01945636233994
6.981492,-6.129156,8.389283,62.0,7.3958488,-3.6911142,5.2710743,0.31326798,-0.53119355,-0.96704465,2017-06-08 19:41:32,56.517428610198756
6.751649,-5.2959743,5.793968,53.0,7.6137743,-3.5412903,5.0531487,-3.1871612,-1.1713499,1.4709975,2017-06-08 19:41:33,57.70007688271264
5.3725886,-5.746084,5.707777,39.0,6.5377665,-4.2495484,5.938472,-2.0566726,-0.8853226,1.0487667,2017-06-08 19:41:34,58.57657697780017
3.2369606,-5.947197,9.5385,51.0,5.5843425,-4.6853995,6.551387,-1.2394516,-1.6753027,2.1792555,2017-06-08 19:41:35,58.24692132975627
6.847417,-5.841852,4.9224787,34.0,4.985047,-4.7126403,7.000859,0.44947144,0.38136974,-0.068101734,2017-06-08 19:41:36,59.2958986199218
3.6104562,-7.3645644,1.7046716,25.0,4.358511,-6.0610547,6.3470817,0.99428535,-1.0351465,-3.881799,2017-06-08 19:41:37,61.15716738593495
2.834735,-9.414001,2.0015526,34.0,3.0918188,-8.866846,2.7921712,-1.6616825,-1.7297841,-5.1893525,2017-06-08 19:41:38,62.38547437902962
4.1180267,-10.94629,-3.7828386,39.0,2.2745981,-9.520623,0.35412902,2.192876,-1.1713499,-3.7455957,2017-06-08 19:41:39,63.811204783201745
4.4340615,-11.21444,-1.4173675,36.0,2.8330321,-9.357179,-0.6401563,3.4595683,-2.2745981,-2.819412,2017-06-08 19:41:40,64.74775059257149
4.2425256,-10.534488,1.043872,0.0,3.4187074,-9.180114,-0.36774936,2.4789033,1.1032481,-0.53119355,2017-06-08 19:41:41,60.66548199171347
2.0685902,-9.643845,1.8195933,0.0,3.9226599,-8.934948,0.83084124,-1.1849703,0.44947144,-1.6208212,2017-06-08 19:41:43,59.307155717397684
3.4380736,-8.149862,-0.5746084,5.0,3.5412903,-8.921328,1.9885707,0.8853226,0.53119355,-0.87170225,2017-06-08 19:41:44,59.91398880402913
7.249643,-9.5385,0.25857377,0.0,4.33127,-8.717022,1.1032481,1.4982383,0.8989429,-2.6014864,2017-06-08 19:41:45,60.53710055391701
5.7269306,-9.011775,-2.8538885,11.0,5.0395284,-8.390134,-0.51757324,-1.7978858,0.58567494,-1.293933,2017-06-08 19:41:46,60.32602017478588
4.4436383,-6.445191,-0.92895025,0.0,4.8488436,-8.417375,-1.2803127,-1.293933,3.3369853,-1.5390993,2017-06-08 19:41:47,58.66175826308119
2.7868507,-7.297527,-1.0726024,14.0,5.1484914,-8.19945,-1.4709975,4.031623,-0.36774936,2.165635,2017-06-08 19:41:48,58.8028713233839
3.763685,-7.6614456,-2.2409728,2.0,5.1484914,-8.267551,-1.0487667,1.2258313,-1.1577295,2.628727,2017-06-08 19:41:49,59.6433307990455
5.659893,-7.192182,-5.6790466,5.0,5.0667696,-8.335652,-0.99428535,2.4108014,-0.4086104,-1.5118586,2017-06-08 19:41:50,59.64710292164607
9.528923,-10.151415,-1.5897499,2.0,5.298315,-7.927042,-2.2201166,-1.4573771,-3.1871612,0.667397,2017-06-08 19:41:51,58.21177742583864
3.7828386,-10.160992,0.6703765,5.0,5.393657,-7.804459,-2.4380422,-2.9828563,-3.4595683,1.6616825,2017-06-08 19:41:52,54.68524963361605
2.3558946,-9.3661175,0.30645782,8.0,5.5571017,-7.7908387,-2.070293,-1.7570248,-2.9147542,2.2064962,2017-06-08 19:41:53,52.45719929961712
4.6160207,-9.911995,1.3790601,5.0,5.720546,-7.7499776,-1.7842655,-1.1713499,-1.8115062,2.2882183,2017-06-08 19:41:54,53.709223145827366
3.5051112,-9.5385,2.078167,5.0,5.570722,-7.967903,-1.1713499,-2.9964767,-0.08172209,2.5742457,2017-06-08 19:41:55,51.961912639677685
3.0358477,-10.0748005,0.60333884,2.0,5.08039,-8.349273,-0.5992953,-3.1054392,0.5992953,1.1849703,2017-06-08 19:41:56,51.44191092901152
2.6240451,-10.601525,-0.18195933,0.0,5.298315,-8.240311,-0.38136974,-2.3290794,0.2043052,-0.38136974,2017-06-08 19:41:57,54.87396530216648
1.7238252,-8.283937,-0.1340753,0.0,5.4890003,-8.063246,-0.91256326,-3.568531,0.58567494,0.87170225,2017-06-08 19:41:58,52.64925947989528
2.5570073,-7.9104424,0.038307227,8.0,5.5162406,-8.008764,-1.1985906,-0.3405087,0.16344418,1.9613299,2017-06-08 19:41:59,51.61895349731718
4.606444,-8.475474,0.0,2.0,5.08039,-8.308412,-1.0487667,1.1577295,-0.51757324,1.9068487,2017-06-08 19:42:00,53.258333661296184
4.8458643,-0.78529817,-2.3558946,8.0,7.2460246,-6.524146,0.92618364,-1.0079057,2.4516625,3.8545582,2017-06-08 19:42:01,53.832528108360115
6.301539,-0.4309563,-2.8443117,8.0,9.615966,-1.7161638,0.7627395,-2.73769,1.0896277,-3.1054392,2017-06-08 19:42:02,53.35546910025749
10.036493,-2.0494366,1.532289,5.0,9.656826,-0.70825803,-1.5390993,-0.74911916,0.095342435,3.8545582,2017-06-08 19:42:03,55.909217396205335
9.222465,-4.271256,2.4899697,14.0,9.275456,-2.3018386,2.1383946,1.1168685,-1.9340893,-0.38136974,2017-06-08 19:42:04,62.75075733039028
6.7612257,-4.644751,-0.6991069,19.0,8.717022,-3.3642259,2.969236,-2.5742457,-2.1247742,-3.0918188,2017-06-08 19:42:05,61.01856720319635
4.711789,-4.261679,0.45968673,22.0,8.3765135,-4.930566,1.2803127,-3.050958,0.8036005,-0.92618364,2017-06-08 19:42:06,58.23125829588299
5.717354,-2.8634653,0.29688102,22.0,7.763598,-5.9657125,0.31326798,0.4086104,1.879608,0.068101734,2017-06-08 19:42:07,61.579155080931606
6.694188,-4.012682,0.34476504,34.0,8.049625,-5.570722,0.31326798,3.323365,-1.0351465,0.36774936,2017-06-08 19:42:08,63.794127541103535
11.195287,-5.0278234,0.9864111,45.0,8.608059,-4.658159,0.46309182,3.8136973,-1.7025435,-1.2666924,2017-06-08 19:42:09,62.57605323112972
11.645397,-5.947197,0.46926352,8.0,8.880466,-4.140586,0.32688835,1.9885707,-1.838747,0.8989429,2017-06-08 19:42:10,57.50293976525612
12.6222315,-2.3175871,-1.4748282,22.0,8.499097,-4.862464,0.4086104,2.628727,2.860273,-0.6810174,2017-06-08 19:42:11,57.37389423845892
11.473015,-2.4420857,-1.7717092,11.0,9.534244,-2.165635,-0.6401563,0.28602728,1.56634,-0.19068487,2017-06-08 19:42:12,61.42986053167377
8.63828,2.633622,5.094861,14.0,9.752169,-0.47671217,-0.7899802,-0.96704465,0.38136974,3.677494,2017-06-08 19:42:13,57.96127190841361
1.5801731,0.4405331,9.950302,48.0,9.0983925,0.6537767,3.5957716,-7.259645,-0.08172209,5.4208984,2017-06-08 19:42:14,58.481691411034014
2.2601264,-1.4556746,9.77792,14.0,3.4595683,-0.12258312,9.180114,-1.5799603,-1.2258313,0.8853226,2017-06-08 19:42:15,59.015229762950625
0.038307227,-0.038307227,10.055647,56.0,1.1985906,-1.1713499,9.670446,-1.1713499,1.1304889,0.51757324,2017-06-08 19:42:16,55.23517581100908
0.06703765,-0.02873042,10.0748005,59.0,0.25878662,-0.21792556,9.80665,-0.13620347,0.14982383,0.25878662,2017-06-08 19:42:17,54.47470482499989
0.06703765,-0.047884032,10.055647,59.0,0.095342435,-0.040861044,9.80665,-0.040861044,0.0,0.24516624,2017-06-08 19:42:18,57.18105220726818
0.06703765,-0.02873042,10.065224,59.0,0.095342435,-0.040861044,9.80665,-0.027240695,0.013620348,0.27240694,2017-06-08 19:42:19,54.79528463457317
0.06703765,-0.02873042,10.055647,59.0,0.095342435,-0.027240695,9.80665,-0.040861044,0.0,0.27240694,2017-06-08 19:42:20,50.949004831053124
0.076614454,-0.02873042,10.055647,59.0,0.08172209,-0.027240695,9.80665,0.013620348,0.0,0.25878662,2017-06-08 19:42:21,52.88750980286126
0.076614454,-0.038307227,10.065224,59.0,0.068101734,-0.013620348,9.80665,0.0,-0.013620348,0.25878662,2017-06-08 19:42:22,54.3812005370112
0.076614454,-0.02873042,10.055647,59.0,0.05448139,-0.013620348,9.80665,0.0,-0.013620348,0.25878662,2017-06-08 19:42:23,53.38235869393306
0.06703765,-0.02873042,10.065224,56.0,0.05448139,-0.013620348,9.80665,0.013620348,-0.013620348,0.25878662,2017-06-08 19:42:24,53.22404747992391
0.08619126,-0.02873042,10.065224,59.0,0.05448139,-0.013620348,9.80665,0.013620348,-0.013620348,0.27240694,2017-06-08 19:42:25,55.14818187338223
0.06703765,-0.02873042,10.065224,59.0,0.05448139,-0.013620348,9.80665,0.013620348,-0.027240695,0.27240694,2017-06-08 19:42:26,52.540182197151985
0.076614454,-0.038307227,10.093954,59.0,0.05448139,-0.013620348,9.80665,0.0,-0.027240695,0.27240694,2017-06-08 19:42:27,53.39319160728921
0.076614454,-0.038307227,10.084377,59.0,0.05448139,-0.013620348,9.80665,0.027240695,-0.013620348,0.27240694,2017-06-08 19:42:28,53.06289302723229
0.076614454,-0.02873042,10.093954,59.0,0.05448139,-0.013620348,9.80665,0.027240695,-0.013620348,0.27240694,2017-06-08 19:42:29,53.61984374575839
0.076614454,-0.02873042,10.084377,59.0,0.05448139,-0.013620348,9.80665,0.013620348,-0.027240695,0.27240694,2017-06-08 19:42:30,52.858365853067895
0.06703765,-0.02873042,10.084377,59.0,0.05448139,-0.013620348,9.80665,0.013620348,0.0,0.27240694,2017-06-08 19:42:32,51.85058492219318
0.076614454,-0.038307227,10.065224,59.0,0.05448139,-0.013620348,9.80665,0.013620348,-0.013620348,0.27240694,2017-06-08 19:42:33,49.83183423774467
0.076614454,-0.02873042,10.0748005,59.0,0.068101734,-0.013620348,9.80665,0.0,0.0,0.25878662,2017-06-08 19:42:34,52.18283941502684
0.06703765,-0.019153614,10.065224,59.0,0.05448139,-0.013620348,9.80665,0.0,-0.013620348,0.25878662,2017-06-08 19:42:35,53.259801558981735
0.06703765,-0.02873042,10.0748005,59.0,0.05448139,-0.013620348,9.80665,0.013620348,-0.013620348,0.25878662,2017-06-08 19:42:36,54.20908970344616
0.076614454,-0.038307227,10.055647,59.0,0.05448139,-0.013620348,9.80665,0.013620348,-0.013620348,0.27240694,2017-06-08 19:42:37,53.45516559196228
0.06703765,-0.02873042,10.084377,59.0,0.05448139,-0.013620348,9.80665,0.013620348,-0.013620348,0.27240694,2017-06-08 19:42:38,52.97599415540584
0.06703765,-0.038307227,10.093954,59.0,0.040861044,-0.013620348,9.80665,0.040861044,-0.013620348,0.27240694,2017-06-08 19:42:39,51.29593162911175
0.06703765,-0.038307227,10.084377,59.0,0.05448139,-0.013620348,9.80665,0.027240695,-0.027240695,0.27240694,2017-06-08 19:42:40,53.95906391135899
0.06703765,-0.02873042,10.084377,59.0,0.05448139,-0.013620348,9.80665,0.0,0.0,0.27240694,2017-06-08 19:42:41,54.80604746814271
0.076614454,-0.038307227,10.093954,59.0,0.05448139,-0.013620348,9.80665,0.0,-0.013620348,0.27240694,2017-06-08 19:42:42,54.38071298721908
0.06703765,-0.038307227,10.084377,59.0,0.05448139,-0.013620348,9.80665,0.0,-0.013620348,0.27240694,2017-06-08 19:42:43,52.409556202905875
0.076614454,-0.047884032,10.065224,59.0,0.040861044,-0.013620348,9.80665,0.013620348,-0.013620348,0.27240694,2017-06-08 19:42:44,52.52333090460792
0.076614454,-0.02873042,10.084377,59.0,0.040861044,0.0,9.80665,0.040861044,-0.027240695,0.27240694,2017-06-08 19:42:45,52.26771664024185
0.08619126,-0.02873042,10.0748005,59.0,0.027240695,0.0,9.80665,0.040861044,-0.027240695,0.27240694,2017-06-08 19:42:46,52.5596562028545
0.08619126,-0.038307227,10.093954,59.0,0.027240695,0.0,9.80665,0.027240695,-0.027240695,0.27240694,2017-06-08 19:42:47,55.95407080349007
0.08619126,-0.038307227,10.084377,59.0,0.040861044,-0.013620348,9.80665,0.027240695,-0.027240695,0.27240694,2017-06-08 19:42:48,53.16685948083344
0.076614454,-0.019153614,10.0748005,59.0,0.040861044,-0.013620348,9.80665,0.027240695,-0.013620348,0.27240694,2017-06-08 19:42:49,54.6090400398404
0.076614454,-0.02873042,10.0748005,59.0,0.040861044,0.0,9.80665,0.040861044,-0.027240695,0.25878662,2017-06-08 19:42:50,52.75406986715751
0.076614454,-0.02873042,10.04607,59.0,0.027240695,0.0,9.80665,0.040861044,-0.040861044,0.24516624,2017-06-08 19:42:51,55.91485418180355
0.06703765,-0.019153614,10.055647,42.0,0.040861044,-0.013620348,9.80665,0.013620348,-0.013620348,0.25878662,2017-06-08 19:42:52,55.019349587611764
0.076614454,-0.038307227,10.055647,59.0,0.040861044,-0.013620348,9.80665,0.027240695,-0.013620348,0.23154591,2017-06-08 19:42:53,54.593731311583376
0.06703765,-0.02873042,10.04607,59.0,0.040861044,-0.013620348,9.80665,0.040861044,-0.013620348,0.24516624,2017-06-08 19:42:54,53.884926636667984
0.076614454,-0.038307227,10.055647,59.0,0.040861044,-0.013620348,9.80665,0.027240695,-0.013620348,0.24516624,2017-06-08 19:42:55,55.000365915197065
0.08619126,-0.038307227,10.04607,59.0,0.05448139,-0.013620348,9.80665,0.013620348,-0.013620348,0.24516624,2017-06-08 19:42:56,52.19697214841949
0.076614454,-0.047884032,10.04607,59.0,0.05448139,-0.013620348,9.80665,0.013620348,-0.027240695,0.24516624,2017-06-08 19:42:57,55.81498491051412
0.08619126,-0.038307227,10.0269165,59.0,0.068101734,-0.040861044,9.80665,0.0,0.0,0.23154591,2017-06-08 19:42:58,55.09597592158678
0.06703765,-0.038307227,10.036493,59.0,0.068101734,-0.027240695,9.80665,-0.013620348,0.0,0.24516624,2017-06-08 19:42:59,56.717424905943794
0.06703765,-0.038307227,10.04607,14.0,0.068101734,-0.027240695,9.80665,0.0,0.0,0.24516624,2017-06-08 19:43:00,54.480260552084594
0.06703765,-0.047884032,10.04607,17.0,0.05448139,-0.013620348,9.80665,0.0,-0.027240695,0.24516624,2017-06-08 19:43:01,56.36123677264454
0.076614454,-0.038307227,10.036493,17.0,0.05448139,-0.013620348,9.80665,0.0,-0.013620348,0.24516624,2017-06-08 19:43:02,52.97520269969654
0.08619126,-0.05746084,10.04607,59.0,0.05448139,-0.013620348,9.80665,0.027240695,-0.013620348,0.24516624,2017-06-08 19:43:03,55.83413764904414
0.076614454,-0.038307227,10.036493,59.0,0.05448139,-0.027240695,9.80665,0.027240695,-0.013620348,0.24516624,2017-06-08 19:43:04,55.58688381219067
0.06703765,-0.038307227,10.065224,59.0,0.05448139,-0.027240695,9.80665,0.0,0.0,0.24516624,2017-06-08 19:43:05,56.89949680972698
0.06703765,-0.02873042,10.04607,59.0,0.05448139,-0.013620348,9.80665,0.013620348,-0.013620348,0.23154591,2017-06-08 19:43:06,55.91562277976263
0.08619126,-0.038307227,10.04607,59.0,0.05448139,-0.013620348,9.80665,0.0,-0.013620348,0.24516624,2017-06-08 19:43:07,55.291533375322636
0.076614454,-0.038307227,10.04607,59.0,0.05448139,-0.027240695,9.80665,0.0,-0.013620348,0.23154591,2017-06-08 19:43:08,72.256711363089
0.076614454,-0.02873042,10.04607,59.0,0.05448139,-0.027240695,9.80665,0.013620348,-0.013620348,0.24516624,2017-06-08 19:43:09,74.66370696482606
0.076614454,-0.02873042,10.04607,59.0,0.05448139,-0.027240695,9.80665,0.027240695,0.0,0.23154591,2017-06-08 19:43:10,54.63762681094175
0.076614454,-0.038307227,10.036493,59.0,0.05448139,-0.013620348,9.80665,0.013620348,-0.013620348,0.24516624,2017-06-08 19:43:11,68.95257301747417
0.08619126,-0.047884032,10.036493,59.0,0.068101734,-0.013620348,9.80665,0.0,-0.013620348,0.24516624,2017-06-08 19:43:12,54.46869558689201
0.08619126,-0.02873042,10.055647,59.0,0.05448139,-0.013620348,9.80665,0.0,-0.013620348,0.24516624,2017-06-08 19:43:13,64.265566121193
0.076614454,-0.038307227,10.055647,59.0,0.05448139,-0.013620348,9.80665,0.0,-0.027240695,0.24516624,2017-06-08 19:43:14,72.67796737625417
0.076614454,-0.047884032,10.04607,59.0,0.05448139,-0.013620348,9.80665,0.013620348,-0.027240695,0.24516624,2017-06-08 19:43:15,50.961464441817625
0.06703765,-0.019153614,10.04607,59.0,0.05448139,-0.013620348,9.80665,0.013620348,-0.013620348,0.24516624,2017-06-08 19:43:17,53.65872224563972
0.08619126,-0.038307227,10.065224,59.0,0.068101734,-0.013620348,9.80665,0.013620348,-0.013620348,0.27240694,2017-06-08 19:43:18,52.97662387203026
0.06703765,-0.038307227,10.055647,59.0,0.05448139,-0.013620348,9.80665,0.027240695,-0.027240695,0.24516624,2017-06-08 19:43:19,53.42228889199675
0.076614454,-0.038307227,10.065224,59.0,0.05448139,-0.013620348,9.80665,0.013620348,-0.013620348,0.24516624,2017-06-08 19:43:20,52.235335109693324
0.08619126,-0.038307227,10.055647,59.0,0.05448139,-0.027240695,9.80665,0.013620348,-0.027240695,0.24516624,2017-06-08 19:43:21,53.36179559828164
0.076614454,-0.047884032,10.04607,59.0,0.05448139,-0.013620348,9.80665,0.013620348,-0.013620348,0.24516624,2017-06-08 19:43:22,53.35808501450133
0.076614454,-0.038307227,10.04607,59.0,0.05448139,-0.013620348,9.80665,0.0,-0.013620348,0.25878662,2017-06-08 19:43:23,52.60781930072526
0.076614454,-0.047884032,10.04607,59.0,0.05448139,-0.013620348,9.80665,0.013620348,-0.013620348,0.24516624,2017-06-08 19:43:24,52.315452357301304
0.076614454,-0.038307227,10.055647,59.0,0.05448139,-0.013620348,9.80665,0.027240695,-0.027240695,0.24516624,2017-06-08 19:43:25,50.83518901089042
0.076614454,-0.02873042,10.04607,59.0,0.05448139,-0.013620348,9.80665,0.013620348,-0.013620348,0.24516624,2017-06-08 19:43:26,72.48435528240611
0.08619126,-0.047884032,10.065224,59.0,0.05448139,-0.013620348,9.80665,0.013620348,-0.013620348,0.24516624,2017-06-08 19:43:27,73.5983289502636
0.10534488,-0.095768064,10.151415,65.0,0.068101734,-0.12258312,9.80665,-0.19068487,-0.095342435,0.17706451,2017-06-08 19:43:28,52.06448393408049
0.10534488,-0.08619126,10.036493,65.0,0.068101734,-0.23154591,9.80665,0.027240695,0.14982383,0.23154591,2017-06-08 19:43:29,52.62339550127953
0.08619126,-0.076614454,10.036493,65.0,0.08172209,-0.068101734,9.80665,0.013620348,0.013620348,0.24516624,2017-06-08 19:43:30,50.64278957953415
0.02873042,-0.34476504,10.065224,62.0,0.08172209,-0.068101734,9.80665,0.013620348,-0.19068487,0.23154591,2017-06-08 19:43:31,74.86314401685485
0.095768064,-0.06703765,10.04607,62.0,0.068101734,-0.05448139,9.80665,0.027240695,-0.013620348,0.23154591,2017-06-08 19:43:32,81.8600328830697
0.10534488,-0.08619126,10.036493,62.0,0.05448139,-0.05448139,9.80665,0.040861044,-0.013620348,0.24516624,2017-06-08 19:43:33,64.39590036494661
0.10534488,-0.076614454,10.036493,62.0,0.05448139,-0.040861044,9.80665,0.040861044,-0.040861044,0.24516624,2017-06-08 19:43:34,52.533283830944555
0.095768064,-0.08619126,10.036493,62.0,0.068101734,-0.05448139,9.80665,0.040861044,-0.027240695,0.23154591,2017-06-08 19:43:35,58.65665548399619
0.095768064,-0.076614454,10.04607,62.0,0.08172209,-0.05448139,9.80665,0.0,0.0,0.24516624,2017-06-08 19:43:36,60.32499317221376
0.095768064,-0.08619126,10.04607,62.0,0.08172209,-0.05448139,9.80665,0.013620348,0.0,0.24516624,2017-06-08 19:43:37,54.229503609868
0.095768064,-0.06703765,10.055647,62.0,0.08172209,-0.05448139,9.80665,0.013620348,-0.013620348,0.24516624,2017-06-08 19:43:38,55.03195417785223
0.10534488,-0.08619126,10.04607,62.0,0.08172209,-0.05448139,9.80665,0.013620348,0.0,0.24516624,2017-06-08 19:43:39,56.77280667385017
0.095768064,-0.076614454,10.04607,62.0,0.068101734,-0.05448139,9.80665,0.027240695,0.0,0.24516624,2017-06-08 19:43:40,55.77009129501146
0.095768064,-0.08619126,10.055647,62.0,0.08172209,-0.05448139,9.80665,0.013620348,0.0,0.24516624,2017-06-08 19:43:41,52.04987666092925
0.10534488,-0.06703765,10.036493,62.0,0.08172209,-0.05448139,9.80665,0.013620348,-0.013620348,0.24516624,2017-06-08 19:43:42,54.34551168151188
0.10534488,-0.08619126,10.055647,62.0,0.08172209,-0.05448139,9.80665,0.013620348,-0.027240695,0.24516624,2017-06-08 19:43:43,53.60432653206871
0.11492168,-0.076614454,10.036493,62.0,0.08172209,-0.05448139,9.80665,0.013620348,-0.027240695,0.24516624,2017-06-08 19:43:44,54.40487121734467
0.11492168,-0.095768064,10.055647,62.0,0.08172209,-0.068101734,9.80665,0.027240695,-0.027240695,0.23154591,2017-06-08 19:43:45,55.17293079442035
0.10534488,-0.095768064,10.055647,62.0,0.08172209,-0.068101734,9.80665,0.027240695,-0.013620348,0.24516624,2017-06-08 19:43:46,55.15301585097717
0.10534488,-0.06703765,10.04607,62.0,0.08172209,-0.068101734,9.80665,0.013620348,-0.013620348,0.24516624,2017-06-08 19:43:47,66.20673920976346
0.10534488,-0.076614454,10.055647,62.0,0.068101734,-0.068101734,9.80665,0.027240695,-0.013620348,0.25878662,2017-06-08 19:43:48,72.79387059190296
0.10534488,-0.076614454,10.036493,62.0,0.068101734,-0.068101734,9.80665,0.027240695,-0.027240695,0.24516624,2017-06-08 19:43:49,68.5643661595139
0.10534488,-0.08619126,10.04607,62.0,0.05448139,-0.068101734,9.80665,0.05448139,-0.027240695,0.23154591,2017-06-08 19:43:50,64.37783392964386
0.10534488,-0.08619126,10.04607,62.0,0.08172209,-0.068101734,9.80665,0.013620348,-0.013620348,0.24516624,2017-06-08 19:43:51,55.8462581769306
0.10534488,-0.076614454,10.04607,62.0,0.08172209,-0.068101734,9.80665,0.027240695,-0.013620348,0.23154591,2017-06-08 19:43:52,55.50221458193161
0.10534488,-0.076614454,10.055647,62.0,0.08172209,-0.068101734,9.80665,0.013620348,0.0,0.24516624,2017-06-08 19:43:53,53.540303738237796
0.10534488,-0.076614454,10.04607,62.0,0.08172209,-0.068101734,9.80665,0.013620348,-0.013620348,0.25878662,2017-06-08 19:43:54,53.837111570129665
0.095768064,-0.076614454,10.055647,62.0,0.08172209,-0.068101734,9.80665,0.013620348,0.013620348,0.24516624,2017-06-08 19:43:55,53.99388478787826
0.08619126,-0.06703765,10.055647,62.0,0.08172209,-0.068101734,9.80665,0.013620348,0.0,0.24516624,2017-06-08 19:43:56,55.50248132883257
0.10534488,-0.08619126,10.036493,62.0,0.08172209,-0.068101734,9.80665,0.013620348,0.013620348,0.24516624,2017-06-08 19:43:57,56.31227920555563
0.095768064,-0.076614454,10.04607,62.0,0.08172209,-0.068101734,9.80665,0.013620348,0.013620348,0.24516624,2017-06-08 19:43:58,54.87011916986112
0.08619126,-0.08619126,10.036493,62.0,0.08172209,-0.05448139,9.80665,0.0,-0.027240695,0.24516624,2017-06-08 19:43:59,53.74499760972161
0.095768064,-0.076614454,10.04607,62.0,0.08172209,-0.05448139,9.80665,0.013620348,-0.027240695,0.24516624,2017-06-08 19:44:00,52.85789952160531
0.10534488,-0.095768064,10.04607,62.0,0.08172209,-0.05448139,9.80665,0.0,-0.013620348,0.24516624,2017-06-08 19:44:01,56.17740927521914
0.11492168,-0.08619126,10.036493,62.0,0.08172209,-0.05448139,9.80665,0.013620348,-0.040861044,0.24516624,2017-06-08 19:44:03,54.966950081937476
0.10534488,-0.08619126,10.055647,62.0,0.08172209,-0.068101734,9.80665,0.013620348,0.013620348,0.24516624,2017-06-08 19:44:04,54.469574437331836
0.095768064,-0.06703765,10.055647,62.0,0.08172209,-0.068101734,9.80665,0.013620348,0.0,0.24516624,2017-06-08 19:44:05,60.01367137721112
0.095768064,-0.06703765,10.036493,62.0,0.08172209,-0.068101734,9.80665,0.013620348,0.013620348,0.23154591,2017-06-08 19:44:06,73.79045511174037
0.10534488,-0.076614454,10.0269165,62.0,0.08172209,-0.068101734,9.80665,0.013620348,-0.013620348,0.23154591,2017-06-08 19:44:07,62.71295521244407
0.095768064,-0.06703765,10.0269165,62.0,0.08172209,-0.068101734,9.80665,0.027240695,-0.013620348,0.24516624,2017-06-08 19:44:08,53.72979143203371
0.10534488,-0.076614454,10.036493,62.0,0.08172209,-0.068101734,9.80665,0.013620348,0.013620348,0.21792556,2017-06-08 19:44:09,55.161494521377996
0.05746084,-0.076614454,10.036493,62.0,0.08172209,-0.05448139,9.80665,0.027240695,0.040861044,0.24516624,2017-06-08 19:44:10,52.75546243461049
0.11492168,-0.095768064,10.0269165,62.0,0.05448139,-0.05448139,9.80665,0.08172209,-0.040861044,0.23154591,2017-06-08 19:44:11,71.47718378882585
0.038307227,-0.10534488,10.036493,62.0,0.068101734,-0.05448139,9.80665,0.027240695,-0.068101734,0.23154591,2017-06-08 19:44:12,79.35912545589788
0.095768064,-0.08619126,10.0269165,62.0,0.068101734,-0.068101734,9.80665,0.027240695,-0.013620348,0.24516624,2017-06-08 19:44:13,75.73900939635233
0.10534488,-0.08619126,10.0269165,62.0,0.068101734,-0.05448139,9.80665,0.027240695,-0.027240695,0.21792556,2017-06-08 19:44:14,68.78825154232476
0.08619126,-0.076614454,10.04607,62.0,0.08172209,-0.068101734,9.80665,0.013620348,0.0,0.23154591,2017-06-08 19:44:15,67.76367502873427
0.08619126,-0.08619126,10.04607,62.0,0.08172209,-0.05448139,9.80665,0.013620348,-0.027240695,0.21792556,2017-06-08 19:44:16,53.39591257024864
0.095768064,-0.08619126,10.04607,62.0,0.08172209,-0.05448139,9.80665,0.0,-0.013620348,0.23154591,2017-06-08 19:44:17,54.553573345441144
0.076614454,-0.076614454,10.036493,62.0,0.08172209,-0.05448139,9.80665,0.0,-0.013620348,0.24516624,2017-06-08 19:44:18,53.30165336976439
0.10534488,-0.076614454,10.036493,62.0,0.08172209,-0.05448139,9.80665,0.013620348,-0.027240695,0.24516624,2017-06-08 19:44:19,53.01599955333732
0.095768064,-0.095768064,10.036493,62.0,0.08172209,-0.068101734,9.80665,0.013620348,-0.013620348,0.23154591,2017-06-08 19:44:20,50.55919577774727
0.095768064,-0.095768064,10.04607,62.0,0.08172209,-0.05448139,9.80665,0.0,-0.013620348,0.23154591,2017-06-08 19:44:21,53.740947520464246
0.095768064,-0.08619126,10.036493,62.0,0.08172209,-0.068101734,9.80665,0.013620348,-0.013620348,0.23154591,2017-06-08 19:44:22,52.128116789214204
0.10534488,-0.08619126,10.036493,62.0,0.095342435,-0.08172209,9.80665,0.0,-0.013620348,0.24516624,2017-06-08 19:44:23,54.73094776112827
0.095768064,-0.076614454,10.036493,62.0,0.08172209,-0.068101734,9.80665,0.013620348,0.0,0.23154591,2017-06-08 19:44:24,51.14732476712243
0.08619126,-0.076614454,10.036493,62.0,0.08172209,-0.068101734,9.80665,0.013620348,-0.013620348,0.24516624,2017-06-08 19:44:25,50.55207074337609
0.095768064,-0.06703765,10.036493,62.0,0.068101734,-0.068101734,9.80665,0.027240695,-0.013620348,0.24516624,2017-06-08 19:44:26,64.18489351803852
0.095768064,-0.076614454,10.0269165,62.0,0.068101734,-0.068101734,9.80665,0.027240695,-0.013620348,0.24516624,2017-06-08 19:44:27,70.49743007858585
0.076614454,-0.076614454,10.04607,62.0,0.08172209,-0.068101734,9.80665,0.068101734,-0.12258312,0.24516624,2017-06-08 19:44:28,66.10937024040817
0.095768064,-0.08619126,10.036493,62.0,0.08172209,-0.068101734,9.80665,0.013620348,0.0,0.24516624,2017-06-08 19:44:29,52.97550221874063
0.08619126,-0.076614454,10.04607,62.0,0.08172209,-0.068101734,9.80665,0.0,0.0,0.24516624,2017-06-08 19:44:30,51.25351669646683
0.08619126,-0.095768064,10.04607,62.0,0.08172209,-0.068101734,9.80665,0.013620348,-0.013620348,0.23154591,2017-06-08 19:44:31,52.3298006215262
0.08619126,-0.076614454,10.04607,62.0,0.068101734,-0.068101734,9.80665,0.027240695,0.0,0.21792556,2017-06-08 19:44:32,52.42880634943625
0.095768064,-0.076614454,10.04607,62.0,0.08172209,-0.068101734,9.80665,0.0,-0.013620348,0.24516624,2017-06-08 19:44:33,69.60323215500549
0.10534488,-0.08619126,10.055647,62.0,0.08172209,-0.068101734,9.80665,0.013620348,-0.013620348,0.24516624,2017-06-08 19:44:34,66.47745632899758
0.095768064,-0.08619126,10.04607,62.0,0.08172209,-0.068101734,9.80665,0.0,0.013620348,0.24516624,2017-06-08 19:44:35,53.657932905834656
0.08619126,-0.076614454,10.04607,62.0,0.08172209,-0.068101734,9.80665,0.0,0.0,0.24516624,2017-06-08 19:44:36,52.19279366773071
0.095768064,-0.076614454,10.04607,62.0,0.08172209,-0.068101734,9.80665,0.0,-0.013620348,0.24516624,2017-06-08 19:44:37,52.76713439666145
0.10534488,-0.06703765,10.065224,62.0,0.08172209,-0.068101734,9.80665,0.013620348,-0.013620348,0.24516624,2017-06-08 19:44:38,53.13833368851955
0.095768064,-0.076614454,10.04607,62.0,0.08172209,-0.068101734,9.80665,0.0,0.013620348,0.24516624,2017-06-08 19:44:39,54.26131875902157
0.08619126,-0.08619126,10.04607,62.0,0.08172209,-0.068101734,9.80665,0.013620348,-0.013620348,0.24516624,2017-06-08 19:44:40,64.03631291592161
0.095768064,-0.06703765,10.036493,62.0,0.08172209,-0.05448139,9.80665,0.013620348,-0.013620348,0.24516624,2017-06-08 19:44:41,69.79140015672968
0.095768064,-0.08619126,10.04607,62.0,0.08172209,-0.05448139,9.80665,0.013620348,-0.027240695,0.24516624,2017-06-08 19:44:42,69.49152188721257
0.08619126,-0.06703765,10.055647,62.0,0.08172209,-0.08172209,9.80665,0.013620348,0.013620348,0.24516624,2017-06-08 19:44:43,53.75834238170336
0.10534488,-0.06703765,10.055647,62.0,0.08172209,-0.068101734,9.80665,0.0,-0.013620348,0.23154591,2017-06-08 19:44:44,56.11768596640567
0.10534488,-0.08619126,10.04607,62.0,0.08172209,-0.068101734,9.80665,0.013620348,0.0,0.23154591,2017-06-08 19:44:45,53.40973023971165
0.095768064,-0.076614454,10.04607,62.0,0.08172209,-0.068101734,9.80665,0.013620348,0.013620348,0.24516624,2017-06-08 19:44:47,52.9246683860051
0.10534488,-0.06703765,10.04607,62.0,0.08172209,-0.068101734,9.80665,0.013620348,0.0,0.24516624,2017-06-08 19:44:48,55.629720708568
0.10534488,-0.076614454,10.04607,62.0,0.08172209,-0.068101734,9.80665,0.0,0.0,0.24516624,2017-06-08 19:44:49,53.45387544065554
0.095768064,-0.08619126,10.04607,62.0,0.08172209,-0.05448139,9.80665,0.013620348,-0.013620348,0.24516624,2017-06-08 19:44:50,61.467368836270964
0.095768064,-0.08619126,10.04607,62.0,0.08172209,-0.05448139,9.80665,0.013620348,-0.013620348,0.24516624,2017-06-08 19:44:51,67.53128279169525
0.10534488,-0.08619126,10.04607,62.0,0.08172209,-0.05448139,9.80665,0.013620348,-0.013620348,0.23154591,2017-06-08 19:44:52,72.57447200747552
0.10534488,-0.076614454,10.065224,62.0,0.08172209,-0.05448139,9.80665,0.013620348,0.0,0.24516624,2017-06-08 19:44:53,70.8778947853881
0.10534488,-0.08619126,10.055647,62.0,0.08172209,-0.05448139,9.80665,0.013620348,-0.013620348,0.24516624,2017-06-08 19:44:54,63.14940467616283
0.095768064,-0.076614454,10.04607,62.0,0.08172209,-0.05448139,9.80665,0.013620348,-0.013620348,0.24516624,2017-06-08 19:44:55,63.16834115149285
0.095768064,-0.076614454,10.055647,62.0,0.08172209,-0.05448139,9.80665,0.027240695,-0.027240695,0.24516624,2017-06-08 19:44:56,55.33949250482446
0.095768064,-0.08619126,10.04607,62.0,0.08172209,-0.05448139,9.80665,0.013620348,-0.027240695,0.24516624,2017-06-08 19:44:57,54.08165574347735
0.08619126,-0.076614454,10.055647,62.0,0.08172209,-0.05448139,9.80665,0.013620348,-0.027240695,0.24516624,2017-06-08 19:44:58,54.64703044337512
0.08619126,-0.076614454,10.04607,62.0,0.068101734,-0.05448139,9.80665,0.027240695,-0.013620348,0.24516624,2017-06-08 19:44:59,54.3151414776949
0.095768064,-0.06703765,10.065224,62.0,0.068101734,-0.05448139,9.80665,0.013620348,-0.013620348,0.24516624,2017-06-08 19:45:00,54.518747121555606
0.095768064,-0.076614454,10.055647,62.0,0.068101734,-0.05448139,9.80665,0.027240695,-0.013620348,0.24516624,2017-06-08 19:45:01,63.99661515969213
0.095768064,-0.076614454,10.065224,62.0,0.08172209,-0.05448139,9.80665,0.013620348,-0.027240695,0.24516624,2017-06-08 19:45:02,58.68087435864428
0.10534488,-0.08619126,10.036493,62.0,0.068101734,-0.05448139,9.80665,0.027240695,-0.027240695,0.24516624,2017-06-08 19:45:03,55.71980084711334
0.08619126,-0.076614454,10.065224,62.0,0.08172209,-0.05448139,9.80665,0.013620348,0.0,0.24516624,2017-06-08 19:45:04,53.30022145164441
0.10534488,-0.076614454,10.055647,62.0,0.08172209,-0.05448139,9.80665,0.0,-0.013620348,0.25878662,2017-06-08 19:45:05,54.68130766223604
0.095768064,-0.06703765,10.0748005,62.0,0.08172209,-0.05448139,9.80665,0.0,-0.013620348,0.25878662,2017-06-08 19:45:06,54.12834448279335
0.10534488,-0.08619126,10.065224,62.0,0.08172209,-0.05448139,9.80665,0.013620348,0.0,0.27240694,2017-06-08 19:45:07,55.049016257480126
0.10534488,-0.076614454,10.065224,62.0,0.08172209,-0.05448139,9.80665,0.013620348,0.0,0.24516624,2017-06-08 19:45:08,54.32052220855709
0.095768064,-0.076614454,10.065224,62.0,0.08172209,-0.05448139,9.80665,0.013620348,-0.013620348,0.25878662,2017-06-08 19:45:09,54.987172128225
0.095768064,-0.076614454,10.04607,62.0,0.08172209,-0.05448139,9.80665,0.013620348,-0.027240695,0.24516624,2017-06-08 19:45:10,56.08446797357212
0.08619126,-0.076614454,10.055647,62.0,0.08172209,-0.05448139,9.80665,0.013620348,-0.013620348,0.24516624,2017-06-08 19:45:11,54.62152460862132
0.095768064,-0.08619126,10.04607,62.0,0.068101734,-0.05448139,9.80665,0.013620348,-0.013620348,0.25878662,2017-06-08 19:45:12,52.47372740577649
0.095768064,-0.08619126,10.04607,62.0,0.068101734,-0.05448139,9.80665,0.027240695,-0.027240695,0.24516624,2017-06-08 19:45:13,56.07405885845178
0.08619126,-0.076614454,10.04607,62.0,0.068101734,-0.05448139,9.80665,0.027240695,-0.027240695,0.24516624,2017-06-08 19:45:14,53.616839499951084
0.10534488,-0.08619126,10.04607,62.0,0.08172209,-0.05448139,9.80665,0.013620348,-0.027240695,0.24516624,2017-06-08 19:45:15,53.351556166980096
0.095768064,-0.08619126,10.04607,62.0,0.08172209,-0.05448139,9.80665,0.013620348,-0.013620348,0.23154591,2017-06-08 19:45:16,52.25320159147677
0.095768064,-0.08619126,10.04607,62.0,0.08172209,-0.05448139,9.80665,0.013620348,-0.013620348,0.24516624,2017-06-08 19:45:17,54.09302013852536
0.095768064,-0.076614454,10.04607,62.0,0.08172209,-0.05448139,9.80665,0.013620348,-0.027240695,0.24516624,2017-06-08 19:45:18,52.383005176301076
0.08619126,-0.076614454,10.055647,62.0,0.08172209,-0.05448139,9.80665,0.013620348,-0.013620348,0.24516624,2017-06-08 19:45:19,55.63539901392919
0.095768064,-0.06703765,10.04607,62.0,0.08172209,-0.05448139,9.80665,0.0,0.0,0.23154591,2017-06-08 19:45:20,54.04415493514526
0.11492168,-0.076614454,10.055647,62.0,0.08172209,-0.05448139,9.80665,0.013620348,-0.013620348,0.24516624,2017-06-08 19:45:21,54.48186899034184
0.10534488,-0.08619126,10.04607,62.0,0.08172209,-0.068101734,9.80665,0.013620348,0.0,0.23154591,2017-06-08 19:45:22,53.37574674064207
0.10534488,-0.076614454,10.036493,62.0,0.08172209,-0.068101734,9.80665,0.013620348,0.0,0.23154591,2017-06-08 19:45:23,52.118288885877234
0.10534488,-0.095768064,10.055647,62.0,0.08172209,-0.068101734,9.80665,0.013620348,0.0,0.24516624,2017-06-08 19:45:24,54.925181757027744
0.095768064,-0.076614454,10.04607,62.0,0.08172209,-0.068101734,9.80665,0.013620348,0.0,0.24516624,2017-06-08 19:45:25,52.676083892508146
0.095768064,-0.08619126,10.04607,62.0,0.08172209,-0.068101734,9.80665,0.013620348,0.0,0.24516624,2017-06-08 19:45:26,51.68588806691049
0.10534488,-0.08619126,10.055647,62.0,0.08172209,-0.068101734,9.80665,0.013620348,0.0,0.24516624,2017-06-08 19:45:27,49.256067489111395
0.10534488,-0.095768064,10.055647,62.0,0.08172209,-0.068101734,9.80665,0.013620348,0.0,0.24516624,2017-06-08 19:45:28,51.0992904465597
0.10534488,-0.076614454,10.036493,62.0,0.08172209,-0.068101734,9.80665,0.013620348,-0.027240695,0.23154591,2017-06-08 19:45:29,52.512185913493745
0.10534488,-0.08619126,10.04607,62.0,0.08172209,-0.068101734,9.80665,0.013620348,-0.027240695,0.23154591,2017-06-08 19:45:30,51.08449093871647
0.10534488,-0.08619126,10.04607,62.0,0.08172209,-0.068101734,9.80665,0.0,-0.013620348,0.24516624,2017-06-08 19:45:32,53.01053002483339
0.10534488,-0.08619126,10.036493,62.0,0.08172209,-0.068101734,9.80665,0.013620348,0.013620348,0.24516624,2017-06-08 19:45:33,48.51255175605195
0.11492168,-0.08619126,10.036493,62.0,0.08172209,-0.068101734,9.80665,0.013620348,0.013620348,0.24516624,2017-06-08 19:45:34,50.431294824341265
0.095768064,-0.08619126,10.04607,62.0,0.08172209,-0.05448139,9.80665,0.027240695,-0.013620348,0.23154591,2017-06-08 19:45:35,51.543854532597166
0.095768064,-0.08619126,10.04607,62.0,0.08172209,-0.05448139,9.80665,0.013620348,-0.027240695,0.24516624,2017-06-08 19:45:36,52.04834212364442
0.095768064,-0.08619126,10.036493,62.0,0.08172209,-0.05448139,9.80665,0.013620348,-0.013620348,0.24516624,2017-06-08 19:45:37,51.50101973150126
0.10534488,-0.076614454,10.04607,62.0,0.08172209,-0.05448139,9.80665,0.013620348,-0.013620348,0.24516624,2017-06-08 19:45:38,52.402043277057004
0.095768064,-0.08619126,10.04607,62.0,0.068101734,-0.05448139,9.80665,0.027240695,-0.013620348,0.24516624,2017-06-08 19:45:39,52.83197862940555
0.095768064,-0.076614454,10.04607,62.0,0.068101734,-0.05448139,9.80665,0.027240695,-0.013620348,0.24516624,2017-06-08 19:45:40,52.22140075695178
0.095768064,-0.076614454,10.04607,62.0,0.08172209,-0.068101734,9.80665,0.013620348,-0.013620348,0.24516624,2017-06-08 19:45:41,52.58698051868032
0.11492168,-0.08619126,10.036493,62.0,0.08172209,-0.068101734,9.80665,0.013620348,-0.013620348,0.23154591,2017-06-08 19:45:42,53.25509448299877
0.10534488,-0.076614454,10.036493,62.0,0.08172209,-0.068101734,9.80665,0.013620348,-0.013620348,0.24516624,2017-06-08 19:45:43,54.21847408975766
0.095768064,-0.076614454,10.04607,62.0,0.08172209,-0.068101734,9.80665,0.013620348,0.013620348,0.24516624,2017-06-08 19:45:44,52.665124982283366
0.10534488,-0.076614454,10.04607,62.0,0.08172209,-0.05448139,9.80665,0.013620348,-0.027240695,0.25878662,2017-06-08 19:45:45,51.443482797266896
0.10534488,-0.08619126,10.055647,62.0,0.08172209,-0.068101734,9.80665,0.013620348,-0.013620348,0.24516624,2017-06-08 19:45:46,52.614496421808646
0.10534488,-0.08619126,10.04607,62.0,0.08172209,-0.068101734,9.80665,0.013620348,-0.027240695,0.24516624,2017-06-08 19:45:47,52.92802224257005
0.10534488,-0.08619126,10.055647,62.0,0.08172209,-0.068101734,9.80665,0.013620348,-0.013620348,0.25878662,2017-06-08 19:45:48,52.50959097007632
0.10534488,-0.08619126,10.055647,62.0,0.08172209,-0.068101734,9.80665,0.013620348,-0.027240695,0.24516624,2017-06-08 19:45:49,53.72361787848415
0.10534488,-0.076614454,10.055647,62.0,0.08172209,-0.068101734,9.80665,0.013620348,0.0,0.24516624,2017-06-08 19:45:50,55.47229954062918
0.10534488,-0.076614454,10.036493,62.0,0.08172209,-0.068101734,9.80665,0.027240695,-0.013620348,0.24516624,2017-06-08 19:45:51,53.71643636743234
0.10534488,-0.08619126,10.036493,62.0,0.08172209,-0.068101734,9.80665,0.013620348,-0.013620348,0.24516624,2017-06-08 19:45:52,54.26391908019279
0.095768064,-0.076614454,10.04607,62.0,0.08172209,-0.068101734,9.80665,0.013620348,-0.013620348,0.24516624,2017-06-08 19:45:53,54.667021159545904
0.095768064,-0.08619126,10.036493,56.0,0.08172209,-0.068101734,9.80665,0.013620348,-0.013620348,0.23154591,2017-06-08 19:45:54,53.0380888686298
0.11492168,-0.08619126,10.04607,62.0,0.08172209,-0.068101734,9.80665,0.013620348,0.0,0.23154591,2017-06-08 19:45:55,54.33019996502537
0.15322891,-0.1340753,10.0269165,62.0,0.08172209,-0.068101734,9.80665,0.013620348,-0.013620348,0.23154591,2017-06-08 19:45:56,52.81938831225006
0.10534488,-0.08619126,10.036493,62.0,0.10896278,-0.068101734,9.80665,0.0,-0.027240695,0.21792556,2017-06-08 19:45:57,53.11334796473345
0.11492168,-0.095768064,10.055647,62.0,0.095342435,-0.068101734,9.80665,0.013620348,-0.013620348,0.24516624,2017-06-08 19:45:58,53.60096010502047
0.12449849,-0.095768064,10.036493,62.0,0.08172209,-0.068101734,9.80665,0.027240695,0.0,0.24516624,2017-06-08 19:45:59,54.34503168609669
0.12449849,-0.095768064,10.04607,62.0,0.08172209,-0.068101734,9.80665,0.040861044,-0.027240695,0.24516624,2017-06-08 19:46:00,53.4616525619215
0.10534488,-0.095768064,10.055647,62.0,0.095342435,-0.068101734,9.80665,0.013620348,-0.013620348,0.24516624,2017-06-08 19:46:01,54.53853308954362
0.10534488,-0.076614454,10.04607,62.0,0.095342435,-0.068101734,9.80665,0.0,0.0,0.24516624,2017-06-08 19:46:02,52.974101275672545
0.10534488,-0.08619126,10.055647,62.0,0.095342435,-0.05448139,9.80665,0.013620348,-0.013620348,0.24516624,2017-06-08 19:46:03,55.03781440161393
0.095768064,-0.08619126,10.04607,62.0,0.095342435,-0.05448139,9.80665,0.0,0.0,0.24516624,2017-06-08 19:46:04,54.99200120297779
0.095768064,-0.076614454,10.065224,62.0,0.08172209,-0.05448139,9.80665,0.027240695,0.0,0.24516624,2017-06-08 19:46:05,53.32996438006232
0.10534488,-0.08619126,10.04607,62.0,0.08172209,-0.05448139,9.80665,0.013620348,-0.027240695,0.24516624,2017-06-08 19:46:06,52.54722374688356
0.11492168,-0.076614454,10.055647,62.0,0.08172209,-0.05448139,9.80665,0.013620348,-0.027240695,0.24516624,2017-06-08 19:46:07,55.97401576354248
0.10534488,-0.076614454,10.04607,62.0,0.068101734,-0.05448139,9.80665,0.027240695,-0.013620348,0.24516624,2017-06-08 19:46:08,55.28962725183895
0.11492168,-0.08619126,10.055647,62.0,0.068101734,-0.05448139,9.80665,0.027240695,-0.013620348,0.24516624,2017-06-08 19:46:09,55.04046472598604
0.10534488,-0.06703765,10.04607,62.0,0.068101734,-0.05448139,9.80665,0.027240695,-0.027240695,0.24516624,2017-06-08 19:46:10,54.4774857067387
0.11492168,-0.08619126,10.036493,62.0,0.08172209,-0.05448139,9.80665,0.013620348,-0.013620348,0.24516624,2017-06-08 19:46:11,53.08801890097207
0.11492168,-0.076614454,10.04607,62.0,0.095342435,-0.05448139,9.80665,0.013620348,-0.013620348,0.24516624,2017-06-08 19:46:12,53.36451647039871
0.11492168,-0.076614454,10.055647,62.0,0.095342435,-0.05448139,9.80665,0.0,-0.027240695,0.24516624,2017-06-08 19:46:13,52.13338548650911
0.10534488,-0.08619126,10.04607,62.0,0.095342435,-0.05448139,9.80665,0.013620348,-0.027240695,0.24516624,2017-06-08 19:46:14,52.82186215643424
0.10534488,-0.08619126,10.04607,62.0,0.08172209,-0.068101734,9.80665,0.027240695,0.0,0.24516624,2017-06-08 19:46:16,54.54148259015726
0.11492168,-0.076614454,10.055647,62.0,0.08172209,-0.068101734,9.80665,0.027240695,0.0,0.24516624,2017-06-08 19:46:17,52.75603519439755
0.10534488,-0.08619126,10.04607,62.0,0.068101734,-0.068101734,9.80665,0.040861044,-0.027240695,0.24516624,2017-06-08 19:46:18,50.50345142810787
0.11492168,-0.076614454,10.04607,62.0,0.08172209,-0.068101734,9.80665,0.027240695,0.0,0.24516624,2017-06-08 19:46:19,51.68882633029128
0.10534488,-0.08619126,10.065224,62.0,0.08172209,-0.05448139,9.80665,0.027240695,-0.013620348,0.24516624,2017-06-08 19:46:20,52.83244612635361
0.10534488,-0.076614454,10.04607,62.0,0.08172209,-0.05448139,9.80665,0.013620348,-0.040861044,0.24516624,2017-06-08 19:46:21,51.78624515289667
0.11492168,-0.08619126,10.04607,62.0,0.08172209,-0.068101734,9.80665,0.013620348,0.0,0.24516624,2017-06-08 19:46:22,52.79453322531368
0.11492168,-0.08619126,10.055647,62.0,0.08172209,-0.068101734,9.80665,0.027240695,-0.013620348,0.25878662,2017-06-08 19:46:23,51.9037590464694
0.095768064,-0.076614454,10.04607,62.0,0.08172209,-0.068101734,9.80665,0.013620348,-0.013620348,0.24516624,2017-06-08 19:46:24,53.11887654121893
0.11492168,-0.08619126,10.055647,62.0,0.068101734,-0.068101734,9.80665,0.027240695,-0.013620348,0.24516624,2017-06-08 19:46:25,53.35641875823776
0.10534488,-0.08619126,10.04607,62.0,0.068101734,-0.068101734,9.80665,0.027240695,0.013620348,0.24516624,2017-06-08 19:46:26,54.236581657455936
0.095768064,-0.095768064,10.055647,62.0,0.068101734,-0.068101734,9.80665,0.027240695,0.0,0.23154591,2017-06-08 19:46:27,51.80449646624005
0.10534488,-0.076614454,10.04607,62.0,0.068101734,-0.068101734,9.80665,0.027240695,-0.013620348,0.23154591,2017-06-08 19:46:28,52.50217084643807
0.10534488,-0.08619126,10.055647,62.0,0.08172209,-0.068101734,9.80665,0.013620348,-0.013620348,0.23154591,2017-06-08 19:46:29,52.07524862843583
0.11492168,-0.076614454,10.04607,62.0,0.068101734,-0.068101734,9.80665,0.027240695,-0.013620348,0.23154591,2017-06-08 19:46:30,54.4018427973328
0.10534488,-0.08619126,10.04607,62.0,0.068101734,-0.068101734,9.80665,0.040861044,0.0,0.24516624,2017-06-08 19:46:31,53.92948964886556
0.11492168,-0.08619126,10.04607,62.0,0.068101734,-0.068101734,9.80665,0.027240695,-0.027240695,0.23154591,2017-06-08 19:46:32,56.14582638864196
0.11492168,-0.095768064,10.055647,62.0,0.068101734,-0.068101734,9.80665,0.027240695,-0.013620348,0.24516624,2017-06-08 19:46:33,54.99947257099498
0.12449849,-0.08619126,10.04607,62.0,0.08172209,-0.068101734,9.80665,0.027240695,-0.027240695,0.23154591,2017-06-08 19:46:34,54.59509228764861
0.11492168,-0.08619126,10.055647,62.0,0.095342435,-0.068101734,9.80665,0.013620348,0.0,0.23154591,2017-06-08 19:46:35,53.500222452807606
0.11492168,-0.076614454,10.036493,62.0,0.095342435,-0.068101734,9.80665,0.0,-0.013620348,0.24516624,2017-06-08 19:46:36,55.642890862478026
0.11492168,-0.08619126,10.04607,62.0,0.095342435,-0.068101734,9.80665,0.013620348,-0.013620348,0.24516624,2017-06-08 19:46:37,52.517714916042635
0.10534488,-0.08619126,10.04607,62.0,0.095342435,-0.068101734,9.80665,0.013620348,0.0,0.24516624,2017-06-08 19:46:38,52.69105908914963
0.10534488,-0.076614454,10.04607,62.0,0.08172209,-0.05448139,9.80665,0.013620348,-0.013620348,0.24516624,2017-06-08 19:46:39,53.10885065703612
0.095768064,-0.06703765,10.055647,62.0,0.08172209,-0.05448139,9.80665,0.0,0.0,0.25878662,2017-06-08 19:46:40,53.50528277455421
0.095768064,-0.076614454,10.036493,62.0,0.08172209,-0.05448139,9.80665,0.013620348,-0.013620348,0.24516624,2017-06-08 19:46:41,52.468313485206004
0.095768064,-0.076614454,10.055647,62.0,0.095342435,-0.040861044,9.80665,0.0,0.0,0.24516624,2017-06-08 19:46:42,53.211580265105376
0.095768064,-0.05746084,10.055647,62.0,0.08172209,-0.05448139,9.80665,0.013620348,0.013620348,0.25878662,2017-06-08 19:46:43,52.941051963026666
0.08619126,-0.06703765,10.065224,62.0,0.08172209,-0.05448139,9.80665,0.013620348,0.0,0.24516624,2017-06-08 19:46:44,53.87298452470394
0.10534488,-0.06703765,10.04607,62.0,0.08172209,-0.05448139,9.80665,0.0,0.0,0.24516624,2017-06-08 19:46:45,51.97551041925169
0.08619126,-0.05746084,10.055647,65.0,0.08172209,-0.05448139,9.80665,0.013620348,0.0,0.24516624,2017-06-08 19:46:46,53.144092230627166
0.095768064,-0.06703765,10.04607,65.0,0.08172209,-0.040861044,9.80665,0.013620348,-0.027240695,0.24516624,2017-06-08 19:46:47,51.79891646357922
0.095768064,-0.076614454,10.04607,62.0,0.08172209,-0.040861044,9.80665,0.013620348,-0.013620348,0.24516624,2017-06-08 19:46:48,54.01182741135034
0.095768064,-0.076614454,10.04607,62.0,0.08172209,-0.040861044,9.80665,0.0,-0.013620348,0.25878662,2017-06-08 19:46:49,52.16979001420328
0.095768064,-0.076614454,10.04607,62.0,0.08172209,-0.040861044,9.80665,0.013620348,-0.013620348,0.24516624,2017-06-08 19:46:50,51.77881512438815
0.10534488,-0.06703765,10.065224,62.0,0.08172209,-0.040861044,9.80665,0.013620348,-0.027240695,0.24516624,2017-06-08 19:46:51,52.88503264266631
0.10534488,-0.08619126,10.065224,62.0,0.08172209,-0.040861044,9.80665,0.013620348,-0.027240695,0.24516624,2017-06-08 19:46:52,52.55327689417608
0.10534488,-0.06703765,10.04607,62.0,0.095342435,-0.068101734,9.80665,0.0,0.0,0.24516624,2017-06-08 19:46:53,51.08019651807447
0.095768064,-0.08619126,10.04607,62.0,0.08172209,-0.068101734,9.80665,0.013620348,-0.013620348,0.24516624,2017-06-08 19:46:54,52.6959087236305
0.11492168,-0.076614454,10.036493,62.0,0.08172209,-0.068101734,9.80665,0.013620348,-0.013620348,0.24516624,2017-06-08 19:46:55,53.208733704008885
0.10534488,-0.08619126,10.04607,62.0,0.08172209,-0.05448139,9.80665,0.013620348,-0.027240695,0.24516624,2017-06-08 19:46:56,53.32886770060284
0.10534488,-0.06703765,10.055647,62.0,0.08172209,-0.05448139,9.80665,0.013620348,-0.013620348,0.24516624,2017-06-08 19:46:57,52.56301535592673
0.11492168,-0.076614454,10.04607,62.0,0.08172209,-0.05448139,9.80665,0.027240695,-0.013620348,0.24516624,2017-06-08 19:46:58,52.24467780804894
0.10534488,-0.10534488,10.055647,65.0,0.08172209,-0.05448139,9.80665,-0.027240695,0.0,0.24516624,2017-06-08 19:46:59,54.129975811731555
0.095768064,-0.095768064,10.04607,65.0,0.08172209,-0.068101734,9.80665,-0.013620348,-0.013620348,0.24516624,2017-06-08 19:47:00,53.612709463353085
0.12449849,-0.095768064,10.04607,62.0,0.08172209,-0.068101734,9.80665,0.040861044,-0.027240695,0.24516624,2017-06-08 19:47:01,52.58301110858731
0.12449849,-0.095768064,10.04607,62.0,0.068101734,-0.068101734,9.80665,0.040861044,-0.027240695,0.24516624,2017-06-08 19:47:03,53.86449628076757
0.12449849,-0.08619126,10.04607,62.0,0.10896278,-0.095342435,9.80665,0.013620348,0.0,0.24516624,2017-06-08 19:47:04,53.57764735850601
0.095768064,-0.08619126,10.055647,62.0,0.08172209,-0.095342435,9.80665,0.0,0.027240695,0.24516624,2017-06-08 19:47:05,55.43518700365531
0.08619126,-0.06703765,10.04607,62.0,0.08172209,-0.08172209,9.80665,0.0,0.027240695,0.24516624,2017-06-08 19:47:06,53.166575556857
0.095768064,-0.076614454,10.055647,62.0,0.08172209,-0.068101734,9.80665,0.0,-0.013620348,0.24516624,2017-06-08 19:47:07,54.66252804124261
0.095768064,-0.095768064,10.055647,62.0,0.08172209,-0.068101734,9.80665,0.013620348,0.0,0.24516624,2017-06-08 19:47:08,53.5287531938367
0.08619126,-0.08619126,10.04607,62.0,0.08172209,-0.05448139,9.80665,0.013620348,-0.040861044,0.23154591,2017-06-08 19:47:09,55.82351076501992
0.095768064,-0.08619126,10.04607,62.0,0.068101734,-0.068101734,9.80665,0.027240695,-0.013620348,0.24516624,2017-06-08 19:47:10,55.6792147704467
0.095768064,-0.08619126,10.055647,62.0,0.068101734,-0.068101734,9.80665,0.013620348,0.0,0.24516624,2017-06-08 19:47:11,53.62916190326747
0.095768064,-0.076614454,10.036493,62.0,0.068101734,-0.068101734,9.80665,0.027240695,0.0,0.24516624,2017-06-08 19:47:12,53.57082774253216
0.095768064,-0.08619126,10.055647,62.0,0.095342435,-0.068101734,9.80665,0.013620348,0.0,0.24516624,2017-06-08 19:47:13,54.36099419681206
0.095768064,-0.08619126,10.04607,62.0,0.068101734,-0.068101734,9.80665,0.027240695,0.0,0.24516624,2017-06-08 19:47:14,52.76105756521011
0.08619126,-0.06703765,10.055647,62.0,0.068101734,-0.068101734,9.80665,0.027240695,0.0,0.24516624,2017-06-08 19:47:15,54.30532151551637
0.08619126,-0.06703765,10.055647,62.0,0.068101734,-0.05448139,9.80665,0.013620348,-0.027240695,0.24516624,2017-06-08 19:47:16,55.48699412236786
0.08619126,-0.076614454,10.036493,62.0,0.05448139,-0.05448139,9.80665,0.040861044,-0.027240695,0.24516624,2017-06-08 19:47:17,54.10936778301946
0.076614454,-0.06703765,10.055647,62.0,0.05448139,-0.05448139,9.80665,0.013620348,0.0,0.24516624,2017-06-08 19:47:18,51.9403497464048
0.095768064,-0.076614454,10.04607,62.0,0.068101734,-0.05448139,9.80665,0.013620348,-0.027240695,0.24516624,2017-06-08 19:47:19,53.86957146347612
0.076614454,-0.076614454,10.065224,62.0,0.068101734,-0.05448139,9.80665,0.027240695,-0.013620348,0.24516624,2017-06-08 19:47:20,53.61872309311614
0.095768064,-0.08619126,10.04607,62.0,0.068101734,-0.05448139,9.80665,0.013620348,-0.013620348,0.24516624,2017-06-08 19:47:21,53.17060256307591
0.095768064,-0.06703765,10.055647,62.0,0.068101734,-0.05448139,9.80665,0.027240695,-0.027240695,0.24516624,2017-06-08 19:47:22,53.62285737702658
0.095768064,-0.08619126,10.04607,62.0,0.068101734,-0.05448139,9.80665,0.013620348,-0.013620348,0.24516624,2017-06-08 19:47:23,50.279096558807524
0.08619126,-0.076614454,10.04607,62.0,0.068101734,-0.05448139,9.80665,0.013620348,-0.013620348,0.24516624,2017-06-08 19:47:24,53.20704967117136
0.08619126,-0.06703765,10.04607,62.0,0.068101734,-0.05448139,9.80665,0.0,-0.013620348,0.24516624,2017-06-08 19:47:25,52.348223577389525
0.08619126,-0.076614454,10.04607,62.0,0.068101734,-0.05448139,9.80665,0.013620348,-0.013620348,0.25878662,2017-06-08 19:47:26,53.833172092060586
0.076614454,-0.05746084,10.055647,62.0,0.068101734,-0.05448139,9.80665,0.027240695,0.0,0.24516624,2017-06-08 19:47:27,50.771514082285094
0.08619126,-0.06703765,10.0748005,62.0,0.068101734,-0.05448139,9.80665,0.027240695,0.0,0.24516624,2017-06-08 19:47:28,51.04343875290654
0.095768064,-0.08619126,10.04607,62.0,0.068101734,-0.05448139,9.80665,0.013620348,0.0,0.24516624,2017-06-08 19:47:29,51.33251347564607
0.08619126,-0.08619126,10.055647,62.0,0.068101734,-0.05448139,9.80665,0.013620348,-0.027240695,0.24516624,2017-06-08 19:47:30,51.26541222387817
0.095768064,-0.076614454,10.04607,62.0,0.068101734,-0.05448139,9.80665,0.013620348,0.0,0.24516624,2017-06-08 19:47:31,51.213410518101284
0.076614454,-0.076614454,10.04607,62.0,0.068101734,-0.05448139,9.80665,0.0,-0.013620348,0.24516624,2017-06-08 19:47:32,47.8620449532536
0.08619126,-0.076614454,10.065224,62.0,0.08172209,-0.05448139,9.80665,-0.013620348,0.0,0.24516624,2017-06-08 19:47:33,50.59602155279254
0.095768064,-0.08619126,10.04607,62.0,0.068101734,-0.05448139,9.80665,0.027240695,-0.013620348,0.25878662,2017-06-08 19:47:34,50.627487666368445
0.076614454,-0.06703765,10.065224,62.0,0.068101734,-0.05448139,9.80665,0.013620348,-0.013620348,0.24516624,2017-06-08 19:47:35,50.66102389083024
0.095768064,-0.08619126,10.04607,62.0,0.068101734,-0.05448139,9.80665,0.027240695,-0.013620348,0.24516624,2017-06-08 19:47:36,50.8651521555492
0.076614454,-0.076614454,10.065224,62.0,0.068101734,-0.05448139,9.80665,0.013620348,0.0,0.24516624,2017-06-08 19:47:37,48.22788378051288
0.08619126,-0.076614454,10.055647,62.0,0.05448139,-0.05448139,9.80665,0.040861044,-0.013620348,0.24516624,2017-06-08 19:47:38,49.06421716932979
0.08619126,-0.08619126,10.055647,62.0,0.068101734,-0.05448139,9.80665,0.027240695,-0.013620348,0.24516624,2017-06-08 19:47:39,51.109116295755385
0.08619126,-0.076614454,10.055647,62.0,0.068101734,-0.05448139,9.80665,0.013620348,-0.013620348,0.25878662,2017-06-08 19:47:40,50.97728304723455
0.076614454,-0.076614454,10.04607,62.0,0.08172209,-0.05448139,9.80665,0.0,0.0,0.24516624,2017-06-08 19:47:41,51.84162002561624
0.08619126,-0.08619126,10.04607,62.0,0.068101734,-0.05448139,9.80665,0.013620348,0.0,0.24516624,2017-06-08 19:47:42,52.91804920751748
0.095768064,-0.08619126,10.036493,62.0,0.068101734,-0.05448139,9.80665,0.013620348,0.0,0.24516624,2017-06-08 19:47:43,53.473178067126895
0.08619126,-0.08619126,10.04607,62.0,0.068101734,-0.05448139,9.80665,0.013620348,-0.027240695,0.24516624,2017-06-08 19:47:44,51.600769512390684
0.08619126,-0.076614454,10.04607,62.0,0.08172209,-0.068101734,9.80665,0.013620348,-0.013620348,0.24516624,2017-06-08 19:47:45,50.321708211101146
0.076614454,-0.08619126,10.055647,62.0,0.08172209,-0.05448139,9.80665,0.0,-0.013620348,0.24516624,2017-06-08 19:47:46,52.41997548181955
0.095768064,-0.08619126,10.04607,62.0,0.08172209,-0.05448139,9.80665,0.0,-0.013620348,0.24516624,2017-06-08 19:47:48,53.432456966719
0.076614454,-0.06703765,10.055647,62.0,0.08172209,-0.05448139,9.80665,0.013620348,0.0,0.24516624,2017-06-08 19:47:49,52.50700346640776
0.095768064,-0.06703765,10.04607,62.0,0.068101734,-0.040861044,9.80665,0.013620348,-0.027240695,0.24516624,2017-06-08 19:47:50,52.13449693932678
0.076614454,-0.076614454,10.055647,62.0,0.068101734,-0.068101734,9.80665,0.013620348,0.0,0.23154591,2017-06-08 19:47:51,53.25734615417802
0.095768064,-0.076614454,10.055647,62.0,0.068101734,-0.05448139,9.80665,0.013620348,0.0,0.24516624,2017-06-08 19:47:52,51.88809392214352
0.08619126,-0.06703765,10.065224,62.0,0.068101734,-0.05448139,9.80665,0.013620348,0.0,0.24516624,2017-06-08 19:47:53,53.228512405301686
0.08619126,-0.06703765,10.055647,62.0,0.068101734,-0.05448139,9.80665,0.027240695,-0.013620348,0.24516624,2017-06-08 19:47:54,54.05458716455889
0.10534488,-0.076614454,10.04607,62.0,0.068101734,-0.05448139,9.80665,0.013620348,-0.013620348,0.24516624,2017-06-08 19:47:55,53.86079768338293
0.08619126,-0.08619126,10.055647,62.0,0.05448139,-0.05448139,9.80665,0.040861044,-0.013620348,0.24516624,2017-06-08 19:47:56,54.80923893228136
0.08619126,-0.095768064,10.036493,62.0,0.068101734,-0.08172209,9.80665,0.013620348,0.0,0.24516624,2017-06-08 19:47:57,52.927324225944055
0.095768064,-0.08619126,10.055647,62.0,0.068101734,-0.08172209,9.80665,0.013620348,0.013620348,0.24516624,2017-06-08 19:47:58,54.720009980688204
0.095768064,-0.08619126,10.055647,62.0,0.068101734,-0.068101734,9.80665,0.0,-0.013620348,0.23154591,2017-06-08 19:47:59,54.15015514769527
0.095768064,-0.076614454,10.036493,62.0,0.068101734,-0.068101734,9.80665,0.013620348,-0.013620348,0.24516624,2017-06-08 19:48:00,54.050407799803146
0.08619126,-0.076614454,10.055647,62.0,0.068101734,-0.068101734,9.80665,0.013620348,0.013620348,0.24516624,2017-06-08 19:48:01,53.605816550107605
0.08619126,-0.06703765,10.065224,62.0,0.068101734,-0.05448139,9.80665,0.0,-0.013620348,0.24516624,2017-06-08 19:48:02,54.88177056377505
0.095768064,-0.06703765,10.04607,62.0,0.068101734,-0.05448139,9.80665,0.0,0.0,0.24516624,2017-06-08 19:48:03,54.33240482484023
0.095768064,-0.076614454,10.055647,62.0,0.068101734,-0.05448139,9.80665,0.013620348,-0.013620348,0.25878662,2017-06-08 19:48:04,53.71172441304492
0.095768064,-0.08619126,10.065224,62.0,0.068101734,-0.05448139,9.80665,0.0,0.0,0.25878662,2017-06-08 19:48:05,52.60198361781394
0.08619126,-0.06703765,10.065224,62.0,0.068101734,-0.05448139,9.80665,0.0,-0.013620348,0.24516624,2017-06-08 19:48:06,55.4698766051887
0.08619126,-0.076614454,10.0748005,62.0,0.068101734,-0.05448139,9.80665,0.013620348,-0.013620348,0.27240694,2017-06-08 19:48:07,53.46476263814174
0.095768064,-0.076614454,10.084377,62.0,0.068101734,-0.05448139,9.80665,0.013620348,0.0,0.27240694,2017-06-08 19:48:08,49.49745592132648
0.095768064,-0.06703765,10.065224,62.0,0.05448139,-0.05448139,9.80665,0.040861044,0.0,0.25878662,2017-06-08 19:48:09,53.64021696048216
0.08619126,-0.095768064,10.04607,62.0,0.05448139,-0.05448139,9.80665,0.040861044,-0.027240695,0.24516624,2017-06-08 19:48:10,54.617700213331666
0.08619126,-0.08619126,10.04607,62.0,0.068101734,-0.05448139,9.80665,0.013620348,-0.027240695,0.24516624,2017-06-08 19:48:11,53.9055086350757
0.095768064,-0.076614454,10.065224,62.0,0.068101734,-0.05448139,9.80665,0.013620348,-0.027240695,0.24516624,2017-06-08 19:48:12,53.531561546323616
0.08619126,-0.076614454,10.055647,62.0,0.068101734,-0.05448139,9.80665,0.013620348,-0.013620348,0.24516624,2017-06-08 19:48:13,53.1718792015245
0.08619126,-0.076614454,10.055647,62.0,0.068101734,-0.05448139,9.80665,0.027240695,0.0,0.24516624,2017-06-08 19:48:14,52.674204191571846
0.08619126,-0.076614454,10.055647,62.0,0.068101734,-0.05448139,9.80665,0.013620348,-0.013620348,0.24516624,2017-06-08 19:48:15,53.089995203923166
0.095768064,-0.076614454,10.036493,62.0,0.068101734,-0.05448139,9.80665,0.013620348,-0.027240695,0.24516624,2017-06-08 19:48:16,52.729706677009396
0.095768064,-0.076614454,10.055647,62.0,0.068101734,-0.068101734,9.80665,0.027240695,0.0,0.24516624,2017-06-08 19:48:17,54.41965045188614
0.08619126,-0.076614454,10.04607,62.0,0.068101734,-0.068101734,9.80665,0.027240695,-0.013620348,0.23154591,2017-06-08 19:48:18,51.927139037236756
0.08619126,-0.076614454,10.055647,62.0,0.068101734,-0.068101734,9.80665,0.013620348,0.0,0.23154591,2017-06-08 19:48:19,52.56646853220313
0.10534488,-0.08619126,10.065224,62.0,0.08172209,-0.068101734,9.80665,0.013620348,-0.027240695,0.24516624,2017-06-08 19:48:20,53.21112706846162
0.095768064,-0.08619126,10.036493,62.0,0.08172209,-0.068101734,9.80665,-0.013620348,0.013620348,0.24516624,2017-06-08 19:48:21,54.23694118166907
0.08619126,-0.08619126,10.04607,62.0,0.068101734,-0.05448139,9.80665,0.027240695,0.0,0.24516624,2017-06-08 19:48:22,54.59622622641105
0.095768064,-0.06703765,10.04607,62.0,0.05448139,-0.05448139,9.80665,0.040861044,-0.027240695,0.24516624,2017-06-08 19:48:23,54.16458579824887
0.08619126,-0.06703765,10.065224,62.0,0.05448139,-0.05448139,9.80665,0.040861044,-0.013620348,0.24516624,2017-06-08 19:48:24,50.534257941721805
0.08619126,-0.076614454,10.055647,62.0,0.068101734,-0.05448139,9.80665,0.013620348,-0.013620348,0.24516624,2017-06-08 19:48:25,52.29993711525435
0.095768064,-0.076614454,10.036493,62.0,0.068101734,-0.05448139,9.80665,0.013620348,-0.027240695,0.24516624,2017-06-08 19:48:26,53.092353009065995
0.095768064,-0.076614454,10.055647,62.0,0.068101734,-0.05448139,9.80665,0.027240695,-0.013620348,0.24516624,2017-06-08 19:48:27,52.51374442558331
0.076614454,-0.08619126,10.065224,62.0,0.068101734,-0.05448139,9.80665,0.027240695,-0.013620348,0.24516624,2017-06-08 19:48:28,53.961369345814546
0.095768064,-0.076614454,10.036493,62.0,0.068101734,-0.05448139,9.80665,0.027240695,-0.040861044,0.24516624,2017-06-08 19:48:29,50.45339435692547
0.10534488,-0.076614454,10.055647,62.0,0.068101734,-0.05448139,9.80665,0.027240695,-0.027240695,0.24516624,2017-06-08 19:48:30,53.10991094169279
0.08619126,-0.08619126,10.04607,62.0,0.068101734,-0.068101734,9.80665,0.027240695,0.0,0.24516624,2017-06-08 19:48:32,51.720525455766904
0.095768064,-0.076614454,10.04607,62.0,0.068101734,-0.068101734,9.80665,0.013620348,-0.013620348,0.24516624,2017-06-08 19:48:33,52.627441618461866
0.095768064,-0.076614454,10.036493,62.0,0.068101734,-0.068101734,9.80665,0.027240695,0.0,0.23154591,2017-06-08 19:48:34,50.76874017764618
0.095768064,-0.08619126,10.055647,62.0,0.08172209,-0.068101734,9.80665,0.013620348,0.0,0.24516624,2017-06-08 19:48:35,52.703006067928435
0.10534488,-0.08619126,10.036493,62.0,0.08172209,-0.068101734,9.80665,0.013620348,-0.013620348,0.23154591,2017-06-08 19:48:36,52.51839016212057
0.10534488,-0.08619126,10.055647,62.0,0.08172209,-0.068101734,9.80665,0.013620348,-0.027240695,0.24516624,2017-06-08 19:48:37,51.949679028012866
0.095768064,-0.08619126,10.04607,62.0,0.08172209,-0.068101734,9.80665,0.013620348,-0.013620348,0.24516624,2017-06-08 19:48:38,53.468628029819385
0.095768064,-0.06703765,10.04607,62.0,0.08172209,-0.068101734,9.80665,0.013620348,0.0,0.24516624,2017-06-08 19:48:39,53.99613004144381
0.095768064,-0.076614454,10.065224,62.0,0.08172209,-0.068101734,9.80665,0.013620348,-0.027240695,0.24516624,2017-06-08 19:48:40,51.60975659020988
0.08619126,-0.08619126,10.04607,62.0,0.08172209,-0.068101734,9.80665,0.013620348,-0.027240695,0.23154591,2017-06-08 19:48:41,53.6847591762566
0.10534488,-0.076614454,10.055647,62.0,0.08172209,-0.068101734,9.80665,0.0,-0.027240695,0.24516624,2017-06-08 19:48:42,52.82558493960189
0.10534488,-0.08619126,10.04607,62.0,0.08172209,-0.068101734,9.80665,0.013620348,-0.027240695,0.23154591,2017-06-08 19:48:43,53.69366877239222
0.08619126,-0.08619126,10.04607,62.0,0.095342435,-0.068101734,9.80665,0.0,-0.013620348,0.24516624,2017-06-08 19:48:44,52.91148552776407
0.095768064,-0.076614454,10.036493,62.0,0.08172209,-0.068101734,9.80665,0.0,-0.013620348,0.24516624,2017-06-08 19:48:45,52.6245266938474
0.095768064,-0.08619126,10.04607,62.0,0.068101734,-0.068101734,9.80665,0.027240695,-0.013620348,0.24516624,2017-06-08 19:48:46,52.148727779817634
0.095768064,-0.076614454,10.036493,62.0,0.068101734,-0.068101734,9.80665,0.013620348,-0.013620348,0.24516624,2017-06-08 19:48:47,52.12111113214442
0.08619126,-0.076614454,10.04607,62.0,0.068101734,-0.068101734,9.80665,0.013620348,0.0,0.24516624,2017-06-08 19:48:48,52.004048262190125
0.095768064,-0.08619126,10.04607,62.0,0.08172209,-0.068101734,9.80665,0.0,0.0,0.24516624,2017-06-08 19:48:49,54.81277927284671
0.08619126,-0.08619126,10.055647,62.0,0.08172209,-0.05448139,9.80665,0.0,-0.027240695,0.24516624,2017-06-08 19:48:50,53.58735814596679
0.10534488,-0.095768064,10.036493,62.0,0.068101734,-0.05448139,9.80665,0.027240695,-0.027240695,0.24516624,2017-06-08 19:48:51,52.948225128428234
0.08619126,-0.076614454,10.055647,62.0,0.08172209,-0.068101734,9.80665,0.013620348,0.0,0.23154591,2017-06-08 19:48:52,52.73280194966218
0.095768064,-0.076614454,10.055647,62.0,0.08172209,-0.068101734,9.80665,0.0,-0.013620348,0.24516624,2017-06-08 19:48:53,52.21173850300863
0.095768064,-0.076614454,10.04607,62.0,0.068101734,-0.068101734,9.80665,0.027240695,0.0,0.24516624,2017-06-08 19:48:54,55.10736527946044
0.095768064,-0.08619126,10.04607,62.0,0.068101734,-0.068101734,9.80665,0.013620348,0.0,0.24516624,2017-06-08 19:48:55,54.8595733039885
0.08619126,-0.076614454,10.055647,62.0,0.08172209,-0.068101734,9.80665,0.0,0.0,0.24516624,2017-06-08 19:48:56,53.58719478044259
0.095768064,-0.076614454,10.036493,62.0,0.08172209,-0.068101734,9.80665,0.0,-0.013620348,0.24516624,2017-06-08 19:48:57,54.23219841094654
0.08619126,-0.08619126,10.04607,62.0,0.08172209,-0.05448139,9.80665,0.0,-0.027240695,0.24516624,2017-06-08 19:48:58,51.86829609515744
0.08619126,-0.076614454,10.065224,62.0,0.068101734,-0.05448139,9.80665,0.027240695,0.0,0.24516624,2017-06-08 19:48:59,53.969879859074425
0.08619126,-0.076614454,10.065224,62.0,0.068101734,-0.05448139,9.80665,0.013620348,-0.013620348,0.24516624,2017-06-08 19:49:00,55.80226203155594
0.095768064,-0.08619126,10.055647,62.0,0.068101734,-0.05448139,9.80665,0.013620348,-0.013620348,0.25878662,2017-06-08 19:49:01,51.70345980156458
0.095768064,-0.076614454,10.04607,62.0,0.068101734,-0.05448139,9.80665,0.027240695,-0.013620348,0.25878662,2017-06-08 19:49:02,53.410043483151185
0.08619126,-0.076614454,10.055647,62.0,0.068101734,-0.05448139,9.80665,0.027240695,-0.027240695,0.25878662,2017-06-08 19:49:03,54.15317590845466
0.08619126,-0.076614454,10.055647,62.0,0.068101734,-0.05448139,9.80665,0.013620348,-0.013620348,0.24516624,2017-06-08 19:49:04,53.16457643579255
0.095768064,-0.076614454,10.04607,62.0,0.068101734,-0.05448139,9.80665,0.013620348,-0.027240695,0.24516624,2017-06-08 19:49:05,54.13697306321187
0.095768064,-0.08619126,10.055647,62.0,0.068101734,-0.05448139,9.80665,0.027240695,-0.027240695,0.25878662,2017-06-08 19:49:06,53.670918769850076
0.095768064,-0.095768064,10.04607,62.0,0.068101734,-0.05448139,9.80665,0.013620348,-0.013620348,0.24516624,2017-06-08 19:49:07,53.72312306434905
0.08619126,-0.076614454,10.065224,62.0,0.068101734,-0.05448139,9.80665,0.013620348,-0.013620348,0.25878662,2017-06-08 19:49:08,52.33973157251096
0.076614454,-0.076614454,10.055647,62.0,0.068101734,-0.05448139,9.80665,0.027240695,0.0,0.25878662,2017-06-08 19:49:09,51.755107216463486
0.095768064,-0.08619126,10.036493,62.0,0.068101734,-0.05448139,9.80665,0.0,-0.013620348,0.24516624,2017-06-08 19:49:10,52.99352262167233
0.10534488,-0.08619126,10.04607,62.0,0.05448139,-0.05448139,9.80665,0.040861044,-0.040861044,0.23154591,2017-06-08 19:49:11,54.612788478825856
0.095768064,-0.095768064,10.04607,62.0,0.068101734,-0.05448139,9.80665,0.027240695,-0.040861044,0.24516624,2017-06-08 19:49:12,53.68365088066121
0.095768064,-0.076614454,10.04607,62.0,0.08172209,-0.08172209,9.80665,0.0,0.0,0.24516624,2017-06-08 19:49:13,52.830469287092725
0.095768064,-0.095768064,10.04607,62.0,0.068101734,-0.068101734,9.80665,0.027240695,-0.027240695,0.24516624,2017-06-08 19:49:14,51.29282252865433
0.10534488,-0.08619126,10.036493,62.0,0.068101734,-0.068101734,9.80665,0.027240695,-0.027240695,0.24516624,2017-06-08 19:49:15,52.918917364796684
0.11492168,-0.095768064,10.036493,62.0,0.08172209,-0.068101734,9.80665,0.027240695,-0.027240695,0.24516624,2017-06-08 19:49:17,52.309434998565365
0.095768064,-0.095768064,10.055647,62.0,0.068101734,-0.068101734,9.80665,0.027240695,-0.027240695,0.24516624,2017-06-08 19:49:18,50.7748112622353
0.10534488,-0.076614454,10.055647,62.0,0.08172209,-0.068101734,9.80665,0.013620348,-0.027240695,0.24516624,2017-06-08 19:49:19,53.73890824902268
0.095768064,-0.076614454,10.065224,62.0,0.08172209,-0.068101734,9.80665,0.0,-0.013620348,0.24516624,2017-06-08 19:49:20,54.197593969145565
0.10534488,-0.08619126,10.04607,62.0,0.08172209,-0.068101734,9.80665,0.0,-0.013620348,0.24516624,2017-06-08 19:49:21,51.12404039393653
0.095768064,-0.076614454,10.055647,62.0,0.08172209,-0.068101734,9.80665,0.0,-0.013620348,0.25878662,2017-06-08 19:49:22,54.894395745900404
0.095768064,-0.076614454,10.04607,62.0,0.08172209,-0.068101734,9.80665,0.013620348,-0.027240695,0.24516624,2017-06-08 19:49:23,53.59724935940443
0.095768064,-0.08619126,10.055647,62.0,0.08172209,-0.068101734,9.80665,0.013620348,-0.027240695,0.24516624,2017-06-08 19:49:24,52.12567504151612
0.095768064,-0.08619126,10.055647,62.0,0.08172209,-0.068101734,9.80665,0.013620348,-0.013620348,0.24516624,2017-06-08 19:49:25,54.58242128013319
0.095768064,-0.095768064,10.04607,62.0,0.08172209,-0.068101734,9.80665,0.0,0.0,0.24516624,2017-06-08 19:49:26,54.75211699803009
0.10534488,-0.08619126,10.055647,62.0,0.08172209,-0.068101734,9.80665,0.0,-0.013620348,0.25878662,2017-06-08 19:49:27,52.61636929691861
0.095768064,-0.095768064,10.036493,62.0,0.08172209,-0.068101734,9.80665,0.013620348,0.0,0.24516624,2017-06-08 19:49:28,54.096183887325076
0.095768064,-0.08619126,10.04607,62.0,0.08172209,-0.068101734,9.80665,0.013620348,-0.013620348,0.25878662,2017-06-08 19:49:29,52.50853059117715
0.10534488,-0.08619126,10.04607,62.0,0.08172209,-0.068101734,9.80665,0.013620348,-0.027240695,0.25878662,2017-06-08 19:49:30,51.83864895401584
0.08619126,-0.08619126,10.055647,62.0,0.08172209,-0.068101734,9.80665,0.0,0.0,0.25878662,2017-06-08 19:49:31,53.509296490164964
0.08619126,-0.06703765,10.055647,62.0,0.08172209,-0.068101734,9.80665,0.013620348,0.0,0.25878662,2017-06-08 19:49:32,54.47002151755197
0.10534488,-0.08619126,10.065224,62.0,0.08172209,-0.068101734,9.80665,0.0,-0.013620348,0.24516624,2017-06-08 19:49:33,54.626716996740456
0.10534488,-0.095768064,10.065224,62.0,0.08172209,-0.068101734,9.80665,0.013620348,-0.013620348,0.24516624,2017-06-08 19:49:34,54.83238451058217
0.095768064,-0.08619126,10.04607,62.0,0.08172209,-0.068101734,9.80665,0.013620348,-0.013620348,0.24516624,2017-06-08 19:49:35,54.10922131268472
0.08619126,-0.076614454,10.065224,62.0,0.08172209,-0.068101734,9.80665,0.013620348,-0.013620348,0.24516624,2017-06-08 19:49:36,53.10944007871451
0.08619126,-0.08619126,10.055647,62.0,0.08172209,-0.068101734,9.80665,0.0,-0.013620348,0.24516624,2017-06-08 19:49:37,52.84719563463928
0.095768064,-0.076614454,10.055647,62.0,0.08172209,-0.068101734,9.80665,0.0,-0.013620348,0.24516624,2017-06-08 19:49:38,55.357870509015996
0.10534488,-0.095768064,10.055647,62.0,0.08172209,-0.068101734,9.80665,0.027240695,-0.027240695,0.24516624,2017-06-08 19:49:39,54.58669702413604
0.095768064,-0.095768064,10.0269165,62.0,0.08172209,-0.068101734,9.80665,0.013620348,-0.027240695,0.23154591,2017-06-08 19:49:40,53.50613773128822
0.095768064,-0.08619126,10.055647,62.0,0.08172209,-0.08172209,9.80665,0.013620348,0.0,0.24516624,2017-06-08 19:49:41,52.64599621524673
0.10534488,-0.095768064,10.055647,62.0,0.08172209,-0.08172209,9.80665,0.013620348,0.0,0.24516624,2017-06-08 19:49:42,51.23622096090482
0.10534488,-0.095768064,10.055647,62.0,0.095342435,-0.068101734,9.80665,0.0,-0.027240695,0.23154591,2017-06-08 19:49:43,53.53292948469394
0.11492168,-0.095768064,10.04607,62.0,0.08172209,-0.068101734,9.80665,0.013620348,-0.013620348,0.24516624,2017-06-08 19:49:44,52.957302733229675
0.095768064,-0.076614454,10.036493,62.0,0.08172209,-0.068101734,9.80665,0.013620348,-0.027240695,0.24516624,2017-06-08 19:49:45,51.80855118075648
0.10534488,-0.08619126,10.04607,62.0,0.08172209,-0.068101734,9.80665,0.013620348,-0.027240695,0.23154591,2017-06-08 19:49:46,50.074365839138125
0.095768064,-0.08619126,10.036493,62.0,0.095342435,-0.068101734,9.80665,0.0,-0.027240695,0.23154591,2017-06-08 19:49:47,50.028082709527865
0.095768064,-0.08619126,10.055647,62.0,0.08172209,-0.068101734,9.80665,0.013620348,-0.027240695,0.24516624,2017-06-08 19:49:48,52.016433808916815
0.095768064,-0.095768064,10.093954,62.0,0.08172209,-0.068101734,9.80665,0.013620348,-0.027240695,0.28602728,2017-06-08 19:49:49,52.35761095883092
0.095768064,-0.095768064,10.04607,62.0,0.08172209,-0.068101734,9.80665,0.013620348,-0.013620348,0.24516624,2017-06-08 19:49:50,52.25801917563645
0.11492168,-0.095768064,10.04607,62.0,0.08172209,-0.068101734,9.80665,0.027240695,-0.027240695,0.24516624,2017-06-08 19:49:51,52.18973464045722
0.095768064,-0.095768064,10.036493,62.0,0.08172209,-0.068101734,9.80665,0.027240695,-0.027240695,0.24516624,2017-06-08 19:49:52,52.688103287762885
0.12449849,-0.08619126,10.065224,62.0,0.08172209,-0.08172209,9.80665,0.095342435,0.068101734,0.14982383,2017-06-08 19:49:53,52.26799468084836
0.11492168,-0.095768064,10.04607,62.0,0.095342435,-0.08172209,9.80665,0.0,0.0,0.23154591,2017-06-08 19:49:54,54.367710457773015
0.11492168,-0.08619126,10.04607,62.0,0.095342435,-0.08172209,9.80665,0.013620348,0.0,0.24516624,2017-06-08 19:49:55,54.675991994960185
0.10534488,-0.095768064,10.055647,62.0,0.095342435,-0.08172209,9.80665,0.0,-0.013620348,0.24516624,2017-06-08 19:49:56,51.86340822524733
0.095768064,-0.08619126,10.055647,62.0,0.08172209,-0.08172209,9.80665,0.013620348,0.0,0.23154591,2017-06-08 19:49:57,53.26871845964219
0.11492168,-0.11492168,10.04607,62.0,0.08172209,-0.08172209,9.80665,0.013620348,-0.013620348,0.23154591,2017-06-08 19:49:58,53.629947075471605
0.11492168,-0.076614454,10.04607,62.0,0.08172209,-0.08172209,9.80665,0.027240695,-0.013620348,0.24516624,2017-06-08 19:49:59,53.839628883223995
0.047884032,-0.24899697,10.04607,62.0,0.08172209,-0.08172209,9.80665,-0.08172209,-0.32688835,0.24516624,2017-06-08 19:50:01,56.07960347083165
0.095768064,-0.08619126,10.055647,62.0,0.08172209,-0.08172209,9.80665,-0.013620348,0.05448139,0.24516624,2017-06-08 19:50:02,55.36082005918391
0.095768064,0.06703765,10.0748005,62.0,0.08172209,-0.08172209,9.80665,0.013620348,0.013620348,0.24516624,2017-06-08 19:50:03,55.18209339599569
0.095768064,-0.076614454,10.04607,62.0,0.08172209,-0.068101734,9.80665,0.013620348,0.0,0.24516624,2017-06-08 19:50:04,53.694895367598605
0.095768064,-0.08619126,10.036493,62.0,0.08172209,-0.068101734,9.80665,0.0,-0.027240695,0.24516624,2017-06-08 19:50:05,55.62589130322573
0.08619126,-0.095768064,10.084377,62.0,0.068101734,-0.068101734,9.80665,0.027240695,0.0,0.21792556,2017-06-08 19:50:06,54.218654426833616
0.08619126,-0.076614454,10.055647,62.0,0.08172209,-0.068101734,9.80665,0.013620348,-0.013620348,0.24516624,2017-06-08 19:50:07,54.76128799202754
0.095768064,-0.08619126,10.04607,62.0,0.08172209,-0.068101734,9.80665,0.013620348,-0.013620348,0.25878662,2017-06-08 19:50:08,55.48130977882721
0.10534488,-0.076614454,10.055647,62.0,0.08172209,-0.068101734,9.80665,0.013620348,-0.013620348,0.24516624,2017-06-08 19:50:09,57.16113617986294
0.10534488,-0.095768064,10.055647,62.0,0.08172209,-0.068101734,9.80665,0.013620348,-0.027240695,0.24516624,2017-06-08 19:50:10,55.39916601061648
0.095768064,-0.095768064,10.04607,62.0,0.068101734,-0.05448139,9.80665,0.027240695,-0.027240695,0.24516624,2017-06-08 19:50:11,55.4536589613289
0.10534488,-0.095768064,10.036493,62.0,0.08172209,-0.068101734,9.80665,0.013620348,-0.013620348,0.23154591,2017-06-08 19:50:12,53.53343083785364
0.095768064,-0.095768064,10.04607,62.0,0.08172209,-0.068101734,9.80665,0.0,-0.013620348,0.24516624,2017-06-08 19:50:13,55.565383298812456
0.10534488,-0.10534488,10.036493,62.0,0.08172209,-0.068101734,9.80665,0.013620348,-0.027240695,0.24516624,2017-06-08 19:50:14,55.57073960222483
0.095768064,-0.10534488,10.036493,62.0,0.08172209,-0.068101734,9.80665,0.013620348,-0.027240695,0.24516624,2017-06-08 19:50:15,55.43336573125741
0.095768064,-0.095768064,10.055647,62.0,0.08172209,-0.068101734,9.80665,0.013620348,-0.027240695,0.24516624,2017-06-08 19:50:16,54.11415461684082
0.095768064,-0.08619126,10.055647,62.0,0.08172209,-0.068101734,9.80665,0.013620348,-0.027240695,0.24516624,2017-06-08 19:50:17,54.652556376136296
0.076614454,-0.10534488,10.0269165,62.0,0.08172209,-0.068101734,9.80665,0.068101734,0.027240695,0.27240694,2017-06-08 19:50:18,53.31113604166332
0.10534488,-0.08619126,10.055647,62.0,0.08172209,-0.05448139,9.80665,0.013620348,-0.013620348,0.25878662,2017-06-08 19:50:19,52.10400076177098
0.08619126,-0.076614454,10.065224,62.0,0.08172209,-0.05448139,9.80665,0.013620348,-0.013620348,0.24516624,2017-06-08 19:50:20,54.12850675415913
0.08619126,-0.08619126,10.055647,62.0,0.095342435,-0.05448139,9.80665,0.0,0.0,0.25878662,2017-06-08 19:50:21,54.057573034216446
0.06703765,0.019153614,10.0748005,62.0,0.08172209,-0.05448139,9.80665,0.013620348,-0.013620348,0.24516624,2017-06-08 19:50:22,51.301555555867594
0.095768064,-0.06703765,10.055647,62.0,0.068101734,-0.05448139,9.80665,0.013620348,-0.013620348,0.24516624,2017-06-08 19:50:23,50.14091078737095
0.08619126,-0.076614454,10.065224,62.0,0.068101734,-0.05448139,9.80665,0.013620348,-0.013620348,0.24516624,2017-06-08 19:50:24,50.00882715159363
0.095768064,-0.076614454,10.04607,62.0,0.068101734,-0.05448139,9.80665,0.013620348,0.0,0.25878662,2017-06-08 19:50:25,50.18333934041336
0.08619126,-0.076614454,10.055647,62.0,0.068101734,-0.05448139,9.80665,0.013620348,-0.013620348,0.24516624,2017-06-08 19:50:26,49.95684920388101
0.095768064,-0.076614454,10.055647,62.0,0.068101734,-0.05448139,9.80665,0.013620348,0.0,0.24516624,2017-06-08 19:50:27,51.03816838289269
0.10534488,-0.08619126,10.055647,62.0,0.08172209,-0.05448139,9.80665,0.0,-0.013620348,0.19068487,2017-06-08 19:50:28,50.32831877445979
0.095768064,-0.095768064,10.055647,62.0,0.08172209,-0.068101734,9.80665,0.013620348,0.0,0.24516624,2017-06-08 19:50:29,48.08852273989353
0.08619126,-0.076614454,10.055647,62.0,0.08172209,-0.068101734,9.80665,0.0,-0.027240695,0.24516624,2017-06-08 19:50:30,49.52684211495842
0.10534488,-0.08619126,10.04607,62.0,0.08172209,-0.068101734,9.80665,0.013620348,-0.027240695,0.23154591,2017-06-08 19:50:31,47.036567466154615
0.095768064,-0.076614454,10.04607,62.0,0.08172209,-0.068101734,9.80665,0.013620348,0.0,0.24516624,2017-06-08 19:50:32,49.6274854133634
0.095768064,-0.08619126,10.04607,62.0,0.08172209,-0.068101734,9.80665,0.0,0.0,0.24516624,2017-06-08 19:50:33,50.27664236216808
0.095768064,-0.076614454,10.04607,62.0,0.08172209,-0.068101734,9.80665,0.013620348,0.0,0.25878662,2017-06-08 19:50:34,51.14700509673228
0.08619126,-0.06703765,10.065224,62.0,0.08172209,-0.068101734,9.80665,-0.013620348,0.0,0.24516624,2017-06-08 19:50:35,50.48125430041612
0.08619126,-0.076614454,10.04607,62.0,0.08172209,-0.05448139,9.80665,0.0,-0.013620348,0.24516624,2017-06-08 19:50:36,49.56319689581398
0.095768064,-0.08619126,10.04607,62.0,0.068101734,-0.05448139,9.80665,0.0,-0.013620348,0.25878662,2017-06-08 19:50:37,52.82977486579061
0.076614454,-0.076614454,10.065224,62.0,0.068101734,-0.05448139,9.80665,0.0,-0.013620348,0.25878662,2017-06-08 19:50:38,51.889852791594066
0.08619126,-0.08619126,10.04607,62.0,0.068101734,-0.05448139,9.80665,0.027240695,0.0,0.25878662,2017-06-08 19:50:39,52.9795204523306
0.095768064,-0.076614454,10.055647,62.0,0.068101734,-0.05448139,9.80665,0.027240695,-0.013620348,0.24516624,2017-06-08 19:50:40,53.745449060762944
0.08619126,-0.076614454,10.055647,62.0,0.068101734,-0.05448139,9.80665,0.027240695,-0.027240695,0.24516624,2017-06-08 19:50:41,55.796220633193926
0.08619126,-0.08619126,10.04607,62.0,0.05448139,-0.05448139,9.80665,0.027240695,-0.027240695,0.24516624,2017-06-08 19:50:42,54.2750797491139
0.10534488,-0.076614454,10.055647,62.0,0.05448139,-0.05448139,9.80665,0.040861044,-0.027240695,0.24516624,2017-06-08 19:50:43,53.49483188734023
0.08619126,-0.076614454,10.055647,62.0,0.095342435,-0.05448139,9.80665,-0.013620348,-0.013620348,0.24516624,2017-06-08 19:50:44,55.084909484625285
0.08619126,-0.076614454,10.065224,62.0,0.08172209,-0.068101734,9.80665,0.013620348,-0.013620348,0.24516624,2017-06-08 19:50:46,54.931420421500434
0.095768064,-0.06703765,10.055647,62.0,0.08172209,-0.05448139,9.80665,0.013620348,-0.027240695,0.24516624,2017-06-08 19:50:47,56.86363919054158
0.095768064,-0.076614454,10.055647,62.0,0.068101734,-0.05448139,9.80665,0.013620348,-0.027240695,0.24516624,2017-06-08 19:50:48,56.11883271993928
0.08619126,-0.076614454,10.055647,62.0,0.068101734,-0.05448139,9.80665,0.013620348,-0.013620348,0.24516624,2017-06-08 19:50:49,53.26631680888411
0.095768064,-0.06703765,10.055647,62.0,0.068101734,-0.05448139,9.80665,0.013620348,-0.013620348,0.24516624,2017-06-08 19:50:50,55.33833182333832
0.08619126,-0.076614454,10.065224,62.0,0.068101734,-0.05448139,9.80665,0.013620348,-0.013620348,0.25878662,2017-06-08 19:50:51,53.89411014982633
0.08619126,-0.076614454,10.055647,62.0,0.08172209,-0.05448139,9.80665,0.013620348,-0.027240695,0.24516624,2017-06-08 19:50:52,57.35212875205246
0.095768064,-0.06703765,10.055647,62.0,0.08172209,-0.05448139,9.80665,0.013620348,0.0,0.24516624,2017-06-08 19:50:53,55.24794969271678
0.095768064,-0.08619126,10.055647,62.0,0.08172209,-0.05448139,9.80665,0.0,0.0,0.25878662,2017-06-08 19:50:54,55.6468452618257
0.095768064,-0.076614454,10.065224,62.0,0.08172209,-0.05448139,9.80665,0.013620348,-0.013620348,0.25878662,2017-06-08 19:50:55,52.02583376687728
0.095768064,-0.06703765,10.055647,62.0,0.08172209,-0.05448139,9.80665,0.013620348,-0.013620348,0.27240694,2017-06-08 19:50:56,54.136054180478574
0.095768064,-0.076614454,10.055647,62.0,0.068101734,-0.05448139,9.80665,0.027240695,0.0,0.24516624,2017-06-08 19:50:57,55.9990265000683
0.08619126,-0.06703765,10.04607,62.0,0.068101734,-0.05448139,9.80665,0.027240695,-0.013620348,0.24516624,2017-06-08 19:50:58,54.098905604920766
0.08619126,-0.08619126,10.04607,62.0,0.068101734,-0.05448139,9.80665,0.013620348,-0.027240695,0.24516624,2017-06-08 19:50:59,54.91393953886455
0.08619126,-0.06703765,10.055647,62.0,0.08172209,-0.05448139,9.80665,0.013620348,-0.013620348,0.25878662,2017-06-08 19:51:00,51.606591496600494
0.095768064,-0.06703765,10.055647,62.0,0.08172209,-0.05448139,9.80665,0.013620348,-0.027240695,0.24516624,2017-06-08 19:51:01,54.306963431401776
0.095768064,-0.076614454,10.055647,62.0,0.08172209,-0.05448139,9.80665,0.0,0.0,0.25878662,2017-06-08 19:51:02,53.72634623248118
0.08619126,-0.06703765,10.055647,62.0,0.08172209,-0.05448139,9.80665,0.0,0.0,0.25878662,2017-06-08 19:51:03,53.96275737071405
0.076614454,-0.076614454,10.055647,62.0,0.08172209,-0.05448139,9.80665,0.0,0.0,0.27240694,2017-06-08 19:51:04,54.02259702785273
0.08619126,-0.076614454,10.055647,62.0,0.068101734,-0.05448139,9.80665,0.013620348,-0.013620348,0.24516624,2017-06-08 19:51:05,52.959291073503046
0.08619126,-0.076614454,10.055647,62.0,0.068101734,-0.05448139,9.80665,0.027240695,0.0,0.27240694,2017-06-08 19:51:06,52.80153171678953
0.08619126,-0.076614454,10.065224,62.0,0.068101734,-0.05448139,9.80665,0.013620348,-0.013620348,0.25878662,2017-06-08 19:51:07,50.96841085004197
0.095768064,-0.06703765,10.065224,62.0,0.068101734,-0.05448139,9.80665,0.013620348,-0.013620348,0.24516624,2017-06-08 19:51:08,51.89424897904012
0.10534488,-0.076614454,10.065224,62.0,0.068101734,-0.05448139,9.80665,0.013620348,-0.013620348,0.25878662,2017-06-08 19:51:09,53.01580610094821
