ACC_X,ACC_Y,ACC_Z,LIGH_1,TIME,VOICE
-0.545878,0.842759,10.352529,0.0,2017-01-15 22:17:18,55.69938776083611
-0.5650316,0.81402856,10.342952,0.0,2017-01-15 22:17:19,42.210173389602126
-0.48841715,0.79487497,10.352529,0.0,2017-01-15 22:17:20,33.031184014335935
-0.5267244,0.79487497,10.342952,0.0,2017-01-15 22:17:21,31.26846454066652
-0.5267244,0.7661445,10.352529,0.0,2017-01-15 22:17:22,35.572236449874225
-0.545878,0.7757214,10.362105,0.0,2017-01-15 22:17:23,29.248653818374546
-0.5267244,0.81402856,10.371682,0.0,2017-01-15 22:17:25,35.12941915435761
-0.5267244,0.78529817,10.362105,0.0,2017-01-15 22:17:26,27.185250429856094
-0.51714754,0.7757214,10.333375,0.0,2017-01-15 22:17:27,27.988534184565417
-0.545878,0.82360536,10.362105,0.0,2017-01-15 22:17:28,26.524729806740797
-0.50757074,0.80445176,10.352529,0.0,2017-01-15 22:17:29,26.817498782479817
-0.51714754,0.80445176,10.362105,0.0,2017-01-15 22:17:30,26.559933307229034
-0.51714754,0.7757214,10.314221,0.0,2017-01-15 22:17:31,26.176554845275387
-0.50757074,0.78529817,10.333375,0.0,2017-01-15 22:17:32,26.531190097593488
-0.5363012,0.82360536,10.362105,0.0,2017-01-15 22:17:33,26.566730458848504
-0.51714754,0.81402856,10.362105,0.0,2017-01-15 22:17:34,27.19390853348745
-0.5267244,0.80445176,10.409989,0.0,2017-01-15 22:17:35,27.633835322615056
-0.5363012,0.82360536,10.371682,0.0,2017-01-15 22:17:36,27.197946532072372
-0.5267244,0.82360536,10.371682,0.0,2017-01-15 22:17:37,26.948272245760045
-0.5267244,0.7661445,10.342952,0.0,2017-01-15 22:17:38,26.730064995623582
-0.5363012,0.81402856,10.390836,0.0,2017-01-15 22:17:39,26.114245614570105
-0.545878,0.80445176,10.362105,0.0,2017-01-15 22:17:40,26.433292798432483
-0.545878,0.79487497,10.390836,0.0,2017-01-15 22:17:41,26.924999177005926
-0.5267244,0.79487497,10.342952,0.0,2017-01-15 22:17:42,27.36361637788103
-0.5363012,0.80445176,10.400413,0.0,2017-01-15 22:17:43,26.94229415544079
-0.545878,0.82360536,10.381259,0.0,2017-01-15 22:17:44,27.757924276787918
-0.5267244,0.78529817,10.333375,0.0,2017-01-15 22:17:46,27.201799836031896
-0.545878,0.80445176,10.362105,0.0,2017-01-15 22:17:47,27.986700639814096
-0.5363012,0.79487497,10.362105,0.0,2017-01-15 22:17:48,27.03342436968331
-0.5363012,0.80445176,10.352529,0.0,2017-01-15 22:17:49,27.082349465964818
-0.5363012,0.8331822,10.342952,0.0,2017-01-15 22:17:50,26.83845963422118
-0.545878,0.81402856,10.381259,0.0,2017-01-15 22:17:51,26.532004498721804
-0.5267244,0.80445176,10.371682,0.0,2017-01-15 22:17:52,27.31251229945751
-0.5554548,0.81402856,10.362105,0.0,2017-01-15 22:17:53,27.221298320456636
-0.51714754,0.80445176,10.371682,0.0,2017-01-15 22:17:54,26.45247214379704
-0.5267244,0.79487497,10.362105,0.0,2017-01-15 22:17:55,26.95533661755482
-0.5267244,0.78529817,10.342952,0.0,2017-01-15 22:17:56,27.21712743711475
-0.5267244,0.7757214,10.362105,0.0,2017-01-15 22:17:57,27.15836275164994
-0.5267244,0.81402856,10.371682,0.0,2017-01-15 22:17:58,26.807404922730186
-0.545878,0.81402856,10.352529,0.0,2017-01-15 22:17:59,28.29792079502136
-0.5650316,0.8331822,10.362105,0.0,2017-01-15 22:18:00,58.99221230089374
-0.51714754,0.79487497,10.371682,0.0,2017-01-15 22:18:01,54.89292168929265
-0.5363012,0.82360536,10.352529,0.0,2017-01-15 22:18:02,56.36893162602953
-0.5363012,0.80445176,10.371682,0.0,2017-01-15 22:18:03,29.43360014656701
-0.5554548,0.8331822,10.400413,0.0,2017-01-15 22:18:04,30.415493483732412
-0.545878,0.82360536,10.371682,0.0,2017-01-15 22:18:05,28.51212470118201
-0.5650316,0.8523358,10.419566,0.0,2017-01-15 22:18:06,52.03715892370372
-0.545878,0.8523358,10.43872,0.0,2017-01-15 22:18:08,54.282347269788154
-0.5554548,0.842759,10.381259,0.0,2017-01-15 22:18:09,43.00378812435048
-0.5363012,0.80445176,10.342952,0.0,2017-01-15 22:18:10,49.63536235431676
-0.5363012,0.80445176,10.390836,0.0,2017-01-15 22:18:11,31.25492448232891
-0.5650316,0.8619126,10.43872,0.0,2017-01-15 22:18:12,27.63596437200427
-0.545878,0.80445176,10.342952,0.0,2017-01-15 22:18:13,28.371147485155063
-0.545878,0.8331822,10.362105,0.0,2017-01-15 22:18:14,39.0712454707446
-0.5363012,0.8331822,10.390836,0.0,2017-01-15 22:18:15,38.72216749144746
-0.5363012,0.81402856,10.400413,0.0,2017-01-15 22:18:16,36.83724250378987
-0.545878,0.842759,10.352529,0.0,2017-01-15 22:18:17,30.399999718215156
-0.5554548,0.82360536,10.381259,0.0,2017-01-15 22:18:18,30.845662247049667
-0.58418524,0.8523358,10.381259,0.0,2017-01-15 22:18:19,34.24596843648421
-0.5554548,0.842759,10.409989,0.0,2017-01-15 22:18:20,35.161712435110914
-0.58418524,0.8523358,10.381259,0.0,2017-01-15 22:18:21,33.27392143871071
-0.5650316,0.842759,10.409989,0.0,2017-01-15 22:18:22,53.97789249750892
-0.5650316,0.8523358,10.371682,0.0,2017-01-15 22:18:23,35.89531782720816
-0.5650316,0.8331822,10.352529,0.0,2017-01-15 22:18:24,52.64483970982212
-0.5554548,0.80445176,10.352529,0.0,2017-01-15 22:18:25,25.825107853752606
-0.5746084,0.842759,10.371682,0.0,2017-01-15 22:18:26,25.94019427319004
-0.5650316,0.8714894,10.381259,0.0,2017-01-15 22:18:28,26.528957252057488
-0.5650316,0.8619126,10.390836,0.0,2017-01-15 22:18:29,26.75546358227354
-0.5746084,0.842759,10.390836,0.0,2017-01-15 22:18:30,26.886061148428976
-0.58418524,0.81402856,10.390836,0.0,2017-01-15 22:18:31,27.65868708701366
-0.5650316,0.82360536,10.371682,0.0,2017-01-15 22:18:32,52.832824470403004
-0.5746084,0.842759,10.381259,0.0,2017-01-15 22:18:33,48.98016287276501
-0.5650316,0.8331822,10.409989,0.0,2017-01-15 22:18:34,50.164393278604166
-0.5650316,0.842759,10.352529,0.0,2017-01-15 22:18:35,27.39433886071066
-0.59376204,0.8619126,10.390836,0.0,2017-01-15 22:18:36,26.434742672944694
-0.545878,0.8523358,10.409989,0.0,2017-01-15 22:18:37,26.60026066477041
-0.5554548,0.842759,10.362105,0.0,2017-01-15 22:18:38,28.439604059128648
-0.5650316,0.8714894,10.419566,0.0,2017-01-15 22:18:39,35.517716349362544
-0.545878,0.8331822,10.400413,0.0,2017-01-15 22:18:40,34.716235407652746
-0.545878,0.842759,10.381259,0.0,2017-01-15 22:18:41,35.5664731128899
-0.5650316,0.8810662,10.419566,0.0,2017-01-15 22:18:42,33.502340828802815
-0.51714754,0.8331822,10.419566,0.0,2017-01-15 22:18:43,31.25647957243665
-0.545878,0.82360536,10.400413,0.0,2017-01-15 22:18:44,49.93515407619406
-0.5363012,0.8331822,10.371682,0.0,2017-01-15 22:18:45,33.789268183535405
-0.5267244,0.81402856,10.381259,0.0,2017-01-15 22:18:46,50.247958588676944
-0.545878,0.81402856,10.390836,0.0,2017-01-15 22:18:47,50.80337405899465
-0.5650316,0.842759,10.390836,0.0,2017-01-15 22:18:49,29.679178230835358
-0.5746084,0.8714894,10.43872,0.0,2017-01-15 22:18:50,50.65606285512111
-0.5746084,0.8714894,10.46745,0.0,2017-01-15 22:18:51,30.01740471572424
-0.5267244,0.80445176,10.352529,0.0,2017-01-15 22:18:52,50.271953472208395
-0.545878,0.842759,10.419566,0.0,2017-01-15 22:18:53,25.980309214866203
-0.5363012,0.8331822,10.409989,0.0,2017-01-15 22:18:54,25.910193656616055
-0.5363012,0.78529817,10.342952,0.0,2017-01-15 22:18:55,26.979726971437046
-0.5267244,0.82360536,10.342952,0.0,2017-01-15 22:18:56,26.99081278040672
-0.5267244,0.81402856,10.381259,0.0,2017-01-15 22:18:57,27.98601016352318
-0.51714754,0.80445176,10.390836,0.0,2017-01-15 22:18:58,27.676381476219184
-0.545878,0.82360536,10.381259,0.0,2017-01-15 22:18:59,28.025727748653154
-0.5267244,0.8331822,10.390836,0.0,2017-01-15 22:19:00,27.780064614235084
-0.545878,0.8523358,10.400413,0.0,2017-01-15 22:19:01,27.56638485069915
-0.5363012,0.81402856,10.362105,0.0,2017-01-15 22:19:02,28.24516328007209
-0.5363012,0.79487497,10.342952,0.0,2017-01-15 22:19:03,29.372482548851288
-0.5267244,0.82360536,10.381259,0.0,2017-01-15 22:19:04,38.67789259212906
-0.545878,0.82360536,10.333375,0.0,2017-01-15 22:19:05,27.174364450704836
-0.545878,0.842759,10.400413,0.0,2017-01-15 22:19:06,27.627090345295024
-0.5554548,0.82360536,10.390836,0.0,2017-01-15 22:19:07,28.263259078721678
-0.5554548,0.842759,10.419566,0.0,2017-01-15 22:19:08,29.531720426892363
-0.545878,0.8331822,10.371682,0.0,2017-01-15 22:19:09,29.919608185199014
-0.5363012,0.8331822,10.362105,0.0,2017-01-15 22:19:11,29.52164089418089
-0.5267244,0.82360536,10.381259,0.0,2017-01-15 22:19:12,28.341324826062433
-0.5746084,0.89064306,10.362105,0.0,2017-01-15 22:19:13,27.51709623637142
-0.5650316,0.8523358,10.400413,0.0,2017-01-15 22:19:14,27.773905692500186
-0.58418524,0.8714894,10.419566,0.0,2017-01-15 22:19:15,27.89384583221222
-0.58418524,0.8619126,10.409989,0.0,2017-01-15 22:19:16,30.298224167592537
-0.58418524,0.8810662,10.409989,0.0,2017-01-15 22:19:17,28.22578715326471
-0.59376204,0.8810662,10.429143,0.0,2017-01-15 22:19:18,28.290765130266088
-0.60333884,0.90021986,10.457873,0.0,2017-01-15 22:19:19,28.16777620753087
-0.5746084,0.8714894,10.409989,0.0,2017-01-15 22:19:20,27.939191004138195
-0.58418524,0.8523358,10.371682,0.0,2017-01-15 22:19:21,27.300475717642506
-0.5554548,0.82360536,10.342952,0.0,2017-01-15 22:19:22,28.881830053407555
-0.5554548,0.8810662,10.429143,0.0,2017-01-15 22:19:23,28.88470845408162
-0.5650316,0.8714894,10.409989,0.0,2017-01-15 22:19:24,28.079871826978305
-0.545878,0.8523358,10.429143,0.0,2017-01-15 22:19:25,28.22923676193249
-0.51714754,0.80445176,10.371682,0.0,2017-01-15 22:19:26,30.051671015234373
-0.5363012,0.81402856,10.352529,0.0,2017-01-15 22:19:27,28.587627074744397
-0.5267244,0.8331822,10.371682,0.0,2017-01-15 22:19:28,27.875844397515163
-0.545878,0.82360536,10.371682,0.0,2017-01-15 22:19:29,27.419857894106027
-0.5363012,0.82360536,10.352529,0.0,2017-01-15 22:19:31,28.042544676385624
-0.5267244,0.842759,10.381259,0.0,2017-01-15 22:19:32,27.663407995647383
-0.5267244,0.80445176,10.390836,0.0,2017-01-15 22:19:33,27.680874857035974
-0.5554548,0.8523358,10.43872,0.0,2017-01-15 22:19:34,28.877544021123732
-0.5554548,0.842759,10.371682,0.0,2017-01-15 22:19:35,28.889145175434226
-0.5267244,0.82360536,10.352529,0.0,2017-01-15 22:19:36,33.431573985127635
-0.5363012,0.81402856,10.352529,0.0,2017-01-15 22:19:37,36.572289024238025
-0.5267244,0.81402856,10.352529,0.0,2017-01-15 22:19:38,43.83132655312554
-0.545878,0.80445176,10.371682,0.0,2017-01-15 22:19:39,49.13908479872945
-0.545878,0.8523358,10.381259,0.0,2017-01-15 22:19:40,49.3486982566132
-0.5267244,0.81402856,10.371682,0.0,2017-01-15 22:19:41,43.64559085537596
-0.545878,0.80445176,10.323798,0.0,2017-01-15 22:19:42,38.701982690870125
-0.5363012,0.81402856,10.371682,0.0,2017-01-15 22:19:43,31.15014195530136
-0.5363012,0.82360536,10.409989,0.0,2017-01-15 22:19:44,37.712932128338316
-0.5363012,0.82360536,10.409989,0.0,2017-01-15 22:19:45,37.438244456011745
-0.545878,0.8331822,10.381259,0.0,2017-01-15 22:19:46,35.481397960075654
-0.545878,0.8523358,10.409989,0.0,2017-01-15 22:19:47,28.700910215560825
-0.5650316,0.842759,10.409989,0.0,2017-01-15 22:19:48,26.23675620297019
-0.5554548,0.8523358,10.409989,0.0,2017-01-15 22:19:49,26.226963764054684
-0.5650316,0.8523358,10.409989,0.0,2017-01-15 22:19:51,24.99493771685806
-0.5267244,0.81402856,10.371682,0.0,2017-01-15 22:19:52,26.478870312950175
-0.5650316,0.89064306,10.409989,0.0,2017-01-15 22:19:53,27.910060432804773
-0.5267244,0.81402856,10.390836,0.0,2017-01-15 22:19:54,30.089699097511364
-0.5363012,0.79487497,10.362105,0.0,2017-01-15 22:19:55,32.48439974081495
-0.5363012,0.8331822,10.390836,0.0,2017-01-15 22:19:56,31.07447409523609
-0.545878,0.8523358,10.390836,0.0,2017-01-15 22:19:57,29.22702756822202
-0.51714754,0.82360536,10.400413,0.0,2017-01-15 22:19:58,27.69748773324997
-0.5267244,0.81402856,10.371682,0.0,2017-01-15 22:19:59,27.130256538692482
-0.5363012,0.842759,10.390836,0.0,2017-01-15 22:20:00,30.28255990143387
-0.5363012,0.842759,10.419566,0.0,2017-01-15 22:20:01,29.773734571079853
-0.5554548,0.8523358,10.362105,0.0,2017-01-15 22:20:02,28.916297842169087
-0.5363012,0.82360536,10.390836,0.0,2017-01-15 22:20:03,29.62141354119011
-0.5650316,0.82360536,10.43872,0.0,2017-01-15 22:20:04,30.743512350991825
-0.545878,0.8714894,10.43872,0.0,2017-01-15 22:20:05,31.178614190040925
-0.545878,0.842759,10.371682,0.0,2017-01-15 22:20:06,29.58091827203527
-0.545878,0.8619126,10.419566,0.0,2017-01-15 22:20:07,30.538967783067573
-0.5554548,0.8331822,10.390836,0.0,2017-01-15 22:20:08,29.075994426517067
-0.5554548,0.8523358,10.400413,0.0,2017-01-15 22:20:09,29.080508425437085
-0.545878,0.8523358,10.409989,0.0,2017-01-15 22:20:11,28.809117974451187
-0.5554548,0.8523358,10.429143,0.0,2017-01-15 22:20:12,31.96977997671903
-0.5363012,0.8331822,10.390836,0.0,2017-01-15 22:20:13,30.92381768073252
-0.5363012,0.8523358,10.429143,0.0,2017-01-15 22:20:14,31.138347651123958
-0.545878,0.8523358,10.381259,0.0,2017-01-15 22:20:15,30.164783720197175
-0.545878,0.8619126,10.400413,0.0,2017-01-15 22:20:16,30.58708281072483
-0.5363012,0.8619126,10.371682,0.0,2017-01-15 22:20:17,30.54298182259018
-0.5267244,0.8331822,10.409989,0.0,2017-01-15 22:20:18,29.114622407170508
-0.51714754,0.8523358,10.400413,0.0,2017-01-15 22:20:19,33.02874538912665
-0.5267244,0.8331822,10.400413,0.0,2017-01-15 22:20:20,45.778149230896744
-0.51714754,0.81402856,10.352529,0.0,2017-01-15 22:20:21,52.490574946838535
-0.545878,0.82360536,10.381259,0.0,2017-01-15 22:20:22,33.81925804119679
-0.5363012,0.842759,10.390836,0.0,2017-01-15 22:20:23,49.58882365493628
-0.51714754,0.8523358,10.400413,0.0,2017-01-15 22:20:24,33.30048325210463
-0.5363012,0.8619126,10.429143,0.0,2017-01-15 22:20:25,45.77177238932712
-0.5267244,0.842759,10.429143,0.0,2017-01-15 22:20:26,28.273268594123145
-0.50757074,0.82360536,10.371682,0.0,2017-01-15 22:20:27,29.197381890061468
-0.50757074,0.79487497,10.371682,0.0,2017-01-15 22:20:28,27.483382591543585
-0.5267244,0.842759,10.390836,0.0,2017-01-15 22:20:29,27.73345254866179
-0.5267244,0.81402856,10.371682,0.0,2017-01-15 22:20:30,25.740385059087657
-0.5363012,0.842759,10.400413,0.0,2017-01-15 22:20:31,27.030601945343808
-0.5267244,0.81402856,10.362105,0.0,2017-01-15 22:20:33,26.501587250658428
-0.5267244,0.8331822,10.400413,0.0,2017-01-15 22:20:34,27.334430415467086
-0.50757074,0.82360536,10.390836,0.0,2017-01-15 22:20:35,27.442024956795102
-0.5267244,0.82360536,10.419566,0.0,2017-01-15 22:20:36,50.42898934973386
-0.5363012,0.82360536,10.362105,0.0,2017-01-15 22:20:37,36.527903795316476
-0.5363012,0.842759,10.390836,0.0,2017-01-15 22:20:38,50.439451628469605
-0.545878,0.842759,10.381259,0.0,2017-01-15 22:20:39,29.013135551481938
-0.5363012,0.842759,10.409989,0.0,2017-01-15 22:20:40,39.56072336995183
-0.51714754,0.81402856,10.390836,0.0,2017-01-15 22:20:41,31.936436666530863
-0.5363012,0.8331822,10.409989,0.0,2017-01-15 22:20:42,52.09821802566055
-0.5267244,0.82360536,10.390836,0.0,2017-01-15 22:20:43,29.36339348790421
-0.5267244,0.8523358,10.390836,0.0,2017-01-15 22:20:44,27.468773513328802
-0.5363012,0.8714894,10.43872,0.0,2017-01-15 22:20:45,27.949539835211162
-0.5363012,0.8619126,10.43872,0.0,2017-01-15 22:20:46,26.817583505508644
-0.51714754,0.82360536,10.400413,0.0,2017-01-15 22:20:47,28.222232620019668
-0.50757074,0.81402856,10.409989,0.0,2017-01-15 22:20:48,26.77746638956601
-0.545878,0.8331822,10.390836,0.0,2017-01-15 22:20:49,27.673043174532733
-0.545878,0.8331822,10.400413,0.0,2017-01-15 22:20:50,26.732945601187375
-0.5267244,0.82360536,10.400413,0.0,2017-01-15 22:20:51,27.819504941404
-0.5267244,0.8619126,10.457873,0.0,2017-01-15 22:20:52,27.05371860391784
-0.5363012,0.8810662,10.448297,0.0,2017-01-15 22:20:54,26.93421890597417
-0.5554548,0.8619126,10.419566,0.0,2017-01-15 22:20:55,25.949274914955694
-0.51714754,0.8331822,10.419566,0.0,2017-01-15 22:20:56,52.55314107918771
-0.5363012,0.8523358,10.429143,0.0,2017-01-15 22:20:57,33.461933859267724
-0.545878,0.8619126,10.409989,0.0,2017-01-15 22:20:58,52.44922677012444
-0.5267244,0.8331822,10.400413,0.0,2017-01-15 22:20:59,27.740011629440843
-0.51714754,0.81402856,10.381259,0.0,2017-01-15 22:21:00,25.377679523133175
-0.5267244,0.81402856,10.400413,0.0,2017-01-15 22:21:01,25.519148467796995
-0.49799395,0.80445176,10.409989,0.0,2017-01-15 22:21:02,25.120503652039293
-0.5267244,0.8331822,10.390836,0.0,2017-01-15 22:21:03,33.57374355120487
-0.51714754,0.8331822,10.409989,0.0,2017-01-15 22:21:04,36.83213414585928
-0.50757074,0.842759,10.390836,0.0,2017-01-15 22:21:05,32.72450817024824
-0.51714754,0.82360536,10.371682,0.0,2017-01-15 22:21:06,35.43751126432035
-0.50757074,0.81402856,10.390836,0.0,2017-01-15 22:21:07,28.656146960397724
-0.49799395,0.80445176,10.362105,0.0,2017-01-15 22:21:08,29.029406725989073
-0.49799395,0.80445176,10.390836,0.0,2017-01-15 22:21:09,29.239236911705326
-0.50757074,0.82360536,10.371682,0.0,2017-01-15 22:21:10,31.321585905995217
-0.5267244,0.81402856,10.381259,0.0,2017-01-15 22:21:12,30.975316946801197
-0.51714754,0.82360536,10.381259,0.0,2017-01-15 22:21:13,31.612481803327377
-0.49799395,0.8331822,10.409989,0.0,2017-01-15 22:21:14,31.30752781108136
-0.50757074,0.82360536,10.381259,0.0,2017-01-15 22:21:15,35.30050744244483
-0.50757074,0.8331822,10.390836,0.0,2017-01-15 22:21:16,36.385270064866035
-0.49799395,0.79487497,10.390836,0.0,2017-01-15 22:21:17,34.28289220647628
-0.51714754,0.8331822,10.371682,0.0,2017-01-15 22:21:18,35.088326094742555
-0.48841715,0.78529817,10.400413,0.0,2017-01-15 22:21:19,34.6791411247315
-0.49799395,0.80445176,10.362105,0.0,2017-01-15 22:21:20,35.66332883572376
-0.49799395,0.80445176,10.390836,0.0,2017-01-15 22:21:21,32.87374080773168
-0.51714754,0.81402856,10.371682,0.0,2017-01-15 22:21:22,36.68263579394911
-0.51714754,0.82360536,10.400413,0.0,2017-01-15 22:21:23,32.05025796741526
-0.51714754,0.8331822,10.400413,0.0,2017-01-15 22:21:24,33.58358458417623
-0.50757074,0.80445176,10.400413,0.0,2017-01-15 22:21:25,29.388713838104596
-0.5267244,0.8810662,10.371682,0.0,2017-01-15 22:21:26,27.824950191376413
-0.5267244,0.8523358,10.429143,0.0,2017-01-15 22:21:27,26.776297617056564
-0.5363012,0.8523358,10.381259,0.0,2017-01-15 22:21:28,44.44211188261957
-0.51714754,0.81402856,10.371682,0.0,2017-01-15 22:21:29,38.65047684532507
-0.50757074,0.81402856,10.390836,0.0,2017-01-15 22:21:31,43.318046726039356
-0.5363012,0.842759,10.429143,0.0,2017-01-15 22:21:32,29.802917633092235
-0.50757074,0.81402856,10.362105,0.0,2017-01-15 22:21:33,33.156666790135375
-0.51714754,0.82360536,10.381259,0.0,2017-01-15 22:21:34,31.841322361531397
-0.50757074,0.82360536,10.419566,0.0,2017-01-15 22:21:35,32.282944672640085
-0.50757074,0.79487497,10.362105,0.0,2017-01-15 22:21:36,30.282890526030457
-0.51714754,0.81402856,10.390836,0.0,2017-01-15 22:21:37,30.175693516310705
-0.50757074,0.80445176,10.400413,0.0,2017-01-15 22:21:38,29.1392969293057
-0.49799395,0.80445176,10.400413,0.0,2017-01-15 22:21:39,28.96982386611846
-0.49799395,0.79487497,10.371682,0.0,2017-01-15 22:21:40,27.31893329242505
-0.51714754,0.842759,10.419566,0.0,2017-01-15 22:21:41,31.74046172176851
-0.49799395,0.82360536,10.371682,0.0,2017-01-15 22:21:42,32.98173960584219
-0.50757074,0.81402856,10.400413,0.0,2017-01-15 22:21:43,30.72747203563118
-0.49799395,0.81402856,10.371682,0.0,2017-01-15 22:21:44,39.7597132542242
-0.51714754,0.8331822,10.381259,0.0,2017-01-15 22:21:45,38.772608142274734
-0.50757074,0.8331822,10.381259,0.0,2017-01-15 22:21:46,37.37370579490465
-0.51714754,0.8331822,10.429143,0.0,2017-01-15 22:21:47,39.35478452553747
-0.50757074,0.81402856,10.371682,0.0,2017-01-15 22:21:49,30.85738648112884
-0.50757074,0.81402856,10.390836,0.0,2017-01-15 22:21:50,36.91229345992083
-0.5267244,0.8331822,10.381259,0.0,2017-01-15 22:21:51,26.994339087087873
-0.49799395,0.79487497,10.390836,0.0,2017-01-15 22:21:52,27.79120544636035
-0.50757074,0.82360536,10.400413,0.0,2017-01-15 22:21:53,28.210977856424748
-0.50757074,0.80445176,10.381259,0.0,2017-01-15 22:21:54,28.052289142034258
-0.49799395,0.8331822,10.409989,0.0,2017-01-15 22:21:55,28.253287314052887
-0.51714754,0.8331822,10.362105,0.0,2017-01-15 22:21:56,45.0186540907557
-0.49799395,0.80445176,10.352529,0.0,2017-01-15 22:21:57,37.38218256791641
-0.50757074,0.8331822,10.409989,0.0,2017-01-15 22:21:58,42.67609177083535
-0.51714754,0.82360536,10.400413,0.0,2017-01-15 22:21:59,29.533609626470376
-0.48841715,0.81402856,10.409989,0.0,2017-01-15 22:22:00,42.93403578683825
-0.50757074,0.82360536,10.419566,0.0,2017-01-15 22:22:01,32.1195940663963
-0.49799395,0.842759,10.429143,0.0,2017-01-15 22:22:02,39.62192586372761
-0.51714754,0.842759,10.429143,0.0,2017-01-15 22:22:03,29.562419876777714
-0.50757074,0.8331822,10.390836,0.0,2017-01-15 22:22:04,29.054636259262132
-0.50757074,0.842759,10.409989,0.0,2017-01-15 22:22:05,27.785695097397465
-0.50757074,0.82360536,10.419566,0.0,2017-01-15 22:22:06,26.778321389730017
-0.50757074,0.842759,10.419566,0.0,2017-01-15 22:22:07,25.204425905317677
-0.51714754,0.82360536,10.371682,0.0,2017-01-15 22:22:09,26.058166302640096
-0.5267244,0.8523358,10.400413,0.0,2017-01-15 22:22:10,26.79078526120225
-0.5267244,0.8331822,10.419566,0.0,2017-01-15 22:22:11,25.527594448662107
-0.49799395,0.82360536,10.409989,0.0,2017-01-15 22:22:12,50.854868050227864
-0.50757074,0.8331822,10.381259,0.0,2017-01-15 22:22:13,38.6866170111047
-0.51714754,0.842759,10.400413,0.0,2017-01-15 22:22:14,35.535409457068695
-0.50757074,0.82360536,10.409989,0.0,2017-01-15 22:22:15,34.698523787258814
-0.48841715,0.81402856,10.390836,0.0,2017-01-15 22:22:16,31.001410580958225
-0.49799395,0.8523358,10.409989,0.0,2017-01-15 22:22:17,29.08865195204555
-0.50757074,0.842759,10.400413,0.0,2017-01-15 22:22:18,29.546133109686657
-0.5267244,0.82360536,10.409989,0.0,2017-01-15 22:22:19,28.99018108175659
-0.49799395,0.81402856,10.419566,0.0,2017-01-15 22:22:20,27.433357965171314
-0.50757074,0.80445176,10.371682,0.0,2017-01-15 22:22:21,26.135280073705566
-0.50757074,0.81402856,10.400413,0.0,2017-01-15 22:22:22,26.937873854988936
-0.49799395,0.81402856,10.390836,0.0,2017-01-15 22:22:23,28.102514255282394
-0.50757074,0.81402856,10.409989,0.0,2017-01-15 22:22:24,28.947417008286035
-0.50757074,0.81402856,10.390836,0.0,2017-01-15 22:22:25,29.516000685620764
-0.51714754,0.82360536,10.419566,0.0,2017-01-15 22:22:26,29.938218538340816
-0.49799395,0.82360536,10.400413,0.0,2017-01-15 22:22:27,29.482448152933713
-0.50757074,0.8331822,10.400413,0.0,2017-01-15 22:22:28,27.388919906500234
-0.51714754,0.842759,10.400413,0.0,2017-01-15 22:22:30,26.58729655199977
-0.49799395,0.82360536,10.400413,0.0,2017-01-15 22:22:31,27.151412073452494
-0.50757074,0.842759,10.400413,0.0,2017-01-15 22:22:32,26.903650010211145
-0.48841715,0.79487497,10.342952,0.0,2017-01-15 22:22:33,33.08630433041931
-0.51714754,0.80445176,10.390836,0.0,2017-01-15 22:22:34,29.281461123512138
-0.49799395,0.81402856,10.400413,0.0,2017-01-15 22:22:35,32.71312205327855
-0.51714754,0.842759,10.429143,0.0,2017-01-15 22:22:36,29.127068454809212
-0.5267244,0.842759,10.409989,0.0,2017-01-15 22:22:37,31.772397148151235
-0.51714754,0.82360536,10.400413,0.0,2017-01-15 22:22:38,31.921133741217677
-0.5267244,0.82360536,10.390836,0.0,2017-01-15 22:22:39,34.123339997753774
-0.50757074,0.81402856,10.390836,0.0,2017-01-15 22:22:40,32.133085280696974
-0.50757074,0.842759,10.390836,0.0,2017-01-15 22:22:41,33.45169647538549
-0.5267244,0.82360536,10.390836,0.0,2017-01-15 22:22:42,33.456591633046045
-0.50757074,0.81402856,10.381259,0.0,2017-01-15 22:22:43,33.635949414897716
-0.48841715,0.81402856,10.400413,0.0,2017-01-15 22:22:44,30.868968045023685
-0.50757074,0.81402856,10.362105,0.0,2017-01-15 22:22:45,31.211092721088253
-0.49799395,0.81402856,10.409989,0.0,2017-01-15 22:22:46,30.027773707468643
-0.50757074,0.81402856,10.390836,0.0,2017-01-15 22:22:47,29.32730536397394
-0.51714754,0.8331822,10.419566,0.0,2017-01-15 22:22:48,34.73182583568577
-0.49799395,0.79487497,10.371682,0.0,2017-01-15 22:22:50,36.24614008249
-0.50757074,0.81402856,10.390836,0.0,2017-01-15 22:22:51,35.23567641103861
-0.48841715,0.80445176,10.371682,0.0,2017-01-15 22:22:52,33.5421171593036
-0.50757074,0.81402856,10.381259,0.0,2017-01-15 22:22:53,31.218141750113105
-0.51714754,0.82360536,10.400413,0.0,2017-01-15 22:22:54,31.240362993101982
-0.5363012,0.8523358,10.409989,0.0,2017-01-15 22:22:55,31.373333378597916
-0.50757074,0.8331822,10.371682,0.0,2017-01-15 22:22:56,31.27019713686279
-0.49799395,0.842759,10.390836,0.0,2017-01-15 22:22:57,32.108825956905484
-0.5267244,0.842759,10.390836,0.0,2017-01-15 22:22:58,30.264962376039847
-0.50757074,0.82360536,10.371682,0.0,2017-01-15 22:22:59,38.8932499267458
-0.49799395,0.842759,10.381259,0.0,2017-01-15 22:23:00,35.60916411173563
-0.48841715,0.79487497,10.390836,0.0,2017-01-15 22:23:01,35.92205913016037
-0.48841715,0.81402856,10.362105,0.0,2017-01-15 22:23:02,35.34617778278124
-0.51714754,0.842759,10.409989,0.0,2017-01-15 22:23:03,31.864212561856103
-0.50757074,0.8619126,10.43872,0.0,2017-01-15 22:23:04,32.79964792082712
-0.47884035,0.80445176,10.390836,0.0,2017-01-15 22:23:05,30.536197730378525
-0.50757074,0.842759,10.419566,0.0,2017-01-15 22:23:06,28.93312606380664
-0.49799395,0.8619126,10.400413,0.0,2017-01-15 22:23:07,29.76772545508387
-0.49799395,0.80445176,10.371682,0.0,2017-01-15 22:23:08,31.322546851871095
-0.50757074,0.81402856,10.381259,0.0,2017-01-15 22:23:10,30.965113649131183
-0.5267244,0.8331822,10.419566,0.0,2017-01-15 22:23:11,32.13991470544729
-0.50757074,0.8331822,10.448297,0.0,2017-01-15 22:23:12,34.47582908554663
-0.50757074,0.8331822,10.390836,0.0,2017-01-15 22:23:13,33.49108075845347
-0.5267244,0.8714894,10.419566,0.0,2017-01-15 22:23:14,33.08244844146169
-0.50757074,0.81402856,10.352529,0.0,2017-01-15 22:23:15,32.96365549845573
-0.51714754,0.80445176,10.390836,0.0,2017-01-15 22:23:16,33.30875219678201
-0.48841715,0.80445176,10.381259,0.0,2017-01-15 22:23:17,34.093201160028656
-0.49799395,0.82360536,10.371682,0.0,2017-01-15 22:23:18,32.20177576138316
-0.50757074,0.82360536,10.362105,0.0,2017-01-15 22:23:19,35.140718598729876
-0.50757074,0.8331822,10.390836,0.0,2017-01-15 22:23:20,45.650637142353546
-0.50757074,0.81402856,10.400413,0.0,2017-01-15 22:23:21,32.159447386089454
-0.49799395,0.82360536,10.362105,0.0,2017-01-15 22:23:22,27.05045433818229
-0.49799395,0.8331822,10.371682,0.0,2017-01-15 22:23:23,27.322278517725064
-0.48841715,0.8331822,10.390836,0.0,2017-01-15 22:23:24,27.350946578345088
-0.49799395,0.82360536,10.390836,0.0,2017-01-15 22:23:25,26.60874367674388
-0.50757074,0.81402856,10.381259,0.0,2017-01-15 22:23:26,34.085764767466955
-0.50757074,0.80445176,10.371682,0.0,2017-01-15 22:23:27,30.233270654288663
-0.49799395,0.79487497,10.371682,0.0,2017-01-15 22:23:28,32.555400867876884
-0.50757074,0.8331822,10.381259,0.0,2017-01-15 22:23:29,26.035300302862005
-0.49799395,0.79487497,10.390836,0.0,2017-01-15 22:23:31,31.360493887424905
-0.49799395,0.7757214,10.352529,0.0,2017-01-15 22:23:32,39.38081237965946
-0.49799395,0.79487497,10.371682,0.0,2017-01-15 22:23:33,33.308676173929605
-0.51714754,0.81402856,10.362105,0.0,2017-01-15 22:23:34,51.270115082110095
-0.50757074,0.81402856,10.362105,0.0,2017-01-15 22:23:35,26.610550848533787
-0.49799395,0.82360536,10.409989,0.0,2017-01-15 22:23:36,25.763989451242388
-0.50757074,0.80445176,10.419566,0.0,2017-01-15 22:23:37,26.42714859900806
-0.50757074,0.81402856,10.390836,0.0,2017-01-15 22:23:38,25.856087592146103
-0.50757074,0.8331822,10.419566,0.0,2017-01-15 22:23:39,31.772009102808138
-0.49799395,0.82360536,10.381259,0.0,2017-01-15 22:23:40,39.5161372287799
-0.50757074,0.842759,10.419566,0.0,2017-01-15 22:23:41,33.539210371629345
-0.50757074,0.79487497,10.371682,0.0,2017-01-15 22:23:42,35.31796538374712
-0.47884035,0.79487497,10.371682,0.0,2017-01-15 22:23:43,48.93781174531955
-0.51714754,0.82360536,10.400413,0.0,2017-01-15 22:23:44,50.63249398653873
-0.47884035,0.78529817,10.362105,0.0,2017-01-15 22:23:45,29.65503026481297
-0.51714754,0.8523358,10.429143,0.0,2017-01-15 22:23:46,30.526650905803443
-0.50757074,0.82360536,10.381259,0.0,2017-01-15 22:23:47,27.34499798846756
-0.51714754,0.8331822,10.352529,0.0,2017-01-15 22:23:49,28.045121213498145
-0.50757074,0.79487497,10.362105,0.0,2017-01-15 22:23:50,46.4154958492139
-0.47884035,0.7757214,10.371682,0.0,2017-01-15 22:23:51,26.969485521352734
-0.51714754,0.8331822,10.362105,0.0,2017-01-15 22:23:52,28.531580491717868
-0.49799395,0.82360536,10.390836,0.0,2017-01-15 22:23:53,38.024519460773966
-0.50757074,0.79487497,10.352529,0.0,2017-01-15 22:23:54,35.24895290011382
-0.50757074,0.81402856,10.352529,0.0,2017-01-15 22:23:55,40.0257841868023
-0.51714754,0.8331822,10.381259,0.0,2017-01-15 22:23:56,31.440894419709792
-0.50757074,0.81402856,10.381259,0.0,2017-01-15 22:23:57,50.311833302678714
-0.49799395,0.80445176,10.390836,0.0,2017-01-15 22:23:58,34.065055845201
-0.51714754,0.82360536,10.400413,0.0,2017-01-15 22:23:59,50.076719404914925
-0.48841715,0.79487497,10.333375,0.0,2017-01-15 22:24:00,35.545542690097925
-0.49799395,0.82360536,10.400413,0.0,2017-01-15 22:24:01,33.62355221398141
-0.48841715,0.82360536,10.390836,0.0,2017-01-15 22:24:02,34.6554921237288
-0.49799395,0.842759,10.390836,0.0,2017-01-15 22:24:03,31.667473186262043
-0.49799395,0.80445176,10.390836,0.0,2017-01-15 22:24:04,28.921154817309834
-0.51714754,0.8331822,10.429143,0.0,2017-01-15 22:24:05,28.674638048848028
-0.50757074,0.79487497,10.371682,0.0,2017-01-15 22:24:06,32.984389079571
-0.51714754,0.81402856,10.362105,0.0,2017-01-15 22:24:07,33.61826367201608
-0.49799395,0.82360536,10.400413,0.0,2017-01-15 22:24:08,35.382645691041624
-0.49799395,0.82360536,10.381259,0.0,2017-01-15 22:24:10,32.46877715108032
-0.49799395,0.80445176,10.362105,0.0,2017-01-15 22:24:11,32.94217455198057
-0.50757074,0.81402856,10.371682,0.0,2017-01-15 22:24:12,31.38172390274549
-0.50757074,0.81402856,10.400413,0.0,2017-01-15 22:24:13,30.41602379020099
-0.49799395,0.82360536,10.371682,0.0,2017-01-15 22:24:14,31.410556722993235
-0.47884035,0.78529817,10.381259,0.0,2017-01-15 22:24:15,31.29950575887294
-0.49799395,0.81402856,10.400413,0.0,2017-01-15 22:24:16,31.52988347404726
-0.5363012,0.8523358,10.390836,0.0,2017-01-15 22:24:17,31.693768198183847
-0.48841715,0.81402856,10.409989,0.0,2017-01-15 22:24:18,33.15719819570547
-0.50757074,0.80445176,10.371682,0.0,2017-01-15 22:24:19,30.790749213633465
-0.49799395,0.842759,10.419566,0.0,2017-01-15 22:24:20,30.02264631095855
-0.48841715,0.79487497,10.409989,0.0,2017-01-15 22:24:21,29.049520983229545
-0.51714754,0.8619126,10.409989,0.0,2017-01-15 22:24:22,27.909928672033573
-0.50757074,0.82360536,10.400413,0.0,2017-01-15 22:24:23,26.562210190390985
-0.51714754,0.842759,10.371682,0.0,2017-01-15 22:24:24,36.22171589078621
-0.5363012,0.8619126,10.390836,0.0,2017-01-15 22:24:25,39.03535927685596
-0.51714754,0.82360536,10.419566,0.0,2017-01-15 22:24:26,34.988690040531395
-0.51714754,0.8619126,10.409989,0.0,2017-01-15 22:24:28,34.42719779780743
-0.50757074,0.78529817,10.362105,0.0,2017-01-15 22:24:29,27.114486827181107
-0.50757074,0.81402856,10.409989,0.0,2017-01-15 22:24:30,27.596536826821428
-0.48841715,0.8331822,10.371682,0.0,2017-01-15 22:24:31,27.911904663987627
-0.50757074,0.80445176,10.390836,0.0,2017-01-15 22:24:32,28.045312795691896
-0.48841715,0.82360536,10.419566,0.0,2017-01-15 22:24:33,29.19357612180388
-0.51714754,0.80445176,10.419566,0.0,2017-01-15 22:24:34,29.971432818573128
-0.50757074,0.80445176,10.381259,0.0,2017-01-15 22:24:35,28.953638349607836
-0.49799395,0.8523358,10.419566,0.0,2017-01-15 22:24:36,29.503739832280882
-0.5267244,0.8331822,10.304645,0.0,2017-01-15 22:24:37,31.112782699938577
-0.5363012,0.8619126,10.43872,0.0,2017-01-15 22:24:38,32.29687440508932
-0.5267244,0.8714894,10.43872,0.0,2017-01-15 22:24:39,39.81048767765752
-0.48841715,0.82360536,10.381259,0.0,2017-01-15 22:24:40,36.528172466152355
-0.51714754,0.80445176,10.409989,0.0,2017-01-15 22:24:41,38.991905169990844
-0.49799395,0.8523358,10.400413,0.0,2017-01-15 22:24:42,34.08014595377692
-0.50757074,0.8523358,10.419566,0.0,2017-01-15 22:24:43,34.36876438766519
-0.46926352,0.842759,10.419566,0.0,2017-01-15 22:24:44,33.845505315637176
-0.49799395,0.8331822,10.400413,0.0,2017-01-15 22:24:45,34.35106948072746
-0.50757074,0.79487497,10.371682,0.0,2017-01-15 22:24:46,32.613431761000015
-0.48841715,0.82360536,10.371682,0.0,2017-01-15 22:24:48,31.075734966769332
-0.48841715,0.79487497,10.371682,0.0,2017-01-15 22:24:49,29.36851333000196
-0.48841715,0.81402856,10.390836,0.0,2017-01-15 22:24:50,30.654174774939946
-0.50757074,0.8331822,10.400413,0.0,2017-01-15 22:24:51,30.803818117444738
-0.50757074,0.82360536,10.381259,0.0,2017-01-15 22:24:52,31.298791299022536
-0.50757074,0.80445176,10.400413,0.0,2017-01-15 22:24:53,31.169002463909802
-0.49799395,0.8523358,10.390836,0.0,2017-01-15 22:24:54,31.958408665343647
-0.49799395,0.80445176,10.333375,0.0,2017-01-15 22:24:55,35.006167791922216
-0.50757074,0.842759,10.400413,0.0,2017-01-15 22:24:56,31.3753509563476
-0.50757074,0.8523358,10.409989,0.0,2017-01-15 22:24:57,33.026832711137985
-0.48841715,0.81402856,10.390836,0.0,2017-01-15 22:24:58,47.01152432852286
-0.51714754,0.8331822,10.390836,0.0,2017-01-15 22:24:59,27.58538155150489
-0.50757074,0.8619126,10.409989,0.0,2017-01-15 22:25:00,28.16083798245348
-0.49799395,0.82360536,10.419566,0.0,2017-01-15 22:25:01,28.89266677345446
-0.50757074,0.81402856,10.381259,0.0,2017-01-15 22:25:02,28.118074219081688
-0.50757074,0.80445176,10.390836,0.0,2017-01-15 22:25:03,28.613663655276294
-0.49799395,0.82360536,10.400413,0.0,2017-01-15 22:25:04,28.131429708992886
-0.49799395,0.80445176,10.362105,0.0,2017-01-15 22:25:06,28.931789839827005
-0.49799395,0.8331822,10.457873,0.0,2017-01-15 22:25:07,27.586588270131923
-0.48841715,0.80445176,10.409989,0.0,2017-01-15 22:25:08,27.348248227970316
-0.49799395,0.81402856,10.400413,0.0,2017-01-15 22:25:09,27.457260376872842
-0.48841715,0.80445176,10.381259,0.0,2017-01-15 22:25:10,29.009096577487643
-0.50757074,0.842759,10.381259,0.0,2017-01-15 22:25:11,28.31897756270905
-0.50757074,0.8331822,10.448297,0.0,2017-01-15 22:25:12,29.594468626634416
-0.49799395,0.80445176,10.362105,0.0,2017-01-15 22:25:13,29.12653744319975
-0.50757074,0.842759,10.419566,0.0,2017-01-15 22:25:14,28.513844898869827
-0.51714754,0.81402856,10.390836,0.0,2017-01-15 22:25:15,28.03623529169815
-0.50757074,0.80445176,10.390836,0.0,2017-01-15 22:25:16,28.082763992211547
-0.48841715,0.81402856,10.381259,0.0,2017-01-15 22:25:17,28.26214548495043
-0.47884035,0.81402856,10.400413,0.0,2017-01-15 22:25:18,28.160278299238193
-0.47884035,0.80445176,10.381259,0.0,2017-01-15 22:25:19,28.01292206204746
-0.47884035,0.81402856,10.390836,0.0,2017-01-15 22:25:20,27.31367129824999
-0.51714754,0.842759,10.390836,0.0,2017-01-15 22:25:21,28.045993908387906
-0.49799395,0.82360536,10.390836,0.0,2017-01-15 22:25:22,26.763248742632754
-0.46926352,0.79487497,10.400413,0.0,2017-01-15 22:25:23,27.474190913866497
-0.50757074,0.82360536,10.409989,0.0,2017-01-15 22:25:24,39.59362371211315
-0.5267244,0.82360536,10.362105,0.0,2017-01-15 22:25:26,37.36920626351899
-0.5267244,0.842759,10.400413,0.0,2017-01-15 22:25:27,37.50802870846232
-0.5267244,0.8619126,10.342952,0.0,2017-01-15 22:25:28,31.854235079808475
-0.50757074,0.8331822,10.352529,0.0,2017-01-15 22:25:29,30.780998194180988
-0.49799395,0.81402856,10.390836,0.0,2017-01-15 22:25:30,32.351250538059034
-0.48841715,0.79487497,10.390836,0.0,2017-01-15 22:25:31,29.97943095299778
-0.48841715,0.78529817,10.362105,0.0,2017-01-15 22:25:32,31.51686758838491
-0.48841715,0.80445176,10.362105,0.0,2017-01-15 22:25:33,29.877570127147372
-0.49799395,0.81402856,10.381259,0.0,2017-01-15 22:25:34,30.23863078386477
-0.49799395,0.80445176,10.409989,0.0,2017-01-15 22:25:35,29.966566681556948
-0.48841715,0.8331822,10.390836,0.0,2017-01-15 22:25:36,29.24219501828756
-0.49799395,0.8331822,10.419566,0.0,2017-01-15 22:25:37,28.996632199658045
-0.50757074,0.81402856,10.381259,0.0,2017-01-15 22:25:38,28.09454494893529
-0.51714754,0.81402856,10.371682,0.0,2017-01-15 22:25:39,27.871127403502168
-0.51714754,0.8331822,10.419566,0.0,2017-01-15 22:25:40,27.454968714009578
-0.47884035,0.79487497,10.400413,0.0,2017-01-15 22:25:41,27.238531486712596
-0.5267244,0.8331822,10.371682,0.0,2017-01-15 22:25:42,28.06548797991232
-0.51714754,0.8331822,10.362105,0.0,2017-01-15 22:25:43,29.23214866023435
-0.51714754,0.8523358,10.400413,0.0,2017-01-15 22:25:45,28.84195104835868
-0.49799395,0.78529817,10.371682,0.0,2017-01-15 22:25:46,30.35334663318185
-0.50757074,0.81402856,10.390836,0.0,2017-01-15 22:25:47,29.91906896632877
-0.49799395,0.7757214,10.362105,0.0,2017-01-15 22:25:48,28.972782099770676
-0.49799395,0.80445176,10.390836,0.0,2017-01-15 22:25:49,28.785576979921874
-0.49799395,0.8523358,10.43872,0.0,2017-01-15 22:25:50,26.49353116224188
-0.49799395,0.80445176,10.400413,0.0,2017-01-15 22:25:51,26.966020844583454
-0.5363012,0.82360536,10.381259,0.0,2017-01-15 22:25:52,27.73400142293599
-0.51714754,0.8523358,10.400413,0.0,2017-01-15 22:25:53,27.321348149814142
-0.51714754,0.82360536,10.390836,0.0,2017-01-15 22:25:54,32.98692777980889
-0.46926352,0.8523358,10.381259,0.0,2017-01-15 22:25:55,28.842464868985687
-0.51714754,0.82360536,10.409989,0.0,2017-01-15 22:25:56,31.967071523124186
-0.49799395,0.82360536,10.390836,0.0,2017-01-15 22:25:57,41.42652118414199
-0.50757074,0.80445176,10.362105,0.0,2017-01-15 22:25:58,37.454239516613306
-0.50757074,0.81402856,10.400413,0.0,2017-01-15 22:25:59,30.60642369852976
-0.50757074,0.80445176,10.390836,0.0,2017-01-15 22:26:00,27.757969761937446
-0.50757074,0.80445176,10.381259,0.0,2017-01-15 22:26:01,28.31677849191467
-0.5267244,0.8523358,10.419566,0.0,2017-01-15 22:26:02,27.827256201624138
-0.51714754,0.8619126,10.419566,0.0,2017-01-15 22:26:03,28.425409857431923
-0.50757074,0.82360536,10.419566,0.0,2017-01-15 22:26:04,40.54003695844641
-0.51714754,0.8331822,10.419566,0.0,2017-01-15 22:26:06,37.417689063837464
-0.51714754,0.842759,10.419566,0.0,2017-01-15 22:26:07,39.15623389191942
-0.5267244,0.8619126,10.390836,0.0,2017-01-15 22:26:08,27.55312575732365
-0.51714754,0.842759,10.400413,0.0,2017-01-15 22:26:09,33.774195235773405
-0.51714754,0.81402856,10.371682,0.0,2017-01-15 22:26:10,46.73823229998053
-0.50757074,0.80445176,10.352529,0.0,2017-01-15 22:26:11,35.63369085867267
-0.5267244,0.81402856,10.400413,0.0,2017-01-15 22:26:12,46.709231268470134
-0.5267244,0.842759,10.419566,0.0,2017-01-15 22:26:13,27.27370941975802
-0.5267244,0.82360536,10.419566,0.0,2017-01-15 22:26:14,27.0077400314375
-0.50757074,0.8331822,10.400413,0.0,2017-01-15 22:26:15,27.54066296808285
-0.5267244,0.81402856,10.400413,0.0,2017-01-15 22:26:16,27.567501811306006
-0.49799395,0.8331822,10.390836,0.0,2017-01-15 22:26:17,27.584269180517605
-0.5746084,0.80445176,10.390836,0.0,2017-01-15 22:26:18,27.04051265777268
-0.545878,0.842759,10.390836,0.0,2017-01-15 22:26:19,27.5284999947323
-0.5267244,0.8331822,10.419566,0.0,2017-01-15 22:26:20,31.094910127290074
-0.5267244,0.8331822,10.419566,0.0,2017-01-15 22:26:21,28.779811042397455
-0.50757074,0.8331822,10.409989,0.0,2017-01-15 22:26:22,57.055066965927
-0.51714754,0.8331822,10.371682,0.0,2017-01-15 22:26:23,53.940530590232115
-0.51714754,0.8523358,10.381259,0.0,2017-01-15 22:26:24,54.29056200460967
-0.50757074,0.82360536,10.400413,0.0,2017-01-15 22:26:25,28.26030236614832
-0.49799395,0.82360536,10.409989,0.0,2017-01-15 22:26:26,26.804035082713526
-0.5363012,0.8523358,10.390836,0.0,2017-01-15 22:26:28,28.36112377193201
-0.51714754,0.82360536,10.381259,0.0,2017-01-15 22:26:29,29.071509344528348
-0.5267244,0.80445176,10.400413,0.0,2017-01-15 22:26:30,28.479387865140424
-0.50757074,0.82360536,10.409989,0.0,2017-01-15 22:26:31,27.251916335181733
-0.49799395,0.81402856,10.409989,0.0,2017-01-15 22:26:32,27.031838661780444
-0.5267244,0.842759,10.409989,0.0,2017-01-15 22:26:33,26.65478385034273
-0.51714754,0.8331822,10.429143,0.0,2017-01-15 22:26:34,27.435465096609963
-0.49799395,0.81402856,10.371682,0.0,2017-01-15 22:26:35,26.71083127099552
-0.48841715,0.82360536,10.43872,0.0,2017-01-15 22:26:36,27.919624365134993
-0.47884035,0.8331822,10.390836,0.0,2017-01-15 22:26:37,27.687120803776637
-0.50757074,0.8331822,10.409989,0.0,2017-01-15 22:26:38,28.794847488715337
-0.49799395,0.8523358,10.419566,0.0,2017-01-15 22:26:39,29.22030913823892
-0.49799395,0.80445176,10.371682,0.0,2017-01-15 22:26:40,29.229686103885616
-0.50757074,0.81402856,10.409989,0.0,2017-01-15 22:26:41,29.005838803727148
-0.48841715,0.81402856,10.390836,0.0,2017-01-15 22:26:42,31.956021833162808
-0.5363012,0.80445176,10.409989,0.0,2017-01-15 22:26:43,39.50588912240268
-0.48841715,0.82360536,10.409989,0.0,2017-01-15 22:26:44,38.13252308107194
-0.49799395,0.82360536,10.400413,0.0,2017-01-15 22:26:45,50.19563212294319
-0.49799395,0.82360536,10.381259,0.0,2017-01-15 22:26:47,51.171980230012934
-0.48841715,0.79487497,10.371682,0.0,2017-01-15 22:26:48,52.282232728460315
-0.48841715,0.80445176,10.371682,0.0,2017-01-15 22:26:49,43.327967312928806
-0.50757074,0.82360536,10.381259,0.0,2017-01-15 22:26:50,30.8240048130429
-0.49799395,0.82360536,10.371682,0.0,2017-01-15 22:26:51,28.12332517120455
-0.50757074,0.82360536,10.43872,0.0,2017-01-15 22:26:52,31.230375967941026
-0.50757074,0.79487497,10.390836,0.0,2017-01-15 22:26:53,43.49427731432809
-0.50757074,0.81402856,10.381259,0.0,2017-01-15 22:26:54,35.15890808008547
-0.48841715,0.81402856,10.381259,0.0,2017-01-15 22:26:55,43.007893026919675
-0.48841715,0.80445176,10.381259,0.0,2017-01-15 22:26:56,28.99876905084838
-0.48841715,0.80445176,10.400413,0.0,2017-01-15 22:26:57,28.27403604872909
-0.5267244,0.8714894,10.400413,0.0,2017-01-15 22:26:58,29.869256129073012
-0.48841715,0.78529817,10.371682,0.0,2017-01-15 22:26:59,30.0598173720627
-0.50757074,0.842759,10.409989,0.0,2017-01-15 22:27:00,30.55928735520026
-0.48841715,0.81402856,10.362105,0.0,2017-01-15 22:27:01,28.30879250456963
-0.50757074,0.842759,10.429143,0.0,2017-01-15 22:27:02,28.328141687098327
-0.48841715,0.8331822,10.381259,0.0,2017-01-15 22:27:03,27.39107345131252
-0.50757074,0.82360536,10.400413,0.0,2017-01-15 22:27:04,27.80105695079058
-0.5267244,0.842759,10.371682,0.0,2017-01-15 22:27:06,27.401430191246703
-0.48841715,0.81402856,10.390836,0.0,2017-01-15 22:27:07,27.42970481563697
-0.50757074,0.82360536,10.390836,0.0,2017-01-15 22:27:08,28.55615680063268
-0.48841715,0.80445176,10.362105,0.0,2017-01-15 22:27:09,29.601823016486613
-0.48841715,0.80445176,10.419566,0.0,2017-01-15 22:27:10,37.75688708610591
-0.47884035,0.82360536,10.400413,0.0,2017-01-15 22:27:11,34.36167618331922
-0.5267244,0.8619126,10.390836,0.0,2017-01-15 22:27:12,35.55138677223036
-0.49799395,0.8331822,10.371682,0.0,2017-01-15 22:27:13,45.46079899561599
-0.51714754,0.842759,10.448297,0.0,2017-01-15 22:27:14,49.19815798797502
-0.49799395,0.8523358,10.46745,0.0,2017-01-15 22:27:15,43.855247240257
-0.50757074,0.80445176,10.381259,0.0,2017-01-15 22:27:16,29.916192001109103
-0.49799395,0.82360536,10.400413,0.0,2017-01-15 22:27:17,29.53087379885243
-0.50757074,0.8331822,10.390836,0.0,2017-01-15 22:27:18,28.00194941160774
-0.49799395,0.78529817,10.342952,0.0,2017-01-15 22:27:19,29.003790784188496
-0.48841715,0.79487497,10.390836,0.0,2017-01-15 22:27:20,29.190748220739877
-0.49799395,0.81402856,10.362105,0.0,2017-01-15 22:27:21,31.250734148716294
-0.50757074,0.81402856,10.381259,0.0,2017-01-15 22:27:22,30.648263748660995
-0.51714754,0.81402856,10.390836,0.0,2017-01-15 22:27:23,31.71237231348192
-0.50757074,0.8331822,10.429143,0.0,2017-01-15 22:27:24,29.877821395193052
-0.47884035,0.7757214,10.390836,0.0,2017-01-15 22:27:25,30.419573941990393
-0.49799395,0.842759,10.419566,0.0,2017-01-15 22:27:27,28.08816317352492
-0.48841715,0.79487497,10.409989,0.0,2017-01-15 22:27:28,29.72124700013453
-0.46926352,0.79487497,10.371682,0.0,2017-01-15 22:27:29,40.339221038579325
-0.50757074,0.81402856,10.371682,0.0,2017-01-15 22:27:30,34.657387303976
-0.45968673,0.7757214,10.400413,0.0,2017-01-15 22:27:31,37.32958126589232
-0.49799395,0.8331822,10.352529,0.0,2017-01-15 22:27:32,32.3163124201007
-0.47884035,0.80445176,10.390836,0.0,2017-01-15 22:27:33,39.87686649927002
-0.49799395,0.79487497,10.362105,0.0,2017-01-15 22:27:34,27.38213049187367
-0.48841715,0.80445176,10.400413,0.0,2017-01-15 22:27:35,27.436395829117014
-0.48841715,0.8331822,10.371682,0.0,2017-01-15 22:27:36,27.161025101385277
-0.48841715,0.80445176,10.371682,0.0,2017-01-15 22:27:37,28.003002786110827
-0.47884035,0.79487497,10.390836,0.0,2017-01-15 22:27:38,28.68633419281375
-0.47884035,0.78529817,10.381259,0.0,2017-01-15 22:27:39,27.92805210594713
-0.48841715,0.82360536,10.371682,0.0,2017-01-15 22:27:40,27.742066445421393
-0.47884035,0.80445176,10.371682,0.0,2017-01-15 22:27:41,26.748955707537043
-0.48841715,0.82360536,10.390836,0.0,2017-01-15 22:27:42,26.366101185067578
-0.46926352,0.80445176,10.371682,0.0,2017-01-15 22:27:43,26.55858458986096
-0.48841715,0.78529817,10.352529,0.0,2017-01-15 22:27:44,27.04555333464431
-0.48841715,0.82360536,10.362105,0.0,2017-01-15 22:27:45,28.800826055545624
-0.49799395,0.82360536,10.390836,0.0,2017-01-15 22:27:47,33.29724494457851
-0.47884035,0.79487497,10.390836,0.0,2017-01-15 22:27:48,32.497844122610516
-0.47884035,0.79487497,10.390836,0.0,2017-01-15 22:27:49,36.68265909951084
-0.49799395,0.79487497,10.352529,0.0,2017-01-15 22:27:50,32.61530502087767
-0.47884035,0.7757214,10.371682,0.0,2017-01-15 22:27:51,34.484000033845305
-0.48841715,0.79487497,10.371682,0.0,2017-01-15 22:27:52,30.51246609392743
-0.46926352,0.81402856,10.409989,0.0,2017-01-15 22:27:53,31.324197980976148
-0.45010993,0.7469909,10.371682,0.0,2017-01-15 22:27:54,34.30667027496274
-0.46926352,0.79487497,10.333375,0.0,2017-01-15 22:27:55,35.441618728429376
-0.46926352,0.7661445,10.314221,0.0,2017-01-15 22:27:56,34.138176950376355
-0.47884035,0.78529817,10.371682,0.0,2017-01-15 22:27:57,33.94678728585396
-0.48841715,0.80445176,10.362105,0.0,2017-01-15 22:27:58,31.14622450188967
-0.45968673,0.78529817,10.304645,0.0,2017-01-15 22:27:59,30.218673546048684
-0.45968673,0.7565677,10.371682,0.0,2017-01-15 22:28:00,29.428246890073794
-0.47884035,0.81402856,10.342952,0.0,2017-01-15 22:28:01,29.6624149163463
-0.47884035,0.78529817,10.362105,0.0,2017-01-15 22:28:02,29.970230460455618
-0.46926352,0.7757214,10.381259,0.0,2017-01-15 22:28:03,29.742295169198655
-0.46926352,0.8331822,10.371682,0.0,2017-01-15 22:28:04,30.400606175361414
-0.46926352,0.7757214,10.352529,0.0,2017-01-15 22:28:05,30.148656006507863
-0.45968673,0.78529817,10.362105,0.0,2017-01-15 22:28:07,29.453531641616493
-0.50757074,0.81402856,10.390836,0.0,2017-01-15 22:28:08,28.655795569257428
-0.47884035,0.81402856,10.362105,0.0,2017-01-15 22:28:09,27.358757340548937
-0.47884035,0.79487497,10.352529,0.0,2017-01-15 22:28:10,28.025791896133963
-0.48841715,0.80445176,10.390836,0.0,2017-01-15 22:28:11,27.487039298626136
-0.45968673,0.7757214,10.352529,0.0,2017-01-15 22:28:12,28.322753367880438
-0.46926352,0.80445176,10.362105,0.0,2017-01-15 22:28:13,27.84231586999434
-0.46926352,0.81402856,10.400413,0.0,2017-01-15 22:28:14,27.96060212166225
-0.46926352,0.80445176,10.400413,0.0,2017-01-15 22:28:15,27.05885084517968
-0.5363012,0.8331822,10.266336,0.0,2017-01-15 22:28:16,31.729019894048974
-0.47884035,0.80445176,10.419566,0.0,2017-01-15 22:28:17,28.790187810836805
-0.47884035,0.8331822,10.409989,0.0,2017-01-15 22:28:18,31.95011830462039
-0.48841715,0.78529817,10.381259,0.0,2017-01-15 22:28:19,32.118385965150324
-0.48841715,0.82360536,10.362105,0.0,2017-01-15 22:28:20,31.130550639393636
-0.49799395,0.80445176,10.409989,0.0,2017-01-15 22:28:21,29.679821121384546
-0.47884035,0.80445176,10.390836,0.0,2017-01-15 22:28:22,28.366800786006042
-0.48841715,0.82360536,10.381259,0.0,2017-01-15 22:28:23,27.323635994366995
-0.47884035,0.80445176,10.400413,0.0,2017-01-15 22:28:24,26.451028177113688
-0.46926352,0.8331822,10.400413,0.0,2017-01-15 22:28:25,27.216483425354383
-0.47884035,0.81402856,10.400413,0.0,2017-01-15 22:28:26,30.617798672293777
-0.47884035,0.82360536,10.390836,0.0,2017-01-15 22:28:28,29.64356875809024
-0.48841715,0.80445176,10.371682,0.0,2017-01-15 22:28:29,31.63007547536627
-0.47884035,0.8331822,10.409989,0.0,2017-01-15 22:28:30,32.28822063798657
-0.47884035,0.79487497,10.409989,0.0,2017-01-15 22:28:31,31.785327187807347
-0.47884035,0.78529817,10.362105,0.0,2017-01-15 22:28:32,30.725864740876712
-0.46926352,0.80445176,10.362105,0.0,2017-01-15 22:28:33,30.584841511111303
-0.45968673,0.82360536,10.362105,0.0,2017-01-15 22:28:34,28.711568292556993
-0.48841715,0.842759,10.429143,0.0,2017-01-15 22:28:35,27.821477672410634
-0.47884035,0.80445176,10.390836,0.0,2017-01-15 22:28:36,31.42001110550156
-0.46926352,0.78529817,10.371682,0.0,2017-01-15 22:28:37,33.167361105402335
-0.46926352,0.7757214,10.362105,0.0,2017-01-15 22:28:38,30.962145853464055
-0.48841715,0.82360536,10.390836,0.0,2017-01-15 22:28:39,32.708963655216536
-0.49799395,0.82360536,10.390836,0.0,2017-01-15 22:28:40,31.949589885214756
-0.49799395,0.81402856,10.409989,0.0,2017-01-15 22:28:41,32.49407043852625
-0.48841715,0.82360536,10.419566,0.0,2017-01-15 22:28:42,31.73044152168884
-0.51714754,0.842759,10.419566,0.0,2017-01-15 22:28:43,30.58843414668761
-0.48841715,0.80445176,10.390836,0.0,2017-01-15 22:28:44,30.641888117230167
-0.47884035,0.79487497,10.390836,0.0,2017-01-15 22:28:45,30.72248748441583
-0.47884035,0.80445176,10.371682,0.0,2017-01-15 22:28:46,32.276834830651296
-0.48841715,0.81402856,10.400413,0.0,2017-01-15 22:28:47,29.710176776734684
-0.48841715,0.80445176,10.381259,0.0,2017-01-15 22:28:48,30.49593505644276
-0.49799395,0.842759,10.390836,0.0,2017-01-15 22:28:50,27.918046451292145
-0.46926352,0.79487497,10.371682,0.0,2017-01-15 22:28:51,28.529638830147725
-0.47884035,0.81402856,10.342952,0.0,2017-01-15 22:28:52,28.45289940261336
-0.48841715,0.80445176,10.352529,0.0,2017-01-15 22:28:53,27.478097934923987
-0.48841715,0.81402856,10.400413,0.0,2017-01-15 22:28:54,27.007280482010977
-0.48841715,0.842759,10.400413,0.0,2017-01-15 22:28:55,27.807042595818437
-0.48841715,0.80445176,10.371682,0.0,2017-01-15 22:28:56,27.485489811939324
-0.49799395,0.80445176,10.390836,0.0,2017-01-15 22:28:57,27.75241705453753
-0.49799395,0.842759,10.409989,0.0,2017-01-15 22:28:58,27.54833110052924
-0.49799395,0.81402856,10.400413,0.0,2017-01-15 22:28:59,29.506720869241747
-0.47884035,0.82360536,10.419566,0.0,2017-01-15 22:29:00,26.10031018439114
-0.46926352,0.78529817,10.352529,0.0,2017-01-15 22:29:01,27.584340191434297
-0.47884035,0.81402856,10.409989,0.0,2017-01-15 22:29:02,26.48603928135281
-0.47884035,0.80445176,10.371682,0.0,2017-01-15 22:29:03,26.942156946698898
-0.47884035,0.82360536,10.419566,0.0,2017-01-15 22:29:04,28.0783722095547
-0.47884035,0.82360536,10.362105,0.0,2017-01-15 22:29:05,28.87905515458818
-0.45968673,0.81402856,10.371682,0.0,2017-01-15 22:29:06,28.288954245269768
-0.48841715,0.82360536,10.352529,0.0,2017-01-15 22:29:07,30.053682227579035
-0.47884035,0.80445176,10.409989,0.0,2017-01-15 22:29:08,28.475803702682903
-0.49799395,0.81402856,10.409989,0.0,2017-01-15 22:29:10,28.413829367417172
-0.50757074,0.8331822,10.400413,0.0,2017-01-15 22:29:11,26.324541286061717
-0.47884035,0.80445176,10.419566,0.0,2017-01-15 22:29:12,24.973918772202186
-0.47884035,0.80445176,10.362105,0.0,2017-01-15 22:29:13,25.437965254405857
-0.48841715,0.81402856,10.419566,0.0,2017-01-15 22:29:14,26.259198581778897
-0.48841715,0.82360536,10.400413,0.0,2017-01-15 22:29:15,26.384018900820045
-0.50757074,0.82360536,10.409989,0.0,2017-01-15 22:29:16,26.226575489780807
-0.48841715,0.79487497,10.381259,0.0,2017-01-15 22:29:17,35.219030661671816
-0.48841715,0.78529817,10.362105,0.0,2017-01-15 22:29:18,38.035755318131464
-0.49799395,0.80445176,10.371682,0.0,2017-01-15 22:29:19,32.45620611123361
-0.48841715,0.80445176,10.381259,0.0,2017-01-15 22:29:20,27.416464007614564
-0.47884035,0.8331822,10.390836,0.0,2017-01-15 22:29:21,34.32400008177615
-0.47884035,0.79487497,10.390836,0.0,2017-01-15 22:29:22,30.651897762976166
-0.50757074,0.8523358,10.419566,0.0,2017-01-15 22:29:23,33.557124590258425
-0.49799395,0.82360536,10.400413,0.0,2017-01-15 22:29:24,28.16344888419681
-0.49799395,0.82360536,10.390836,0.0,2017-01-15 22:29:25,28.773641459678863
-0.47884035,0.78529817,10.409989,0.0,2017-01-15 22:29:26,26.1618658834034
-0.46926352,0.79487497,10.390836,0.0,2017-01-15 22:29:27,26.595745458499906
-0.47884035,0.82360536,10.429143,0.0,2017-01-15 22:29:28,26.5324568778122
-0.49799395,0.82360536,10.400413,0.0,2017-01-15 22:29:29,26.86622306380883
-0.48841715,0.82360536,10.419566,0.0,2017-01-15 22:29:31,26.69142476782802
-0.50757074,0.842759,10.409989,0.0,2017-01-15 22:29:32,26.237530898801538
-0.48841715,0.81402856,10.362105,0.0,2017-01-15 22:29:33,35.796685790659744
-0.47884035,0.842759,10.409989,0.0,2017-01-15 22:29:34,35.79422367712428
-0.47884035,0.79487497,10.390836,0.0,2017-01-15 22:29:35,34.048636374531235
-0.48841715,0.79487497,10.400413,0.0,2017-01-15 22:29:36,47.498623547288275
-0.49799395,0.80445176,10.371682,0.0,2017-01-15 22:29:37,44.46283910124439
-0.49799395,0.81402856,10.381259,0.0,2017-01-15 22:29:38,44.931943357201774
-0.48841715,0.79487497,10.400413,0.0,2017-01-15 22:29:39,30.92927788473345
-0.49799395,0.82360536,10.429143,0.0,2017-01-15 22:29:40,32.6751272107812
-0.47884035,0.81402856,10.409989,0.0,2017-01-15 22:29:41,30.49570501508073
-0.47884035,0.81402856,10.390836,0.0,2017-01-15 22:29:42,31.071961856687153
-0.45968673,0.80445176,10.390836,0.0,2017-01-15 22:29:43,27.989332074053635
-0.50757074,0.82360536,10.381259,0.0,2017-01-15 22:29:44,29.046496254068558
-0.48841715,0.8523358,10.381259,0.0,2017-01-15 22:29:45,29.493961062436785
-0.47884035,0.81402856,10.409989,0.0,2017-01-15 22:29:46,29.69826364269528
-0.47884035,0.8331822,10.409989,0.0,2017-01-15 22:29:47,30.037203094191423
-0.48841715,0.8331822,10.390836,0.0,2017-01-15 22:29:48,27.861811250608838
-0.47884035,0.80445176,10.390836,0.0,2017-01-15 22:29:49,27.87188069461643
-0.48841715,0.80445176,10.381259,0.0,2017-01-15 22:29:51,27.251277462009618
-0.49799395,0.842759,10.43872,0.0,2017-01-15 22:29:52,27.31364610591267
-0.48841715,0.82360536,10.390836,0.0,2017-01-15 22:29:53,27.144528832212494
-0.47884035,0.81402856,10.381259,0.0,2017-01-15 22:29:54,27.14240669934885
-0.48841715,0.81402856,10.390836,0.0,2017-01-15 22:29:55,27.611993336670917
-0.49799395,0.82360536,10.400413,0.0,2017-01-15 22:29:56,33.734103045370944
-0.48841715,0.81402856,10.400413,0.0,2017-01-15 22:29:57,31.4557220974916
-0.49799395,0.81402856,10.400413,0.0,2017-01-15 22:29:58,36.42296309853216
-0.50757074,0.8331822,10.400413,0.0,2017-01-15 22:29:59,42.87224689302981
-0.45968673,0.7661445,10.362105,0.0,2017-01-15 22:30:00,32.834899191955934
-0.45968673,0.7757214,10.362105,0.0,2017-01-15 22:30:01,29.811047634637635
-0.45968673,0.7757214,10.381259,0.0,2017-01-15 22:30:02,30.715184095499204
-0.45968673,0.7661445,10.352529,0.0,2017-01-15 22:30:03,30.20664209265287
-0.46926352,0.78529817,10.333375,0.0,2017-01-15 22:30:04,30.699385219337458
-0.47884035,0.7757214,10.323798,0.0,2017-01-15 22:30:05,37.31713637111756
-0.46926352,0.79487497,10.342952,0.0,2017-01-15 22:30:06,33.39642086535334
-0.47884035,0.7757214,10.333375,0.0,2017-01-15 22:30:07,35.35314299073397
-0.47884035,0.7757214,10.342952,0.0,2017-01-15 22:30:08,35.6091193505681
-0.47884035,0.80445176,10.362105,0.0,2017-01-15 22:30:09,30.982888782249397
-0.47884035,0.79487497,10.371682,0.0,2017-01-15 22:30:10,33.13180846116175
-0.47884035,0.7661445,10.352529,0.0,2017-01-15 22:30:12,28.717589593639936
-0.47884035,0.8331822,10.362105,0.0,2017-01-15 22:30:13,30.6634339930564
-0.47884035,0.80445176,10.371682,0.0,2017-01-15 22:30:14,35.42390448068996
-0.46926352,0.78529817,10.381259,0.0,2017-01-15 22:30:15,43.94966552956809
-0.45010993,0.81402856,10.381259,0.0,2017-01-15 22:30:16,35.33586191911829
-0.46926352,0.7469909,10.333375,0.0,2017-01-15 22:30:17,26.509294934343075
-0.49799395,0.80445176,10.362105,0.0,2017-01-15 22:30:18,32.04958920930022
-0.46926352,0.7661445,10.381259,0.0,2017-01-15 22:30:19,43.66840647993648
-0.47884035,0.78529817,10.362105,0.0,2017-01-15 22:30:20,38.03617983079663
-0.47884035,0.79487497,10.371682,0.0,2017-01-15 22:30:21,40.86917803029482
-0.46926352,0.78529817,10.352529,0.0,2017-01-15 22:30:22,36.295226819003645
-0.48841715,0.78529817,10.381259,0.0,2017-01-15 22:30:23,36.95451576913266
-0.47884035,0.79487497,10.333375,0.0,2017-01-15 22:30:24,34.7399441483383
-0.47884035,0.7757214,10.352529,0.0,2017-01-15 22:30:25,26.790302170273527
-0.46926352,0.7757214,10.333375,0.0,2017-01-15 22:30:26,26.54465333520146
-0.46926352,0.79487497,10.352529,0.0,2017-01-15 22:30:27,27.438232216037505
-0.47884035,0.79487497,10.371682,0.0,2017-01-15 22:30:28,27.055750841362084
-0.46926352,0.81402856,10.381259,0.0,2017-01-15 22:30:29,26.676688789857693
-0.48841715,0.79487497,10.371682,0.0,2017-01-15 22:30:30,28.410053667446373
-0.49799395,0.82360536,10.400413,0.0,2017-01-15 22:30:32,29.738044675865073
-0.46926352,0.8331822,10.400413,0.0,2017-01-15 22:30:33,34.837535129422605
-0.47884035,0.82360536,10.371682,0.0,2017-01-15 22:30:34,29.427379846302966
-0.48841715,0.78529817,10.342952,0.0,2017-01-15 22:30:35,28.74414769400669
-0.49799395,0.82360536,10.381259,0.0,2017-01-15 22:30:36,29.102607845068018
-0.48841715,0.78529817,10.362105,0.0,2017-01-15 22:30:37,29.842656452375373
-0.47884035,0.80445176,10.390836,0.0,2017-01-15 22:30:38,29.717309002762413
-0.47884035,0.79487497,10.371682,0.0,2017-01-15 22:30:39,28.70263044014883
-0.49799395,0.842759,10.400413,0.0,2017-01-15 22:30:40,27.030171700540755
-0.48841715,0.82360536,10.390836,0.0,2017-01-15 22:30:41,26.1378237969491
-0.47884035,0.82360536,10.400413,0.0,2017-01-15 22:30:42,25.50801427009244
-0.46926352,0.81402856,10.381259,0.0,2017-01-15 22:30:43,26.759529634949413
-0.50757074,0.8331822,10.390836,0.0,2017-01-15 22:30:44,26.49003046880759
-0.47884035,0.8331822,10.419566,0.0,2017-01-15 22:30:45,27.470985017658954
-0.49799395,0.8331822,10.419566,0.0,2017-01-15 22:30:46,27.75332782110422
-0.47884035,0.8331822,10.409989,0.0,2017-01-15 22:30:47,27.64353626131305
-0.49799395,0.8331822,10.419566,0.0,2017-01-15 22:30:48,27.67141946164171
-0.48841715,0.82360536,10.43872,0.0,2017-01-15 22:30:49,26.87762989116269
-0.48841715,0.79487497,10.419566,0.0,2017-01-15 22:30:50,26.54675789760173
-0.48841715,0.82360536,10.419566,0.0,2017-01-15 22:30:52,26.27701818303258
-0.47884035,0.81402856,10.400413,0.0,2017-01-15 22:30:53,26.795300982451685
-0.47884035,0.80445176,10.371682,0.0,2017-01-15 22:30:54,27.30105686402611
-0.46926352,0.80445176,10.409989,0.0,2017-01-15 22:30:55,28.0511626253895
-0.48841715,0.82360536,10.381259,0.0,2017-01-15 22:30:56,29.361334426828435
-0.46926352,0.82360536,10.429143,0.0,2017-01-15 22:30:57,28.920493613255868
-0.51714754,0.842759,10.419566,0.0,2017-01-15 22:30:58,27.81699289615663
-0.50757074,0.8810662,10.43872,0.0,2017-01-15 22:30:59,26.123334399272437
-0.50757074,0.8523358,10.390836,0.0,2017-01-15 22:31:00,25.985203561323956
-0.50757074,0.842759,10.477027,0.0,2017-01-15 22:31:01,25.430664619384494
-0.50757074,0.842759,10.409989,0.0,2017-01-15 22:31:02,27.19149947759921
-0.47884035,0.81402856,10.371682,0.0,2017-01-15 22:31:03,25.458789939024243
-0.48841715,0.82360536,10.371682,0.0,2017-01-15 22:31:04,25.75847880767143
-0.50757074,0.80445176,10.409989,0.0,2017-01-15 22:31:05,26.74995976045579
-0.49799395,0.8331822,10.419566,0.0,2017-01-15 22:31:06,26.907275438703667
-0.50757074,0.8523358,10.43872,0.0,2017-01-15 22:31:07,26.69540596189737
-0.50757074,0.82360536,10.400413,0.0,2017-01-15 22:31:08,25.65903134590365
-0.49799395,0.81402856,10.400413,0.0,2017-01-15 22:31:09,25.57089699632632
-0.47884035,0.78529817,10.390836,0.0,2017-01-15 22:31:10,25.834715397545484
-0.50757074,0.81402856,10.342952,0.0,2017-01-15 22:31:12,25.85598187337299
-0.47884035,0.81402856,10.352529,0.0,2017-01-15 22:31:13,26.98923858095754
-0.49799395,0.81402856,10.43872,0.0,2017-01-15 22:31:14,26.10234175334389
-0.48841715,0.80445176,10.390836,0.0,2017-01-15 22:31:15,26.71074443959575
-0.48841715,0.80445176,10.390836,0.0,2017-01-15 22:31:16,26.602012013806817
-0.48841715,0.81402856,10.390836,0.0,2017-01-15 22:31:17,27.166501275903787
-0.49799395,0.8331822,10.419566,0.0,2017-01-15 22:31:18,28.91141799130141
-0.45968673,0.81402856,10.352529,0.0,2017-01-15 22:31:19,28.488066233850226
-0.47884035,0.80445176,10.400413,0.0,2017-01-15 22:31:20,29.78525737423993
-0.50757074,0.8331822,10.390836,0.0,2017-01-15 22:31:21,29.079283900664862
-0.48841715,0.81402856,10.381259,0.0,2017-01-15 22:31:22,27.353768058740364
-0.48841715,0.80445176,10.381259,0.0,2017-01-15 22:31:23,27.093998269917883
-0.46926352,0.7757214,10.362105,0.0,2017-01-15 22:31:24,25.505570079412387
-0.49799395,0.8331822,10.429143,0.0,2017-01-15 22:31:25,27.23442844149556
-0.48841715,0.79487497,10.390836,0.0,2017-01-15 22:31:26,26.20789738368255
-0.48841715,0.82360536,10.371682,0.0,2017-01-15 22:31:27,27.45157776078984
-0.47884035,0.79487497,10.362105,0.0,2017-01-15 22:31:28,26.662312421998703
-0.48841715,0.8331822,10.409989,0.0,2017-01-15 22:31:29,32.35892047848383
-0.47884035,0.81402856,10.429143,0.0,2017-01-15 22:31:30,30.114779294424473
-0.49799395,0.82360536,10.390836,0.0,2017-01-15 22:31:31,32.03812814283897
-0.49799395,0.82360536,10.400413,0.0,2017-01-15 22:31:32,28.604821234973375
-0.51714754,0.8714894,10.409989,0.0,2017-01-15 22:31:33,29.05709889640334
-0.49799395,0.82360536,10.419566,0.0,2017-01-15 22:31:35,28.352485232889563
-0.48841715,0.81402856,10.390836,0.0,2017-01-15 22:31:36,29.845807530296057
-0.49799395,0.8331822,10.390836,0.0,2017-01-15 22:31:37,30.56096941179703
-0.47884035,0.82360536,10.409989,0.0,2017-01-15 22:31:38,30.349115780578696
-0.50757074,0.8331822,10.409989,0.0,2017-01-15 22:31:39,29.579258882100802
-0.48841715,0.8331822,10.409989,0.0,2017-01-15 22:31:40,29.778678699523677
-0.48841715,0.842759,10.419566,0.0,2017-01-15 22:31:41,28.061205937258997
-0.50757074,0.81402856,10.419566,0.0,2017-01-15 22:31:42,27.05382558749491
-0.49799395,0.8331822,10.381259,0.0,2017-01-15 22:31:43,29.622479577929735
-0.47884035,0.79487497,10.352529,0.0,2017-01-15 22:31:44,30.288278701127666
-0.51714754,0.842759,10.381259,0.0,2017-01-15 22:31:45,32.14964652498997
-0.49799395,0.82360536,10.371682,0.0,2017-01-15 22:31:46,27.771185742001666
-0.49799395,0.8331822,10.409989,0.0,2017-01-15 22:31:47,30.32662822584832
-0.47884035,0.81402856,10.390836,0.0,2017-01-15 22:31:48,26.89930104018218
-0.47884035,0.81402856,10.409989,0.0,2017-01-15 22:31:49,27.34384732083223
-0.49799395,0.82360536,10.371682,0.0,2017-01-15 22:31:50,26.963891561954835
-0.51714754,0.82360536,10.381259,0.0,2017-01-15 22:31:51,27.944074367717327
-0.49799395,0.81402856,10.390836,0.0,2017-01-15 22:31:52,27.009334561136228
-0.51714754,0.842759,10.371682,0.0,2017-01-15 22:31:53,28.171830453144725
-0.48841715,0.82360536,10.371682,0.0,2017-01-15 22:31:54,28.641679448586387
-0.47884035,0.81402856,10.381259,0.0,2017-01-15 22:31:56,27.996398854234453
-0.49799395,0.80445176,10.371682,0.0,2017-01-15 22:31:57,28.558862125453608
-0.46926352,0.80445176,10.371682,0.0,2017-01-15 22:31:58,27.954585472505713
-0.45968673,0.79487497,10.352529,0.0,2017-01-15 22:31:59,27.5605815402017
-0.48841715,0.7757214,10.342952,0.0,2017-01-15 22:32:00,26.945668126238793
-0.47884035,0.7565677,10.333375,0.0,2017-01-15 22:32:01,26.650031498806108
-0.47884035,0.8331822,10.409989,0.0,2017-01-15 22:32:02,26.913163766015277
-0.46926352,0.7757214,10.352529,0.0,2017-01-15 22:32:03,27.840464158081133
-0.50757074,0.82360536,10.362105,0.0,2017-01-15 22:32:04,27.268061367094813
-0.49799395,0.79487497,10.390836,0.0,2017-01-15 22:32:05,27.28282746740771
-0.45968673,0.79487497,10.333375,0.0,2017-01-15 22:32:06,27.217204712108792
-0.49799395,0.80445176,10.362105,0.0,2017-01-15 22:32:07,26.99826890041401
-0.47884035,0.7565677,10.342952,0.0,2017-01-15 22:32:08,27.22477099932171
-0.48841715,0.8331822,10.381259,0.0,2017-01-15 22:32:09,27.784745888996696
-0.47884035,0.81402856,10.390836,0.0,2017-01-15 22:32:10,28.676387116778805
-0.48841715,0.81402856,10.400413,0.0,2017-01-15 22:32:11,28.456541236541373
-0.47884035,0.79487497,10.381259,0.0,2017-01-15 22:32:12,29.182335369597276
-0.50757074,0.81402856,10.362105,0.0,2017-01-15 22:32:13,28.420785270985313
-0.48841715,0.81402856,10.371682,0.0,2017-01-15 22:32:14,28.33551483895345
-0.51714754,0.8331822,10.429143,0.0,2017-01-15 22:32:16,25.93445297601516
-0.49799395,0.80445176,10.381259,0.0,2017-01-15 22:32:17,25.9000541965133
-0.51714754,0.8810662,10.43872,0.0,2017-01-15 22:32:18,26.4427853083094
-0.47884035,0.81402856,10.381259,0.0,2017-01-15 22:32:19,26.44066054221843
-0.47884035,0.79487497,10.400413,0.0,2017-01-15 22:32:20,30.074076857232654
-0.45968673,0.81402856,10.419566,0.0,2017-01-15 22:32:21,27.236788166120274
-0.49799395,0.82360536,10.400413,0.0,2017-01-15 22:32:22,28.20812884762765
-0.50757074,0.8331822,10.419566,0.0,2017-01-15 22:32:23,39.25547839863923
-0.45968673,0.80445176,10.390836,0.0,2017-01-15 22:32:24,54.554099988016624
-0.48841715,0.80445176,10.390836,0.0,2017-01-15 22:32:25,49.426120001942316
-0.47884035,0.8331822,10.400413,0.0,2017-01-15 22:32:26,51.71336034649193
-0.47884035,0.80445176,10.371682,0.0,2017-01-15 22:32:27,42.41771631554358
-0.47884035,0.78529817,10.381259,0.0,2017-01-15 22:32:28,31.841020369061965
-0.48841715,0.80445176,10.371682,0.0,2017-01-15 22:32:29,25.505493676284104
-0.50757074,0.82360536,10.381259,0.0,2017-01-15 22:32:30,27.08250888591378
-0.48841715,0.81402856,10.371682,0.0,2017-01-15 22:32:31,37.08782749946621
-0.46926352,0.81402856,10.400413,0.0,2017-01-15 22:32:32,27.05345113344464
-0.47884035,0.7661445,10.371682,0.0,2017-01-15 22:32:33,27.434313651466837
-0.48841715,0.79487497,10.342952,0.0,2017-01-15 22:32:34,27.490789672538863
-0.47884035,0.80445176,10.381259,0.0,2017-01-15 22:32:35,35.40469862507702
-0.48841715,0.78529817,10.342952,0.0,2017-01-15 22:32:36,35.40209777000829
-0.50757074,0.842759,10.400413,0.0,2017-01-15 22:32:38,32.99983035032898
-0.47884035,0.80445176,10.400413,0.0,2017-01-15 22:32:39,26.00012631816147
-0.47884035,0.80445176,10.371682,0.0,2017-01-15 22:32:40,26.561910668692406
-0.47884035,0.82360536,10.409989,0.0,2017-01-15 22:32:41,26.241144319951154
-0.50757074,0.80445176,10.371682,0.0,2017-01-15 22:32:42,25.612616791210783
-0.48841715,0.79487497,10.362105,0.0,2017-01-15 22:32:43,28.770364240968863
-0.48841715,0.81402856,10.400413,0.0,2017-01-15 22:32:44,41.15161841821635
-0.47884035,0.81402856,10.381259,0.0,2017-01-15 22:32:45,40.03589901788966
-0.50757074,0.8331822,10.371682,0.0,2017-01-15 22:32:46,38.685287237570854
-0.47884035,0.79487497,10.390836,0.0,2017-01-15 22:32:47,25.661243278290012
-0.45968673,0.78529817,10.352529,0.0,2017-01-15 22:32:48,25.77463075707323
-0.48841715,0.81402856,10.381259,0.0,2017-01-15 22:32:49,39.73167411867199
-0.48841715,0.82360536,10.400413,0.0,2017-01-15 22:32:50,37.734984649229624
-0.51714754,0.81402856,10.371682,0.0,2017-01-15 22:32:51,46.7755565663891
-0.47884035,0.8331822,10.400413,0.0,2017-01-15 22:32:52,47.527392382673945
-0.50757074,0.82360536,10.390836,0.0,2017-01-15 22:32:53,44.421593685244964
-0.46926352,0.80445176,10.381259,0.0,2017-01-15 22:32:54,48.240607581195135
-0.47884035,0.81402856,10.400413,0.0,2017-01-15 22:32:55,44.92545283191694
-0.47884035,0.8331822,10.429143,0.0,2017-01-15 22:32:57,49.733864619015506
-0.48841715,0.80445176,10.371682,0.0,2017-01-15 22:32:58,40.50383744365894
-0.48841715,0.80445176,10.362105,0.0,2017-01-15 22:32:59,43.32010266834155
-0.51714754,0.842759,10.43872,0.0,2017-01-15 22:33:00,35.82422402711768
-0.46926352,0.78529817,10.362105,0.0,2017-01-15 22:33:01,29.875335994243684
-0.51714754,0.842759,10.400413,0.0,2017-01-15 22:33:02,30.88830183341992
-0.47884035,0.79487497,10.371682,0.0,2017-01-15 22:33:03,29.397859248824844
-0.46926352,0.79487497,10.400413,0.0,2017-01-15 22:33:04,30.330717539192143
-0.46926352,0.81402856,10.390836,0.0,2017-01-15 22:33:05,30.87626158168282
-0.50757074,0.842759,10.381259,0.0,2017-01-15 22:33:06,30.34320070260592
-0.50757074,0.8331822,10.381259,0.0,2017-01-15 22:33:07,30.091706068146244
-0.45010993,0.79487497,10.400413,0.0,2017-01-15 22:33:08,29.764560173757676
-0.46926352,0.79487497,10.371682,0.0,2017-01-15 22:33:09,38.6948950555701
-0.47884035,0.81402856,10.429143,0.0,2017-01-15 22:33:10,34.40595738092133
-0.48841715,0.7757214,10.342952,0.0,2017-01-15 22:33:11,36.12580564625657
-0.48841715,0.82360536,10.400413,0.0,2017-01-15 22:33:12,26.09501031209001
-0.50757074,0.8331822,10.381259,0.0,2017-01-15 22:33:13,31.43180753394394
-0.51714754,0.842759,10.400413,0.0,2017-01-15 22:33:14,30.9510176018361
-0.47884035,0.82360536,10.419566,0.0,2017-01-15 22:33:15,29.779663994544478
-0.49799395,0.82360536,10.371682,0.0,2017-01-15 22:33:17,28.77013005926031
-0.46926352,0.80445176,10.352529,0.0,2017-01-15 22:33:18,25.40184737996837
-0.49799395,0.8331822,10.390836,0.0,2017-01-15 22:33:19,26.572710335896915
-0.47884035,0.842759,10.390836,0.0,2017-01-15 22:33:20,27.316164616557323
-0.47884035,0.78529817,10.381259,0.0,2017-01-15 22:33:21,28.298081461104843
-0.48841715,0.82360536,10.429143,0.0,2017-01-15 22:33:22,28.967758788203124
-0.48841715,0.8331822,10.409989,0.0,2017-01-15 22:33:23,29.571012331922756
-0.49799395,0.80445176,10.381259,0.0,2017-01-15 22:33:24,53.87705298313285
-0.51714754,0.8523358,10.419566,0.0,2017-01-15 22:33:25,51.42032318995689
-0.50757074,0.82360536,10.419566,0.0,2017-01-15 22:33:26,50.50680199661884
-0.47884035,0.79487497,10.419566,0.0,2017-01-15 22:33:27,26.934961136983297
-0.46926352,0.78529817,10.429143,0.0,2017-01-15 22:33:28,39.1759526716052
-0.47884035,0.80445176,10.409989,0.0,2017-01-15 22:33:29,31.222742582767786
-0.48841715,0.79487497,10.409989,0.0,2017-01-15 22:33:30,36.78400286328283
-0.48841715,0.81402856,10.400413,0.0,2017-01-15 22:33:31,28.03627795344815
-0.47884035,0.78529817,10.371682,0.0,2017-01-15 22:33:32,27.33593448299887
-0.48841715,0.80445176,10.362105,0.0,2017-01-15 22:33:33,27.953998566038788
-0.48841715,0.80445176,10.400413,0.0,2017-01-15 22:33:34,27.224153837101813
-0.48841715,0.80445176,10.419566,0.0,2017-01-15 22:33:35,27.051524859606797
-0.48841715,0.81402856,10.400413,0.0,2017-01-15 22:33:37,26.764163727027224
-0.49799395,0.8331822,10.400413,0.0,2017-01-15 22:33:38,28.07027378119873
-0.49799395,0.82360536,10.409989,0.0,2017-01-15 22:33:39,28.743603983151772
-0.48841715,0.80445176,10.400413,0.0,2017-01-15 22:33:40,29.397157638450775
-0.49799395,0.81402856,10.409989,0.0,2017-01-15 22:33:41,26.605631208862626
-0.50757074,0.82360536,10.400413,0.0,2017-01-15 22:33:42,26.589172200445176
-0.45968673,0.79487497,10.390836,0.0,2017-01-15 22:33:43,25.548373040053068
-0.50757074,0.842759,10.448297,0.0,2017-01-15 22:33:44,32.65951496965164
-0.47884035,0.7757214,10.371682,0.0,2017-01-15 22:33:45,31.71128338712904
-0.50757074,0.8331822,10.409989,0.0,2017-01-15 22:33:46,31.411017672623473
-0.48841715,0.81402856,10.381259,0.0,2017-01-15 22:33:47,27.285845664726924
-0.47884035,0.79487497,10.352529,0.0,2017-01-15 22:33:48,26.089269825041832
-0.49799395,0.79487497,10.342952,0.0,2017-01-15 22:33:49,25.456549694935546
-0.46926352,0.7661445,10.381259,0.0,2017-01-15 22:33:50,25.46851001781394
-0.47884035,0.79487497,10.390836,0.0,2017-01-15 22:33:51,26.095710666033433
-0.49799395,0.81402856,10.400413,0.0,2017-01-15 22:33:52,45.781261186555696
-0.47884035,0.79487497,10.352529,0.0,2017-01-15 22:33:53,42.53618209953377
-0.50757074,0.81402856,10.371682,0.0,2017-01-15 22:33:54,42.77920285181905
-0.49799395,0.80445176,10.409989,0.0,2017-01-15 22:33:55,35.42043865136932
-0.49799395,0.842759,10.409989,0.0,2017-01-15 22:33:57,28.171954503021027
-0.48841715,0.80445176,10.362105,0.0,2017-01-15 22:33:58,28.214828221098614
-0.47884035,0.82360536,10.371682,0.0,2017-01-15 22:33:59,26.6753174917553
-0.49799395,0.80445176,10.371682,0.0,2017-01-15 22:34:00,27.605544104914394
-0.47884035,0.81402856,10.371682,0.0,2017-01-15 22:34:01,27.952846259675866
-0.49799395,0.80445176,10.390836,0.0,2017-01-15 22:34:02,28.48389277534702
-0.49799395,0.82360536,10.362105,0.0,2017-01-15 22:34:03,27.927221004050438
-0.47884035,0.79487497,10.371682,0.0,2017-01-15 22:34:04,27.42703042981148
-0.48841715,0.8331822,10.429143,0.0,2017-01-15 22:34:05,27.30744434698453
-0.46926352,0.78529817,10.352529,0.0,2017-01-15 22:34:06,26.373114470609988
-0.50757074,0.82360536,10.390836,0.0,2017-01-15 22:34:07,27.328007201668846
-0.48841715,0.81402856,10.409989,0.0,2017-01-15 22:34:08,26.861836433933885
-0.50757074,0.8331822,10.390836,0.0,2017-01-15 22:34:09,37.677827277093336
-0.48841715,0.81402856,10.400413,0.0,2017-01-15 22:34:10,36.57193042892716
-0.49799395,0.82360536,10.362105,0.0,2017-01-15 22:34:11,29.019637731530878
-0.48841715,0.8331822,10.400413,0.0,2017-01-15 22:34:12,29.256601097120306
-0.47884035,0.8331822,10.390836,0.0,2017-01-15 22:34:13,29.40111635434622
-0.49799395,0.8331822,10.409989,0.0,2017-01-15 22:34:14,26.63014438058255
-0.48841715,0.80445176,10.390836,0.0,2017-01-15 22:34:15,28.202137785568127
-0.50757074,0.82360536,10.362105,0.0,2017-01-15 22:34:16,25.778184031710886
-0.48841715,0.81402856,10.371682,0.0,2017-01-15 22:34:17,32.26797998825469
-0.49799395,0.82360536,10.409989,0.0,2017-01-15 22:34:18,41.24549563365814
-0.47884035,0.79487497,10.381259,0.0,2017-01-15 22:34:20,38.39524004108968
-0.47884035,0.79487497,10.390836,0.0,2017-01-15 22:34:21,37.00993708688802
-0.46926352,0.81402856,10.409989,0.0,2017-01-15 22:34:22,27.55546153250173
-0.47884035,0.80445176,10.352529,0.0,2017-01-15 22:34:23,26.1289307863907
-0.46926352,0.80445176,10.409989,0.0,2017-01-15 22:34:24,25.643775235170487
-0.47884035,0.80445176,10.371682,0.0,2017-01-15 22:34:25,26.16856076845586
-0.48841715,0.82360536,10.381259,0.0,2017-01-15 22:34:26,47.243930057633946
-0.46926352,0.82360536,10.371682,0.0,2017-01-15 22:34:27,47.785597248122485
-0.48841715,0.78529817,10.342952,0.0,2017-01-15 22:34:28,47.254207838878905
-0.51714754,0.80445176,10.371682,0.0,2017-01-15 22:34:29,28.49148663214121
-0.49799395,0.80445176,10.390836,0.0,2017-01-15 22:34:30,29.421274675860865
-0.47884035,0.78529817,10.371682,0.0,2017-01-15 22:34:31,30.44386623033754
-0.47884035,0.80445176,10.381259,0.0,2017-01-15 22:34:32,29.459975899908436
-0.50757074,0.81402856,10.352529,0.0,2017-01-15 22:34:33,28.253348186927724
-0.48841715,0.79487497,10.400413,0.0,2017-01-15 22:34:34,27.065817773829007
-0.46926352,0.82360536,10.400413,0.0,2017-01-15 22:34:35,27.248618740461676
-0.47884035,0.8331822,10.381259,0.0,2017-01-15 22:34:36,27.947210775757256
-0.46926352,0.79487497,10.371682,0.0,2017-01-15 22:34:37,30.126553521669933
-0.50757074,0.842759,10.429143,0.0,2017-01-15 22:34:39,27.34074400167222
-0.47884035,0.8331822,10.419566,0.0,2017-01-15 22:34:40,36.50876736388821
-0.48841715,0.81402856,10.381259,0.0,2017-01-15 22:34:41,39.65075670291292
-0.48841715,0.81402856,10.381259,0.0,2017-01-15 22:34:42,42.846762945991344
-0.48841715,0.79487497,10.400413,0.0,2017-01-15 22:34:43,38.0987564151487
-0.48841715,0.80445176,10.371682,0.0,2017-01-15 22:34:44,40.162053291025586
-0.50757074,0.81402856,10.371682,0.0,2017-01-15 22:34:45,29.283334307426998
-0.47884035,0.842759,10.419566,0.0,2017-01-15 22:34:46,25.820669156988938
-0.47884035,0.80445176,10.381259,0.0,2017-01-15 22:34:47,27.695111759831455
-0.48841715,0.82360536,10.390836,0.0,2017-01-15 22:34:48,24.97011762076974
-0.48841715,0.80445176,10.419566,0.0,2017-01-15 22:34:49,24.90936823125262
-0.46926352,0.78529817,10.352529,0.0,2017-01-15 22:34:50,25.548675642116944
-0.47884035,0.81402856,10.390836,0.0,2017-01-15 22:34:51,26.232557530653196
-0.46926352,0.79487497,10.390836,0.0,2017-01-15 22:34:52,26.376960704334095
-0.47884035,0.79487497,10.409989,0.0,2017-01-15 22:34:53,27.268366855103686
-0.47884035,0.81402856,10.362105,0.0,2017-01-15 22:34:54,27.743435782821948
-0.49799395,0.80445176,10.390836,0.0,2017-01-15 22:34:55,30.71311160738364
-0.47884035,0.81402856,10.371682,0.0,2017-01-15 22:34:56,53.18227854165965
-0.46926352,0.7757214,10.362105,0.0,2017-01-15 22:34:57,40.9744115595344
-0.49799395,0.80445176,10.371682,0.0,2017-01-15 22:34:59,46.27078611281852
-0.47884035,0.80445176,10.390836,0.0,2017-01-15 22:35:00,43.09982688997061
-0.48841715,0.81402856,10.362105,0.0,2017-01-15 22:35:01,38.186569627407806
-0.45968673,0.80445176,10.390836,0.0,2017-01-15 22:35:02,39.48490751566677
-0.46926352,0.79487497,10.362105,0.0,2017-01-15 22:35:03,27.467144542788112
-0.47884035,0.79487497,10.342952,0.0,2017-01-15 22:35:04,27.805670676718044
-0.46926352,0.78529817,10.362105,0.0,2017-01-15 22:35:05,28.514303503203525
-0.46926352,0.80445176,10.419566,0.0,2017-01-15 22:35:06,29.52395853316458
-0.46926352,0.80445176,10.390836,0.0,2017-01-15 22:35:07,28.529600749673364
-0.49799395,0.78529817,10.381259,0.0,2017-01-15 22:35:08,27.083438719001386
-0.47884035,0.79487497,10.362105,0.0,2017-01-15 22:35:09,26.299953994486266
-0.47884035,0.80445176,10.390836,0.0,2017-01-15 22:35:10,27.194996056342568
-0.46926352,0.7469909,10.333375,0.0,2017-01-15 22:35:11,28.891720952991893
-0.46926352,0.79487497,10.381259,0.0,2017-01-15 22:35:12,28.354051747944013
-0.48841715,0.79487497,10.352529,0.0,2017-01-15 22:35:13,29.531886709436755
-0.46926352,0.7757214,10.333375,0.0,2017-01-15 22:35:14,30.20134596784541
-0.47884035,0.79487497,10.362105,0.0,2017-01-15 22:35:15,29.596807303306434
-0.48841715,0.79487497,10.390836,0.0,2017-01-15 22:35:16,27.977802354571693
-0.49799395,0.80445176,10.371682,0.0,2017-01-15 22:35:17,27.99200501372575
-0.47884035,0.7757214,10.342952,0.0,2017-01-15 22:35:19,27.122444656883005
-0.47884035,0.78529817,10.342952,0.0,2017-01-15 22:35:20,27.320040268743803
-0.47884035,0.80445176,10.400413,0.0,2017-01-15 22:35:21,27.123471261334494
-0.48841715,0.80445176,10.400413,0.0,2017-01-15 22:35:22,27.836177651907484
-0.48841715,0.82360536,10.400413,0.0,2017-01-15 22:35:23,28.359163776105987
-0.49799395,0.8331822,10.400413,0.0,2017-01-15 22:35:24,27.722781467092837
-0.47884035,0.82360536,10.419566,0.0,2017-01-15 22:35:25,27.42568034366142
-0.51714754,0.8331822,10.362105,0.0,2017-01-15 22:35:26,26.824637956501995
-0.49799395,0.80445176,10.371682,0.0,2017-01-15 22:35:27,27.41154061948713
-0.48841715,0.82360536,10.400413,0.0,2017-01-15 22:35:28,29.53348874230912
-0.48841715,0.80445176,10.381259,0.0,2017-01-15 22:35:29,31.612790750798784
-0.46926352,0.80445176,10.352529,0.0,2017-01-15 22:35:30,31.953962568979662
-0.46926352,0.8331822,10.400413,0.0,2017-01-15 22:35:31,31.827337644386358
-0.46926352,0.79487497,10.400413,0.0,2017-01-15 22:35:32,29.44027473195139
-0.49799395,0.82360536,10.429143,0.0,2017-01-15 22:35:33,32.30598982513685
-0.48841715,0.82360536,10.419566,0.0,2017-01-15 22:35:34,29.12104097934133
-0.46926352,0.79487497,10.371682,0.0,2017-01-15 22:35:35,30.32403423509377
-0.46926352,0.7757214,10.352529,0.0,2017-01-15 22:35:36,34.12717729843719
-0.46926352,0.80445176,10.381259,0.0,2017-01-15 22:35:38,32.860492681789694
-0.46926352,0.78529817,10.371682,0.0,2017-01-15 22:35:39,34.412516815598515
-0.46926352,0.82360536,10.409989,0.0,2017-01-15 22:35:40,33.4289743083018
-0.48841715,0.81402856,10.371682,0.0,2017-01-15 22:35:41,33.743794055275075
-0.46926352,0.78529817,10.362105,0.0,2017-01-15 22:35:42,32.6460460643755
-0.48841715,0.81402856,10.381259,0.0,2017-01-15 22:35:43,33.54573591261901
-0.46926352,0.80445176,10.409989,0.0,2017-01-15 22:35:44,31.986003913317923
-0.48841715,0.80445176,10.362105,0.0,2017-01-15 22:35:45,29.56792520370495
-0.46926352,0.79487497,10.371682,0.0,2017-01-15 22:35:46,29.824464988273547
-0.46926352,0.7661445,10.352529,0.0,2017-01-15 22:35:47,29.943501525163075
-0.48841715,0.81402856,10.362105,0.0,2017-01-15 22:35:48,30.456212092867354
-0.47884035,0.79487497,10.352529,0.0,2017-01-15 22:35:49,27.945098305471134
-0.45968673,0.78529817,10.381259,0.0,2017-01-15 22:35:50,28.329776816988804
-0.47884035,0.79487497,10.352529,0.0,2017-01-15 22:35:51,27.661338869388622
-0.48841715,0.79487497,10.371682,0.0,2017-01-15 22:35:52,28.261963233326604
-0.46926352,0.79487497,10.362105,0.0,2017-01-15 22:35:53,27.984823150850914
-0.46926352,0.79487497,10.381259,0.0,2017-01-15 22:35:54,27.50905962542198
-0.46926352,0.7565677,10.333375,0.0,2017-01-15 22:35:55,27.85024920906869
-0.46926352,0.7757214,10.371682,0.0,2017-01-15 22:35:56,27.90322556093434
-0.48841715,0.78529817,10.381259,0.0,2017-01-15 22:35:58,56.368276671693955
-0.47884035,0.80445176,10.371682,0.0,2017-01-15 22:35:59,53.75834023964416
-0.47884035,0.81402856,10.371682,0.0,2017-01-15 22:36:00,30.827113365380676
-0.46926352,0.78529817,10.381259,0.0,2017-01-15 22:36:01,31.653992181403552
-0.48841715,0.80445176,10.419566,0.0,2017-01-15 22:36:02,30.742551600931158
-0.48841715,0.78529817,10.362105,0.0,2017-01-15 22:36:03,31.04214951827224
-0.48841715,0.80445176,10.381259,0.0,2017-01-15 22:36:04,29.496918339973355
-0.46926352,0.79487497,10.371682,0.0,2017-01-15 22:36:05,27.528116355071788
-0.49799395,0.80445176,10.371682,0.0,2017-01-15 22:36:06,27.048339282823584
-0.49799395,0.8331822,10.43872,0.0,2017-01-15 22:36:07,27.47190816977477
-0.47884035,0.82360536,10.400413,0.0,2017-01-15 22:36:08,28.00787937404018
-0.47884035,0.79487497,10.381259,0.0,2017-01-15 22:36:09,28.495499282395294
-0.47884035,0.81402856,10.390836,0.0,2017-01-15 22:36:10,27.9572581543054
-0.47884035,0.78529817,10.352529,0.0,2017-01-15 22:36:11,27.727227120637426
-0.46926352,0.82360536,10.381259,0.0,2017-01-15 22:36:12,27.584789900278963
-0.46926352,0.7757214,10.352529,0.0,2017-01-15 22:36:13,26.492039907432204
-0.45968673,0.7757214,10.342952,0.0,2017-01-15 22:36:14,35.233354642706225
-0.45968673,0.7757214,10.352529,0.0,2017-01-15 22:36:15,38.64434687161471
-0.45968673,0.7661445,10.362105,0.0,2017-01-15 22:36:17,32.23867320667416
-0.46926352,0.78529817,10.371682,0.0,2017-01-15 22:36:18,29.188523837399764
-0.49799395,0.80445176,10.352529,0.0,2017-01-15 22:36:19,28.521405684676417
-0.47884035,0.81402856,10.371682,0.0,2017-01-15 22:36:20,30.030685531420183
-0.47884035,0.79487497,10.362105,0.0,2017-01-15 22:36:21,28.22088358738339
-0.47884035,0.80445176,10.381259,0.0,2017-01-15 22:36:22,27.819796423992045
-0.45968673,0.78529817,10.400413,0.0,2017-01-15 22:36:23,26.47719075897107
-0.47884035,0.81402856,10.409989,0.0,2017-01-15 22:36:24,26.838740678220724
-0.48841715,0.8331822,10.43872,0.0,2017-01-15 22:36:25,26.912915124927103
-0.45968673,0.81402856,10.429143,0.0,2017-01-15 22:36:26,26.913881982539802
-0.47884035,0.79487497,10.362105,0.0,2017-01-15 22:36:27,27.782462419122403
-0.49799395,0.81402856,10.390836,0.0,2017-01-15 22:36:28,27.42685862397225
-0.47884035,0.78529817,10.362105,0.0,2017-01-15 22:36:29,26.651410803054873
-0.45968673,0.78529817,10.381259,0.0,2017-01-15 22:36:30,26.321534835106327
-0.47884035,0.81402856,10.371682,0.0,2017-01-15 22:36:31,26.66298554940009
-0.47884035,0.79487497,10.371682,0.0,2017-01-15 22:36:32,27.471422324700846
-0.47884035,0.81402856,10.390836,0.0,2017-01-15 22:36:33,27.920895045603437
-0.48841715,0.78529817,10.342952,0.0,2017-01-15 22:36:34,28.00248687950214
-0.45968673,0.78529817,10.352529,0.0,2017-01-15 22:36:35,29.708624110659688
-0.49799395,0.81402856,10.43872,0.0,2017-01-15 22:36:36,28.5285914954177
-0.49799395,0.79487497,10.400413,0.0,2017-01-15 22:36:37,30.153505852431035
-0.45010993,0.78529817,10.381259,0.0,2017-01-15 22:36:38,28.35908456576056
-0.46926352,0.7661445,10.352529,0.0,2017-01-15 22:36:40,32.53693813785446
-0.46926352,0.7757214,10.371682,0.0,2017-01-15 22:36:41,32.142550661576635
-0.47884035,0.79487497,10.342952,0.0,2017-01-15 22:36:42,33.23703825423411
-0.46926352,0.82360536,10.381259,0.0,2017-01-15 22:36:43,28.27407643732025
-0.46926352,0.78529817,10.390836,0.0,2017-01-15 22:36:44,26.915704614307167
-0.46926352,0.78529817,10.400413,0.0,2017-01-15 22:36:45,27.117650624814313
-0.47884035,0.80445176,10.390836,0.0,2017-01-15 22:36:46,26.76024509535541
-0.47884035,0.80445176,10.409989,0.0,2017-01-15 22:36:47,27.5350645699097
-0.49799395,0.8523358,10.43872,0.0,2017-01-15 22:36:48,26.94712114337795
-0.47884035,0.82360536,10.409989,0.0,2017-01-15 22:36:49,26.965010930409882
-0.47884035,0.80445176,10.390836,0.0,2017-01-15 22:36:50,27.835552182788668
-0.47884035,0.80445176,10.352529,0.0,2017-01-15 22:36:51,26.977631618792984
-0.47884035,0.79487497,10.400413,0.0,2017-01-15 22:36:52,29.20596120975825
-0.48841715,0.81402856,10.381259,0.0,2017-01-15 22:36:53,29.857126907434708
-0.50757074,0.842759,10.390836,0.0,2017-01-15 22:36:54,29.52650196781417
-0.48841715,0.8331822,10.429143,0.0,2017-01-15 22:36:55,29.297572880981463
-0.48841715,0.8331822,10.400413,0.0,2017-01-15 22:36:56,34.746168543776804
-0.49799395,0.8331822,10.390836,0.0,2017-01-15 22:36:58,33.74223485540777
-0.47884035,0.8331822,10.400413,0.0,2017-01-15 22:36:59,35.71126277084311
-0.48841715,0.80445176,10.419566,0.0,2017-01-15 22:37:00,33.01674173552972
-0.49799395,0.82360536,10.400413,0.0,2017-01-15 22:37:01,29.13646656550624
-0.48841715,0.79487497,10.362105,0.0,2017-01-15 22:37:02,26.37608543833818
-0.49799395,0.81402856,10.390836,0.0,2017-01-15 22:37:03,26.542818527427123
-0.46926352,0.7757214,10.390836,0.0,2017-01-15 22:37:04,27.062589284610862
-0.48841715,0.7661445,10.371682,0.0,2017-01-15 22:37:05,26.86873569587759
-0.45968673,0.80445176,10.381259,0.0,2017-01-15 22:37:06,28.246138966934105
-0.45968673,0.78529817,10.362105,0.0,2017-01-15 22:37:07,27.219676786212922
-0.45968673,0.81402856,10.362105,0.0,2017-01-15 22:37:08,29.045853861625428
-0.46926352,0.80445176,10.352529,0.0,2017-01-15 22:37:09,28.827130423170747
-0.46926352,0.78529817,10.362105,0.0,2017-01-15 22:37:10,28.84012560769079
-0.48841715,0.80445176,10.371682,0.0,2017-01-15 22:37:11,28.898547254788745
-0.49799395,0.81402856,10.400413,0.0,2017-01-15 22:37:12,29.1971696388837
-0.48841715,0.80445176,10.400413,0.0,2017-01-15 22:37:13,27.56372199883935
-0.46926352,0.78529817,10.352529,0.0,2017-01-15 22:37:14,28.558975598756756
-0.47884035,0.7757214,10.342952,0.0,2017-01-15 22:37:15,27.04169291516568
-0.47884035,0.81402856,10.409989,0.0,2017-01-15 22:37:16,26.557835121410513
-0.46926352,0.80445176,10.390836,0.0,2017-01-15 22:37:18,26.11471046642087
-0.48841715,0.82360536,10.400413,0.0,2017-01-15 22:37:19,27.785220519129847
-0.45968673,0.78529817,10.362105,0.0,2017-01-15 22:37:20,27.803668246503847
-0.50757074,0.81402856,10.362105,0.0,2017-01-15 22:37:21,28.62796405296884
-0.48841715,0.81402856,10.371682,0.0,2017-01-15 22:37:22,29.510869620899967
-0.50757074,0.80445176,10.429143,0.0,2017-01-15 22:37:23,29.0579756629038
-0.48841715,0.81402856,10.400413,0.0,2017-01-15 22:37:24,30.297780658900386
-0.48841715,0.81402856,10.362105,0.0,2017-01-15 22:37:25,28.857868942046082
-0.48841715,0.80445176,10.381259,0.0,2017-01-15 22:37:26,32.20009150505683
-0.47884035,0.7757214,10.390836,0.0,2017-01-15 22:37:27,31.1691165206799
-0.48841715,0.80445176,10.390836,0.0,2017-01-15 22:37:28,30.041117008402466
-0.47884035,0.79487497,10.390836,0.0,2017-01-15 22:37:29,27.135771623440192
-0.48841715,0.80445176,10.400413,0.0,2017-01-15 22:37:30,28.288189422611527
-0.47884035,0.80445176,10.409989,0.0,2017-01-15 22:37:31,28.243170571852186
-0.48841715,0.79487497,10.362105,0.0,2017-01-15 22:37:32,27.55929615230398
-0.47884035,0.81402856,10.381259,0.0,2017-01-15 22:37:33,27.9118168612114
-0.48841715,0.79487497,10.371682,0.0,2017-01-15 22:37:34,26.516504701818278
-0.46926352,0.79487497,10.371682,0.0,2017-01-15 22:37:35,27.169965951691232
-0.47884035,0.79487497,10.390836,0.0,2017-01-15 22:37:36,27.02796602669066
-0.47884035,0.80445176,10.400413,0.0,2017-01-15 22:37:37,28.502402343325773
-0.47884035,0.8331822,10.400413,0.0,2017-01-15 22:37:39,28.013050734904322
-0.47884035,0.79487497,10.362105,0.0,2017-01-15 22:37:40,29.48370170013385
-0.48841715,0.80445176,10.371682,0.0,2017-01-15 22:37:41,29.802846623646225
-0.47884035,0.7757214,10.390836,0.0,2017-01-15 22:37:42,28.664165741638282
-0.45968673,0.81402856,10.352529,0.0,2017-01-15 22:37:43,27.553340319684207
-0.48841715,0.81402856,10.381259,0.0,2017-01-15 22:37:44,26.830920871971287
-0.47884035,0.78529817,10.381259,0.0,2017-01-15 22:37:45,27.53870195750906
-0.46926352,0.81402856,10.419566,0.0,2017-01-15 22:37:46,27.861478160971753
-0.47884035,0.81402856,10.381259,0.0,2017-01-15 22:37:47,27.873719062542346
-0.49799395,0.8331822,10.381259,0.0,2017-01-15 22:37:48,28.09060746945324
-0.47884035,0.79487497,10.371682,0.0,2017-01-15 22:37:49,27.935874163147048
-0.48841715,0.7757214,10.362105,0.0,2017-01-15 22:37:50,27.541428000366416
-0.47884035,0.79487497,10.381259,0.0,2017-01-15 22:37:51,27.0447493635174
-0.46926352,0.7661445,10.352529,0.0,2017-01-15 22:37:52,27.045472944228734
-0.49799395,0.8331822,10.390836,0.0,2017-01-15 22:37:53,27.17105948584168
-0.46926352,0.79487497,10.362105,0.0,2017-01-15 22:37:54,27.85200773417929
-0.47884035,0.80445176,10.381259,0.0,2017-01-15 22:37:55,28.92228559092925
-0.48841715,0.82360536,10.419566,0.0,2017-01-15 22:37:56,29.098484243790654
-0.45968673,0.79487497,10.390836,0.0,2017-01-15 22:37:58,30.14381386828137
-0.48841715,0.80445176,10.390836,0.0,2017-01-15 22:37:59,29.4111061852791
-0.47884035,0.81402856,10.400413,0.0,2017-01-15 22:38:00,28.177120100790425
-0.47884035,0.79487497,10.381259,0.0,2017-01-15 22:38:01,27.126654823899866
-0.48841715,0.82360536,10.400413,0.0,2017-01-15 22:38:02,26.418705454763124
-0.49799395,0.8523358,10.419566,0.0,2017-01-15 22:38:03,26.780344219783096
-0.47884035,0.79487497,10.390836,0.0,2017-01-15 22:38:04,26.7238940727799
-0.48841715,0.80445176,10.333375,0.0,2017-01-15 22:38:05,27.525837796348682
-0.45968673,0.7661445,10.381259,0.0,2017-01-15 22:38:06,28.305946826919055
-0.47884035,0.81402856,10.409989,0.0,2017-01-15 22:38:07,27.56864224060549
-0.47884035,0.82360536,10.409989,0.0,2017-01-15 22:38:08,27.4863856763455
-0.48841715,0.8331822,10.429143,0.0,2017-01-15 22:38:09,27.266813734660566
-0.45968673,0.82360536,10.409989,0.0,2017-01-15 22:38:10,27.628308963634602
-0.46926352,0.79487497,10.352529,0.0,2017-01-15 22:38:11,26.645920335194116
-0.49799395,0.82360536,10.419566,0.0,2017-01-15 22:38:12,27.835619201645937
-0.47884035,0.81402856,10.409989,0.0,2017-01-15 22:38:13,29.07617910586883
-0.49799395,0.8331822,10.381259,0.0,2017-01-15 22:38:14,29.939705028053606
-0.47884035,0.80445176,10.419566,0.0,2017-01-15 22:38:15,29.555374285917793
-0.46926352,0.81402856,10.400413,0.0,2017-01-15 22:38:16,28.815968299804467
-0.49799395,0.82360536,10.381259,0.0,2017-01-15 22:38:18,28.29494739986144
-0.48841715,0.8523358,10.390836,0.0,2017-01-15 22:38:19,27.83503833718786
-0.51714754,0.8331822,10.419566,0.0,2017-01-15 22:38:20,26.37689819118401
-0.49799395,0.82360536,10.390836,0.0,2017-01-15 22:38:21,27.022824072894736
-0.46926352,0.78529817,10.390836,0.0,2017-01-15 22:38:22,26.991789582799235
-0.47884035,0.78529817,10.371682,0.0,2017-01-15 22:38:23,27.02610916455294
-0.48841715,0.82360536,10.400413,0.0,2017-01-15 22:38:24,26.578801339845302
-0.50757074,0.81402856,10.400413,0.0,2017-01-15 22:38:25,26.810687293987794
-0.50757074,0.842759,10.409989,0.0,2017-01-15 22:38:26,26.70257452664993
-0.47884035,0.82360536,10.390836,0.0,2017-01-15 22:38:27,26.752827204665568
-0.45968673,0.78529817,10.381259,0.0,2017-01-15 22:38:28,26.775014455790043
-0.46926352,0.81402856,10.371682,0.0,2017-01-15 22:38:29,26.680887520287865
-0.50757074,0.8331822,10.400413,0.0,2017-01-15 22:38:30,26.063410512517734
-0.47884035,0.79487497,10.371682,0.0,2017-01-15 22:38:31,26.04634362579624
-0.47884035,0.81402856,10.448297,0.0,2017-01-15 22:38:32,25.214159694124596
-0.51714754,0.8331822,10.400413,0.0,2017-01-15 22:38:33,24.80379779996417
-0.5363012,0.81402856,10.390836,0.0,2017-01-15 22:38:34,26.76933548177423
-0.46926352,0.80445176,10.419566,0.0,2017-01-15 22:38:35,26.518108610117203
-0.48841715,0.82360536,10.409989,0.0,2017-01-15 22:38:37,25.357410044434317
-0.48841715,0.79487497,10.390836,0.0,2017-01-15 22:38:38,27.5371229397254
-0.47884035,0.80445176,10.371682,0.0,2017-01-15 22:38:39,25.282416060138825
-0.47884035,0.78529817,10.362105,0.0,2017-01-15 22:38:40,27.331420716815323
-0.47884035,0.78529817,10.419566,0.0,2017-01-15 22:38:41,25.458094814517448
-0.47884035,0.80445176,10.381259,0.0,2017-01-15 22:38:42,26.085594601295988
-0.48841715,0.80445176,10.362105,0.0,2017-01-15 22:38:43,26.424737946550923
-0.45968673,0.80445176,10.390836,0.0,2017-01-15 22:38:44,25.211135558381127
-0.49799395,0.82360536,10.419566,0.0,2017-01-15 22:38:45,25.78108909559612
-0.48841715,0.81402856,10.400413,0.0,2017-01-15 22:38:46,26.347196667943184
-0.46926352,0.8331822,10.400413,0.0,2017-01-15 22:38:47,25.460064045057127
-0.48841715,0.8331822,10.429143,0.0,2017-01-15 22:38:48,26.761446803562063
-0.47884035,0.81402856,10.419566,0.0,2017-01-15 22:38:49,25.947619027292248
-0.48841715,0.8331822,10.448297,0.0,2017-01-15 22:38:50,26.43141032433779
-0.47884035,0.82360536,10.333375,0.0,2017-01-15 22:38:51,25.676070966862753
-0.48841715,0.82360536,10.409989,0.0,2017-01-15 22:38:52,26.021922952732616
-0.47884035,0.82360536,10.400413,0.0,2017-01-15 22:38:53,25.447693287437346
-0.49799395,0.81402856,10.371682,0.0,2017-01-15 22:38:54,27.517961570719468
-0.47884035,0.82360536,10.429143,0.0,2017-01-15 22:38:55,26.539477788902847
-0.47884035,0.80445176,10.381259,0.0,2017-01-15 22:38:56,27.50761434578834
-0.48841715,0.80445176,10.362105,0.0,2017-01-15 22:38:58,25.752672465667107
-0.46926352,0.81402856,10.43872,0.0,2017-01-15 22:38:59,26.877351352638172
-0.47884035,0.842759,10.419566,0.0,2017-01-15 22:39:00,26.72406720883554
-0.47884035,0.81402856,10.400413,0.0,2017-01-15 22:39:01,26.09277509422148
-0.49799395,0.81402856,10.409989,0.0,2017-01-15 22:39:02,24.8689958934283
-0.48841715,0.80445176,10.362105,0.0,2017-01-15 22:39:03,25.02111185603043
-0.49799395,0.79487497,10.362105,0.0,2017-01-15 22:39:04,24.247234413642143
-0.48841715,0.82360536,10.419566,0.0,2017-01-15 22:39:05,26.556695681602246
-0.45968673,0.78529817,10.381259,0.0,2017-01-15 22:39:06,25.55502541984072
-0.50757074,0.82360536,10.400413,0.0,2017-01-15 22:39:07,27.16960137911096
-0.49799395,0.82360536,10.400413,0.0,2017-01-15 22:39:08,25.116327341669347
-0.49799395,0.8331822,10.390836,0.0,2017-01-15 22:39:09,26.491735506791517
-0.51714754,0.8331822,10.390836,0.0,2017-01-15 22:39:10,25.078769452568366
-0.47884035,0.80445176,10.400413,0.0,2017-01-15 22:39:11,26.32397180251211
-0.49799395,0.81402856,10.400413,0.0,2017-01-15 22:39:12,25.359346433339056
-0.50757074,0.81402856,10.448297,0.0,2017-01-15 22:39:13,26.170429554874136
-0.47884035,0.80445176,10.400413,0.0,2017-01-15 22:39:14,25.441572206680544
-0.47884035,0.81402856,10.409989,0.0,2017-01-15 22:39:15,25.606089439274307
-0.48841715,0.8331822,10.371682,0.0,2017-01-15 22:39:17,25.630395953290414
-0.48841715,0.82360536,10.362105,0.0,2017-01-15 22:39:18,25.609111890328663
-0.48841715,0.7757214,10.390836,0.0,2017-01-15 22:39:19,25.292538542887826
-0.47884035,0.82360536,10.381259,0.0,2017-01-15 22:39:20,25.476016605449296
-0.49799395,0.8331822,10.400413,0.0,2017-01-15 22:39:21,26.284400205135082
-0.45968673,0.79487497,10.371682,0.0,2017-01-15 22:39:22,26.2082873313646
-0.51714754,0.82360536,10.371682,0.0,2017-01-15 22:39:23,26.79050109657569
-0.47884035,0.78529817,10.371682,0.0,2017-01-15 22:39:24,27.02215059149166
-0.50757074,0.81402856,10.400413,0.0,2017-01-15 22:39:25,28.010261969112076
-0.49799395,0.842759,10.409989,0.0,2017-01-15 22:39:26,27.314124735334538
-0.45968673,0.82360536,10.390836,0.0,2017-01-15 22:39:27,28.718282419881103
-0.49799395,0.82360536,10.381259,0.0,2017-01-15 22:39:28,28.648243038354515
-0.49799395,0.81402856,10.409989,0.0,2017-01-15 22:39:29,29.109827233768723
-0.49799395,0.82360536,10.371682,0.0,2017-01-15 22:39:30,28.15635849586183
-0.48841715,0.82360536,10.409989,0.0,2017-01-15 22:39:31,28.417289172726928
-0.50757074,0.79487497,10.390836,0.0,2017-01-15 22:39:32,26.955418693864633
-0.46926352,0.79487497,10.371682,0.0,2017-01-15 22:39:33,26.564575685884904
-0.47884035,0.7757214,10.381259,0.0,2017-01-15 22:39:34,26.671551489457936
-0.47884035,0.80445176,10.381259,0.0,2017-01-15 22:39:35,26.54459318985895
-0.49799395,0.82360536,10.371682,0.0,2017-01-15 22:39:37,26.810772149999448
-0.50757074,0.8331822,10.400413,0.0,2017-01-15 22:39:38,26.61200196667078
-0.47884035,0.80445176,10.381259,0.0,2017-01-15 22:39:39,26.841774795096114
-0.47884035,0.79487497,10.362105,0.0,2017-01-15 22:39:40,27.014843343006632
-0.50757074,0.8331822,10.371682,0.0,2017-01-15 22:39:41,27.454188297478623
-0.47884035,0.80445176,10.381259,0.0,2017-01-15 22:39:42,27.400763555789442
-0.47884035,0.81402856,10.400413,0.0,2017-01-15 22:39:43,28.073341542467013
-0.46926352,0.78529817,10.381259,0.0,2017-01-15 22:39:44,26.810913573001226
-0.45968673,0.7757214,10.342952,0.0,2017-01-15 22:39:45,26.974990578964587
-0.48841715,0.82360536,10.352529,0.0,2017-01-15 22:39:46,26.534175488734313
-0.45010993,0.7565677,10.371682,0.0,2017-01-15 22:39:47,26.669272786495746
-0.45968673,0.7757214,10.362105,0.0,2017-01-15 22:39:48,27.290862895427704
-0.47884035,0.80445176,10.390836,0.0,2017-01-15 22:39:49,27.20541727739732
-0.49799395,0.79487497,10.342952,0.0,2017-01-15 22:39:50,27.935066390712397
-0.47884035,0.80445176,10.409989,0.0,2017-01-15 22:39:51,28.366721714829808
-0.45968673,0.7757214,10.371682,0.0,2017-01-15 22:39:52,29.176581028553127
-0.46926352,0.78529817,10.352529,0.0,2017-01-15 22:39:53,29.431481293585627
-0.46926352,0.79487497,10.352529,0.0,2017-01-15 22:39:54,28.3161985513616
-0.46926352,0.7757214,10.333375,0.0,2017-01-15 22:39:55,27.222507642283276
-0.48841715,0.81402856,10.381259,0.0,2017-01-15 22:39:57,26.818430644905675
-0.49799395,0.81402856,10.371682,0.0,2017-01-15 22:39:58,26.829569263012086
-0.47884035,0.7757214,10.362105,0.0,2017-01-15 22:39:59,27.271064399670642
-0.47884035,0.80445176,10.390836,0.0,2017-01-15 22:40:00,27.24982047966361
-0.46926352,0.7661445,10.342952,0.0,2017-01-15 22:40:01,27.33583422803409
-0.47884035,0.78529817,10.390836,0.0,2017-01-15 22:40:02,27.585973122139528
-0.46926352,0.78529817,10.371682,0.0,2017-01-15 22:40:03,26.376366793074702
-0.48841715,0.80445176,10.333375,0.0,2017-01-15 22:40:04,26.243401182412818
-0.45968673,0.7565677,10.362105,0.0,2017-01-15 22:40:05,25.754729014898942
-0.49799395,0.80445176,10.362105,0.0,2017-01-15 22:40:06,26.96618459232225
-0.45010993,0.7757214,10.371682,0.0,2017-01-15 22:40:07,27.68221733669823
-0.48841715,0.842759,10.419566,0.0,2017-01-15 22:40:08,28.32425079393754
-0.47884035,0.79487497,10.381259,0.0,2017-01-15 22:40:09,29.97227973468323
-0.47884035,0.80445176,10.362105,0.0,2017-01-15 22:40:10,29.66490788666741
-0.49799395,0.81402856,10.381259,0.0,2017-01-15 22:40:11,29.563860636431908
-0.47884035,0.79487497,10.390836,0.0,2017-01-15 22:40:12,27.222816351346047
-0.49799395,0.81402856,10.390836,0.0,2017-01-15 22:40:13,27.730546933642625
-0.46926352,0.81402856,10.381259,0.0,2017-01-15 22:40:14,26.949368250161804
-0.47884035,0.79487497,10.390836,0.0,2017-01-15 22:40:15,27.026593639916875
-0.49799395,0.80445176,10.371682,0.0,2017-01-15 22:40:16,27.095958776012495
-0.50757074,0.8331822,10.419566,0.0,2017-01-15 22:40:18,27.44060612546283
-0.50757074,0.81402856,10.362105,0.0,2017-01-15 22:40:19,27.3033554201163
-0.48841715,0.82360536,10.409989,0.0,2017-01-15 22:40:20,27.35004731448886
-0.48841715,0.79487497,10.371682,0.0,2017-01-15 22:40:21,26.68246099824951
-0.50757074,0.82360536,10.390836,0.0,2017-01-15 22:40:22,26.34713372488948
-0.49799395,0.82360536,10.381259,0.0,2017-01-15 22:40:23,26.69159920313135
-0.47884035,0.78529817,10.333375,0.0,2017-01-15 22:40:24,25.978219737283077
-0.47884035,0.82360536,10.390836,0.0,2017-01-15 22:40:25,26.932046464170337
-0.48841715,0.842759,10.419566,0.0,2017-01-15 22:40:26,26.518259891648622
-0.48841715,0.842759,10.419566,0.0,2017-01-15 22:40:27,26.978965141985384
-0.47884035,0.8331822,10.409989,0.0,2017-01-15 22:40:28,27.74877207708375
-0.47884035,0.79487497,10.400413,0.0,2017-01-15 22:40:29,27.98764986550369
-0.49799395,0.81402856,10.371682,0.0,2017-01-15 22:40:30,27.285769601486287
-0.47884035,0.8331822,10.419566,0.0,2017-01-15 22:40:31,28.426111895634488
-0.47884035,0.82360536,10.400413,0.0,2017-01-15 22:40:32,28.31671850165552
-0.49799395,0.81402856,10.381259,0.0,2017-01-15 22:40:33,28.679478482063523
-0.48841715,0.79487497,10.342952,0.0,2017-01-15 22:40:34,29.54955192725581
-0.49799395,0.80445176,10.362105,0.0,2017-01-15 22:40:35,27.448990073455665
-0.51714754,0.842759,10.371682,0.0,2017-01-15 22:40:36,27.925995932338452
-0.46926352,0.81402856,10.409989,0.0,2017-01-15 22:40:38,26.607587877619782
-0.48841715,0.8331822,10.390836,0.0,2017-01-15 22:40:39,26.548080243586128
-0.46926352,0.8331822,10.419566,0.0,2017-01-15 22:40:40,27.445838825413887
-0.46926352,0.80445176,10.371682,0.0,2017-01-15 22:40:41,26.764563972090155
-0.47884035,0.81402856,10.400413,0.0,2017-01-15 22:40:42,26.824891703176554
-0.48841715,0.80445176,10.390836,0.0,2017-01-15 22:40:43,26.811564059500018
-0.45968673,0.80445176,10.400413,0.0,2017-01-15 22:40:44,26.493805010532082
-0.47884035,0.82360536,10.409989,0.0,2017-01-15 22:40:45,26.338533425865094
-0.50757074,0.8523358,10.400413,0.0,2017-01-15 22:40:46,26.04307070617007
-0.46926352,0.8523358,10.409989,0.0,2017-01-15 22:40:47,26.956403488612395
-0.47884035,0.81402856,10.381259,0.0,2017-01-15 22:40:48,26.28079065381428
-0.47884035,0.8331822,10.362105,0.0,2017-01-15 22:40:49,26.82545553160139
-0.47884035,0.80445176,10.371682,0.0,2017-01-15 22:40:50,27.05871726994941
-0.49799395,0.82360536,10.43872,0.0,2017-01-15 22:40:51,27.219161886802272
-0.48841715,0.80445176,10.400413,0.0,2017-01-15 22:40:52,27.36032777792976
-0.46926352,0.79487497,10.390836,0.0,2017-01-15 22:40:53,26.960258452679984
-0.49799395,0.81402856,10.381259,0.0,2017-01-15 22:40:54,26.4307003271379
-0.48841715,0.80445176,10.381259,0.0,2017-01-15 22:40:55,26.267284152393348
-0.47884035,0.81402856,10.371682,0.0,2017-01-15 22:40:56,26.757840680931082
-0.48841715,0.80445176,10.390836,0.0,2017-01-15 22:40:57,26.83049853935647
-0.48841715,0.8331822,10.400413,0.0,2017-01-15 22:40:59,26.224180364391373
-0.50757074,0.842759,10.409989,0.0,2017-01-15 22:41:00,26.764278086523472
-0.48841715,0.81402856,10.371682,0.0,2017-01-15 22:41:01,25.571574299753
-0.45968673,0.81402856,10.409989,0.0,2017-01-15 22:41:02,26.894587048318343
-0.48841715,0.80445176,10.362105,0.0,2017-01-15 22:41:03,25.740167910037087
-0.48841715,0.80445176,10.390836,0.0,2017-01-15 22:41:04,25.666731376061165
-0.47884035,0.80445176,10.400413,0.0,2017-01-15 22:41:05,25.260604833173375
-0.48841715,0.82360536,10.400413,0.0,2017-01-15 22:41:06,25.458789939024243
-0.46926352,0.7757214,10.352529,0.0,2017-01-15 22:41:07,25.954548847236595
-0.47884035,0.78529817,10.409989,0.0,2017-01-15 22:41:08,26.307710049830725
-0.49799395,0.81402856,10.352529,0.0,2017-01-15 22:41:09,26.264686860292198
-0.48841715,0.80445176,10.381259,0.0,2017-01-15 22:41:10,26.63017386675632
-0.46926352,0.79487497,10.409989,0.0,2017-01-15 22:41:11,26.55624582042364
-0.48841715,0.79487497,10.352529,0.0,2017-01-15 22:41:12,27.384485688247192
-0.49799395,0.80445176,10.371682,0.0,2017-01-15 22:41:13,27.812144130329102
-0.48841715,0.79487497,10.362105,0.0,2017-01-15 22:41:14,28.350441965546963
-0.46926352,0.82360536,10.352529,0.0,2017-01-15 22:41:15,28.510633311847762
-0.47884035,0.82360536,10.419566,0.0,2017-01-15 22:41:16,28.131158409938976
-0.48841715,0.81402856,10.371682,0.0,2017-01-15 22:41:18,28.337525337178743
-0.46926352,0.82360536,10.400413,0.0,2017-01-15 22:41:19,27.791385995219212
-0.45968673,0.81402856,10.371682,0.0,2017-01-15 22:41:20,27.07759074399478
-0.47884035,0.79487497,10.371682,0.0,2017-01-15 22:41:21,26.694418268757012
-0.48841715,0.81402856,10.352529,0.0,2017-01-15 22:41:22,25.861581425118167
-0.47884035,0.78529817,10.352529,0.0,2017-01-15 22:41:23,26.03911967313592
-0.47884035,0.80445176,10.400413,0.0,2017-01-15 22:41:24,26.40726714262536
-0.48841715,0.82360536,10.419566,0.0,2017-01-15 22:41:25,27.0449637703708
-0.47884035,0.79487497,10.381259,0.0,2017-01-15 22:41:26,27.62945696423541
-0.49799395,0.80445176,10.352529,0.0,2017-01-15 22:41:27,27.829337276008083
-0.50757074,0.8331822,10.362105,0.0,2017-01-15 22:41:28,27.396193113727833
-0.48841715,0.82360536,10.381259,0.0,2017-01-15 22:41:29,27.577399305100915
-0.48841715,0.8331822,10.43872,0.0,2017-01-15 22:41:30,27.539802145647503
-0.49799395,0.81402856,10.381259,0.0,2017-01-15 22:41:31,26.998214720270933
-0.49799395,0.8331822,10.390836,0.0,2017-01-15 22:41:32,28.313057527960588
-0.49799395,0.78529817,10.342952,0.0,2017-01-15 22:41:33,28.573324964312686
-0.45968673,0.7757214,10.362105,0.0,2017-01-15 22:41:34,28.54055414989141
-0.49799395,0.82360536,10.381259,0.0,2017-01-15 22:41:35,28.900785345412544
-0.45968673,0.78529817,10.400413,0.0,2017-01-15 22:41:36,29.836319243475785
-0.45010993,0.81402856,10.371682,0.0,2017-01-15 22:41:38,29.56913933631383
-0.47884035,0.80445176,10.390836,0.0,2017-01-15 22:41:39,28.04735581340288
-0.48841715,0.80445176,10.381259,0.0,2017-01-15 22:41:40,28.175839605352294
-0.46926352,0.80445176,10.390836,0.0,2017-01-15 22:41:41,26.880581301745888
-0.45968673,0.7757214,10.362105,0.0,2017-01-15 22:41:42,27.01948257897785
-0.48841715,0.80445176,10.371682,0.0,2017-01-15 22:41:43,26.503803852211778
-0.49799395,0.82360536,10.390836,0.0,2017-01-15 22:41:44,26.083053537830473
-0.47884035,0.80445176,10.400413,0.0,2017-01-15 22:41:45,26.63868699279429
-0.45968673,0.79487497,10.390836,0.0,2017-01-15 22:41:46,26.511962125516764
-0.45968673,0.80445176,10.400413,0.0,2017-01-15 22:41:47,27.140257310554272
-0.49799395,0.78529817,10.342952,0.0,2017-01-15 22:41:48,27.461426154662437
-0.48841715,0.78529817,10.371682,0.0,2017-01-15 22:41:49,27.81340173767378
-0.46926352,0.81402856,10.371682,0.0,2017-01-15 22:41:50,27.16052929717115
-0.45010993,0.79487497,10.409989,0.0,2017-01-15 22:41:51,27.387756052800064
-0.45968673,0.82360536,10.381259,0.0,2017-01-15 22:41:52,25.93725540054343
-0.47884035,0.842759,10.371682,0.0,2017-01-15 22:41:53,26.506626104124695
-0.48841715,0.81402856,10.371682,0.0,2017-01-15 22:41:54,26.20919707315111
-0.45968673,0.79487497,10.381259,0.0,2017-01-15 22:41:55,26.12108056233187
-0.47884035,0.79487497,10.390836,0.0,2017-01-15 22:41:56,26.51396144448443
-0.46926352,0.79487497,10.381259,0.0,2017-01-15 22:41:57,25.993507898369394
-0.47884035,0.80445176,10.409989,0.0,2017-01-15 22:41:59,25.72007088514375
-0.48841715,0.82360536,10.400413,0.0,2017-01-15 22:42:00,26.47178123597268
-0.48841715,0.80445176,10.390836,0.0,2017-01-15 22:42:01,26.155654045653062
-0.46926352,0.7661445,10.371682,0.0,2017-01-15 22:42:02,26.4856430091851
-0.48841715,0.8331822,10.400413,0.0,2017-01-15 22:42:03,26.239660600068362
-0.48841715,0.82360536,10.390836,0.0,2017-01-15 22:42:04,26.4289093838325
-0.47884035,0.78529817,10.362105,0.0,2017-01-15 22:42:05,25.40935280857517
-0.45968673,0.79487497,10.342952,0.0,2017-01-15 22:42:06,25.484278088053767
-0.45010993,0.80445176,10.381259,0.0,2017-01-15 22:42:07,25.71457700909707
-0.46926352,0.80445176,10.400413,0.0,2017-01-15 22:42:08,27.271242480442332
-0.48841715,0.82360536,10.381259,0.0,2017-01-15 22:42:09,27.637320804126617
-0.47884035,0.82360536,10.371682,0.0,2017-01-15 22:42:10,28.083270450697455
-0.45968673,0.80445176,10.381259,0.0,2017-01-15 22:42:11,28.580124339801564
-0.48841715,0.80445176,10.371682,0.0,2017-01-15 22:42:12,29.095577006299
-0.50757074,0.8331822,10.400413,0.0,2017-01-15 22:42:13,28.38809750687235
-0.47884035,0.8331822,10.409989,0.0,2017-01-15 22:42:14,28.486643477393446
-0.45968673,0.82360536,10.390836,0.0,2017-01-15 22:42:15,28.049886970782016
-0.50757074,0.842759,10.371682,0.0,2017-01-15 22:42:16,26.1614717450504
-0.48841715,0.79487497,10.371682,0.0,2017-01-15 22:42:17,26.186559450323262
-0.47884035,0.80445176,10.390836,0.0,2017-01-15 22:42:19,26.333453459462618
-0.46926352,0.82360536,10.409989,0.0,2017-01-15 22:42:20,26.126812292827925
-0.47884035,0.80445176,10.390836,0.0,2017-01-15 22:42:21,26.807178460828073
-0.47884035,0.82360536,10.400413,0.0,2017-01-15 22:42:22,27.150862861625882
-0.48841715,0.8331822,10.409989,0.0,2017-01-15 22:42:23,27.501490661908203
-0.45968673,0.81402856,10.371682,0.0,2017-01-15 22:42:24,27.541523619926934
-0.47884035,0.80445176,10.409989,0.0,2017-01-15 22:42:25,27.208928480419395
-0.48841715,0.80445176,10.409989,0.0,2017-01-15 22:42:26,27.344947965778893
-0.47884035,0.81402856,10.409989,0.0,2017-01-15 22:42:27,26.485368645732372
-0.48841715,0.78529817,10.381259,0.0,2017-01-15 22:42:28,28.18064983443588
-0.48841715,0.79487497,10.362105,0.0,2017-01-15 22:42:29,28.15276742373731
-0.48841715,0.79487497,10.362105,0.0,2017-01-15 22:42:30,29.153305694814872
-0.47884035,0.80445176,10.352529,0.0,2017-01-15 22:42:31,29.393460618850845
-0.46926352,0.79487497,10.371682,0.0,2017-01-15 22:42:32,30.269747906276745
-0.47884035,0.82360536,10.381259,0.0,2017-01-15 22:42:33,27.936376216243296
-0.46926352,0.81402856,10.419566,0.0,2017-01-15 22:42:34,27.584103483863153
-0.48841715,0.7661445,10.362105,0.0,2017-01-15 22:42:35,26.657978496070513
-0.47884035,0.7661445,10.371682,0.0,2017-01-15 22:42:36,26.183913414607694
-0.47884035,0.8331822,10.400413,0.0,2017-01-15 22:42:38,26.906279439275927
-0.48841715,0.81402856,10.381259,0.0,2017-01-15 22:42:39,26.64151119409705
-0.47884035,0.7661445,10.371682,0.0,2017-01-15 22:42:40,27.387483616461694
-0.49799395,0.81402856,10.400413,0.0,2017-01-15 22:42:41,26.842561072093226
-0.47884035,0.78529817,10.371682,0.0,2017-01-15 22:42:42,27.45959955106818
-0.46926352,0.79487497,10.381259,0.0,2017-01-15 22:42:43,27.035949556330408
-0.50757074,0.842759,10.381259,0.0,2017-01-15 22:42:44,26.730295514394008
-0.47884035,0.80445176,10.381259,0.0,2017-01-15 22:42:45,26.73944873985281
-0.45968673,0.80445176,10.362105,0.0,2017-01-15 22:42:46,25.653496581154073
-0.48841715,0.82360536,10.390836,0.0,2017-01-15 22:42:47,27.029795201370494
-0.46926352,0.82360536,10.409989,0.0,2017-01-15 22:42:48,25.824007479907706
-0.46926352,0.79487497,10.371682,0.0,2017-01-15 22:42:49,25.986263846416545
-0.45010993,0.82360536,10.409989,0.0,2017-01-15 22:42:50,27.322052230360253
-0.45968673,0.81402856,10.448297,0.0,2017-01-15 22:42:51,27.172621199996954
-0.45968673,0.7757214,10.323798,0.0,2017-01-15 22:42:52,27.03095148786428
-0.45968673,0.7757214,10.352529,0.0,2017-01-15 22:42:53,25.7073990379654
-0.46926352,0.7757214,10.333375,0.0,2017-01-15 22:42:54,26.80009556927994
-0.45968673,0.7661445,10.381259,0.0,2017-01-15 22:42:55,25.666989035675464
-0.46926352,0.7661445,10.333375,0.0,2017-01-15 22:42:56,26.713059349672296
-0.46926352,0.81402856,10.429143,0.0,2017-01-15 22:42:57,25.86520495816051
-0.46926352,0.79487497,10.419566,0.0,2017-01-15 22:42:58,25.828052644176317
-0.46926352,0.79487497,10.371682,0.0,2017-01-15 22:42:59,25.635700710482215
-0.48841715,0.842759,10.400413,0.0,2017-01-15 22:43:01,26.66795760610341
-0.46926352,0.80445176,10.371682,0.0,2017-01-15 22:43:02,26.860438487310653
-0.47884035,0.80445176,10.400413,0.0,2017-01-15 22:43:03,26.085861995192605
-0.48841715,0.78529817,10.381259,0.0,2017-01-15 22:43:04,25.687772229434692
-0.48841715,0.81402856,10.381259,0.0,2017-01-15 22:43:05,25.76308949707275
-0.49799395,0.82360536,10.381259,0.0,2017-01-15 22:43:06,25.580745118449933
-0.47884035,0.80445176,10.400413,0.0,2017-01-15 22:43:07,24.85512922183249
-0.46926352,0.7757214,10.381259,0.0,2017-01-15 22:43:08,25.41114905976224
-0.45968673,0.79487497,10.419566,0.0,2017-01-15 22:43:09,25.812240912847596
-0.48841715,0.82360536,10.390836,0.0,2017-01-15 22:43:10,26.317765920974278
-0.47884035,0.78529817,10.352529,0.0,2017-01-15 22:43:11,27.485126571014476
-0.46926352,0.81402856,10.429143,0.0,2017-01-15 22:43:12,27.437424301456247
-0.47884035,0.82360536,10.409989,0.0,2017-01-15 22:43:13,27.930260314466445
-0.46926352,0.80445176,10.381259,0.0,2017-01-15 22:43:14,28.774541361634217
-0.49799395,0.79487497,10.362105,0.0,2017-01-15 22:43:15,27.94703659027645
-0.46926352,0.7661445,10.342952,0.0,2017-01-15 22:43:16,28.98510928898
-0.45968673,0.79487497,10.371682,0.0,2017-01-15 22:43:17,27.072134397916884
-0.45968673,0.79487497,10.371682,0.0,2017-01-15 22:43:18,26.077732551715272
-0.46926352,0.79487497,10.362105,0.0,2017-01-15 22:43:19,26.91332951883268
-0.45968673,0.78529817,10.381259,0.0,2017-01-15 22:43:21,26.91476577831771
-0.47884035,0.78529817,10.333375,0.0,2017-01-15 22:43:22,26.52596827044836
-0.46926352,0.79487497,10.409989,0.0,2017-01-15 22:43:23,26.329126070772798
-0.47884035,0.79487497,10.381259,0.0,2017-01-15 22:43:24,26.38367562572845
-0.45968673,0.7565677,10.362105,0.0,2017-01-15 22:43:25,25.634736691001816
-0.47884035,0.79487497,10.381259,0.0,2017-01-15 22:43:26,26.41501996668845
-0.45968673,0.78529817,10.390836,0.0,2017-01-15 22:43:27,26.08278597095667
-0.46926352,0.79487497,10.409989,0.0,2017-01-15 22:43:28,25.656670708963354
-0.49799395,0.80445176,10.381259,0.0,2017-01-15 22:43:29,25.77635391996544
-0.48841715,0.79487497,10.390836,0.0,2017-01-15 22:43:30,25.684584101363008
-0.4405331,0.79487497,10.390836,0.0,2017-01-15 22:43:31,25.34767551256386
-0.45010993,0.7661445,10.362105,0.0,2017-01-15 22:43:32,26.283857366967926
-0.45968673,0.79487497,10.390836,0.0,2017-01-15 22:43:33,26.021108822307298
-0.49799395,0.79487497,10.342952,0.0,2017-01-15 22:43:34,25.566039894860268
-0.47884035,0.79487497,10.390836,0.0,2017-01-15 22:43:35,25.5942779975949
-0.48841715,0.7757214,10.362105,0.0,2017-01-15 22:43:36,25.93185652511196
-0.47884035,0.80445176,10.400413,0.0,2017-01-15 22:43:37,25.703458865984317
-0.47884035,0.7661445,10.314221,0.0,2017-01-15 22:43:38,25.12484275877902
-0.49799395,0.82360536,10.400413,0.0,2017-01-15 22:43:39,26.20106762541544
-0.48841715,0.81402856,10.43872,0.0,2017-01-15 22:43:40,25.160062303860474
-0.50757074,0.8523358,10.371682,0.0,2017-01-15 22:43:42,25.030966530899214
-0.47884035,0.82360536,10.409989,0.0,2017-01-15 22:43:43,24.99179995268321
-0.45968673,0.7757214,10.352529,0.0,2017-01-15 22:43:44,24.932009185655385
-0.45968673,0.79487497,10.362105,0.0,2017-01-15 22:43:45,25.92638158357841
-0.47884035,0.80445176,10.371682,0.0,2017-01-15 22:43:46,24.808106143753314
-0.50757074,0.842759,10.400413,0.0,2017-01-15 22:43:47,26.994501770600287
-0.4405331,0.81402856,10.429143,0.0,2017-01-15 22:43:48,26.073410729860935
-0.47884035,0.79487497,10.371682,0.0,2017-01-15 22:43:49,26.266931524847887
-0.48841715,0.82360536,10.371682,0.0,2017-01-15 22:43:50,25.600374619622087
-0.47884035,0.7661445,10.362105,0.0,2017-01-15 22:43:51,26.188551080223338
-0.45968673,0.80445176,10.362105,0.0,2017-01-15 22:43:52,26.40077514332488
-0.48841715,0.82360536,10.371682,0.0,2017-01-15 22:43:53,26.364534172184154
-0.46926352,0.7757214,10.362105,0.0,2017-01-15 22:43:54,26.69627726934332
-0.47884035,0.78529817,10.362105,0.0,2017-01-15 22:43:55,27.23345339834308
-0.47884035,0.80445176,10.342952,0.0,2017-01-15 22:43:56,27.271598620080812
-0.49799395,0.78529817,10.362105,0.0,2017-01-15 22:43:57,28.037045793294787
-0.46926352,0.79487497,10.371682,0.0,2017-01-15 22:43:58,26.956047894046122
-0.48841715,0.79487497,10.342952,0.0,2017-01-15 22:43:59,27.5017319151757
-0.46926352,0.79487497,10.352529,0.0,2017-01-15 22:44:00,26.87927290492884
-0.46926352,0.7661445,10.362105,0.0,2017-01-15 22:44:02,26.732628828086007
-0.46926352,0.78529817,10.381259,0.0,2017-01-15 22:44:03,28.256857080217582
-0.47884035,0.7757214,10.362105,0.0,2017-01-15 22:44:04,27.855833960730763
-0.48841715,0.80445176,10.381259,0.0,2017-01-15 22:44:05,29.157608276497736
-0.45968673,0.7757214,10.362105,0.0,2017-01-15 22:44:06,28.507706405883077
-0.45010993,0.78529817,10.381259,0.0,2017-01-15 22:44:07,30.18431321162341
-0.46926352,0.7757214,10.362105,0.0,2017-01-15 22:44:08,27.282446873462543
-0.48841715,0.82360536,10.409989,0.0,2017-01-15 22:44:09,27.105219466788654
-0.47884035,0.81402856,10.371682,0.0,2017-01-15 22:44:10,26.21322364049398
-0.48841715,0.80445176,10.400413,0.0,2017-01-15 22:44:11,26.52826302561005
-0.45968673,0.78529817,10.390836,0.0,2017-01-15 22:44:12,27.72312536556809
-0.47884035,0.80445176,10.371682,0.0,2017-01-15 22:44:13,27.22356230766536
-0.45010993,0.7661445,10.342952,0.0,2017-01-15 22:44:14,27.17927821116005
-0.47884035,0.78529817,10.333375,0.0,2017-01-15 22:44:15,26.92210537777905
-0.45010993,0.7565677,10.371682,0.0,2017-01-15 22:44:16,27.483794427634738
-0.47884035,0.82360536,10.381259,0.0,2017-01-15 22:44:17,26.417559881710993
-0.4405331,0.78529817,10.362105,0.0,2017-01-15 22:44:18,27.06181515780134
-0.46926352,0.7757214,10.333375,0.0,2017-01-15 22:44:19,27.193286969564312
-0.48841715,0.78529817,10.342952,0.0,2017-01-15 22:44:20,28.026796749652746
-0.46926352,0.7757214,10.362105,0.0,2017-01-15 22:44:21,29.144935604191442
-0.45010993,0.7661445,10.362105,0.0,2017-01-15 22:44:23,28.682457358896933
-0.47884035,0.7757214,10.333375,0.0,2017-01-15 22:44:24,30.086148076651156
-0.48841715,0.82360536,10.362105,0.0,2017-01-15 22:44:25,27.947863909096682
-0.47884035,0.7757214,10.342952,0.0,2017-01-15 22:44:26,27.895763057451365
-0.46926352,0.7565677,10.333375,0.0,2017-01-15 22:44:27,26.655047717454842
-0.46926352,0.79487497,10.371682,0.0,2017-01-15 22:44:28,26.33610461805747
-0.46926352,0.7757214,10.352529,0.0,2017-01-15 22:44:29,27.3736411937424
-0.48841715,0.82360536,10.409989,0.0,2017-01-15 22:44:30,27.1850428383133
-0.46926352,0.78529817,10.381259,0.0,2017-01-15 22:44:31,27.899198722612436
-0.46926352,0.81402856,10.429143,0.0,2017-01-15 22:44:32,27.561604817807176
-0.47884035,0.7757214,10.352529,0.0,2017-01-15 22:44:33,27.585310557613433
-0.45010993,0.79487497,10.400413,0.0,2017-01-15 22:44:34,26.71198885713116
-0.45968673,0.81402856,10.429143,0.0,2017-01-15 22:44:35,27.195384391373814
-0.46926352,0.79487497,10.390836,0.0,2017-01-15 22:44:36,26.635595918259224
-0.45968673,0.7757214,10.352529,0.0,2017-01-15 22:44:37,27.3054508450527
-0.48841715,0.80445176,10.381259,0.0,2017-01-15 22:44:38,27.42673590135434
-0.47884035,0.81402856,10.390836,0.0,2017-01-15 22:44:39,28.70349029699478
-0.47884035,0.80445176,10.419566,0.0,2017-01-15 22:44:40,28.576716565280865
-0.47884035,0.81402856,10.371682,0.0,2017-01-15 22:44:42,29.37470874336432
-0.49799395,0.80445176,10.400413,0.0,2017-01-15 22:44:43,29.067473853378786
-0.48841715,0.80445176,10.371682,0.0,2017-01-15 22:44:44,28.145097918018468
-0.47884035,0.81402856,10.371682,0.0,2017-01-15 22:44:45,27.89349314690572
-0.48841715,0.79487497,10.333375,0.0,2017-01-15 22:44:46,26.531763210604677
-0.48841715,0.80445176,10.362105,0.0,2017-01-15 22:44:47,27.04002973273949
-0.46926352,0.842759,10.429143,0.0,2017-01-15 22:44:48,30.274502688314236
-0.50757074,0.82360536,10.419566,0.0,2017-01-15 22:44:49,30.437281299762184
-0.51714754,0.842759,10.400413,0.0,2017-01-15 22:44:50,29.25321762438926
-0.50757074,0.81402856,10.390836,0.0,2017-01-15 22:44:51,28.042246465967647
-0.50757074,0.82360536,10.381259,0.0,2017-01-15 22:44:52,27.862854766072157
-0.47884035,0.80445176,10.419566,0.0,2017-01-15 22:44:53,27.235864948303373
-0.47884035,0.8523358,10.409989,0.0,2017-01-15 22:44:54,27.04753582731703
-0.51714754,0.8523358,10.371682,0.0,2017-01-15 22:44:55,27.00595562622756
-0.47884035,0.80445176,10.362105,0.0,2017-01-15 22:44:56,27.398021867775707
-0.47884035,0.81402856,10.362105,0.0,2017-01-15 22:44:57,28.095470896121736
-0.48841715,0.82360536,10.371682,0.0,2017-01-15 22:44:58,32.69993525100608
-0.48841715,0.8523358,10.43872,0.0,2017-01-15 22:44:59,30.574010064086174
-0.51714754,0.8810662,10.400413,0.0,2017-01-15 22:45:00,31.91932830740047
-0.50757074,0.81402856,10.419566,0.0,2017-01-15 22:45:01,27.921639754444058
-0.47884035,0.80445176,10.390836,0.0,2017-01-15 22:45:03,30.3261876085072
-0.48841715,0.80445176,10.381259,0.0,2017-01-15 22:45:04,29.14838795110509
-0.50757074,0.8523358,10.429143,0.0,2017-01-15 22:45:05,29.5615641995304
-0.50757074,0.8331822,10.390836,0.0,2017-01-15 22:45:06,29.525245576149022
-0.49799395,0.8331822,10.409989,0.0,2017-01-15 22:45:07,26.537309448495478
-0.47884035,0.7757214,10.371682,0.0,2017-01-15 22:45:08,30.818185730293308
-0.47884035,0.79487497,10.381259,0.0,2017-01-15 22:45:09,27.659478138932126
-0.47884035,0.78529817,10.390836,0.0,2017-01-15 22:45:10,28.696441769283506
-0.49799395,0.8331822,10.409989,0.0,2017-01-15 22:45:11,26.356659212742613
-0.46926352,0.82360536,10.409989,0.0,2017-01-15 22:45:12,26.86477065796215
-0.48841715,0.81402856,10.390836,0.0,2017-01-15 22:45:13,27.261947090011148
-0.46926352,0.78529817,10.381259,0.0,2017-01-15 22:45:14,27.70426249626395
-0.48841715,0.842759,10.409989,0.0,2017-01-15 22:45:15,28.288491342382724
-0.4405331,0.82360536,10.419566,0.0,2017-01-15 22:45:16,27.120812119326082
-0.48841715,0.8331822,10.400413,0.0,2017-01-15 22:45:17,28.334957308291713
-0.48841715,0.81402856,10.390836,0.0,2017-01-15 22:45:18,29.709770525214537
-0.45010993,0.78529817,10.381259,0.0,2017-01-15 22:45:19,29.174644807023494
-0.47884035,0.82360536,10.419566,0.0,2017-01-15 22:45:20,30.178690214282092
