ACC_X,ACC_Y,ACC_Z,GYRO_X,GYRO_Y,GYRO_Z,LIGH_1,GRAV_X,GRAV_Y,GRAV_Z,LINACC_X,LINACC_Y,LINACC_Z,ROTVEC_X,ROTVEC_Y,ROTVEC_Z,TIME,VOICE
0.21068975,0.16280572,10.01734,-5.326322E-4,-0.005060006,0.0026631611,2.0,0.19271953,0.16292103,9.803403,0.01797022,-1.15305185E-4,0.2139368,0.012068122,-0.0044651977,0.49215618,2017-01-12 16:51:22,-Infinity
0.20111294,0.16280572,9.988609,-7.9894834E-4,-0.0077231675,-0.004261058,2.0,0.17392942,0.16613822,9.8037,0.027183518,-0.0033324957,0.18490887,0.011719542,-0.0035703394,0.48932406,2017-01-12 16:51:23,33.897154983592614
0.21068975,0.16280572,9.969456,-0.0018642128,-0.0037284256,2.663161E-4,5.0,0.17026938,0.16705503,9.803748,0.04042037,-0.0042493045,0.16570759,0.011689095,-0.0033614007,0.4924244,2017-01-12 16:51:24,35.452249653115445
0.19153613,0.16280572,9.9790325,-7.9894834E-4,0.0055926386,-0.002130529,5.0,0.16637963,0.17527682,9.803672,0.025156498,-0.012471095,0.17536068,0.011952189,-0.0029988165,0.49122304,2017-01-12 16:51:25,37.913024481472895
0.20111294,0.16280572,9.959879,-0.0013315806,0.004527374,-0.0063915867,5.0,0.16649415,0.17606993,9.803656,0.034618795,-0.013264209,0.1562233,0.011998484,-0.0029934675,0.4905597,2017-01-12 16:51:26,41.94733206910222
0.22026655,0.17238252,9.9790325,-0.0053263223,-0.0010652645,-0.0034621095,5.0,0.17200379,0.16939971,9.8036785,0.04826276,0.0029828101,0.175354,0.011834126,-0.0033885723,0.49175632,2017-01-12 16:51:27,42.864582786797854
0.19153613,0.18195933,9.959879,-0.0039947415,-0.0026631611,-0.0058589545,5.0,0.18378672,0.16427508,9.803552,0.0077494085,0.017684251,0.15632725,0.011900104,-0.0040461537,0.4913208,2017-01-12 16:51:28,41.69304733018308
0.21068975,0.16280572,9.969456,0.0010652645,0.0015978967,-0.0063915867,5.0,0.18438917,0.16636288,9.803505,0.02630058,-0.0035571605,0.16595078,0.012008899,-0.0040177125,0.49152994,2017-01-12 16:51:29,40.27920023279985
0.21068975,0.16280572,9.969456,-2.663161E-4,0.005060006,0.004261058,5.0,0.19299038,0.16944717,9.803287,0.008122563,-0.0066414475,0.16616917,0.012331617,-0.0043867473,0.4877182,2017-01-12 16:51:30,40.529280477852765
0.21068975,0.17238252,9.959879,0.0010652645,0.011185277,-0.0034621095,5.0,0.19866599,0.16261785,9.803289,0.012023762,0.009764671,0.15658951,0.012176461,-0.0048069544,0.48713458,2017-01-12 16:51:31,39.18922980271179
0.21068975,0.16280572,9.969456,0.0039947415,0.0039947415,-0.004261058,5.0,0.19981377,0.16197263,9.803276,0.010875985,8.330941E-4,0.16617966,0.012192402,-0.004833537,0.49003845,2017-01-12 16:51:32,38.23681219622073
0.20111294,0.16280572,10.007763,0.00479369,0.015978966,-0.0037284256,5.0,0.19716285,0.16654247,9.803253,0.003950089,-0.0037367493,0.20450974,0.012315805,-0.0046374635,0.4874935,2017-01-12 16:51:33,39.83814468184373
0.21068975,0.16280572,9.950302,-0.0034621095,-0.0058589545,-0.002130529,3.0,0.20385928,0.16289997,9.803178,0.006830469,-9.4249845E-5,0.14712429,0.012335388,-0.004988601,0.49014923,2017-01-12 16:51:34,40.91624414970701
0.19153613,0.17238252,10.055647,-0.0010652645,0.008522116,-5.326322E-4,0.0,0.20370497,0.1599209,9.803229,-0.01216884,0.012461618,0.25241756,0.012193238,-0.0050703464,0.48913854,2017-01-12 16:51:35,44.45721430530067
0.22984336,0.16280572,9.969456,0.0058589545,0.004261058,-0.0018642128,3.0,0.26626873,0.149111,9.8019,-0.036425367,0.0136947185,0.16755581,0.012828243,-0.008809047,0.44261125,2017-01-12 16:51:36,40.461368981608786
0.24899697,0.16280572,9.959879,0.0010652645,-0.008255799,7.9894834E-4,3.0,0.25386697,0.16297817,9.802009,-0.014446795,0.009404346,0.1578703,0.013149887,-0.007982643,0.43895265,2017-01-12 16:51:37,43.82578144227188
0.23942018,0.17238252,9.959879,0.008788432,0.006657903,-0.00958738,3.0,0.24543004,0.16476095,9.802194,-0.006009862,-0.001955226,0.16726208,0.01302228,-0.0075911903,0.43653822,2017-01-12 16:51:38,38.57601668875212
0.23942018,0.15322891,9.959879,0.002396845,-0.005060006,-0.0018642128,0.0,0.24260587,0.16365626,9.802283,-0.0031856894,-0.010427356,0.15759563,0.012933052,-0.0074440576,0.4394713,2017-01-12 16:51:39,42.935248169401945
0.24899697,0.16280572,9.988609,0.0013315806,0.002130529,-0.0063915867,3.0,0.23751701,0.17005521,9.802299,0.011479959,-0.0072494894,0.18631077,0.013085733,-0.00711623,0.43613154,2017-01-12 16:51:40,40.15787481278937
0.22984336,0.17238252,9.959879,-5.326322E-4,0.0015978967,5.326322E-4,3.0,0.23651989,0.16725078,9.802371,-0.006676525,0.0051317364,0.1575079,0.012953467,-0.0070989747,0.43848467,2017-01-12 16:51:41,65.64539570219908
0.23942018,0.17238252,9.969456,0.002396845,0.0058589545,-7.9894834E-4,0.0,0.2350333,0.16411537,9.802459,0.004386872,0.008267149,0.16699696,0.01274162,-0.0071633607,0.43408456,2017-01-12 16:51:42,44.5327607243769
0.22984336,0.16280572,9.959879,-0.0015978967,0.0018642128,-0.0037284256,0.0,0.23100042,0.17083527,9.802441,-0.0011570603,-0.00802955,0.15743828,0.012980008,-0.0067932224,0.4365919,2017-01-12 16:51:43,43.56790407300984
0.24899697,0.17238252,9.9790325,0.005060006,0.0058589545,0.0015978967,3.0,0.23342034,0.17322385,9.802341,0.015576631,-8.4133446E-4,0.17669106,0.013162234,-0.006814994,0.43905634,2017-01-12 16:51:44,49.50883724467659
0.24899697,0.16280572,9.959879,0.0010652645,0.006924219,-0.0034621095,0.0,0.23837297,0.16192514,9.802415,0.010624006,8.805841E-4,0.15746403,0.012704872,-0.0073826425,0.43285197,2017-01-12 16:51:45,41.52973821897524
0.22984336,0.16280572,9.9790325,0.011185277,0.0010652645,-0.0055926386,3.0,0.23830643,0.16216584,9.802413,-0.018039882,0.010216683,0.21492672,0.012767948,-0.007281283,0.43941864,2017-01-12 16:51:46,40.11299835615759
0.22984336,0.17238252,9.959879,-0.006657903,7.9894834E-4,-0.0010652645,0.0,0.2336495,0.16781324,9.80243,-0.003806144,0.004569277,0.15744877,0.012932551,-0.006922225,0.44075224,2017-01-12 16:51:47,39.51316062628753
0.23942018,0.18195933,9.969456,-0.007989483,-0.0034621095,-0.009853696,3.0,0.2347788,0.16913503,9.802381,0.004641369,0.012824297,0.16707516,0.012997978,-0.006982454,0.43811128,2017-01-12 16:51:48,40.24950579536018
0.23942018,0.18195933,10.007763,-0.0010652645,0.0034621095,0.0039947415,3.0,0.23379783,0.16809526,9.802422,0.005622342,0.01386407,0.20534134,0.012948065,-0.006924042,0.44065747,2017-01-12 16:51:49,53.84865972173864
0.23942018,0.16280572,9.9790325,0.0010652645,0.008788432,-0.002396845,3.0,0.22869909,0.16817418,9.802541,0.010721087,-0.0053684562,0.17649174,0.01281064,-0.006739325,0.43712372,2017-01-12 16:51:50,38.899395999907895
0.23942018,0.16280572,9.969456,-0.010652645,-0.002396845,0.0015978967,3.0,0.22642857,0.17110662,9.802543,0.012991607,-0.0083009,0.16691303,0.012912041,-0.0065353033,0.43952838,2017-01-12 16:51:51,36.727060088942835
0.22026655,0.18195933,9.950302,0.0010652645,-0.0034621095,-0.0018642128,3.0,0.22981158,0.16394714,9.802587,3.1784177E-5,-0.001141414,0.15729237,0.012703698,-0.00680209,0.44269043,2017-01-12 16:51:52,35.30363008338993
0.22984336,0.16280572,9.959879,-0.0018642128,-0.00479369,0.0013315806,3.0,0.2299896,0.16286929,9.8026,-1.4624E-4,-6.3568354E-5,0.15727901,0.012646824,-0.0068235733,0.44375154,2017-01-12 16:51:53,38.0804649599319
0.24899697,0.16280572,9.950302,0.005060006,0.004261058,-0.0010652645,3.0,0.22706856,0.16922924,9.80256,0.021928415,-0.006423518,0.14774227,0.01285472,-0.0065787802,0.44147876,2017-01-12 16:51:54,36.58081122102833
0.22984336,0.17238252,9.959879,0.002130529,0.0013315806,5.326322E-4,3.0,0.23073271,0.16698706,9.802513,-8.89346E-4,0.005395457,0.1573658,0.012782855,-0.0068938136,0.43467832,2017-01-12 16:51:55,35.087155916426404
0.24899697,0.17238252,9.969456,-0.007190535,0.0013315806,-0.009054748,3.0,0.23247986,0.16146825,9.802565,0.016517118,0.010914266,0.1668911,0.012580364,-0.00707468,0.43623152,2017-01-12 16:51:56,37.578979022371534
0.22984336,0.17238252,9.940725,5.326322E-4,-2.663161E-4,7.9894834E-4,3.0,0.23211339,0.16401191,9.80253,-0.002270028,0.008370608,0.13819504,0.012720897,-0.006943036,0.4403516,2017-01-12 16:51:57,34.79291717816776
0.23942018,0.18195933,9.959879,2.663161E-4,0.00479369,-0.0018642128,3.0,0.234931,0.16317812,9.802478,0.0044891685,0.018781215,0.15740108,0.0127658695,-0.0070549557,0.44286904,2017-01-12 16:51:58,34.76183292439825
0.22984336,0.17238252,9.969456,0.004527374,-0.0029294773,-0.004527374,3.0,0.2354163,0.1606618,9.802507,-0.00557293,0.011720717,0.16694832,0.012650486,-0.0071539744,0.44145155,2017-01-12 16:51:59,37.788713607120286
0.23942018,0.16280572,9.959879,-0.0039947415,-0.004527374,-0.015180019,3.0,0.23209557,0.16114953,9.802579,0.007324606,0.0016561896,0.1573,0.012601202,-0.006985317,0.44186062,2017-01-12 16:52:00,37.410963123339634
0.24899697,0.17238252,9.940725,-2.663161E-4,0.006657903,-0.0053263223,3.0,0.23875608,0.16464028,9.802361,0.010240898,0.007742241,0.13836479,0.012911746,-0.0072100833,0.44194713,2017-01-12 16:52:01,33.95156205227551
0.23942018,0.17238252,9.950302,-0.005060006,-0.0018642128,-0.004527374,3.0,0.23979437,0.1647676,9.802334,-3.7419796E-4,0.0076149255,0.14796829,0.012947941,-0.007242281,0.44280785,2017-01-12 16:52:02,36.04656173276411
0.23942018,0.17238252,9.940725,-0.0037284256,-0.0037284256,0.0037284256,3.0,0.23714879,0.1630419,9.802426,0.002271384,0.009340614,0.13829899,0.012820564,-0.0071400427,0.44422424,2017-01-12 16:52:03,34.582167779467916
0.23942018,0.17238252,9.959879,-0.004527374,0.0018642128,7.9894834E-4,3.0,0.22976854,0.16686018,9.802538,0.009651631,0.0055223405,0.157341,0.012755393,-0.0068528242,0.4346449,2017-01-12 16:52:04,37.63579283891923
0.23942018,0.17238252,9.959879,0.010386328,0.0077231675,5.326322E-4,3.0,0.2304771,0.16703983,9.802518,0.008943081,0.005342692,0.15736103,0.01282007,-0.0068052285,0.43999454,2017-01-12 16:52:05,40.43620507103445
0.24899697,0.16280572,9.959879,0.0018642128,-0.006924219,0.002130529,3.0,0.2366276,0.16497853,9.802406,0.012369379,-0.0021728128,0.15747261,0.012817889,-0.007215172,0.4342474,2017-01-12 16:52:06,38.94840994822525
0.24899697,0.17238252,9.950302,-0.0015978967,-0.002396845,0.0013315806,3.0,0.23364319,0.16887613,9.802412,0.0057769865,-0.0060704052,0.15746689,0.012956999,-0.006943142,0.4376287,2017-01-12 16:52:07,38.984866593070066
0.22984336,0.18195933,9.959879,-0.002130529,-7.9894834E-4,2.663161E-4,3.0,0.22859529,0.16524647,9.802593,0.0012480766,0.007136047,0.1477089,0.012712072,-0.0067284587,0.44217315,2017-01-12 16:52:08,38.84256959431451
0.22984336,0.16280572,9.959879,0.0029294773,0.0018642128,0.0034621095,3.0,0.22876333,0.16292313,9.8026285,0.0010800362,-1.1740625E-4,0.1668272,0.012626445,-0.00675713,0.44440377,2017-01-12 16:52:09,39.75711418424036
0.22984336,0.16280572,9.969456,-0.007190535,0.0026631611,7.9894834E-4,3.0,0.23285028,0.16404544,9.802513,-0.0030069202,0.0083370805,0.1669426,0.012765322,-0.006927712,0.44374904,2017-01-12 16:52:10,38.57129376056034
0.22984336,0.17238252,9.969456,0.004527374,0.006657903,5.326322E-4,3.0,0.22890487,0.16655451,9.802564,9.3849003E-4,0.005828008,0.16689205,0.012753116,-0.0067619504,0.4387398,2017-01-12 16:52:11,37.62423775414871
0.23942018,0.17238252,9.950302,0.0034621095,0.0053263223,-0.002396845,3.0,0.23483387,0.16581249,9.802436,0.004586309,0.0065700263,0.14786625,0.01287924,-0.007000019,0.44224244,2017-01-12 16:52:12,35.90186004797433
0.22026655,0.17238252,9.959879,7.9894834E-4,0.0029294773,0.0015978967,3.0,0.23721239,0.16730906,9.802353,-0.016945839,0.005073458,0.15752602,0.012999471,-0.0070785154,0.44200307,2017-01-12 16:52:13,36.00962162155261
0.24899697,0.15322891,9.959879,-0.0061252704,-0.004261058,-7.9894834E-4,3.0,0.23270027,0.16620426,9.80248,0.0162967,-0.01297535,0.15739918,0.012856599,-0.0068794633,0.44322917,2017-01-12 16:52:14,41.359555636704435
0.22984336,0.16280572,9.9790325,-0.0034621095,-0.0031957934,0.0037284256,3.0,0.23203342,0.16822831,9.802462,-0.011766866,-0.005422592,0.1574173,0.012925828,-0.0068188366,0.4421472,2017-01-12 16:52:15,37.431360419093224
0.23942018,0.16280572,9.988609,0.002396845,0.0010652645,-0.0031957934,3.0,0.23657793,0.17110121,9.802303,0.0028422475,0.0108581185,0.1575756,0.0131486,-0.0069829533,0.44071156,2017-01-12 16:52:16,39.97704791531521
0.23942018,0.17238252,9.959879,0.002130529,-0.0053263223,5.326322E-4,3.0,0.23599586,0.16763686,9.802377,0.0034243166,0.004745662,0.15750217,0.012980545,-0.0069916975,0.4426716,2017-01-12 16:52:17,41.16906052954889
0.22984336,0.18195933,9.959879,-5.326322E-4,0.007989483,7.9894834E-4,3.0,0.23512924,0.16650543,9.802417,-0.005285874,0.015453905,0.15746212,0.012912411,-0.0070074685,0.44157794,2017-01-12 16:52:18,39.677452670746774
0.23942018,0.16280572,9.969456,0.005060006,0.0039947415,-0.0031957934,2.0,0.2342304,0.16080596,9.802534,0.0051897764,0.0019997656,0.16692162,0.012678202,-0.0070106694,0.44752452,2017-01-12 16:52:19,40.22411014182001
0.22026655,0.15322891,9.959879,-0.006657903,-0.0015978967,0.00958738,3.0,0.24024838,0.15946348,9.802409,-0.019981831,-0.0062345713,0.15746975,0.012688962,-0.0074286144,0.43957245,2017-01-12 16:52:20,41.32930017064753
0.20111294,0.15322891,10.620679,-0.017576864,5.326322E-4,-0.0061252704,3.0,0.22971793,0.16434619,9.802582,-0.028604984,-0.0111172795,0.8180971,0.012685297,-0.006820455,0.44073436,2017-01-12 16:52:21,41.41839557595028
0.23942018,0.17238252,9.988609,-0.0063915867,0.0055926386,-0.0029294773,3.0,0.23030269,0.16257499,9.802598,0.009117484,0.009807527,0.15728092,0.012643456,-0.006839011,0.44414335,2017-01-12 16:52:22,48.0311508980477
0.24899697,0.17238252,9.959879,-0.00479369,0.0013315806,5.326322E-4,3.0,0.2359743,0.16048688,9.802497,0.013022676,0.011895642,0.15738201,0.01267066,-0.007155874,0.44340378,2017-01-12 16:52:23,48.03342646821045
0.23942018,0.16280572,9.969456,0.008788432,0.0058589545,-0.006924219,3.0,0.23331964,0.16245906,9.802528,0.0061005354,3.466606E-4,0.16692734,0.012684417,-0.0070195566,0.4413122,2017-01-12 16:52:24,47.41994300775844
0.23942018,0.17238252,9.959879,-0.00479369,5.326322E-4,-0.0029294773,3.0,0.23305984,0.16741516,9.802451,0.006360337,0.0049673617,0.15742779,0.012882647,-0.006938493,0.43836206,2017-01-12 16:52:25,42.9395247880323
0.22984336,0.16280572,9.969456,-0.011717909,-0.0029294773,0.0034621095,3.0,0.23434086,0.16398105,9.802479,-0.0044974983,-0.0011753291,0.16697693,0.012768092,-0.0070483,0.44016898,2017-01-12 16:52:26,60.77293587828762
0.23942018,0.16280572,9.988609,0.0039947415,0.007456851,0.002130529,3.0,0.23668149,0.16431029,9.802417,0.0027386844,-0.0015045702,0.18619251,0.01277817,-0.007250477,0.43297648,2017-01-12 16:52:27,42.42226539008439
0.23942018,0.17238252,9.959879,0.005060006,0.0013315806,-0.0063915867,3.0,0.23193389,0.16322358,9.802548,0.007486284,0.009158939,0.15733051,0.01267901,-0.006955727,0.44012457,2017-01-12 16:52:28,39.77209449413949
0.22984336,0.16280572,9.9790325,0.008522116,5.326322E-4,-0.004527374,3.0,0.22866942,0.16695628,9.802562,0.0011739433,-0.0041505545,0.17647076,0.012787296,-0.0067021856,0.4415496,2017-01-12 16:52:29,37.95447244483421
0.24899697,0.16280572,9.9790325,0.009853696,0.0037284256,-0.0058589545,3.0,0.23112933,0.16064452,9.80261,-0.0012859702,0.0021612048,0.15726852,0.012587921,-0.006895109,0.44595045,2017-01-12 16:52:30,38.496075809534474
0.24899697,0.17238252,9.950302,-0.002396845,2.663161E-4,-0.0063915867,3.0,0.23717879,0.16327272,9.802423,0.011818185,0.009109795,0.1478796,0.012810211,-0.0071748476,0.44152078,2017-01-12 16:52:31,37.55176184648759
0.22984336,0.15322891,9.950302,-0.0039947415,0.00479369,0.0013315806,3.0,0.23553102,0.16362196,9.802456,-0.005687654,-0.010393053,0.14784622,0.012798764,-0.0070740925,0.44274777,2017-01-12 16:52:32,38.99147968076746
0.23942018,0.17238252,9.9790325,0.004261058,0.002130529,-0.0031957934,3.0,0.24020702,0.16194741,9.80237,-7.868409E-4,0.010435104,0.17666245,0.0128237745,-0.007332765,0.4422532,2017-01-12 16:52:33,42.384649938275814
0.23942018,0.17238252,9.959879,0.0037284256,0.007456851,0.0058589545,3.0,0.24228762,0.1605105,9.802342,-0.0028674453,0.011872023,0.1575365,0.012786868,-0.007491356,0.44007716,2017-01-12 16:52:34,40.23631472848425
0.24899697,0.16280572,9.959879,0.0058589545,0.002130529,-0.0013315806,3.0,0.24095803,0.16560361,9.80229,0.008038938,-0.0027978867,0.15758896,0.012929785,-0.0074225077,0.43269613,2017-01-12 16:52:35,38.30861041922981
0.22984336,0.16280572,9.940725,0.004527374,-0.0061252704,0.0037284256,3.0,0.23202337,0.16795638,9.802466,0.0169736,-0.014727473,0.16698933,0.012879997,-0.0068868976,0.43780354,2017-01-12 16:52:36,37.877183021392696
0.23942018,0.16280572,9.9790325,7.9894834E-4,0.008788432,0.0053263223,3.0,0.23568982,0.16486295,9.802432,-0.0058464557,-0.0020572245,0.16702366,0.012829981,-0.0071061607,0.4390569,2017-01-12 16:52:37,35.89240860341317
0.23942018,0.18195933,9.950302,-0.0029294773,0.0013315806,-5.326322E-4,3.0,0.23062535,0.16780362,9.802502,0.008794829,0.014155716,0.14780045,0.012859796,-0.0067921905,0.44018224,2017-01-12 16:52:38,37.47388284043952
0.23942018,0.16280572,9.959879,0.008255799,0.0031957934,-0.0013315806,3.0,0.2322558,0.1674566,9.802469,0.007164374,-0.004650876,0.15740967,0.012917997,-0.0068039484,0.4450951,2017-01-12 16:52:39,38.47731138112951
0.24899697,0.16280572,9.940725,0.009853696,0.007456851,0.0029294773,3.0,0.23283729,0.16700612,9.802464,0.016159683,-0.004200399,0.1382618,0.012883017,-0.0068925843,0.44149113,2017-01-12 16:52:40,37.803723256919845
0.23942018,0.17238252,9.9790325,0.009321064,-0.005060006,-0.004261058,3.0,0.235413,0.16361469,9.802459,0.0040071756,0.008767828,0.17657375,0.012802518,-0.007045171,0.4434213,2017-01-12 16:52:41,31.76459850782074
0.24899697,0.17238252,9.950302,-0.0018642128,0.0026631611,-0.0026631611,3.0,0.23445202,0.16423512,9.802471,0.014544949,0.008147404,0.14783096,0.0127759995,-0.0070589622,0.4393767,2017-01-12 16:52:42,31.61010102644555
0.22984336,0.17238252,9.959879,-0.0034621095,-0.0015978967,0.0039947415,3.0,0.23740667,0.16059944,9.802461,0.011590302,0.011783078,0.14784145,0.012667065,-0.0072907503,0.43831396,2017-01-12 16:52:43,34.55651745331351
0.23942018,0.18195933,9.959879,-0.006924219,0.0013315806,-0.0015978967,3.0,0.23532425,0.15651253,9.802577,0.013672724,0.025446802,0.1477251,0.012443585,-0.0072893864,0.43941322,2017-01-12 16:52:44,33.971686927101466
0.25857377,0.16280572,9.959879,-0.00958738,-0.0039947415,5.326322E-4,3.0,0.23363033,0.158354,9.8025875,0.005789846,0.014028519,0.15729141,0.012481684,-0.007164393,0.43856394,2017-01-12 16:52:45,33.18083344063284
0.23942018,0.15322891,9.950302,-0.0034621095,-0.004261058,-7.9894834E-4,3.0,0.23187213,0.16104059,9.802586,0.007548049,-0.0078116804,0.14771652,0.0125828,-0.006992655,0.44078395,2017-01-12 16:52:46,33.85699099831934
0.22984336,0.17238252,9.959879,0.0034621095,-0.0010652645,-0.008255799,3.0,0.23673484,0.16439241,9.802414,-0.006891474,0.007990107,0.15746498,0.0127845965,-0.007248518,0.43315962,2017-01-12 16:52:47,35.010775286887814
0.24899697,0.17238252,9.959879,0.0077231675,0.008788432,0.009054748,3.0,0.23627907,0.15833102,9.802525,0.012717903,0.014051497,0.15735435,0.0125685055,-0.0072368244,0.44210085,2017-01-12 16:52:48,33.96701954045226
0.24899697,0.17238252,9.969456,-0.00479369,0.0013315806,2.663161E-4,3.0,0.2308231,0.16392836,9.802563,0.018173873,0.008454159,0.166893,0.012692824,-0.0068770996,0.44096988,2017-01-12 16:52:49,32.079143681793425
0.22984336,0.16280572,9.969456,0.0055926386,0.0063915867,-0.0026631611,3.0,0.22991678,0.16414154,9.802581,-7.341802E-5,-0.0013358146,0.16687489,0.012693528,-0.006809739,0.4424609,2017-01-12 16:52:50,52.61649271816147
0.22984336,0.17238252,9.950302,-0.0037284256,0.0013315806,0.002396845,3.0,0.23255347,0.16289493,9.802539,-0.002710104,0.009487584,0.14776325,0.012712483,-0.0069283424,0.4445837,2017-01-12 16:52:51,34.56746127508302
0.24899697,0.18195933,9.959879,-7.9894834E-4,0.0053263223,-0.0026631611,3.0,0.2330609,0.16524975,9.802487,0.015936077,0.016709581,0.15739155,0.01281627,-0.006926502,0.44260114,2017-01-12 16:52:52,33.08908404984137
0.22984336,0.18195933,9.9790325,0.002396845,0.012516857,-0.004261058,3.0,0.232317,0.17201854,9.802388,-0.0024736375,0.009940788,0.17664433,0.01308001,-0.0067958287,0.43875453,2017-01-12 16:52:53,38.705840923003805
0.25857377,0.16280572,9.969456,0.010652645,0.00479369,-0.007456851,3.0,0.23494372,0.1676773,9.802402,0.023630053,-0.004871577,0.16705418,0.012948323,-0.006997684,0.43983957,2017-01-12 16:52:54,41.38497297452133
0.23942018,0.18195933,9.950302,-0.0037284256,-0.0037284256,5.326322E-4,3.0,0.23805057,0.16423449,9.802385,0.0013696104,0.017724842,0.1479168,0.012839858,-0.007253595,0.43729317,2017-01-12 16:52:55,36.67751460164395
0.23942018,0.16280572,9.950302,0.0013315806,-0.0058589545,-0.0077231675,3.0,0.23330913,0.1650844,9.8024845,0.0061110407,-0.0022786856,0.14781761,0.012767192,-0.0070278766,0.43654233,2017-01-12 16:52:56,37.312075495029795
0.23942018,0.16280572,9.998186,-0.0077231675,-0.0031957934,-0.005060006,3.0,0.23711877,0.16285665,9.80243,0.011878207,-0.009627745,0.16702557,0.012765414,-0.0072247675,0.43847832,2017-01-12 16:52:57,36.686680025657246
0.25857377,0.16280572,9.959879,-0.004527374,-0.0018642128,-0.004527374,3.0,0.24200705,0.15919289,9.802371,0.016566724,0.0036128312,0.1575079,0.012731296,-0.007489302,0.44140145,2017-01-12 16:52:58,39.60589746932324
0.23942018,0.17238252,9.969456,-0.0055926386,0.0015978967,-7.9894834E-4,3.0,0.2420667,0.16060045,9.802347,-0.0026465207,0.011782065,0.16710854,0.012850556,-0.0073678,0.44786474,2017-01-12 16:52:59,35.425840852014254
0.23942018,0.16280572,9.969456,-0.0029294773,0.009321064,-0.0063915867,3.0,0.24092762,0.16449425,9.80231,-0.0015074462,-0.0016885251,0.16714573,0.012942297,-0.007333449,0.4405094,2017-01-12 16:53:00,43.864304420902734
0.22984336,0.17238252,9.959879,-0.0026631611,-0.006924219,0.0029294773,3.0,0.24076307,0.16274203,9.802343,-0.010919705,0.009640485,0.15753555,0.012900777,-0.0072907587,0.44569564,2017-01-12 16:53:01,35.78261696106993
0.24899697,0.15322891,9.969456,0.007989483,-0.0058589545,-0.0063915867,3.0,0.24039812,0.1646055,9.802321,0.008598849,-0.01137659,0.16713428,0.012943382,-0.0072927205,0.4414798,2017-01-12 16:53:02,32.853228467217235
0.23942018,0.17238252,9.950302,-0.0063915867,0.0034621095,0.005060006,3.0,0.234239,0.16376811,9.8024845,0.0051811785,0.008614406,0.14781761,0.012771558,-0.007020287,0.4421465,2017-01-12 16:53:03,32.916410626323355
0.23942018,0.16280572,9.959879,0.004527374,0.0039947415,-2.663161E-4,3.0,0.23695223,0.1650007,9.802399,0.0024679452,-0.0021949857,0.15748024,0.012917221,-0.007065498,0.44569388,2017-01-12 16:53:04,31.86166140438909
0.23942018,0.17238252,9.959879,-0.0058589545,0.0063915867,0.0029294773,3.0,0.23957726,0.15886122,9.802436,-1.5708804E-4,0.013521299,0.15744305,0.012653787,-0.0073986277,0.44047737,2017-01-12 16:53:05,30.455359438756965
0.22984336,0.16280572,9.969456,-0.0031957934,-0.0031957934,2.663161E-4,3.0,0.2386806,0.15556955,9.802511,-0.008837238,0.016812965,0.1669445,0.012474267,-0.007446053,0.4394316,2017-01-12 16:53:06,32.20558790716931
0.25857377,0.16280572,9.959879,0.011984225,-0.0018642128,0.002130529,3.0,0.23532465,0.15884618,9.802539,0.02324912,0.013536334,0.16691685,0.012513527,-0.0072804545,0.43501535,2017-01-12 16:53:07,33.13641991765818
0.24899697,0.16280572,9.969456,0.002130529,0.009321064,-0.0031957934,3.0,0.23932281,0.159312,9.802435,0.01925096,0.0034937263,0.157444,0.012675726,-0.0073647876,0.44133195,2017-01-12 16:53:08,31.69754008244761
0.22984336,0.17238252,9.969456,0.0018642128,7.9894834E-4,0.00479369,0.0,0.23880556,0.16163826,9.802409,0.010191411,0.0011674613,0.16704655,0.012796577,-0.007242944,0.44454506,2017-01-12 16:53:09,32.233394375350606
0.22984336,0.17238252,9.950302,-0.0031957934,-0.0031957934,-0.0037284256,3.0,0.23138438,0.16223179,9.802578,-0.0015410185,0.010150731,0.14772415,0.012665042,-0.006872741,0.4458029,2017-01-12 16:53:10,31.832508577166863
0.22984336,0.17238252,9.959879,-0.005060006,-0.007989483,0.002396845,3.0,0.23737934,0.16406934,9.802403,-0.007535979,0.008313179,0.15747547,0.012845815,-0.0071757017,0.4408494,2017-01-12 16:53:11,30.099051139813803
0.23942018,0.16280572,9.969456,-2.663161E-4,0.002396845,-5.326322E-4,3.0,0.23736788,0.15989761,9.802472,0.0020522922,0.0029081106,0.1669836,0.012635922,-0.0073013813,0.43854716,2017-01-12 16:53:12,31.66351573220982
0.23942018,0.16280572,9.940725,0.0031957934,0.002130529,-0.0037284256,3.0,0.23489125,0.16805913,9.802396,0.004528925,-0.0052534044,0.1383295,0.012985233,-0.006948359,0.44249237,2017-01-12 16:53:13,30.708107975221033
0.23942018,0.17238252,9.969456,0.0013315806,0.008522116,0.0029294773,3.0,0.23766373,0.16854511,9.8023205,0.0017564446,0.0038374066,0.16713524,0.0130732935,-0.007058165,0.44290408,2017-01-12 16:53:14,35.31048489714658
0.23942018,0.16280572,9.969456,-0.0058589545,0.0018642128,-5.326322E-4,3.0,0.24006556,0.16186139,9.802376,-6.453842E-4,9.443313E-4,0.16707993,0.012774282,-0.0074018394,0.43708745,2017-01-12 16:53:15,42.08708788911227
0.23942018,0.16280572,9.969456,-0.00958738,-0.004261058,-7.9894834E-4,3.0,0.2358653,0.16315983,9.802456,0.0035548806,-3.541112E-4,0.16699982,0.012749559,-0.0071635838,0.43826413,2017-01-12 16:53:16,30.892460100530784
0.22984336,0.17238252,9.959879,2.663161E-4,-0.0015978967,0.004261058,3.0,0.23429196,0.1646858,9.802467,0.014705017,0.007696718,0.14783478,0.01276851,-0.007085951,0.4362525,2017-01-12 16:53:17,31.263357298798454
0.22984336,0.17238252,9.950302,0.0034621095,0.0061252704,0.002130529,3.0,0.23878439,0.16243416,9.802397,6.3578784E-4,3.7156045E-4,0.15748215,0.012766856,-0.0073392433,0.43645856,2017-01-12 16:53:18,30.300732307125177
0.23942018,0.16280572,9.959879,-0.018642128,-0.005060006,0.0037284256,3.0,0.23930867,0.16195922,9.802392,0.0192651,8.4650517E-4,0.15748692,0.012793614,-0.007309704,0.44097126,2017-01-12 16:53:19,29.680851820493793
0.24899697,0.15322891,9.959879,-0.0034621095,0.008522116,-0.0010652645,3.0,0.2407999,0.16550939,9.802296,0.008197069,-0.012280479,0.15758324,0.0130298035,-0.007226202,0.44592506,2017-01-12 16:53:20,32.32792884145159
0.24899697,0.17238252,9.969456,0.006924219,-0.0010652645,0.0034621095,3.0,0.23386371,0.16917664,9.802402,0.015133262,0.0032058805,0.16705418,0.013004649,-0.0068922015,0.44138595,2017-01-12 16:53:21,31.24616062636308
0.23942018,0.17238252,9.959879,0.0063915867,0.008255799,2.663161E-4,3.0,0.23993827,0.15958105,9.802415,-5.180985E-4,0.012801468,0.15746403,0.0126973465,-0.007394712,0.4407795,2017-01-12 16:53:22,30.57115386559028
0.22984336,0.15322891,9.950302,0.0039947415,0.008255799,-0.0039947415,3.0,0.23622105,0.16052307,9.80249,-0.006377682,-0.007294163,0.14781189,0.01266981,-0.00718062,0.4423932,2017-01-12 16:53:23,37.13788067748458
0.23942018,0.16280572,9.959879,0.006657903,2.663161E-4,-0.002396845,3.0,0.23225594,0.1636069,9.802534,0.00716424,-8.0117583E-4,0.15734482,0.012704156,-0.00696121,0.44017118,2017-01-12 16:53:24,34.257981477129356
0.24899697,0.17238252,9.969456,0.0018642128,-0.0063915867,0.0029294773,3.0,0.23942937,0.15588892,9.802487,0.0095676035,0.016493604,0.16696835,0.012489878,-0.007499582,0.43753415,2017-01-12 16:53:25,34.12978022945906
0.24899697,0.16280572,9.950302,0.0010652645,-0.004261058,0.004261058,3.0,0.24217612,0.1534434,9.802459,0.0068208575,0.009362325,0.14784336,0.0124340635,-0.0076881573,0.43695074,2017-01-12 16:53:26,33.183711990675
0.23942018,0.16280572,9.959879,0.006657903,0.010386328,0.0034621095,0.0,0.23936981,0.15891986,9.80244,5.0365925E-5,0.0038858652,0.15743923,0.012657434,-0.007378171,0.44116127,2017-01-12 16:53:27,36.95915000738617
0.24899697,0.16280572,9.969456,-0.006657903,-0.008522116,-0.004261058,3.0,0.24281313,0.16698067,9.802222,0.006183848,-0.0041749477,0.16723347,0.013102288,-0.0073571843,0.44096994,2017-01-12 16:53:28,38.976450338176946
0.24899697,0.17238252,9.969456,-0.004527374,-0.013582122,-0.007456851,3.0,0.23770066,0.16396771,9.802397,0.011296317,0.008414805,0.17663574,0.012793021,-0.0072907167,0.43397477,2017-01-12 16:53:29,32.46749835926849
0.24899697,0.15322891,9.959879,0.0061252704,0.0055926386,-0.0031957934,3.0,0.23673744,0.1629597,9.802438,0.012259528,-0.009730786,0.15744114,0.012743075,-0.007237713,0.43617088,2017-01-12 16:53:30,33.10764980946734
0.23942018,0.17238252,9.969456,2.663161E-4,0.014114754,-0.002396845,3.0,0.23496754,0.16318555,9.802477,0.004452631,0.009196967,0.16697884,0.012750882,-0.0070856046,0.44081992,2017-01-12 16:53:31,34.715665223931126
0.23942018,0.16280572,9.969456,5.326322E-4,-0.007190535,0.006657903,3.0,0.23152494,0.15825342,9.802639,0.007895231,0.0045523047,0.16681671,0.012448376,-0.007037701,0.44090745,2017-01-12 16:53:32,33.00673365889917
0.24899697,0.15322891,9.959879,-0.0015978967,0.0026631611,-0.0039947415,3.0,0.23919071,0.15982027,9.80243,0.0098062605,-0.0065913647,0.15744877,0.01271609,-0.0073124957,0.44378814,2017-01-12 16:53:33,43.889981936528585
0.23942018,0.16280572,9.969456,0.0037284256,2.663161E-4,-0.0037284256,3.0,0.23625466,0.16274785,9.802453,0.0031655133,5.787611E-5,0.16700268,0.012773566,-0.0071297344,0.44254982,2017-01-12 16:53:34,33.743134266135684
0.23942018,0.15322891,9.950302,-0.0053263223,-0.004527374,-0.004527374,3.0,0.23883186,0.15730096,9.80248,5.8831275E-4,-0.004072055,0.14782238,0.012520886,-0.0074749654,0.4350726,2017-01-12 16:53:35,32.86800655044318
0.22984336,0.17238252,9.969456,-0.0055926386,2.663161E-4,-2.663161E-4,3.0,0.24152748,0.16104262,9.802353,-0.01168412,0.011339903,0.16710281,0.012812089,-0.007413722,0.44224185,2017-01-12 16:53:36,32.51318768810489
0.23942018,0.16280572,9.969456,0.011185277,-7.9894834E-4,2.663161E-4,3.0,0.2345922,0.16225508,9.802502,-0.004748836,5.506426E-4,0.16695404,0.01270526,-0.0070796357,0.44150567,2017-01-12 16:53:37,35.82596902716447
0.23942018,0.16280572,9.969456,-0.0063915867,-0.0031957934,-0.011451593,2.0,0.2353652,0.16540152,9.80243,0.0040549785,-0.0025957972,0.16702557,0.012872613,-0.007033256,0.44226557,2017-01-12 16:53:38,31.585978387121507
0.22984336,0.15322891,9.940725,0.0013315806,0.00479369,-0.0015978967,2.0,0.23637076,0.15797514,9.802528,-0.006527394,-0.0047462285,0.13819695,0.012540795,-0.0072723734,0.44043243,2017-01-12 16:53:39,32.25500607762742
0.23942018,0.17238252,9.950302,-0.010386328,-0.006657903,-0.002396845,2.0,0.2351942,0.1624117,9.8024845,0.0042259693,0.009970814,0.14781761,0.012750253,-0.0070600067,0.44457695,2017-01-12 16:53:40,42.96008927063077
0.23942018,0.16280572,9.959879,5.326322E-4,-5.326322E-4,7.9894834E-4,2.0,0.23259059,0.16620433,9.802483,0.0068295896,-0.0033986121,0.15739632,0.012828082,-0.0069229165,0.43984297,2017-01-12 16:53:41,43.072274030190094
0.24899697,0.15322891,9.969456,0.0010652645,-0.0013315806,0.0039947415,2.0,0.23353995,0.16167112,9.802536,0.015457019,-0.008442208,0.16691971,0.012645453,-0.0070614764,0.44031134,2017-01-12 16:53:42,30.45591884218734
0.24899697,0.16280572,9.9790325,-0.009853696,7.9894834E-4,-0.004261058,2.0,0.23751898,0.1621009,9.802433,0.011477992,7.048249E-4,0.1765995,0.0127368,-0.007265141,0.43811616,2017-01-12 16:53:43,30.693468608124974
0.23942018,0.15322891,9.969456,0.0031957934,0.0063915867,-0.004261058,2.0,0.2383878,0.16784562,9.802316,0.0010323822,-0.014616713,0.16714,0.013004976,-0.0072030337,0.43629035,2017-01-12 16:53:44,32.34285578305787
0.22984336,0.16280572,9.959879,-0.004261058,0.007456851,-0.004261058,2.0,0.2383632,0.16643918,9.80234,-0.008519843,-0.0036334544,0.15753937,0.012918677,-0.007271016,0.4336569,2017-01-12 16:53:45,30.810366005079963
0.23942018,0.16280572,9.950302,0.00479369,0.00958738,0.0018642128,2.0,0.24534112,0.15968066,9.80228,-0.0059209466,0.0031250566,0.1480217,0.012802138,-0.007675352,0.4382848,2017-01-12 16:53:46,31.902488007209143
0.23942018,0.16280572,9.950302,-0.009853696,-0.00479369,0.002396845,2.0,0.2428915,0.1569731,9.802385,-0.013048142,-0.003744185,0.1479168,0.012635455,-0.00760335,0.4397249,2017-01-12 16:53:47,32.46926823690535
0.24899697,0.16280572,9.969456,0.012516857,0.0034621095,5.326322E-4,2.0,0.23656026,0.16419986,9.802422,0.012436718,-0.0013941377,0.16703415,0.0128203705,-0.007158603,0.43921667,2017-01-12 16:53:48,31.771238925636915
0.23942018,0.16280572,9.969456,0.0077231675,0.0034621095,-0.0039947415,2.0,0.23907004,0.16403429,9.802363,3.5013258E-4,-0.0012285709,0.16709232,0.012894566,-0.0072319326,0.44237626,2017-01-12 16:53:49,37.819942905291214
0.24899697,0.17238252,9.959879,-2.663161E-4,0.004261058,-0.0053263223,2.0,0.24080373,0.1567533,9.80244,0.00819324,0.015629217,0.15743923,0.012562701,-0.0075391377,0.43783286,2017-01-12 16:53:50,60.831657910816574
0.22984336,0.16280572,9.950302,-0.002130529,-5.326322E-4,0.0018642128,2.0,0.23187801,0.16335696,9.802547,-0.0020346493,-5.5123866E-4,0.14775467,0.012712548,-0.006897567,0.44384044,2017-01-12 16:53:51,31.868186552825478
0.24899697,0.16280572,9.940725,-0.0061252704,-0.0031957934,0.0018642128,2.0,0.23339649,0.16685233,9.802453,0.015600488,-0.004046604,0.13827229,0.012872928,-0.0069506946,0.43946576,2017-01-12 16:53:52,33.15776816342303
0.23942018,0.15322891,9.988609,0.007190535,0.009853696,-0.0058589545,2.0,0.23638044,0.16035236,9.802489,0.0030397326,0.0120301545,0.17654324,0.012656084,-0.007208492,0.44120774,2017-01-12 16:53:53,31.942864972136782
0.23942018,0.16280572,9.959879,0.002130529,0.004527374,-0.005060006,0.0,0.23892468,0.16502726,9.80235,4.954934E-4,-0.011798352,0.18625927,0.012901876,-0.0072650774,0.43805438,2017-01-12 16:53:54,36.21981899586244
0.24899697,0.17238252,9.969456,-0.0061252704,-0.0053263223,-0.0010652645,0.0,0.2346387,0.16655733,9.802427,0.014358267,0.0058251917,0.16702843,0.012884748,-0.007018822,0.43914378,2017-01-12 16:53:55,31.79970468997578
0.22984336,0.17238252,9.959879,-0.002130529,-0.0010652645,-5.326322E-4,0.0,0.23898299,0.15790443,9.802466,-0.009139627,0.014478087,0.15741253,0.012583,-0.0074160816,0.43882483,2017-01-12 16:53:56,34.85581843189859
0.22984336,0.16280572,9.969456,0.004261058,0.007190535,-2.663161E-4,0.0,0.24259233,0.1529441,9.802456,-0.012748972,0.009861618,0.16699982,0.0124215,-0.0077166646,0.43707445,2017-01-12 16:53:57,37.55635949172404
0.24899697,0.16280572,9.9790325,-5.326322E-4,0.0058589545,-0.00479369,0.0,0.23631008,0.1601464,9.802494,0.012686893,0.0026593208,0.17653847,0.012650477,-0.0072004246,0.44188038,2017-01-12 16:53:58,41.99733509208019
0.24899697,0.16280572,9.969456,0.0039947415,0.0061252704,-0.004261058,0.0,0.23327546,0.1629651,9.802521,0.015721515,-1.5938282E-4,0.16693497,0.012729799,-0.006963867,0.4442924,2017-01-12 16:53:59,34.85192231604107
0.23942018,0.16280572,9.9790325,0.002396845,-0.0029294773,0.002130529,0.0,0.23597781,0.1624695,9.8024645,0.003442362,0.009913012,0.16699123,0.012725822,-0.007174618,0.43893865,2017-01-12 16:54:00,32.374267851449126
0.24899697,0.17238252,9.950302,0.007190535,0.0031957934,-0.0055926386,0.0,0.23091154,0.15909849,9.80264,0.018085435,0.013284028,0.14766216,0.0125129875,-0.0069192643,0.44602656,2017-01-12 16:54:01,39.2512063421188
0.23942018,0.17238252,9.969456,-0.002130529,-0.0063915867,-0.0039947415,3.0,0.22380887,0.16181909,9.80276,0.015611306,0.010563433,0.1666956,0.012428442,-0.0066224,0.4396072,2017-01-12 16:54:02,33.73798497796913
0.22026655,0.16280572,9.959879,0.0061252704,0.0034621095,-0.0031957934,0.0,0.2269963,0.16131105,9.802695,-0.006729752,0.0014946759,0.15718365,0.012554301,-0.006634893,0.44997343,2017-01-12 16:54:03,31.41522933576638
0.23942018,0.15322891,9.959879,-0.0015978967,2.663161E-4,-0.002130529,0.0,0.22634163,0.16257907,9.80269,0.013078541,-0.009350166,0.15718937,0.0125413565,-0.006681532,0.44245955,2017-01-12 16:54:04,30.754947496504737
0.22984336,0.15322891,9.959879,0.0013315806,0.0034621095,0.009321064,2.0,0.22706556,0.16301368,9.802666,0.0027778,-0.009784773,0.15721321,0.012522858,-0.00680648,0.43518248,2017-01-12 16:54:05,29.64641284267127
0.23942018,0.16280572,9.950302,-0.00479369,-0.0055926386,-0.002396845,2.0,0.23156357,0.16520059,9.802524,0.007856607,-0.00239487,0.14777851,0.012758576,-0.006899302,0.43977952,2017-01-12 16:54:06,30.986490126809606
0.23942018,0.16280572,9.9790325,-0.007989483,-0.002130529,-0.0034621095,2.0,0.23611952,0.16140409,9.802479,0.003300652,0.001401633,0.17655373,0.0127035435,-0.0071636797,0.44185832,2017-01-12 16:54:07,32.617728817507256
0.23942018,0.17238252,9.959879,-0.015446335,-0.0013315806,-0.0010652645,2.0,0.2374146,0.1604289,9.802464,0.002005577,0.011953622,0.15741539,0.012694261,-0.0072341342,0.4426186,2017-01-12 16:54:08,33.00716225218524
0.24899697,0.17238252,9.959879,-0.0010652645,0.004527374,-7.9894834E-4,2.0,0.2347731,0.16502064,9.80245,-0.0049297363,-0.0022149235,0.16700554,0.012817456,-0.0070592067,0.4391567,2017-01-12 16:54:09,33.19915917343229
0.23942018,0.16280572,9.9790325,0.0026631611,0.004261058,-0.0034621095,0.0,0.23890637,0.1605637,9.802425,5.1380694E-4,0.0022420138,0.17660713,0.012738068,-0.0072923987,0.44310445,2017-01-12 16:54:10,31.317558520795416
0.23942018,0.15322891,9.969456,0.0013315806,0.002130529,0.0058589545,2.0,0.24090873,0.16043374,9.802378,-0.0014885515,-0.0072048306,0.16707802,0.012775615,-0.007389943,0.44288862,2017-01-12 16:54:11,32.47958612424438
0.23942018,0.17238252,9.959879,0.0015978967,0.009853696,-0.002130529,2.0,0.2385926,0.16143747,9.802418,8.275807E-4,0.010945052,0.15746117,0.012783123,-0.0072367997,0.44461292,2017-01-12 16:54:12,32.12566373701655
0.24899697,0.16280572,9.969456,0.004527374,0.00479369,7.9894834E-4,2.0,0.23762079,0.15879445,9.8024845,0.011376187,0.0040112734,0.1669712,0.012612198,-0.0073011825,0.44114518,2017-01-12 16:54:13,49.73133192411578
0.23942018,0.16280572,9.950302,7.9894834E-4,-0.0026631611,0.002396845,2.0,0.2404771,0.15703082,9.8024435,-0.0010569245,0.0057749003,0.14785862,0.012575808,-0.007505111,0.43875194,2017-01-12 16:54:14,36.718816836031486
0.23942018,0.17238252,9.950302,-0.004527374,-0.007190535,7.9894834E-4,2.0,0.24048696,0.15924406,9.802407,-0.001066789,0.013138458,0.17662525,0.012728006,-0.0073694205,0.4448686,2017-01-12 16:54:15,32.72870642375731
0.23942018,0.17238252,9.950302,-0.0063915867,-0.00958738,7.9894834E-4,2.0,0.23892176,0.1640909,9.802366,0.0100752115,-0.010861993,0.15751266,0.012820805,-0.007352656,0.43337268,2017-01-12 16:54:16,31.71752448803816
0.24899697,0.16280572,9.9790325,2.663161E-4,0.0018642128,-0.0015978967,2.0,0.24510543,0.15871267,9.802302,0.0038915426,0.004093051,0.17673016,0.012751541,-0.007687771,0.43817306,2017-01-12 16:54:17,35.061326257372656
0.24899697,0.15322891,9.988609,0.0055926386,0.0031957934,-0.00479369,2.0,0.24351971,0.15612619,9.802383,0.0054772645,-0.0028972775,0.18622589,0.012606051,-0.0076588653,0.43917263,2017-01-12 16:54:18,31.67799206411995
0.24899697,0.17238252,9.950302,-0.002396845,0.0010652645,-0.0026631611,2.0,0.23879641,0.16285697,9.802389,0.01020056,0.009525552,0.14791298,0.01284078,-0.007234921,0.4431485,2017-01-12 16:54:19,32.738754146975204
0.24899697,0.18195933,9.959879,-0.0053263223,-0.005060006,-0.009321064,2.0,0.24045725,0.16385043,9.802332,0.008539721,-0.0010447055,0.17670059,0.012896661,-0.0073362147,0.43982506,2017-01-12 16:54:20,31.097106935979873
0.22984336,0.17238252,9.969456,0.006657903,7.9894834E-4,-2.663161E-4,2.0,0.24777988,0.15953597,9.802221,-0.017936513,0.012846544,0.16723442,0.012880111,-0.0077405423,0.44176167,2017-01-12 16:54:21,42.29399813371306
0.24899697,0.15322891,9.969456,7.9894834E-4,7.9894834E-4,-0.002130529,2.0,0.24448115,0.15826252,9.802324,0.0045158267,-0.0050336123,0.16713142,0.012728667,-0.007649748,0.4395477,2017-01-12 16:54:22,31.488994343728066
0.25857377,0.16280572,9.950302,0.0031957934,-0.002396845,0.00479369,2.0,0.2415646,0.16403997,9.802302,0.017009169,-0.0012342483,0.14799976,0.0129391,-0.0073670456,0.44090956,2017-01-12 16:54:23,30.90227672030855
0.24899697,0.16280572,9.959879,-0.0058589545,0.0039947415,-0.002396845,2.0,0.24753003,0.16357692,9.802161,0.0014669448,-7.711947E-4,0.1577177,0.013070643,-0.0076187574,0.44308767,2017-01-12 16:54:24,30.153964341374913
0.24899697,0.15322891,9.931149,5.326322E-4,0.0053263223,-0.0026631611,3.0,0.24827781,0.1563186,9.80226,7.1915984E-4,-0.0030896962,0.12888813,0.012717578,-0.007878833,0.4387272,2017-01-12 16:54:25,34.16669394633301
0.24899697,0.17238252,9.959879,0.004261058,0.008788432,-0.0063915867,0.0,0.2504933,0.16155057,9.802119,-0.001496315,0.010831952,0.15775967,0.01301016,-0.007857964,0.43909535,2017-01-12 16:54:26,38.746174128897785
0.24899697,0.16280572,9.969456,-0.0010652645,0.004261058,-2.663161E-4,0.0,0.24822833,0.16429998,9.802132,7.686466E-4,-0.0014942586,0.16732407,0.013107017,-0.007655729,0.4416251,2017-01-12 16:54:27,34.82142199380438
0.23942018,0.15322891,9.950302,0.0034621095,0.005060006,-0.0039947415,0.0,0.251945,0.15896423,9.802124,0.0066287816,0.0038414896,0.1769085,0.012979999,-0.007891295,0.44540206,2017-01-12 16:54:28,33.07103343315194
0.25857377,0.16280572,9.950302,0.0034621095,0.009321064,0.0039947415,0.0,0.25033006,0.16260831,9.802106,0.017820537,1.9741058E-4,0.16734982,0.013065774,-0.0078087477,0.4403366,2017-01-12 16:54:29,30.422483668662693
0.24899697,0.16280572,9.959879,0.0026631611,0.0015978967,0.0053263223,2.0,0.25344038,0.15960754,9.802075,-0.004443407,0.0031981766,0.15780354,0.013035963,-0.007957074,0.44456968,2017-01-12 16:54:30,30.6945893495105
0.22984336,0.16280572,9.969456,-0.0013315806,0.014913702,0.0037284256,0.0,0.25974008,0.15238409,9.802026,-0.029896721,0.010421634,0.16742992,0.012812859,-0.00846338,0.44074067,2017-01-12 16:54:31,32.72887375465832
0.25857377,0.16280572,9.969456,0.0018642128,0.0061252704,0.0013315806,0.0,0.2602631,0.15678641,9.801943,-0.0016893148,0.006019309,0.1675129,0.013000706,-0.008427751,0.4380228,2017-01-12 16:54:32,33.68317882688226
0.25857377,0.16280572,9.950302,-0.0031957934,-0.0031957934,0.0010652645,0.0,0.25609648,0.15501757,9.80208,0.0024772882,0.0077881515,0.14822197,0.012817168,-0.008290693,0.4370111,2017-01-12 16:54:33,42.790803734749645
0.25857377,0.16280572,9.950302,7.9894834E-4,5.326322E-4,-0.004527374,0.0,0.25643355,0.15636525,9.80205,0.002140224,0.0064404756,0.14825249,0.012933931,-0.008201798,0.442181,2017-01-12 16:54:34,31.119808879564697
0.2681506,0.16280572,9.940725,0.0010652645,0.0058589545,0.0010652645,0.0,0.2559264,0.15750535,9.802045,0.012224197,0.005300373,0.13868046,0.0129678715,-0.008163658,0.4414367,2017-01-12 16:54:35,29.850495527429757
0.25857377,0.17238252,9.950302,-0.0010652645,0.0010652645,0.004261058,0.0,0.25252402,0.16114819,9.8020735,-0.0035270452,0.0016575307,0.15780544,0.013040219,-0.007955094,0.43943384,2017-01-12 16:54:36,31.32438473586063
0.25857377,0.17238252,9.950302,-0.0055926386,-0.011451593,-0.004261058,0.0,0.24944648,0.15856934,9.802195,0.009127289,0.013813183,0.14810753,0.012870477,-0.007843442,0.44142133,2017-01-12 16:54:37,34.287114896607456
0.25857377,0.16280572,9.950302,0.0053263223,-0.002130529,0.0010652645,0.0,0.25398695,0.15537454,9.80213,0.004586816,0.0074311793,0.14817238,0.012829582,-0.008118306,0.44175702,2017-01-12 16:54:38,31.587054191501597
0.24899697,0.16280572,9.959879,-0.0010652645,-0.0053263223,-0.0010652645,0.0,0.25101644,0.15938911,9.802141,-0.002019465,0.0034166127,0.15773773,0.012917372,-0.007939242,0.43847558,2017-01-12 16:54:39,33.86338416357511
0.2681506,0.16280572,9.950302,7.9894834E-4,0.010652645,-0.0013315806,0.0,0.25179583,0.16226113,9.802074,0.01635477,5.4459274E-4,0.14822769,0.013118302,-0.007824443,0.44438908,2017-01-12 16:54:40,30.550750391836296
0.25857377,0.16280572,9.940725,0.0058589545,0.011717909,0.0018642128,0.0,0.2580136,0.15818045,9.801979,5.6016445E-4,0.0046252757,0.13874626,0.012972155,-0.008359327,0.43346316,2017-01-12 16:54:41,32.104173672846194
0.25857377,0.16280572,9.959879,-0.0015978967,0.0010652645,-0.0061252704,0.0,0.25501838,0.15752657,9.802068,0.0035553873,0.0052791536,0.15781116,0.012945633,-0.008126032,0.44113204,2017-01-12 16:54:43,32.66705230869552
0.2681506,0.17238252,9.950302,-0.002130529,0.0010652645,5.326322E-4,0.0,0.25615758,0.15654661,9.802054,-0.007160604,0.015835911,0.15782452,0.012900295,-0.008241251,0.4382778,2017-01-12 16:54:44,30.680786152999065
0.2777274,0.17238252,9.959879,-0.0029294773,2.663161E-4,-0.006924219,0.0,0.2570331,0.1537218,9.802075,-0.008036137,0.009083927,0.15780354,0.012800162,-0.008329511,0.43933147,2017-01-12 16:54:45,31.63411526007916
0.2777274,0.16280572,9.959879,0.004527374,-0.0034621095,-0.0010652645,0.0,0.26230067,0.15551457,9.801908,0.015426725,0.007291153,0.15797138,0.01297516,-0.0085689435,0.43668044,2017-01-12 16:54:46,30.163884949223227
0.25857377,0.1436521,9.969456,0.0010652645,-0.002130529,2.663161E-4,2.0,0.25940192,0.15357542,9.802015,-8.2814693E-4,-0.009923324,0.16744041,0.01281771,-0.008485039,0.4362672,2017-01-12 16:54:47,38.68909384283945
0.24899697,0.16280572,9.9790325,0.0026631611,0.011451593,5.326322E-4,0.0,0.25526336,0.15905364,9.802037,-0.0062663853,0.0037520826,0.17699528,0.012995421,-0.0081688175,0.43851605,2017-01-12 16:54:48,32.90149665599074
0.2681506,0.15322891,9.950302,-0.0013315806,-0.002396845,-0.0010652645,0.0,0.2541663,0.16108425,9.8020315,0.013984293,-0.007855341,0.1482706,0.013102539,-0.007985289,0.4426193,2017-01-12 16:54:49,40.334748558049796
0.2681506,0.16280572,9.969456,-0.0058589545,2.663161E-4,0.002396845,0.0,0.26036662,0.15779905,9.801923,0.007783979,0.005006671,0.16753292,0.0130458,-0.00841553,0.43763334,2017-01-12 16:54:50,35.31578431458767
0.2681506,0.16280572,9.950302,-0.0034621095,-2.663161E-4,0.0029294773,0.0,0.26015812,0.16073431,9.801881,0.007992476,0.0020714104,0.14842129,0.0131991515,-0.008303368,0.44016042,2017-01-12 16:54:51,34.66628956331074
0.2873042,0.15322891,9.950302,-0.007190535,-0.0013315806,-0.0026631611,0.0,0.26639116,0.15893422,9.8017435,0.0017594397,0.0038715005,0.14855862,0.013261639,-0.0086215865,0.44067344,2017-01-12 16:54:52,32.6471487567357
0.24899697,0.15322891,9.969456,0.009321064,-5.326322E-4,-0.005060006,0.0,0.26926613,0.16070314,9.801636,-0.020269156,-0.0074742287,0.16781998,0.0134018995,-0.008721686,0.44012076,2017-01-12 16:54:53,31.245422619744883
0.25857377,0.16280572,9.950302,0.007456851,0.010386328,0.0031957934,0.0,0.26593775,0.16123891,9.801718,-0.007363975,0.0015668124,0.14858437,0.013305925,-0.0086282445,0.43533328,2017-01-12 16:54:54,34.49297083895577
0.24899697,0.16280572,9.988609,0.0013315806,7.9894834E-4,0.0053263223,0.0,0.25847468,0.16477047,9.801859,-0.009477705,-0.001964748,0.18675041,0.013289754,-0.008227522,0.43395954,2017-01-12 16:54:55,36.785947506926604
0.24899697,0.15322891,9.988609,0.002130529,0.0039947415,-0.0010652645,0.0,0.24822877,0.16388081,9.802138,7.6819956E-4,-0.010651901,0.18647099,0.013033835,-0.007756673,0.43533084,2017-01-12 16:54:56,34.08304755933613
0.23942018,0.15322891,9.9790325,-0.0031957934,-7.9894834E-4,-0.0018642128,0.0,0.24585493,0.15904856,9.802278,-0.0064347535,-0.0058196485,0.17675495,0.012769536,-0.007738033,0.4365253,2017-01-12 16:54:57,39.68939897712843
0.24899697,0.16280572,9.959879,-0.0029294773,-0.004527374,-0.0034621095,0.0,0.24111363,0.16383764,9.802317,0.00788334,-0.0010319203,0.15756226,0.012937315,-0.007319898,0.44306415,2017-01-12 16:54:58,37.32699378600418
0.24899697,0.16280572,10.007763,0.004261058,0.0061252704,-5.326322E-4,0.0,0.23926951,0.16132057,9.802403,1.5066564E-4,0.001485154,0.17662907,0.012767075,-0.00731604,0.4414095,2017-01-12 16:54:59,34.3296061023989
0.24899697,0.17238252,9.9790325,-0.0013315806,-0.005060006,-0.004527374,0.0,0.24404211,0.15670173,9.802361,-0.004621938,0.01568079,0.17667198,0.012633195,-0.0076878946,0.43789366,2017-01-12 16:55:00,32.290639985413904
0.22984336,0.16280572,9.9790325,0.0037284256,0.008255799,0.0058589545,0.0,0.23522921,0.1580164,9.802555,-0.005385846,0.0047893226,0.17647743,0.012532103,-0.007192993,0.44230887,2017-01-12 16:55:01,33.1023884106786
0.23942018,0.17238252,9.969456,-0.012516857,0.0013315806,-0.0053263223,0.0,0.23069805,0.16144758,9.802607,0.0087221265,0.010934934,0.16684914,0.01259187,-0.006899118,0.44296876,2017-01-12 16:55:02,31.7326763028238
0.23942018,0.15322891,9.969456,-0.002130529,-7.9894834E-4,0.0034621095,0.0,0.23116848,0.15980281,9.802623,0.008251697,-0.0065739006,0.16683292,0.012488545,-0.007027101,0.43799376,2017-01-12 16:55:03,34.02009045700226
0.23942018,0.16280572,9.969456,-0.00958738,0.00479369,-0.0026631611,0.0,0.233808,0.16116801,9.802538,0.0056121796,0.0016377121,0.1669178,0.012622518,-0.007095586,0.43956164,2017-01-12 16:55:04,32.67002477081934
0.23942018,0.17238252,9.9790325,0.004261058,-0.0013315806,-5.326322E-4,0.0,0.23566067,0.1689592,9.802362,0.0037595034,0.0034233183,0.17667007,0.013037066,-0.006975767,0.44163013,2017-01-12 16:55:05,35.952732610616934
0.23942018,0.17238252,9.969456,5.326322E-4,-7.9894834E-4,-0.007190535,0.0,0.23839669,0.16134971,9.802424,0.0010234863,0.011032805,0.16703129,0.012753441,-0.007267222,0.44198823,2017-01-12 16:55:06,36.25153048901574
0.22984336,0.16280572,9.969456,-0.012250541,-0.0039947415,-0.0061252704,0.0,0.23682909,0.1595173,9.802492,-0.006985724,0.003288418,0.16696358,0.012602007,-0.007292855,0.438001,2017-01-12 16:55:07,32.921110976857165
0.23942018,0.15322891,9.969456,5.326322E-4,0.0013315806,-0.00958738,0.0,0.2362128,0.16336484,9.8024435,0.012784168,-5.5912137E-4,0.16701221,0.012741911,-0.007218911,0.43516237,2017-01-12 16:55:08,31.54018418627974
0.22984336,0.15322891,9.969456,-0.0010652645,-0.0029294773,0.0018642128,0.0,0.23315726,0.16501187,9.802489,-0.003313899,-0.011782959,0.16696644,0.012789696,-0.0069536828,0.4405715,2017-01-12 16:55:09,32.90582701346025
0.23942018,0.16280572,9.9790325,0.0010652645,0.004527374,5.326322E-4,0.0,0.23495655,0.15807442,9.802561,0.004463628,0.0047312975,0.17647171,0.012512324,-0.007207549,0.44027838,2017-01-12 16:55:10,39.86268683742115
0.23942018,0.17238252,9.950302,0.0018642128,-0.006657903,0.0058589545,0.0,0.23409522,0.15637985,9.8026085,0.0053249598,0.01600267,0.14769363,0.0124160405,-0.007205033,0.44036004,2017-01-12 16:55:11,35.802958444313376
0.22984336,0.16280572,9.969456,-0.009853696,-7.9894834E-4,0.0026631611,0.0,0.23255193,0.159472,9.802595,-0.0027085692,0.0033337176,0.16686058,0.012541758,-0.007031497,0.4427542,2017-01-12 16:55:12,34.430155560661845
0.22026655,0.17238252,9.9790325,-0.009853696,-0.015978966,-0.005060006,0.0,0.23070085,0.15941224,9.80264,-0.0104343,0.012970284,0.17639256,0.012478181,-0.0069823363,0.44030288,2017-01-12 16:55:13,32.502654505582406
0.23942018,0.16280572,9.969456,0.0039947415,0.008788432,-0.0015978967,0.0,0.2326473,0.15734056,9.802628,0.006772876,0.005465165,0.16682816,0.012458274,-0.007063166,0.44425228,2017-01-12 16:55:14,30.615221122560918
0.24899697,0.15322891,9.9790325,-0.0037284256,0.0039947415,0.0015978967,0.0,0.22978649,0.16138606,9.802629,0.019210488,-0.008157149,0.17640305,0.012535635,-0.0069186394,0.43869284,2017-01-12 16:55:15,34.99582275814083
0.23942018,0.15322891,9.969456,0.008788432,0.006657903,-0.004527374,3.0,0.22879438,0.16615257,9.802573,0.0106257945,-0.0033468455,0.16688251,0.012716908,-0.0067946245,0.43670905,2017-01-12 16:55:16,33.37920765874212
0.22026655,0.17238252,9.988609,0.0013315806,0.006657903,0.0034621095,0.0,0.23568267,0.16316754,9.802461,-0.005839303,-3.618151E-4,0.15741825,0.012756714,-0.007135618,0.43963253,2017-01-12 16:55:17,38.516151018218096
0.23942018,0.16280572,9.959879,-0.0061252704,0.0029294773,-0.002130529,0.0,0.23268223,0.158076,9.802614,0.0067379475,0.004729718,0.15726471,0.012489367,-0.0070539424,0.44383323,2017-01-12 16:55:18,41.32980957159149
0.24899697,0.16280572,9.969456,-0.002396845,2.663161E-4,5.326322E-4,0.0,0.23305391,0.15765326,9.802613,0.015943065,0.005152464,0.16684246,0.012451079,-0.007128545,0.4403759,2017-01-12 16:55:19,34.032518672866544
0.23942018,0.17238252,9.959879,0.0013315806,0.004527374,-0.0053263223,0.0,0.23261672,0.15429854,9.802676,0.006803453,0.018083975,0.15720272,0.012269162,-0.0072154114,0.4380683,2017-01-12 16:55:20,34.82861083176496
0.23942018,0.15322891,9.950302,-0.0039947415,-0.00479369,7.9894834E-4,3.0,0.23419596,0.15579121,9.802615,0.005224213,-0.0025622994,0.14768696,0.0124268355,-0.007161647,0.44478333,2017-01-12 16:55:21,37.11296621264852
0.23942018,0.17238252,9.959879,-0.0039947415,-0.002396845,-0.0063915867,3.0,0.23468126,0.15633973,9.802595,0.004738912,0.016042784,0.15728378,0.0124498615,-0.0071939817,0.4431568,2017-01-12 16:55:22,31.18021178000196
0.23942018,0.15322891,9.9790325,0.0034621095,0.0039947415,0.002396845,0.0,0.23156145,0.15950212,9.802619,0.007858723,-0.00627321,0.17641354,0.012494457,-0.007032475,0.43938637,2017-01-12 16:55:23,37.754119021007
0.23942018,0.17238252,9.969456,0.008255799,0.006657903,0.002130529,0.0,0.23421368,0.15686943,9.802598,0.0052064955,0.005936295,0.16685772,0.0124371555,-0.0072063087,0.43986598,2017-01-12 16:55:24,37.36340607060739
0.22984336,0.17238252,9.969456,-7.9894834E-4,0.004527374,-0.0015978967,0.0,0.23492797,0.16162108,9.802504,-0.005084604,0.01076144,0.16695213,0.012688253,-0.0071013453,0.44206616,2017-01-12 16:55:25,41.703591109869585
0.22984336,0.17238252,9.969456,-0.0010652645,-0.0013315806,0.0015978967,0.0,0.23025508,0.16668996,9.80253,-4.1171908E-4,0.0056925565,0.16692543,0.012797208,-0.0068064043,0.4397497,2017-01-12 16:55:26,38.617597799500324
0.23942018,0.1436521,9.950302,-0.0029294773,0.008522116,0.0031957934,3.0,0.2326981,0.16250017,9.802542,0.0067220777,-0.018848076,0.14776039,0.012624241,-0.007076624,0.4351707,2017-01-12 16:55:27,42.871404885328666
0.22984336,0.16280572,9.940725,-0.0018642128,-0.00479369,-0.0063915867,0.0,0.23155813,0.16317941,9.802557,-0.001714766,-3.7369132E-4,0.13816833,0.0126772,-0.006923699,0.44124466,2017-01-12 16:55:28,38.047534531734584
0.23942018,0.17238252,9.950302,0.0055926386,0.004527374,0.006924219,2.0,0.23080413,0.16197821,9.802595,0.008616045,0.010404304,0.14770699,0.012605871,-0.0069151046,0.44132447,2017-01-12 16:55:29,46.508875174044334
0.23942018,0.17238252,9.959879,-0.0031957934,0.0034621095,-0.002130529,0.0,0.23557226,0.15834245,9.802542,0.003847912,0.014040068,0.15733719,0.012526073,-0.007251109,0.43874562,2017-01-12 16:55:30,32.12923386716763
0.24899697,0.16280572,9.959879,-0.00479369,-0.0034621095,0.0026631611,3.0,0.24039464,0.15637945,9.802456,-9.7446144E-4,0.006426275,0.17657661,0.012562709,-0.0074847825,0.4409782,2017-01-12 16:55:31,39.73131126196496
0.25857377,0.16280572,9.921572,-7.9894834E-4,0.010386328,-0.0015978967,0.0,0.2397189,0.15544602,9.802487,0.018854871,0.0073596984,0.11908436,0.012523944,-0.007481182,0.4419013,2017-01-12 16:55:32,34.67387120652003
0.24899697,0.15322891,9.969456,0.0031957934,0.010652645,5.326322E-4,0.0,0.23444499,0.16438499,9.802469,0.014551982,-0.011156082,0.16698647,0.012785177,-0.007074893,0.44079858,2017-01-12 16:55:33,49.90896081043266
0.23942018,0.15322891,9.9790325,-0.007989483,-0.0063915867,7.9894834E-4,3.0,0.24013424,0.16186792,9.802373,-7.1406364E-4,-0.008639008,0.17665958,0.012786124,-0.007387546,0.43830413,2017-01-12 16:55:34,34.59033569017069
0.24899697,0.16280572,9.9790325,-2.663161E-4,0.0031957934,-0.0031957934,0.0,0.2393562,0.1592881,9.802435,0.009640768,0.0035176277,0.1765976,0.012687158,-0.007346556,0.44276735,2017-01-12 16:55:35,34.27018816303552
0.23942018,0.15322891,9.950302,-0.0029294773,0.0029294773,-0.0015978967,3.0,0.23243093,0.16429129,9.802519,0.0069892406,-0.011062384,0.14778328,0.012741208,-0.0069584316,0.4394868,2017-01-12 16:55:36,35.34253035467218
0.22984336,0.16280572,9.969456,0.0026631611,-0.010120012,0.0018642128,3.0,0.22943786,0.16164847,9.802633,0.029135913,0.0107340515,0.16682243,0.012571921,-0.006838174,0.44288293,2017-01-12 16:55:37,39.91004932979199
0.24899697,0.16280572,9.969456,0.01304949,5.326322E-4,-0.002130529,3.0,0.23227012,0.1585835,9.802616,0.016726851,0.004222214,0.1668396,0.01249061,-0.0070460434,0.4422252,2017-01-12 16:55:38,38.361486637071266
0.24899697,0.16280572,9.969456,-0.007456851,-0.002396845,0.005060006,0.0,0.23520026,0.15731883,9.802567,0.013796717,0.0054868907,0.16688919,0.012503455,-0.007200615,0.4427957,2017-01-12 16:55:39,36.50454718940095
0.23942018,0.16280572,9.959879,-0.014913702,-0.010386328,-0.009321064,3.0,0.23539957,0.16488366,9.802438,0.0040206015,-0.0020779371,0.15744114,0.01283205,-0.007078597,0.44002327,2017-01-12 16:55:40,35.06271399116055
0.24899697,0.17238252,9.950302,0.0010652645,-0.006657903,5.326322E-4,3.0,0.23914504,0.15939875,9.802438,0.0098519325,0.012983769,0.14786434,0.012657602,-0.007385791,0.4391284,2017-01-12 16:55:41,34.57568420738548
0.24899697,0.17238252,9.940725,-7.9894834E-4,0.011984225,-0.0026631611,3.0,0.24059929,0.156076,9.802456,0.0083976835,0.01630652,0.13826942,0.012521744,-0.0075537437,0.43719718,2017-01-12 16:55:42,38.19187452115005
0.23942018,0.16280572,9.969456,0.0037284256,0.0029294773,0.006657903,3.0,0.23414466,0.15551504,9.802621,0.0052755177,0.0072906762,0.16683483,0.012377327,-0.007227111,0.44033146,2017-01-12 16:55:43,44.15053309256613
0.23942018,0.15322891,9.9790325,7.9894834E-4,0.0039947415,-0.0029294773,3.0,0.23790538,0.15916595,9.802472,0.0015147924,-0.00593704,0.1765604,0.012680288,-0.0072280145,0.44665438,2017-01-12 16:55:44,38.951009576108696
0.23942018,0.16280572,9.969456,0.002130529,0.0013315806,-0.006657903,3.0,0.23865546,0.15840565,9.802466,7.647127E-4,0.0044000745,0.16698933,0.012590964,-0.007402923,0.4378927,2017-01-12 16:55:45,34.929288995179505
0.24899697,0.15322891,9.969456,7.9894834E-4,0.008255799,-0.0015978967,3.0,0.2366308,0.16078678,9.802476,0.012366176,-0.007557869,0.16697979,0.012663421,-0.0072420565,0.43894893,2017-01-12 16:55:46,35.25177487858889
0.22984336,0.16280572,9.9790325,0.009321064,0.0034621095,2.663161E-4,3.0,0.23141575,0.16198301,9.802581,-0.0015723854,8.22708E-4,0.17645168,0.01262917,-0.0069260346,0.44252852,2017-01-12 16:55:47,37.43630711877039
0.23942018,0.16280572,9.988609,-0.0039947415,-0.0018642128,0.0013315806,3.0,0.23547336,0.16261418,9.802474,0.003946811,1.9153953E-4,0.18613529,0.012782543,-0.0070379074,0.44669732,2017-01-12 16:55:48,42.727909904644925
0.22984336,0.16280572,9.969456,-0.0031957934,-0.0026631611,0.0037284256,3.0,0.23397927,0.16106303,9.802535,-0.0041359067,0.0017426908,0.16692066,0.012637654,-0.007077104,0.44159997,2017-01-12 16:55:49,35.1896700747426
0.22984336,0.16280572,9.931149,-0.0029294773,0.002396845,-5.326322E-4,0.0,0.23136644,0.16334856,9.80256,-0.0015230775,-5.428344E-4,0.12858868,0.0126600135,-0.0069488105,0.43857372,2017-01-12 16:55:50,33.823685506695824
0.24899697,0.16280572,9.969456,-0.0010652645,0.002130529,-0.006924219,2.0,0.23655082,0.15887299,9.802509,0.01244615,0.0039327294,0.16694641,0.0126074115,-0.0072231162,0.44309098,2017-01-12 16:55:51,54.025324213603085
0.23942018,0.16280572,9.969456,-0.0015978967,7.9894834E-4,7.9894834E-4,2.0,0.23919258,0.15468849,9.802512,2.2760034E-4,0.008117229,0.16694355,0.012465091,-0.0074564014,0.44179857,2017-01-12 16:55:52,32.83261328578478
0.22026655,0.17238252,9.959879,0.010120012,-7.9894834E-4,-0.0055926386,3.0,0.23804899,0.15938382,9.802465,-0.017782435,0.0129987,0.15741348,0.012646947,-0.0073107406,0.44091654,2017-01-12 16:55:53,36.91073138335686
0.22026655,0.17238252,9.988609,-0.009853696,0.009321064,0.006924219,3.0,0.23541218,0.16540681,9.802429,0.013584793,-0.002601087,0.16702652,0.012856175,-0.0070676464,0.44000837,2017-01-12 16:55:54,34.245656423067
0.22984336,0.15322891,9.959879,-0.0034621095,-0.0037284256,0.002130529,3.0,0.24215603,0.16428563,9.802284,-0.012312666,-0.011056721,0.15759468,0.012973264,-0.007371695,0.4420783,2017-01-12 16:55:55,35.40341990301657
0.22984336,0.16280572,9.959879,0.002396845,-7.9894834E-4,-0.002396845,3.0,0.238662,0.16372178,9.802379,-0.008818641,-9.160638E-4,0.15750027,0.012831074,-0.0072911503,0.43742746,2017-01-12 16:55:56,33.922855169170965
0.22984336,0.16280572,9.969456,0.010652645,-0.006924219,-5.326322E-4,3.0,0.23283926,0.1620416,9.8025465,-0.0029958934,7.6411664E-4,0.16690922,0.012650837,-0.0070135742,0.44084382,2017-01-12 16:55:57,36.126896905264125
0.23942018,0.16280572,9.969456,-0.0077231675,-0.0026631611,-0.0026631611,3.0,0.23256676,0.15711938,9.802632,0.0068534166,0.0056863427,0.16682339,0.012427036,-0.007098406,0.44180828,2017-01-12 16:55:58,34.11170356601567
0.22984336,0.17238252,9.969456,-0.0010652645,-2.663161E-4,-0.0055926386,3.0,0.23447078,0.15704054,9.802588,-0.0046274215,0.015341982,0.16686726,0.012425044,-0.0072584497,0.43667173,2017-01-12 16:55:59,31.27576738066274
0.22984336,0.16280572,9.988609,0.0037284256,0.004527374,0.0010652645,3.0,0.23062138,0.16527702,9.802545,-7.780194E-4,-0.002471298,0.18606472,0.01275778,-0.0068249637,0.44102925,2017-01-12 16:56:00,42.031352957524895
0.23942018,0.17238252,9.969456,-0.0053263223,0.0015978967,-7.9894834E-4,3.0,0.23279041,0.16681917,9.802467,0.006629765,0.0055633485,0.16698837,0.012844939,-0.0069475444,0.4377971,2017-01-12 16:56:01,32.77190442220686
0.23942018,0.16280572,9.950302,-0.00479369,-0.009321064,5.326322E-4,3.0,0.23598431,0.15810364,9.802535,-0.0061409473,0.0047020763,0.17649746,0.012605449,-0.0071471427,0.44811463,2017-01-12 16:56:02,32.14634889193705
0.22984336,0.16280572,9.969456,0.0037284256,0.0029294773,-0.0034621095,3.0,0.23439993,0.15935735,9.802553,0.005020246,-0.0061284453,0.14774895,0.012556256,-0.0071573164,0.43998852,2017-01-12 16:56:03,29.13902114650437
0.24899697,0.17238252,9.969456,0.010386328,0.015446335,-0.002130529,3.0,0.22992778,0.16421036,9.802579,0.009492397,0.017748967,0.1668768,0.012708367,-0.0067873066,0.44396964,2017-01-12 16:56:04,30.512747510998025
0.24899697,0.16280572,9.959879,-0.009054748,-0.0055926386,-0.008522116,3.0,0.23463896,0.16240415,9.802497,0.014358014,4.015714E-4,0.15738201,0.012711562,-0.0070812455,0.44130617,2017-01-12 16:56:05,52.35493194119152
0.23942018,0.16280572,9.969456,-0.0013315806,-2.663161E-4,0.0031957934,3.0,0.2366012,0.16038503,9.802484,0.0028189719,0.0024206936,0.16697216,0.012661674,-0.007219396,0.44109893,2017-01-12 16:56:06,41.01375076747111
0.24899697,0.15322891,9.969456,0.002130529,-7.9894834E-4,-0.004527374,3.0,0.23298177,0.16157275,9.802551,0.016015202,-0.008343846,0.16690445,0.012648438,-0.007002071,0.4428709,2017-01-12 16:56:07,32.27432113659463
0.22984336,0.16280572,9.969456,0.0013315806,0.002130529,-0.0055926386,3.0,0.23250829,0.1635707,9.802528,-0.0026649237,-7.649809E-4,0.16692734,0.012707199,-0.006975339,0.4400466,2017-01-12 16:56:08,38.78239817882907
0.24899697,0.16280572,9.959879,0.0018642128,-0.0026631611,0.0029294773,3.0,0.23932555,0.15641408,9.802482,0.00967142,0.0063916445,0.15739727,0.012548973,-0.007420328,0.44203293,2017-01-12 16:56:09,28.494108820754672
0.22984336,0.17238252,9.969456,0.0055926386,0.013315806,0.0034621095,0.0,0.23662151,0.15417056,9.802583,0.0027986616,0.008635163,0.16687298,0.012354122,-0.007399635,0.4382288,2017-01-12 16:56:10,28.199531785382042
0.23942018,0.16280572,9.969456,-5.326322E-4,2.663161E-4,-0.0015978967,3.0,0.23513784,0.15864183,9.8025465,0.0042823404,0.004163891,0.16690922,0.0125938095,-0.0071128067,0.44671732,2017-01-12 16:56:11,28.48412367046837
0.23942018,0.16280572,9.969456,0.00958738,-0.0034621095,-0.0061252704,3.0,0.23828942,0.15747139,9.802489,0.0011307597,0.0053343326,0.16696644,0.012580553,-0.007337833,0.44283643,2017-01-12 16:56:12,33.515687106201455
0.24899697,0.17238252,9.9790325,0.0034621095,2.663161E-4,-0.004527374,3.0,0.23705336,0.15367763,9.80258,0.0119436085,0.018704891,0.17645264,0.012364397,-0.00739175,0.44104192,2017-01-12 16:56:13,35.84089096773036
0.23942018,0.16280572,9.969456,-0.0018642128,0.0055926386,-0.0053263223,3.0,0.23263201,0.15771893,9.802622,0.0067881644,0.0050867945,0.16683388,0.012460836,-0.0070792628,0.44242877,2017-01-12 16:56:14,34.39051627530414
0.22984336,0.16280572,9.9790325,0.0031957934,2.663161E-4,-0.008255799,3.0,0.23279859,0.15795685,9.802614,-0.002955228,0.0048488677,0.1764183,0.0124343075,-0.007153557,0.43723464,2017-01-12 16:56:15,32.44633730976632
0.23942018,0.16280572,9.959879,-0.0037284256,0.00479369,-0.0031957934,3.0,0.23564062,0.15710324,9.80256,0.0037795603,0.0057024807,0.15731907,0.012454488,-0.0073098545,0.43673396,2017-01-12 16:56:16,28.377111623900255
0.24899697,0.15322891,9.969456,-0.010918961,-0.009321064,0.0010652645,3.0,0.23379049,0.1622308,9.802521,0.015206486,-0.009001896,0.16693497,0.012695392,-0.00702673,0.44269097,2017-01-12 16:56:17,29.74194312062446
0.22984336,0.17238252,9.959879,-0.009321064,0.0029294773,0.0029294773,3.0,0.23144722,0.16334438,9.802558,-0.0016038567,0.009038135,0.15732098,0.012671716,-0.0069342027,0.43987873,2017-01-12 16:56:18,30.462338673905688
0.22984336,0.17238252,9.9790325,-0.00479369,-5.326322E-4,-0.0037284256,3.0,0.23577918,0.1636879,9.802448,-0.005935818,0.008694619,0.17658424,0.012797717,-0.007101404,0.4415252,2017-01-12 16:56:19,27.476103070022617
0.22984336,0.16280572,10.0269165,-0.005060006,0.0013315806,0.0013315806,3.0,0.24186249,0.15950711,9.80237,-0.012019128,0.012875408,0.13835526,0.012768222,-0.007431457,0.44450474,2017-01-12 16:56:20,33.15071629509415
0.24899697,0.15322891,9.950302,0.0055926386,0.011451593,0.007456851,3.0,0.23929486,0.16669971,9.802313,0.009702116,-0.0038939863,0.17671967,0.013022866,-0.0071796915,0.44254097,2017-01-12 16:56:21,72.4173208231546
0.23942018,0.16280572,9.969456,-0.0013315806,5.326322E-4,-0.0018642128,3.0,0.23634812,0.16252322,9.802454,0.012648851,0.009859294,0.17657852,0.012746649,-0.0071725096,0.44019836,2017-01-12 16:56:22,29.46163540091737
0.24899697,0.16280572,9.988609,0.0055926386,0.0053263223,-0.006924219,3.0,0.23677438,0.16060773,9.802476,-0.006931022,-0.0073788166,0.17655659,0.012676728,-0.0072206194,0.4412187,2017-01-12 16:56:23,30.210376141932294
0.23942018,0.17238252,9.959879,-0.0077231675,-0.0037284256,-0.0034621095,3.0,0.23295422,0.16000403,9.802577,0.0064659566,0.012378484,0.1573019,0.0126093,-0.006976546,0.44711554,2017-01-12 16:56:24,29.220518457133696
0.22984336,0.17238252,9.959879,7.9894834E-4,0.002130529,-0.0029294773,3.0,0.23062918,0.16567601,9.802538,0.008791,-0.012447104,0.1477642,0.012776725,-0.0068134344,0.4420579,2017-01-12 16:56:25,32.01791103465697
0.24899697,0.16280572,9.969456,-0.009054748,0.0053263223,-5.326322E-4,3.0,0.23296452,0.15910606,9.802592,0.016032457,0.0036996603,0.16686344,0.012514686,-0.0070934147,0.44026208,2017-01-12 16:56:26,29.92744311205136
0.22984336,0.16280572,9.998186,-0.005060006,-0.0031957934,5.326322E-4,3.0,0.23735692,0.1561311,9.802534,-0.007513553,0.0066746175,0.19565201,0.012464856,-0.007382066,0.43876678,2017-01-12 16:56:27,28.083179011173275
0.23942018,0.15322891,10.01734,-0.0053263223,-0.0058589545,0.0026631611,3.0,0.2336992,0.15857202,9.802583,0.005720973,-0.0053431094,0.21475697,0.012468583,-0.0072054714,0.43548006,2017-01-12 16:56:28,57.51857703899938
0.24899697,0.16280572,9.998186,0.00479369,-7.9894834E-4,0.0010652645,3.0,0.23363781,0.15975678,9.802565,0.015359163,0.0030489415,0.19562149,0.012541947,-0.0071407384,0.43803552,2017-01-12 16:56:29,33.85341088338817
0.23942018,0.17238252,9.9790325,-0.0018642128,-0.008522116,0.0055926386,3.0,0.2434284,0.15646881,9.80238,-0.0040082186,0.01591371,0.17665291,0.012585984,-0.007702379,0.43522182,2017-01-12 16:56:30,46.23916949899254
0.23942018,0.16280572,9.959879,0.006657903,0.011451593,-0.0013315806,3.0,0.24008353,0.16305962,9.802355,-6.63355E-4,-2.539009E-4,0.15752411,0.012838846,-0.0073599275,0.43821022,2017-01-12 16:56:31,49.728437302927674
0.24899697,0.16280572,9.9790325,-0.0061252704,-0.008522116,0.002130529,3.0,0.23819125,0.16719134,9.802332,-0.008347884,-0.0043856204,0.1671238,0.012955824,-0.0072350595,0.4344512,2017-01-12 16:56:32,49.50115406943618
0.23942018,0.1436521,9.969456,5.326322E-4,0.0026631611,0.0058589545,3.0,0.23883264,0.159601,9.802443,0.010164335,0.012781516,0.15743637,0.012659027,-0.007368396,0.4390258,2017-01-12 16:56:33,35.990216921412966
0.24899697,0.16280572,9.9790325,0.0029294773,0.00479369,-0.004261058,3.0,0.23886527,0.15619433,9.802496,0.010131702,0.006611392,0.17653656,0.01249504,-0.0074606263,0.43798578,2017-01-12 16:56:34,34.36832705648869
0.23942018,0.15322891,9.959879,0.005060006,0.008788432,-0.0026631611,3.0,0.23674649,0.15895775,9.802504,0.0026736856,-0.005728841,0.15737534,0.012603433,-0.007251527,0.44157046,2017-01-12 16:56:35,33.826737940802204
0.23942018,0.16280572,9.931149,0.010652645,0.015180019,0.002396845,3.0,0.23716462,0.15732644,9.80252,0.002255559,0.005479276,0.12862873,0.0124595715,-0.0074406806,0.4319786,2017-01-12 16:56:36,34.55541457977925
0.22984336,0.17238252,9.988609,-0.0039947415,0.007989483,0.004527374,3.0,0.24047484,0.1531825,9.802505,-0.010631472,0.019200012,0.18610477,0.0123697,-0.0076394174,0.4352439,2017-01-12 16:56:37,41.07956854537938
0.22984336,0.16280572,9.9790325,-0.0031957934,0.0053263223,0.0010652645,3.0,0.2349371,0.15601362,9.802594,-0.0050937384,0.0067920983,0.17643833,0.012456206,-0.0071863006,0.44508156,2017-01-12 16:56:38,35.27896509911325
0.25857377,0.16280572,9.950302,0.0058589545,0.002130529,-0.0018642128,3.0,0.23797761,0.15772128,9.802494,0.020596161,0.00508444,0.14780807,0.012534589,-0.0074038417,0.4366944,2017-01-12 16:56:39,33.46111360836011
0.24899697,0.16280572,9.9790325,0.0010652645,0.0061252704,7.9894834E-4,3.0,0.23867437,0.15548445,9.802512,7.458031E-4,0.0073212683,0.18609715,0.012450411,-0.0074807596,0.43704522,2017-01-12 16:56:40,38.20469297662821
0.23942018,0.15322891,9.950302,0.0029294773,0.0061252704,2.663161E-4,3.0,0.23687991,0.1574316,9.802525,0.0025402606,-0.0042026937,0.14777756,0.012489253,-0.007372808,0.4357676,2017-01-12 16:56:41,37.91414791058324
0.23942018,0.16280572,9.959879,-0.0058589545,-0.0034621095,-5.326322E-4,3.0,0.23119392,0.16062354,9.8026085,0.008226261,0.0021821856,0.15727043,0.012524934,-0.007013165,0.43776205,2017-01-12 16:56:42,42.245872273434266
0.23942018,0.17238252,9.9790325,-0.007989483,0.0039947415,-0.0055926386,3.0,0.23626675,0.16266038,9.802454,0.0031534284,0.009722143,0.17657852,0.012734411,-0.0071953246,0.43811032,2017-01-12 16:56:43,33.28850852831147
0.22984336,0.16280572,9.940725,0.007456851,0.0013315806,-0.010652645,3.0,0.23697422,0.15916552,9.802494,-0.0071308613,0.0036402047,0.13823128,0.012577501,-0.00732735,0.43657294,2017-01-12 16:56:44,41.95741104449514
0.23942018,0.15322891,9.9790325,-0.0018642128,-0.0039947415,0.0010652645,3.0,0.2366641,0.15891331,9.8025055,0.002756074,-0.0056844056,0.17652702,0.012606729,-0.007236252,0.44246045,2017-01-12 16:56:45,46.29903407522657
0.22984336,0.16280572,9.969456,-0.0031957934,0.010652645,-0.0029294773,3.0,0.23299986,0.1611908,9.802557,-0.003156498,0.0016149282,0.16689873,0.012545952,-0.0071632694,0.43203306,2017-01-12 16:56:46,35.489028896895384
0.23942018,0.15322891,9.969456,0.0015978967,0.004527374,0.0015978967,3.0,0.23884876,0.15941724,9.802444,5.714148E-4,-0.006188333,0.16701126,0.012614989,-0.007434638,0.4346551,2017-01-12 16:56:47,48.544676320479205
0.24899697,0.17238252,9.9790325,-0.004527374,0.010120012,0.009853696,3.0,0.23837724,0.16184498,9.802417,0.01061973,0.010537535,0.17661572,0.012764635,-0.00727455,0.4406265,2017-01-12 16:56:48,48.908821768260395
0.23942018,0.16280572,9.940725,0.002130529,-7.9894834E-4,-0.002130529,3.0,0.23290358,0.15978672,9.802582,0.0065165907,0.003019005,0.13814354,0.012507689,-0.007140191,0.4356085,2017-01-12 16:56:49,44.758215353495636
0.24899697,0.16280572,9.950302,0.0061252704,-0.0015978967,0.002396845,3.0,0.23844227,0.16210875,9.802411,0.010554701,6.96972E-4,0.14789104,0.012761106,-0.0073015066,0.43852317,2017-01-12 16:56:50,46.1118724716023
0.24899697,0.16280572,9.959879,-0.0061252704,0.0015978967,0.0055926386,3.0,0.24341814,0.16075672,9.80231,0.005578831,0.002048999,0.15756893,0.012788455,-0.0075969473,0.43591118,2017-01-12 16:56:51,47.80264312495688
0.22984336,0.18195933,9.969456,-0.002130529,0.0031957934,-0.004527374,3.0,0.23755263,0.1654215,9.802378,-0.0077092648,0.01653783,0.16707802,0.012885667,-0.007199854,0.4376027,2017-01-12 16:56:52,36.72674993544776
0.23942018,0.17238252,9.998186,-0.002130529,0.0055926386,0.0034621095,3.0,0.23710941,0.16659643,9.802368,0.0023107678,0.005786091,0.19581795,0.012927259,-0.0071576294,0.43730253,2017-01-12 16:56:53,46.58045054500869
0.22984336,0.16280572,9.959879,-0.006924219,0.016511599,-0.00479369,3.0,0.24099469,0.15533075,9.802458,-0.011151329,0.007474974,0.15742111,0.012505252,-0.00757386,0.4382494,2017-01-12 16:56:54,40.0684478531973
0.23942018,0.16280572,9.959879,0.011185277,0.010652645,-0.007190535,3.0,0.23221532,0.15730727,9.802639,0.0072048604,0.005498454,0.15723991,0.012380702,-0.0071600038,0.4358757,2017-01-12 16:56:55,31.40308971970264
0.23942018,0.16280572,9.959879,5.326322E-4,0.0031957934,0.006924219,3.0,0.23153362,0.16065907,9.8026,0.017463356,0.0021466464,0.15727901,0.0125068,-0.0070765004,0.4342724,2017-01-12 16:56:56,31.660026976823588
0.22984336,0.16280572,9.9790325,-0.00479369,7.9894834E-4,-2.663161E-4,3.0,0.23401152,0.16068843,9.802541,-0.004168153,0.002117291,0.17649174,0.01256818,-0.0071806926,0.43491536,2017-01-12 16:56:57,46.99491074208397
0.23942018,0.16280572,9.969456,-0.0061252704,-0.0055926386,-0.004261058,3.0,0.23727216,0.15776892,9.80251,0.0021480173,0.005036801,0.16694546,0.01249575,-0.0074132425,0.43361247,2017-01-12 16:56:58,45.24866749415345
0.23942018,0.16280572,9.959879,7.9894834E-4,-0.0031957934,-0.002396845,3.0,0.23463398,0.15875413,9.802557,0.0047861934,0.004051596,0.15732193,0.012479008,-0.007236239,0.43657044,2017-01-12 16:56:59,37.24274503892724
0.23942018,0.15322891,9.988609,-0.0013315806,0.009054748,-0.002396845,3.0,0.23207779,0.16164659,9.80257,0.0073423833,-0.008417681,0.18603897,0.012597408,-0.0070204013,0.4385075,2017-01-12 16:57:00,54.32557145511677
0.23942018,0.16280572,9.969456,-0.0015978967,0.0029294773,0.004527374,3.0,0.23501632,0.15750793,9.802568,-0.005172953,0.005297795,0.15731049,0.01249277,-0.0072142845,0.44090512,2017-01-12 16:57:01,30.83387640794257
0.24899697,0.16280572,9.959879,-0.0077231675,-0.00479369,-0.004527374,3.0,0.23214088,0.15572056,9.802666,0.01685609,0.0070851594,0.15721321,0.01234189,-0.0071304683,0.44035277,2017-01-12 16:57:02,32.912584372008084
0.24899697,0.16280572,9.892841,0.0010652645,0.0055926386,-0.004261058,3.0,0.2305746,0.16083542,9.80262,0.01842238,0.001970306,0.090221405,0.012543422,-0.006939335,0.44067976,2017-01-12 16:57:03,33.277340255010614
0.24899697,0.15322891,9.969456,0.006657903,0.010386328,-7.9894834E-4,3.0,0.23482257,0.15979059,9.802536,0.0045976043,0.0030151308,0.14776611,0.012567432,-0.007216201,0.43714368,2017-01-12 16:57:04,45.37475894835556
0.23942018,0.17238252,9.959879,-0.009853696,-0.004527374,-0.004527374,3.0,0.23754704,0.15462878,9.802553,0.0018731356,0.017753735,0.15732574,0.012390187,-0.0074412,0.43754798,2017-01-12 16:57:05,43.82468472132106
0.23942018,0.16280572,9.940725,0.0034621095,0.009321064,0.0037284256,3.0,0.23466958,0.1578184,9.802571,0.0047505945,0.0049873143,0.13815403,0.012472164,-0.007238188,0.43754146,2017-01-12 16:57:06,40.5481662227178
0.22984336,0.17238252,10.0269165,-0.011185277,0.0037284256,-0.0010652645,3.0,0.23429742,0.16352974,9.802487,-0.0044540614,0.00885278,0.22442913,0.012703902,-0.007132759,0.43477675,2017-01-12 16:57:07,46.91230260901893
0.23942018,0.15322891,9.959879,0.0026631611,0.0061252704,2.663161E-4,3.0,0.23043059,0.15838815,9.802663,-5.8722496E-4,0.0044175684,0.18594646,0.01240035,-0.007036962,0.43711755,2017-01-12 16:57:08,46.7579393008221
0.22984336,0.15322891,9.931149,0.0061252704,0.0061252704,-0.002130529,3.0,0.2316692,0.16040087,9.802601,0.007750973,0.0024048537,0.16685486,0.012533868,-0.007024727,0.43885216,2017-01-12 16:57:09,49.548186998856224
0.22984336,0.16280572,9.969456,0.0039947415,0.009321064,0.00479369,3.0,0.23363158,0.1614314,9.802538,-0.003788218,0.0013743192,0.1669178,0.012638823,-0.007066962,0.44060197,2017-01-12 16:57:10,51.804761200761284
0.23942018,0.15322891,9.9790325,-0.006924219,0.002130529,-0.002130529,3.0,0.23308921,0.16004893,9.802573,0.006330967,-0.006820023,0.17645931,0.012541057,-0.0071126344,0.43777978,2017-01-12 16:57:11,35.41687907969332
0.22984336,0.16280572,9.959879,-0.00479369,0.0063915867,-0.0037284256,3.0,0.23670246,0.1599949,9.802487,-0.006859094,0.002810821,0.15739155,0.012629834,-0.0072611645,0.43908414,2017-01-12 16:57:12,35.140219056507846
0.24899697,0.16280572,9.940725,-0.008255799,-0.0034621095,-0.0034621095,3.0,0.23246911,0.16309012,9.802538,0.006951064,-2.8440356E-4,0.1669178,0.012657837,-0.007032196,0.43665174,2017-01-12 16:57:13,35.64959340792486
0.23942018,0.16280572,9.9790325,-0.0061252704,-0.0077231675,2.663161E-4,3.0,0.23375703,0.16312686,9.802506,0.0056631416,-3.2113492E-4,0.17652607,0.012682394,-0.0071008597,0.435914,2017-01-12 16:57:14,36.95339004248619
0.23942018,0.15322891,9.9790325,0.0018642128,0.0063915867,0.0013315806,3.0,0.23776229,0.15344873,9.802567,0.0016578883,-2.1982193E-4,0.17646599,0.012296819,-0.007549636,0.43226844,2017-01-12 16:57:15,34.610868975263514
0.23942018,0.16280572,9.969456,-0.002396845,0.0013315806,-0.0013315806,3.0,0.2361082,0.15383893,9.8026,0.0033119768,0.008966789,0.16685581,0.012302822,-0.007424473,0.43523756,2017-01-12 16:57:16,34.761081275654185
0.22026655,0.16280572,9.950302,-0.007190535,0.0010652645,-0.0029294773,3.0,0.2333285,0.15918297,9.802581,-0.013061956,0.0036227554,0.14772129,0.012493617,-0.0071657887,0.43613562,2017-01-12 16:57:17,35.42605700783496
0.24899697,0.16280572,9.959879,-0.0013315806,-0.004261058,0.0015978967,3.0,0.23743795,0.16130458,9.802448,0.001982227,0.001501143,0.15743065,0.012695931,-0.007283671,0.43780094,2017-01-12 16:57:18,35.25505685195242
0.22984336,0.15322891,9.969456,0.004261058,-0.0013315806,5.326322E-4,3.0,0.23916027,0.16226655,9.802391,-0.009316906,-0.009037644,0.16706467,0.012759689,-0.007373814,0.43550014,2017-01-12 16:57:19,35.2019084760916
0.24899697,0.17238252,9.969456,0.0029294773,0.0018642128,0.004527374,3.0,0.23766549,0.161329,9.802443,0.011331484,0.011053517,0.16701317,0.012728628,-0.007247219,0.441074,2017-01-12 16:57:20,35.9984912254607
0.23942018,0.17238252,9.9790325,0.00958738,0.002396845,7.9894834E-4,3.0,0.23854463,0.15937875,9.802453,8.755475E-4,0.013003767,0.17657948,0.012587917,-0.007452961,0.4324066,2017-01-12 16:57:21,33.80239138204229
0.23942018,0.16280572,9.940725,-0.004261058,0.006657903,0.005060006,3.0,0.23664041,0.16092107,9.802474,0.002779767,0.0018846542,0.1382513,0.012703609,-0.0071799825,0.4431581,2017-01-12 16:57:22,34.25947243211594
0.22984336,0.15322891,9.9790325,-0.005060006,0.0010652645,-0.0029294773,3.0,0.23729335,0.16264938,9.802429,-0.0074499846,-0.009420469,0.17660332,0.012767796,-0.0072233207,0.43946946,2017-01-12 16:57:23,35.638612891638026
0.23942018,0.16280572,9.959879,-0.0015978967,0.0018642128,-7.9894834E-4,3.0,0.2357745,0.16176125,9.802481,0.0036456734,0.0010444671,0.15739822,0.0126918405,-0.0071758106,0.43931717,2017-01-12 16:57:24,32.852296518899315
0.25857377,0.17238252,9.950302,0.0015978967,0.0010652645,0.0018642128,3.0,0.23811208,0.15378208,9.802552,0.020461693,0.018600434,0.1477499,0.012365596,-0.00748332,0.4377429,2017-01-12 16:57:25,49.295111112550245
0.23942018,0.15322891,9.969456,-0.0013315806,0.0013315806,-0.011451593,3.0,0.2376768,0.15431646,9.802555,0.0017433763,-0.0010875463,0.16690063,0.012335896,-0.0075647077,0.43197632,2017-01-12 16:57:26,55.80991376555929
0.24899697,0.17238252,9.969456,-0.0015978967,-0.0034621095,0.004527374,3.0,0.23222116,0.15991333,9.802596,0.016775817,0.012469187,0.16685963,0.012492571,-0.007116185,0.4348788,2017-01-12 16:57:27,38.63512863701162
0.23942018,0.16280572,9.988609,-0.0037284256,-0.00479369,-0.0029294773,3.0,0.235015,0.16459031,9.802452,0.0044051707,-0.0017845929,0.18615723,0.012766082,-0.007146564,0.43446866,2017-01-12 16:57:28,47.121649295709524
0.23942018,0.15322891,9.969456,-0.0010652645,-0.002396845,-0.005060006,3.0,0.23661454,0.16159236,9.802464,-0.006771177,-0.0083634555,0.17656898,0.012674683,-0.0072675636,0.4358105,2017-01-12 16:57:29,39.7616063772353
0.23942018,0.16280572,9.969456,0.005060006,0.0053263223,-7.9894834E-4,3.0,0.23698246,0.16094334,9.802465,0.0024377108,0.0018623769,0.16699028,0.012688822,-0.0072365417,0.44023207,2017-01-12 16:57:30,44.00737894398326
0.22984336,0.16280572,9.940725,0.010120012,0.009321064,-0.0061252704,3.0,0.23309301,0.16190939,9.802543,-0.0032496452,8.9633465E-4,0.13818264,0.012659193,-0.00701248,0.44195557,2017-01-12 16:57:31,39.334301289764284
0.22984336,0.16280572,9.911995,-0.0058589545,0.006657903,-0.004527374,3.0,0.23654993,0.15844175,9.802516,-0.0067065656,0.004363969,0.10947895,0.012567864,-0.0072671915,0.4406398,2017-01-12 16:57:32,44.47998748804798
0.23942018,0.15322891,9.940725,-0.0018642128,0.0061252704,0.0026631611,3.0,0.23849627,0.15903942,9.80246,9.239018E-4,-0.005810514,0.13826561,0.012596489,-0.0074155093,0.4354641,2017-01-12 16:57:33,42.81496878863354
0.24899697,0.16280572,9.959879,0.0029294773,-0.0015978967,2.663161E-4,3.0,0.23677346,0.16351335,9.802428,0.012223512,-7.0762634E-4,0.15745068,0.012794027,-0.0071831546,0.43925825,2017-01-12 16:57:34,49.16155989073868
0.25857377,0.16280572,9.940725,-0.0018642128,0.0031957934,7.9894834E-4,3.0,0.24182832,0.15963024,9.802368,0.016745448,0.0031754822,0.13835716,0.012707161,-0.007539319,0.43659887,2017-01-12 16:57:35,37.19713750749727
0.23942018,0.17238252,9.959879,0.004527374,0.00958738,-0.0055926386,3.0,0.24011235,0.15950954,9.802412,-6.9217384E-4,0.012872979,0.15746689,0.012644849,-0.0074946736,0.43436643,2017-01-12 16:57:36,41.32286467351642
0.23942018,0.16280572,9.959879,-7.9894834E-4,0.016245283,-0.005060006,3.0,0.23705629,0.15735732,9.802522,0.0023638904,0.005448401,0.15735722,0.012442589,-0.0074617877,0.43003884,2017-01-12 16:57:37,30.88955157466939
0.23942018,0.16280572,9.969456,-7.9894834E-4,0.0037284256,-0.00479369,3.0,0.23360984,0.15930049,9.802573,0.0058103353,0.00350523,0.16688251,0.012528498,-0.007135453,0.43905404,2017-01-12 16:57:38,42.934282403143186
0.22984336,0.1436521,9.959879,-0.010652645,0.004261058,0.0013315806,3.0,0.23520209,0.15789025,9.802557,-0.005358726,0.004915476,0.15732193,0.012509254,-0.007223196,0.44025904,2017-01-12 16:57:39,36.43834298582512
0.24899697,0.16280572,9.969456,5.326322E-4,0.009054748,-0.002130529,3.0,0.23097116,0.15864286,9.802647,-0.010704607,0.004162863,0.15723228,0.012429054,-0.0070473263,0.43775067,2017-01-12 16:57:40,42.485049038601126
0.22984336,0.16280572,9.959879,0.007989483,7.9894834E-4,-0.0055926386,3.0,0.23014641,0.16007216,9.802642,-3.0304492E-4,0.0027335584,0.15723705,0.012501419,-0.006932269,0.4410115,2017-01-12 16:57:41,36.215342943586045
0.24899697,0.16280572,9.950302,0.002396845,0.010120012,2.663161E-4,3.0,0.2371428,0.16241182,9.802437,0.011854172,3.938973E-4,0.1478653,0.012768746,-0.007194824,0.4413635,2017-01-12 16:57:42,32.50745194747827
0.24899697,0.17238252,9.9790325,0.006924219,0.009054748,7.9894834E-4,3.0,0.2354525,0.1597767,9.802521,-0.00560914,0.0030290186,0.17651176,0.012608546,-0.0071795206,0.4411695,2017-01-12 16:57:43,30.35768169188929
0.24899697,0.16280572,9.959879,-0.002396845,0.009321064,-0.0013315806,3.0,0.2343455,0.16506125,9.802461,0.014651477,-0.0022555292,0.15741825,0.012799687,-0.007056966,0.4378755,2017-01-12 16:57:44,33.97622616475098
0.22984336,0.15322891,9.950302,-0.009054748,0.004527374,7.9894834E-4,3.0,0.2413425,0.15973598,9.802379,-0.011499137,-0.006507069,0.14792347,0.012730864,-0.0074642957,0.44015947,2017-01-12 16:57:45,30.326405824587344
0.22984336,0.15322891,9.959879,-0.0010652645,-0.0037284256,-0.006657903,3.0,0.24419299,0.15419607,9.802397,-0.0143496245,-9.6715987E-4,0.15748215,0.012475088,-0.007825546,0.43250743,2017-01-12 16:57:46,28.966547966506578
0.22984336,0.15322891,9.950302,2.663161E-4,0.007456851,7.9894834E-4,3.0,0.23723581,0.1555121,9.8025465,-0.007392451,-0.0022831857,0.14775562,0.012421669,-0.0074107028,0.4372961,2017-01-12 16:57:47,45.873359077245894
0.22026655,0.16280572,9.969456,-0.0026631611,0.0029294773,-0.0026631611,3.0,0.2340342,0.16091245,9.802536,-0.013767645,0.001893267,0.16691971,0.01260564,-0.007129817,0.4382692,2017-01-12 16:57:48,44.303623928701
0.23942018,0.18195933,9.959879,0.008788432,0.008255799,-0.006657903,3.0,0.23720625,0.16372669,9.802414,0.0022139251,0.018232644,0.15746498,0.012791966,-0.007236402,0.43657616,2017-01-12 16:57:49,31.046525767892163
0.24899697,0.16280572,9.969456,-0.0031957934,-0.0053263223,-0.0034621095,3.0,0.23686463,0.15871984,9.802505,0.012132347,0.0040858835,0.16695118,0.012572098,-0.007302223,0.43872124,2017-01-12 16:57:50,29.215029523507297
0.23942018,0.17238252,9.969456,0.004261058,0.002396845,-0.0031957934,3.0,0.23142011,0.16250932,9.802572,0.008000061,0.0098731965,0.16688347,0.012599095,-0.0070127123,0.43553057,2017-01-12 16:57:51,29.842015328292476
0.23942018,0.17238252,9.969456,-0.013582122,-0.0058589545,2.663161E-4,3.0,0.22935687,0.16358775,9.802603,0.0100633055,-0.01035884,0.15727615,0.012635926,-0.006833067,0.43987554,2017-01-12 16:57:52,34.64518939892595
0.23942018,0.16280572,9.959879,0.0039947415,0.004261058,-0.0055926386,3.0,0.23124544,0.15649174,9.802674,0.008174732,0.0063139796,0.15720463,0.012346427,-0.007090745,0.43900132,2017-01-12 16:57:53,31.611466386793424
0.23942018,0.17238252,9.959879,0.0063915867,-0.00958738,-0.0015978967,2.0,0.23351628,0.16537721,9.802474,0.0059038997,0.007005304,0.1574049,0.012819947,-0.006967372,0.44099787,2017-01-12 16:57:54,33.75493418450888
0.23942018,0.16280572,9.988609,-0.004261058,-0.004261058,-0.0013315806,2.0,0.23616587,0.16939308,9.802342,0.0032543093,-0.0065873563,0.1862669,0.013089679,-0.006948984,0.44438007,2017-01-12 16:57:55,34.59981033657417
0.23942018,0.15322891,9.988609,-0.004527374,0.0055926386,-0.0013315806,0.0,0.24359182,0.15763581,9.802357,-0.0041716397,-0.004406899,0.1862526,0.0126162665,-0.007728112,0.4320736,2017-01-12 16:57:56,63.49666199000404
0.23942018,0.17238252,9.969456,0.0015978967,0.005060006,-5.326322E-4,3.0,0.24640787,0.15385373,9.802347,-0.006987691,0.01852879,0.16710854,0.012564935,-0.007844815,0.4389761,2017-01-12 16:57:57,33.04120259835481
0.24899697,0.17238252,9.959879,-0.011451593,0.0013315806,-5.326322E-4,3.0,0.24046983,0.15867065,9.802418,0.008527145,0.01371187,0.15746117,0.012646415,-0.0074755023,0.43822512,2017-01-12 16:57:58,54.87986135034817
0.24899697,0.15322891,9.969456,0.0031957934,-5.326322E-4,-0.0013315806,0.0,0.23758245,0.16254093,9.802424,0.011414528,-0.009312019,0.16703129,0.012751517,-0.007270287,0.43726555,2017-01-12 16:57:59,36.9829366750302
0.22984336,0.16280572,9.998186,-0.0031957934,-0.0053263223,-0.00479369,2.0,0.23626871,0.1576538,9.802536,-0.006425351,0.0051519275,0.1956501,0.012516131,-0.0072880867,0.43948808,2017-01-12 16:58:00,39.11553459257273
0.23942018,0.17238252,9.950302,-0.0034621095,-0.009853696,-2.663161E-4,3.0,0.23080818,0.16203725,9.802595,0.008611992,0.010345265,0.14770699,0.012591747,-0.0069447244,0.43913266,2017-01-12 16:58:01,36.7860575013879
0.23942018,0.16280572,9.959879,-0.0018642128,0.004527374,0.005060006,3.0,0.22816163,0.16449705,9.802616,0.011258543,-0.0016913265,0.1572628,0.0126530435,-0.006753641,0.44018042,2017-01-12 16:58:02,33.591640829628744
0.23942018,0.16280572,9.969456,0.002130529,0.010652645,0.0053263223,3.0,0.2287929,0.16043855,9.802668,0.01062727,0.0023671687,0.1476345,0.012459041,-0.0069140485,0.43726933,2017-01-12 16:58:03,38.58969739374607
0.23942018,0.17238252,9.959879,-0.010918961,-0.0031957934,-0.005060006,3.0,0.2323301,0.15804325,9.802624,0.007090077,0.0047624707,0.17640877,0.012446212,-0.0070979916,0.43955806,2017-01-12 16:58:04,32.00530174412383
0.24899697,0.15322891,9.988609,0.011185277,0.0029294773,-0.0010652645,3.0,0.2292535,0.15838853,9.8026905,0.019743472,-0.0051596165,0.18591881,0.012356657,-0.0070138224,0.4348726,2017-01-12 16:58:05,31.313740241568944
0.25857377,0.16280572,9.969456,0.004527374,0.008522116,7.9894834E-4,3.0,0.23522323,0.15567572,9.802592,0.023350537,0.007129997,0.16686344,0.012380371,-0.00732136,0.43681687,2017-01-12 16:58:06,34.88170424871538
0.23942018,0.17238252,9.9790325,-0.004261058,-0.0010652645,5.326322E-4,3.0,0.2408208,0.15541139,9.802461,-0.0014006197,0.016971126,0.15741825,0.012461339,-0.007674565,0.43181413,2017-01-12 16:58:07,31.890225628996628
0.22984336,0.16280572,9.969456,0.004261058,0.0018642128,-0.006657903,3.0,0.23847282,0.15758623,9.802484,-0.008629456,0.0052194893,0.16697216,0.012615654,-0.0072993734,0.4459815,2017-01-12 16:58:08,35.51870161627927
0.22984336,0.16280572,9.969456,-0.0037284256,0.0031957934,-0.0037284256,3.0,0.23794374,0.16002716,9.802457,-0.0081003755,0.00277856,0.16699886,0.012672111,-0.007294786,0.44068086,2017-01-12 16:58:09,34.00981219345915
0.22984336,0.16280572,9.969456,0.006657903,0.002396845,-0.0034621095,3.0,0.235857,0.15569815,9.802577,-0.006013632,0.007107571,0.1668787,0.012399597,-0.00734306,0.43731534,2017-01-12 16:58:10,30.6707964273906
0.24899697,0.17238252,9.969456,-0.0037284256,-0.009054748,-2.663161E-4,3.0,0.23527496,0.15822956,9.80255,0.00414522,0.0045761615,0.14775181,0.012499706,-0.007265083,0.43694365,2017-01-12 16:58:11,31.500866634113066
0.22984336,0.16280572,10.007763,0.006657903,0.008522116,0.006924219,0.0,0.23207013,0.15735999,9.802641,0.0073500425,0.0054457337,0.14766121,0.012397064,-0.007122362,0.4380396,2017-01-12 16:58:12,52.170727381305866
0.23942018,0.17238252,9.969456,0.0061252704,-0.0061252704,0.0029294773,0.0,0.23192175,0.15564136,9.802671,0.007498428,0.007164359,0.16678429,0.01231322,-0.007156946,0.43782094,2017-01-12 16:58:13,37.467808631415515
0.24899697,0.15322891,9.959879,-0.0034621095,-0.0010652645,-0.002130529,3.0,0.23800541,0.1568033,9.802507,0.010991558,-0.0035743862,0.15737152,0.012478549,-0.0074499724,0.43493482,2017-01-12 16:58:14,35.5628825862367
0.24899697,0.15322891,9.969456,-0.011451593,0.00479369,-0.0034621095,3.0,0.24409406,0.16467677,9.802229,0.004902914,-0.011447862,0.16722679,0.012965096,-0.007572269,0.433729,2017-01-12 16:58:15,35.41916585500212
0.23942018,0.1436521,9.959879,-0.0037284256,-0.0063915867,-0.009054748,3.0,0.23561257,0.16188413,9.802483,0.0038076043,-0.018232033,0.15739632,0.01263638,-0.007266487,0.43215123,2017-01-12 16:58:16,35.52290764718008
0.23942018,0.17238252,9.959879,0.015180019,0.0026631611,-5.326322E-4,3.0,0.24290757,0.15813981,9.802365,-0.0034873933,0.014242709,0.15751362,0.012668271,-0.007612948,0.43724254,2017-01-12 16:58:17,41.82103911990129
0.24899697,0.15322891,9.969456,-0.0039947415,2.663161E-4,0.0015978967,3.0,0.23334217,0.16042008,9.802562,0.015654802,-0.0071911663,0.16689396,0.012577553,-0.0070914696,0.43952924,2017-01-12 16:58:18,34.020733385834696
0.24899697,0.16280572,9.959879,0.0037284256,0.00958738,-0.002130529,3.0,0.2311136,0.16674538,9.802508,0.017883375,-0.0039396584,0.15737057,0.012789836,-0.0068988325,0.43593365,2017-01-12 16:58:19,38.2880422570699
0.22026655,0.16280572,9.9790325,-0.006924219,-0.0018642128,0.0031957934,0.0,0.23599198,0.16237412,9.802465,-0.015725434,4.3159723E-4,0.17656708,0.012702314,-0.0072117723,0.43650803,2017-01-12 16:58:20,37.82525374921865
0.23942018,0.16280572,9.988609,-0.00479369,0.006657903,0.0013315806,3.0,0.23616767,0.15924512,9.802512,0.0032525063,0.0035606027,0.18609715,0.012572644,-0.007272253,0.437741,2017-01-12 16:58:21,32.80653920211739
0.22984336,0.16280572,9.969456,0.0013315806,0.0010652645,0.0037284256,0.0,0.2326504,0.16393805,9.80252,-0.002807036,-0.0011323243,0.16693592,0.012750006,-0.0069318395,0.44298786,2017-01-12 16:58:22,30.11774198920815
0.24899697,0.17238252,9.950302,-0.007190535,-0.010918961,5.326322E-4,0.0,0.23042862,0.16133545,9.802614,0.018568352,0.011047065,0.14768791,0.012543644,-0.006956492,0.43817014,2017-01-12 16:58:23,29.15443074882317
0.23942018,0.16280572,9.969456,-0.00479369,-0.0061252704,-0.004527374,0.0,0.22831494,0.16129895,9.802665,0.011105239,0.0015067756,0.16679096,0.012491211,-0.0068478384,0.43745533,2017-01-12 16:58:24,31.950559086194804
0.23942018,0.17238252,9.959879,0.002396845,0.0013315806,-0.004527374,0.0,0.23203632,0.16492236,9.802517,0.007383853,0.007460162,0.15736198,0.012745319,-0.006947631,0.4383395,2017-01-12 16:58:25,39.52541950799573
0.24899697,0.17238252,9.969456,-0.0015978967,-0.0039947415,-0.007989483,3.0,0.23281167,0.16628465,9.802476,0.016185299,0.006097868,0.16697979,0.012763248,-0.0070656217,0.43039173,2017-01-12 16:58:26,35.19953168882082
0.24899697,0.16280572,9.959879,-0.008522116,0.0026631611,0.0026631611,0.0,0.23990357,0.16095512,9.802394,0.009093404,0.001850605,0.15748501,0.01271503,-0.0074387123,0.43538296,2017-01-12 16:58:27,38.20045478950483
0.22984336,0.16280572,9.950302,0.0026631611,0.00479369,-0.006924219,0.0,0.24188907,0.1560417,9.802424,-0.012045711,0.0067640245,0.1478777,0.012542644,-0.00762402,0.43645427,2017-01-12 16:58:28,32.652359186139385
0.23942018,0.17238252,9.959879,0.0029294773,-0.00479369,-2.663161E-4,3.0,0.23600948,0.15807518,9.802535,0.003410697,0.0047305375,0.16692066,0.012494889,-0.0073263296,0.43520787,2017-01-12 16:58:29,32.55258095402278
0.22984336,0.16280572,9.969456,-5.326322E-4,0.0029294773,0.0010652645,0.0,0.23441818,0.15917757,9.802556,-0.0045748204,0.0036281496,0.16689968,0.012562301,-0.0071378304,0.44172943,2017-01-12 16:58:30,36.08298664765744
0.23942018,0.17238252,9.959879,-0.005060006,-0.0026631611,-0.0061252704,0.0,0.23830341,0.15678728,9.8025,0.0011167675,0.015595242,0.15737915,0.0124948295,-0.0074465834,0.43619066,2017-01-12 16:58:31,33.32913174892893
0.22984336,0.18195933,9.9790325,0.0018642128,0.004261058,-0.0031957934,3.0,0.23518953,0.15842706,9.802549,-0.005346164,0.023532271,0.17648315,0.012509239,-0.007252664,0.43723845,2017-01-12 16:58:32,39.49279453514468
0.22984336,0.17238252,9.959879,0.008522116,-0.0010652645,0.0039947415,3.0,0.23347567,0.16110624,9.8025465,-0.003632307,0.011276275,0.15733242,0.012587735,-0.0071252077,0.43646154,2017-01-12 16:58:33,31.52162591469351
0.22984336,0.17238252,9.950302,-0.009054748,0.00958738,-0.0029294773,0.0,0.23322734,0.15483356,9.802653,-0.0033839792,0.017548963,0.14764881,0.012304692,-0.0072359466,0.4377398,2017-01-12 16:58:34,32.30635159710734
0.22984336,0.15322891,9.959879,0.006657903,0.0010652645,5.326322E-4,3.0,0.23173086,0.15787087,9.80264,-0.0018875003,-0.004641965,0.15723896,0.012405033,-0.007109149,0.4370433,2017-01-12 16:58:35,31.760602943637725
0.23942018,0.17238252,9.959879,-0.0010652645,-0.0013315806,-0.0029294773,0.0,0.23247226,0.16347872,9.802531,0.0069479197,-6.7299604E-4,0.14777088,0.012681437,-0.007013388,0.4373823,2017-01-12 16:58:36,36.48683036276324
0.22984336,0.16280572,9.969456,-0.008788432,0.0037284256,-0.0053263223,3.0,0.2341131,0.16570212,9.802454,-0.004269734,-0.0028963983,0.16700172,0.012802378,-0.0070710685,0.43513274,2017-01-12 16:58:37,37.0070888385364
0.22984336,0.16280572,9.969456,-0.004261058,0.0039947415,2.663161E-4,3.0,0.23886566,0.15617229,9.802497,0.019708112,0.0066334307,0.15738201,0.012501497,-0.007448633,0.43888482,2017-01-12 16:58:38,31.66302221061173
0.20111294,0.18195933,9.950302,-0.002396845,-2.663161E-4,-0.0031957934,4.0,0.17753384,0.15775822,9.803774,0.023579106,0.02420111,0.14652824,0.011399896,-0.0040858337,0.47953358,2017-01-12 16:58:39,42.58993030481917
0.19153613,0.17238252,9.969456,0.010120012,-7.9894834E-4,0.0015978967,4.0,0.18042943,0.16968013,9.803522,0.0111067,0.0027023852,0.16593361,0.01202276,-0.0038666741,0.48370403,2017-01-12 16:58:40,33.20163024943143
0.20111294,0.17238252,9.969456,0.0077231675,0.012516857,-0.002130529,0.0,0.18492128,0.16939513,9.803443,0.016191661,0.0029873848,0.16601276,0.012094342,-0.0041522356,0.47805044,2017-01-12 16:58:41,34.53969675405352