ACC_X,ACC_Y,ACC_Z,GYRO_X,GYRO_Y,GYRO_Z,LIGH_1,GRAV_X,GRAV_Y,GRAV_Z,LINACC_X,LINACC_Y,LINACC_Z,ROTVEC_X,ROTVEC_Y,ROTVEC_Z,TIME,VOICE
9.453,-0.107,1.559,-0.2146759,0.0065612793,-0.04310608,3.0,9.67392,-0.15544128,1.6003723,-0.27589417,0.04647827,-0.102142334,0.62416077,-0.16972351,0.7390137,2017-02-13 01:09:09,51.90867907583451
9.434,-0.186,1.539,-0.07081604,-0.0011749268,-0.011260986,3.0,9.676132,-0.1492157,1.5875549,-0.27809143,0.013015747,-0.062072754,0.6233978,-0.17443848,0.7370758,2017-02-13 01:09:10,55.85026687485254
9.424,-0.127,1.598,-0.06239319,-0.006088257,-0.012054443,3.0,9.675934,-0.14639282,1.589035,-0.26428223,-0.030654907,-0.02268982,0.6233368,-0.17440796,0.73706055,2017-02-13 01:09:11,58.140647298694034
9.395,-0.127,1.598,-0.032318115,-0.008712769,-0.013916016,1.0,9.677872,-0.14794922,1.5770264,-0.2798462,-0.015487671,-0.024307251,0.62361145,-0.1751709,0.73651123,2017-02-13 01:09:12,60.61747689722346
9.434,-0.147,1.598,0.3292694,-0.001663208,0.055160522,4.0,9.673096,-0.14656067,1.6062317,-0.26142883,-0.01687622,-0.053512573,0.6100464,-0.21434021,0.72343445,2017-02-13 01:09:13,59.9483632380843
9.414,-0.137,1.549,0.058135986,-0.011016846,0.01499939,3.0,9.676788,-0.142807,1.584137,-0.26513672,0.0066070557,-0.017791748,0.6335449,-0.1335907,0.74790955,2017-02-13 01:09:14,59.92251017145095
9.346,-0.137,1.569,0.35339355,-0.008239746,0.06259155,1.0,9.676926,-0.16970825,1.5806427,-0.4151001,0.07437134,-0.055160522,0.598114,-0.24832153,0.708725,2017-02-13 01:09:15,52.772903312266365
9.473,-0.117,1.196,-0.12239075,-0.021865845,-0.039123535,1.0,9.728226,-0.11009216,1.2328186,-0.26208496,0.055603027,-0.0887146,0.6286926,-0.20463562,0.7159729,2017-02-13 01:09:16,61.05048267142756
9.444,-0.166,1.176,-0.10066223,0.001159668,-0.009841919,3.0,9.736191,-0.120269775,1.1672058,-0.24281311,-0.0022888184,-0.050338745,0.6216736,-0.23239136,0.7038269,2017-02-13 01:09:17,62.182617000575355
9.483,-0.098,1.049,-0.0021362305,0.008010864,-8.8500977E-4,3.0,9.73288,-0.12013245,1.1944885,-0.29397583,-0.016052246,-0.036758423,0.6208191,-0.23164368,0.70484924,2017-02-13 01:09:18,50.879193911519856
9.444,-0.078,1.127,-0.4096527,0.009674072,-0.049438477,1.0,9.737091,-0.12187195,1.1595612,-0.28456116,0.053771973,-0.06993103,0.6144409,-0.25164795,0.6954346,2017-02-13 01:09:19,47.774353046205775
9.493,-0.098,1.098,-0.0129852295,-0.0072631836,-0.0038757324,1.0,9.735062,-0.1121521,1.1773529,-0.2689209,0.057662964,-0.16944885,0.6272278,-0.21574402,0.71040344,2017-02-13 01:09:21,47.19987688445458
9.493,-0.088,1.117,0.0030212402,-1.373291E-4,-0.01550293,3.0,9.734024,-0.09725952,1.1872101,-0.2815094,0.056411743,-0.07034302,0.627594,-0.21351624,0.7111511,2017-02-13 01:09:22,45.80209495648293
9.238,-0.215,1.186,0.028442383,-0.00340271,-4.119873E-4,3.0,9.737289,-0.042877197,1.1634674,-0.3801117,-0.052459717,0.035110474,0.6350708,-0.19328308,0.7164154,2017-02-13 01:09:23,48.34504267548156
9.434,-0.127,1.176,-0.004852295,-0.0032348633,-0.0038909912,1.0,9.733963,-0.1023407,1.1873779,-0.2814331,0.007003784,-0.056900024,0.6395874,-0.17428589,0.72436523,2017-02-13 01:09:24,48.571756277600244
9.444,-0.107,1.127,-0.17678833,0.0022277832,-0.021087646,1.0,9.733887,-0.121536255,1.1860962,-0.24050903,-0.014663696,-0.041992188,0.6387329,-0.17755127,0.7237396,2017-02-13 01:09:25,57.28484323843269
9.473,-0.117,1.147,-0.03514099,-0.0037994385,-0.008041382,3.0,9.735275,-0.11959839,1.174881,-0.21464539,0.024261475,0.0236969,0.637146,-0.18476868,0.7211609,2017-02-13 01:09:26,46.66898987367097
9.483,-0.137,1.117,-0.03189087,-0.0039978027,-0.007385254,3.0,9.733978,-0.113479614,1.186203,-0.25421143,0.0045166016,-0.096572876,0.6390228,-0.17652893,0.7238922,2017-02-13 01:09:27,55.52557353324477
9.453,-0.098,1.127,-0.0019989014,0.0020751953,0.005050659,3.0,9.733643,-0.11985779,1.1883545,-0.29473877,0.024520874,-0.04425049,0.63879395,-0.17703247,0.7239227,2017-02-13 01:09:28,52.46397348640167
9.483,-0.137,1.127,-0.09536743,-0.0034637451,-0.007949829,3.0,9.735123,-0.117492676,1.1763763,-0.28259277,-0.0050811768,-0.01864624,0.6394348,-0.17643738,0.72369385,2017-02-13 01:09:29,56.53132114259394
9.463,-0.107,1.157,-0.10531616,-0.008010864,-0.015686035,1.0,9.734451,-0.1053772,1.1829834,-0.22744751,-0.0035705566,-0.06611633,0.6407623,-0.17054749,0.7253876,2017-02-13 01:09:30,52.25835801233089
9.463,-0.107,1.176,-0.03239441,-0.007843018,-0.006134033,3.0,9.736786,-0.11514282,1.1627502,-0.28425598,-0.021057129,-0.0050201416,0.6356201,-0.19154358,0.7185364,2017-02-13 01:09:31,48.36590565326118
9.453,-0.107,1.127,0.14620972,-0.0045928955,0.021499634,3.0,9.733627,-0.110183716,1.1894226,-0.25386047,-0.012390137,-0.031692505,0.6378021,-0.18040466,0.7227478,2017-02-13 01:09:32,53.675021325983494
9.434,-0.117,1.088,-0.027542114,8.087158E-4,-0.014709473,3.0,9.733292,-0.12162781,1.190979,-0.26715088,0.012664795,-0.0332489,0.63972473,-0.17327881,0.7251587,2017-02-13 01:09:33,51.51807474525746
9.444,-0.088,1.147,-0.09559631,5.79834E-4,-0.012496948,3.0,9.734695,-0.1138916,1.1802979,-0.26853943,0.018554688,0.0046539307,0.63760376,-0.18240356,0.7219391,2017-02-13 01:09:34,56.864885663617656
9.483,-0.098,1.196,-0.12986755,-0.0017547607,-0.02067566,3.0,9.735321,-0.12133789,1.1743164,-0.29641724,0.053237915,-0.030212402,0.64082336,-0.17164612,0.7251129,2017-02-13 01:09:35,57.31712803282748
9.424,-0.107,1.078,-0.1592865,0.010726929,-0.022888184,1.0,9.73468,-0.1174469,1.1799622,-0.22767639,0.008483887,-0.049468994,0.64151,-0.16821289,0.7261963,2017-02-13 01:09:36,52.370079420560984
9.444,-0.156,1.147,-0.08883667,-0.010284424,-0.0028381348,3.0,9.732941,-0.15029907,1.1906128,-0.30766296,0.027709961,0.035202026,0.64126587,-0.16748047,0.72732544,2017-02-13 01:09:37,53.09119081819739
9.493,-0.156,1.157,0.08583069,-0.0037841797,-0.0032196045,3.0,9.736252,-0.119262695,1.1668243,-0.29734802,-0.016921997,0.05899048,0.6407013,-0.17321777,0.72439575,2017-02-13 01:09:38,61.55619638066695
9.453,-0.127,1.137,-0.038406372,-9.765625E-4,-0.011184692,3.0,9.734482,-0.11979675,1.1814575,-0.24108887,0.024459839,-0.023727417,0.64175415,-0.1670227,0.7266083,2017-02-13 01:09:39,57.956659442714546
9.453,-0.107,1.108,0.061569214,0.012420654,0.011795044,3.0,9.735413,-0.122024536,1.173523,-0.16030884,-0.014160156,0.05229187,0.64024353,-0.17391968,0.7244415,2017-02-13 01:09:40,59.83335654346405
9.453,-0.107,1.167,-0.107177734,-0.0013580322,-0.0129852295,3.0,9.734131,-0.11691284,1.1846008,-0.29522705,0.021575928,-0.040496826,0.64038086,-0.17173767,0.7253113,2017-02-13 01:09:41,57.71254070110245
9.463,-0.137,1.176,0.011627197,-7.9345703E-4,-0.0022888184,1.0,9.732834,-0.09359741,1.1971893,-0.21221924,-0.05619812,-0.01222229,0.6422119,-0.16281128,0.7277832,2017-02-13 01:09:43,50.741372086131804
9.473,-0.147,1.117,-0.010314941,-0.0063171387,-1.5258789E-5,1.0,9.734146,-0.10733032,1.1853485,-0.3088684,0.025604248,-3.8146973E-4,0.64060974,-0.17077637,0.72543335,2017-02-13 01:09:44,50.383516055428046
9.493,-0.147,1.167,-0.0064849854,-0.0023040771,4.5776367E-5,3.0,9.733643,-0.11454773,1.1887817,-0.26750183,0.060058594,-0.031066895,0.6398163,-0.17323303,0.7249603,2017-02-13 01:09:45,44.433035707608155
9.493,-0.127,1.186,-0.08618164,-0.017623901,-0.010406494,3.0,9.72995,-0.11860657,1.2183228,-0.2638092,0.009643555,-0.11506653,0.6399994,-0.16812134,0.72740173,2017-02-13 01:09:46,42.98623673666995
9.483,-0.117,1.147,0.04937744,0.0077056885,0.013671875,1.0,9.73317,-0.11091614,1.1930695,-0.29426575,0.029190063,-0.07620239,0.63998413,-0.17196655,0.7253876,2017-02-13 01:09:47,52.28100844045273
9.463,-0.137,1.167,-0.0132751465,0.006591797,-0.0014801025,1.0,9.734756,-0.11991882,1.1791077,-0.29585266,0.051818848,-0.007751465,0.6434784,-0.16065979,0.72828674,2017-02-13 01:09:48,49.36366808658001
9.493,-0.088,1.137,0.036392212,0.008987427,8.69751E-4,1.0,9.73436,-0.12214661,1.18219,-0.268219,0.026794434,-0.024459839,0.6415863,-0.1675415,0.726532,2017-02-13 01:09:49,48.4638417615222
9.483,-0.078,1.176,0.1131134,0.009399414,0.018051147,1.0,9.734833,-0.114730835,1.1790009,-0.25506592,0.019378662,-0.021270752,0.6396942,-0.17512512,0.7241211,2017-02-13 01:09:50,55.5440644305794
9.463,-0.166,1.176,-0.072006226,-0.001373291,-0.011810303,1.0,9.733215,-0.11361694,1.1924286,-0.22621155,-0.008956909,-0.007461548,0.6395416,-0.17370605,0.72491455,2017-02-13 01:09:51,52.34961400352039
9.493,-0.078,1.137,-0.008178711,0.0043029785,-0.0061035156,1.0,9.733871,-0.10423279,1.187912,-0.30859375,0.04975891,-0.057418823,0.6405945,-0.17044067,0.7255554,2017-02-13 01:09:52,52.53912685124491
9.483,-0.117,1.127,-0.17137146,-0.009216309,-0.018081665,1.0,9.736542,-0.10736084,1.1654816,-0.270401,0.039260864,-0.007751465,0.64186096,-0.16906738,0.72532654,2017-02-13 01:09:53,58.1681120159185
9.463,-0.088,1.157,0.05760193,-0.0026245117,0.0107421875,1.0,9.733383,-0.12454224,1.1899261,-0.28086853,0.001953125,0.035888672,0.6417389,-0.16583252,0.7272949,2017-02-13 01:09:54,57.75677693757231
9.453,-0.078,1.206,-0.032974243,-3.3569336E-4,-0.0024871826,1.0,9.735779,-0.122406006,1.1703949,-0.26963806,-0.0137786865,-0.012664795,0.6398163,-0.17591858,0.72377014,2017-02-13 01:09:55,56.29121074238272
9.434,-0.107,1.137,-0.010406494,-0.0018005371,-0.0070343018,3.0,9.735031,-0.11155701,1.1776886,-0.26889038,0.016204834,-0.060821533,0.6407776,-0.1712799,0.7251282,2017-02-13 01:09:56,61.67448587667111
9.532,-0.166,1.108,0.21772766,-0.0050964355,0.023025513,3.0,9.733307,-0.12097168,1.1909637,-0.26716614,0.025634766,0.021224976,0.6401825,-0.17156982,0.7256317,2017-02-13 01:09:57,53.543404800967195
9.404,0.009,1.186,0.16792297,-0.016326904,0.030014038,1.0,9.73381,-0.11941528,1.187027,-0.25404358,0.092178345,-0.042922974,0.6399231,-0.1730957,0.7250366,2017-02-13 01:09:58,53.10325967191542
9.493,-0.068,1.176,0.035186768,-0.009841919,-9.918213E-4,3.0,9.73584,-0.1065979,1.171463,-0.24246216,-0.029586792,-0.01373291,0.64183044,-0.16828918,0.725708,2017-02-13 01:09:59,51.113977106792284
9.453,-0.117,1.108,0.026306152,-3.3569336E-4,-0.012710571,3.0,9.735046,-0.101486206,1.1784363,-0.26890564,0.019760132,-0.007080078,0.63838196,-0.17993164,0.72239685,2017-02-13 01:10:00,58.121627690662876
9.463,-0.107,1.147,-0.1015625,-0.0074310303,-0.006362915,3.0,9.733292,-0.12452698,1.1906891,-0.29438782,0.015563965,-0.07382202,0.63941956,-0.17443848,0.7248535,2017-02-13 01:10:01,41.08789954892047
9.424,-0.127,1.235,0.013839722,-0.00440979,0.0018310547,1.0,9.734283,-0.099823,1.1849365,-0.2681427,-0.009124756,-0.02722168,0.63890076,-0.17715454,0.7233887,2017-02-13 01:10:02,57.85390338549364
9.453,-0.107,1.176,0.016159058,-3.5095215E-4,0.008514404,3.0,9.733582,-0.09024048,1.1914368,-0.2538147,-0.018707275,-0.020095825,0.6404877,-0.17034912,0.7254181,2017-02-13 01:10:03,63.95579629966142
9.493,-0.107,1.206,-0.19425964,0.0015106201,-0.022155762,3.0,9.73613,-0.105895996,1.1691589,-0.26997375,-0.0030517578,-0.03866577,0.64230347,-0.16679382,0.7260437,2017-02-13 01:10:05,54.49245427130782
9.473,-0.117,1.157,-0.054870605,-3.8146973E-4,-0.005264282,3.0,9.735657,-0.1131134,1.172348,-0.24227905,-0.036697388,0.0398407,0.64271545,-0.16468811,0.7268677,2017-02-13 01:10:06,57.04779412936606
9.473,-0.098,1.127,0.034561157,-0.0015716553,-0.0056915283,3.0,9.734787,-0.115859985,1.1792603,-0.2414093,-0.047576904,0.0056915283,0.64056396,-0.17185974,0.72509766,2017-02-13 01:10:07,43.04404581141932
9.532,-0.098,1.196,-0.07432556,9.613037E-4,-0.009231567,1.0,9.736282,-0.11720276,1.1668091,-0.28375244,0.035476685,-0.036331177,0.6392517,-0.17845154,0.72280884,2017-02-13 01:10:08,56.031595125466
9.522,-0.215,1.137,-0.04434204,-0.0034484863,-0.01083374,3.0,9.734268,-0.118377686,1.1833191,-0.32260132,0.009414673,-0.011978149,0.63897705,-0.17712402,0.72372437,2017-02-13 01:10:09,55.24634625806467
9.473,-0.098,1.167,0.0036773682,0.0030822754,-0.0061950684,3.0,9.735672,-0.10635376,1.172821,-0.22866821,0.011016846,-0.015090942,0.6398926,-0.17529297,0.72372437,2017-02-13 01:10:10,55.054158241107025
9.493,-0.107,1.147,0.04916382,-8.392334E-4,0.0060424805,3.0,9.732025,-0.110565186,1.2023621,-0.29312134,0.0016021729,-0.058258057,0.6439972,-0.15478516,0.73039246,2017-02-13 01:10:11,55.500417355069835
9.463,-0.098,1.137,0.06854248,-0.005203247,0.006362915,3.0,9.736588,-0.115493774,1.164444,-0.27043152,0.0065307617,-0.006713867,0.64045715,-0.17442322,0.7238922,2017-02-13 01:10:12,53.254908109950534
9.502,-0.098,1.206,-0.022918701,0.0040740967,-0.0010375977,3.0,9.735825,-0.11405945,1.1708221,-0.26968384,-0.022125244,-0.04032898,0.64178467,-0.16851807,0.72576904,2017-02-13 01:10:13,59.204243879050644
9.493,-0.137,1.127,-0.07292175,-0.004623413,-0.008300781,3.0,9.734222,-0.10739136,1.1847992,-0.25445557,0.025665283,-0.06793213,0.6405945,-0.1709137,0.7253876,2017-02-13 01:10:14,57.13332856224823
9.453,-0.127,1.186,0.057937622,0.0015716553,0.008636475,3.0,9.735458,-0.108291626,1.1744537,-0.25569153,-0.014266968,-0.05758667,0.6418762,-0.16764832,0.7260132,2017-02-13 01:10:15,54.60852211232874
9.512,-0.127,1.206,-0.029449463,0.007446289,-0.001953125,3.0,9.7331085,-0.10069275,1.1944275,-0.22610474,0.032577515,-0.063934326,0.6379547,-0.1791687,0.7230835,2017-02-13 01:10:16,51.0829379567603
9.493,-0.107,1.147,-0.100234985,0.006072998,-0.015792847,3.0,9.733948,-0.11703491,1.186142,-0.29504395,0.021697998,-0.028411865,0.6395569,-0.1745758,0.7245331,2017-02-13 01:10:17,46.10679538924174
9.483,-0.068,1.167,-0.021224976,0.0046691895,-0.0015869141,3.0,9.734482,-0.10787964,1.1825562,-0.25471497,-0.0010681152,-0.03845215,0.64115906,-0.16912842,0.7258301,2017-02-13 01:10:18,48.914342339368126
9.434,-0.068,1.157,-0.020050049,-4.7302246E-4,0.00730896,3.0,9.734879,-0.12071228,1.1780243,-0.2823639,-0.029083252,-0.006668091,0.638916,-0.17808533,0.72332764,2017-02-13 01:10:19,54.55608132883153
9.444,-0.088,1.108,-0.15296936,0.005645752,-0.02029419,1.0,9.73526,-0.10992432,1.1759033,-0.3236084,-0.053497314,-0.018173218,0.6412811,-0.16967773,0.72550964,2017-02-13 01:10:20,53.0249040158014
9.493,-0.098,1.167,0.03831482,7.324219E-4,-0.0022735596,1.0,9.733795,-0.09638977,1.1891785,-0.26765442,0.0010375977,-0.031448364,0.6387329,-0.17712402,0.72346497,2017-02-13 01:10:21,59.68560980429177
9.434,-0.078,1.098,0.1867218,-0.002532959,0.03779602,3.0,9.735275,-0.12225342,1.1745911,-0.28276062,-0.05480957,-0.0032348633,0.6427307,-0.1643219,0.72720337,2017-02-13 01:10:22,59.31239776513398
9.493,-0.098,1.167,-0.14247131,-0.0035247803,-0.01524353,3.0,9.733536,-0.116378784,1.1895752,-0.22653198,-0.019805908,-0.0046081543,0.6403656,-0.17105103,0.725647,2017-02-13 01:10:23,51.963916490422754
9.493,-0.088,1.157,-0.07368469,5.187988E-4,-0.011230469,1.0,9.73558,-0.11605835,1.1727448,-0.2694397,-0.020126343,0.012207031,0.6402283,-0.17407227,0.7242584,2017-02-13 01:10:24,54.110905945102374
9.512,-0.156,1.157,0.037322998,0.0015258789,0.007980347,3.0,9.731155,-0.10525513,1.2098083,-0.26501465,-0.003692627,-0.03845215,0.64141846,-0.1639862,0.72805786,2017-02-13 01:10:25,60.238046817160125
9.444,-0.156,1.206,-0.11325073,-0.004562378,-0.022369385,1.0,9.732086,-0.13108826,1.1998291,-0.26594543,0.07661438,-0.055725098,0.64183044,-0.16390991,0.72824097,2017-02-13 01:10:26,51.66325183847215
9.502,-0.117,1.108,-0.04664612,-0.0020751953,0.001449585,1.0,9.732788,-0.1065979,1.196579,-0.28025818,-0.08407593,0.015609741,0.642334,-0.16242981,0.72810364,2017-02-13 01:10:27,47.13182412602292
9.473,-0.117,1.196,0.0043792725,0.012039185,0.0010070801,1.0,9.73497,-0.13031006,1.1762543,-0.2415924,-0.033111572,0.00869751,0.6400299,-0.17427063,0.72457886,2017-02-13 01:10:28,52.645454933931035
9.453,-0.107,1.167,-0.061584473,8.544922E-4,-0.0061187744,1.0,9.735443,-0.09118652,1.1760406,-0.2965393,0.023086548,0.008911133,0.64286804,-0.1635437,0.7268982,2017-02-13 01:10:29,54.81485799375699
9.473,-0.117,1.137,-0.0066070557,-6.1035156E-4,-0.001663208,1.0,9.734787,-0.11973572,1.1788483,-0.26864624,-0.002822876,-0.0074920654,0.64016724,-0.17341614,0.7247009,2017-02-13 01:10:31,55.84096249860921
9.502,-0.156,1.098,-0.07267761,0.007446289,-0.014465332,1.0,9.731827,-0.11349487,1.2037201,-0.224823,0.045394897,-0.04598999,0.6408539,-0.16711426,0.7271576,2017-02-13 01:10:32,53.74268053129043
9.473,-0.098,1.196,-0.09390259,0.002090454,-0.010116577,1.0,9.733673,-0.12831116,1.187149,-0.26753235,0.046585083,-0.056655884,0.6397705,-0.17366028,0.7250519,2017-02-13 01:10:33,50.709491340490146
9.434,-0.058,1.137,0.10423279,0.0010223389,0.013839722,1.0,9.733658,-0.118759155,1.188324,-0.253891,0.06428528,-0.044204712,0.640152,-0.17204285,0.7253723,2017-02-13 01:10:34,54.0292799032428
9.512,-0.156,1.108,-0.078430176,0.0016174316,-0.007843018,1.0,9.733261,-0.11512756,1.191864,-0.26712036,0.047027588,-0.03413391,0.6398163,-0.17276001,0.72520447,2017-02-13 01:10:35,44.4184524512151
9.463,-0.137,1.137,-0.011444092,5.493164E-4,-1.2207031E-4,1.0,9.736282,-0.11708069,1.1668243,-0.27012634,0.021743774,-0.036331177,0.64131165,-0.17089844,0.72502136,2017-02-13 01:10:36,49.97017996352477
9.463,-0.117,1.137,0.021728516,0.0038909912,0.0030212402,1.0,9.73291,-0.11364746,1.194931,-0.2667694,0.031921387,-0.050811768,0.63938904,-0.17390442,0.7249298,2017-02-13 01:10:37,47.7181229012432
9.493,-0.127,1.157,0.115493774,-0.0011291504,0.014694214,1.0,9.735184,-0.11616516,1.1759338,-0.24180603,-0.04727173,-0.0045776367,0.64323425,-0.16212463,0.7277374,2017-02-13 01:10:38,52.680937954388014
9.483,-0.098,1.196,-0.06640625,-0.001876831,-0.007659912,1.0,9.734879,-0.10229492,1.1797485,-0.30960083,0.034194946,-0.04927063,0.6426697,-0.16377258,0.72714233,2017-02-13 01:10:39,56.816678728174736
9.473,-0.088,1.137,0.039093018,0.010147095,0.02748108,1.0,9.733124,-0.10499573,1.1939392,-0.28060913,-0.031204224,-0.008972168,0.6422272,-0.16326904,0.72776794,2017-02-13 01:10:40,50.14853241624205
9.424,-0.088,1.117,0.04473877,-0.0028381348,-4.5776367E-4,1.0,9.736542,-0.108551025,1.1654205,-0.270401,-0.014022827,-0.03492737,0.6404114,-0.17449951,0.72377014,2017-02-13 01:10:41,53.76332956952615
9.483,-0.137,1.225,-0.09561157,0.0010986328,-0.008880615,1.0,9.735123,-0.11302185,1.1767578,-0.241745,0.017684937,-0.01902771,0.63952637,-0.17607117,0.7237396,2017-02-13 01:10:42,49.5502582995247
9.483,-0.078,1.147,0.21221924,-0.0047454834,0.026290894,1.0,9.732056,-0.11376953,1.201828,-0.26591492,0.059295654,-0.0032348633,0.6433716,-0.15744019,0.7297363,2017-02-13 01:10:43,52.01213963744196
9.473,-0.088,1.196,0.19198608,-0.0016326904,0.02003479,1.0,9.734222,-0.09989929,1.185379,-0.26808167,-0.03630066,-0.027648926,0.64219666,-0.16471863,0.72702026,2017-02-13 01:10:44,46.92385842355084
9.502,-0.117,1.167,-0.108947754,0.015701294,-0.0070343018,1.0,9.733536,-0.107299805,1.1904144,-0.19929504,-0.056137085,0.03540039,0.63905334,-0.17582703,0.72410583,2017-02-13 01:10:45,42.36322542893703
9.453,-0.098,1.117,0.056167603,-0.0058135986,0.018615723,1.0,9.735794,-0.11932373,1.1705627,-0.26965332,0.010360718,-0.094558716,0.6437988,-0.16069031,0.7280121,2017-02-13 01:10:46,45.0882729362167
9.512,-0.196,1.186,-0.094680786,-9.0026855E-4,-0.017532349,1.0,9.733078,-0.12263489,1.1926117,-0.26693726,-0.0135650635,0.019592285,0.6402893,-0.17089844,0.7259064,2017-02-13 01:10:47,47.315879665265605
9.493,-0.127,1.225,-0.025512695,-0.0030212402,-0.008407593,1.0,9.736603,-0.10983276,1.1647491,-0.29769897,0.014480591,-0.007019043,0.6418915,-0.16903687,0.72535706,2017-02-13 01:10:48,49.27300310620182
9.463,-0.127,1.117,0.091918945,-6.1035156E-4,0.014450073,1.0,9.732788,-0.119903564,1.1953278,-0.29388428,-0.016281128,-0.22828674,0.6414795,-0.16595459,0.7273407,2017-02-13 01:10:49,51.56910457600104
9.473,-0.088,1.176,0.043762207,-0.0026550293,0.007797241,1.0,9.734833,-0.10873413,1.179596,-0.26869202,0.013381958,-0.035491943,0.6410217,-0.17012024,0.7254791,2017-02-13 01:10:50,49.279324938173225
9.483,-0.098,1.137,0.22473145,0.0037994385,0.027862549,1.0,9.736496,-0.11274719,1.1654205,-0.27035522,0.0037841797,-0.0076904297,0.6407318,-0.17329407,0.7241974,2017-02-13 01:10:52,47.66480293701355
9.493,-0.098,1.127,0.065475464,-0.0028839111,0.00630188,1.0,9.734055,-0.104537964,1.1863861,-0.25428772,-0.018035889,-0.028656006,0.64224243,-0.1643982,0.7272186,2017-02-13 01:10:53,42.47682374149845
9.502,-0.156,1.147,-0.049423218,-5.340576E-4,-0.010467529,1.0,9.735931,-0.12471008,1.1689606,-0.32426453,0.056610107,0.02961731,0.64282227,-0.16482544,0.7269287,2017-02-13 01:10:54,48.57859381967309
9.493,-0.127,1.216,0.01625061,5.0354004E-4,0.0021514893,1.0,9.733032,-0.12565613,1.192688,-0.26689148,0.0030670166,-0.0077209473,0.6409607,-0.16838074,0.7266846,2017-02-13 01:10:55,57.89638496150404
9.473,-0.107,1.147,0.08218384,2.2888184E-4,0.0095825195,1.0,9.7332,-0.114746094,1.1924286,-0.26705933,0.01940918,-0.021087646,0.6411438,-0.16769409,0.7266693,2017-02-13 01:10:56,61.066082236547594
9.395,-0.088,1.186,-0.034988403,0.007873535,-0.0077209473,1.0,9.734009,-0.11907959,1.1853638,-0.29510498,0.023727417,-3.9672852E-4,0.6418915,-0.16590881,0.7270355,2017-02-13 01:10:57,48.71356457181855
9.502,-0.166,1.225,-0.33216858,0.0046081543,-0.04057312,1.0,9.733887,-0.11871338,1.1864014,-0.199646,-0.08557129,-0.0695343,0.6404114,-0.17140198,0.72550964,2017-02-13 01:10:58,55.47197649176631
9.434,-0.107,1.167,-0.028335571,-0.0058288574,-0.0073394775,1.0,9.735107,-0.10179138,1.1779633,-0.24172974,-0.06163025,0.0069885254,0.641449,-0.16873169,0.72569275,2017-02-13 01:10:59,53.407408508630645
9.444,-0.098,1.176,0.045440674,-1.2207031E-4,0.00881958,1.0,9.735565,-0.09648132,1.1745605,-0.2285614,-0.03970337,0.010391235,0.6407013,-0.17204285,0.7245331,2017-02-13 01:11:00,56.180285164326556
9.502,-0.127,1.225,-0.0811615,0.003967285,-0.008529663,1.0,9.732895,-0.11280823,1.1950989,-0.26675415,0.05831909,-0.037368774,0.6431122,-0.15957642,0.7289429,2017-02-13 01:11:01,55.76642479869102
9.512,-0.127,1.167,-0.04446411,-0.0016174316,-0.0062561035,1.0,9.734772,-0.09881592,1.1810303,-0.25500488,0.003479004,-0.09140015,0.6396942,-0.17480469,0.72395325,2017-02-13 01:11:02,54.87122016321781
9.473,-0.137,1.225,-0.19720459,-0.011642456,-0.025680542,1.0,9.734039,-0.10246277,1.186676,-0.22703552,-0.020111084,-0.042556763,0.640213,-0.17208862,0.7250061,2017-02-13 01:11:03,54.089025711153276
9.552,-0.137,1.117,0.012710571,-0.0015411377,-0.0015258789,3.0,9.735214,-0.11167908,1.1761627,-0.30993652,0.016326904,-0.018432617,0.6439209,-0.15934753,0.7284088,2017-02-13 01:11:04,57.04991591253805
9.444,-0.088,1.225,-0.08244324,0.0095825195,-0.010070801,1.0,9.734634,-0.12667847,1.1794434,-0.2821045,0.058563232,0.005508423,0.64167786,-0.16766357,0.72650146,2017-02-13 01:11:05,44.83881779935554
9.512,-0.098,1.157,0.12020874,-0.0028686523,0.018737793,1.0,9.734161,-0.11906433,1.184082,-0.26802063,0.037338257,0.028121948,0.64212036,-0.16519165,0.7271881,2017-02-13 01:11:06,51.49377920963494
9.444,-0.107,1.196,-0.058135986,0.0035552979,-0.011550903,1.0,9.734711,-0.121032715,1.1793823,-0.26856995,-0.042404175,-0.06251526,0.6393738,-0.17622375,0.7239227,2017-02-13 01:11:07,40.11965760810252
9.483,-0.117,1.186,-0.11151123,-0.010040283,-0.011734009,3.0,9.737671,-0.10197449,1.1564941,-0.29878235,0.0066375732,0.028457642,0.6421356,-0.16934204,0.7248688,2017-02-13 01:11:08,49.8804408056982
9.453,-0.117,1.216,0.060943604,-2.593994E-4,-0.0024414063,3.0,9.735168,-0.11428833,1.1763,-0.2690277,0.059799194,0.022262573,0.6421814,-0.16619873,0.726593,2017-02-13 01:11:09,53.64441978440084
9.473,-0.137,1.127,0.066726685,0.0053863525,0.010955811,3.0,9.732742,-0.10546875,1.1970215,-0.26660156,-0.030715942,-0.025665283,0.64198303,-0.16374207,0.7277374,2017-02-13 01:11:10,55.92552375529982
9.493,-0.127,1.196,-0.04925537,0.011306763,-0.01071167,3.0,9.734116,-0.10203552,1.1861115,-0.2952118,0.033920288,-0.055618286,0.63993835,-0.17315674,0.72465515,2017-02-13 01:11:11,53.28504350206412
9.493,-0.156,1.167,0.008102417,-0.0048675537,-0.004470825,3.0,9.734329,-0.10585022,1.1840515,-0.26818848,0.024124146,-0.05355835,0.6412201,-0.16868591,0.7259674,2017-02-13 01:11:12,54.090675934660766
9.453,-0.156,1.196,0.12284851,0.0040740967,0.014907837,3.0,9.736542,-0.11280823,1.1650391,-0.270401,-0.009750366,-0.00730896,0.6415405,-0.17034912,0.7250519,2017-02-13 01:11:13,59.494186559071416
9.493,-0.137,1.176,0.09361267,0.00944519,-0.00390625,1.0,9.73465,-0.12741089,1.1792755,-0.29574585,0.07293701,-0.13050842,0.6421051,-0.1659851,0.7269745,2017-02-13 01:11:14,53.748977441472775
9.502,-0.137,1.137,0.04248047,-0.004501343,0.0039978027,3.0,9.734848,-0.110580444,1.179306,-0.26870728,-0.039215088,-0.021575928,0.6407318,-0.17121887,0.7251892,2017-02-13 01:11:16,54.365506560462585
9.542,-0.127,1.176,0.24957275,0.0051574707,0.021133423,1.0,9.73526,-0.099227905,1.1769562,-0.2827301,-0.009719849,-0.032852173,0.6426697,-0.16415405,0.7268982,2017-02-13 01:11:17,53.47480021529713
9.444,-0.137,1.117,0.24272156,-0.002380371,0.021392822,3.0,9.736206,-0.10227966,1.1688232,-0.28367615,-0.033920288,-0.011108398,0.6421814,-0.16729736,0.7258301,2017-02-13 01:11:18,53.73658497462945
9.493,-0.117,1.137,-0.07661438,9.3078613E-4,-0.014373779,3.0,9.734055,-0.09043884,1.1875305,-0.24067688,-0.07299805,-0.016174316,0.6433716,-0.15971375,0.7282715,2017-02-13 01:11:19,51.610617661131606
9.493,-0.098,1.216,-0.15644836,-0.016601563,-0.019866943,3.0,9.734665,-0.094451904,1.1822205,-0.24128723,-8.69751E-4,0.0027313232,0.6406708,-0.17103577,0.72502136,2017-02-13 01:11:20,47.052167923745984
9.473,-0.088,1.127,-0.0846405,-0.0011749268,-0.019119263,3.0,9.732849,-0.12321472,1.194397,-0.28033447,0.027877808,-0.03668213,0.6418762,-0.1645813,0.7277527,2017-02-13 01:11:21,48.26209024073475
9.473,-0.117,1.157,-0.093185425,-0.008850098,-0.011413574,3.0,9.734695,-0.12130737,1.1795197,-0.22769165,-0.014877319,0.0054473877,0.6414337,-0.16854858,0.7261505,2017-02-13 01:11:22,49.78504409824566
9.502,-0.117,1.157,0.04486084,-7.7819824E-4,0.003982544,3.0,9.733414,-0.11479187,1.1906433,-0.26727295,0.019454956,-0.032913208,0.64198303,-0.1647644,0.72743225,2017-02-13 01:11:23,49.517026290002036
9.473,-0.186,1.176,-0.008026123,9.460449E-4,-0.0017242432,3.0,9.734085,-0.11125183,1.1855011,-0.28157043,-0.024932861,-0.027770996,0.64112854,-0.1688385,0.7260742,2017-02-13 01:11:24,52.70507673438695
9.483,-0.137,1.147,-0.015213013,-0.0049591064,-0.0059051514,3.0,9.734726,-0.11180115,1.1801453,-0.24134827,-0.024383545,-0.0496521,0.6407776,-0.17094421,0.7253113,2017-02-13 01:11:25,53.839116541061955
9.473,-0.127,1.157,0.058258057,-0.007247925,0.012008667,3.0,9.734543,-0.12617493,1.1802979,-0.254776,-0.010025024,-0.049819946,0.6417389,-0.16726685,0.72662354,2017-02-13 01:11:26,56.35232597221619
9.434,-0.117,0.98,-0.04524231,0.006500244,-8.69751E-4,1.0,9.732071,-0.10908508,1.202179,-0.23867798,-0.054336548,-0.09893799,0.6431122,-0.15844727,0.72940063,2017-02-13 01:11:27,51.99607383663995
9.473,-0.137,1.206,0.12319946,0.0012817383,0.008621216,1.0,9.733444,-0.11444092,1.1904907,-0.22644043,-0.021743774,-0.03276062,0.63998413,-0.17237854,0.7252655,2017-02-13 01:11:28,51.4707198431967
9.483,-0.117,1.167,0.051315308,-0.0059661865,0.0040283203,1.0,9.733765,-0.11672974,1.1876373,-0.22676086,-0.019454956,-0.029907227,0.63952637,-0.174469,0.7246094,2017-02-13 01:11:29,55.49914665368644
9.473,-0.127,1.196,-0.25701904,-0.00869751,-0.03375244,3.0,9.733841,-0.1156311,1.187149,-0.28131104,0.03390503,-0.056655884,0.644516,-0.15510559,0.72991943,2017-02-13 01:11:30,55.033861336080456
9.434,-0.117,1.127,0.13928223,4.8828125E-4,0.02130127,3.0,9.735428,-0.10383606,1.1750793,-0.2692871,0.0084991455,-0.030975342,0.64234924,-0.16572571,0.7264862,2017-02-13 01:11:31,58.7945749176405
9.453,-0.107,1.127,-0.14628601,0.0024414063,-0.010528564,3.0,9.734207,-0.11778259,1.1838531,-0.2680664,0.02243042,-0.09423828,0.6375122,-0.18222046,0.72216797,2017-02-13 01:11:32,55.50211006973703
9.444,-0.068,1.147,0.08155823,-9.918213E-4,0.010421753,3.0,9.733963,-0.11383057,1.1863251,-0.2814331,-0.008743286,-0.06945801,0.64282227,-0.16210938,0.7280121,2017-02-13 01:11:33,58.79597320184094
9.444,-0.098,1.068,-0.046783447,0.0076141357,-0.0033569336,1.0,9.734314,-0.114974976,1.1832123,-0.26817322,-0.021209717,-0.025482178,0.6405029,-0.17149353,0.7253113,2017-02-13 01:11:34,61.20453158231073
9.463,-0.098,1.196,0.0154418945,-9.460449E-4,-0.0036468506,1.0,9.732422,-0.11026001,1.1992035,-0.26628113,-0.025924683,0.0129852295,0.6437378,-0.15635681,0.72987366,2017-02-13 01:11:35,53.30872939006603
9.444,-0.137,1.167,-0.04067993,-0.01512146,-0.008407593,1.0,9.733673,-0.11531067,1.1884766,-0.26753235,-0.020889282,-0.03074646,0.64224243,-0.16404724,0.7275696,2017-02-13 01:11:37,46.97909443283828
9.444,-0.147,1.088,0.017211914,1.0681152E-4,0.0016174316,1.0,9.735184,-0.119262695,1.1756439,-0.28266907,0.023925781,-0.017913818,0.6407623,-0.17166138,0.7251129,2017-02-13 01:11:38,54.24207028873576
9.463,-0.127,1.176,0.35238647,-0.007171631,0.04537964,1.0,9.733917,-0.09817505,1.1879883,-0.2677765,-0.038009644,-0.071121216,0.6409149,-0.16923523,0.7257843,2017-02-13 01:11:39,45.89973036084368
9.453,-0.107,1.176,0.039871216,-0.0046081543,0.010620117,3.0,9.733505,-0.11135864,1.1902313,-0.2673645,0.043258667,-0.03250122,0.64164734,-0.16612244,0.7269745,2017-02-13 01:11:40,47.9746493636752
9.483,-0.127,1.157,-0.1960907,0.0024261475,-0.020309448,3.0,9.733963,-0.105651855,1.187027,-0.3086853,0.03755188,-0.015670776,0.64134216,-0.16775513,0.72631836,2017-02-13 01:11:41,51.77145177689056
9.493,-0.117,1.176,0.06929016,-0.005264282,0.009613037,3.0,9.735107,-0.08886719,1.1790161,-0.2825775,-0.033691406,-0.06213379,0.64468384,-0.15574646,0.7290497,2017-02-13 01:11:42,52.84279645263217
9.493,-0.127,1.176,-0.09109497,0.0031433105,-0.008682251,3.0,9.736084,-0.10270691,1.1697845,-0.26994324,-0.0062408447,-0.025680542,0.641098,-0.17131042,0.7247162,2017-02-13 01:11:43,53.90870419468893
9.493,-0.088,1.117,-0.0060577393,8.239746E-4,0.014175415,3.0,9.732391,-0.11659241,1.1988525,-0.22538757,0.0076293945,-0.027511597,0.6409607,-0.16743469,0.7269745,2017-02-13 01:11:44,48.90592413417258
9.502,-0.068,1.176,-0.02331543,-0.0034637451,0.0032653809,3.0,9.734451,-0.121292114,1.1815491,-0.2955475,-0.0012664795,-0.02381897,0.6433563,-0.1607666,0.72836304,2017-02-13 01:11:45,56.285388919270424
9.434,-0.107,1.167,-0.0801239,2.746582E-4,-0.011138916,3.0,9.734573,-0.102127075,1.182373,-0.29566956,0.006790161,-0.051879883,0.6419525,-0.16612244,0.72657776,2017-02-13 01:11:46,57.851592152104836
9.473,-0.107,1.176,-0.1126709,0.006958008,-0.01373291,3.0,9.735962,-0.12565613,1.1685638,-0.22895813,0.07116699,0.043640137,0.6423187,-0.16682434,0.7263794,2017-02-13 01:11:47,51.86798862926228
9.473,-0.127,1.147,-0.04258728,0.0021209717,7.9345703E-4,3.0,9.735336,-0.09817505,1.1763916,-0.24194336,-0.024398804,-0.018661499,0.6407318,-0.1716919,0.72473145,2017-02-13 01:11:48,51.10901921457138
9.424,-0.147,1.068,0.04899597,-0.0028381348,0.0065612793,3.0,9.733002,-0.110946655,1.1943817,-0.23962402,-0.025253296,-0.03665161,0.6421814,-0.16337585,0.7278595,2017-02-13 01:11:49,53.23672216724465
9.463,-0.088,1.186,-0.055221558,0.0058898926,-0.005264282,1.0,9.732559,-0.115737915,1.1976166,-0.23916626,-0.020446777,-0.012634277,0.64123535,-0.16656494,0.7271576,2017-02-13 01:11:50,58.31796562866099
9.434,-0.117,1.225,0.01637268,-0.005554199,0.0023498535,1.0,9.733444,-0.113204956,1.1905365,-0.29455566,-0.009353638,-0.073654175,0.6450653,-0.1522522,0.7307129,2017-02-13 01:11:51,59.79754849068538
9.512,-0.088,1.225,-0.05757141,-7.7819824E-4,-0.013442993,1.0,9.734879,-0.12147522,1.1779785,-0.24150085,-0.014709473,-0.06111145,0.6429138,-0.16304016,0.7276306,2017-02-13 01:11:52,59.46255348889637
9.493,-0.127,1.245,0.069244385,0.0013122559,0.009155273,1.0,9.733322,-0.12626648,1.1902618,-0.23994446,0.030914307,-0.073394775,0.64094543,-0.16879272,0.72650146,2017-02-13 01:11:53,56.57165784399912
9.493,-0.117,1.147,-0.062347412,0.0018157959,-0.010818481,1.0,9.736832,-0.11425781,1.1623993,-0.27069092,0.03253174,0.00894165,0.64134216,-0.17146301,0.7246704,2017-02-13 01:11:54,52.3691129146557
9.434,-0.107,1.186,0.15594482,0.008361816,0.032592773,1.0,9.732285,-0.112075806,1.2001953,-0.22528076,0.04397583,-0.0152282715,0.64126587,-0.1660614,0.7273102,2017-02-13 01:11:55,46.555200603640905
9.463,-0.127,1.157,0.07055664,-0.0037231445,0.0037841797,1.0,9.73468,-0.09967041,1.1816711,-0.28215027,0.004333496,-0.05117798,0.6398773,-0.17402649,0.7242279,2017-02-13 01:11:56,48.85133040520823
9.473,-0.127,1.196,0.09156799,0.003112793,0.015594482,1.0,9.735138,-0.108947754,1.1769867,-0.25538635,-0.013626099,-0.03288269,0.64175415,-0.16769409,0.7260895,2017-02-13 01:11:57,56.66180626848228
9.512,-0.098,1.196,0.0,0.0,0.0,3.0,9.732895,-0.10954285,1.1954193,-0.21226501,-0.026641846,0.0031585693,0.64146423,-0.16600037,0.72714233,2017-02-13 01:11:59,55.34256233873158
9.493,-0.107,1.196,-0.07272339,0.0032043457,-0.010955811,3.0,9.73436,-0.105545044,1.1837616,-0.22735596,-0.044265747,-0.06689453,0.6410675,-0.16931152,0.72576904,2017-02-13 01:12:00,54.605365381729065
9.463,-0.078,1.147,-0.049072266,-0.017059326,0.0011749268,3.0,9.735153,-0.119155884,1.1759796,-0.26901245,0.010192871,-0.04548645,0.640213,-0.17364502,0.72454834,2017-02-13 01:12:01,53.97549629859444
9.473,-0.098,1.196,0.11564636,0.003189087,0.018249512,3.0,9.733917,-0.122528076,1.1858063,-0.2677765,-4.5776367E-5,-0.06893921,0.6402588,-0.17204285,0.7253723,2017-02-13 01:12:02,52.301844309090356
9.434,-0.068,1.147,-0.09416199,-1.8310547E-4,-0.02456665,3.0,9.73381,-0.12142944,1.1867828,-0.24043274,0.06694031,-0.08354187,0.64434814,-0.15589905,0.7298126,2017-02-13 01:12:03,46.45628794329723
9.493,-0.107,1.196,-0.27572632,-0.021362305,-0.033203125,3.0,9.733353,-0.11338806,1.19133,-0.23997498,0.058898926,-0.07446289,0.64157104,-0.1662445,0.72702026,2017-02-13 01:12:04,39.05385743375826
9.444,-0.029,1.157,0.15760803,0.010437012,0.022033691,3.0,9.736938,-0.09564209,1.163269,-0.27079773,3.0517578E-4,0.021697998,0.6412964,-0.17147827,0.7243347,2017-02-13 01:12:05,48.02207539283012
9.473,-0.147,1.137,0.008895874,-0.004348755,-0.006225586,3.0,9.736343,-0.11105347,1.1668091,-0.27020264,-0.011520386,-0.0090789795,0.6411743,-0.17144775,0.7247467,2017-02-13 01:12:06,52.62338160616157
9.493,-0.117,1.176,0.1121521,-0.0066833496,0.01777649,3.0,9.735794,-0.112579346,1.1712646,-0.26965332,-0.023605347,-0.013534546,0.6426697,-0.16503906,0.72673035,2017-02-13 01:12:07,54.05641689765158
9.463,-0.127,1.117,0.0018920898,8.8500977E-4,0.0029449463,3.0,9.734177,-0.12236023,1.1837311,-0.26802063,-2.1362305E-4,0.0012359619,0.64183044,-0.16636658,0.72691345,2017-02-13 01:12:08,44.639557929198844
9.453,-0.117,1.196,0.06513977,1.373291E-4,0.0087890625,3.0,9.73526,-0.113586426,1.1756439,-0.26911926,0.05911255,-0.045166016,0.64308167,-0.1627655,0.7274933,2017-02-13 01:12:09,48.47992707013412
9.463,-0.127,1.186,0.0017852783,-0.0044403076,0.0015716553,3.0,9.734451,-0.10545349,1.1829987,-0.26831055,-0.03074646,-0.06613159,0.6417999,-0.16659546,0.7265167,2017-02-13 01:12:10,51.26005694433647
9.463,-0.117,1.157,0.09062195,-0.01574707,0.02330017,3.0,9.735306,-0.09954834,1.1764984,-0.26916504,0.004196167,-0.086868286,0.64152527,-0.1686554,0.7256317,2017-02-13 01:12:11,56.19475619873202
9.434,-0.117,1.117,0.09780884,0.010925293,0.012268066,3.0,9.735275,-0.10058594,1.176712,-0.25550842,0.0052490234,0.035476685,0.6420593,-0.1665802,0.72624207,2017-02-13 01:12:12,48.849554256866845
9.444,-0.127,1.147,0.12112427,-0.0012359619,0.008117676,3.0,9.732666,-0.10800171,1.197464,-0.25289917,-0.055419922,-0.039733887,0.64297485,-0.159729,0.7288971,2017-02-13 01:12:13,44.562858367153964
9.512,-0.147,1.117,0.0073394775,-0.00289917,0.0070648193,1.0,9.735046,-0.10762024,1.177948,-0.25527954,0.012283325,0.007003784,0.64108276,-0.1701355,0.72540283,2017-02-13 01:12:14,46.160254155096716
9.444,-0.088,1.137,-0.051727295,-0.005645752,-0.0056610107,1.0,9.733353,-0.121902466,1.1904297,-0.2944641,0.04017639,-0.1144104,0.6436157,-0.15826416,0.7293091,2017-02-13 01:12:15,48.730249629682774
9.473,-0.137,1.137,0.083480835,-0.002670288,0.012435913,3.0,9.735001,-0.10398865,1.1786957,-0.25523376,-0.0049591064,-0.034576416,0.64027405,-0.17300415,0.7245178,2017-02-13 01:12:16,50.19351138336056
9.483,-0.127,1.137,-0.064315796,-0.0011444092,-0.0067596436,3.0,9.732712,-0.12414551,1.1954498,-0.21209717,0.06967163,-0.010482788,0.6421356,-0.16340637,0.7281189,2017-02-13 01:12:17,56.565107964663326
9.463,-0.147,1.186,0.024841309,0.002105713,0.011245728,3.0,9.733917,-0.111709595,1.1869049,-0.26776123,0.002746582,0.011657715,0.63882446,-0.17710876,0.7237091,2017-02-13 01:12:18,51.235610372589655
9.502,-0.117,1.225,-0.091796875,-0.0029449463,-0.0071258545,1.0,9.734528,-0.11463928,1.1815491,-0.29562378,0.0056762695,-0.03744507,0.6435547,-0.15994263,0.7284546,2017-02-13 01:12:19,46.53755433508089
9.532,-0.107,1.147,0.04194641,-0.002456665,0.009063721,3.0,9.735275,-0.11520386,1.1753235,-0.3236084,-0.007369995,-0.08569336,0.64276123,-0.16409302,0.7271576,2017-02-13 01:12:20,43.44931534826156
9.473,-0.088,1.176,-0.036605835,-7.4768066E-4,0.003250122,1.0,9.73587,-0.111328125,1.1707916,-0.29696655,0.015975952,-0.05392456,0.64152527,-0.16955566,0.7254181,2017-02-13 01:12:21,46.575563571773145
9.463,-0.127,1.196,0.0309906,-0.01512146,7.171631E-4,1.0,9.732681,-0.11000061,1.1971283,-0.25291443,0.014663696,-0.039398193,0.6387634,-0.17585754,0.72435,2017-02-13 01:12:23,44.74747577938863
9.493,-0.098,1.206,0.08258057,-0.0030822754,0.012176514,1.0,9.734299,-0.096343994,1.1850891,-0.26815796,-0.026229858,-0.027359009,0.6409607,-0.16949463,0.72558594,2017-02-13 01:12:24,42.493530066427276
9.444,-0.147,1.137,0.082977295,-0.0076904297,0.007247925,1.0,9.733582,-0.11987305,1.1888123,-0.2674408,-0.016311646,0.023391724,0.64393616,-0.1572113,0.7294922,2017-02-13 01:12:25,48.22635507912851
9.444,-0.117,1.176,0.047973633,0.0046844482,0.0074157715,1.0,9.7339325,-0.11222839,1.1866913,-0.25416565,0.01689148,0.039138794,0.6401367,-0.17234802,0.7251129,2017-02-13 01:12:26,51.78614427079072
9.512,-0.147,1.206,-0.069869995,-0.001159668,-0.011917114,1.0,9.735413,-0.11457825,1.1742706,-0.22840881,0.019226074,-0.0029144287,0.63882446,-0.17897034,0.7228241,2017-02-13 01:12:27,51.02148382439118
9.453,-0.127,1.147,0.0062713623,0.009231567,-0.0048828125,1.0,9.735718,-0.10041809,1.1730652,-0.26957703,-0.0357666,-0.0017089844,0.6413269,-0.16993713,0.72517395,2017-02-13 01:12:28,53.55571760019569
9.493,-0.127,1.196,0.16955566,7.324219E-4,0.00730896,1.0,9.735092,-0.11192322,1.1771698,-0.24171448,0.030197144,-0.033065796,0.6412506,-0.16963196,0.7256012,2017-02-13 01:12:29,46.37458398544833
9.463,-0.098,1.127,0.07714844,0.0025787354,0.008239746,1.0,9.734436,-0.12948608,1.1808167,-0.21380615,0.0068969727,-0.10481262,0.6439209,-0.15855408,0.72906494,2017-02-13 01:12:30,40.343599628397946
9.502,-0.107,1.137,0.099853516,0.012771606,0.011749268,1.0,9.734085,-0.10092163,1.1864624,-0.29518127,0.032821655,-0.110458374,0.64297485,-0.16149902,0.72795105,2017-02-13 01:12:31,43.742982101574974
9.493,-0.117,1.167,-0.028274536,0.0054473877,-9.765625E-4,1.0,9.733704,-0.11161804,1.1885986,-0.26756287,0.057144165,-0.03086853,0.64312744,-0.16052246,0.72846985,2017-02-13 01:12:32,44.07722583999599
9.473,-0.088,1.176,-0.024459839,4.5776367E-4,-0.004989624,1.0,9.735687,-0.11444092,1.1719513,-0.24230957,0.046340942,-0.04145813,0.64175415,-0.16848755,0.7258148,2017-02-13 01:12:33,45.87507413019892
9.493,-0.078,1.186,-0.059646606,8.544922E-4,-0.0019836426,1.0,9.73349,-0.12234497,1.189331,-0.28096008,0.013381958,-0.05883789,0.6425781,-0.16261292,0.7281189,2017-02-13 01:12:34,46.98722156750216
9.502,-0.137,1.176,-0.09527588,-0.00932312,-0.0105896,1.0,9.734238,-0.11491394,1.1838531,-0.26809692,0.033203125,-0.053359985,0.6409912,-0.16960144,0.7258606,2017-02-13 01:12:35,61.76863589085444
9.502,-0.098,1.127,0.13308716,-0.0099487305,0.008453369,1.0,9.735458,-0.11412048,1.1738892,-0.28294373,0.03239441,-0.043395996,0.6426544,-0.16468811,0.7269287,2017-02-13 01:12:36,62.27137023297611
9.453,-0.127,1.176,0.0897522,0.010543823,0.012329102,1.0,9.73558,-0.10749817,1.1735077,-0.16047668,-0.028686523,0.02507019,0.6426239,-0.16488647,0.7267456,2017-02-13 01:12:37,56.798212791375356
9.473,-0.156,1.167,-0.10612488,0.0077056885,-0.013793945,1.0,9.734924,-0.10253906,1.1793518,-0.24154663,0.0072021484,-0.021621704,0.6417694,-0.1672821,0.7261505,2017-02-13 01:12:38,53.862048362208796
9.483,-0.088,1.225,0.06871033,0.007446289,0.0040130615,1.0,9.734924,-0.09864807,1.1797028,-0.2960205,-0.09202576,-0.021972656,0.6404419,-0.17225647,0.7246704,2017-02-13 01:12:39,61.35204000730268
9.463,-0.107,1.206,-0.016586304,0.0028076172,-0.0038146973,1.0,9.735123,-0.11274719,1.1768646,-0.2008667,0.01739502,-0.100860596,0.6428833,-0.16333008,0.7273712,2017-02-13 01:12:40,60.83160705928865
9.434,-0.088,1.147,0.020690918,0.0022583008,0.0037994385,1.0,9.733505,-0.10890198,1.1904907,-0.29460144,0.0135650635,0.021697998,0.6420746,-0.16442871,0.727417,2017-02-13 01:12:41,58.89971472468868
9.473,-0.166,1.127,-0.17922974,-0.005264282,-0.026885986,1.0,9.733444,-0.1073761,1.1911163,-0.24006653,-0.0015716553,-0.03338623,0.6402588,-0.1712799,0.72546387,2017-02-13 01:12:42,45.710388776840354
9.463,-0.088,1.157,-0.008865356,0.004760742,0.0026397705,1.0,9.731277,-0.12837219,1.2066345,-0.23789978,0.03303528,-0.03529358,0.64234924,-0.1607666,0.72924805,2017-02-13 01:12:43,56.961649018049386
9.473,-0.147,1.147,0.173172,0.0014801025,0.019958496,1.0,9.732437,-0.1048584,1.1995697,-0.2662964,-0.031326294,-0.06907654,0.6428375,-0.15995789,0.72883606,2017-02-13 01:12:44,57.4116387763607
9.473,-0.078,1.127,0.05529785,0.005935669,0.0042877197,1.0,9.732925,-0.106903076,1.1954498,-0.25315857,-0.056518555,-0.037719727,0.6429138,-0.16030884,0.72865295,2017-02-13 01:12:45,54.165242515770345
9.493,-0.127,1.147,0.1512146,-0.007446289,0.017715454,1.0,9.734665,-0.10662842,1.1811218,-0.26852417,-0.056793213,-0.05064392,0.6419678,-0.1662445,0.72657776,2017-02-13 01:12:46,59.126577504689514
9.473,-0.107,1.176,-0.036483765,1.5258789E-4,-0.0096588135,1.0,9.733627,-0.10610962,1.189682,-0.2266388,-0.0028381348,-0.031951904,0.6424408,-0.16308594,0.7277069,2017-02-13 01:12:48,56.70333102490748
9.444,-0.166,1.147,0.08251953,0.0035705566,0.009567261,1.0,9.735321,-0.1285553,1.1735382,-0.2555542,0.033203125,-0.0021820068,0.64004517,-0.1746521,0.72435,2017-02-13 01:12:49,50.58900124543296
9.444,-0.147,1.157,-0.23713684,0.010971069,-0.023605347,1.0,9.733704,-0.104644775,1.1892853,-0.25393677,-0.0043029785,-0.031555176,0.6418457,-0.16549683,0.727005,2017-02-13 01:12:50,50.880036647835865
9.493,-0.176,1.196,0.108932495,-0.001739502,0.01725769,1.0,9.734848,-0.121154785,1.1782837,-0.22784424,0.025802612,-0.047805786,0.64302063,-0.16256714,0.72776794,2017-02-13 01:12:51,45.195360630733276
9.473,-0.039,1.216,-0.041381836,-0.0050811768,-0.0071411133,1.0,9.735184,-0.10203552,1.1773682,-0.22817993,-0.020523071,-0.006011963,0.64105225,-0.17030334,0.725235,2017-02-13 01:12:52,49.30363023185159
9.493,-0.107,1.186,0.0058135986,-0.0051879883,0.0021362305,1.0,9.735123,-0.11869812,1.1762085,-0.241745,0.009735107,-0.05934143,0.64271545,-0.1641388,0.7272339,2017-02-13 01:12:53,57.113427189593374
9.483,-0.127,1.196,-0.11643982,0.0011749268,-0.015625,1.0,9.734055,-0.10044861,1.1867676,-0.26791382,0.032348633,-0.056274414,0.6389923,-0.17654419,0.7236481,2017-02-13 01:12:54,57.46312834842662
9.571,-0.107,1.225,0.07748413,-0.0047912598,0.007797241,1.0,9.733994,-0.09762573,1.1874542,-0.26785278,0.0022888184,-0.13868713,0.6422882,-0.16404724,0.7272186,2017-02-13 01:12:55,55.89777384385225
9.473,-0.078,1.108,-0.049850464,-0.007522583,-0.0107421875,1.0,9.735794,-0.10369873,1.1721497,-0.29689026,-0.018875122,-0.014419556,0.64230347,-0.1663208,0.7262268,2017-02-13 01:12:56,54.32457257556159
9.444,-0.117,1.157,-0.0209198,-0.0030212402,-0.0050354004,1.0,9.733444,-0.119003296,1.1899567,-0.26730347,0.03729248,-0.04585266,0.64297485,-0.16096497,0.7285309,2017-02-13 01:12:57,53.82660630920226
9.483,-0.137,1.216,0.051132202,0.010513306,0.0036621094,1.0,9.733231,-0.1149292,1.1921692,-0.28071594,0.0059661865,-0.020812988,0.6405487,-0.16999817,0.7260132,2017-02-13 01:12:58,58.52368985035056
9.512,-0.127,1.225,0.037750244,-0.0011138916,0.0119018555,1.0,9.733902,-0.106933594,1.1874542,-0.24050903,-0.029251099,-0.07058716,0.6421051,-0.1647644,0.7271881,2017-02-13 01:12:59,52.65453390676172
9.483,-0.156,1.167,-0.035079956,0.0019073486,-0.0038604736,1.0,9.734695,-0.10385132,1.1811371,-0.2821808,0.0084991455,-0.05064392,0.64263916,-0.16366577,0.72724915,2017-02-13 01:13:00,51.16722974360879
9.424,-0.058,1.108,0.37953186,-0.008148193,0.05140686,1.0,9.735565,-0.09890747,1.1744232,-0.29666138,0.044418335,-0.0030670166,0.64190674,-0.1675415,0.7258606,2017-02-13 01:13:01,60.340671712945664
9.463,-0.147,1.176,-0.06491089,0.0037231445,-0.008605957,1.0,9.735016,-0.115722656,1.177414,-0.24163818,0.0067596436,0.007537842,0.643631,-0.16029358,0.7282562,2017-02-13 01:13:02,49.09231360160441
9.502,-0.117,1.186,-0.1508789,-0.009384155,-0.02218628,1.0,9.7326355,-0.12922668,1.1955719,-0.2801056,0.03387451,-0.037841797,0.64234924,-0.1625061,0.7284546,2017-02-13 01:13:03,52.013544225721176
9.483,-0.117,1.176,0.10147095,-1.6784668E-4,0.014297485,1.0,9.733948,-0.097854614,1.1877747,-0.22694397,-0.065582275,-0.0027923584,0.64123535,-0.16807556,0.72610474,2017-02-13 01:13:04,56.29932098866312
9.483,-0.107,1.167,0.10777283,-5.0354004E-4,0.016540527,1.0,9.73436,-0.115722656,1.1828156,-0.29545593,-0.020462036,-0.06594849,0.6418762,-0.16633606,0.7267761,2017-02-13 01:13:05,56.051682825496904
9.463,-0.107,1.108,-0.09689331,0.0054779053,-0.014083862,1.0,9.73497,-0.099624634,1.179306,-0.22796631,0.0042877197,-0.035202026,0.6398163,-0.17460632,0.72398376,2017-02-13 01:13:06,51.59089183310385
9.473,-0.156,1.117,-0.09164429,0.0019989014,-0.017318726,1.0,9.73555,-0.09663391,1.1747284,-0.26940918,-0.025924683,-0.057861328,0.6417389,-0.16812134,0.7256775,2017-02-13 01:13:07,53.32404927836226
9.444,-0.127,1.137,-0.16123962,0.0055236816,-0.0154418945,1.0,9.73439,-0.099227905,1.184082,-0.1592865,-0.023330688,0.02810669,0.6392822,-0.1758728,0.7237396,2017-02-13 01:13:09,53.97280320123707
9.473,-0.088,1.167,0.1742096,0.009979248,0.017166138,1.0,9.732193,-0.10972595,1.2010345,-0.29330444,0.014389038,-0.08416748,0.6426544,-0.16046143,0.72883606,2017-02-13 01:13:10,53.3005031566568
9.532,-0.088,1.137,0.10496521,-0.0073547363,0.012680054,1.0,9.733734,-0.13839722,1.1855621,-0.26759338,0.043060303,-0.04144287,0.64167786,-0.16667175,0.72717285,2017-02-13 01:13:11,58.93300715708009
9.512,-0.088,1.176,0.085754395,-9.765625E-4,0.00932312,1.0,9.732849,-0.13334656,1.1933441,-0.22584534,-0.016464233,0.018859863,0.64089966,-0.16850281,0.72680664,2017-02-13 01:13:12,55.64034838797877
9.483,-0.078,1.127,0.07197571,-3.5095215E-4,0.019439697,1.0,9.735687,-0.12231445,1.1711578,-0.2695465,-0.013870239,0.08189392,0.64167786,-0.1689148,0.7258148,2017-02-13 01:13:13,53.633921662421926
9.512,-0.156,1.157,0.014663696,0.004470825,0.002243042,1.0,9.733719,-0.118270874,1.1878357,-0.26757813,0.0501709,0.13331604,0.64323425,-0.16021729,0.72865295,2017-02-13 01:13:14,51.68955014050289
9.483,-0.088,1.176,0.0065460205,-0.0030517578,0.0037078857,1.0,9.731705,-0.1181488,1.2042236,-0.25193787,-0.018051147,-0.08735657,0.6408539,-0.1670227,0.72727966,2017-02-13 01:13:15,49.077741955205276
9.493,-0.137,1.167,-0.2510376,0.008300781,-0.02758789,1.0,9.734802,-0.12049866,1.1787567,-0.28227234,0.038772583,0.047058105,0.6414032,-0.1687622,0.72605896,2017-02-13 01:13:16,57.58655309370495
9.463,-0.098,1.216,-0.07972717,-0.008026123,-2.4414063E-4,1.0,9.733795,-0.11882019,1.1871338,-0.36299133,0.037094116,-0.07026672,0.6420288,-0.16511536,0.7272949,2017-02-13 01:13:17,51.706260512911015
9.444,-0.137,1.167,0.14918518,-0.001953125,0.017181396,1.0,9.733795,-0.115875244,1.1875,-0.25402832,0.03414917,-0.029769897,0.64100647,-0.16896057,0.72618103,2017-02-13 01:13:18,60.41985846410857
9.493,-0.137,1.216,0.01826477,-0.004058838,-0.0039978027,1.0,9.734589,-0.13291931,1.1791687,-0.2956848,0.051208496,0.01940918,0.6414795,-0.16842651,0.72639465,2017-02-13 01:13:19,59.442904247057825
9.463,-0.117,1.068,-0.0012969971,0.0056762695,-0.0018615723,1.0,9.735916,-0.10745239,1.1707764,-0.2697754,0.0121154785,-0.013046265,0.63990784,-0.17553711,0.7236023,2017-02-13 01:13:20,46.715619505024215
9.434,-0.098,1.167,0.035980225,0.0012664795,-9.460449E-4,1.0,9.733658,-0.11723328,1.1884155,-0.25390625,0.06274414,-0.030685425,0.64360046,-0.15866089,0.72906494,2017-02-13 01:13:21,47.419066493385856
9.473,-0.117,1.167,0.027633667,0.002105713,0.009155273,1.0,9.733871,-0.12110901,1.1863098,-0.2813568,0.025756836,-0.028579712,0.64097595,-0.169281,0.7261505,2017-02-13 01:13:22,47.70442665740799
9.473,-0.107,1.157,0.06036377,0.0037994385,0.0025482178,1.0,9.731903,-0.11186218,1.2032013,-0.30662537,-0.051574707,0.036224365,0.64183044,-0.1633606,0.7281494,2017-02-13 01:13:23,47.16321248782706
9.444,-0.127,1.167,-0.08572388,-0.013244629,-0.017166138,1.0,9.734512,-0.106033325,1.1824951,-0.26837158,0.05154419,-0.07923889,0.6427002,-0.16319275,0.72746277,2017-02-13 01:13:24,50.75628205808252
9.453,-0.088,1.186,-0.2000885,0.013305664,-0.01776123,3.0,9.731201,-0.10021973,1.2099304,-0.26506042,0.0048828125,-0.079437256,0.6414337,-0.1638794,0.7279968,2017-02-13 01:13:25,50.30887961730444
9.463,-0.186,1.176,-0.15917969,-0.002090454,-0.018997192,3.0,9.7332,-0.10752869,1.193039,-0.2534485,-0.0014190674,-0.008071899,0.63168335,-0.20033264,0.71629333,2017-02-13 01:13:26,48.3995247243887
9.453,-0.127,1.098,-0.0569458,-0.0037231445,-0.009735107,3.0,9.73465,-0.11042786,1.1809845,-0.2548828,-0.039382935,-0.06411743,0.6341553,-0.19395447,0.71817017,2017-02-13 01:13:27,54.97956775327054
9.483,-0.127,1.147,0.33016968,-0.0065307617,0.040542603,3.0,9.733093,-0.11816406,1.1929321,-0.2669525,0.022827148,-0.007949829,0.6352997,-0.18855286,0.720459,2017-02-13 01:13:29,61.258735725969935
9.346,-0.117,1.098,-0.5935211,0.0030822754,-0.049545288,1.0,9.738525,-0.144104,1.144867,-0.122558594,-0.07380676,-0.09609985,0.6358185,-0.19326782,0.7180786,2017-02-13 01:13:30,61.20613729910084
9.512,-0.107,1.206,0.10159302,-0.005004883,0.013641357,1.0,9.734497,-0.118118286,1.1815033,-0.21386719,0.036392212,-0.06463623,0.61550903,-0.2467804,0.6980438,2017-02-13 01:13:31,46.88643954499887
9.522,-0.098,1.206,0.040512085,-0.0021362305,0.010040283,1.0,9.732544,-0.124679565,1.1968079,-0.2664032,0.04295349,-0.079940796,0.6181183,-0.23851013,0.70217896,2017-02-13 01:13:32,50.38004187152168
9.502,-0.107,1.176,0.09489441,0.0029754639,0.013259888,1.0,9.733978,-0.11656189,1.1858673,-0.24060059,-0.019622803,-0.068984985,0.6194458,-0.23623657,0.7026367,2017-02-13 01:13:33,53.42901527721507
9.463,-0.078,1.167,-0.009033203,-3.5095215E-4,-0.0020599365,1.0,9.735031,-0.09875488,1.178894,-0.28250122,-0.010192871,-0.02116394,0.6128845,-0.25349426,0.69444275,2017-02-13 01:13:34,42.69929813993616
9.532,-0.088,1.137,-0.115493774,-0.0058288574,-0.014785767,1.0,9.732605,-0.109954834,1.1977539,-0.2256012,9.918213E-4,-0.040023804,0.61517334,-0.24591064,0.69862366,2017-02-13 01:13:35,49.690096589178225
9.453,-0.107,1.216,0.14668274,0.013442993,0.023376465,1.0,9.735413,-0.11204529,1.1745453,-0.26927185,0.030334473,0.03765869,0.6181946,-0.24069214,0.70033264,2017-02-13 01:13:36,53.606649527013445
9.483,-0.078,1.176,0.12135315,0.008804321,0.025344849,1.0,9.732254,-0.1096344,1.2006226,-0.25248718,6.713867E-4,-0.029281616,0.6158905,-0.24383545,0.69958496,2017-02-13 01:13:37,53.83649143909772
9.493,-0.117,1.147,-0.044692993,0.0038452148,-0.0075531006,1.0,9.734665,-0.10612488,1.1812286,-0.25489807,-0.030059814,-0.023498535,0.6139679,-0.2505951,0.6960144,2017-02-13 01:13:38,51.990990630000425
9.453,-0.117,1.147,-0.010070801,-0.009613037,-0.00289917,1.0,9.735687,-0.106674194,1.1727295,-0.2559204,-0.043136597,-0.028625488,0.6181183,-0.24107361,0.6999817,2017-02-13 01:13:39,53.941174414136725
9.444,-0.107,1.157,-0.16654968,-8.544922E-4,-0.018600464,1.0,9.734924,-0.10614014,1.1790466,-0.26878357,0.010803223,-0.021316528,0.61738586,-0.24229431,0.6996002,2017-02-13 01:13:40,51.80198405778622
9.463,-0.088,1.186,-0.109695435,-0.004211426,-0.018478394,1.0,9.735138,-0.105895996,1.1773834,-0.22813416,-0.030288696,0.0075683594,0.616272,-0.24528503,0.6982727,2017-02-13 01:13:41,50.808993745777954
9.561,-0.225,1.216,0.024810791,-0.0013122559,0.006958008,1.0,9.734268,-0.109817505,1.184082,-0.29537964,0.055343628,-0.026367188,0.6157837,-0.24583435,0.6983032,2017-02-13 01:13:42,56.49373123483966
9.502,-0.117,1.147,0.02116394,-0.0040283203,0.005630493,1.0,9.733093,-0.11538696,1.1931915,-0.25334167,0.060897827,-0.021850586,0.6159973,-0.24432373,0.6993408,2017-02-13 01:13:43,54.06310995204529
9.502,-0.127,1.108,-0.040649414,-0.0014801025,-9.918213E-4,1.0,9.73494,-0.1129303,1.1782837,-0.22793579,-0.023254395,0.033920288,0.61750793,-0.24206543,0.6998749,2017-02-13 01:13:44,50.56715533564138
9.473,-0.058,1.108,0.061935425,0.008743286,0.004623413,1.0,9.733734,-0.109069824,1.1886292,-0.29483032,-0.027114868,-0.030899048,0.6184082,-0.23867798,0.70147705,2017-02-13 01:13:45,46.57133774791588
9.444,-0.117,1.157,-0.06504822,0.0020751953,-0.0062561035,1.0,9.735046,-0.1164093,1.1770477,-0.2416687,-0.047027588,-0.019317627,0.618515,-0.23960876,0.7009735,2017-02-13 01:13:46,54.977864729826834
9.473,-0.088,1.157,-0.009155273,0.0019989014,-0.0038146973,1.0,9.731308,-0.12420654,1.2068329,-0.26516724,0.04248047,-0.07635498,0.6150665,-0.24525452,0.6995392,2017-02-13 01:13:48,57.2649177134894
9.453,-0.098,1.147,0.033676147,-0.019195557,0.022018433,1.0,9.731506,-0.13172913,1.2044067,-0.29260254,0.009140015,-0.060287476,0.6191864,-0.23490906,0.70407104,2017-02-13 01:13:49,51.5590301242242
9.463,-0.107,1.216,-0.09190369,0.0050201416,-0.0016784668,1.0,9.73645,-0.09046936,1.1677551,-0.22944641,0.022369385,0.0035858154,0.6161194,-0.24665833,0.6969757,2017-02-13 01:13:50,50.33362285775723
9.483,-0.196,1.186,0.023086548,0.009628296,0.0063476563,1.0,9.7348175,-0.09899902,1.1806183,-0.3912506,0.0036621094,0.004333496,0.6214447,-0.23149109,0.70399475,2017-02-13 01:13:51,50.561070325660424
9.473,-0.127,1.196,-0.052368164,-0.01071167,-0.0025787354,1.0,9.735199,-0.11277771,1.176178,-0.28268433,0.044677734,0.10411072,0.6195679,-0.23695374,0.7019806,2017-02-13 01:13:52,50.35287769123976
9.463,-0.166,1.108,-0.01890564,0.01008606,-0.007156372,1.0,9.733139,-0.10725403,1.193573,-0.2669983,0.039154053,-0.022216797,0.61938477,-0.23554993,0.70288086,2017-02-13 01:13:53,43.08118717563335
9.463,-0.127,1.157,0.03175354,-0.0015106201,-0.0027313232,1.0,9.733688,-0.10545349,1.1893158,-0.22668457,-0.030731201,-0.045211792,0.6178436,-0.24005127,0.7008209,2017-02-13 01:13:54,40.515465827263235
9.502,-0.088,1.157,-0.007827759,0.0046539307,-0.0018005371,1.0,9.733871,-0.1222229,1.1861725,-0.22686768,-0.013977051,-0.0012054443,0.6194153,-0.23628235,0.70277405,2017-02-13 01:13:55,48.564927872453715
9.404,-0.176,1.157,0.07498169,-0.0036010742,0.007369995,1.0,9.735016,-0.112701416,1.1776581,-0.25526428,0.017364502,-0.033554077,0.6174164,-0.24235535,0.6997223,2017-02-13 01:13:56,48.312054097491
9.444,-0.098,1.127,0.040786743,0.0026855469,0.004043579,1.0,9.73291,-0.105667114,1.1956482,-0.2531433,0.051193237,-0.03791809,0.6188507,-0.23674011,0.7023926,2017-02-13 01:13:57,51.14701013165818
9.502,-0.137,1.098,0.03440857,-0.0035095215,0.001953125,1.0,9.735168,-0.110687256,1.1766357,-0.2690277,0.015335083,-0.046142578,0.61712646,-0.24319458,0.6992798,2017-02-13 01:13:58,52.00927220735328
9.512,-0.137,1.117,0.08416748,-0.008682251,0.007873535,1.0,9.734055,-0.107040405,1.1861267,-0.30877686,-0.0155181885,-0.042022705,0.62039185,-0.23371887,0.7034302,2017-02-13 01:13:59,43.78116420513783
9.512,-0.088,1.147,-0.0758667,0.0038757324,7.7819824E-4,1.0,9.733536,-0.11836243,1.18927,-0.22654724,0.023010254,-0.031539917,0.6174469,-0.24105835,0.70072937,2017-02-13 01:14:00,64.76774278991714
9.444,-0.088,1.206,0.012557983,-0.0019378662,0.0058135986,1.0,9.735474,-0.10845947,1.1743317,-0.22846985,0.013122559,-0.0029754639,0.61824036,-0.24060059,0.7002716,2017-02-13 01:14:01,53.220425742006626
9.493,-0.117,1.117,-0.09049988,3.0517578E-4,-0.018371582,1.0,9.733902,-0.08761597,1.1890259,-0.29499817,0.03312683,-0.004058838,0.61509705,-0.24700928,0.69729614,2017-02-13 01:14:02,47.714929810662355
9.493,-0.088,1.127,0.026901245,-6.866455E-4,0.0047302246,1.0,9.737289,-0.10984802,1.1590729,-0.27114868,0.01449585,-0.0013427734,0.61746216,-0.2441864,0.6983795,2017-02-13 01:14:03,47.76906898752827
9.463,-0.117,1.127,-0.021057129,-0.011871338,-0.0024108887,1.0,9.735306,-0.1065979,1.1759491,-0.26914978,-0.0023498535,0.009017944,0.61798096,-0.24110413,0.700058,2017-02-13 01:14:04,51.68872890930296
9.512,-0.137,1.108,0.04034424,-0.001373291,0.0017547607,1.0,9.733307,-0.12080383,1.1910095,-0.17181396,0.039093018,-0.101379395,0.61868286,-0.2376709,0.70228577,2017-02-13 01:14:05,47.10723840281528
9.483,-0.117,1.167,-0.04333496,-0.0014648438,-0.004058838,1.0,9.735184,-0.12049866,1.1755524,-0.25541687,-0.015686035,-0.031448364,0.6206665,-0.23413086,0.7033386,2017-02-13 01:14:06,46.22570872423761
9.473,-0.156,1.117,0.16792297,-0.0022125244,0.021591187,1.0,9.733704,-0.11187744,1.1885681,-0.25393677,0.043777466,-0.07170105,0.6198883,-0.23478699,0.70318604,2017-02-13 01:14:07,56.84143448432345
9.453,-0.049,1.167,-0.13728333,0.0070343018,-0.020187378,1.0,9.732239,-0.10510254,1.2011871,-0.3069458,0.009750366,0.024642944,0.61517334,-0.24557495,0.6987152,2017-02-13 01:14:09,58.906764924615715
9.473,-0.137,1.225,-0.058059692,0.010864258,-0.014053345,1.0,9.733658,-0.12390137,1.1877594,-0.22665405,-0.039535522,-0.030029297,0.6156006,-0.24589539,0.698761,2017-02-13 01:14:10,52.282674763608526
9.385,-0.088,1.127,-0.024551392,-0.0017547607,-0.005645752,1.0,9.732849,-0.11399841,1.1953278,-0.2939453,0.03227234,-0.037597656,0.61865234,-0.23728943,0.7023773,2017-02-13 01:14:11,52.1554854422265
9.453,-0.147,1.147,0.11819458,-0.0034332275,0.008728027,1.0,9.734772,-0.10832214,1.1800842,-0.2141571,-0.027862549,0.0048675537,0.61672974,-0.24386597,0.6990204,2017-02-13 01:14:12,55.23371581053568
9.473,-0.088,1.186,0.07347107,-0.013977051,0.0028686523,1.0,9.735001,-0.11087036,1.1779938,-0.24162292,0.0155181885,-0.04751587,0.6184387,-0.23970032,0.7008209,2017-02-13 01:14:13,54.01175026034334
9.463,-0.117,1.186,-0.114227295,0.0028533936,-0.013641357,1.0,9.734085,-0.095947266,1.1868286,-0.26794434,-0.040237427,-0.04272461,0.6114197,-0.25621033,0.6933136,2017-02-13 01:14:14,41.198626661113984
9.493,-0.147,1.186,-0.019592285,0.0032196045,-0.0012359619,1.0,9.732788,-0.102005005,1.1969147,-0.2394104,-0.034179688,-0.011932373,0.61380005,-0.24942017,0.6968231,2017-02-13 01:14:15,41.850727042005815
9.473,-0.196,1.196,-0.034469604,0.005935669,-0.023849487,1.0,9.73349,-0.1010437,1.1912842,-0.26734924,-0.007904053,-0.0063171387,0.61976624,-0.23480225,0.70295715,2017-02-13 01:14:16,53.6819585577333
9.483,-0.137,1.176,0.11105347,0.018493652,0.027038574,1.0,9.7326355,-0.11682129,1.1968079,-0.28012085,0.021484375,-0.03907776,0.61709595,-0.24118042,0.7008362,2017-02-13 01:14:17,58.98493767774197
9.532,-0.117,1.176,-0.08035278,0.008651733,-0.017196655,1.0,9.735367,-0.11325073,1.1748047,-0.296463,-0.00932312,-0.044311523,0.61624146,-0.24563599,0.6982422,2017-02-13 01:14:18,50.84064381128573
9.473,-0.107,1.088,-0.064819336,0.0026245117,-0.004211426,1.0,9.733307,-0.11273193,1.1917877,-0.23991394,0.01739502,-0.034057617,0.61872864,-0.23750305,0.7021637,2017-02-13 01:14:19,46.15494566265478
9.444,-0.098,1.167,-0.026855469,0.003967285,-0.0043945313,1.0,9.734055,-0.10411072,1.1864624,-0.28152466,0.022384644,0.039352417,0.6161957,-0.2445221,0.69877625,2017-02-13 01:14:20,53.68391709656768
9.483,-0.098,1.147,-0.23060608,0.00289917,-0.020843506,1.0,9.732544,-0.11947632,1.1973419,-0.2664032,0.010513306,-0.08047485,0.620697,-0.2316742,0.704895,2017-02-13 01:14:21,53.0717698573675
9.444,-0.117,1.167,0.04034424,-0.0015411377,-0.0035552979,1.0,9.732468,-0.11431885,1.1984253,-0.2663269,0.005355835,-0.04069519,0.6205139,-0.23205566,0.7046356,2017-02-13 01:14:22,55.65323686782685
9.444,-0.127,1.127,-0.36741638,-0.0050354004,-0.049591064,1.0,9.7331085,-0.10812378,1.1938019,-0.26696777,0.053649902,-0.076934814,0.6150665,-0.24658203,0.6981659,2017-02-13 01:14:23,51.42037853208495
9.483,-0.156,1.127,0.06518555,0.0065460205,0.008132935,1.0,9.732437,-0.10832214,1.1992035,-0.2662964,0.012969971,-0.04147339,0.61938477,-0.2349701,0.70329285,2017-02-13 01:14:24,50.18358609744193
9.463,-0.117,1.176,0.04510498,-4.119873E-4,0.0035552979,1.0,9.733856,-0.10256958,1.1881714,-0.28134155,0.007217407,-0.030441284,0.61727905,-0.24160767,0.7000427,2017-02-13 01:14:25,49.55196331844006
9.375,-0.068,1.157,0.15466309,0.014480591,0.019348145,1.0,9.73233,-0.107406616,1.2001343,-0.23895264,-0.028793335,-0.042404175,0.61486816,-0.2464447,0.6983795,2017-02-13 01:14:26,50.026208069041765
9.198,0.372,1.098,-0.06271362,-0.005554199,-0.0067443848,1.0,9.7339325,-0.11671448,1.1861877,-0.26779175,0.035003662,0.026016235,0.61550903,-0.24629211,0.698349,2017-02-13 01:14:27,54.22649879489393
9.473,-0.127,1.157,-0.15719604,-0.0028533936,-0.032058716,1.0,9.73436,-0.1280365,1.1815491,-0.268219,0.032699585,0.057876587,0.6200409,-0.2351532,0.7032776,2017-02-13 01:14:28,60.45359815876269
9.473,-0.137,1.137,0.032196045,0.0019683838,0.0011901855,1.0,9.733612,-0.119903564,1.1885071,-0.22660828,-0.016281128,-0.071640015,0.61720276,-0.24176025,0.7004547,2017-02-13 01:14:29,50.17841660708211
9.346,-0.166,1.206,-0.08908081,0.003692627,-0.01322937,1.0,9.737244,-0.088272095,1.1612244,-0.25749207,-0.047912598,0.023727417,0.6141968,-0.2520752,0.69433594,2017-02-13 01:14:30,62.786861028274
9.532,-0.107,1.147,-0.061462402,-0.0076446533,-0.010070801,1.0,9.734528,-0.10720825,1.1822205,-0.29562378,-0.02897644,-0.051727295,0.61683655,-0.24334717,0.6992645,2017-02-13 01:14:31,62.39732134610459
9.542,-0.107,1.167,-0.08389282,0.0037841797,-0.014480591,1.0,9.733612,-0.105773926,1.1898651,-0.2674713,-0.0031738281,-0.03213501,0.6173706,-0.24121094,0.7003479,2017-02-13 01:14:32,47.344516457087586
9.493,-0.107,1.147,0.02784729,-0.0036773682,0.005508423,1.0,9.73233,-0.1058197,1.2003784,-0.26617432,-0.01675415,-0.029037476,0.6171417,-0.24067688,0.70085144,2017-02-13 01:14:34,46.07950149898905
9.483,-0.019,1.206,0.1589508,2.1362305E-4,0.02243042,1.0,9.734634,-0.10765076,1.1813202,-0.25486755,0.039535522,-0.064453125,0.61590576,-0.24581909,0.69818115,2017-02-13 01:14:35,47.45505608297115
9.473,-0.058,1.137,-0.06309509,-0.0016326904,-0.0096588135,1.0,9.735733,-0.124923706,1.1705475,-0.31045532,0.015960693,-0.026443481,0.6151428,-0.24882507,0.69706726,2017-02-13 01:14:36,52.134112986893335
9.522,-0.147,1.225,-0.14109802,0.006362915,-0.027999878,1.0,9.732895,-0.10076904,1.196167,-0.2939911,-0.02178955,-0.011199951,0.61795044,-0.23902893,0.7013092,2017-02-13 01:14:37,52.69330081073889
9.434,-0.196,1.167,-0.1661377,0.0030975342,-0.022918701,1.0,9.73497,-0.108566284,1.1784058,-0.28245544,-3.8146973E-4,-0.047912598,0.6152191,-0.24780273,0.69725037,2017-02-13 01:14:38,48.77121678651868
9.483,-0.137,1.167,0.07333374,0.0029907227,0.0084991455,1.0,9.735504,-0.10368347,1.1745453,-0.2693634,-0.05973816,-0.044052124,0.6187439,-0.23928833,0.7007141,2017-02-13 01:14:39,52.114229431293246
9.493,-0.137,1.206,-0.0071411133,0.0051574707,4.7302246E-4,1.0,9.734573,-0.09919739,1.1825867,-0.29566956,0.017471313,-0.038467407,0.61561584,-0.24639893,0.6977234,2017-02-13 01:14:40,62.53390157302805
9.483,-0.117,1.167,0.07368469,-0.0063476563,0.00642395,1.0,9.73349,-0.10908508,1.1905823,-0.29458618,-0.02709961,-0.07371521,0.6163788,-0.24365234,0.69940186,2017-02-13 01:14:41,59.44092458891415
9.522,-0.176,1.176,-0.10726929,0.0023345947,-0.01612854,1.0,9.7343445,-0.107406616,1.1837006,-0.28182983,-0.015167236,-0.066833496,0.6157532,-0.2459259,0.69818115,2017-02-13 01:14:42,47.25577049946836
9.463,-0.117,1.157,0.16941833,-0.009414673,0.022216797,1.0,9.734528,-0.100997925,1.1828461,-0.26838684,0.005645752,0.0021209717,0.6190033,-0.23771667,0.7015228,2017-02-13 01:14:43,58.96236292820657
9.463,-0.127,1.167,-0.049972534,0.0056152344,-0.006088257,1.0,9.733383,-0.10850525,1.1914673,-0.2536316,0.013153076,-0.033737183,0.61505127,-0.24687195,0.69799805,2017-02-13 01:14:44,57.403403168145516
9.463,-0.078,1.137,-0.062072754,-0.0025024414,-0.0103302,1.0,9.734558,-0.08828735,1.1835938,-0.18669128,0.033798218,0.001373291,0.6161194,-0.2450409,0.6980438,2017-02-13 01:14:45,52.506296685667586
9.463,-0.117,1.147,-0.04273987,7.7819824E-4,-0.008544922,1.0,9.734085,-0.10821533,1.1857758,-0.2407074,-7.324219E-4,-0.041671753,0.61576843,-0.24569702,0.69836426,2017-02-13 01:14:46,56.89065728114784
9.522,-0.098,1.039,0.11853027,0.0010375977,0.013702393,1.0,9.736069,-0.08770752,1.1711121,-0.22906494,0.005996704,-0.054244995,0.61790466,-0.24179077,0.69911194,2017-02-13 01:14:47,58.13801771310642
9.483,-0.107,1.137,0.056991577,-0.003479004,0.010009766,1.0,9.734085,-0.11155701,1.1854858,-0.28157043,0.029846191,0.013092041,0.61824036,-0.23942566,0.70114136,2017-02-13 01:14:48,45.1031192619729
9.473,-0.098,1.137,0.044036865,-0.007598877,0.0012207031,1.0,9.733749,-0.09536743,1.1896973,-0.29484558,-0.027191162,-0.045578003,0.61457825,-0.2482605,0.6969757,2017-02-13 01:14:49,40.085674263002346
9.463,-0.107,1.147,0.011734009,-0.008590698,0.0033111572,1.0,9.732285,-0.10191345,1.2010651,-0.29338074,-0.020645142,-0.0024719238,0.61538696,-0.24502563,0.6988678,2017-02-13 01:14:50,45.824759968310474
9.463,-0.137,1.167,-0.15899658,0.0018615723,-0.016174316,1.0,9.734451,-0.1043396,1.1831512,-0.26831055,0.022613525,0.0018005371,0.61798096,-0.24034119,0.7005005,2017-02-13 01:14:51,38.340768662265646
9.473,-0.117,1.186,-0.08648682,-0.0019836426,-0.009719849,1.0,9.736649,-0.09761047,1.1655579,-0.29774475,-0.03857422,0.005783081,0.6195984,-0.23803711,0.7008362,2017-02-13 01:14:52,45.56927168403018
9.502,-0.078,1.137,-0.09725952,-0.008178711,-0.005355835,1.0,9.7313385,-0.12173462,1.2068787,-0.21070862,0.026397705,-0.04914856,0.6168976,-0.24061584,0.70147705,2017-02-13 01:14:53,46.929670616051865
9.444,-0.088,1.176,0.06796265,-0.001663208,0.0067749023,1.0,9.732437,-0.11772156,1.1983337,-0.22543335,-0.032089233,-0.095077515,0.61587524,-0.24409485,0.699646,2017-02-13 01:14:55,41.012526004561664
9.473,-0.137,1.167,0.13278198,-0.005203247,0.015090942,1.0,9.736267,-0.10253906,1.1682129,-0.18841553,-0.020019531,-0.024093628,0.61920166,-0.23880005,0.70072937,2017-02-13 01:14:56,54.033112986456715
9.61,-0.098,1.137,0.05809021,-0.0038757324,0.014953613,1.0,9.734482,-0.11065674,1.1823578,-0.26834106,0.056167603,-0.024627686,0.6178589,-0.24075317,0.7004852,2017-02-13 01:14:57,51.01801016167812
9.463,-0.088,1.176,0.21011353,0.004714966,0.027832031,1.0,9.733841,-0.1144104,1.1872406,-0.2677002,0.019058228,-0.070373535,0.61413574,-0.24958801,0.69685364,2017-02-13 01:14:58,51.78681791689071
9.414,-0.137,1.196,-0.019439697,1.5258789E-4,0.0029144287,1.0,9.733459,-0.10646057,1.1910248,-0.24008179,-0.05697632,-0.0060577393,0.6160431,-0.2444458,0.69898987,2017-02-13 01:14:59,50.84162819701413
9.493,-0.156,1.157,0.09150696,0.007965088,0.006942749,1.0,9.735626,-0.10173035,1.1736603,-0.2967224,-0.007217407,-0.015930176,0.6142731,-0.25061035,0.69569397,2017-02-13 01:15:00,51.236955112213955
9.483,-0.137,1.196,0.04751587,-0.0011138916,5.645752E-4,1.0,9.733063,-0.11116028,1.1938782,-0.23968506,0.015808105,-0.03614807,0.6140137,-0.24919128,0.6970978,2017-02-13 01:15:01,46.36753181473491
9.502,-0.156,1.176,-0.115753174,-0.0029144287,-0.017868042,1.0,9.734756,-0.10324097,1.1807709,-0.26861572,-0.019332886,-0.009414673,0.61613464,-0.24526978,0.69828796,2017-02-13 01:15:02,45.272444893770626
9.483,-0.166,1.147,-0.040298462,0.0019378662,-0.0018615723,1.0,9.734924,-0.11701965,1.1780701,-0.2960205,-0.073654175,-0.020339966,0.6155853,-0.24693298,0.6978607,2017-02-13 01:15:03,46.87199144833436
9.493,-0.098,1.147,0.04812622,-0.018356323,1.5258789E-5,1.0,9.735855,-0.095825195,1.1722107,-0.25610352,-0.040359497,-0.109817505,0.615448,-0.24789429,0.69670105,2017-02-13 01:15:04,50.471033291081525
9.463,-0.117,1.088,0.20767212,-0.013580322,0.01864624,1.0,9.732117,-0.11917114,1.2007599,-0.22511292,-0.017028809,-0.07026672,0.61831665,-0.23757935,0.7025299,2017-02-13 01:15:05,47.445949936632275
9.493,-0.098,1.108,-0.01600647,0.004425049,0.0045166016,1.0,9.734131,-0.104904175,1.18573,-0.254364,-0.017669678,-7.6293945E-4,0.6150055,-0.24758911,0.6974335,2017-02-13 01:15:06,41.116697134104086
9.473,-0.117,1.147,0.15301514,0.011413574,0.017486572,1.0,9.735321,-0.10354614,1.1759949,-0.29641724,-0.03263855,0.008956909,0.61346436,-0.2523651,0.6950073,2017-02-13 01:15:07,39.58010851102672
9.483,-0.098,1.157,0.05897522,0.010116577,0.0029754639,1.0,9.731522,-0.111068726,1.2064056,-0.25175476,-0.025131226,-0.075927734,0.61299133,-0.25042725,0.6968689,2017-02-13 01:15:08,47.14940372123773
9.434,-0.098,1.147,0.046447754,0.0051116943,0.003540039,1.0,9.734894,-0.105651855,1.179306,-0.26875305,-0.016906738,-0.021575928,0.6140442,-0.2506256,0.6959381,2017-02-13 01:15:09,51.9877244452553
9.473,-0.156,1.167,0.19413757,-0.0040893555,0.029373169,1.0,9.733383,-0.09939575,1.1922455,-0.28086853,-0.03678894,-0.07537842,0.61613464,-0.24406433,0.69898987,2017-02-13 01:15:10,57.74047417268352
9.444,-0.127,1.216,-0.11004639,0.0024871826,-0.0075683594,1.0,9.735779,-0.111709595,1.1714325,-0.26963806,0.002746582,-0.013702393,0.6165619,-0.24516296,0.6983185,2017-02-13 01:15:11,51.01961504768038
9.483,-0.127,1.147,-0.03404236,-0.010025024,0.0010528564,1.0,9.736893,-0.107803345,1.1625366,-0.2979889,0.02609253,0.0087890625,0.61299133,-0.2548523,0.6936798,2017-02-13 01:15:12,45.58393269012421
9.414,-0.098,1.157,0.10398865,0.0030822754,0.019561768,1.0,9.731735,-0.101242065,1.2055969,-0.27920532,-0.021316528,-0.06147766,0.6166992,-0.24125671,0.7006073,2017-02-13 01:15:13,39.00718042620574
9.453,-0.078,1.186,-0.096206665,-0.0072631836,-0.010131836,1.0,9.733337,-0.09484863,1.1931,-0.26719666,-0.068573,-0.021759033,0.6170044,-0.24177551,0.69989014,2017-02-13 01:15:14,53.428738038670424
9.463,-0.107,1.137,0.002532959,-0.0024414063,8.544922E-4,1.0,9.733734,-0.12010193,1.1875,-0.2539673,0.011138916,-0.002532959,0.6171875,-0.24191284,0.70036316,2017-02-13 01:15:15,53.74226386263837
9.453,-0.068,1.137,0.15283203,0.00894165,0.027053833,1.0,9.733383,-0.11795044,1.1905823,-0.2536316,0.049850464,-0.019241333,0.6130371,-0.25193787,0.6959839,2017-02-13 01:15:16,52.63516624879842
9.434,-0.127,1.245,-0.035720825,-0.0046691895,-0.0037078857,1.0,9.7339325,-0.10142517,1.1876068,-0.2541809,0.006088257,-0.043502808,0.6116028,-0.25569153,0.6937256,2017-02-13 01:15:18,49.23814888658776
9.463,-0.107,1.167,0.07142639,-9.765625E-4,0.007369995,1.0,9.733978,-0.094070435,1.1879272,-0.3223114,0.066833496,-0.002960205,0.61802673,-0.23970032,0.70062256,2017-02-13 01:15:19,58.06520310081442
9.532,-0.088,1.137,0.015197754,0.0069122314,0.0012817383,1.0,9.7343445,-0.11465454,1.1830139,-0.26820374,-0.0079193115,0.0019378662,0.6155853,-0.24642944,0.69815063,2017-02-13 01:15:20,58.98983806044698
9.434,-0.117,1.117,-0.07878113,-5.0354004E-4,-0.008712769,1.0,9.733383,-0.11167908,1.1912079,-0.28086853,0.029953003,0.020996094,0.61924744,-0.2361908,0.70266724,2017-02-13 01:15:21,53.21012372281058
9.434,-0.117,1.147,0.016113281,0.008041382,-0.0027618408,1.0,9.735825,-0.10121155,1.1720581,-0.2424469,0.005859375,-0.04156494,0.61880493,-0.23937988,0.700531,2017-02-13 01:15:22,48.965503316730704
9.512,-0.068,1.088,-0.11628723,1.373291E-4,-0.0059814453,1.0,9.735214,-0.11541748,1.175827,-0.2554474,-0.020767212,-0.004486084,0.6183624,-0.24014282,0.70069885,2017-02-13 01:15:23,47.111920110114966
9.512,-0.068,1.127,0.083099365,-0.005493164,0.005859375,1.0,9.735535,-0.09637451,1.1748962,-0.24214172,-0.026184082,-0.0035552979,0.61831665,-0.24035645,0.70007324,2017-02-13 01:15:24,44.81474149093319
9.502,-0.117,1.235,0.16630554,0.001739502,0.02053833,1.0,9.734512,-0.10990906,1.1820679,-0.26837158,0.014572144,-0.051589966,0.6189728,-0.23789978,0.70166016,2017-02-13 01:15:25,41.59700369815121
9.522,-0.058,1.186,-0.05831909,-0.0090789795,-0.010437012,1.0,9.734268,-0.11482239,1.1837311,-0.29536438,0.019470215,-0.039611816,0.6205292,-0.23364258,0.7036133,2017-02-13 01:15:26,48.622066125535774
9.502,-0.078,1.147,0.21209717,0.005844116,0.030471802,1.0,9.733917,-0.1194458,1.186142,-0.21328735,0.064956665,-0.042037964,0.61413574,-0.24971008,0.6969147,2017-02-13 01:15:27,48.43612895016954
9.434,-0.117,1.186,-0.033996582,0.004470825,-2.4414063E-4,1.0,9.733704,-0.10887146,1.1888733,-0.25393677,-0.013702393,-0.0038909912,0.6128082,-0.2526703,0.6953583,2017-02-13 01:15:28,46.1107674526744
9.463,-0.137,1.147,0.14360046,-0.0035247803,0.017913818,1.0,9.734497,-0.09196472,1.1837463,-0.24111938,-0.0033721924,-0.06687927,0.61860657,-0.23864746,0.7008972,2017-02-13 01:15:29,48.858520470170525
9.542,-0.166,1.225,-0.1030426,-0.0018005371,-0.015609741,1.0,9.73085,-0.11010742,1.211853,-0.25109863,0.042007446,-0.026885986,0.61628723,-0.24163818,0.70085144,2017-02-13 01:15:30,49.77555678812911
9.463,-0.068,1.117,0.00730896,9.613037E-4,-1.5258789E-5,3.0,9.732315,-0.13079834,1.1980286,-0.3070221,-0.0054016113,-0.09477234,0.61953735,-0.23469543,0.70396423,2017-02-13 01:15:31,51.55611391062622
9.512,-0.098,1.157,0.17385864,-6.713867E-4,0.02659607,3.0,9.733017,-0.11413574,1.193985,-0.28050232,0.01878357,0.018218994,0.62106323,-0.23106384,0.70492554,2017-02-13 01:15:32,57.64041524143109
9.718,-0.137,1.176,0.09786987,0.006668091,0.030380249,3.0,9.734634,-0.11276245,1.1808167,-0.39108276,0.0037994385,0.004135132,0.6182556,-0.23988342,0.7008667,2017-02-13 01:15:33,60.273446117426616
9.522,-0.107,1.127,0.021972656,0.0021820068,0.0016784668,3.0,9.735962,-0.104385376,1.1705933,-0.25621033,-0.004562378,-0.040100098,0.6060028,-0.2702942,0.6864624,2017-02-13 01:15:34,62.4382608454274
9.444,-0.107,1.147,-0.066223145,0.004989624,-0.014877319,3.0,9.735977,-0.1240387,1.1686401,-0.22897339,0.001449585,-0.14712524,0.60809326,-0.26574707,0.689209,2017-02-13 01:15:35,58.23937706444839
9.532,-0.098,1.137,-0.0016326904,0.0030059814,-0.0036468506,3.0,9.733078,-0.11402893,1.1934357,-0.26693726,0.018676758,-0.008468628,0.60887146,-0.26156616,0.6914978,2017-02-13 01:15:36,50.26407964745146
9.453,-0.098,1.206,-0.032196045,-0.0016479492,-0.0037994385,3.0,9.735321,-0.10482788,1.1759644,-0.32365417,0.07759094,0.008987427,0.6051636,-0.27166748,0.68592834,2017-02-13 01:15:37,56.94879546823956
9.453,-0.088,1.255,-0.12641907,3.2043457E-4,-0.010543823,3.0,9.736008,-0.096466064,1.1708679,-0.21539307,-0.039718628,0.014083862,0.6060333,-0.27018738,0.68626404,2017-02-13 01:15:38,58.81740644856119
9.463,-0.098,1.147,0.076034546,-0.0053710938,7.019043E-4,3.0,9.735016,-0.11651611,1.1773682,-0.29611206,0.02116394,-0.0332489,0.60313416,-0.27601624,0.68414307,2017-02-13 01:15:40,56.42714759002044
9.453,-0.107,1.147,0.058761597,-0.0036773682,0.008880615,3.0,9.733719,-0.10417175,1.1891022,-0.2539673,0.049697876,-0.05860901,0.6086273,-0.26255798,0.69062805,2017-02-13 01:15:41,57.05559909983844
9.473,-0.117,1.196,-0.014633179,0.028320313,-0.0035247803,3.0,9.735733,-0.10229492,1.1727295,-0.2559662,0.006942749,-0.042251587,0.60472107,-0.27294922,0.6851349,2017-02-13 01:15:42,40.753861418722664
9.473,-0.147,1.127,0.0077209473,6.1035156E-4,-0.0036773682,1.0,9.735382,-0.09814453,1.1759644,-0.28286743,-0.03804016,-0.03186035,0.6066742,-0.2682953,0.6873779,2017-02-13 01:15:43,44.978103276483836
9.483,-0.117,1.157,0.032333374,0.010559082,0.0061035156,1.0,9.735367,-0.09812927,1.1760559,-0.2283783,-0.07891846,0.04977417,0.60432434,-0.2735443,0.68478394,2017-02-13 01:15:44,47.53865168750028
9.502,-0.068,1.167,-0.069488525,0.0027313232,-0.008743286,3.0,9.732849,-0.11967468,1.1947632,-0.26670837,0.03794861,-0.023422241,0.6035309,-0.2735138,0.6858978,2017-02-13 01:15:45,49.071793342833544
9.463,-0.107,1.196,0.017944336,0.011520386,-0.0016937256,3.0,9.735168,-0.110580444,1.1766663,-0.22816467,0.0016174316,0.008300781,0.60676575,-0.2679901,0.687912,2017-02-13 01:15:46,49.98851074729984
9.493,-0.088,1.108,0.23136902,0.009765625,0.034820557,3.0,9.733215,-0.09703064,1.1938629,-0.21260071,0.0016937256,-0.11785889,0.60624695,-0.26756287,0.6881256,2017-02-13 01:15:47,50.0067282372853
9.483,-0.127,1.127,0.032440186,-0.004623413,-0.001083374,3.0,9.736267,-0.10948181,1.167633,-0.28375244,0.027755737,-0.009902954,0.6046753,-0.2735443,0.6849365,2017-02-13 01:15:48,54.2935054891576
9.483,-0.098,1.216,-0.047973633,0.0052337646,-0.009292603,3.0,9.732147,-0.13072205,1.1994019,-0.22514343,-0.0054626465,-0.028045654,0.60357666,-0.27301025,0.68659973,2017-02-13 01:15:49,49.04973534855
9.473,-0.098,1.167,0.12162781,-5.950928E-4,0.013977051,3.0,9.734283,-0.094955444,1.185257,-0.25453186,-0.027618408,-2.746582E-4,0.60572815,-0.269516,0.68688965,2017-02-13 01:15:50,49.996559631863384
9.483,-0.137,1.167,0.030029297,-0.0015716553,-0.0014953613,3.0,9.734329,-0.1020813,1.1843872,-0.29542542,-0.006866455,-0.026657104,0.61135864,-0.25657654,0.69325256,2017-02-13 01:15:51,54.52066447432779
9.453,-0.117,1.167,0.03224182,0.0029754639,0.0065307617,3.0,9.735168,-0.09851074,1.1776886,-0.2690277,0.016799927,-0.033569336,0.6044769,-0.27304077,0.6850891,2017-02-13 01:15:52,52.62070368281991
9.473,-0.068,1.157,-0.15727234,-0.001159668,-0.019332886,3.0,9.735764,-0.10116577,1.1725311,-0.25601196,0.033065796,-0.082901,0.60562134,-0.27098083,0.6860657,2017-02-13 01:15:53,50.15517478566992
9.473,-0.107,1.176,0.0029754639,-0.0058288574,-0.0053863525,3.0,9.73465,-0.09805298,1.1819916,-0.2957611,-0.024520874,-0.037872314,0.6049347,-0.27160645,0.68588257,2017-02-13 01:15:54,54.724778208968644
9.463,-0.156,1.147,0.09901428,3.2043457E-4,0.014572144,3.0,9.733994,-0.117004395,1.1857605,-0.24060059,0.02166748,-0.08251953,0.6085205,-0.26312256,0.69065857,2017-02-13 01:15:55,66.17784510483516
9.463,-0.117,1.186,-0.07571411,0.0034637451,-0.0076141357,3.0,9.730743,-0.10723877,1.2129822,-0.22373962,0.0119018555,-0.041625977,0.6078186,-0.26211548,0.69151306,2017-02-13 01:15:56,57.4518635248276
9.473,-0.029,1.098,-0.08757019,-0.0027313232,-0.017669678,3.0,9.733154,-0.103378296,1.1938324,-0.22615051,0.008041382,-0.07696533,0.6057434,-0.26870728,0.6877594,2017-02-13 01:15:57,63.327868621639425
9.463,-0.117,1.167,0.024932861,-0.007827759,0.0017089844,3.0,9.735428,-0.11959839,1.173645,-0.29652405,0.010635376,-0.015914917,0.6134796,-0.25254822,0.69532776,2017-02-13 01:15:58,62.58516788743154
9.473,-0.107,1.137,-0.010421753,-0.01449585,0.0014801025,3.0,9.732925,-0.10470581,1.1956024,-0.25315857,0.0093688965,-0.037872314,0.6075287,-0.26446533,0.68989563,2017-02-13 01:15:59,46.93737173941023
9.473,-0.127,1.196,-0.08161926,0.0018005371,-0.007675171,1.0,9.735397,-0.095047,1.176117,-0.24201965,0.013336182,0.008834839,0.60931396,-0.2622223,0.6902008,2017-02-13 01:16:00,56.257936576041025
9.512,-0.156,1.137,0.15597534,-3.8146973E-4,0.02168274,1.0,9.732666,-0.0990448,1.1981659,-0.23928833,-0.037139893,-0.04043579,0.6067505,-0.2659912,0.6890564,2017-02-13 01:16:01,51.775154359450525
9.561,-0.166,1.196,0.067214966,-0.0027008057,0.019836426,1.0,9.733994,-0.09791565,1.1874084,-0.29508972,-0.10638428,-0.0024414063,0.6053467,-0.27017212,0.6867218,2017-02-13 01:16:03,53.294319989734575
9.463,-0.088,1.078,-0.03503418,-0.0017547607,-0.0056915283,3.0,9.735825,-0.110443115,1.1712189,-0.29692078,0.0014801025,-0.040725708,0.603302,-0.27622986,0.6837158,2017-02-13 01:16:04,54.80790539302825
9.493,-0.098,1.216,-0.025604248,0.0011291504,3.0517578E-4,3.0,9.733902,-0.10946655,1.1872253,-0.26776123,-0.02671814,-0.02949524,0.6070404,-0.26635742,0.68891907,2017-02-13 01:16:05,53.55426461592606
9.424,-0.078,1.157,0.027648926,0.012832642,0.018814087,3.0,9.735352,-0.1030426,1.1758728,-0.20109558,-0.03314209,0.0090789795,0.6014557,-0.27980042,0.6817627,2017-02-13 01:16:06,59.92996846827576
9.512,-0.176,1.216,0.09159851,0.010192871,0.015380859,3.0,9.73288,-0.10592651,1.1958313,-0.2531128,-0.01663208,0.002746582,0.6063843,-0.26704407,0.6886902,2017-02-13 01:16:07,61.757274267732285
9.424,-0.088,1.117,0.045166016,-0.0037384033,0.0047912598,3.0,9.733795,-0.09867859,1.1889496,-0.26765442,0.003326416,-0.031219482,0.6070709,-0.26612854,0.6887512,2017-02-13 01:16:08,61.56431771357144
9.434,-0.098,1.176,-0.04748535,-0.022598267,-0.00340271,3.0,9.735474,-0.11090088,1.1740875,-0.24209595,0.029174805,-0.05722046,0.604126,-0.27415466,0.6848297,2017-02-13 01:16:09,57.03675199881127
9.473,-0.088,1.157,-0.12669373,0.0013885498,-0.01663208,3.0,9.734192,-0.107177734,1.1850128,-0.2952881,-0.0017700195,-0.06814575,0.6049652,-0.271286,0.68640137,2017-02-13 01:16:10,49.43222066547448
9.434,-0.088,1.186,-0.1783905,-0.007843018,-0.020355225,3.0,9.734467,-0.11024475,1.1824341,-0.2683258,0.014907837,-0.02470398,0.6046295,-0.2722473,0.6859436,2017-02-13 01:16:11,51.911002664563114
9.434,-0.068,1.098,-0.20606995,-0.0027770996,-0.026412964,3.0,9.735916,-0.09698486,1.1716766,-0.24253845,-0.02557373,-3.2043457E-4,0.6067352,-0.26853943,0.68711853,2017-02-13 01:16:12,53.911758613594365
9.483,-0.166,1.225,-0.067718506,0.015838623,-0.008895874,3.0,9.733597,-0.10661316,1.1899567,-0.24021912,-0.015960693,-0.0594635,0.6042023,-0.27249146,0.6858978,2017-02-13 01:16:13,56.31590387220788
9.473,-0.107,1.147,-0.035736084,-0.003829956,-0.004562378,3.0,9.736877,-0.10473633,1.1630096,-0.22987366,-0.004211426,0.062805176,0.60736084,-0.2679596,0.6874237,2017-02-13 01:16:14,58.560614124123816
9.483,-0.137,1.157,-0.023590088,3.5095215E-4,-0.0014801025,3.0,9.734619,-0.099365234,1.1821747,-0.24124146,0.01763916,-0.106170654,0.6064453,-0.268219,0.68759155,2017-02-13 01:16:15,51.04760464865603
9.453,-0.098,1.137,-0.0027770996,-0.00894165,-0.0013122559,3.0,9.735077,-0.11286926,1.1771393,-0.25532532,0.00390625,-0.087509155,0.60494995,-0.27201843,0.6860199,2017-02-13 01:16:16,58.308319996930905
9.473,-0.137,1.265,-0.020706177,0.010131836,0.0010681152,3.0,9.735077,-0.10827637,1.1775513,-0.22808838,-6.713867E-4,-0.15603638,0.6103363,-0.2597046,0.69181824,2017-02-13 01:16:17,54.15832573104393
9.404,-0.107,1.137,-0.055389404,-0.0029907227,-0.0095825195,3.0,9.734665,-0.10523987,1.1813049,-0.33662415,0.009887695,0.0036468506,0.60549927,-0.27041626,0.686676,2017-02-13 01:16:18,47.90739918838621
9.463,-0.117,1.167,0.047561646,0.0015869141,0.008331299,3.0,9.732468,-0.109191895,1.198883,-0.25271606,-0.026992798,-0.027526855,0.60272217,-0.2749176,0.68496704,2017-02-13 01:16:19,54.071217657419616
9.473,-0.117,1.206,0.019836426,9.613037E-4,0.0042419434,3.0,9.733353,-0.09661865,1.1928406,-0.29444885,-0.05319214,-0.07597351,0.6038208,-0.2730713,0.68536377,2017-02-13 01:16:20,56.119421738057085
9.483,-0.107,1.157,-0.006591797,8.392334E-4,-0.0032806396,3.0,9.733948,-0.107940674,1.1869354,-0.24057007,0.012588501,-0.0019683838,0.6036072,-0.27407837,0.68507385,2017-02-13 01:16:21,46.34277235340663
9.493,-0.088,1.167,0.12208557,4.272461E-4,0.011627197,3.0,9.733582,-0.11143494,1.1896515,-0.21295166,0.0024719238,-0.0046844482,0.6017151,-0.27796936,0.6832886,2017-02-13 01:16:22,49.69604243504818
9.463,-0.147,1.147,-0.14793396,0.0051116943,-0.014022827,3.0,9.732544,-0.1232605,1.1969147,-0.2664032,0.041534424,-0.05281067,0.60601807,-0.2677765,0.68888855,2017-02-13 01:16:24,51.84906114735348
9.473,-0.107,1.167,0.009246826,0.0023345947,0.0073547363,3.0,9.734711,-0.101989746,1.1812134,-0.24133301,-0.006958008,-0.037094116,0.60849,-0.26364136,0.6898651,2017-02-13 01:16:25,54.116045394523084
9.483,-0.107,1.186,-0.08111572,-0.0022125244,-0.0066833496,3.0,9.73494,-0.11782837,1.1777954,-0.14622498,-0.018356323,-0.006439209,0.60557556,-0.2705841,0.68688965,2017-02-13 01:16:26,56.77834176072772
9.493,-0.117,1.147,0.06417847,0.006088257,-0.002670288,3.0,9.732925,-0.1131897,1.194809,-0.25315857,0.017837524,0.003753662,0.60220337,-0.27644348,0.6842346,2017-02-13 01:16:27,53.238154026026166
9.453,-0.098,1.147,-0.009414673,0.003768921,5.645752E-4,3.0,9.732422,-0.12289429,1.1979523,-0.29351807,0.027542114,-0.040222168,0.6079407,-0.26327515,0.6910553,2017-02-13 01:16:28,46.75860937958297
9.463,-0.127,1.137,0.13467407,0.0024261475,0.0236969,1.0,9.73555,-0.10697937,1.1738281,-0.28302002,0.052490234,-0.19316101,0.6040802,-0.27426147,0.6846466,2017-02-13 01:16:29,53.39959398765049
9.473,-0.107,1.147,-0.015655518,-0.008148193,-0.007369995,1.0,9.73381,-0.11375427,1.1875,-0.26766968,0.0047912598,-0.043395996,0.6091461,-0.26148987,0.69137573,2017-02-13 01:16:30,49.99421303162955
9.483,-0.088,1.137,-0.039627075,0.0014801025,-0.015472412,1.0,9.734177,-0.10481262,1.1853485,-0.30889893,0.050338745,-0.01399231,0.60861206,-0.26293945,0.6903839,2017-02-13 01:16:31,46.37531542962738
9.502,-0.098,1.157,-0.04815674,-5.187988E-4,-0.004257202,1.0,9.734329,-0.11428833,1.1832428,-0.26818848,0.032577515,-0.052764893,0.6058655,-0.26939392,0.6875,2017-02-13 01:16:32,51.915305875468206
9.483,-0.127,1.196,-0.07418823,-0.0056152344,-0.004196167,1.0,9.734894,-0.087905884,1.1808777,-0.25512695,-0.0074310303,0.0040740967,0.6077728,-0.26531982,0.68862915,2017-02-13 01:16:33,52.73212058432741
9.483,-0.117,1.186,0.10310364,-0.0013122559,0.015975952,1.0,9.734711,-0.10513306,1.1809692,-0.29580688,0.03703308,-0.036865234,0.60809326,-0.26457214,0.6894989,2017-02-13 01:16:34,58.2199206986095
9.463,-0.137,1.196,-0.09742737,0.0028839111,-0.01399231,1.0,9.733536,-0.10620117,1.190445,-0.29463196,-0.01637268,-0.0054779053,0.6041565,-0.27256775,0.68585205,2017-02-13 01:16:35,57.32954375278129
9.483,-0.166,1.147,-0.015853882,0.007507324,-0.0032196045,1.0,9.735168,-0.106414795,1.1769867,-0.2690277,0.011077881,-0.03288269,0.608963,-0.2629547,0.69021606,2017-02-13 01:16:36,48.13986673198714
9.444,-0.117,1.137,0.095199585,-0.010040283,0.012832642,1.0,9.7296295,-0.11138916,1.2214813,-0.27711487,0.016036987,-0.036514282,0.60813904,-0.2605133,0.69259644,2017-02-13 01:16:37,50.770898039808344
9.502,-0.127,1.157,0.05580139,-0.0013275146,0.002090454,1.0,9.735916,-0.10461426,1.171051,-0.2561493,-0.031570435,-0.026947021,0.605011,-0.2724762,0.68540955,2017-02-13 01:16:38,59.056280572364194
9.502,-0.088,1.147,0.1552887,0.0034484863,0.014022827,1.0,9.735443,-0.12243652,1.1731873,-0.26930237,0.040725708,-0.015457153,0.6031494,-0.27635193,0.6840668,2017-02-13 01:16:39,51.02362198107913
9.512,-0.117,1.225,0.13790894,-0.005706787,0.013549805,3.0,9.734024,-0.10336304,1.1867371,-0.2542572,0.008010864,0.02545166,0.60894775,-0.26202393,0.69081116,2017-02-13 01:16:40,47.11525162282886
9.493,-0.117,1.167,0.06173706,0.0020141602,0.010543823,3.0,9.735748,-0.10801697,1.1721191,-0.29684448,-9.3078613E-4,-0.014389038,0.6116791,-0.2570343,0.69291687,2017-02-13 01:16:41,48.24611060777565
9.493,-0.127,1.206,0.018005371,0.0029144287,0.0035858154,3.0,9.734772,-0.098983765,1.180954,-0.32310486,0.0036468506,-0.036834717,0.6097717,-0.2606659,0.69117737,2017-02-13 01:16:42,51.470001395349044
9.473,-0.117,1.206,0.05822754,-0.0021514893,0.008850098,3.0,9.734848,-0.11576843,1.1788483,-0.26870728,0.047668457,-0.021118164,0.6085663,-0.26367188,0.6902008,2017-02-13 01:16:43,52.78499711363129
9.463,-0.117,1.225,0.08555603,0.0061035156,0.013244629,3.0,9.736938,-0.117996216,1.1611481,-0.31166077,-0.045440674,0.010177612,0.608551,-0.26542664,0.68899536,2017-02-13 01:16:44,54.247073379372885
9.453,-0.088,1.176,0.15246582,-0.0035705566,0.025146484,3.0,9.735275,-0.12272644,1.1745605,-0.22827148,0.013763428,-0.07131958,0.60710144,-0.2674408,0.6884918,2017-02-13 01:16:45,50.35406006601189
9.502,-0.127,1.206,0.0046081543,-3.3569336E-4,-0.005126953,3.0,9.733688,-0.12106323,1.1878204,-0.28115845,0.093826294,-0.07095337,0.61013794,-0.25912476,0.69270325,2017-02-13 01:16:47,40.62748862806228
9.493,-0.107,1.137,-0.03225708,-0.003829956,-0.0036773682,3.0,9.733398,-0.12763977,1.1895447,-0.29449463,0.032287598,-0.07267761,0.61380005,-0.25016785,0.6970215,2017-02-13 01:16:48,46.69211188425727
9.453,-0.117,1.167,-0.13908386,0.004714966,-0.024108887,3.0,9.733414,-0.10757446,1.1914063,-0.21278381,0.012237549,-0.060913086,0.60975647,-0.2597046,0.6921387,2017-02-13 01:16:49,55.100561571573834
9.473,-0.088,1.157,0.02619934,-0.0039520264,0.006088257,3.0,9.732971,-0.12307739,1.1934204,-0.2259674,0.01411438,-0.076538086,0.6104431,-0.25785828,0.6934967,2017-02-13 01:16:50,59.26912206590082
9.463,-0.088,1.186,-0.04560852,0.0030670166,0.0012664795,3.0,9.734131,-0.11439514,1.1847839,-0.2679901,0.046295166,0.0137786865,0.6109314,-0.25756836,0.69317627,2017-02-13 01:16:51,54.965466357911346
9.473,-0.107,1.098,-0.029525757,-0.0017089844,-0.002746582,3.0,9.733826,-0.103897095,1.1883087,-0.29492188,0.02217102,-0.016967773,0.60775757,-0.26464844,0.6896057,2017-02-13 01:16:52,57.67554491767622
9.483,-0.117,1.157,0.06752014,-0.004989624,0.0041656494,3.0,9.734695,-0.11244202,1.1804047,-0.2549286,0.003479004,-0.090774536,0.60876465,-0.26307678,0.6904297,2017-02-13 01:16:53,56.47780530296177
9.493,-0.107,1.088,-0.022567749,-0.0032806396,0.0064086914,3.0,9.735107,-0.11734009,1.1764526,-0.28259277,0.008377075,0.049362183,0.60891724,-0.26309204,0.6904602,2017-02-13 01:16:54,60.70172931688841
9.444,-0.137,1.157,-0.028045654,0.0027770996,-0.005584717,3.0,9.732513,-0.10546875,1.1988373,-0.29360962,-0.017105103,0.04058838,0.6095581,-0.2594452,0.6923828,2017-02-13 01:16:55,61.63310629316406
9.453,-0.127,1.186,-0.0028076172,-4.5776367E-5,-0.0052337646,3.0,9.733429,-0.098968506,1.1920013,-0.22642517,0.003616333,-0.04789734,0.60565186,-0.26905823,0.68740845,2017-02-13 01:16:56,59.18611240172638
9.453,-0.156,1.127,-0.053756714,-0.0030212402,-0.0034179688,3.0,9.735428,-0.11218262,1.1743469,-0.255661,0.0032196045,-0.016616821,0.6127014,-0.254364,0.6943207,2017-02-13 01:16:57,61.7379194336512
9.473,-0.137,1.157,-0.078811646,0.0017547607,-0.010345459,3.0,9.735214,-0.10328674,1.1768799,-0.2690735,0.007949829,-0.060012817,0.609848,-0.26089478,0.6910858,2017-02-13 01:16:58,55.738395567890464
9.493,-0.147,1.108,0.010467529,0.0011138916,-0.004180908,3.0,9.733658,-0.12875366,1.1872253,-0.2675171,0.01979065,-0.02949524,0.60531616,-0.27026367,0.6876068,2017-02-13 01:16:59,56.56859291941491
9.463,-0.147,1.147,0.12336731,-0.0054016113,0.015792847,1.0,9.7341,-0.1030426,1.1861725,-0.28157043,0.0077056885,-0.123794556,0.6096039,-0.26055908,0.6914673,2017-02-13 01:17:00,58.580852987017174
9.434,-0.088,1.196,-0.25634766,0.013122559,-0.028182983,1.0,9.732285,-0.12269592,1.1990814,-0.22528076,0.054595947,-0.095840454,0.6061554,-0.26724243,0.68917847,2017-02-13 01:17:01,58.56988696190476
9.463,-0.117,1.167,-0.025009155,-0.0075683594,-0.008071899,1.0,9.734039,-0.110076904,1.1860046,-0.26789856,0.014724731,-0.0010375977,0.6067352,-0.2671814,0.6885071,2017-02-13 01:17:02,61.20055022279736
9.502,-0.078,1.176,0.09007263,0.0043182373,0.007827759,1.0,9.733627,-0.0942688,1.1907349,-0.26748657,0.012557983,-0.03300476,0.60910034,-0.26127625,0.690979,2017-02-13 01:17:03,59.319988839947015
9.502,-0.117,1.167,0.029815674,2.89917E-4,0.008239746,1.0,9.735245,-0.09819031,1.1771545,-0.269104,0.030090332,-0.019424438,0.6060791,-0.269516,0.6867981,2017-02-13 01:17:04,52.79695058623864
9.414,0.0,1.137,0.012939453,-0.0012817383,0.0036773682,1.0,9.736084,-0.11039734,1.1690979,-0.31080627,-0.025787354,-0.011367798,0.6087799,-0.2641449,0.6895752,2017-02-13 01:17:05,51.011627770869424
9.473,-0.156,1.108,-0.030517578,0.0038452148,-0.012359619,3.0,9.73407,-0.094696045,1.187088,-0.25430298,0.012969971,-0.17918396,0.6024475,-0.27661133,0.6833954,2017-02-13 01:17:06,55.38396277660999
9.444,-0.088,1.078,0.1670227,-0.0107421875,0.02658081,3.0,9.738693,-0.10824585,1.1473389,-0.29978943,-7.019043E-4,-0.0032196045,0.6069031,-0.27049255,0.68592834,2017-02-13 01:17:07,55.820909439899644
9.522,-0.098,1.157,-0.107788086,-0.0014953613,-0.011123657,3.0,9.734253,-0.1013031,1.1849976,-0.22724915,0.019577026,-3.0517578E-5,0.60188293,-0.2780304,0.6828308,2017-02-13 01:17:08,63.06649177154732
9.453,-0.107,1.147,0.02104187,0.0016021729,0.0032806396,3.0,9.735397,-0.108291626,1.1749268,-0.2692566,0.012954712,0.010025024,0.6064606,-0.2688446,0.6873932,2017-02-13 01:17:10,62.949871783753366
9.444,-0.117,1.098,-0.10374451,-0.006072998,-0.011154175,1.0,9.733292,-0.093185425,1.1935577,-0.29438782,0.02508545,-0.09031677,0.6113739,-0.2556305,0.69366455,2017-02-13 01:17:11,61.0627612884948
9.424,-0.147,1.098,0.56152344,0.045547485,0.15686035,1.0,9.73642,-0.062683105,1.169754,-0.29753113,-0.059890747,0.015213013,0.6039429,-0.27494812,0.6828308,2017-02-13 01:17:12,57.850342867786146
9.434,-0.098,1.108,-0.0018463135,-3.0517578E-5,-0.0071411133,1.0,9.733887,-0.116989136,1.1865387,-0.25413513,0.03526306,-0.028808594,0.61079407,-0.25772095,0.69322205,2017-02-13 01:17:13,62.37499778215151
9.493,-0.117,1.137,0.1928711,-0.0074157715,0.023788452,1.0,9.734299,-0.10546875,1.1843109,-0.25453186,-0.030731201,6.4086914E-4,0.60816956,-0.26408386,0.68981934,2017-02-13 01:17:14,56.48933355115606
9.453,-0.117,1.157,-0.035736084,0.006439209,-0.011672974,1.0,9.732681,-0.11566162,1.1966095,-0.1984253,0.006713867,-0.10697937,0.61026,-0.2579956,0.69329834,2017-02-13 01:17:15,54.25228470985381
9.512,-0.098,1.147,-0.015319824,0.00390625,-0.0023345947,1.0,9.732819,-0.11199951,1.1957397,-0.25306702,0.016662598,-0.024383545,0.6077118,-0.26402283,0.6903229,2017-02-13 01:17:16,52.2338001870131
9.434,-0.078,1.206,-0.02041626,0.005706787,-0.009979248,1.0,9.7348175,-0.1005249,1.1804962,-0.25505066,0.0051879883,-0.06362915,0.6075287,-0.26591492,0.68870544,2017-02-13 01:17:17,49.74156023040325
9.493,-0.147,1.147,0.092422485,-0.0031433105,0.011810303,1.0,9.733612,-0.116607666,1.1888885,-0.24023438,0.021255493,0.009689331,0.60809326,-0.2638092,0.69039917,2017-02-13 01:17:18,40.481092879335066
9.493,-0.137,1.186,0.00894165,0.0022583008,-0.001663208,1.0,9.734741,-0.1018219,1.1809387,-0.20050049,-0.020751953,-0.064071655,0.6073303,-0.2663269,0.68855286,2017-02-13 01:17:19,42.106932419086036
9.434,-0.117,1.176,-0.005584717,0.008346558,0.0011444092,1.0,9.735107,-0.1051178,1.1776428,-0.26896667,-0.017456055,-0.006286621,0.61001587,-0.26042175,0.691391,2017-02-13 01:17:20,36.045065962280425
9.483,-0.117,1.176,0.1007843,0.005996704,0.012573242,1.0,9.73349,-0.1227417,1.18927,-0.25372314,0.027404785,-0.017929077,0.6110077,-0.2569275,0.69381714,2017-02-13 01:17:21,38.21330090012601
9.444,-0.147,1.176,-0.11016846,-0.002532959,-0.014160156,1.0,9.734543,-0.11135864,1.1817627,-0.2684021,0.016021729,-0.06489563,0.60269165,-0.27656555,0.6838074,2017-02-13 01:17:22,44.89247806428094
9.483,-0.098,1.176,-0.08177185,0.0051727295,-0.010391235,1.0,9.735184,-0.091781616,1.1781006,-0.24180603,-0.071640015,-0.020370483,0.6042175,-0.27355957,0.68463135,2017-02-13 01:17:23,47.21673613085338
9.463,-0.147,1.176,-0.24717712,-0.004760742,-0.028167725,3.0,9.733139,-0.108551025,1.1934967,-0.2533722,0.04043579,-0.0493927,0.6077118,-0.26423645,0.6900635,2017-02-13 01:17:24,53.96205594666887
9.463,-0.137,1.196,0.08610535,-0.0017700195,0.016921997,1.0,9.734955,-0.13214111,1.1761932,-0.24157715,-0.017669678,-0.045700073,0.60650635,-0.26864624,0.6882324,2017-02-13 01:17:25,63.97554159135044
9.453,-0.088,1.176,-0.018600464,-0.0012512207,-0.0030975342,1.0,9.734894,-0.106658936,1.1792908,-0.26875305,-0.0022888184,-0.007949829,0.61076355,-0.2585144,0.69236755,2017-02-13 01:17:26,66.67923961166161
9.473,-0.117,1.157,0.10084534,0.0016021729,0.016937256,1.0,9.734711,-0.10173035,1.1812744,-0.2685547,-0.007217407,-0.06440735,0.60557556,-0.2702484,0.68666077,2017-02-13 01:17:27,62.63291966608945
9.463,-0.117,1.157,-0.02482605,-0.0038757324,-9.1552734E-4,1.0,9.733429,-0.103271484,1.1915588,-0.2672882,-0.01928711,-0.047439575,0.6076813,-0.26449585,0.68974304,2017-02-13 01:17:28,49.73100264899191
9.493,-0.117,1.186,-0.052764893,-8.544922E-4,-0.011367798,1.0,9.735519,-0.11102295,1.1736755,-0.25576782,0.042922974,-0.002319336,0.61021423,-0.26034546,0.6914978,2017-02-13 01:17:29,39.030249068624926
9.444,-0.078,1.127,0.03401184,-0.004852295,-0.008804321,1.0,9.735291,-0.10620117,1.1760254,-0.28277588,0.051727295,0.07702637,0.60554504,-0.270813,0.6863861,2017-02-13 01:17:30,39.186954532530685
9.493,-0.147,1.157,-0.09329224,0.014190674,-0.0090789795,1.0,9.736176,-0.11819458,1.1674805,-0.24279785,-0.0043792725,0.0038452148,0.60731506,-0.26765442,0.6880951,2017-02-13 01:17:32,52.54162948819026
9.434,-0.127,1.117,-0.028076172,1.6784668E-4,-0.0017852783,1.0,9.734665,-0.114746094,1.1804504,-0.24127197,0.005783081,-0.13168335,0.60505676,-0.27146912,0.6864319,2017-02-13 01:17:33,48.352080654258444
9.502,-0.078,1.108,0.030685425,-0.0023345947,0.0023040771,1.0,9.737595,-0.10429382,1.1569519,-0.25784302,-0.01828003,-0.0128479,0.6055145,-0.2726593,0.68496704,2017-02-13 01:17:34,46.58870810870078
9.463,-0.147,1.137,0.08888245,0.002380371,0.014434814,1.0,9.733551,-0.1171875,1.1893005,-0.22654724,0.021850586,-0.004333496,0.6055908,-0.26945496,0.68769836,2017-02-13 01:17:35,52.04655805797066
9.453,-0.127,1.147,0.06428528,0.0061187744,0.009002686,1.0,9.735428,-0.10366821,1.1752014,-0.255661,0.008331299,0.009750366,0.6040039,-0.2743225,0.6845398,2017-02-13 01:17:36,49.00260932038452
9.502,-0.137,1.147,-0.01939392,0.0032653809,0.0020599365,1.0,9.7341,-0.09724426,1.1865692,-0.25434875,0.0019073486,-0.124176025,0.6098175,-0.26002502,0.69155884,2017-02-13 01:17:37,52.18322978691907
9.512,-0.107,1.137,-0.08030701,-0.005584717,-0.010269165,1.0,9.734192,-0.11149597,1.1846161,-0.26805115,0.043395996,0.013946533,0.60723877,-0.26618958,0.6890106,2017-02-13 01:17:38,53.024027708176995
9.473,-0.049,1.127,0.06594849,3.9672852E-4,0.007003784,1.0,9.735306,-0.11872864,1.1747284,-0.29640198,0.023376465,-0.016998291,0.607605,-0.26628113,0.6889343,2017-02-13 01:17:39,50.180057544200665
9.493,-0.117,1.147,0.022521973,-0.004272461,3.0517578E-4,1.0,9.736694,-0.11491394,1.1634979,-0.24331665,0.033203125,-0.0057678223,0.6037445,-0.27597046,0.6838074,2017-02-13 01:17:40,45.03214054812115
9.493,-0.098,1.137,-0.033172607,0.002105713,-0.0050201416,1.0,9.73584,-0.09225464,1.1726685,-0.24246216,-0.016693115,-0.055786133,0.6060333,-0.2700348,0.68626404,2017-02-13 01:17:41,51.58169648938
9.512,-0.107,1.117,-0.15939331,0.02255249,-0.0103302,1.0,9.732101,-0.10429382,1.2022705,-0.23872375,-0.01826477,-0.0036773682,0.60731506,-0.26431274,0.69010925,2017-02-13 01:17:42,61.56415756957871
9.502,-0.127,1.196,-0.024490356,-7.4768066E-4,-7.171631E-4,1.0,9.734589,-0.10610962,1.1818542,-0.26844788,0.024383545,-0.1603241,0.6053009,-0.27082825,0.6865082,2017-02-13 01:17:43,65.11216799621846
9.463,-0.117,1.167,-0.03855896,8.69751E-4,-0.0017852783,1.0,9.73233,-0.103012085,1.2005768,-0.26618958,0.048538208,-0.08370972,0.607666,-0.26365662,0.6903534,2017-02-13 01:17:44,63.94425733062686
9.453,-0.068,1.137,0.020950317,0.01234436,-0.0033569336,1.0,9.734436,-0.11260986,1.1824646,-0.30915833,0.058135986,0.0024871826,0.6087189,-0.26298523,0.69052124,2017-02-13 01:17:45,55.40283816396341
9.502,-0.098,1.167,0.15370178,-0.010650635,0.018829346,1.0,9.734741,-0.106048584,1.1805878,-0.25497437,-0.01651001,-0.022857666,0.6073303,-0.26634216,0.6886749,2017-02-13 01:17:46,52.39938758206742
9.453,-0.078,1.117,0.016525269,0.002532959,0.007461548,1.0,9.732666,-0.112701416,1.1970215,-0.1711731,0.017364502,-0.21635437,0.60772705,-0.26383972,0.6904602,2017-02-13 01:17:47,43.66900549795151
9.463,-0.147,1.157,0.012954712,-0.001083374,2.2888184E-4,1.0,9.732559,-0.1171875,1.197464,-0.33451843,-0.0053710938,-0.080596924,0.6095276,-0.25964355,0.69259644,2017-02-13 01:17:48,50.54855170586913
9.473,-0.117,1.157,0.0024871826,0.0038146973,-0.0024414063,1.0,9.734268,-0.10420227,1.1845856,-0.33624268,0.022476196,3.6621094E-4,0.60435486,-0.2726593,0.6856079,2017-02-13 01:17:49,51.074793172050086
9.473,-0.107,1.147,-0.045196533,-0.008117676,-0.010650635,1.0,9.733246,-0.11665344,1.1919098,-0.2671051,-0.01953125,-0.047790527,0.6047363,-0.27113342,0.68692017,2017-02-13 01:17:50,51.61473708252703
9.473,-0.117,1.137,-0.1773529,-0.009521484,-0.023971558,1.0,9.735123,-0.1161499,1.1764679,-0.26898193,-0.0064086914,-0.07322693,0.61138916,-0.2572937,0.6931305,2017-02-13 01:17:51,47.76450819740599
9.473,-0.088,1.225,-0.1010437,0.006378174,-0.0014190674,1.0,9.732742,-0.114486694,1.1961517,-0.26660156,0.01914978,-0.024810791,0.6078644,-0.2636261,0.69059753,2017-02-13 01:17:53,52.988645273827764
9.444,-0.098,1.108,0.060516357,-2.2888184E-4,0.012268066,1.0,9.734055,-0.11531067,1.1854095,-0.24066162,0.019958496,-0.041305542,0.60765076,-0.26515198,0.68963623,2017-02-13 01:17:54,56.35984894856723
9.385,-0.117,1.167,0.12321472,-0.006881714,0.011779785,1.0,9.733246,-0.09906006,1.1934967,-0.29434204,0.0037231445,0.032318115,0.6053467,-0.26960754,0.68717957,2017-02-13 01:17:55,60.108319369006225
9.483,-0.107,1.167,0.07904053,0.009475708,0.013137817,1.0,9.731537,-0.10209656,1.2070923,-0.25177002,-0.020462036,-0.049362183,0.6122894,-0.2520752,0.6958771,2017-02-13 01:17:56,58.21643299934506
9.493,-0.107,1.186,-0.037719727,-0.0017700195,0.0011291504,1.0,9.73468,-0.10253906,1.1813965,-0.26853943,0.020812988,0.0035552979,0.603775,-0.27423096,0.68470764,2017-02-13 01:17:57,48.76244076318586
9.453,-0.117,1.137,0.07633972,0.0033111572,0.015136719,1.0,9.734299,-0.116378784,1.1832733,-0.2953949,-0.019805908,-0.06640625,0.60672,-0.2674713,0.6884918,2017-02-13 01:17:58,51.56004708801334
9.473,-0.107,1.137,-0.014785767,-0.0047912598,-0.009475708,1.0,9.73436,-0.11050415,1.1833954,-0.2545929,0.028778076,-0.05290222,0.6049347,-0.27148438,0.6863556,2017-02-13 01:17:59,54.379846085176744
9.473,-0.117,1.157,0.13287354,-0.010040283,0.028961182,1.0,9.732773,-0.1116333,1.1962585,-0.23937988,-0.05178833,-0.024917603,0.6092987,-0.26028442,0.6920929,2017-02-13 01:18:00,61.92914889666912
9.463,-0.117,1.137,-0.12831116,-0.008239746,-0.026031494,1.0,9.733597,-0.11553955,1.1890717,-0.3219452,0.047439575,-0.08581543,0.6083679,-0.26313782,0.6906891,2017-02-13 01:18:01,51.38733091820511
9.493,-0.127,1.157,-0.015686035,-0.003326416,-0.0073547363,1.0,9.734879,-0.12010193,1.1781006,-0.2823639,-0.029708862,-0.020370483,0.6076813,-0.2658081,0.6892853,2017-02-13 01:18:02,51.85216040181877
9.434,-0.098,1.186,0.009475708,0.0030517578,4.7302246E-4,1.0,9.733749,-0.09802246,1.1894073,-0.28123474,0.0026855469,-0.07254028,0.6094055,-0.2606964,0.69132996,2017-02-13 01:18:03,56.615638177164186
9.453,-0.098,1.117,0.022354126,-0.0018157959,0.012527466,1.0,9.734161,-0.11164856,1.1847992,-0.30888367,-0.05177307,-0.04069519,0.6093445,-0.2612915,0.6913452,2017-02-13 01:18:04,44.389670447431364
9.463,-0.098,1.167,0.017715454,-0.00730896,0.0014953613,1.0,9.73555,-0.11991882,1.1725159,-0.25579834,0.02458191,-0.014785767,0.6062012,-0.26968384,0.6872711,2017-02-13 01:18:05,51.28775407493709
9.473,-0.078,1.147,-0.09637451,-0.0015869141,-0.015182495,1.0,9.734924,-0.11027527,1.1786804,-0.24154663,0.0149383545,-0.048187256,0.6092377,-0.26213074,0.6907654,2017-02-13 01:18:06,50.22008708793226
9.424,-0.107,1.137,0.14439392,-0.003540039,0.024673462,1.0,9.734116,-0.10986328,1.1854401,-0.2815857,0.014526367,-0.068573,0.6070099,-0.26663208,0.6887665,2017-02-13 01:18:07,56.61428127438065
9.453,-0.156,1.167,0.07383728,-0.004196167,-0.00289917,1.0,9.734512,-0.10055542,1.1829681,-0.26837158,0.032455444,-0.052474976,0.6062622,-0.2685547,0.68748474,2017-02-13 01:18:08,50.37184388802494
9.493,-0.088,1.117,-0.03996277,4.119873E-4,-5.0354004E-4,1.0,9.7341,-0.1098938,1.1855621,-0.2407074,0.014541626,-0.027832031,0.6066284,-0.26745605,0.68836975,2017-02-13 01:18:09,53.508793231591326
9.493,-0.107,1.117,0.029632568,0.003250122,1.2207031E-4,1.0,9.735565,-0.11317444,1.1730957,-0.2285614,0.031463623,0.011856079,0.60972595,-0.26153564,0.69099426,2017-02-13 01:18:10,52.07966043537234
9.453,-0.137,1.225,0.03201294,-0.00630188,0.0041503906,1.0,9.735291,-0.101760864,1.1764679,-0.22828674,-0.020812988,0.06297302,0.60679626,-0.26794434,0.68766785,2017-02-13 01:18:11,52.34142642135552
9.463,-0.098,1.147,0.21080017,0.0043182373,0.024383545,1.0,9.735214,-0.11051941,1.1762695,-0.28269958,-0.03929138,-0.032165527,0.6095123,-0.26171875,0.6909027,2017-02-13 01:18:12,57.330754594000325
9.493,-0.137,1.147,-0.061401367,0.0011901855,-0.0038909912,1.0,9.73439,-0.10902405,1.183197,-0.24101257,0.027297974,0.0017700195,0.60472107,-0.27197266,0.6860657,2017-02-13 01:18:13,53.13118057717148
9.453,-0.137,1.216,0.17427063,0.011962891,0.027252197,1.0,9.735489,-0.10195923,1.1747131,-0.2421112,-0.020599365,-0.0033569336,0.6129761,-0.25369263,0.69433594,2017-02-13 01:18:15,45.3067720381706
9.473,-0.127,1.167,0.045013428,0.0012512207,0.0068511963,1.0,9.7352295,-0.093429565,1.177597,-0.2554779,0.03894043,-0.06071472,0.6075897,-0.26605225,0.6883545,2017-02-13 01:18:16,48.219094195218304
9.434,-0.117,1.186,0.08305359,0.0,0.010559082,1.0,9.73407,-0.106674194,1.1860199,-0.29516602,-0.0022735596,-0.041915894,0.6058655,-0.26913452,0.6874542,2017-02-13 01:18:17,55.49256143453818
9.483,-0.205,1.186,-0.17982483,-0.0021362305,-0.036071777,1.0,9.736877,-0.085861206,1.1644592,-0.120910645,-0.050338745,0.07498169,0.60487366,-0.27337646,0.68421936,2017-02-13 01:18:18,52.897245079822156
9.453,-0.166,1.245,0.13768005,-0.0014190674,0.039642334,1.0,9.733871,-0.104766846,1.1878662,-0.2677307,-0.004180908,-0.030136108,0.6048889,-0.27116394,0.68644714,2017-02-13 01:18:19,54.954992197254455
9.473,-0.127,1.206,-0.057907104,6.1035156E-5,-0.0068206787,1.0,9.734909,-0.099823,1.1797638,-0.2823944,0.031723022,-0.06289673,0.6010437,-0.28030396,0.68148804,2017-02-13 01:18:20,51.97733877521323
9.493,-0.117,1.127,-0.052230835,-0.004211426,-0.011169434,1.0,9.734268,-0.117263794,1.1833649,-0.29537964,0.021911621,-0.025634766,0.6049957,-0.2713318,0.6866455,2017-02-13 01:18:21,47.32210459964796
9.473,-0.098,1.147,0.0753479,0.0053100586,0.007827759,1.0,9.733261,-0.105895996,1.1927643,-0.26712036,0.010559082,-0.116760254,0.6109009,-0.25686646,0.6934509,2017-02-13 01:18:22,45.47200989455399
9.473,-0.088,1.167,-0.014678955,-0.0013580322,-0.006652832,1.0,9.731796,-0.11689758,1.2036133,-0.23841858,-0.0056610107,-0.04588318,0.60772705,-0.26322937,0.69104004,2017-02-13 01:18:23,44.24188060498405
9.463,-0.068,1.108,0.08570862,0.007583618,0.021636963,1.0,9.73201,-0.10684204,1.2028809,-0.25224304,-0.029342651,-0.03152466,0.6071472,-0.26461792,0.6900635,2017-02-13 01:18:24,38.668889645189424
9.493,-0.127,1.127,-0.17141724,0.0030975342,-0.025115967,1.0,9.734558,-0.099365234,1.182663,-0.22755432,-0.077682495,-0.0657959,0.6053772,-0.2705536,0.6864624,2017-02-13 01:18:25,56.77329842377573
9.463,-0.156,1.127,0.042297363,-0.0040283203,7.6293945E-5,1.0,9.7341,-0.11758423,1.1847839,-0.28157043,0.008621216,-0.027053833,0.6072693,-0.26608276,0.6892395,2017-02-13 01:18:26,58.446154973464004
9.434,-0.127,1.176,-0.041885376,-0.0051727295,0.0054779053,1.0,9.733963,-0.115356445,1.1860657,-0.17248535,0.04725647,-0.05557251,0.6028595,-0.27581787,0.68440247,2017-02-13 01:18:27,49.033910551266196
9.453,-0.156,1.216,-0.18185425,0.0039978027,-0.028335571,1.0,9.732849,-0.1126709,1.1955414,-0.19859314,-0.009902954,-0.105911255,0.60964966,-0.25953674,0.6924591,2017-02-13 01:18:28,51.082162797957984
9.473,-0.127,1.225,0.061401367,-0.0030212402,0.015991211,1.0,9.7335205,-0.115371704,1.189743,-0.28100586,-0.048065186,0.036071777,0.6116028,-0.25546265,0.69429016,2017-02-13 01:18:29,55.11268186740379
9.483,-0.117,1.284,-0.03855896,-3.6621094E-4,-0.022720337,1.0,9.736389,-0.11029053,1.166565,-0.28385925,0.0149383545,-0.15866089,0.6053314,-0.27218628,0.6856079,2017-02-13 01:18:30,53.64125438260929
9.444,-0.137,1.137,-7.019043E-4,0.0061035156,0.0036468506,1.0,9.733231,-0.11105347,1.1925507,-0.25346375,-0.025131226,-0.007583618,0.6092224,-0.26083374,0.69174194,2017-02-13 01:18:31,45.72581195658698
9.512,-0.107,1.225,-0.050842285,1.2207031E-4,-0.0035858154,1.0,9.733398,-0.09970093,1.1921539,-0.22639465,-0.0637207,0.047286987,0.60946655,-0.26029968,0.69163513,2017-02-13 01:18:32,48.555367055404886
9.493,-0.147,1.206,0.03919983,-9.0026855E-4,0.0063323975,1.0,9.733734,-0.121414185,1.187439,-0.26759338,-0.028396606,0.011138916,0.6106262,-0.25804138,0.69322205,2017-02-13 01:18:33,48.07816280275355
9.463,-0.068,1.206,0.052825928,-0.008926392,0.0015258789,1.0,9.73468,-0.11418152,1.1803589,-0.3230133,0.018829346,-0.009002686,0.60513306,-0.2713318,0.68647766,2017-02-13 01:18:34,55.87208453468194
9.434,-0.058,1.108,-0.07550049,0.0082092285,-0.007675171,1.0,9.7335205,-0.10449219,1.1907196,-0.2946167,0.036392212,-0.0057525635,0.6052551,-0.2700653,0.68704224,2017-02-13 01:18:35,57.22661234967341
9.483,-0.147,1.176,0.0667572,9.765625E-4,0.0057678223,1.0,9.733795,-0.10801697,1.1881866,-0.26765442,0.012664795,-0.05769348,0.6045532,-0.2718811,0.686203,2017-02-13 01:18:36,60.01374983524916
9.463,-0.137,1.167,0.041137695,-0.008010864,0.012191772,1.0,9.7343445,-0.111328125,1.1833496,-0.29544067,-0.024856567,0.0016021729,0.6040497,-0.27346802,0.68540955,2017-02-13 01:18:38,56.36259138824127
9.463,-0.127,1.147,-0.117111206,0.0019226074,-0.009109497,1.0,9.73584,-0.1030426,1.1717682,-0.2696991,0.03492737,0.026809692,0.6055145,-0.27127075,0.68595886,2017-02-13 01:18:39,52.741325053548955
9.473,-0.098,1.147,-0.07255554,-0.006729126,-0.005722046,1.0,9.734848,-0.08418274,1.181427,-0.29595947,-0.011154175,-0.0236969,0.60246277,-0.2770996,0.6826782,2017-02-13 01:18:40,54.12216811039305
9.483,-0.156,1.147,-0.025558472,0.001739502,-0.009506226,1.0,9.732712,-0.11781311,1.1961517,-0.26657104,0.036087036,-0.024810791,0.6076355,-0.26417542,0.69044495,2017-02-13 01:18:41,52.89296081169493
9.473,-0.166,1.157,0.028686523,-0.0012054443,-1.0681152E-4,1.0,9.735687,-0.11364746,1.1720276,-0.24230957,0.072784424,-0.014297485,0.6073303,-0.26716614,0.68829346,2017-02-13 01:18:42,53.15985011007443
9.473,-0.137,1.137,-0.18769836,0.0074157715,-0.024978638,1.0,9.732941,-0.109451294,1.1950836,-0.23954773,-0.053970337,-0.07821655,0.6057892,-0.26846313,0.6880951,2017-02-13 01:18:43,45.0404560945247
9.483,-0.117,1.137,0.020065308,0.002166748,0.0075531006,1.0,9.734482,-0.11540222,1.1819153,-0.2683258,0.033676147,-0.07865906,0.6064911,-0.26812744,0.68811035,2017-02-13 01:18:44,53.43069177296833
9.463,-0.137,1.137,-0.00920105,5.950928E-4,-0.0087890625,1.0,9.733139,-0.09719849,1.1944427,-0.2806244,-0.011749268,-0.009475708,0.60409546,-0.27233887,0.685791,2017-02-13 01:18:45,55.09111930697449
9.512,-0.137,1.157,0.1133728,0.0039978027,0.029067993,1.0,9.735336,-0.10948181,1.1753845,-0.26919556,5.187988E-4,-0.017654419,0.607193,-0.26716614,0.6882477,2017-02-13 01:18:46,53.18280805983606
9.502,-0.137,1.137,0.027511597,-0.00730896,0.00289917,1.0,9.735718,-0.096710205,1.1733398,-0.22871399,-0.012237549,-0.0019989014,0.6026764,-0.27738953,0.68273926,2017-02-13 01:18:47,50.264111734578535
9.444,-0.078,1.176,0.064971924,0.008529663,0.022399902,1.0,9.734955,-0.115600586,1.177887,-0.2824402,0.03387451,-0.02015686,0.60598755,-0.26965332,0.6872864,2017-02-13 01:18:48,48.9226387070806
9.473,-0.078,1.137,0.020721436,9.0026855E-4,7.019043E-4,1.0,9.734268,-0.10925293,1.1841736,-0.25450134,-0.0541687,-0.06730652,0.6087799,-0.26268005,0.69059753,2017-02-13 01:18:49,54.58821646214973
9.493,-0.127,1.333,0.10128784,0.00630188,0.015991211,1.0,9.73349,-0.1222229,1.1893463,-0.45802307,0.135849,0.13180542,0.60517883,-0.27038574,0.6873932,2017-02-13 01:18:50,54.308099873725475
9.444,-0.117,1.167,0.05265808,0.011520386,0.012954712,1.0,9.735077,-0.13264465,1.1750641,-0.28256226,0.03730774,0.009887695,0.60697937,-0.26765442,0.68870544,2017-02-13 01:18:51,52.32657196545122
9.552,-0.127,1.225,-0.12471008,-0.0052337646,-0.012878418,1.0,9.73526,-0.09954834,1.1768799,-0.25549316,0.004211426,-0.100875854,0.60668945,-0.2681427,0.68751526,2017-02-13 01:18:52,49.77525567306717
9.493,-0.127,1.137,-0.06452942,-0.0035705566,-0.012054443,1.0,9.732162,-0.1156311,1.2007904,-0.26602173,0.006668091,-0.07029724,0.6089783,-0.26060486,0.69218445,2017-02-13 01:18:53,56.547955079377886
9.473,-0.078,1.147,-0.058059692,0.0021362305,-0.008728027,1.0,9.734695,-0.10751343,1.1807861,-0.18684387,0.08026123,-0.03668213,0.6071625,-0.26670837,0.6885376,2017-02-13 01:18:54,54.36637055643783
9.463,-0.088,1.157,0.010375977,0.0018310547,0.0024871826,1.0,9.733658,-0.11831665,1.188385,-0.21302795,0.022964478,-0.044265747,0.6078186,-0.26449585,0.69010925,2017-02-13 01:18:55,50.080551177003485
9.434,-0.117,1.186,0.02178955,0.008010864,0.0029144287,1.0,9.733719,-0.10266113,1.18927,-0.26757813,-0.006286621,-0.031539917,0.60546875,-0.2697296,0.68711853,2017-02-13 01:18:56,56.43854377392762
9.444,-0.107,1.196,0.09642029,-0.0010070801,0.014953613,1.0,9.7332,-0.11054993,1.1927643,-0.23982239,-0.025634766,-0.089523315,0.60943604,-0.26029968,0.6919708,2017-02-13 01:18:57,50.65197280662396
9.552,-0.156,1.176,-0.022415161,5.0354004E-4,2.89917E-4,1.0,9.733627,-0.096832275,1.190567,-0.2810974,0.0014953613,-0.032836914,0.6044769,-0.27182007,0.6859436,2017-02-13 01:18:59,55.00195830065888
9.571,-0.156,1.157,-0.039978027,-0.0012512207,-0.0071868896,1.0,9.73497,-0.09953308,1.179306,-0.20072937,0.004196167,-0.062438965,0.60684204,-0.26757813,0.68785095,2017-02-13 01:19:00,53.486807815797306
9.424,-0.107,1.167,-0.055374146,0.005065918,-0.0065460205,1.0,9.734863,-0.10864258,1.1793823,-0.26872253,0.013305664,-0.03527832,0.59924316,-0.2841797,0.6797638,2017-02-13 01:19:01,53.538369014597926
9.453,-0.088,1.147,0.06321716,-0.0039978027,0.0025177002,1.0,9.732651,-0.11026001,1.1973877,-0.3209839,-0.025924683,-0.05328369,0.5984192,-0.28430176,0.68014526,2017-02-13 01:19:02,48.06071492844873
9.493,-0.098,1.108,-0.032073975,-0.008834839,-0.014892578,1.0,9.7341,-0.0970459,1.1866608,-0.2543335,-0.039138794,-0.0016937256,0.60124207,-0.27928162,0.6820984,2017-02-13 01:19:03,49.67185034294246
9.493,-0.147,1.147,0.10848999,0.0017242432,0.0057373047,1.0,9.734955,-0.09750366,1.1796265,-0.22795105,-0.025054932,-0.021896362,0.60058594,-0.28131104,0.6809082,2017-02-13 01:19:04,48.59351024563842
9.473,-0.137,1.157,0.026489258,5.950928E-4,0.012252808,1.0,9.735794,-0.105041504,1.171936,-0.26965332,0.009689331,-0.05506897,0.6042938,-0.27397156,0.6846924,2017-02-13 01:19:05,49.655830883121396
9.473,-0.078,1.196,-0.04849243,-0.013595581,-1.0681152E-4,1.0,9.733856,-0.1065979,1.1878204,-0.25408936,-0.015960693,-0.030090332,0.6026306,-0.27616882,0.68400574,2017-02-13 01:19:06,55.612703090508774
9.502,-0.088,1.186,0.14285278,0.0046691895,0.015319824,1.0,9.735031,-0.115859985,1.1773376,-0.20077515,0.020523071,0.0076141357,0.6000519,-0.28266907,0.6807251,2017-02-13 01:19:07,52.68434323493209
9.444,-0.107,1.167,-0.20820618,-0.005630493,-0.024459839,1.0,9.733017,-0.11323547,1.194107,-0.25325012,0.01789856,-0.05000305,0.6022949,-0.27630615,0.6842804,2017-02-13 01:19:08,53.82810312406104
9.463,-0.176,1.127,-0.10305786,-0.0011444092,-0.01411438,1.0,9.732864,-0.10557556,1.1960449,-0.30758667,0.023849487,-0.06555176,0.6008301,-0.27931213,0.68255615,2017-02-13 01:19:09,54.83183067312825
9.483,-0.147,1.167,-0.055786133,-9.1552734E-4,-0.0016937256,1.0,9.73497,-0.10534668,1.1787872,-0.2824402,-0.017227173,-0.061920166,0.6007843,-0.28097534,0.68130493,2017-02-13 01:19:10,50.34420923221604
9.463,-0.127,1.235,0.078933716,1.6784668E-4,0.008804321,1.0,9.734314,-0.092300415,1.185318,-0.26817322,-0.043884277,-0.02758789,0.6015625,-0.27871704,0.6822052,2017-02-13 01:19:11,52.94531993561815
9.444,-0.068,1.0,0.024597168,0.002609253,0.0069885254,1.0,9.733963,-0.10757446,1.1868134,-0.26782227,0.025848389,-0.110809326,0.6003113,-0.28126526,0.68141174,2017-02-13 01:19:12,48.48949470982801
9.502,-0.088,1.167,0.059646606,-0.0062561035,0.011199951,1.0,9.734756,-0.11000061,1.1800842,-0.24137878,0.028274536,0.0048675537,0.6000519,-0.2823944,0.68074036,2017-02-13 01:19:13,55.74253433385236
9.483,-0.078,1.108,-0.19091797,0.0048217773,-0.021606445,1.0,9.7365265,-0.098236084,1.1664581,-0.27038574,-0.03794861,-0.049591064,0.6030884,-0.27711487,0.6827698,2017-02-13 01:19:14,56.43144317819181
9.424,-0.068,1.117,-0.045181274,-3.0517578E-4,-0.011688232,1.0,9.733353,-0.11831665,1.1908112,-0.280838,0.022979736,-0.060317993,0.60118103,-0.27902222,0.68299866,2017-02-13 01:19:15,61.70286536343855
9.493,-0.088,1.137,-0.13209534,-0.0016326904,-0.013137817,1.0,9.7341,-0.10746765,1.1856842,-0.2952118,0.025756836,-0.027954102,0.6001587,-0.28167725,0.6811676,2017-02-13 01:19:16,63.32195627025943
9.483,-0.088,1.167,-0.15618896,-0.0022888184,-0.016708374,1.0,9.732666,-0.10498047,1.1976166,-0.21205139,0.009628296,-0.09437561,0.60128784,-0.27816772,0.6831665,2017-02-13 01:19:17,58.44397622191951
9.463,-0.078,1.176,0.14788818,0.008728027,0.034194946,1.0,9.734543,-0.106918335,1.1821289,-0.29563904,-0.002029419,-0.051635742,0.6016846,-0.2787323,0.68258667,2017-02-13 01:19:18,55.722230262602125
9.512,-0.117,1.147,-0.076660156,-0.0040893555,-0.01927185,1.0,9.73616,-0.09989929,1.1693115,-0.2564087,-0.03630066,0.0020141602,0.6003113,-0.28282166,0.67996216,2017-02-13 01:19:19,49.981866492990925
9.493,-0.107,1.176,-0.12815857,0.009994507,-0.013656616,1.0,9.733398,-0.12010193,1.1903229,-0.2672577,0.052001953,-0.08708191,0.6024475,-0.27630615,0.6844177,2017-02-13 01:19:20,47.67091685746594
9.453,-0.107,1.167,-0.05747986,-4.119873E-4,-0.0051116943,1.0,9.731827,-0.11212158,1.2038879,-0.25205994,-0.02406311,-0.03253174,0.6014557,-0.27723694,0.68400574,2017-02-13 01:19:22,50.43911448357938
9.493,-0.127,1.176,0.0012054443,0.0043945313,0.0043792725,1.0,9.7343445,-0.10832214,1.183609,-0.2273407,0.0129852295,-0.012252808,0.602829,-0.27612305,0.6839905,2017-02-13 01:19:23,49.96729214241947
9.444,-0.098,1.206,-0.008346558,-0.0018463135,0.008926392,1.0,9.73497,-0.101867676,1.1790161,-0.2552185,0.0065307617,-0.062149048,0.59783936,-0.2871704,0.67796326,2017-02-13 01:19:24,49.506406939638666
9.463,-0.127,1.196,-0.10542297,-0.005783081,-0.009490967,1.0,9.733856,-0.106292725,1.187851,-0.26771545,-0.029891968,-0.04374695,0.6021576,-0.2771759,0.68348694,2017-02-13 01:19:25,51.07719394877121
9.453,-0.137,1.147,-0.14923096,-4.5776367E-4,-0.028686523,1.0,9.735397,-0.11265564,1.1746216,-0.22839355,-0.009902954,-0.0032653809,0.6008606,-0.2811737,0.68133545,2017-02-13 01:19:26,47.63380040247761
9.473,-0.147,1.186,0.02027893,-0.0024261475,0.005004883,1.0,9.734024,-0.09837341,1.1871185,-0.2678833,-0.037826538,0.011459351,0.6020355,-0.2775116,0.68304443,2017-02-13 01:19:27,61.841928838035
9.512,-0.078,1.186,-0.042755127,-0.0029144287,-0.0066070557,1.0,9.734695,-0.097335815,1.181778,-0.32302856,0.0019836426,-0.07852173,0.5964966,-0.2896881,0.67652893,2017-02-13 01:19:28,62.5379687860169
9.463,-0.107,1.176,0.021743774,2.593994E-4,0.013809204,1.0,9.734268,-0.102371216,1.1848602,-0.24087524,-0.07467651,0.013717651,0.6042023,-0.272995,0.6853943,2017-02-13 01:19:29,59.53046710359096
9.483,-0.117,1.157,0.08811951,-3.2043457E-4,0.00793457,1.0,9.73439,-0.11154175,1.1830139,-0.2682495,0.016189575,-0.06614685,0.5995636,-0.2831726,0.6804657,2017-02-13 01:19:30,52.90652394344996
9.542,-0.117,1.108,0.042373657,-9.1552734E-4,0.0026855469,1.0,9.734299,-0.10687256,1.1841888,-0.2817688,0.0115356445,-0.02645874,0.6016693,-0.27856445,0.68270874,2017-02-13 01:19:31,48.12075144856243
9.453,-0.088,1.196,0.019546509,-0.002609253,-8.087158E-4,1.0,9.734833,-0.10430908,1.1800232,-0.28230286,0.008956909,0.032180786,0.60343933,-0.27508545,0.68429565,2017-02-13 01:19:32,52.413573492325234
9.473,-0.127,1.167,0.0,0.0,0.0,1.0,9.735062,-0.111312866,1.177414,-0.2689209,-0.011260986,-0.060546875,0.6001587,-0.2824402,0.68070984,2017-02-13 01:19:33,49.49091932120291
9.512,-0.078,1.167,-0.013870239,0.004486084,-0.0030670166,1.0,9.734726,-0.103256226,1.1809692,-0.2822113,0.03514099,-0.009613037,0.6026001,-0.27685547,0.6833954,2017-02-13 01:19:34,47.80762609232526
9.424,-0.166,1.117,-0.0035552979,-0.0020446777,-0.0041046143,1.0,9.732773,-0.110443115,1.1963196,-0.29386902,0.05595398,-0.011352539,0.6014557,-0.27793884,0.6834259,2017-02-13 01:19:35,54.59322531013703
9.483,-0.107,1.147,0.17269897,0.0015106201,0.028381348,1.0,9.733963,-0.091049194,1.1882935,-0.25419617,-0.07237244,-0.030563354,0.5970764,-0.2879181,0.67741394,2017-02-13 01:19:36,55.02451621977936
9.463,-0.127,1.147,-0.22087097,-0.002746582,-0.027023315,1.0,9.733459,-0.0960083,1.1919098,-0.22645569,-0.026550293,-0.075042725,0.6009674,-0.27938843,0.68211365,2017-02-13 01:19:37,58.5241987196789
9.444,-0.107,1.137,-0.03855896,0.0051116943,-0.002029419,1.0,9.73465,-0.1076355,1.1812286,-0.20040894,0.012298584,-0.023513794,0.6042938,-0.27311707,0.68540955,2017-02-13 01:19:38,60.63141269408025
