ACC_X,ACC_Y,ACC_Z,GYRO_X,GYRO_Y,GYRO_Z,LIGH_1,GRAV_X,GRAV_Y,GRAV_Z,LINACC_X,LINACC_Y,LINACC_Z,ROTVEC_X,ROTVEC_Y,ROTVEC_Z,TIME,VOICE
6.885724,-0.22984336,7.4124484,0.09049532,0.0010646508,0.0042586033,23.0,5.8384,-0.27359998,7.8745,1.0048,-0.0414,-0.541,0.258242,-0.178384,0.80562,2017-10-28 12:36:38,32.97860321723286
6.531382,-0.45010993,6.5601125,-0.071331605,-0.06174975,-0.0031939526,47.0,6.6966996,-0.33089998,7.1562996,-0.0357,-0.1217,-0.3362,0.289851,-0.226078,0.76064,2017-10-28 12:36:39,45.62733758100112
6.5026517,-0.47884035,7.335834,0.0,0.09262462,0.043650683,46.0,6.4641,-0.7831,7.3329,-0.1964,0.1616,-0.099999994,0.249718,-0.252515,0.732498,2017-10-28 12:36:40,43.9123727577351
6.5505357,-0.5746084,7.3549876,0.005323254,-0.134146,-0.07878416,28.0,6.5309,-0.6799,7.2837996,0.15869999,0.1765,0.29189998,0.249604,-0.257534,0.715583,2017-10-28 12:36:41,39.42142818505242
6.4260373,-0.6703765,6.6750345,-0.057491146,-0.06813765,0.030874874,23.0,6.7111998,-0.6191,7.1235,-0.14819999,-0.031,-0.087799996,0.256575,-0.266396,0.70326,2017-10-28 12:36:42,36.84643141068723
6.742072,-0.4405331,7.192182,0.072396256,0.09049532,0.020228365,25.0,6.7014,-0.6659,7.1285996,-0.109,0.093899995,-0.2105,0.25237,-0.269908,0.69864297,2017-10-28 12:36:43,39.0368757880237
6.196194,-0.6703765,6.8091097,-0.07452556,-0.11178834,0.029810224,21.0,6.6204,-0.60389996,7.2093,-0.1461,-0.046099998,0.1504,0.245334,-0.268767,0.687852,2017-10-28 12:36:44,38.45849552566261
6.694188,-0.49799395,7.4124484,0.035133477,0.006387905,-0.06600835,33.0,6.6528997,-0.6361,7.1766,0.1255,0.1525,0.0162,0.245834,-0.271401,0.687511,2017-10-28 12:36:45,36.918587504915656
6.339846,-0.59376204,6.789956,-0.072396256,-0.0606851,-0.009581857,43.0,6.6684,-0.50659996,7.1724997,-0.115399994,-0.0645,0.039899997,0.249445,-0.269424,0.682069,2017-10-28 12:36:46,37.08413197926018
6.5122285,-0.51714754,7.1347213,0.056426495,0.09688323,0.05003859,35.0,6.6028,-0.5891,7.2267,-0.1187,0.0469,-0.4847,0.242343,-0.268944,0.683242,2017-10-28 12:36:47,36.88641418060317
4.510676,-0.8331822,8.159439,-0.022357667,0.9869313,0.1863139,41.0,5.3538,-0.6149,8.1931,-0.12109999,-0.8393,-0.662,0.188532,-0.216145,0.707983,2017-10-28 12:36:48,37.6873508069527
0.80445176,0.45968673,9.490616,-0.10859439,-0.0021293017,0.09794788,41.0,1.6185,1.2476,9.5913,-0.64,0.9255,-1.4063,0.102356,-0.02237,0.639849,2017-10-28 12:36:49,38.319330309969
0.11492168,-0.019153614,9.615114,-0.0042586033,-0.0031939526,-0.0010646508,25.0,0.1487,0.173,9.8039,-0.0499,-0.1918,-0.1273,0.011606,8.26E-4,0.703908,2017-10-28 12:36:50,69.93586609787283
0.11492168,-0.019153614,9.595961,-0.0021293017,0.0021293017,0.0,33.0,0.1281,0.116799995,9.8050995,-0.0098,-0.1261,-0.1677,0.0095379995,3.1E-4,0.720053,2017-10-28 12:36:51,36.6429667055761
0.10534488,-0.019153614,9.615114,-0.0021293017,0.0,0.0010646508,35.0,0.18419999,0.2953,9.8004,-0.072399996,-0.29889998,0.0150999995,0.018756,0.006054,0.747492,2017-10-28 12:36:52,35.331424517681484
0.11492168,-0.019153614,9.691729,-0.0021293017,0.0,-0.0010646508,35.0,0.1391,0.0809,9.8053,-0.0189,-0.0893,0.0495,0.008078,-0.001451,0.761561,2017-10-28 12:36:53,36.25882602618243
0.11492168,-0.02873042,9.720459,-0.0042586033,0.0,-0.0010646508,35.0,0.1143,9.0E-4,9.8059,-0.005,-8.0E-4,0.029399998,0.00447,-0.003742,0.761711,2017-10-28 12:36:54,37.00253346558189
0.12449849,-0.019153614,9.730036,-0.0021293017,0.0,0.0,35.0,0.1116,-0.009099999,9.806,0.0072,-0.0105,0.0391,0.004034,-0.004046,0.76171297,2017-10-28 12:36:55,36.552910896328925
0.11492168,-0.019153614,9.739613,-0.0010646508,0.0010646508,0.0,35.0,0.1122,-0.0116,9.806,0.0064,0.0016999999,0.0195,0.003973,-0.004162,0.761714,2017-10-28 12:36:56,40.24693939537363
0.10534488,-0.019153614,9.749189,-0.0021293017,-0.0021293017,0.0,33.0,0.1129,-0.0122,9.8059,-0.0044,0.0023,0.0,0.003982,-0.004208,0.761714,2017-10-28 12:36:57,39.01582866903942
0.11492168,-0.019153614,9.749189,0.0010646508,-0.0010646508,-0.0021293017,28.0,0.1105,-0.0106,9.806,-0.0019999999,8.0E-4,0.0,0.003939,-0.0040659998,0.761714,2017-10-28 12:36:58,38.224392243659
0.11492168,-0.02873042,9.758766,0.0,-0.0010646508,0.0,40.0,0.1091,-0.0106999995,9.806,-4.9999997E-4,-0.0089,0.0196,0.003882,-0.004021,0.761714,2017-10-28 12:36:59,35.72085983160113
0.12449849,-0.019153614,9.739613,-0.0010646508,-0.0010646508,-0.0021293017,25.0,0.1121,-0.013599999,9.8059,-0.0037,-0.006,-0.019399999,0.003906,-0.004236,0.76171297,2017-10-28 12:37:00,36.88502273392857
0.11492168,-0.02873042,9.739613,0.0,-0.0010646508,0.0010646508,25.0,0.1107,-0.0131,9.806,-0.0021,0.0032,0.0,0.0038669999,-0.004171,0.76171297,2017-10-28 12:37:01,39.606406507259116
0.11492168,-0.02873042,9.749189,0.0010646508,-0.0021293017,0.0010646508,24.0,0.1085,-0.0134,9.806,0.0,0.0034999999,0.0098,0.00377,-0.00411,0.76171297,2017-10-28 12:37:02,39.99941162684006
0.11492168,-0.019153614,9.739613,0.0,0.0,0.0010646508,24.0,0.109,-0.014599999,9.806,-2.9999999E-4,-0.005,1.0E-4,0.003749,-0.004169,0.76171297,2017-10-28 12:37:03,40.44365792181112
0.11492168,-0.019153614,9.739613,0.0010646508,0.0010646508,-0.0021293017,25.0,0.1113,-0.0127,9.806,0.0071,0.0028,0.0,0.003902,-0.004173,0.761711,2017-10-28 12:37:04,36.57666150457283
0.12449849,-0.019153614,9.730036,0.0010646508,-0.0010646508,0.0010646508,25.0,0.1104,-0.0156,9.806,0.0079,-0.0039999997,-0.0095999995,0.00377,-0.004257,0.76171,2017-10-28 12:37:05,35.17241272092713
0.12449849,-0.02873042,9.739613,0.0010646508,-0.0010646508,0.0,27.0,0.1151,-0.015199999,9.8059,0.0032,-0.0044,-0.0196,0.003967,-0.004395,0.761708,2017-10-28 12:37:06,34.671037871296015
0.12449849,-0.019153614,9.739613,0.0,-0.0031939526,0.0,27.0,0.1096,-0.0116,9.806,-9.999999E-4,0.0115,-2.0E-4,0.003874,-0.004075,0.761708,2017-10-28 12:37:07,35.00556132891311
0.12449849,-0.02873042,9.739613,0.0,-0.0021293017,0.0021293017,25.0,0.1108,-0.0138,9.806,0.0075999997,-0.0058,0.0098,0.003848,-0.004202,0.761707,2017-10-28 12:37:08,34.48071221695068
0.10534488,-0.038307227,10.055647,0.0021293017,0.084107414,0.0,31.0,0.111899994,-0.017199999,9.8059,-0.1994,0.016999999,0.4707,0.00378,-0.004367,0.761706,2017-10-28 12:37:09,33.80461397917979
0.11492168,-0.02873042,9.749189,0.0,-0.0031939526,-0.0010646508,20.0,0.1872,0.13949999,9.8038,-0.078,-0.1582,-0.0075999997,0.011894,5.61E-4,0.828954,2017-10-28 12:37:10,34.615836346842535
0.12449849,-0.019153614,9.730036,0.0010646508,0.0,0.0010646508,27.0,0.1819,0.1082,9.804299,-0.062699996,-0.117199995,0.0015,0.010786,-4.11E-4,0.839142,2017-10-28 12:37:11,35.59376893534285
0.12449849,-0.02873042,9.749189,0.0010646508,-0.0031939526,-0.0010646508,24.0,0.1209,-0.0026999998,9.8059,0.0072999997,-0.0169,1.0E-4,0.0051059998,-0.003462,0.840048,2017-10-28 12:37:12,33.74898925715607
0.11492168,-0.019153614,9.739613,0.0010646508,-0.0021293017,0.0010646508,24.0,0.1153,-0.0157,9.8059,0.0030999999,0.0156,0.0,0.004502,-0.003865,0.840059,2017-10-28 12:37:13,36.099712189234
0.12449849,-0.02873042,9.739613,0.0010646508,-0.0010646508,0.0,26.0,0.1127,-0.0138,9.8059,-0.0041,-0.0058,0.0,0.004414,-0.003724,0.840059,2017-10-28 12:37:14,33.75331766226917
0.11492168,-0.019153614,9.739613,0.0010646508,-0.0042586033,0.0,19.0,0.111099996,-0.0175,9.806,-0.0023999999,0.0075,0.0098,0.004285,-0.00379,0.84006,2017-10-28 12:37:15,35.04617598993045
0.12449849,-0.038307227,9.739613,0.0,-0.0021293017,-0.0010646508,24.0,0.11449999,-0.0177,9.8059,0.0037999998,-0.0117999995,0.0,0.004392,-0.003921,0.840059,2017-10-28 12:37:16,34.171999146340575
0.06703765,-0.019153614,9.730036,0.0021293017,-0.007452556,-0.0010646508,6.0,0.1231,0.0762,9.8055,-0.0536,-0.0953,-0.0289,0.007386,2.0E-5,0.851693,2017-10-28 12:37:17,35.30701441149298
0.095768064,-0.019153614,9.758766,0.0021293017,0.022357667,-0.0021293017,8.0,0.087699994,-0.104899995,9.8056,0.0207,0.094399996,-0.078099996,0.001023,-0.006899,0.852962,2017-10-28 12:37:18,43.011351636241486
0.12449849,-0.019153614,9.682152,0.008517207,0.0042586033,0.0,6.0,0.0677,-0.23689999,9.8035,0.050499998,0.22469999,-0.046499997,-0.00402,-0.011906,0.822914,2017-10-28 12:37:19,56.6907164885211
0.10534488,-0.02873042,9.624691,0.0,-0.005323254,-0.0010646508,9.0,0.063999996,-0.1929,9.8045,0.054199997,0.1714,-0.1162,-0.003121,-0.009883,0.810106,2017-10-28 12:37:20,59.66998242114254
0.10534488,-0.02873042,9.595961,0.0,-0.0021293017,-0.0010646508,33.0,0.079799995,-0.1506,9.8050995,0.0298,0.1081,-0.0089,-0.001445,-0.008572,0.793528,2017-10-28 12:37:21,42.09343742750137
0.11492168,-0.038307227,9.586384,0.0010646508,-0.0031939526,-0.0010646508,38.0,0.0929,-0.109,9.8056,0.017099999,0.0967,-0.0092,2.44E-4,-0.007299,0.782438,2017-10-28 12:37:22,64.010848912868
0.11492168,-0.019153614,9.56723,0.0,0.0,0.0,38.0,0.097799994,-0.0821,9.8057995,0.012399999,0.070199996,-0.0095999995,0.001222,-0.006396,0.775255,2017-10-28 12:37:24,58.14362189685247
0.10534488,-0.019153614,9.56723,0.0010646508,0.0021293017,-0.0021293017,39.0,0.104399994,-0.0234,9.806,-0.0037999998,0.012999999,0.0,0.003372,-0.004294,0.774787,2017-10-28 12:37:25,56.17656181728702
0.11492168,-0.009576807,9.586384,0.0010646508,-0.0031939526,0.0010646508,35.0,0.105799995,-0.0148,9.806,0.0045,0.0046,-0.0098,0.003704,-0.003998,0.774778,2017-10-28 12:37:26,58.38417162129129
0.10534488,-0.038307227,9.586384,0.0,-0.0010646508,-0.0010646508,33.0,0.1042,-0.011399999,9.806,-0.0037,-0.0084,0.0098,0.003747,-0.003812,0.774779,2017-10-28 12:37:27,55.408998683708404
0.11492168,-0.019153614,9.662998,-0.0021293017,0.0,0.0010646508,35.0,0.1072,-0.0109,9.806,-0.0173,-0.0088,0.009699999,0.003884,-0.003891,0.774778,2017-10-28 12:37:28,66.02164349083307
0.11492168,-0.019153614,9.701305,0.0010646508,-0.0021293017,0.0010646508,35.0,0.1064,-0.012,9.806,0.0025,0.011899999,0.009699999,0.003815,-0.003906,0.774779,2017-10-28 12:37:29,68.3129749984561
0.11492168,-0.02873042,9.787497,-0.0021293017,0.0010646508,0.0,35.0,0.1051,-0.0131,9.806,-0.0061,0.0032,0.0,0.003727,-0.003908,0.774779,2017-10-28 12:37:30,73.80578536353765
0.11492168,-0.019153614,9.739613,-0.0010646508,-0.0010646508,-0.0021293017,35.0,0.1052,-0.012499999,9.806,-0.0064999997,-0.0069999998,-0.009699999,0.00375,-0.003889,0.774779,2017-10-28 12:37:31,67.02714335710337
0.11492168,-0.009576807,9.730036,0.0,0.0,0.0,35.0,0.1043,-0.0115,9.806,0.0042,0.0016,0.0,0.003749,-0.003821,0.774778,2017-10-28 12:37:32,58.03497643214406
0.10534488,-0.02873042,9.739613,0.0,-0.0010646508,0.0,33.0,0.101799995,-0.014099999,9.8061,-0.0030999999,0.0042,0.0098,0.00357,-0.003842,0.774778,2017-10-28 12:37:33,54.69395602341755
0.12449849,-0.009576807,9.739613,0.0,-0.0010646508,0.0,11.0,0.107,-0.0266,9.806,-0.0376,-0.051999997,0.26479998,0.003371,-0.004502,0.774779,2017-10-28 12:37:34,56.81696620391321
0.10534488,-0.019153614,9.739613,-0.0010646508,-0.0021293017,0.0010646508,37.0,0.1041,-0.016999999,9.806,0.0044,-0.0026999998,0.0098,0.003564,-0.004028,0.774779,2017-10-28 12:37:35,52.236078099492254
0.10534488,-0.02873042,9.739613,-0.0010646508,0.0,-0.0010646508,28.0,0.1091,-0.0178,9.806,0.009099999,-0.0018,-0.009699999,0.003735,-0.004225,0.77478,2017-10-28 12:37:36,43.202642919405875
0.11492168,-0.009576807,9.749189,0.0010646508,-0.0021293017,0.0,33.0,0.1063,-0.0156,9.806,0.0023,-0.0039999997,0.0,0.003694,-0.004045,0.774779,2017-10-28 12:37:37,64.0672079952817
0.11492168,-0.019153614,9.730036,0.0010646508,0.0,0.0,35.0,0.1056,-0.0134,9.806,0.0030999999,-0.015999999,0.0,0.00376,-0.003935,0.774778,2017-10-28 12:37:38,62.09016640092399
0.10534488,-0.02873042,9.720459,0.0010646508,-0.0021293017,0.0021293017,35.0,0.1096,-0.017099999,9.806,-0.0106,-0.0026,0.0,0.003763,-0.004158,0.774776,2017-10-28 12:37:39,59.6802947466393
0.12449849,-0.02873042,9.720459,0.0010646508,-0.0010646508,0.0,33.0,0.106199995,-0.0139,9.806,0.0123,0.0039,0.0,0.003748,-0.0039749998,0.774776,2017-10-28 12:37:40,55.76685472488694
0.11492168,-0.019153614,9.749189,0.0010646508,-0.0031939526,-0.0031939526,35.0,0.107599996,-0.014699999,9.806,-0.008599999,0.0047999998,-0.0098,0.003774,-0.004052,0.77477497,2017-10-28 12:37:41,63.57101561645591
0.11492168,-0.019153614,9.720459,0.0010646508,0.0010646508,-0.0010646508,35.0,0.1042,-0.0144,9.806,-0.0053,0.0045,0.0,0.003652,-0.003931,0.77477497,2017-10-28 12:37:42,69.03139020311988
0.12449849,-0.019153614,9.701305,0.0,-0.0031939526,0.0,35.0,0.1072,-0.015899999,9.806,0.0016,-0.0037,-0.0197,0.00372,-0.004086,0.77477497,2017-10-28 12:37:43,56.37720574720559
0.11492168,-0.02873042,9.730036,0.0010646508,0.0010646508,0.0010646508,35.0,0.1069,-0.0155,9.806,0.0019999999,0.0055,0.009699999,0.003723,-0.004058,0.77477497,2017-10-28 12:37:44,59.287207625616986
0.10534488,-0.038307227,9.720459,-0.0010646508,-0.0010646508,0.0010646508,41.0,0.103999995,-0.018299999,9.806,0.0047,-0.0112,0.0,0.003519,-0.00408,0.77477497,2017-10-28 12:37:45,57.47833771394954
0.10534488,-0.02873042,9.730036,0.0010646508,0.0,-0.0010646508,35.0,0.1061,-0.015899999,9.806,-0.0071,-0.0037999998,0.0098,0.003679,-0.004051,0.774774,2017-10-28 12:37:46,63.852655639762936
0.11492168,-0.02873042,9.730036,-0.0021293017,-0.0021293017,0.0,37.0,0.1073,-0.0177,9.806,-0.0084,-0.0019999999,0.0098,0.003667,-0.00416,0.774773,2017-10-28 12:37:47,62.99353678744563
0.12449849,-0.047884032,9.720459,0.0,-0.0010646508,0.0,35.0,0.106699996,-0.015999999,9.806,0.0117,0.006,-0.0195,0.003701,-0.004073,0.774772,2017-10-28 12:37:48,52.58275001378627
0.10534488,-0.02873042,9.720459,0.0010646508,-0.0021293017,-0.0010646508,35.0,0.106199995,-0.0176,9.806,0.0026,-0.0021,0.0195,0.003627,-0.004122,0.774773,2017-10-28 12:37:49,62.16439023422452
0.11492168,-0.02873042,9.720459,0.0,-0.0021293017,-0.0010646508,37.0,0.1074,-0.0166,9.806,0.0013,-0.0030999999,0.0,0.003709,-0.004121,0.774772,2017-10-28 12:37:50,69.04489921604294
0.12449849,-0.038307227,9.730036,-0.0010646508,0.0,-0.0010646508,35.0,0.106699996,-0.0179,9.806,0.0018,-0.0116,-0.009699999,0.00364,-0.00415,0.774772,2017-10-28 12:37:51,60.44639375430397
0.12449849,-0.02873042,9.749189,-0.0010646508,-0.0010646508,0.0,33.0,0.1059,-0.018199999,9.806,0.0026999998,0.0082,0.0,0.003598,-0.004134,0.774771,2017-10-28 12:37:52,62.74171136695685
0.10534488,-0.02873042,9.720459,0.0,-0.0010646508,0.0,47.0,0.1051,-0.017099999,9.806,0.0034999999,0.0071,0.0,0.003601,-0.004064,0.77477,2017-10-28 12:37:53,66.62882581964789
0.10534488,0.0,9.739613,0.0,-0.0021293017,0.0,33.0,0.1046,-0.019199999,9.806,0.0039999997,-4.9999997E-4,-0.0098,0.003511,-0.004132,0.77477,2017-10-28 12:37:54,56.054917314221186
0.11492168,-0.02873042,9.701305,0.0010646508,0.0,-0.0010646508,35.0,0.105,-0.0165,9.806,0.0037,-0.0032,0.0,0.003617,-0.004038,0.774768,2017-10-28 12:37:55,57.027019718246095
0.11492168,-0.038307227,9.710882,0.0,-0.0010646508,0.0010646508,32.0,0.1047,-0.0164,9.806,0.0039999997,0.0162,0.0,0.003607,-0.004024,0.774768,2017-10-28 12:37:56,66.01014719517192
0.11492168,-0.019153614,9.730036,0.0010646508,0.0,-0.0010646508,38.0,0.1034,-0.017099999,9.806,0.0149,0.0071,-0.0098,0.003536,-0.004012,0.774769,2017-10-28 12:37:57,63.65055410187225
0.10534488,-0.02873042,9.730036,0.0,-0.0021293017,-0.0010646508,28.0,0.1048,-0.0177,9.806,0.0037999998,0.0077,-0.0098,0.003572,-0.00408,0.774768,2017-10-28 12:37:58,45.28314631096687
0.11492168,-0.019153614,9.730036,0.0010646508,-0.0010646508,-0.0021293017,35.0,0.1042,-0.020299999,9.806,0.0045,4.9999997E-4,0.0195,0.003461,-0.004164,0.774769,2017-10-28 12:37:59,62.26811535145359
0.11492168,-0.019153614,9.739613,0.0,-0.0031939526,0.0,33.0,0.1029,-0.0163,9.806,0.0056999996,0.0064,0.0,0.003539,-0.003964,0.774768,2017-10-28 12:38:00,65.04006628962944
0.11492168,-0.019153614,9.730036,-0.0010646508,-0.0021293017,0.0,35.0,0.104399994,-0.0188,9.806,0.0139999995,0.0089,-0.0098,0.003516,-0.00411,0.774767,2017-10-28 12:38:01,58.22305450688927
0.10534488,-0.02873042,9.739613,0.0021293017,-0.0010646508,0.0021293017,38.0,0.1055,-0.0173,9.806,0.003,-0.0023,0.0,0.003609,-0.004087,0.77476597,2017-10-28 12:38:02,60.91526015399652
0.11492168,-0.02873042,9.730036,0.0010646508,-0.0031939526,0.0,32.0,0.10349999,-0.0169,9.806,-0.0049,0.0069999998,0.0,0.003545,-0.004009,0.77476597,2017-10-28 12:38:03,43.16880465447174
0.11492168,-0.02873042,9.720459,0.0021293017,-0.0021293017,-0.0010646508,35.0,0.103,-0.018,9.806,0.0055,0.0081,0.0,0.003528,-0.004023,0.77476597,2017-10-28 12:38:04,61.06101265358538
0.11492168,-0.019153614,9.739613,0.0010646508,-0.0010646508,-0.0010646508,33.0,0.104899995,-0.0191,9.806,0.0036,-5.9999997E-4,-0.0195,0.003566,-0.004117,0.774765,2017-10-28 12:38:05,63.17200739390928
0.10534488,-0.02873042,9.730036,0.0010646508,0.0,-0.0021293017,25.0,0.106599994,-0.0155,9.806,-0.0075999997,0.0055,0.0195,0.003712,-0.00405,0.774761,2017-10-28 12:38:06,59.71103646826033
0.10534488,-0.019153614,9.720459,-0.0010646508,-0.0021293017,0.0,32.0,0.103,-0.0176,9.806,-0.0039999997,-0.0021,0.0195,0.003502,-0.004018,0.774762,2017-10-28 12:38:07,46.13570352529115
0.11492168,-0.02873042,9.739613,0.0021293017,0.0,-0.0010646508,37.0,0.107,-0.0197,9.806,0.0014,0.0,-0.009699999,0.0035919999,-0.004228,0.774761,2017-10-28 12:38:08,62.02657025505155
0.10534488,-0.02873042,9.730036,0.0021293017,-0.0010646508,-0.0010646508,32.0,0.10349999,-0.018,9.806,0.0050999997,-0.0016999999,0.0,0.003509,-0.004049,0.77476,2017-10-28 12:38:09,62.16006021717632
0.12449849,-0.02873042,9.730036,0.0021293017,-0.0031939526,-0.0010646508,32.0,0.1069,-0.018199999,9.806,0.0018999999,-0.0014,0.009699999,0.003633,-0.004169,0.774758,2017-10-28 12:38:10,63.78824428063787
0.11492168,-0.02873042,9.730036,0.0021293017,0.0,0.0,25.0,0.1041,-0.015299999,9.806,-0.0053,0.0053999997,0.0,0.00362,-0.003965,0.774757,2017-10-28 12:38:11,66.5877321095875
0.11492168,-0.038307227,9.749189,0.0021293017,-0.0010646508,-0.0010646508,35.0,0.1069,-0.0176,9.806,-0.007999999,-0.0021,0.0098,0.003656,-0.004142,0.774758,2017-10-28 12:38:12,37.024580021179084
0.10534488,-0.019153614,9.739613,-0.0010646508,-0.0021293017,0.0,41.0,0.106,-0.0188,9.806,0.0023999999,-8.0E-4,-0.0196,0.00358,-0.004164,0.774757,2017-10-28 12:38:13,45.6705262605789
0.10534488,-0.02873042,9.749189,-0.0010646508,-0.0021293017,0.0,35.0,0.1927,0.092099994,9.804299,-0.1033,-0.101399995,-0.1355,0.011096,-5.78E-4,0.853876,2017-10-28 12:38:14,59.983493540400154
-2.9113493,1.0342951,6.799533,-0.034068827,0.057491146,-0.36943385,27.0,-0.0391,0.1452,9.8054,-2.3637,0.41459998,-2.608,0.00416,0.004385,0.789212,2017-10-28 12:38:15,57.89517606874174
0.25857377,0.019153614,8.8777,-0.11391764,0.18737854,0.0010646508,24.0,0.1118,0.107,9.8054,-0.17,-0.1358,0.71639997,0.01291,3.68E-4,0.851849,2017-10-28 12:38:16,56.39506360774773
0.095768064,0.0,9.720459,0.0010646508,-0.0042586033,-0.0010646508,37.0,0.16679999,-0.5722,9.7885,-0.0579,0.5688,0.0174,-0.015389,-0.028363,0.718012,2017-10-28 12:38:17,67.49378887298202
0.076614454,0.0,9.710882,0.0010646508,-0.0021293017,-0.0010646508,27.0,0.17009999,-0.4344,9.7955,-0.0611,0.4314,7.0E-4,-0.01083,-0.021188,0.662863,2017-10-28 12:38:18,66.04637308605429
0.10534488,0.0,9.720459,0.0010646508,-0.0042586033,-0.0010646508,25.0,0.137,-0.1933,9.8036995,-0.037699997,0.1915,-0.0072999997,-0.003184,-0.011655,0.634492,2017-10-28 12:38:19,62.06680239048531
0.10534488,0.0,9.710882,0.0010646508,0.0,0.0,25.0,0.1019,-0.021699999,9.806,-0.0029,0.021499999,0.0,0.002431,-0.004726,0.633129,2017-10-28 12:38:20,57.52891493480625
0.10534488,0.0,9.739613,0.0,-0.0042586033,-0.0010646508,27.0,0.0959,-0.0023,9.8061,0.0028,0.0022,-0.0196,0.003005,-0.00386,0.633111,2017-10-28 12:38:21,49.09382621139969
0.10534488,0.0,9.730036,0.0010646508,-0.0021293017,0.0,25.0,0.096599996,-2.0E-4,9.8061,0.0021,2.0E-4,0.0,0.003112,-0.003823,0.633112,2017-10-28 12:38:22,61.10911015095858
0.095768064,0.0,9.749189,-0.0010646508,-0.0010646508,-0.0010646508,27.0,0.0949,0.0,9.8061,0.0037999998,0.0,0.0,0.003047,-0.003725,0.633112,2017-10-28 12:38:23,51.96515366717166
0.10534488,0.0,9.739613,0.0,-0.0021293017,0.0,27.0,0.0985,0.0,9.8061,-0.0095999995,0.0,0.0,0.003156,-0.003857,0.633111,2017-10-28 12:38:24,62.717294669353414
0.11492168,0.0,9.768343,0.0021293017,-0.0010646508,0.0021293017,25.0,0.0984,0.0,9.8061,-0.0095,0.0,-0.0098,0.00318,-0.003887,0.633111,2017-10-28 12:38:25,57.73506080567989
0.11492168,0.0,9.758766,0.0021293017,-0.0021293017,0.0,27.0,0.1025,0.0,9.8061,-0.0042999997,0.0,-0.0883,0.003299,-0.004032,0.63311,2017-10-28 12:38:26,63.576868107615056
0.095768064,0.0,9.739613,0.0,0.0,-0.0010646508,36.0,0.100899994,4.0E-4,9.8061,-0.0019999999,-4.0E-4,0.0196,0.00327,-0.003963,0.633109,2017-10-28 12:38:27,66.60097095607287
0.095768064,0.0,9.730036,0.0,0.0010646508,-0.0010646508,27.0,0.0971,0.0,9.8061,-0.007999999,0.0,0.0095999995,0.00314,-0.003833,0.633109,2017-10-28 12:38:28,66.10086629762822
0.11492168,0.0,9.739613,0.0,-0.0010646508,0.0,27.0,0.0995,0.0,9.8061,-8.0E-4,0.0,0.0,0.003215,-0.003928,0.633108,2017-10-28 12:38:29,50.43394855026462
0.10534488,0.0,9.730036,-0.0010646508,-0.0010646508,-0.0010646508,25.0,0.0977,0.0,9.8061,0.0011,0.0,-1.0E-4,0.003156,-0.003856,0.633107,2017-10-28 12:38:30,55.10465486991261
0.10534488,0.0,9.730036,0.0010646508,-0.0031939526,-0.0010646508,31.0,0.0977,0.0,9.8061,-0.0087,0.0,0.0,0.003157,-0.003858,0.633106,2017-10-28 12:38:31,50.52519909178042
0.10534488,0.0,9.730036,-0.0010646508,-0.0031939526,0.0,25.0,0.0993,0.0,9.8061,0.0092,0.0,0.0,0.003208,-0.003921,0.633105,2017-10-28 12:38:32,59.820830326279975
0.11492168,0.0,9.739613,0.0010646508,-0.0010646508,-0.0010646508,27.0,0.098699994,0.0,9.8061,1.0E-4,0.0,-0.0196,0.003186,-0.003895,0.633104,2017-10-28 12:38:33,45.052180647589424
0.10534488,0.0,9.739613,0.0,-0.0031939526,-0.0010646508,27.0,0.0994,0.0,9.8061,0.0094,0.0,0.0392,0.00321,-0.003923,0.633102,2017-10-28 12:38:34,54.35483379352709
0.10534488,0.0,9.720459,0.0,-0.0010646508,0.0010646508,27.0,0.098,0.0,9.8061,7.0E-4,0.0,0.0,0.003167,-0.00387,0.633102,2017-10-28 12:38:35,62.532990981622575
0.10534488,0.0,9.739613,0.0,-0.0010646508,-0.0010646508,31.0,0.097899996,0.0,9.8061,8.0E-4,0.0,-1.0E-4,0.003163,-0.003866,0.633101,2017-10-28 12:38:36,56.66697724538779
0.10534488,0.0,9.701305,0.0010646508,-0.0021293017,0.0021293017,27.0,0.097799994,0.0,9.8061,9.0E-4,0.0,-0.0393,0.00316,-0.003861,0.6331,2017-10-28 12:38:37,39.889809515724494
0.10534488,0.0,9.730036,0.0,-0.0031939526,-0.0010646508,27.0,0.1013,0.0,9.8061,0.0069999998,0.0,-0.0393,0.003272,-0.003997,0.633098,2017-10-28 12:38:38,62.2254543645918
0.10534488,0.0,9.730036,0.0,-0.0031939526,-0.0010646508,25.0,0.0981,0.0,9.8061,9.0E-4,0.0,0.0392,0.00317,-0.003875,0.633097,2017-10-28 12:38:39,62.72399333364707
0.10534488,0.0,9.720459,0.0031939526,-0.0010646508,-0.0010646508,27.0,0.0986,0.0,9.8061,-0.0093,0.0,0.029399998,0.003184,-0.003892,0.633096,2017-10-28 12:38:40,57.59209547378582
0.10534488,0.0,9.720459,0.0021293017,-0.0021293017,-0.0010646508,22.0,0.0986,0.0,9.8061,-0.0095,0.0,0.0,0.003187,-0.003894,0.633096,2017-10-28 12:38:41,67.42217762006547
0.095768064,0.0,9.749189,0.0,-0.0021293017,-0.0010646508,31.0,0.100499995,0.0,9.8061,-0.0013,0.0,0.0195,0.003245,-0.003966,0.633096,2017-10-28 12:38:42,61.904188394585375
0.095768064,0.0,9.739613,0.0,-0.0021293017,0.0021293017,25.0,0.1013,0.0,9.8061,0.0081,0.0,0.1273,0.003272,-0.003999,0.633095,2017-10-28 12:38:43,63.60105979902937
0.08619126,0.0,9.787497,-0.0010646508,-0.0031939526,-0.0021293017,25.0,0.097899996,0.0,9.8061,0.0104,0.0,-0.0296,0.0031639999,-0.003866,0.633096,2017-10-28 12:38:44,63.95892457713076
0.10534488,0.0,9.691729,0.0010646508,-0.0042586033,0.0,27.0,0.0995,0.0,9.8061,-8.0E-4,0.0,-0.059,0.003214,-0.003928,0.633094,2017-10-28 12:38:45,61.101839004465646
0.10534488,0.0,9.758766,0.0,-0.0021293017,-0.0010646508,27.0,0.1011,0.0,9.8061,-0.0023999999,0.0,0.029199999,0.003264,-0.00399,0.633093,2017-10-28 12:38:46,65.8864797082022
0.11492168,0.0,9.730036,0.0010646508,-0.0010646508,0.0,27.0,0.099599995,0.0,9.8061,-8.0E-4,0.0,-0.0099,0.003217,-0.003931,0.633094,2017-10-28 12:38:47,60.25648864673386
0.095768064,0.0,9.749189,0.0,-0.0042586033,-0.0010646508,25.0,0.099,0.0,9.8061,0.0095,0.0,-0.0197,0.003197,-0.003908,0.633093,2017-10-28 12:38:48,64.51570868432324
0.095768064,0.0,9.730036,0.0,-0.0031939526,0.0,27.0,0.1028,0.0,9.8061,-0.023699999,0.0,0.0,0.003321,-0.004059,0.633092,2017-10-28 12:38:49,67.29558917248674
0.11492168,0.0,9.739613,-0.0010646508,-0.0042586033,0.0010646508,27.0,0.0993,0.0,9.8061,-5.9999997E-4,0.0,0.0098,0.003208,-0.003921,0.633091,2017-10-28 12:38:50,42.788263820377196
0.10534488,0.0,9.720459,0.0,0.0,0.0,27.0,0.099199995,0.0,9.8061,-0.010199999,0.0,0.0,0.003228,-0.003946,0.633091,2017-10-28 12:38:51,60.696984171637666
0.11492168,0.0,9.730036,0.0021293017,-0.0021293017,0.0,25.0,0.0995,0.0011,9.8061,-0.0105,-0.0011,-0.0196,0.0032,-0.003824,0.633093,2017-10-28 12:38:52,63.59507701327871
0.11492168,0.0,9.730036,0.0010646508,-0.0021293017,0.0,27.0,0.0989,1.0E-4,9.8061,0.0,-1.0E-4,-1.0E-4,0.00317,-0.003866,0.633091,2017-10-28 12:38:53,49.192216670650176
0.10534488,0.0,9.720459,-0.0010646508,-0.0021293017,-0.0010646508,31.0,0.100099996,0.0,9.8061,-0.0013,0.0,-0.009699999,0.003231,-0.003949,0.63309,2017-10-28 12:38:54,59.67710567096936
0.10534488,0.0,9.720459,0.0021293017,-0.0010646508,-0.0010646508,27.0,0.1007,0.0,9.8061,-0.0018999999,0.0,0.0,0.003252,-0.003974,0.633088,2017-10-28 12:38:55,62.842696663881156
0.10534488,0.0,9.720459,0.0010646508,-0.0031939526,-0.0010646508,25.0,0.1004,0.0,9.8061,-0.0016,0.0,-0.0197,0.003244,-0.003965,0.633088,2017-10-28 12:38:56,67.25932776594948
0.10534488,0.0,9.730036,0.0,-0.0010646508,-0.0010646508,27.0,0.1004,0.0,9.8061,-0.0015,0.0,0.0098,0.003244,-0.003965,0.633087,2017-10-28 12:38:57,50.61486242097267
0.10534488,0.0,9.720459,0.0010646508,-0.0010646508,-0.0010646508,31.0,0.1013,0.0,9.8061,-0.0122,0.0,0.0098,0.003273,-0.004,0.633086,2017-10-28 12:38:58,64.69804079567717
0.10534488,0.0,9.739613,0.0021293017,-0.0010646508,-0.0010646508,27.0,0.101399995,0.0,9.8061,-0.0026,0.0,0.009699999,0.003276,-0.004004,0.633085,2017-10-28 12:38:59,65.37462668845086
0.11492168,0.0,9.730036,-0.0010646508,-0.0021293017,0.0010646508,27.0,0.099999994,0.0,9.8061,0.008599999,0.0,0.0196,0.00323,-0.003947,0.633085,2017-10-28 12:39:00,58.90058726846177
0.095768064,0.0,9.739613,-0.0021293017,-0.0031939526,0.0,27.0,0.0984,0.0,9.8061,2.9999999E-4,0.0,-0.0196,0.003179,-0.003884,0.633084,2017-10-28 12:39:01,61.444987068707924
0.095768064,0.0,9.730036,0.0,-0.0021293017,-0.0010646508,27.0,0.0972,0.0,9.8061,0.011399999,0.0,0.0095999995,0.003138,-0.003835,0.633083,2017-10-28 12:39:02,38.17108814734971
0.10534488,0.0,9.749189,0.0021293017,-0.0021293017,-0.0010646508,27.0,0.0993,0.0,9.8061,-0.0103,0.0,-0.0098,0.003207,-0.00392,0.633083,2017-10-28 12:39:03,63.188186275125766
0.10534488,0.0,9.739613,0.0021293017,-0.0021293017,-0.0021293017,24.0,0.1008,0.0,9.8061,-0.0021,0.0,0.0,0.003255,-0.003979,0.633081,2017-10-28 12:39:04,64.29974362718627
0.10534488,0.0,9.749189,0.0021293017,0.0,0.0,24.0,0.1003,0.0,9.8061,-0.0016,0.0,-0.009699999,0.00324,-0.003959,0.63308,2017-10-28 12:39:05,68.22496693839389
0.10534488,0.0,9.739613,0.0021293017,-0.0031939526,-0.0010646508,24.0,0.098699994,0.0,9.8061,0.0099,0.0,0.009699999,0.003187,-0.003897,0.633078,2017-10-28 12:39:06,68.61447950227864
0.10534488,0.0,9.730036,0.0,-0.0010646508,-0.0010646508,24.0,0.0993,0.0,9.8061,-0.0103,0.0,0.0,0.003208,-0.00392,0.633077,2017-10-28 12:39:07,61.62401027194336
0.095768064,0.0,9.739613,0.0021293017,-0.0010646508,-0.0010646508,27.0,0.1013,0.0,9.8061,0.0072,0.0,0.0,0.003273,-0.004,0.633076,2017-10-28 12:39:08,62.060489513560825
0.10534488,0.0,9.749189,0.0010646508,-0.0010646508,0.0,27.0,0.0998,0.0,9.8061,0.0087,0.0,-0.009699999,0.00322,-0.003934,0.633075,2017-10-28 12:39:09,55.130556981990466
0.10534488,0.0,9.739613,0.0021293017,-0.0010646508,0.0,24.0,0.0989,0.0,9.8061,-1.0E-4,0.0,0.0098,0.0031949999,-0.003905,0.633074,2017-10-28 12:39:10,41.67285019968452
0.11492168,0.0,9.730036,0.0021293017,-0.0021293017,0.0,27.0,0.097799994,0.0,9.8061,-0.0088,0.0,0.0095999995,0.003158,-0.00386,0.633072,2017-10-28 12:39:11,62.74066551920904
0.10534488,0.0,9.739613,0.0010646508,-0.0010646508,0.0,24.0,0.095599994,0.0,9.8061,-0.0067,0.0,0.0,0.003088,-0.003774,0.63307,2017-10-28 12:39:12,68.17009951539391
0.10534488,0.0,9.730036,-0.0021293017,-0.0021293017,0.0,24.0,0.0972,0.0,9.8061,-0.0083,0.0,0.0,0.00314,-0.003838,0.633067,2017-10-28 12:39:13,64.641830411151
0.10534488,0.0,9.739613,-0.0010646508,-0.0031939526,0.0,27.0,0.0995,0.0,9.8061,-7.0E-4,0.0,0.0,0.003213,-0.003927,0.633065,2017-10-28 12:39:14,68.09159152432345
0.095768064,0.0,9.739613,0.0010646508,-0.0010646508,-0.0021293017,22.0,0.0995,0.0,9.8061,0.009,0.0,0.0098,0.003213,-0.003927,0.633063,2017-10-28 12:39:15,57.320548527935614
0.11492168,0.0,9.739613,-0.0010646508,0.0,0.0021293017,27.0,0.1003,0.0,9.8061,0.0082,0.0,0.0,0.003239,-0.00396,0.633061,2017-10-28 12:39:16,50.17778803488088
0.10534488,0.0,9.730036,0.0,-0.0031939526,0.0,22.0,0.100899994,0.0,9.8061,-0.0021,0.0,0.0,0.003257,-0.003982,0.633058,2017-10-28 12:39:17,43.0220632312226
0.10534488,0.0,9.730036,0.0010646508,-0.0031939526,0.0010646508,22.0,0.099599995,0.0,9.8061,-7.0E-4,0.0,0.009699999,0.003216,-0.00393,0.633056,2017-10-28 12:39:18,59.63295795050104
0.10534488,0.0,9.739613,0.0010646508,-0.0031939526,0.0,25.0,0.0994,0.0,9.8061,-4.9999997E-4,0.0,0.0,0.003209,-0.003923,0.633055,2017-10-28 12:39:19,67.34954384151591
0.10534488,0.0,9.739613,-0.0010646508,-0.0031939526,-0.0010646508,24.0,0.098799996,0.0,9.8061,0.0,0.0,0.0,0.00319,-0.0038979999,0.633052,2017-10-28 12:39:20,66.58907334868827
0.095768064,0.0,9.739613,0.0,-0.0042586033,0.0,27.0,0.0998,0.0,9.8061,-0.0011,0.0,-0.009699999,0.003224,-0.00394,0.633049,2017-10-28 12:39:21,61.31809723215261
0.10534488,0.0,9.739613,0.0010646508,-0.0010646508,0.0,28.0,0.1029,0.0,9.8061,-0.0139,0.0,0.0,0.003339,-0.004081,0.633046,2017-10-28 12:39:22,64.3902399669447
0.10534488,0.0,9.720459,0.0021293017,-0.0021293017,0.0010646508,24.0,0.1008,0.0,9.8061,-0.0018999999,0.0,0.029299999,0.003251,-0.003974,0.633045,2017-10-28 12:39:23,62.75331915364472
0.095768064,0.0,9.739613,0.0021293017,0.0010646508,-0.0021293017,24.0,0.099,0.0,9.8061,-0.0101,0.0,-0.0098,0.003197,-0.003908,0.633043,2017-10-28 12:39:24,59.882436124561494
0.11492168,0.0,9.749189,-0.0010646508,-0.0021293017,-0.0021293017,28.0,0.1004,0.0,9.8061,-0.0016,0.0,0.0,0.003241,-0.003962,0.63304,2017-10-28 12:39:25,66.84275268447689
0.11492168,0.0,9.739613,0.0,-0.0010646508,0.0010646508,24.0,0.099199995,0.0,9.8061,-0.010199999,0.0,-0.0197,0.003204,-0.003915,0.633039,2017-10-28 12:39:26,69.8564995668879
0.10534488,0.0,9.730036,0.0,0.0,0.0010646508,24.0,0.102,0.0,9.8061,0.0064,0.0,0.0,0.003295,-0.004027,0.633036,2017-10-28 12:39:27,65.21783105300948
0.11492168,0.0,9.739613,0.0010646508,-0.0021293017,0.0010646508,24.0,0.101799995,0.0,9.8061,-0.003,0.0,-0.0099,0.003288,-0.004019,0.633035,2017-10-28 12:39:28,66.40446375685897
0.095768064,0.0,9.739613,0.0010646508,-0.0021293017,0.0,22.0,0.100999996,0.0,9.8061,0.0173,0.0,-0.0095999995,0.003263,-0.003988,0.633032,2017-10-28 12:39:29,61.66030460315178
0.12449849,0.009576807,9.730036,0.0,-0.0021293017,-0.0010646508,25.0,0.101799995,0.0,9.8061,-0.022699999,0.0,-0.009699999,0.003288,-0.00402,0.633029,2017-10-28 12:39:30,55.049483790295184
0.11492168,0.0,9.739613,0.0010646508,-0.0021293017,0.0010646508,27.0,0.10349999,-1.0E-4,9.8061,-0.0143,1.0E-4,0.0296,0.003336,-0.004092,0.633027,2017-10-28 12:39:31,63.3196177420107
0.08619126,0.0,9.710882,0.0010646508,-0.0010646508,-0.0021293017,22.0,0.1021,-8.0E-4,9.8061,-0.0131,7.0E-4,1.0E-4,0.003264,-0.004056,0.633022,2017-10-28 12:39:32,59.26223046668045
0.10534488,0.0,9.758766,0.0021293017,-0.0010646508,-0.0021293017,27.0,0.1012,0.0,9.8061,0.0072,0.0,-0.0098,0.003264,-0.003996,0.633019,2017-10-28 12:39:33,50.33216989138122
0.11492168,0.0,9.749189,0.0010646508,0.0,0.0,24.0,0.0999,0.0,9.8061,0.028299998,0.0,0.0095999995,0.003223,-0.00394,0.633017,2017-10-28 12:39:34,61.878888258894236
0.095768064,0.0,9.730036,0.0,-0.0031939526,-0.0021293017,24.0,0.103,0.0,9.8061,-0.0044,0.0,-0.0195,0.003288,-0.004019,0.633013,2017-10-28 12:39:35,62.43602545614712
0.095768064,0.0,9.739613,0.0021293017,-0.0010646508,-0.0010646508,37.0,0.1008,0.0,9.8061,-0.011899999,0.0,-0.009699999,0.003249,-0.003971,0.633012,2017-10-28 12:39:36,70.6451677353492
0.095768064,0.0,9.749189,0.0010646508,-0.0031939526,0.0,27.0,0.102,0.0,9.8061,0.0064999997,0.0,0.009699999,0.003257,-0.003981,0.633009,2017-10-28 12:39:37,65.86684250304621
0.10534488,0.0,9.739613,0.0021293017,-0.0042586033,0.0,24.0,0.100099996,0.0,9.8061,-0.0014,0.0,-0.0095999995,0.003228,-0.003945,0.633007,2017-10-28 12:39:38,49.14813052385092
0.10534488,0.0,9.739613,0.0010646508,-0.0010646508,0.0021293017,24.0,0.0989,0.0,9.8061,-1.0E-4,0.0,0.0,0.003193,-0.003902,0.633005,2017-10-28 12:39:39,59.660120243824764
0.10534488,0.0,9.739613,0.0010646508,-0.0021293017,0.0,31.0,0.098299995,0.0,9.8061,2.0E-4,0.0,-0.0098,0.003177,-0.003883,0.633003,2017-10-28 12:39:40,55.95009644935555
0.10534488,0.0,9.739613,0.0,-0.0010646508,0.0,25.0,0.1008,0.0,9.8061,-0.0019999999,0.0,-0.009699999,0.003255,-0.003978,0.633002,2017-10-28 12:39:41,60.13394751945242
0.10534488,0.0,9.749189,0.0021293017,-0.0021293017,-0.0021293017,25.0,0.1011,0.0,9.8061,0.0173,0.0,0.0,0.003265,-0.00399,0.633,2017-10-28 12:39:42,66.0586048082042
0.11492168,0.0,9.720459,0.0010646508,-0.0021293017,-0.0010646508,25.0,0.104399994,0.0,9.806,-0.0056999996,0.0,-0.029299999,0.003372,-0.004122,0.632996,2017-10-28 12:39:43,56.11425624031093
0.10534488,0.0,9.749189,0.0010646508,-0.0042586033,0.0,27.0,0.1002,0.0,9.8061,-0.0015,0.0,0.0,0.003237,-0.003957,0.632993,2017-10-28 12:39:44,62.15285947492826
0.10534488,0.0,9.739613,0.0010646508,-0.0010646508,0.0,27.0,0.106699996,0.0,9.806,0.012,0.0,0.029199999,0.003447,-0.004214,0.63299,2017-10-28 12:39:45,65.9380688426921
0.10534488,0.0,9.749189,0.0010646508,-0.0010646508,0.0,26.0,0.0949,0.0,9.8061,0.0037999998,0.0,0.0098,0.003066,-0.003748,0.63299,2017-10-28 12:39:46,66.28072555533082
0.10534488,0.0,9.768343,0.0021293017,0.0,0.0,24.0,0.098799996,0.0,9.8061,0.0,0.0,0.029299999,0.003191,-0.0039,0.632987,2017-10-28 12:39:47,58.923389794250824
0.11492168,0.0,9.749189,0.0,-0.0021293017,0.0,24.0,0.099999994,0.0,9.8061,-0.0011999999,0.0,-0.0098,0.003229,-0.003946,0.632985,2017-10-28 12:39:48,55.19843746505502
0.10534488,0.0,9.739613,0.0,-0.0010646508,0.0,24.0,0.100899994,0.0,9.8061,-0.0023,0.0,-0.009699999,0.00326,-0.003985,0.632982,2017-10-28 12:39:49,37.988351943294475
0.10534488,0.0,9.730036,0.0010646508,-0.0010646508,0.0,27.0,0.099199995,0.0,9.8061,-2.0E-4,0.0,0.029399998,0.003203,-0.003916,0.63298,2017-10-28 12:39:50,64.95170381117833
0.11492168,0.0,9.739613,0.0021293017,-0.0031939526,-0.0021293017,24.0,0.0991,0.0,9.8061,0.0094,0.0,0.0,0.003199,-0.003911,0.632978,2017-10-28 12:39:51,66.88651869346957
0.10534488,0.0,9.739613,0.0010646508,-0.0031939526,0.0010646508,28.0,0.1013,0.0,9.8061,0.0072,0.0,0.0099,0.00327,-0.003997,0.632975,2017-10-28 12:39:52,37.76303042005585
0.11492168,0.0,9.739613,-0.0010646508,-0.0010646508,0.0,27.0,0.1008,0.0,9.8061,-0.0021,0.0,-0.009699999,0.003254,-0.003978,0.632973,2017-10-28 12:39:53,56.67681990120588
0.11492168,0.0,9.739613,0.0010646508,-0.0042586033,-0.0010646508,24.0,0.100899994,0.0,9.8061,-0.0019999999,0.0,0.029399998,0.003258,-0.003984,0.632971,2017-10-28 12:39:54,66.13879580442526
0.10534488,0.0,9.739613,0.0,-0.0010646508,-0.0021293017,24.0,0.099599995,0.0,9.8061,-8.0E-4,0.0,-0.009699999,0.003215,-0.00393,0.632969,2017-10-28 12:39:55,58.54525242548088
0.10534488,0.0,9.739613,0.0010646508,-0.0021293017,0.0,27.0,0.102,0.0,9.8061,0.0066,0.0,0.009699999,0.003293,-0.004026,0.63296497,2017-10-28 12:39:56,45.58843685429732
0.10534488,0.0,9.835381,0.0021293017,-0.0010646508,-0.0010646508,36.0,0.1004,1.0E-4,9.8061,0.0179,-1.0E-4,0.098,0.003248,-0.003961,0.632962,2017-10-28 12:39:57,65.42828727125833
0.11492168,0.0,9.710882,-0.0010646508,0.0010646508,-0.0010646508,24.0,0.1012,0.0,9.8061,-0.012499999,0.0,0.019399999,0.003268,-0.003994,0.632959,2017-10-28 12:39:58,64.99544693407462
0.10534488,0.0,9.730036,0.0010646508,-0.0031939526,-0.0010646508,27.0,0.1019,0.0,9.8061,-0.0030999999,0.0,-0.0098,0.00329,-0.004022,0.632957,2017-10-28 12:39:59,64.35244143341421
0.10534488,0.0,9.739613,0.0021293017,-0.0010646508,0.0010646508,24.0,0.1015,0.0,9.8061,-0.0026999998,0.0,0.0098,0.003279,-0.004007,0.632956,2017-10-28 12:40:00,62.989397186543925
0.10534488,0.0,9.739613,0.0010646508,-0.0031939526,0.0010646508,24.0,0.103199996,0.0,9.8061,-0.0042999997,0.0,0.0098,0.003331,-0.004073,0.632953,2017-10-28 12:40:01,66.89376880914658
0.10534488,0.0,9.739613,0.0021293017,0.0010646508,-0.0021293017,25.0,0.1021,0.0,9.8061,-0.0036,0.0,-0.059,0.003296,-0.004029,0.63295,2017-10-28 12:40:02,68.90040333864307
0.095768064,0.0,9.730036,0.0042586033,-0.005323254,-0.0010646508,26.0,0.0986,0.0,9.8061,0.0098,0.0,0.0195,0.003186,-0.003894,0.632947,2017-10-28 12:40:03,66.02838388123138
0.10534488,0.0,9.730036,0.0010646508,-0.0031939526,0.0,24.0,0.1021,0.0,9.8061,-0.0033,0.0,0.0,0.003299,-0.004032,0.632944,2017-10-28 12:40:04,41.12356010905445
0.10534488,0.0,9.730036,0.0010646508,-0.0010646508,0.0,25.0,0.099,0.0,9.8061,-0.0099,0.0,0.0,0.003196,-0.003907,0.632941,2017-10-28 12:40:05,50.2922265042129
0.10534488,0.0,9.739613,0.0010646508,-0.0031939526,0.0010646508,24.0,0.1002,0.0,9.8061,-0.0013,0.0,0.0196,0.003237,-0.003957,0.63294,2017-10-28 12:40:06,63.31155469919921
0.10534488,0.0,9.739613,0.0010646508,-0.0021293017,-0.0010646508,24.0,0.1034,0.0,9.8061,-0.0044,0.0,0.0,0.00334,-0.004083,0.632936,2017-10-28 12:40:07,62.06788157705313
0.10534488,0.0,9.739613,0.0,-0.006387905,-0.0010646508,26.0,0.1052,0.0,9.806,0.0033999998,0.0,0.0098,0.003351,-0.004096,0.632934,2017-10-28 12:40:08,63.600155367620495
0.11492168,0.0,9.730036,0.0,-0.0021293017,-0.0010646508,36.0,0.1019,0.0,9.8061,-0.0033,0.0,-0.0098,0.003309,-0.004046,0.632931,2017-10-28 12:40:09,62.57686646208115
0.10534488,0.0,9.730036,0.0010646508,-0.0021293017,0.0,26.0,0.1028,0.0,9.8061,0.0056,0.0,-0.009699999,0.00331,-0.004046,0.632929,2017-10-28 12:40:10,68.12351859877653
0.10534488,0.0,9.739613,0.0,-0.0031939526,0.0,27.0,0.102,0.0,9.8061,-0.0030999999,0.0,0.0,0.003294,-0.004028,0.632927,2017-10-28 12:40:11,67.69485465463194
0.11492168,0.0,9.739613,0.0021293017,-0.0021293017,-0.0010646508,19.0,0.1016,0.0,9.8061,0.0067999996,0.0,0.0,0.003283,-0.004013,0.632926,2017-10-28 12:40:12,66.86465478812481
0.10534488,0.0,9.739613,0.0031939526,-0.0021293017,0.0,24.0,0.1012,0.0,9.8061,0.0072,0.0,0.0,0.003269,-0.003996,0.632923,2017-10-28 12:40:13,65.22042597496477
0.11492168,0.0,9.730036,0.0021293017,-0.0010646508,0.0,28.0,0.100999996,0.0,9.8061,-0.0023999999,0.0,0.0,0.003262,-0.003988,0.632921,2017-10-28 12:40:14,58.48790363061084
0.10534488,0.0,9.739613,0.0,-0.0010646508,-0.0010646508,24.0,0.1016,0.0,9.8061,0.0067999996,0.0,-0.019399999,0.003282,-0.004013,0.632918,2017-10-28 12:40:15,67.90229971428799
0.10534488,0.0,9.730036,0.0,-0.0021293017,0.0,24.0,0.1024,0.0,9.8061,0.0061,0.0,1.0E-4,0.003307,-0.004042,0.632915,2017-10-28 12:40:16,62.26015750905166
0.10534488,0.0,9.730036,0.0,-0.0021293017,0.0,24.0,0.1008,0.0,9.8061,-0.0019999999,0.0,1.0E-4,0.00325,-0.003983,0.632913,2017-10-28 12:40:17,62.56796239459926
0.10534488,0.0,9.730036,0.0,-0.0042586033,0.0,24.0,0.1039,0.0,9.806,0.0046,0.0,-0.0095999995,0.003355,-0.004105,0.63291,2017-10-28 12:40:18,62.09315693909831
0.10534488,0.0,9.739613,0.0010646508,0.0,-0.0010646508,25.0,0.1016,0.0,9.8061,-0.0029,0.0,-0.0195,0.00328,-0.004011,0.632908,2017-10-28 12:40:19,65.71070611319436
0.11492168,0.0,9.739613,0.0021293017,-0.0021293017,0.0010646508,25.0,0.104499996,0.0,9.806,-0.0058,0.0,-0.01,0.003373,-0.004124,0.632905,2017-10-28 12:40:20,57.55695515028674
0.11492168,0.0,9.739613,0.0,-0.0021293017,-0.0021293017,24.0,0.1019,0.0,9.8061,-0.003,0.0,0.0,0.003291,-0.004023,0.632903,2017-10-28 12:40:21,66.09824255034844
0.10534488,0.0,9.730036,0.0,-0.0021293017,-0.0010646508,24.0,0.0999,0.0,9.8061,-0.0011999999,0.0,1.0E-4,0.003228,-0.003946,0.6329,2017-10-28 12:40:22,64.4573554800532
0.10534488,0.0,9.739613,0.0010646508,-0.0021293017,-0.0010646508,22.0,0.0989,0.0,9.8061,-0.010199999,0.0,-0.0197,0.003194,-0.003905,0.632898,2017-10-28 12:40:23,62.91866349907474
0.10534488,0.0,9.749189,0.0,-0.0042586033,-0.0010646508,22.0,0.1008,0.0,9.8061,-0.0019999999,0.0,0.0098,0.003254,-0.003979,0.632894,2017-10-28 12:40:24,49.39513324708079
0.11492168,0.0,9.730036,0.0010646508,-0.0021293017,0.0010646508,24.0,0.0985,0.0,9.8061,0.0,0.0,-0.0296,0.003182,-0.00389,0.632893,2017-10-28 12:40:25,63.25817937730833
0.10534488,0.0,9.739613,-0.0010646508,0.0010646508,0.0021293017,24.0,0.103099994,0.0,9.8061,-0.014099999,0.0,-0.0098,0.00333,-0.004071,0.63289,2017-10-28 12:40:26,66.86494746126941
0.10534488,0.0,9.730036,0.0021293017,-0.0042586033,0.0010646508,24.0,0.1007,0.0,9.8061,-0.0018999999,0.0,0.0,0.003251,-0.003977,0.632888,2017-10-28 12:40:27,41.91588980257649
0.11492168,0.0,9.730036,0.0010646508,-0.0021293017,-0.0010646508,22.0,0.097799994,0.0,9.8061,-0.0088,0.0,-1.0E-4,0.003157,-0.003861,0.632887,2017-10-28 12:40:28,35.75478131792528
0.10534488,0.0,9.730036,0.0010646508,-0.0010646508,-0.0010646508,24.0,0.1002,0.0,9.8061,-0.0013,0.0,0.0,0.003235,-0.003956,0.632883,2017-10-28 12:40:29,43.16257911317631
0.095768064,0.0,9.730036,0.0,-0.0042586033,0.0,36.0,0.1012,0.0,9.8061,-0.0026,0.0,-0.0196,0.003268,-0.003997,0.63288,2017-10-28 12:40:30,66.50599357541019
0.10534488,0.0,9.739613,0.0021293017,-0.0021293017,0.0,24.0,0.1025,0.0,9.8061,-0.0134,0.0,-0.0098,0.00331,-0.004046,0.632876,2017-10-28 12:40:31,38.67942053920246
0.11492168,0.0,9.730036,0.0021293017,-0.0010646508,0.0,25.0,0.101399995,0.0,9.8061,-0.0025,0.0,0.0195,0.003273,-0.004002,0.632873,2017-10-28 12:40:32,62.783559931177805
0.11492168,0.0,9.749189,0.0,-0.0010646508,0.0,24.0,0.102699995,0.0,9.8061,-0.0039999997,0.0,-0.0098,0.003315,-0.004053,0.63287,2017-10-28 12:40:33,68.20341535053588
0.10534488,0.0,9.739613,0.0021293017,-0.0021293017,0.0021293017,21.0,0.1028,0.0,9.8061,-0.0039999997,0.0,0.0098,0.00332,-0.004059,0.632869,2017-10-28 12:40:34,62.35501589492571
0.10534488,0.0,9.739613,0.0031939526,-0.0021293017,-0.0010646508,24.0,0.1019,0.0,9.8061,-0.0033,0.0,-0.029299999,0.00329,-0.004024,0.632867,2017-10-28 12:40:35,66.23967730280161
0.11492168,0.0,9.730036,0.0010646508,-0.0021293017,0.0021293017,24.0,0.101799995,0.0,9.8061,-0.0029,0.0,-0.009699999,0.003285,-0.004018,0.632865,2017-10-28 12:40:36,65.19596111211739
0.11492168,0.0,9.739613,0.0010646508,-0.0042586033,0.0,24.0,0.102,0.0,9.8061,-0.003,0.0,0.0196,0.003293,-0.004025,0.632863,2017-10-28 12:40:37,40.07808099895862
0.11492168,0.0,9.758766,-0.0010646508,-0.0021293017,-0.0021293017,24.0,0.1024,2.9999999E-4,9.8061,0.0061999997,-2.9999999E-4,0.0196,0.003319,-0.0040349998,0.632861,2017-10-28 12:40:38,51.63616827425167
0.10534488,0.0,9.758766,0.0,-0.0042586033,0.0010646508,24.0,0.1042,0.0,9.806,0.014099999,0.0,0.0,0.003365,-0.004111,0.632858,2017-10-28 12:40:39,60.35193432469434
0.095768064,0.0,9.739613,0.0010646508,-0.0031939526,0.0,22.0,0.1006,0.0,9.8061,-0.0018,0.0,-0.009699999,0.003244,-0.003966,0.632855,2017-10-28 12:40:40,56.10938968738974
0.12449849,0.0,9.739613,0.0,-0.0021293017,-0.0031939526,22.0,0.1012,0.0,9.8061,-0.0023,0.0,0.0,0.003267,-0.003993,0.632852,2017-10-28 12:40:41,63.63994134204699
0.10534488,0.0,9.730036,0.0010646508,-0.0031939526,-0.0021293017,22.0,0.1038,0.0,9.8061,-0.0050999997,0.0,-0.009699999,0.003353,-0.0041,0.632848,2017-10-28 12:40:42,58.228514387601834
0.12449849,0.0,9.682152,0.0031939526,-0.0010646508,0.0,24.0,0.1048,0.0,9.806,-0.0053999997,0.0,0.029399998,0.003382,-0.004136,0.632844,2017-10-28 12:40:43,55.90904697714387
0.10534488,0.0,9.758766,0.0010646508,0.0,0.0,22.0,0.0989,0.0,9.8061,-2.9999999E-4,0.0,-0.0197,0.003192,-0.003905,0.632843,2017-10-28 12:40:44,44.13874111674104
0.11492168,0.019153614,9.730036,0.0021293017,0.0021293017,0.0,22.0,0.100099996,0.0,9.8061,-0.0211,0.0,0.048899997,0.003231,-0.003951,0.632839,2017-10-28 12:40:45,66.73371740130813
0.11492168,0.0,9.730036,0.0010646508,-0.0010646508,-0.0010646508,22.0,0.103099994,0.0,9.8061,0.0052,0.0,-0.0392,0.003324,-0.004074,0.632831,2017-10-28 12:40:46,63.29354561856641
0.10534488,0.0,9.739613,0.0,-0.0021293017,-0.0010646508,22.0,0.1038,0.0,9.8061,0.0047,0.0,0.0,0.00335,-0.0040969998,0.632828,2017-10-28 12:40:47,67.5109243816418
0.10534488,0.0,9.758766,-0.0010646508,-0.0031939526,0.0,24.0,0.0995,0.0,9.8061,0.0089,0.0,0.0098,0.003213,-0.00393,0.632827,2017-10-28 12:40:48,61.63265595197173
0.11492168,0.0,9.77792,-0.0021293017,-0.0021293017,0.0,24.0,0.1037,0.0,9.8061,0.0047,0.0,0.029299999,0.003349,-0.004095,0.632823,2017-10-28 12:40:49,67.89041924537842
0.12449849,0.0,9.749189,0.0021293017,-0.0021293017,-0.0010646508,24.0,0.1004,4.9999997E-4,9.8061,-0.0016,-4.9999997E-4,-0.009699999,0.003264,-0.003947,0.632821,2017-10-28 12:40:50,60.43465116627899
0.10534488,0.0,9.739613,0.0010646508,-0.0042586033,0.0,22.0,0.0998,0.0,9.8061,-9.999999E-4,0.0,-0.009699999,0.0032249999,-0.003939,0.632818,2017-10-28 12:40:51,61.287005932898204
0.11492168,0.0,9.710882,0.0,-0.0021293017,0.0,24.0,0.1029,0.0,9.8061,0.0056,0.0,-0.0587,0.003322,-0.004062,0.632814,2017-10-28 12:40:52,63.99775456780448
0.12449849,0.0,9.768343,-0.0021293017,-0.0031939526,-0.0010646508,24.0,0.1024,0.0,9.8061,-0.0034999999,0.0,0.029399998,0.003306,-0.004044,0.632812,2017-10-28 12:40:53,62.917745512493646
0.10534488,0.0,9.739613,0.0,0.0,-0.0021293017,24.0,0.1013,0.0,9.8061,0.0173,0.0,0.0392,0.003271,-0.004,0.632809,2017-10-28 12:40:54,56.29805277646669
0.11492168,0.0,9.730036,0.0031939526,-0.0021293017,0.0,24.0,0.100999996,0.0,9.8061,-0.0021,0.0,-0.0098,0.00326,-0.003987,0.632805,2017-10-28 12:40:55,66.91441528781306
0.10534488,0.0,9.749189,0.0021293017,-0.0021293017,0.0,22.0,0.1016,0.0,9.8061,-0.0028,0.0,0.0098,0.003281,-0.004011,0.632802,2017-10-28 12:40:56,66.75076267939318
0.11492168,0.0,9.730036,0.0010646508,-0.0010646508,0.0,24.0,0.1021,0.0,9.8061,-0.0032,0.0,-0.0098,0.003296,-0.004032,0.63279897,2017-10-28 12:40:57,66.39783436499269
0.11492168,0.0,9.749189,0.0021293017,-0.0021293017,-0.0021293017,24.0,0.1021,0.0,9.8061,-0.003,0.0,0.029299999,0.003296,-0.004031,0.632796,2017-10-28 12:40:58,63.322282831298736
0.11492168,0.0,9.749189,0.0010646508,-0.0031939526,-0.0010646508,24.0,0.103199996,0.0,9.8061,0.0053,0.0,0.0196,0.003333,-0.004075,0.632794,2017-10-28 12:40:59,65.2391828917411
0.10534488,0.0,9.739613,0.0021293017,0.0,0.0,24.0,0.1007,0.0,9.8061,0.0078,0.0,-0.009699999,0.00325,-0.0039749998,0.632792,2017-10-28 12:41:00,67.38507858121308
0.11492168,0.0,9.739613,0.0010646508,-0.0042586033,-0.0010646508,24.0,0.1002,0.0,9.8061,-0.0014,0.0,0.0,0.003237,-0.003958,0.632789,2017-10-28 12:41:01,63.381095737995295
0.10534488,0.0,9.730036,0.0010646508,-0.005323254,0.0,22.0,0.1003,0.0,9.8061,-0.0015,0.0,-0.009699999,0.003238,-0.003959,0.632786,2017-10-28 12:41:02,64.13367828171748
0.10534488,0.0,9.739613,0.0010646508,-0.0021293017,0.0010646508,24.0,0.1011,0.0,9.8061,0.0075999997,0.0,0.0195,0.003264,-0.003993,0.632782,2017-10-28 12:41:03,66.24617206747163
0.11492168,0.0,9.749189,0.0,-0.0021293017,-0.0021293017,24.0,0.0994,0.0,9.8061,-5.9999997E-4,0.0,0.0098,0.00321,-0.003927,0.632779,2017-10-28 12:41:04,68.39823835583667
0.10534488,0.0,9.730036,0.0,-0.0021293017,-0.0021293017,24.0,0.099199995,0.0,9.8061,-4.9999997E-4,0.0,0.0,0.003203,-0.003918,0.632777,2017-10-28 12:41:05,61.0245353588735
0.10534488,0.0,9.730036,0.0,-0.0010646508,0.0010646508,24.0,0.099599995,0.0,9.8061,-0.0104,0.0,0.0,0.003214,-0.003932,0.632773,2017-10-28 12:41:06,61.65819581362081
0.10534488,0.0,9.730036,0.0021293017,-0.0031939526,0.0010646508,24.0,0.098699994,0.0,9.8061,0.0,0.0,0.0,0.003188,-0.003899,0.632771,2017-10-28 12:41:07,64.23209024688961
0.10534488,0.0,9.730036,-0.0010646508,-0.0010646508,0.0,26.0,0.1037,0.0,9.8061,-0.0144,0.0,0.0195,0.003349,-0.0040969998,0.632767,2017-10-28 12:41:08,67.15565588753083
0.10534488,0.0,9.749189,0.0010646508,-0.0031939526,-0.0010646508,24.0,0.100499995,0.0,9.8061,0.0081,0.0,0.009699999,0.00324,-0.003963,0.632764,2017-10-28 12:41:09,67.23579463850686
0.10534488,0.0,9.730036,0.0010646508,0.0,0.0,24.0,0.1002,0.0,9.8061,0.0084,0.0,0.0195,0.003258,-0.003985,0.632761,2017-10-28 12:41:10,62.44535879267953
0.11492168,0.0,9.739613,0.0,-0.0021293017,-0.0010646508,27.0,0.1007,0.0,9.8061,-0.0018,0.0,0.0,0.003272,-0.004003,0.632758,2017-10-28 12:41:11,64.761118466686
0.095768064,0.0,9.739613,0.0,-0.0031939526,0.0,26.0,0.1013,0.0,9.8061,0.0072,0.0,0.0,0.00327,-0.004002,0.632755,2017-10-28 12:41:12,44.065674560384494
0.10534488,0.0,9.739613,0.0031939526,0.0,0.0,22.0,0.100099996,0.0,9.8061,-0.0011999999,0.0,0.009699999,0.003231,-0.003952,0.632752,2017-10-28 12:41:13,58.716750642795475
0.11492168,0.0,9.739613,0.0,-0.0021293017,-0.0010646508,24.0,0.102699995,0.0,9.8061,-0.0037999998,0.0,0.009699999,0.003315,-0.004056,0.632748,2017-10-28 12:41:14,65.53141636633022
0.10534488,0.0,9.739613,-0.0010646508,-0.0031939526,-0.0021293017,24.0,0.1016,0.0,9.8061,-0.0026999998,0.0,0.009699999,0.00328,-0.004012,0.632744,2017-10-28 12:41:15,59.25735137951903
0.10534488,0.0,9.749189,0.0,-0.0031939526,-0.0021293017,24.0,0.1007,0.0,9.8061,0.0079,0.0,-1.0E-4,0.003249,-0.0039749998,0.632742,2017-10-28 12:41:16,67.12914142527622
0.10534488,0.0,9.739613,0.0,-0.0042586033,0.0,22.0,0.0975,4.9999997E-4,9.8061,0.011,-4.9999997E-4,-0.009699999,0.003167,-0.003835,0.632737,2017-10-28 12:41:17,62.20611951277351
0.10534488,0.0,9.730036,0.0021293017,-0.0021293017,0.0010646508,24.0,0.0985,0.0,9.8061,0.0101,0.0,0.0,0.003182,-0.003889,0.632734,2017-10-28 12:41:18,64.94024221511236
0.11492168,0.0,9.730036,0.0010646508,-0.0021293017,-0.0010646508,22.0,0.0989,0.0,9.8061,0.009699999,0.0,0.0,0.003191,-0.003904,0.632731,2017-10-28 12:41:19,56.70310479149013
0.10534488,0.0,9.739613,0.0021293017,-0.0010646508,0.0,22.0,0.099599995,0.0,9.8061,-8.0E-4,0.0,0.0,0.003216,-0.003935,0.632726,2017-10-28 12:41:20,55.921341606399366
0.11492168,0.0,9.730036,0.0010646508,-0.0010646508,0.0,22.0,0.099,0.0,9.8061,-0.0099,0.0,0.0,0.0031949999,-0.003909,0.632724,2017-10-28 12:41:21,62.72541238399208
0.11492168,0.0,9.749189,0.0010646508,-0.0021293017,0.0021293017,22.0,0.099999994,0.0,9.8061,-0.0011,0.0,0.0098,0.003229,-0.003948,0.632959,2017-10-28 12:41:22,66.83103216526325
0.10534488,0.0,9.730036,0.0,-0.0021293017,0.0010646508,24.0,0.1029,0.0,9.8061,-0.0039999997,0.0,1.0E-4,0.003322,-0.004061,0.632955,2017-10-28 12:41:23,67.7170396271008
0.11492168,0.0,9.730036,0.0021293017,-0.0021293017,-0.0010646508,22.0,0.1017,0.0,9.8061,0.0067,0.0,-0.0195,0.003284,-0.004015,0.632953,2017-10-28 12:41:24,60.94107404874792
0.10534488,0.0,9.739613,0.0021293017,-0.0031939526,0.0021293017,24.0,0.1003,0.0,9.8061,-0.0015,0.0,0.0196,0.00324,-0.003961,0.63295,2017-10-28 12:41:25,67.81522033254237
0.11492168,0.0,9.739613,0.0010646508,-0.0042586033,-0.0010646508,24.0,0.1017,0.0,9.8061,0.0069,0.0,0.0098,0.003283,-0.004014,0.632947,2017-10-28 12:41:26,68.96960896998245
0.10534488,0.0,9.730036,0.0021293017,-0.0042586033,0.0,22.0,0.1013,0.0,9.8061,-0.0026999998,0.0,-0.0098,0.003273,-0.004,0.632945,2017-10-28 12:41:27,64.8766482819517
0.11492168,0.0,9.730036,-0.0010646508,-0.0021293017,-0.0010646508,19.0,0.102199994,0.0,9.8061,-0.0033999998,0.0,0.0,0.003299,-0.004033,0.632941,2017-10-28 12:41:28,64.6890885234956
0.11492168,0.0,9.710882,0.0021293017,-0.0010646508,-0.0010646508,22.0,0.100499995,-8.0E-4,9.8061,-0.0211,-0.0089,-0.009699999,0.003213,-0.003997,0.632938,2017-10-28 12:41:29,62.89332217175074
0.11492168,0.0,9.710882,0.0010646508,-0.0010646508,0.0010646508,28.0,0.1025,0.0,9.8061,0.0061,0.0,-0.009699999,0.003305,-0.004049,0.632931,2017-10-28 12:41:30,57.32475145969492
0.10534488,0.0,9.730036,0.0010646508,-0.0021293017,0.0,24.0,0.099,4.9999997E-4,9.8061,0.019399999,-4.9999997E-4,0.0,0.003218,-0.003892,0.632923,2017-10-28 12:41:31,55.90551387503237
0.10534488,0.0,9.730036,0.0010646508,-0.0010646508,-0.0010646508,21.0,0.099199995,0.0,9.8061,-4.0E-4,0.0,0.0,0.003204,-0.0039129998,0.63292,2017-10-28 12:41:32,64.17774883759196
0.10534488,0.0,9.739613,-0.0010646508,-0.0021293017,-0.0021293017,26.0,0.1026,0.0,9.8061,0.0056999996,0.0,-0.0196,0.003314,-0.004053,0.632915,2017-10-28 12:41:33,62.470684517581674
0.10534488,0.0,9.730036,0.0,-0.0031939526,0.0,26.0,0.1002,0.0,9.8061,-0.0011999999,0.0,0.0196,0.003234,-0.003955,0.632912,2017-10-28 12:41:34,63.075603359468445
0.10534488,0.0,9.739613,0.0010646508,-0.0021293017,0.0,25.0,0.1012,0.0,9.8061,-0.0025,0.0,0.0,0.003269,-0.003997,0.632909,2017-10-28 12:41:35,45.136715568254985
0.11492168,0.0,9.739613,0.0010646508,-0.0010646508,0.0010646508,24.0,0.1007,0.0,9.8061,0.0078,0.0,0.0098,0.003253,-0.003978,0.632905,2017-10-28 12:41:36,53.93378816092774
0.11492168,0.0,9.739613,0.0010646508,-0.0031939526,0.0,22.0,0.100999996,0.0,9.8061,0.0075999997,0.0,0.0,0.003261,-0.003988,0.632902,2017-10-28 12:41:37,62.13121861451792
0.095768064,0.0,9.739613,0.0,-0.0021293017,0.0010646508,19.0,0.103099994,0.0,9.8061,-0.0042,0.0,0.0195,0.003328,-0.004069,0.632898,2017-10-28 12:41:38,64.96621808853408
0.11492168,0.0,9.787497,0.0,0.0,-0.0010646508,22.0,0.1004,0.0,9.8061,-0.0116,0.0,-0.049,0.003262,-0.003989,0.632895,2017-10-28 12:41:39,66.55858170915185
0.095768064,0.0,9.701305,0.0010646508,0.0010646508,0.0010646508,22.0,0.1042,0.0,9.806,-0.0056,0.0,-0.0391,0.003349,-0.004095,0.632891,2017-10-28 12:41:40,64.56656592189898
0.11492168,0.0,9.739613,0.0010646508,-0.0031939526,-0.0021293017,21.0,0.1025,0.0,9.8061,0.0061,0.0,0.0,0.003309,-0.004048,0.632889,2017-10-28 12:41:41,53.889438670610986
0.10534488,0.0,9.739613,0.0,-0.0010646508,0.0,22.0,0.102199994,0.0,9.8061,-0.0034999999,0.0,-0.009699999,0.003301,-0.004037,0.632886,2017-10-28 12:41:42,49.94502806049263
0.10534488,0.0,9.691729,0.0,0.0021293017,0.0010646508,24.0,0.1029,0.0,9.8061,0.0155,0.0,0.0196,0.003323,-0.004065,0.632883,2017-10-28 12:41:43,38.46817365962301
0.095768064,0.0,9.720459,0.0031939526,-0.0031939526,0.0021293017,24.0,0.1003,0.0,9.8061,-0.0015,0.0,-0.009699999,0.003239,-0.003961,0.632881,2017-10-28 12:41:44,58.84927596253266
0.10534488,0.0,9.739613,0.0,-0.0010646508,-0.0010646508,22.0,0.102199994,0.0,9.8061,0.0063,0.0,-0.009699999,0.003298,-0.004034,0.632876,2017-10-28 12:41:45,67.84782931639371
0.10534488,0.0,9.749189,-0.0010646508,-0.0010646508,0.0010646508,24.0,0.1038,0.0,9.8061,0.0053,0.0,0.058799997,0.00335,-0.004098,0.632873,2017-10-28 12:41:46,63.845307986515536
0.11492168,0.0,9.739613,0.0,0.0010646508,0.0,26.0,0.1004,0.0,9.8061,-0.0018,0.0,0.058799997,0.003243,-0.003965,0.632871,2017-10-28 12:41:47,63.21782259647083
0.10534488,0.009576807,9.768343,0.0021293017,0.0,-0.0010646508,21.0,0.0999,0.0013,9.8061,0.0084,-0.0013,0.0392,0.003278,-0.003903,0.632874,2017-10-28 12:41:48,68.20435861443508
0.11492168,0.0,9.749189,0.0010646508,-0.0010646508,-0.0010646508,24.0,0.100499995,0.0,9.8061,-0.0018,0.0,-0.0195,0.003244,-0.003972,0.632868,2017-10-28 12:41:49,58.187977673563154
0.10534488,0.0,9.739613,0.0021293017,-0.0010646508,0.0,22.0,0.1017,0.0,9.8061,-0.003,0.0,-0.0196,0.003282,-0.004014,0.632864,2017-10-28 12:41:50,63.235586395860224
0.11492168,0.0,9.720459,0.0010646508,-0.0010646508,0.0010646508,28.0,0.1039,0.0,9.806,0.0045,0.0,-0.029399998,0.003356,-0.004104,0.632862,2017-10-28 12:41:51,67.31680021017746
0.095768064,0.0,9.739613,0.0031939526,-0.0010646508,-0.0010646508,21.0,0.1019,0.0,9.8061,-0.0030999999,0.0,0.0098,0.003291,-0.004026,0.632859,2017-10-28 12:41:52,67.15310323183851
0.10534488,0.0,9.739613,0.0,-0.0042586033,0.0,22.0,0.1017,0.0,9.8061,-0.0029,0.0,-0.009699999,0.003284,-0.004017,0.632857,2017-10-28 12:41:53,63.91264930607777
0.10534488,0.0,9.710882,0.0021293017,-0.0010646508,-0.0010646508,24.0,0.1004,0.0,9.8061,0.0082,0.0,0.0098,0.003241,-0.003965,0.632853,2017-10-28 12:41:54,55.89374897489036
0.10534488,0.0,9.710882,0.0,-0.0010646508,-0.0010646508,24.0,0.098699994,0.0,9.8061,2.0E-4,0.0,0.0,0.003186,-0.003896,0.632849,2017-10-28 12:41:55,64.22484489941192
0.10534488,0.0,9.720459,0.0021293017,-0.0010646508,0.0021293017,21.0,0.1002,0.0,9.8061,-0.0014,0.0,0.0,0.003236,-0.003958,0.632846,2017-10-28 12:41:56,56.449502611766874
0.11492168,0.0,9.739613,-0.0010646508,-0.0031939526,-0.0010646508,21.0,0.1013,0.0,9.8061,-0.0023999999,0.0,0.009699999,0.003271,-0.004,0.632844,2017-10-28 12:41:57,47.52772045136703
0.10534488,0.0,9.739613,0.0010646508,0.0,0.0,19.0,0.102199994,0.0,9.8061,-0.0034999999,0.0,-1.0E-4,0.003299,-0.004034,0.63284,2017-10-28 12:41:58,59.061536036243524
0.095768064,0.0,9.720459,0.0021293017,-0.007452556,0.0,21.0,0.0972,0.0,9.8061,0.011299999,0.0,0.0,0.003138,-0.003838,0.632838,2017-10-28 12:41:59,63.701258447606776
0.11492168,0.0,9.749189,0.0021293017,-0.0031939526,-0.0010646508,21.0,0.1003,0.0,9.8061,0.018199999,0.0,0.0098,0.003288,-0.004022,0.632834,2017-10-28 12:42:00,66.84899120065062
0.10534488,0.0,9.730036,0.0021293017,-0.0021293017,0.0,19.0,0.099,0.0,9.8061,-2.0E-4,0.0,0.0,0.003196,-0.003911,0.63283,2017-10-28 12:42:01,52.76478010925169
0.10534488,0.0,9.739613,0.0010646508,-0.0021293017,0.0,24.0,0.1008,0.0,9.8061,-0.0018999999,0.0,0.0,0.003254,-0.00398,0.632826,2017-10-28 12:42:02,66.99821393059035
0.095768064,0.0,9.739613,0.0,-0.0042586033,0.0,22.0,0.0973,0.0,9.8061,0.0013,0.0,-0.0098,0.00314,-0.00384,0.632823,2017-10-28 12:42:03,65.52280696426828
0.095768064,0.0,9.739613,0.0021293017,-0.0010646508,-0.0010646508,24.0,0.1004,0.0,9.8061,-0.011399999,0.0,0.019399999,0.003241,-0.003964,0.632819,2017-10-28 12:42:04,62.91867746758488
0.095768064,0.0,9.739613,-0.0010646508,0.0,-0.0010646508,25.0,0.1028,2.0E-4,9.8061,-0.0039999997,-2.0E-4,0.0195,0.003327,-0.004052,0.632814,2017-10-28 12:42:05,62.255264473673016
0.08619126,0.0,9.720459,0.0042586033,-0.0021293017,-0.0010646508,21.0,0.1008,0.0,9.8061,-0.0019999999,0.0,0.0,0.003257,-0.003979,0.632811,2017-10-28 12:42:06,59.25580946378812
0.11492168,0.0,9.739613,0.0010646508,-0.0021293017,-0.0010646508,22.0,0.103,0.0,9.8061,-0.0039999997,0.0,0.0196,0.003327,-0.004068,0.63280797,2017-10-28 12:42:07,65.25381485039007
0.12449849,0.0,9.720459,0.0021293017,0.0,0.0010646508,22.0,0.1006,0.0,9.8061,-0.0018,0.0,0.0,0.003246,-0.003971,0.632805,2017-10-28 12:42:08,68.08071708200978
0.11492168,0.0,9.739613,-0.0010646508,-0.0021293017,0.0,22.0,0.101799995,0.0,9.8061,-0.0030999999,0.0,0.0196,0.0032869999,-0.00402,0.632801,2017-10-28 12:42:09,58.043777356823526
0.12449849,0.0,9.720459,-0.0010646508,-0.0021293017,0.0010646508,21.0,0.1047,0.0,9.806,-0.0053,0.0,0.0492,0.0033779999,-0.004133,0.632796,2017-10-28 12:42:10,61.3302793016669
0.10534488,0.0,9.739613,0.0010646508,-0.0042586033,-0.0010646508,21.0,0.1011,0.0,9.8061,0.0177,0.0,0.0492,0.003263,-0.003992,0.632793,2017-10-28 12:42:11,66.35292139028992
0.11492168,0.0,9.749189,0.0021293017,-0.0010646508,-0.0021293017,24.0,0.1021,0.0,9.8061,-0.0033,0.0,0.0196,0.003296,-0.004032,0.632789,2017-10-28 12:42:12,64.83143112540675
0.11492168,0.0,9.749189,0.0,-0.0042586033,0.0,21.0,0.098699994,0.0,9.8061,-1.0E-4,0.0,-0.0098,0.003185,-0.003896,0.632786,2017-10-28 12:42:13,54.63550291913669
0.10534488,0.0,9.730036,0.0010646508,-0.0031939526,-0.0010646508,24.0,0.102,0.0,9.8061,-0.0033,0.0,0.0,0.003292,-0.004027,0.632782,2017-10-28 12:42:14,62.507082888913715
0.10534488,0.0,9.739613,0.0,-0.0010646508,0.0010646508,21.0,0.105299994,0.0,9.806,-0.0163,0.0,0.0,0.0034,-0.004159,0.632777,2017-10-28 12:42:15,67.96201199270715
0.10534488,0.0,9.730036,0.0,-0.0031939526,0.0,24.0,0.1002,0.0,9.8061,0.0082,0.0,-0.009699999,0.003236,-0.003959,0.632773,2017-10-28 12:42:16,70.69447979450007
0.1340753,-0.009576807,9.749189,0.0,0.0,0.0010646508,21.0,0.1015,0.0,9.8061,-0.0028,0.0,0.0686,0.003278,-0.00401,0.632769,2017-10-28 12:42:17,68.6679564069217
0.095768064,0.0,9.710882,0.0021293017,0.0021293017,0.0,21.0,0.10349999,8.0E-4,9.8061,0.0148,-8.0E-4,0.0686,0.003375,-0.004062,0.632764,2017-10-28 12:42:18,61.943501561221616
0.12449849,0.0,9.758766,-0.0010646508,-0.0010646508,-0.0021293017,22.0,0.103199996,0.0,9.8061,-0.0046,0.0,-0.0393,0.003328,-0.004076,0.63276,2017-10-28 12:42:19,66.31882036350717
0.10534488,0.0,9.730036,0.0010646508,-0.0010646508,-0.0010646508,24.0,0.1038,0.0,9.8061,-0.005,0.0,0.0,0.003349,-0.004098,0.632755,2017-10-28 12:42:20,66.49359813039352
0.11492168,0.0,9.720459,0.0010646508,-0.0010646508,-0.0021293017,21.0,0.1028,0.0,9.8061,0.0056999996,0.0,-0.0196,0.003319,-0.00406,0.632751,2017-10-28 12:42:21,61.92011724347736
0.10534488,0.0,9.739613,0.0010646508,-0.0021293017,0.0010646508,19.0,0.1029,0.0,9.8061,-0.0042,0.0,0.009699999,0.003323,-0.004065,0.632747,2017-10-28 12:42:22,66.31184945650618
0.10534488,0.0,9.739613,0.0021293017,-0.0010646508,-0.0010646508,21.0,0.103,0.0,9.8061,0.0053,0.0,0.0098,0.003324,-0.004067,0.632744,2017-10-28 12:42:23,63.32808196396079
0.10534488,0.0,9.710882,0.0021293017,-0.0021293017,0.0,22.0,0.1021,0.0,9.8061,0.015999999,0.0,-0.009699999,0.003313,-0.004053,0.632741,2017-10-28 12:42:24,62.7152261464234
0.11492168,0.0,9.691729,0.0021293017,-0.0010646508,0.0021293017,21.0,0.100499995,0.0,9.8061,-0.0023999999,0.0,-0.078499995,0.003245,-0.003971,0.632737,2017-10-28 12:42:25,66.31665455968508
0.10534488,0.0,9.710882,0.0021293017,-0.0010646508,0.0,22.0,0.0975,2.0E-4,9.8061,0.0111,-2.0E-4,0.0295,0.003158,-0.003843,0.632732,2017-10-28 12:42:26,58.29701397458201
0.11492168,0.0,9.730036,0.0,-0.0021293017,-0.0010646508,21.0,0.1008,0.0,9.8061,-0.0021,0.0,-0.0098,0.003255,-0.00398,0.632727,2017-10-28 12:42:27,67.18039734594188
0.095768064,0.0,9.739613,0.0031939526,-0.0010646508,-0.0010646508,25.0,0.1063,0.0,9.806,0.011899999,0.0,-0.0098,0.003431,-0.004197,0.632721,2017-10-28 12:42:28,66.43769719085593
0.10534488,0.0,9.730036,0.0010646508,-0.0031939526,-0.0021293017,24.0,0.104499996,0.0,9.806,0.0039,0.0,-0.0196,0.003372,-0.004126,0.632717,2017-10-28 12:42:29,68.2861785494364
0.11492168,0.0,9.720459,0.0021293017,-0.0021293017,-0.0010646508,24.0,0.0999,0.0,9.8061,0.0088,0.0,0.0099,0.003224,-0.0039439998,0.632713,2017-10-28 12:42:30,59.398568407151934
0.10534488,0.0,9.739613,0.0042586033,-0.0042586033,0.0010646508,21.0,0.0982,0.0,9.8061,-0.0189,0.0,-1.0E-4,0.003168,-0.003877,0.63271,2017-10-28 12:42:31,55.19007985408904
0.095768064,0.0,9.720459,0.0010646508,-0.0021293017,0.0010646508,21.0,0.1013,0.0,9.8061,0.0072,0.0,-0.0196,0.003271,-0.004001,0.632705,2017-10-28 12:42:32,50.25046132775296
0.095768064,0.0,9.758766,0.0010646508,-0.005323254,-0.0021293017,24.0,0.1043,0.0,9.806,0.0042,0.0,-0.029399998,0.003366,-0.004118,0.6327,2017-10-28 12:42:33,69.37902025450526
0.095768064,0.0,9.739613,-0.0010646508,-0.0042586033,0.0,21.0,0.0989,0.0,9.8061,0.0095999995,0.0,0.0,0.003193,-0.003907,0.632696,2017-10-28 12:42:34,64.90456808102613
0.10534488,0.0,9.749189,0.0031939526,-0.0010646508,-0.0010646508,24.0,0.100499995,0.0,9.8061,-0.021599999,0.0,-0.029299999,0.003242,-0.003968,0.632691,2017-10-28 12:42:35,66.35472687464392
0.11492168,0.0,9.701305,0.0010646508,-0.0010646508,0.0,21.0,0.0993,0.0,9.8061,-0.019399999,0.0,0.088199995,0.003204,-0.003921,0.632687,2017-10-28 12:42:36,62.03253519940698
0.10534488,0.0,9.739613,0.0021293017,-0.0021293017,0.0,25.0,0.0989,0.0,9.8061,0.009699999,0.0,0.0197,0.003192,-0.003905,0.632682,2017-10-28 12:42:37,68.58741230070477
0.10534488,0.0,9.739613,0.0010646508,-0.0031939526,0.0,24.0,0.100499995,0.0,9.8061,-0.0015,0.0,0.0196,0.003242,-0.003967,0.632677,2017-10-28 12:42:38,67.61777761706634
0.10534488,0.0,9.749189,-0.0031939526,0.0,-0.0010646508,22.0,0.0982,0.0,9.8061,4.9999997E-4,0.0,0.0,0.003167,-0.003877,0.632674,2017-10-28 12:42:39,54.79274566090828
0.11492168,0.0,9.720459,-0.0010646508,-0.0021293017,-0.0010646508,22.0,0.101799995,0.0,9.8061,-0.0026,0.0,0.0,0.0032859999,-0.00402,0.632669,2017-10-28 12:42:40,63.036767036172364
0.11492168,0.0,9.787497,0.0010646508,-0.005323254,0.0,21.0,0.1033,0.0,9.8061,-0.0044,0.0,-0.0098,0.003334,-0.00408,0.632665,2017-10-28 12:42:41,67.24156881708947
0.11492168,0.0,9.710882,0.0010646508,-0.0021293017,-0.0010646508,24.0,0.102699995,0.0,9.8061,0.0058999998,0.0,-0.0196,0.003277,-0.004009,0.632661,2017-10-28 12:42:42,67.36772285151757
0.10534488,0.0,9.720459,0.0,-0.0021293017,-0.0021293017,24.0,0.1037,0.0,9.8061,-0.0042999997,0.0,0.0392,0.003333,-0.004078,0.632657,2017-10-28 12:42:43,67.56077725831088
0.10534488,0.0,9.730036,0.0,-0.0021293017,0.0010646508,21.0,0.1015,0.0,9.8061,-0.012399999,0.0,0.009699999,0.003268,-0.003999,0.632652,2017-10-28 12:42:44,68.2588966010813
0.10534488,0.0,9.720459,-0.0010646508,-0.0010646508,0.0,19.0,0.1026,0.0,9.8061,0.0061,0.0,0.0098,0.003328,-0.004073,0.632648,2017-10-28 12:42:45,66.58045725742187
0.10534488,0.0,9.739613,0.0010646508,-0.0042586033,-0.0010646508,21.0,0.0997,0.0,9.8061,-0.010799999,0.0,-0.0099,0.003243,-0.003968,0.632643,2017-10-28 12:42:46,68.47289506541102
0.10534488,0.0,9.739613,-0.0010646508,-0.0021293017,-0.0010646508,21.0,0.101399995,0.0,9.8061,-0.0026,0.0,0.0098,0.003266,-0.003996,0.632638,2017-10-28 12:42:47,62.78509750799225
0.10534488,0.0,9.739613,0.0010646508,-0.0042586033,0.0010646508,21.0,0.0999,0.0,9.8061,0.0088,0.0,0.029399998,0.0032249999,-0.003947,0.632633,2017-10-28 12:42:48,67.0652925180363
0.095768064,0.0,9.730036,0.0010646508,-0.0010646508,0.0,22.0,0.100899994,0.0,9.8061,0.0078,0.0,0.0196,0.003255,-0.003984,0.632628,2017-10-28 12:42:49,41.508846567360905
0.11492168,0.0,9.730036,0.0010646508,0.0,-0.0010646508,22.0,0.0994,0.0,9.8061,-4.9999997E-4,0.0,0.0099,0.003208,-0.003926,0.632623,2017-10-28 12:42:50,39.917233046303735
0.11492168,0.0,9.730036,0.0031939526,-0.0010646508,0.0,19.0,0.1026,0.0,9.8061,0.0158,0.0,0.0196,0.00331,-0.004052,0.632617,2017-10-28 12:42:51,65.54903957827673
0.10534488,0.0,9.739613,0.0,-0.005323254,0.0,21.0,0.1037,0.0,9.8061,-0.0047999998,0.0,0.0,0.003346,-0.004095,0.632612,2017-10-28 12:42:52,67.8167399659607
0.11492168,0.0,9.720459,0.0031939526,0.0,-0.0010646508,21.0,0.102199994,0.0,9.8061,-0.0033,0.0,0.0098,0.003297,-0.004036,0.632607,2017-10-28 12:42:53,66.71965484354881
0.11492168,0.0,9.730036,0.0,-0.0021293017,-0.0010646508,19.0,0.0995,0.0,9.8061,-7.0E-4,0.0,-0.0099,0.003211,-0.003929,0.632602,2017-10-28 12:42:54,66.83843048048595
0.11492168,0.0,9.730036,0.0021293017,-0.0010646508,0.0010646508,22.0,0.100499995,0.0,9.8061,-0.0018,0.0,-0.0095999995,0.003244,-0.003971,0.632598,2017-10-28 12:42:55,63.0362427011958
0.11492168,0.0,9.730036,0.0031939526,-0.0021293017,0.0,24.0,0.1013,0.0,9.8061,0.0075,0.0,0.029399998,0.003268,-0.003999,0.632593,2017-10-28 12:42:56,69.14694405677317
0.095768064,0.0,9.739613,-0.0010646508,-0.0042586033,-0.0021293017,19.0,0.1037,0.0,9.8061,-0.014599999,0.0,0.0,0.003345,-0.004095,0.63258797,2017-10-28 12:42:57,69.73053793867902
0.095768064,0.0,9.730036,0.0021293017,0.0,0.0,21.0,0.0975,0.0,9.8061,0.0111,0.0,0.0098,0.003123,-0.003822,0.632585,2017-10-28 12:42:58,61.56894208673716
0.095768064,0.0,9.749189,0.0021293017,-0.0031939526,-0.0010646508,21.0,0.100499995,0.0,9.8061,-0.011399999,0.0,0.0098,0.003292,-0.004029,0.63257897,2017-10-28 12:42:59,67.65704023758359
0.10534488,0.0,9.710882,-0.0010646508,-0.0042586033,0.0010646508,21.0,0.0989,0.0,9.8061,-0.0099,0.0,-0.019299999,0.003193,-0.003909,0.632573,2017-10-28 12:43:00,69.42103790520518
0.11492168,0.0,9.749189,0.0010646508,0.0,-0.0010646508,21.0,0.1041,7.0E-4,9.806,-0.0150999995,-7.0E-4,0.01,0.003427,-0.004138,0.632568,2017-10-28 12:43:01,68.66989144914399
0.1436521,0.019153614,9.710882,0.0010646508,0.0021293017,0.0,19.0,0.1094,0.0011999999,9.806,-7.0E-4,-0.0011999999,0.0295,0.003572,-0.004282,0.63256,2017-10-28 12:43:02,69.04029005324567
0.095768064,0.0,9.710882,0.0,0.0010646508,-0.0010646508,24.0,0.102,1.0E-4,9.8061,0.0064,-1.0E-4,0.0196,0.003372,-0.004052,0.632545,2017-10-28 12:43:03,67.82088817639944
0.1340753,0.0,9.710882,-0.0010646508,0.0,0.0,21.0,0.102299996,1.0E-4,9.8061,-0.0131,-1.0E-4,0.0095999995,0.00324,-0.003956,0.632548,2017-10-28 12:43:04,69.59399378478757
0.11492168,0.0,9.758766,0.0010646508,-0.007452556,-0.0010646508,24.0,0.1055,-9.999999E-4,9.806,-0.0064999997,9.999999E-4,0.0197,0.003362,-0.004201,0.632514,2017-10-28 12:43:05,49.271850200246476
0.095768064,0.0,9.739613,0.0010646508,-0.0021293017,-0.0010646508,21.0,0.103099994,-1.0E-4,9.8061,-0.0042999997,1.0E-4,-0.009699999,0.00332,-0.004075,0.632508,2017-10-28 12:43:06,41.41711623405604
0.11492168,0.0,9.739613,-0.0021293017,-0.0031939526,0.0,25.0,0.0999,0.0,9.8061,0.008599999,0.0,0.0196,0.003224,-0.003948,0.632502,2017-10-28 12:43:07,44.520401474436646
0.10534488,0.0,9.730036,0.0021293017,-0.0010646508,-0.0021293017,25.0,0.1003,0.0,9.8061,-0.0015,0.0,0.0098,0.003238,-0.003964,0.632498,2017-10-28 12:43:08,54.30718624323855
0.10534488,0.0,9.739613,0.0031939526,-0.0021293017,0.0,21.0,0.1004,0.0,9.8061,-0.0014,0.0,0.019399999,0.003239,-0.003966,0.632493,2017-10-28 12:43:09,63.33575503745229
0.10534488,0.0,9.739613,0.0010646508,-0.0021293017,-0.0021293017,19.0,0.098699994,0.0,9.8061,-0.0098,0.0,-1.0E-4,0.003185,-0.003899,0.63249,2017-10-28 12:43:10,66.94789697194108
0.11492168,0.0,9.730036,0.0010646508,-0.0010646508,-0.0010646508,21.0,0.0971,0.0,9.8061,-0.0082,0.0,0.0,0.003133,-0.0038369999,0.632485,2017-10-28 12:43:11,64.73151431245888
0.11492168,0.0,9.739613,0.0010646508,0.0,0.0,19.0,0.099599995,0.0,9.8061,0.009,0.0,0.0099,0.003212,-0.003933,0.632481,2017-10-28 12:43:12,66.74925270761678
0.11492168,0.0,9.739613,0.0021293017,0.0,0.0021293017,19.0,0.1004,0.0,9.8061,-0.011399999,0.0,-0.0195,0.003239,-0.003965,0.632475,2017-10-28 12:43:13,70.30670741634034
0.11492168,0.0,9.730036,0.0010646508,-0.0021293017,0.0010646508,19.0,0.1004,0.0,9.8061,-0.0015,0.0,0.0,0.003239,-0.003965,0.632471,2017-10-28 12:43:14,65.02949655559952
0.10534488,0.0,9.730036,0.0,-0.0010646508,0.0010646508,21.0,0.0984,0.0,9.8061,0.010199999,0.0,0.0098,0.003201,-0.003919,0.632468,2017-10-28 12:43:15,69.91021821114859
0.11492168,0.0,9.739613,0.0021293017,-0.0042586033,0.0010646508,21.0,0.098799996,0.0,9.8061,0.0,0.0,0.0,0.003187,-0.003902,0.632463,2017-10-28 12:43:16,57.15326360850283
0.095768064,0.0,9.749189,0.0,-0.0031939526,0.0,25.0,0.099599995,0.0,9.8061,-9.0E-4,0.0,-0.0195,0.003182,-0.003896,0.632459,2017-10-28 12:43:17,41.603169367906645
0.11492168,0.0,9.749189,0.0010646508,-0.0010646508,0.0010646508,21.0,0.0995,0.0,9.8061,-8.0E-4,0.0,-0.009699999,0.003209,-0.003929,0.632452,2017-10-28 12:43:18,57.92600222265172
0.10534488,0.0,9.720459,0.0,-0.0042586033,-0.0021293017,21.0,0.100499995,0.0,9.8061,0.0082,0.0,0.0392,0.003243,-0.00397,0.632447,2017-10-28 12:43:19,67.62977565864111
0.10534488,0.0,9.749189,0.0,-0.0021293017,-0.0010646508,25.0,0.099999994,0.0,9.8061,0.0084,0.0,-0.009699999,0.003227,-0.003951,0.632441,2017-10-28 12:43:20,66.71674024644761
0.10534488,0.0,9.749189,-0.0010646508,-0.0021293017,0.0,24.0,0.1012,0.0,9.8061,-0.0122,0.0,0.0,0.003265,-0.003997,0.632436,2017-10-28 12:43:21,64.83974911830873
0.11492168,0.0,9.758766,0.0010646508,-0.0031939526,0.0010646508,24.0,0.100499995,0.0,9.8061,0.0078,0.0,-0.009699999,0.003243,-0.00397,0.63243,2017-10-28 12:43:22,42.8735125164813
0.10534488,0.0,9.749189,0.0021293017,0.0,0.0,24.0,0.1012,0.0,9.8061,-0.0123,0.0,0.0,0.003265,-0.003998,0.632424,2017-10-28 12:43:23,60.07585752579147
0.11492168,0.0,9.749189,0.0021293017,-0.0031939526,-0.0010646508,21.0,0.0999,0.0,9.8061,-0.011,0.0,-0.029399998,0.003223,-0.003946,0.632418,2017-10-28 12:43:24,65.261721535462
0.076614454,0.0,9.739613,0.0021293017,-0.0021293017,0.0,19.0,0.103599995,0.0,9.8061,0.0049,0.0,0.0,0.003342,-0.004094,0.632412,2017-10-28 12:43:25,63.1222522546906
0.10534488,0.0,9.730036,0.0010646508,-0.0021293017,0.0,19.0,0.099599995,-1.0E-4,9.8061,0.0088,1.0E-4,-0.009699999,0.003207,-0.00394,0.632406,2017-10-28 12:43:26,67.08516324083524
0.10534488,0.0,9.739613,0.0,-0.0021293017,0.0010646508,28.0,0.0982,-2.9999999E-4,9.8061,0.0104,2.9999999E-4,0.0,0.003154,-0.003891,0.632406,2017-10-28 12:43:27,60.40207381007682
0.10534488,0.0,9.730036,-0.0010646508,-0.0021293017,0.0010646508,19.0,0.1003,0.0,9.8061,0.0082,0.0,0.0098,0.003235,-0.003964,0.6324,2017-10-28 12:43:28,68.60201782784227
0.11492168,0.0,9.749189,0.0,-0.0031939526,-0.0010646508,22.0,0.1043,0.0,9.806,0.0042,0.0,-0.0098,0.003366,-0.004122,0.63239497,2017-10-28 12:43:29,58.33595805462924
0.10534488,0.0,9.730036,0.0021293017,-0.0021293017,-0.0010646508,21.0,0.099999994,0.0,9.8061,-0.0011999999,0.0,-0.0196,0.0032249999,-0.003949,0.632389,2017-10-28 12:43:30,65.96411969934442
0.095768064,0.0,9.739613,0.0010646508,-0.0021293017,0.0010646508,24.0,0.10349999,0.0,9.8061,-0.0046,0.0,0.0,0.003339,-0.004088,0.632383,2017-10-28 12:43:31,66.01874518842676
0.11492168,0.0,9.739613,0.0010646508,-0.0021293017,-0.0010646508,21.0,0.0997,0.0,9.8061,-9.999999E-4,0.0,-0.009699999,0.003216,-0.003939,0.632378,2017-10-28 12:43:32,62.37717204517709
0.11492168,0.0,9.749189,0.0010646508,-0.0010646508,0.0,19.0,0.0997,0.0,9.8061,-9.999999E-4,0.0,0.0195,0.003217,-0.00394,0.632373,2017-10-28 12:43:33,66.43543693899323
0.10534488,0.0,9.720459,0.0,-0.0010646508,0.0,21.0,0.101799995,0.0,9.8061,0.0066,0.0,-0.029299999,0.003285,-0.004022,0.632367,2017-10-28 12:43:34,68.76001015072333
0.10534488,0.0,9.739613,0.0,-0.0021293017,-0.0010646508,24.0,0.1011,0.0,9.8061,-0.0025,0.0,-0.0392,0.003262,-0.003995,0.632362,2017-10-28 12:43:35,62.383440723464574
0.10534488,0.0,9.787497,0.0010646508,-0.0010646508,0.0,19.0,0.1012,0.0,9.8061,-0.012399999,0.0,0.049,0.003266,-0.004,0.632358,2017-10-28 12:43:36,67.24062136064744
0.10534488,0.0,9.720459,0.0010646508,-0.0021293017,-0.0021293017,24.0,0.1015,0.0,9.8061,0.0069,0.0,-0.0195,0.003274,-0.00401,0.632353,2017-10-28 12:43:37,63.88263626527756
0.10534488,0.0,9.758766,0.0010646508,-0.0010646508,0.0010646508,19.0,0.1025,0.0,9.8061,-0.0042999997,0.0,-0.009699999,0.003307,-0.00405,0.632348,2017-10-28 12:43:38,61.16444486606056
0.10534488,0.0,9.739613,0.0010646508,-0.0010646508,-0.0010646508,21.0,0.098799996,0.0,9.8061,0.0391,0.0,0.009699999,0.003186,-0.003903,0.632342,2017-10-28 12:43:39,46.45719762323657
0.095768064,0.0,9.730036,0.0010646508,-0.0021293017,-0.0010646508,24.0,0.097799994,7.0E-4,9.8061,0.021,-7.0E-4,0.097899996,0.003185,-0.003839,0.632336,2017-10-28 12:43:40,64.92511249999579
0.095768064,0.0,9.749189,-0.0010646508,0.0,0.0,19.0,0.094799995,0.0,9.8061,-0.0053,0.0,0.0488,0.003043,-0.003721,0.632331,2017-10-28 12:43:41,66.01545345284569
0.10534488,0.0,9.749189,0.0010646508,-0.0010646508,0.0,19.0,0.0994,0.0,9.8061,-0.0098,0.0,0.029299999,0.003205,-0.003925,0.632324,2017-10-28 12:43:42,67.92219465143938
0.11492168,0.0,9.730036,0.0010646508,-0.0021293017,0.0,21.0,0.100899994,0.0,9.8061,0.0174,0.0,-0.0195,0.003254,-0.003987,0.632318,2017-10-28 12:43:43,66.24633249777659
0.10534488,0.0,9.739613,0.0010646508,-0.0010646508,-0.0010646508,23.0,0.100499995,0.0,9.8061,-0.0016,0.0,0.0,0.003241,-0.003969,0.632311,2017-10-28 12:43:44,65.09569846634338
0.10534488,0.0,9.730036,0.0,-0.0021293017,-0.0010646508,19.0,0.1004,0.0,9.8061,0.007999999,0.0,-0.0098,0.00324,-0.003968,0.632305,2017-10-28 12:43:45,65.19379676503061
0.10534488,0.0,9.749189,0.0010646508,-0.0021293017,-0.0010646508,21.0,0.0986,0.0,9.8061,0.0,0.0,0.0,0.003181,-0.003896,0.6323,2017-10-28 12:43:46,39.85726225242595
0.095768064,0.0,9.758766,0.0010646508,0.0010646508,0.0,25.0,0.102,0.0,9.8061,0.0064,0.0,0.029199999,0.00329,-0.004029,0.632293,2017-10-28 12:43:47,65.206028785438
0.10534488,0.0,9.720459,0.0021293017,-0.0031939526,-0.0010646508,19.0,0.1026,0.0,9.8061,-0.0039999997,0.0,-0.0197,0.003311,-0.004055,0.632287,2017-10-28 12:43:48,69.99128624246156
0.10534488,0.0,9.749189,0.0010646508,-0.0010646508,0.0,23.0,0.1046,-5.9999997E-4,9.806,0.0037999998,5.9999997E-4,-1.0E-4,0.003345,-0.004154,0.632283,2017-10-28 12:43:49,69.33451146625171
0.11492168,0.0,9.77792,0.0010646508,-0.0021293017,-0.0010646508,19.0,0.100499995,0.0,9.8061,-0.0014,0.0,0.0,0.003238,-0.003972,0.632278,2017-10-28 12:43:50,66.89154969553275
0.10534488,0.0,9.730036,0.0,-0.0031939526,-0.0010646508,19.0,0.098299995,0.0,9.8061,4.0E-4,0.0,-0.009699999,0.00317,-0.003884,0.632273,2017-10-28 12:43:51,69.24723062913262
0.10534488,0.0,9.730036,0.0010646508,-0.0021293017,-0.0010646508,21.0,0.1002,0.0,9.8061,-0.0015,0.0,-0.009699999,0.003233,-0.003961,0.632268,2017-10-28 12:43:52,66.67250303009362
0.10534488,0.0,9.749189,0.0042586033,-0.0010646508,0.0,21.0,0.0989,0.0,9.8061,-1.0E-4,0.0,0.0,0.003189,-0.003907,0.632261,2017-10-28 12:43:53,67.58769529216025
0.095768064,0.0,9.710882,0.0,-0.0010646508,0.0,21.0,0.099999994,0.0,9.8061,-0.0011999999,0.0,0.0,0.003226,-0.003951,0.632256,2017-10-28 12:43:54,66.7118163963575
0.10534488,0.0,9.720459,0.0,-0.0031939526,0.0,25.0,0.0982,0.0,9.8061,4.0E-4,0.0,0.0,0.003169,-0.003882,0.632251,2017-10-28 12:43:55,53.19170105212112
0.08619126,0.0,9.825804,0.0,-0.0021293017,-0.0021293017,25.0,0.0933,0.0,9.8062,-0.0042999997,0.0,0.0391,0.003008,-0.003685,0.632247,2017-10-28 12:43:56,59.71798052456908
0.10534488,0.0,9.797073,0.0010646508,-0.0021293017,0.0010646508,19.0,0.101399995,-2.9999999E-4,9.8061,-0.0026,2.9999999E-4,0.0098,0.0032559999,-0.004016,0.632242,2017-10-28 12:43:57,60.553205964299
0.10534488,0.0,9.730036,0.0010646508,-0.0031939526,-0.0010646508,19.0,0.0994,0.0,9.8061,-5.9999997E-4,0.0,0.0098,0.003204,-0.003928,0.632236,2017-10-28 12:43:58,59.59291086088092
0.10534488,0.0,9.682152,0.0021293017,-0.0031939526,-0.0010646508,21.0,0.097899996,0.0,9.8061,-0.009099999,0.0,-0.0196,0.003158,-0.003871,0.632232,2017-10-28 12:43:59,59.901344582093955
0.10534488,0.0,9.710882,0.0,-0.0031939526,0.0,21.0,0.103099994,0.0,9.8061,0.0055,0.0,0.0,0.003327,-0.004075,0.632223,2017-10-28 12:44:00,63.24340222848666
0.10534488,0.0,9.730036,0.0010646508,-0.0010646508,-0.0031939526,27.0,0.099,0.0,9.8061,-1.0E-4,0.0,0.0099,0.003194,-0.0039129998,0.63222,2017-10-28 12:44:01,65.78437561965697
0.10534488,0.0,9.730036,0.0021293017,-0.0021293017,0.0,21.0,0.0995,0.0,9.8061,-5.9999997E-4,0.0,0.0196,0.003208,-0.00393,0.632216,2017-10-28 12:44:02,71.46261652574557
0.12449849,0.0,9.864111,-0.0010646508,-0.0031939526,0.0,21.0,0.100499995,0.0,9.8061,-0.0016,0.0,-0.009699999,0.003241,-0.003972,0.63221097,2017-10-28 12:44:03,69.3360398145641
0.10534488,0.0,9.739613,0.0010646508,-0.0031939526,0.0,19.0,0.1012,0.0,9.8061,-0.0122,0.0,0.029399998,0.003265,-0.003999,0.632207,2017-10-28 12:44:04,66.35505602203895
0.10534488,0.0,9.739613,0.0010646508,-0.0021293017,0.0,23.0,0.0991,0.0,9.8061,-2.0E-4,0.0,0.019299999,0.003197,-0.003916,0.63220197,2017-10-28 12:44:05,55.89958637403845
0.11492168,0.0,9.720459,0.0010646508,-0.0021293017,-0.0010646508,24.0,0.0981,0.0,9.8061,4.9999997E-4,0.0,-0.009699999,0.003165,-0.003877,0.632198,2017-10-28 12:44:06,52.73936072175331
0.095768064,0.0,9.730036,0.0031939526,-0.0010646508,-0.0010646508,25.0,0.0982,0.0,9.8061,0.0104,0.0,0.0,0.003167,-0.003879,0.63219297,2017-10-28 12:44:07,66.34955739486078
0.10534488,0.0,9.739613,0.0021293017,-0.0031939526,-0.0021293017,21.0,0.0998,0.0,9.8061,-0.0011,0.0,0.0,0.00322,-0.003945,0.632189,2017-10-28 12:44:08,62.591209948249
0.11492168,0.0,9.739613,0.0031939526,-0.0010646508,0.0,21.0,0.1006,0.0,9.8061,-0.0018,0.0,-0.0195,0.003244,-0.003974,0.63218397,2017-10-28 12:44:09,59.73579771211342
0.11492168,0.0,9.739613,0.0021293017,0.0,0.0,17.0,0.0985,0.0,9.8061,0.01,0.0,-0.0099,0.003176,-0.003892,0.632179,2017-10-28 12:44:10,64.5819809022737
0.11492168,0.0,9.720459,0.0,-0.0021293017,0.0010646508,25.0,0.0977,0.0,9.8061,-0.0088,0.0,-0.009699999,0.00315,-0.00386,0.63217497,2017-10-28 12:44:11,69.08345514475002
0.095768064,0.0,9.739613,0.0,-0.0021293017,0.0010646508,21.0,0.0995,0.0,9.8061,0.009,0.0,0.0,0.003208,-0.00393,0.632171,2017-10-28 12:44:12,69.81225619389605
0.10534488,0.0,9.749189,0.0010646508,-0.0010646508,0.0010646508,22.0,0.105299994,-9.0E-4,9.806,-0.0064,9.0E-4,0.0197,0.003358,-0.004194,0.632157,2017-10-28 12:44:13,66.49115675493525
0.10534488,0.0,9.749189,0.0021293017,-0.0010646508,0.0010646508,24.0,0.0998,0.0,9.8061,-0.0106,0.0,0.0196,0.003212,-0.003946,0.632147,2017-10-28 12:44:14,67.40680989887002
0.11492168,0.0,9.749189,0.0,-0.0021293017,0.0010646508,24.0,0.099199995,0.0,9.8061,-4.9999997E-4,0.0,-0.0195,0.003197,-0.003919,0.632142,2017-10-28 12:44:15,61.040341885198394
0.10534488,0.0,9.749189,0.0031939526,-0.0010646508,0.0,24.0,0.099199995,0.0,9.8061,-5.9999997E-4,0.0,-0.009699999,0.003199,-0.003921,0.632136,2017-10-28 12:44:16,67.73560435042376
0.10534488,0.0,9.739613,0.0021293017,-0.0021293017,-0.0010646508,21.0,0.0999,0.0,9.8061,-0.0011,0.0,0.0,0.003219,-0.003945,0.632129,2017-10-28 12:44:17,63.15375671018526
0.10534488,0.0,9.730036,0.0010646508,-0.0010646508,-0.0021293017,22.0,0.096599996,0.0,9.8061,0.0019999999,0.0,-0.0196,0.003121,-0.003825,0.632125,2017-10-28 12:44:18,65.71241896970415
0.10534488,0.0,9.749189,0.0010646508,0.0,-0.0021293017,22.0,0.0977,0.0,9.8061,0.0106999995,0.0,-0.009699999,0.003153,-0.003863,0.632118,2017-10-28 12:44:19,66.10864846975201
0.10534488,0.0,9.730036,0.0010646508,-0.0021293017,0.0,22.0,0.099199995,0.0,9.8061,-0.010199999,0.0,0.0098,0.0032249999,-0.003952,0.632112,2017-10-28 12:44:20,61.53285246095975
0.11492168,0.0,9.730036,0.0021293017,-0.0021293017,0.0,19.0,0.097899996,0.0,9.8061,-0.009,0.0,-0.0195,0.003158,-0.00387,0.632105,2017-10-28 12:44:21,65.67048831343207
0.10534488,0.0,9.730036,-0.0010646508,-0.0021293017,-0.0021293017,22.0,0.1007,0.0,9.8061,-0.0018999999,0.0,-0.009699999,0.003245,-0.003978,0.6321,2017-10-28 12:44:22,57.54446892601052
0.095768064,0.0,9.77792,0.0010646508,-0.0021293017,-0.0010646508,24.0,0.099199995,0.0,9.8061,-4.9999997E-4,0.0,0.009699999,0.0032,-0.003921,0.632096,2017-10-28 12:44:23,59.890918040910044
0.10534488,0.0,9.730036,0.0,-0.0010646508,0.0010646508,22.0,0.1024,0.0,9.8061,0.0061999997,0.0,0.0391,0.003303,-0.004047,0.632091,2017-10-28 12:44:24,66.36330295279242
0.095768064,0.0,9.730036,-0.0010646508,-0.0042586033,-0.0010646508,24.0,0.0999,0.0,9.8061,-0.0011,0.0,0.0098,0.00322,-0.003946,0.632086,2017-10-28 12:44:25,65.5018711835373
0.10534488,0.0,9.739613,0.0010646508,-0.0021293017,0.0,24.0,0.098699994,0.0,9.8061,0.0,0.0,0.029399998,0.003183,-0.003901,0.63208,2017-10-28 12:44:26,66.1986547983741
0.095768064,0.0,9.720459,0.0021293017,-0.0010646508,-0.0010646508,25.0,0.097899996,0.0,9.8061,7.0E-4,0.0,-0.0099,0.003156,-0.0038669999,0.632074,2017-10-28 12:44:27,68.28677411430814
0.10534488,0.0,9.720459,0.0021293017,0.0,0.0,22.0,0.097799994,0.0,9.8061,0.0106,0.0,0.0,0.003155,-0.0038669999,0.632071,2017-10-28 12:44:28,63.88725610548982
0.11492168,0.0,9.720459,0.0,-0.0031939526,-0.0021293017,24.0,0.0964,0.0,9.8061,0.0019999999,0.0,-0.0196,0.003109,-0.003811,0.632067,2017-10-28 12:44:29,68.3378844017826
0.095768064,0.0,9.720459,0.0031939526,-0.0010646508,-0.0010646508,24.0,0.099199995,0.0,9.8061,-4.0E-4,0.0,-2.0E-4,0.003199,-0.003921,0.632062,2017-10-28 12:44:30,63.100999126587816
0.11492168,0.0,9.730036,0.0031939526,-0.0021293017,0.0010646508,19.0,0.0994,0.0,9.8061,-7.0E-4,0.0,-0.0196,0.003207,-0.00393,0.632061,2017-10-28 12:44:31,66.50507444002119
0.10534488,0.0,9.730036,0.0,-0.0010646508,-0.0021293017,24.0,0.098699994,0.0,9.8061,1.0E-4,0.0,-0.0098,0.003181,-0.003899,0.632067,2017-10-28 12:44:32,70.52310014112011
0.10534488,0.0,9.730036,-0.0010646508,0.0,0.0010646508,21.0,0.101399995,0.0,9.8061,0.0072999997,0.0,0.0,0.003269,-0.004007,0.632059,2017-10-28 12:44:33,69.30942778831665
0.10534488,0.0,9.739613,0.0010646508,-0.0031939526,-0.0010646508,21.0,0.1028,0.0,9.8061,-0.0039,0.0,0.0,0.003314,-0.004063,0.632052,2017-10-28 12:44:34,63.684539730154725
0.11492168,0.0,9.739613,0.0021293017,-0.0010646508,0.0010646508,23.0,0.0994,0.0,9.8061,-0.010199999,0.0,0.0098,0.003203,-0.003925,0.632047,2017-10-28 12:44:35,67.50265784261623
0.10534488,0.0,9.758766,-0.0010646508,-0.0010646508,0.0021293017,25.0,0.100499995,0.0,9.8061,-0.0016,0.0,0.0098,0.003235,-0.003965,0.632041,2017-10-28 12:44:36,65.65806343155909
0.11492168,0.0,9.730036,0.0010646508,-0.0031939526,0.0,21.0,0.097899996,0.0,9.8061,-0.0089,0.0,0.0098,0.003156,-0.003869,0.632036,2017-10-28 12:44:37,70.59796093458519
0.10534488,0.0,9.739613,0.0010646508,-0.005323254,0.0,21.0,0.1008,0.0,9.8061,-0.0018,0.0,0.0195,0.00325,-0.003983,0.632029,2017-10-28 12:44:38,68.54396896079501
0.10534488,0.0,9.730036,-0.0010646508,-0.0021293017,0.0,19.0,0.1007,0.0,9.8061,-0.0018999999,0.0,0.0,0.003248,-0.003981,0.632023,2017-10-28 12:44:39,66.92391510733488
0.095768064,0.0,9.739613,0.0,-0.0042586033,0.0010646508,21.0,0.0985,0.0,9.8061,4.0E-4,0.0,0.019299999,0.003177,-0.003895,0.63201797,2017-10-28 12:44:40,63.58495265925527
0.11492168,0.0,9.730036,0.0,-0.0010646508,0.0031939526,21.0,0.0949,7.0E-4,9.8061,-0.0056999996,-7.0E-4,0.019299999,0.00309,-0.003727,0.632016,2017-10-28 12:44:41,58.85789874219203
0.10534488,0.0,9.730036,0.0010646508,-0.0021293017,0.0,21.0,0.0998,0.0,9.8061,-9.0E-4,0.0,0.0,0.003221,-0.003942,0.63200897,2017-10-28 12:44:42,68.01544688439313
0.10534488,0.0,9.720459,0.0010646508,-0.0021293017,0.0,19.0,0.0998,0.0,9.8061,-9.0E-4,0.0,0.0,0.003218,-0.003945,0.632004,2017-10-28 12:44:43,69.67449175783304
0.10534488,0.0,9.739613,0.0010646508,-0.0010646508,-0.0021293017,21.0,0.103199996,0.0,9.8061,0.0053999997,0.0,-0.0295,0.003326,-0.004079,0.631997,2017-10-28 12:44:44,67.3389351441407
0.10534488,0.0,9.739613,0.0,-0.0010646508,0.0010646508,21.0,0.101399995,0.0,9.8061,-0.0025,0.0,-1.0E-4,0.003269,-0.004007,0.631992,2017-10-28 12:44:45,64.54863852595695
0.11492168,-0.009576807,9.701305,0.0010646508,-0.0021293017,-0.0010646508,19.0,0.104499996,0.0,9.806,-0.0056999996,0.0,-0.029299999,0.003369,-0.004131,0.631983,2017-10-28 12:44:46,69.40222363061407
0.11492168,0.0,9.682152,-0.0010646508,-0.0021293017,0.0,21.0,0.1151,0.0,9.8059,-0.0064999997,0.0,-0.019399999,0.003383,-0.0047999998,0.576423,2017-10-28 12:44:47,74.1755026412543
0.11492168,0.0,9.701305,0.0021293017,-0.0021293017,-0.0010646508,21.0,0.1065,0.0106999995,9.806,0.0021,-0.0106,-0.048899997,0.003597,-0.004104,0.580658,2017-10-28 12:44:48,75.22027320810142
0.095768064,0.0,9.739613,0.0021293017,-0.0010646508,0.0,19.0,0.101399995,0.012,9.8061,-0.0025,-0.011899999,-0.0195,0.003517,-0.003839,0.583873,2017-10-28 12:44:49,66.93104791767544
0.11492168,0.0,9.730036,0.0010646508,-0.0021293017,-0.0021293017,19.0,0.1007,0.0013,9.8061,-0.0018999999,-0.0013,0.009699999,0.003055,-0.004132,0.583953,2017-10-28 12:44:50,62.615095137029925
0.10534488,0.0,9.701305,0.0,0.0,0.0010646508,21.0,0.101799995,4.0E-4,9.8061,0.0069,-4.0E-4,0.0,0.003053,-0.004201,0.583953,2017-10-28 12:44:51,64.93688601988613
0.10534488,0.0,9.662998,0.0010646508,-0.0021293017,0.0,24.0,0.10349999,0.0,9.8061,-0.0039999997,0.0,0.0098,0.003085,-0.004282,0.583952,2017-10-28 12:44:52,68.4509910122316
0.11492168,0.0,9.605537,0.0,-0.0031939526,0.0010646508,21.0,0.102,0.0,9.8061,0.0075999997,0.0,-0.0295,0.00304,-0.004223,0.583953,2017-10-28 12:44:53,57.46247587269413
0.095768064,0.0,9.615114,0.0021293017,-0.0031939526,-0.0010646508,19.0,0.103099994,0.0,9.8061,-0.0028,0.0,-0.009699999,0.003071,-0.004267,0.583953,2017-10-28 12:44:54,68.04386055049501
0.11492168,0.0,9.595961,-0.0010646508,0.0,0.0,21.0,0.104399994,0.0,9.806,-0.0042,0.0,0.0,0.00311,-0.004322,0.583955,2017-10-28 12:44:55,63.182282363776
0.10534488,0.0,9.624691,0.0010646508,-0.0010646508,-0.0010646508,25.0,0.1011,0.0,9.8061,-0.0011,0.0,-0.01,0.003012,-0.004185,0.583956,2017-10-28 12:44:56,57.47400788932315
0.10534488,0.0,9.615114,-0.0010646508,-0.0021293017,0.0010646508,21.0,0.102199994,0.0,9.8061,-0.0021,0.0,0.0,0.0030419999,-0.004231,0.583956,2017-10-28 12:44:57,50.92782726948866
0.11492168,0.0,9.634268,0.0,0.0,-0.0010646508,24.0,0.1016,0.0,9.8061,0.0082,0.0,0.0,0.003025,-0.004207,0.583957,2017-10-28 12:44:58,50.669893193251234
0.11492168,0.0,9.653421,0.0010646508,-0.0031939526,0.0021293017,19.0,0.102299996,0.0,9.8061,0.0072,0.0,0.0,0.003047,-0.004237,0.58395797,2017-10-28 12:44:59,66.85864493112166
0.11492168,0.0,9.672575,0.006387905,0.0,-0.0010646508,21.0,0.1029,0.0,9.8061,0.0063,0.0,-0.009699999,0.003064,-0.004262,0.583959,2017-10-28 12:45:00,70.08095912580883
0.10534488,0.0,9.672575,0.0,-0.0010646508,0.0021293017,24.0,0.1042,0.0,9.806,0.0050999997,0.0,0.0,0.003102,-0.004315,0.583961,2017-10-28 12:45:01,69.85305781229467
0.12449849,0.0,9.653421,0.0,0.0,0.0,17.0,0.1017,0.0,9.8061,-0.0021,0.0,0.0,0.003029,-0.004213,0.583962,2017-10-28 12:45:02,46.56167567945957
0.10534488,0.0,9.662998,-0.0031939526,0.0010646508,0.0,24.0,0.102,0.0,9.8061,-0.0023999999,0.0,0.0,0.003037,-0.004224,0.583962,2017-10-28 12:45:03,43.2265630980126
0.10534488,0.0,9.643845,0.0,0.0010646508,0.0,19.0,0.102,0.0,9.8061,0.0072999997,0.0,-0.0098,0.003037,-0.004226,0.583963,2017-10-28 12:45:04,59.648159331196354
0.1340753,0.009576807,9.682152,0.007452556,0.005323254,0.0,19.0,0.1148,-0.0074,9.8059,0.0046,0.0072999997,0.0393,0.003044,-0.005014,0.573391,2017-10-28 12:45:05,57.63701318843469
0.11492168,0.0,9.643845,0.0010646508,0.0,0.0010646508,19.0,0.0881,0.0435,9.8061,0.0211,-0.042799998,-0.0098,0.004406,-0.002389,0.576818,2017-10-28 12:45:06,65.9834481983392
0.10534488,0.0,9.710882,0.0,-0.0010646508,0.0,21.0,0.088599995,0.0317,9.8061,0.0106,-0.0313,0.009699999,0.00396,-0.002714,0.585527,2017-10-28 12:45:07,48.21456034212162
0.10534488,0.0,9.720459,-0.0010646508,-0.0010646508,0.0,25.0,0.1007,5.9999997E-4,9.8061,0.007999999,-5.9999997E-4,0.0,0.003034,-0.004143,0.585658,2017-10-28 12:45:08,64.9438212859283
0.10534488,0.0,9.739613,-0.0021293017,-0.0021293017,-0.0021293017,19.0,0.1017,0.0,9.8061,0.0067999996,0.0,-0.009699999,0.003032,-0.004194,0.585663,2017-10-28 12:45:09,70.38573803171077
0.095768064,0.0,9.749189,-0.0010646508,-0.0010646508,0.0,21.0,0.103,0.0,9.8061,0.0055,0.0,0.0,0.003038,-0.004209,0.585663,2017-10-28 12:45:10,59.27917298206786
0.11492168,0.0,9.739613,0.0,-0.0010646508,0.0010646508,21.0,0.1024,0.0,9.8061,-0.0034999999,0.0,0.0,0.003049,-0.004223,0.585663,2017-10-28 12:45:11,63.269106584198596
0.10534488,0.0,9.739613,0.0,0.0,0.0010646508,25.0,0.1033,0.0,9.8061,0.0053,0.0,0.0195,0.0030729999,-0.004256,0.585664,2017-10-28 12:45:12,69.11984748464386
0.12449849,0.0,9.749189,0.0010646508,-0.0031939526,-0.0010646508,21.0,0.106199995,0.0,9.806,0.0022,0.0,-0.02,0.00317,-0.004391,0.585664,2017-10-28 12:45:13,45.085656772340606
0.10534488,0.0,9.739613,0.0,-0.0010646508,0.0010646508,21.0,0.1042,0.0,9.806,-0.015,0.0,0.0197,0.003111,-0.004309,0.585664,2017-10-28 12:45:14,50.31117736843509
0.11492168,0.0,9.739613,-0.0010646508,-0.0021293017,0.0,19.0,0.103099994,2.0E-4,9.8061,0.0058,-2.0E-4,0.0195,0.003089,-0.004254,0.585665,2017-10-28 12:45:15,63.90985158975221
0.10534488,0.0,9.710882,0.0,-0.0010646508,0.0,21.0,0.1015,0.0,9.8061,-0.0025,0.0,0.0098,0.003032,-0.004196,0.585665,2017-10-28 12:45:16,70.33889477526733
0.10534488,0.0,9.701305,-0.0021293017,-0.0021293017,0.0,24.0,0.1033,0.0,9.8061,0.0053,0.0,0.0098,0.003084,-0.004271,0.585666,2017-10-28 12:45:17,70.57190431283657
0.10534488,0.0,9.701305,0.0,-0.0010646508,0.0010646508,21.0,0.1013,0.0,9.8061,-0.0026,0.0,0.0,0.003025,-0.00419,0.585667,2017-10-28 12:45:18,61.599354284432025
0.10534488,0.0,9.662998,0.0010646508,-0.0021293017,0.0,24.0,0.102199994,0.0,9.8061,-0.0034999999,0.0,0.029299999,0.003053,-0.004228,0.585667,2017-10-28 12:45:19,68.84281684798125
0.095768064,0.0,9.730036,-0.0021293017,-0.0010646508,0.0,24.0,0.1037,0.0,9.8061,-0.0041,0.0,0.097799994,0.003096,-0.004287,0.585667,2017-10-28 12:45:20,56.23142424328335
0.10534488,0.0,9.739613,-0.0010646508,-0.0031939526,0.0010646508,21.0,0.1028,1.0E-4,9.8061,-0.0039,-1.0E-4,0.0,0.003076,-0.004244,0.585666,2017-10-28 12:45:21,64.02876739321383
0.10534488,0.0,9.739613,-0.0010646508,-0.0021293017,0.0,21.0,0.1011,0.0,9.8061,-0.0023,0.0,0.0098,0.003021,-0.004181,0.585667,2017-10-28 12:45:22,58.70185004588378
0.10534488,0.0,9.739613,-0.0010646508,-0.0042586033,-0.0010646508,19.0,0.103,0.0,9.8061,-0.0041,0.0,0.009699999,0.003077,-0.00426,0.585668,2017-10-28 12:45:23,55.82317470203705
0.095768064,0.0,9.739613,0.0010646508,-0.0021293017,0.0010646508,21.0,0.1003,0.0,9.8061,-0.0015,0.0,-0.0098,0.002995,-0.004146,0.585668,2017-10-28 12:45:24,62.670457082336306
0.11492168,0.0,9.730036,-0.0021293017,-0.0010646508,0.0010646508,19.0,0.100099996,0.0,9.8061,0.0082,0.0,-0.0195,0.002988,-0.004137,0.58567,2017-10-28 12:45:25,68.45670497080269
0.10534488,0.0,9.730036,-0.0010646508,-0.0021293017,-0.0010646508,21.0,0.1002,0.0,9.8061,-0.0014,0.0,0.0098,0.002991,-0.004142,0.585669,2017-10-28 12:45:26,57.48111171652226
0.095768064,0.0,9.758766,-0.0010646508,-0.0021293017,0.0,21.0,0.1016,0.0,9.8061,0.0067,0.0,-0.029299999,0.003034,-0.004201,0.585669,2017-10-28 12:45:27,65.29453704968418
0.10534488,0.0,9.720459,-0.0021293017,0.0010646508,0.0,21.0,0.106,1.0E-4,9.806,-0.0074,-1.0E-4,-0.0391,0.003175,-0.004378,0.585669,2017-10-28 12:45:28,59.27042027542899
0.10534488,0.0,9.701305,0.0010646508,-0.0010646508,0.0,19.0,0.103,0.0,9.8061,0.0150999995,0.0,-0.0391,0.003076,-0.004257,0.585669,2017-10-28 12:45:29,68.52548976629367
0.10534488,0.0,9.730036,0.0010646508,-0.0021293017,0.0,21.0,0.102299996,0.0,9.8061,0.0064,0.0,-0.009699999,0.003056,-0.00423,0.58567,2017-10-28 12:45:30,63.446240426094604
0.10534488,0.0,9.730036,0.0010646508,0.0,0.0010646508,21.0,0.1012,0.0,9.8061,-0.0022,0.0,0.0,0.003023,-0.004184,0.585671,2017-10-28 12:45:31,60.2988299272847
0.10534488,0.0,9.730036,0.0,-0.0010646508,0.0,19.0,0.102699995,0.0,9.8061,-0.0037,0.0,0.0,0.003068,-0.004247,0.585671,2017-10-28 12:45:32,57.69865201614988
0.11492168,0.0,9.730036,0.0010646508,-0.0010646508,0.0021293017,19.0,0.1017,0.0,9.8061,-0.0028,0.0,-0.0098,0.003055,-0.004228,0.585672,2017-10-28 12:45:33,64.03761215810928
0.10534488,0.0,9.739613,0.0010646508,-0.0010646508,0.0,21.0,0.101399995,0.0,9.8061,-0.0026999998,0.0,-0.0391,0.003021,-0.004182,0.585674,2017-10-28 12:45:34,69.30181986243828
0.10534488,0.0,9.730036,0.0010646508,-0.0021293017,0.0010646508,25.0,0.1046,0.0,9.806,0.0039,0.0,-0.009699999,0.00311,-0.004304,0.585674,2017-10-28 12:45:35,66.63926200491596
0.10534488,0.0,9.739613,-0.0010646508,-0.0010646508,0.0,21.0,0.104499996,0.0,9.806,0.0039999997,0.0,-0.009699999,0.003122,-0.004321,0.585675,2017-10-28 12:45:36,53.5487842170015
0.10534488,0.0,9.730036,0.0010646508,-0.0031939526,0.0,24.0,0.102299996,0.0,9.8061,-0.0034999999,0.0,0.0,0.003057,-0.00423,0.585675,2017-10-28 12:45:37,54.54907656736094
0.11492168,0.0,9.739613,0.0,-0.0021293017,-0.0021293017,19.0,0.1015,0.0,9.8061,-0.0026999998,0.0,-0.0095999995,0.003034,-0.004198,0.585675,2017-10-28 12:45:38,68.93639310966729
0.11492168,0.0,9.730036,0.0010646508,0.0,-0.0010646508,21.0,0.100499995,0.0,9.8061,-0.0016,0.0,-2.0E-4,0.003002,-0.004153,0.585676,2017-10-28 12:45:39,65.705274363064
0.10534488,0.0,9.710882,0.0021293017,-0.0021293017,0.0,21.0,0.1019,0.0,9.8061,-0.003,0.0,-0.019399999,0.003044,-0.004213,0.585676,2017-10-28 12:45:40,55.66667533307101
0.11492168,0.0,9.739613,0.0,-0.0031939526,-0.0010646508,21.0,0.0989,0.0,9.8061,-0.0098,0.0,0.058799997,0.002953,-0.004088,0.585676,2017-10-28 12:45:41,40.08735601557382
0.11492168,0.0,9.730036,0.0021293017,-0.0021293017,0.0010646508,25.0,0.1012,0.0,9.8061,0.0075999997,0.0,0.009699999,0.003024,-0.004185,0.585677,2017-10-28 12:45:42,54.75469015956182
0.10534488,0.0,9.730036,0.0010646508,-0.0031939526,0.0,24.0,0.101399995,0.0,9.8061,-0.0023,0.0,0.0,0.003029,-0.004193,0.585678,2017-10-28 12:45:43,60.19123452220918
0.11492168,0.0,9.720459,0.0010646508,0.0,-0.0021293017,21.0,0.1016,0.0,9.8061,-0.0026999998,0.0,-0.0098,0.003036,-0.004201,0.585678,2017-10-28 12:45:44,66.6015703590085
0.10534488,0.0,9.720459,0.0010646508,-0.0010646508,0.0010646508,21.0,0.099199995,0.0,9.8061,0.0093,0.0,0.0,0.002964,-0.004102,0.58568,2017-10-28 12:45:45,65.94402294092421
0.10534488,0.0,9.710882,0.0,-0.0021293017,0.0,25.0,0.100499995,0.0,9.8061,-0.011399999,0.0,-0.0098,0.003002,-0.004156,0.58568,2017-10-28 12:45:46,70.74903735389461
0.10534488,0.0,9.701305,0.0,0.0010646508,0.0021293017,22.0,0.100099996,0.0,9.8061,-0.0013,0.0,0.009699999,0.002992,-0.00414,0.585681,2017-10-28 12:45:47,64.88301902590204
0.10534488,0.0,9.730036,0.0031939526,-0.0010646508,0.0,24.0,0.1006,0.0,9.8061,-0.0117,0.0,-0.009699999,0.003007,-0.00416,0.585681,2017-10-28 12:45:48,63.66114375081607
0.11492168,0.0,9.730036,0.0010646508,-0.0031939526,0.0010646508,25.0,0.1011,0.0,9.8061,0.0072999997,0.0,0.0,0.003022,-0.004181,0.585681,2017-10-28 12:45:49,61.80905444433617
0.095768064,0.0,9.720459,0.0,-0.0031939526,-0.0010646508,22.0,0.1003,0.0,9.8061,-0.0015,0.0,0.0,0.002996,-0.004145,0.585681,2017-10-28 12:45:50,68.3278138053536
0.11492168,0.0,9.730036,0.0010646508,-0.005323254,0.0,22.0,0.1015,0.0,9.8061,-0.0025,0.0,0.009699999,0.003033,-0.004196,0.585681,2017-10-28 12:45:51,70.13741099644061
0.10534488,0.0,9.730036,0.0,-0.0010646508,0.0,24.0,0.1038,0.0,9.8061,0.0148,0.0,0.0196,0.0031,-0.004291,0.585682,2017-10-28 12:45:52,63.12014392023371
0.10534488,0.0,9.730036,0.0010646508,-0.0021293017,0.0,21.0,0.1016,0.0,9.8061,0.0069,0.0,-0.0196,0.003034,-0.004199,0.585683,2017-10-28 12:45:53,62.29404902501539
0.10534488,0.0,9.710882,0.0010646508,-0.0010646508,0.0,21.0,0.102,0.0,9.8061,-0.0026,0.0,0.029399998,0.003046,-0.004215,0.585685,2017-10-28 12:45:54,68.70720421025001
0.10534488,0.0,9.730036,0.0021293017,0.0,0.0010646508,24.0,0.1033,0.0,9.8061,-0.0042,0.0,0.0098,0.003088,-0.004272,0.585684,2017-10-28 12:45:55,47.66348376740213
0.11492168,0.0,9.730036,0.0,-0.0042586033,0.0010646508,24.0,0.1026,0.0,9.8061,0.006,0.0,0.0,0.003065,-0.00424,0.585685,2017-10-28 12:45:56,58.62484972063491
0.11492168,0.0,9.701305,0.0010646508,-0.0031939526,0.0,22.0,0.0997,0.0,9.8061,0.0089,0.0,-0.009699999,0.002977,-0.004121,0.585685,2017-10-28 12:45:57,67.12494844830162
0.10534488,0.0,9.720459,0.0,-0.0031939526,-0.0010646508,24.0,0.100999996,0.0,9.8061,0.0075999997,0.0,0.0,0.003013,-0.004169,0.585684,2017-10-28 12:45:58,63.6900140782126
0.10534488,0.0,9.730036,0.0,-0.0021293017,0.0,24.0,0.1019,0.0,9.8061,-0.003,0.0,0.0,0.003037,-0.004202,0.585684,2017-10-28 12:45:59,60.58472243491345
0.11492168,0.0,9.730036,0.0,-0.0031939526,-0.0010646508,21.0,0.1004,0.0,9.8061,0.0082,0.0,-0.0195,0.00302,-0.004179,0.585685,2017-10-28 12:46:00,62.49052928881815
0.10534488,0.0,9.730036,0.0010646508,-0.0021293017,0.0010646508,21.0,0.0995,0.0,9.8061,-5.9999997E-4,0.0,-0.0197,0.00297,-0.004109,0.585685,2017-10-28 12:46:01,64.77816193886606
0.10534488,0.0,9.730036,0.0010646508,-0.0010646508,0.0010646508,22.0,0.100499995,0.0,9.8061,0.007999999,0.0,-0.009699999,0.002998,-0.004149,0.585685,2017-10-28 12:46:02,63.271619419584766
0.10534488,0.0,9.730036,-0.0010646508,-0.0010646508,-0.0010646508,22.0,0.1033,0.0,9.8061,-0.0046,0.0,-0.009699999,0.003074,-0.004254,0.585685,2017-10-28 12:46:03,70.9018302442731
0.10534488,0.0,9.758766,0.0010646508,0.0021293017,-0.0021293017,21.0,0.101399995,0.0,9.8061,-0.0026,0.0,0.0,0.003029,-0.004191,0.585685,2017-10-28 12:46:04,67.95562978402033
0.11492168,0.0,9.749189,0.0,-0.0010646508,-0.0010646508,21.0,0.103,0.0,9.8061,0.0055,0.0,0.009699999,0.003076,-0.004259,0.585685,2017-10-28 12:46:05,65.45341267287908
0.10534488,0.0,9.710882,0.0,-0.0031939526,0.0,21.0,0.099999994,0.0,9.8061,-0.0011,0.0,0.0,0.002987,-0.004134,0.585686,2017-10-28 12:46:06,63.4744277877974
0.10534488,0.0,9.730036,0.0021293017,-0.0021293017,0.0010646508,22.0,0.1017,0.0,9.8061,-0.0028,0.0,0.0,0.003037,-0.004202,0.585686,2017-10-28 12:46:07,46.702435186190115
0.11492168,0.0,9.730036,-0.0010646508,-0.0042586033,-0.0010646508,21.0,0.100999996,0.0,9.8061,-0.0022,0.0,-0.019399999,0.003017,-0.004176,0.585686,2017-10-28 12:46:08,53.573095630411736
0.10534488,0.0,9.739613,-0.0010646508,-0.0021293017,-0.0021293017,25.0,0.101799995,-2.0E-4,9.8061,-0.003,2.0E-4,-0.0098,0.003028,-0.004216,0.585684,2017-10-28 12:46:09,61.19433701474729
0.095768064,0.0,9.739613,0.0010646508,0.0010646508,0.0,19.0,0.099599995,0.0,9.8061,-0.0106,0.0,-0.0099,0.002973,-0.004118,0.585684,2017-10-28 12:46:10,60.068650728487725
0.08619126,0.0,9.749189,0.0010646508,0.0010646508,0.0,24.0,0.1004,0.0,9.8061,-0.0016,0.0,1.0E-4,0.003,-0.004153,0.585684,2017-10-28 12:46:11,65.40047223876103
0.10534488,0.0,9.730036,0.0,-0.0042586033,-0.0010646508,19.0,0.0991,0.0,9.8061,0.0094,0.0,-0.0098,0.002962,-0.004098,0.585684,2017-10-28 12:46:12,66.91324090540093
0.10534488,0.0,9.730036,0.0010646508,-0.0021293017,0.0010646508,25.0,0.0989,0.0,9.8061,-1.0E-4,0.0,-0.009699999,0.002954,-0.004088,0.585684,2017-10-28 12:46:13,69.11473128436738
0.10534488,0.0,9.739613,0.0,-0.0021293017,-0.0021293017,21.0,0.098699994,0.0,9.8061,0.0,0.0,0.0098,0.0029499999,-0.004082,0.585684,2017-10-28 12:46:14,68.17926683545397
0.095768064,0.0,9.739613,0.0021293017,-0.0021293017,0.0,21.0,0.0993,0.0,9.8061,0.009,0.0,-0.029399998,0.002966,-0.004105,0.585684,2017-10-28 12:46:15,64.10503287430245
0.10534488,0.0,9.730036,0.0010646508,-0.0021293017,-0.0010646508,24.0,0.099999994,0.0,9.8061,-0.0111,0.0,-0.0195,0.002986,-0.004133,0.585684,2017-10-28 12:46:16,66.41346628410099
0.10534488,0.0,9.730036,0.0021293017,-0.0021293017,-0.0010646508,22.0,0.099599995,0.0,9.8061,-0.010799999,0.0,-0.0099,0.002976,-0.004118,0.585684,2017-10-28 12:46:17,48.7608332996616
0.11492168,0.0,9.730036,0.0010646508,-0.0021293017,0.0,28.0,0.099199995,0.0,9.8061,-0.010199999,0.0,0.0196,0.002965,-0.004102,0.585684,2017-10-28 12:46:18,62.11221622819201
0.10534488,0.0,9.730036,0.0010646508,-0.0010646508,0.0,22.0,0.1011,0.0,9.8061,0.0074,0.0,0.0,0.003021,-0.00418,0.585683,2017-10-28 12:46:19,61.37560401213012
0.095768064,0.0,9.758766,0.0021293017,0.0,-0.0010646508,21.0,0.0986,0.0,9.8061,-0.0095999995,0.0,-0.0196,0.002945,-0.004075,0.585684,2017-10-28 12:46:20,65.92891494676006
0.10534488,0.0,9.749189,0.0031939526,-0.0042586033,0.0,21.0,0.099199995,0.0,9.8061,-4.0E-4,0.0,-0.0098,0.002964,-0.004101,0.585684,2017-10-28 12:46:21,70.5634081062671
0.10534488,0.0,9.720459,0.0021293017,-0.0021293017,-0.0010646508,25.0,0.0967,0.0,9.8061,0.0021,0.0,0.0,0.002888,-0.003996,0.585684,2017-10-28 12:46:22,67.87134573179154
0.10534488,0.0,9.739613,0.0010646508,-0.0021293017,0.0,22.0,0.099199995,0.0,9.8061,0.0092,0.0,-0.0196,0.002964,-0.004102,0.585684,2017-10-28 12:46:23,63.61174372599073
0.11492168,0.0,9.749189,-0.0010646508,-0.0021293017,0.0,24.0,0.097899996,0.0,9.8061,0.0106,0.0,0.0,0.002926,-0.004049,0.585684,2017-10-28 12:46:24,67.39110566345416
0.10534488,0.0,9.758766,-0.0010646508,-0.0031939526,0.0,25.0,0.0973,0.0,9.8061,0.0014,0.0,0.0098,0.002906,-0.004022,0.585683,2017-10-28 12:46:25,64.72884668354438
0.11492168,0.0,9.749189,0.0021293017,-0.0010646508,0.0,21.0,0.097799994,0.0,9.8061,8.0E-4,0.0,-1.0E-4,0.002922,-0.004043,0.585683,2017-10-28 12:46:26,67.85170617544856
0.10534488,0.0,9.739613,0.0031939526,-0.0021293017,0.0,19.0,0.0981,0.0,9.8061,7.0E-4,0.0,0.0196,0.00293,-0.004055,0.585683,2017-10-28 12:46:27,62.74804998760434
0.10534488,0.0,9.720459,0.0010646508,-0.0010646508,-0.0010646508,21.0,0.0997,0.0,9.8061,-0.0106999995,0.0,0.0,0.00298,-0.004123,0.585682,2017-10-28 12:46:28,68.11811229459514
0.11492168,0.0,9.720459,0.0,-0.0021293017,0.0010646508,21.0,0.098699994,0.0,9.8061,0.0,0.0,-0.0098,0.0029499999,-0.004081,0.585682,2017-10-28 12:46:29,63.43921505198641
0.10534488,0.0,9.739613,0.0010646508,-0.0042586033,0.0010646508,22.0,0.099199995,0.0,9.8061,-4.0E-4,0.0,-0.0099,0.002939,-0.0040659998,0.585681,2017-10-28 12:46:30,69.50881005440445
0.10534488,0.0,9.720459,0.0010646508,0.0010646508,-0.0010646508,21.0,0.0984,0.0,9.8061,4.0E-4,0.0,-1.0E-4,0.002942,-0.00407,0.585681,2017-10-28 12:46:31,62.94032987747841
0.12449849,0.0,9.720459,0.0010646508,-0.0010646508,0.0,22.0,0.1013,0.0,9.8061,-0.0123,0.0,-0.0098,0.003021,-0.00418,0.58568,2017-10-28 12:46:32,65.60472223491644
0.11492168,0.0,9.710882,0.0021293017,-0.0021293017,-0.0010646508,21.0,0.0991,0.0,9.8061,0.0093,0.0,-1.0E-4,0.002961,-0.0040969998,0.585681,2017-10-28 12:46:33,63.71557961563539
0.10534488,0.0,9.730036,0.0021293017,0.0,-0.0010646508,24.0,0.0991,0.0,9.8061,-0.0101,0.0,0.0099,0.002959,-0.004096,0.585681,2017-10-28 12:46:34,68.33443430734981
0.11492168,0.0,9.739613,-0.0010646508,-0.0021293017,0.0010646508,21.0,0.0993,0.0,9.8061,0.0093,0.0,0.009699999,0.002965,-0.004103,0.585681,2017-10-28 12:46:35,70.36031298550726
0.10534488,0.0,9.739613,0.0010646508,0.0010646508,0.0,25.0,0.0998,0.0,9.8061,-9.999999E-4,0.0,1.0E-4,0.0029809999,-0.004125,0.585681,2017-10-28 12:46:36,65.83834046463033
0.11492168,0.0,9.739613,0.0010646508,0.0,0.0010646508,22.0,0.098699994,0.0,9.8061,-0.009699999,0.0,0.0,0.002949,-0.00408,0.585681,2017-10-28 12:46:37,67.69944461200133
0.10534488,0.0,9.749189,0.0010646508,-0.0021293017,0.0,24.0,0.101399995,0.0,9.8061,0.0072,0.0,0.0099,0.003028,-0.00419,0.58568,2017-10-28 12:46:38,61.133776134763956
0.10534488,0.0,9.730036,-0.0010646508,-0.0031939526,0.0,21.0,0.1003,0.0,9.8061,-0.0014,0.0,0.0098,0.002995,-0.004145,0.58568,2017-10-28 12:46:39,63.763779337639974
0.10534488,0.0,9.730036,-0.0010646508,-0.0021293017,0.0,24.0,0.099,0.0,9.8061,-0.01,0.0,0.0098,0.002958,-0.004093,0.58568,2017-10-28 12:46:40,67.34035753449133
0.11492168,0.0,9.730036,0.0,0.0,0.0,26.0,0.102,0.0,9.8061,0.0164,0.0,0.009699999,0.003047,-0.004215,0.58568,2017-10-28 12:46:41,63.63852692799807
0.095768064,0.0,9.720459,0.0010646508,-0.0031939526,-0.0010646508,21.0,0.099199995,0.0,9.8061,-2.9999999E-4,0.0,0.0099,0.002965,-0.004102,0.585681,2017-10-28 12:46:42,67.49535428564596
0.10534488,0.0,9.730036,0.0010646508,-0.0010646508,0.0,22.0,0.0993,0.0,9.8061,-0.01,0.0,0.0196,0.002965,-0.004104,0.585682,2017-10-28 12:46:44,58.404123960394294
0.11492168,0.0,9.758766,0.0010646508,-0.0042586033,-0.0010646508,19.0,0.1007,0.0,9.8061,0.0077,0.0,0.0,0.003009,-0.004165,0.585682,2017-10-28 12:46:45,65.134509854103
0.10534488,0.0,9.739613,0.0010646508,-0.0010646508,0.0,21.0,0.100499995,0.0,9.8061,-0.0018,0.0,-0.0195,0.003003,-0.004154,0.585682,2017-10-28 12:46:46,67.26996136115044
0.10534488,0.0,9.739613,0.0021293017,-0.0010646508,-0.0010646508,21.0,0.100499995,0.0,9.8061,-0.0018,0.0,-0.009699999,0.003004,-0.004155,0.585682,2017-10-28 12:46:47,67.02383344075417
0.10534488,0.0,9.739613,0.0010646508,-0.0031939526,0.0,19.0,0.0991,0.0,9.8061,-4.0E-4,0.0,-0.0196,0.002959,-0.004095,0.585683,2017-10-28 12:46:48,69.81302624051315
0.10534488,0.0,9.739613,-0.0010646508,-0.0031939526,0.0010646508,24.0,0.1007,0.0,9.8061,-0.0018999999,0.0,0.0,0.003008,-0.004162,0.585683,2017-10-28 12:46:49,68.95536984961362
0.10534488,0.0,9.730036,0.0010646508,0.0,-0.0010646508,19.0,0.0986,0.0,9.8061,2.9999999E-4,0.0,0.0196,0.0029199999,-0.00404,0.585683,2017-10-28 12:46:50,62.41191861895076
0.10534488,0.0,9.730036,0.0010646508,-0.0010646508,0.0010646508,25.0,0.0969,0.0,9.8061,0.0018999999,0.0,0.009699999,0.002899,-0.004011,0.585683,2017-10-28 12:46:51,37.65218686444731
0.10534488,0.0,9.730036,0.0021293017,0.0,0.0,22.0,0.098799996,0.0,9.8061,-1.0E-4,0.0,-1.0E-4,0.002951,-0.004083,0.585684,2017-10-28 12:46:52,62.367360032699054
0.10534488,0.0,9.739613,0.0,-0.0031939526,0.0,19.0,0.101799995,0.0,9.8061,-0.003,0.0,0.0098,0.003033,-0.004197,0.585683,2017-10-28 12:46:53,56.626530809104565
0.10534488,0.0,9.749189,0.0031939526,-0.0010646508,0.0010646508,21.0,0.100499995,0.0,9.8061,0.007999999,0.0,0.0,0.003023,-0.004182,0.585683,2017-10-28 12:46:54,66.18535549979241
0.10534488,0.0,9.730036,0.0010646508,0.0,0.0,21.0,0.1008,0.0,9.8061,-0.0117,0.0,0.0098,0.003007,-0.00416,0.585682,2017-10-28 12:46:55,68.25423010262837
0.10534488,0.0,9.730036,0.0,0.0,0.0,21.0,0.1003,0.0,9.8061,-0.0014,0.0,0.0098,0.002993,-0.004141,0.585683,2017-10-28 12:46:56,47.226184356084566
0.095768064,0.0,9.730036,0.0010646508,-0.0010646508,0.0021293017,22.0,0.099,0.0,9.8061,0.0095,0.0,-0.0196,0.002957,-0.004092,0.585683,2017-10-28 12:46:57,62.103723107768985
0.10534488,0.0,9.720459,0.0031939526,-0.0010646508,0.0,24.0,0.100099996,0.0,9.8061,0.0083,0.0,-0.0198,0.002989,-0.004134,0.585683,2017-10-28 12:46:58,67.74870986608116
0.10534488,0.0,9.739613,0.0021293017,-0.0031939526,-0.0010646508,21.0,0.099,0.0,9.8061,-0.010199999,0.0,-0.0196,0.002959,-0.004094,0.585682,2017-10-28 12:46:59,47.13094420542994
0.10534488,0.0,9.710882,0.0021293017,-0.0021293017,0.0,22.0,0.099599995,0.0,9.8061,-0.0105,0.0,-0.0099,0.002972,-0.004113,0.585682,2017-10-28 12:47:00,45.38333551155698
0.10534488,0.0,9.730036,0.0010646508,-0.0021293017,0.0,22.0,0.0991,0.0,9.8061,-0.0099,0.0,0.0,0.002959,-0.004096,0.585683,2017-10-28 12:47:01,66.77479759973168
0.095768064,0.0,9.758766,-0.0010646508,-0.0010646508,0.0,24.0,0.098799996,0.0,9.8061,1.0E-4,0.0,0.049,0.002952,-0.004084,0.585683,2017-10-28 12:47:02,60.15732076777526
0.10534488,0.0,9.730036,0.0,-0.0031939526,0.0,24.0,0.0997,0.0,9.8061,-0.0011999999,0.0,-0.0196,0.002952,-0.004085,0.585682,2017-10-28 12:47:03,71.52640863493745
0.11492168,0.0,9.739613,0.0021293017,-0.0010646508,0.0,22.0,0.0989,0.0,9.8061,0.009699999,0.0,0.029399998,0.002955,-0.00409,0.585682,2017-10-28 12:47:04,67.16662863473448
0.10534488,0.0,9.710882,0.0010646508,-0.0021293017,0.0010646508,22.0,0.0995,0.0,9.8061,-7.0E-4,0.0,0.0,0.002973,-0.004112,0.585681,2017-10-28 12:47:05,46.26914106540609
0.11492168,0.0,9.730036,0.0010646508,-0.0021293017,0.0,24.0,0.1007,0.0,9.8061,0.0079,0.0,0.0196,0.003003,-0.004155,0.585681,2017-10-28 12:47:06,39.734509997525336
0.10534488,0.0,9.730036,0.0010646508,0.0,0.0,24.0,0.1003,0.0,9.8061,-0.0111,0.0,0.009699999,0.002993,-0.004141,0.585682,2017-10-28 12:47:07,63.11222763381795
0.10534488,0.0,9.730036,0.0010646508,-0.0010646508,0.0010646508,22.0,0.097899996,0.0,9.8061,0.0011,0.0,0.0196,0.002925,-0.004046,0.585682,2017-10-28 12:47:08,67.00599959629312
0.10534488,0.0,9.739613,0.0021293017,0.0,-0.0021293017,21.0,0.0998,0.0,9.8061,-9.0E-4,0.0,0.0,0.0029809999,-0.004125,0.585682,2017-10-28 12:47:09,61.28499475697371
0.10534488,0.0,9.730036,0.0,-0.0010646508,0.0,24.0,0.099599995,0.0,9.8061,-8.0E-4,0.0,-0.0099,0.002975,-0.004116,0.585681,2017-10-28 12:47:10,60.628925951997026
0.10534488,0.0,9.730036,0.0010646508,-0.0031939526,0.0,22.0,0.0991,0.0,9.8061,-4.0E-4,0.0,-1.0E-4,0.002961,-0.0040969998,0.585681,2017-10-28 12:47:11,61.892728159193375
0.11492168,0.0,9.730036,0.0031939526,-0.0021293017,0.0,24.0,0.0994,0.0,9.8061,-4.9999997E-4,0.0,0.0,0.002969,-0.004108,0.585681,2017-10-28 12:47:12,67.08565315289407
0.10534488,0.0,9.739613,0.0031939526,-0.0031939526,-0.0010646508,22.0,0.102,0.0,9.8061,-0.0030999999,0.0,0.0,0.003047,-0.004216,0.58568,2017-10-28 12:47:13,61.73926648729264
0.11492168,0.0,9.739613,0.0010646508,-0.0021293017,0.0010646508,19.0,0.0991,0.0,9.8061,-0.0103,0.0,-0.0196,0.002961,-0.0040969998,0.58568,2017-10-28 12:47:14,54.01651999549757
0.11492168,0.0,9.730036,-0.0010646508,-0.0021293017,0.0010646508,24.0,0.099599995,0.0,9.8061,-7.0E-4,0.0,-0.009699999,0.002974,-0.004115,0.58568,2017-10-28 12:47:15,64.11074295384756
0.11492168,0.0,9.730036,0.0,-0.0031939526,-0.0021293017,22.0,0.0977,0.0,9.8061,-0.0088,0.0,0.0,0.0029199999,-0.00404,0.585681,2017-10-28 12:47:16,67.78315618737084
0.10534488,0.0,9.730036,0.0,-0.0010646508,0.0010646508,21.0,0.1003,0.0,9.8061,-0.0014,0.0,0.0,0.002995,-0.004144,0.58568,2017-10-28 12:47:17,66.79244115760714
0.10534488,0.0,9.739613,0.0010646508,-0.0021293017,0.0,24.0,0.0972,0.0,9.8061,0.0014,0.0,-0.0099,0.002904,-0.004019,0.58568,2017-10-28 12:47:18,63.62985104600949
0.10534488,0.0,9.730036,0.0,-0.005323254,-0.0010646508,22.0,0.099999994,0.0,9.8061,0.0084999995,0.0,-2.0E-4,0.002987,-0.004134,0.585679,2017-10-28 12:47:19,64.8122652847098
0.10534488,0.0,9.749189,0.0010646508,0.0,0.0010646508,22.0,0.099199995,0.0,9.8061,-4.9999997E-4,0.0,0.0196,0.002964,-0.004102,0.585679,2017-10-28 12:47:20,53.95966513643344
-1.3790601,-1.9057846,8.00621,0.019163715,1.9227594,-0.30874875,23.0,-1.2911999,-1.7028999,9.5709,0.30159998,-0.2113,0.16489999,-0.108943,0.0122,0.508688,2017-10-28 12:47:21,67.62350509433286
5.21936,1.2162545,8.121132,0.6749886,0.5376487,-0.17886133,41.0,5.8101,0.92139995,7.8462,1.3694999,-0.4737,2.7405999,0.199511,-0.245248,0.47603,2017-10-28 12:47:22,50.81061127446624
6.3111157,0.5267244,8.542512,-0.8463974,0.41201988,-0.020228365,27.0,6.7307,0.9939,7.0625,0.43559998,-0.7418,-0.70769995,0.302324,-0.22025,0.661765,2017-10-28 12:47:23,62.22072377710973
6.157887,0.05746084,8.408437,-0.21825342,0.09688323,-0.017034413,25.0,6.5688,0.67149997,7.2503996,0.0962,-0.6178,-0.1883,0.289915,-0.208109,0.706097,2017-10-28 12:47:24,61.866630744625496