ACC_X,ACC_Y,ACC_Z,LIGH_1,GRAV_X,GRAV_Y,GRAV_Z,LINACC_X,LINACC_Y,LINACC_Z,ROTVEC_X,ROTVEC_Y,ROTVEC_Z,TIME,VOICE
-0.804,-2.911,9.079,0.0,-0.23835523,-2.8086576,9.435736,-0.64264476,-0.10234237,-0.6637354,-0.1410891,0.03184,-0.13542324,2017-07-23 07:03:30,9.627354840471211
-3.984,-3.869,8.427,0.0,-3.0905154,-4.069206,8.844205,-0.8164847,0.46820617,-0.07220459,-0.20909454,0.15278196,0.017890694,2017-07-23 07:03:31,33.11902379597527
-0.651,-0.612,9.96,7.0,-1.6248451,-0.14984035,9.547715,1.6248451,-0.041159645,-0.6607151,-0.018817842,0.08241202,0.13167042,2017-07-23 07:03:32,34.795962553908346
-0.383,-0.574,9.692,10.0,-0.27645457,-0.5849967,9.719868,-0.067545444,0.048996687,0.087132454,-0.02969823,0.0149060795,-0.023698624,2017-07-23 07:03:33,39.89759928440261
-0.344,-0.306,9.385,3.0,-0.66733146,-0.6791253,9.478676,-1.4776685,0.7171253,-0.055675507,-0.03355335,0.037118006,-0.059044946,2017-07-23 07:03:34,39.695686490574566
-2.26,-2.03,9.232,0.0,-1.8853518,-1.2707177,9.713153,-0.7956482,0.7347177,-0.098153114,-0.048466217,0.103973314,-0.1551917,2017-07-23 07:03:35,37.84507524024503
-3.754,-0.153,10.726,0.0,-2.607521,-1.3460859,9.451836,-1.950479,1.9200859,0.92916393,-0.045927484,0.14274082,-0.16264498,2017-07-23 07:03:36,47.42387486814919
-1.149,0.651,8.964,0.0,-1.7753761,0.08576851,9.276159,0.97137606,-0.19976851,0.1858406,0.005587301,0.0943534,-0.01080305,2017-07-23 07:03:37,51.92799952406578
-0.268,-0.689,9.807,0.0,-0.37766135,-0.64965343,9.5004015,0.10966134,-0.039346576,0.15259838,-0.036196884,0.01570348,0.11688052,2017-07-23 07:03:38,58.73539421610328
-0.268,-0.766,9.692,0.0,-0.3458654,-0.70459896,9.70459,0.039865404,-0.022401035,-0.012589455,-0.037776966,0.014152261,0.09763718,2017-07-23 07:03:39,49.062397421276806
-0.306,-0.766,9.692,0.0,-0.35969028,-0.6324644,9.745995,-0.13830972,-0.018535614,-0.09299469,-0.033808187,0.015637869,0.083706595,2017-07-23 07:03:40,26.41801272879652
-0.306,-0.536,9.845,0.0,-0.3673237,-0.66380054,9.739757,0.023323685,-0.102199435,0.067243576,-0.035416804,0.015987016,0.08125584,2017-07-23 07:03:42,27.143395847083447
-0.459,-0.612,9.768,0.0,-0.35968816,-0.6119068,9.720744,0.091688156,-0.11509317,0.009255409,-0.032786503,0.015895879,0.07983025,2017-07-23 07:03:43,36.21188761555465
-0.306,-0.651,9.692,0.0,-0.36844397,-0.6535991,9.754212,-0.090556026,-0.18840092,0.01378727,-0.03484268,0.016083198,0.080707125,2017-07-23 07:03:44,31.529962196025295
-0.383,-0.612,9.692,0.0,-0.35077828,-0.6973477,9.6851635,0.082778275,-0.06865227,0.006836891,-0.037234645,0.015155903,0.07935246,2017-07-23 07:03:45,27.90157291853196
-0.383,-0.651,9.653,0.0,-0.4087185,-0.6109824,9.7107,0.064718485,-0.07801759,-0.13370037,-0.032869797,0.018600408,0.0745095,2017-07-23 07:03:46,36.627558954968656
-0.383,-0.727,9.692,0.0,-0.3495074,-0.67486846,9.665912,0.043507397,-0.052131534,0.026088715,-0.03619462,0.015113073,0.08215015,2017-07-23 07:03:47,36.0604299055226
-0.268,-0.651,9.73,0.0,-0.32009444,-0.6329211,9.696667,0.05209443,-0.0940789,0.033332825,-0.03372655,0.013953977,0.07580527,2017-07-23 07:03:48,39.00473277978983
-0.306,-0.689,9.73,0.0,-0.2591203,-0.7397303,9.7059765,-0.1238797,0.12773031,0.062023163,-0.038986895,0.010119327,0.08281119,2017-07-23 07:03:49,30.201382408858755
-0.383,-0.574,9.73,0.0,-0.36919624,-0.72965896,9.728264,-0.01380375,0.07865894,0.0017356873,-0.038806457,0.01584941,0.080525704,2017-07-23 07:03:50,28.31685472833999
-0.344,-0.651,9.653,0.0,-0.37140322,-0.6907523,9.738019,0.06540322,0.001752317,0.02998066,-0.03673485,0.016255073,0.07660688,2017-07-23 07:03:51,50.58577182051038
-0.344,-0.651,9.807,0.0,-0.31661716,-0.6940422,9.828851,-0.14238283,-0.032957792,-0.021850586,-0.036460422,0.013032399,0.084535345,2017-07-23 07:03:52,36.28509861031767
-0.383,-0.727,9.768,0.0,-0.384095,-0.6708661,9.743734,0.11609501,0.058866084,-0.05173397,-0.035800125,0.016868686,0.07949721,2017-07-23 07:03:53,28.669475342848045
-0.306,-0.651,9.653,0.0,-0.36212897,-0.67266834,9.6993475,-0.09687102,0.13666832,0.107652664,-0.03581781,0.016148847,0.0701727,2017-07-23 07:03:54,30.949754753633812
-0.306,-0.727,9.692,0.0,-0.3941997,-0.6678917,9.70136,0.011199713,-0.059108317,-0.04835987,-0.03562153,0.017922316,0.066936955,2017-07-23 07:03:55,35.238795222532815
-0.421,-0.766,9.73,0.0,-0.35082,-0.66831774,9.714263,-0.07018,0.056317747,0.0927372,-0.03564265,0.015235334,0.07930325,2017-07-23 07:03:56,28.614124677678248
-0.344,-0.651,9.653,0.0,-0.3529501,-0.68706834,9.742772,0.0469501,0.18906835,-0.01277256,-0.03647636,0.015279771,0.077726975,2017-07-23 07:03:57,25.95304573973783
-0.306,-0.651,9.807,0.0,-0.38164058,-0.72886455,9.719115,-0.0013594031,0.07786453,0.04888439,-0.03868647,0.016888991,0.070616804,2017-07-23 07:03:58,29.901067867601935
-0.459,-0.689,9.653,0.0,-0.35020304,-0.67598647,9.737649,-0.108796954,0.06398648,-0.045648575,-0.035821345,0.015426327,0.07123794,2017-07-23 07:03:59,30.089285293712464
-0.459,-0.651,9.73,0.0,-0.38149965,-0.67779994,9.7316065,0.075499654,0.06579995,0.036393166,-0.036038868,0.017045755,0.07073909,2017-07-23 07:04:00,26.222889199973363
-0.268,-0.651,9.807,0.0,-0.3368808,-0.66893625,9.692249,-0.046119183,-0.020063758,0.07575035,-0.035662293,0.014644877,0.0767401,2017-07-23 07:04:01,29.714507159453333
-0.383,-0.804,9.845,0.0,-0.38695735,-0.65625644,9.707254,-0.072042644,0.0052564144,0.022745132,-0.03504885,0.017446235,0.07079025,2017-07-23 07:04:02,26.306890199853665
-0.344,-0.689,9.692,0.0,-0.35119116,-0.6852063,9.697376,-0.10780883,0.03420627,0.03262329,-0.0363292,0.015774488,0.06388944,2017-07-23 07:04:03,47.8416401145235
-0.268,-0.651,9.73,0.0,-0.31416115,-0.66937363,9.671922,0.046161145,0.018373609,0.058077812,-0.035480488,0.013998756,0.062932424,2017-07-23 07:04:04,48.6924479261426
-0.383,-0.689,9.692,0.0,-0.30647185,-0.66732776,9.702967,-0.037528157,-0.021672249,0.06503296,-0.035337403,0.0133067835,0.0702771,2017-07-23 07:04:05,29.892707483053723
-0.344,-0.727,9.73,0.0,-0.37457412,-0.65663797,9.719943,0.030574113,0.044637978,-0.06694317,-0.034943465,0.016862059,0.06870813,2017-07-23 07:04:06,30.466707957888268
-0.229,-0.498,9.692,0.0,-0.35787416,-0.6777945,9.729832,0.08987415,-0.011205494,0.077168465,-0.035975758,0.015809873,0.07162616,2017-07-23 07:04:07,34.03960898323458
-0.344,-0.689,9.653,0.0,-0.38420346,-0.69104964,9.7149105,-0.03679654,0.040049613,0.015089035,-0.0368432,0.017040508,0.07407837,2017-07-23 07:04:08,48.46042463238261
-0.421,-0.804,9.73,0.0,-0.32944822,-0.71128595,9.688433,-0.014551789,0.022285938,-0.07343292,-0.037863843,0.013958782,0.08041201,2017-07-23 07:04:09,35.065741273797364
-0.344,-0.689,9.692,0.0,-0.36777923,-0.6501108,9.661069,-0.015220761,-8.892417E-4,0.030931473,-0.03485487,0.016516974,0.0721833,2017-07-23 07:04:10,37.887929743811256
-0.498,-0.651,9.73,0.0,-0.32926896,-0.7216276,9.66869,-0.053731024,0.032627583,0.023310661,-0.038261596,0.014496074,0.065808356,2017-07-23 07:04:11,38.74735986235515
-0.383,-0.651,9.577,0.0,-0.34589338,-0.68515784,9.724248,-0.037106603,-0.003842175,-0.032247543,-0.036253445,0.01535759,0.06670994,2017-07-23 07:04:12,56.58753697053916
-0.383,-0.727,9.768,0.0,-0.4040232,-0.65300405,9.731247,-0.05497679,0.04100406,-0.07824707,-0.03474654,0.01849597,0.064807266,2017-07-23 07:04:13,36.70041087420829
-0.421,-0.804,10.151,0.0,-0.38011497,-0.66333634,9.784687,0.03611496,0.089336336,-0.0546875,-0.0350295,0.01709551,0.066229194,2017-07-23 07:04:15,34.21660793207082
-1.647,-1.417,8.925,0.0,-0.20356779,-0.8610119,9.694797,0.8155678,0.8610119,0.26520348,-0.044899978,0.007291594,0.07103884,2017-07-23 07:04:16,55.81066261142786
-1.647,-2.336,9.002,0.0,-1.196962,-1.5041541,10.34844,-0.41103804,-0.8708459,-0.12044048,-0.05138,0.07595687,-0.29798675,2017-07-23 07:04:17,56.56697494494664
1.225,-2.834,9.96,0.0,0.36605662,-4.5105104,8.931991,0.9739434,1.6765103,0.30000973,-0.22287308,-0.065617196,0.19832642,2017-07-23 07:04:18,55.06303538637453
0.383,-4.06,8.083,0.0,-0.061845917,-4.5976343,9.47773,0.29084593,1.3416343,-2.6977296,-0.07760668,-0.21005258,0.918665,2017-07-23 07:04:19,29.10884840117736
-1.8,-2.873,7.968,5.0,-0.5750287,-4.6112432,8.497226,-1.3019712,0.6662433,0.35177422,-0.10894637,-0.22236447,0.916105,2017-07-23 07:04:20,33.08349697506148
0.536,-1.072,9.04,10.0,0.46700323,-3.3224518,9.467782,0.5669968,0.87145185,1.4112177,-0.055154443,-0.16023354,0.87815773,2017-07-23 07:04:21,32.09240299665931
-1.494,-1.187,9.079,0.0,-0.049962096,-1.8648406,9.707731,-0.9460379,0.98384064,0.21326828,-0.09379926,-0.013626021,0.16944687,2017-07-23 07:04:22,51.915326968169694
-0.076,-5.209,10.458,0.0,0.5242029,-5.0590734,7.572445,0.7397972,-0.5339265,0.47155476,-0.2910905,-0.01419589,-0.05212531,2017-07-23 07:04:23,47.46230637935665
-2.681,-7.776,4.367,6.0,-0.64383703,-9.246794,5.8520894,-1.0791631,1.355794,-1.9830894,-0.4375693,-0.20397569,0.42424607,2017-07-23 07:04:24,32.30655940285649
-4.635,-5.746,7.125,3.0,-3.5422728,-6.9858875,7.743471,-1.2077272,0.8188877,-0.0054712296,-0.27497035,-0.2699403,0.8743708,2017-07-23 07:04:25,31.707486023002403
-3.869,-5.593,7.47,3.0,-4.4627514,-6.195507,7.3869824,0.44075155,0.48850727,0.27401733,-0.30296433,-0.24607931,0.88868827,2017-07-23 07:04:26,39.92506012549289
-3.792,-5.631,8.504,3.0,-3.925887,-5.715055,7.516398,-0.13411283,0.16105509,0.37460184,-0.26456317,-0.24998313,0.91058755,2017-07-23 07:04:27,29.40687167686705
-2.834,-5.363,7.661,1.0,-2.7999685,-4.9275846,8.242678,0.5019684,-0.3204155,-0.23667812,-0.18435507,-0.23239696,0.943702,2017-07-23 07:04:28,34.67034339643714
-3.984,0.076,9.577,1.0,-1.6357858,-0.39368176,10.343249,-5.680214,-7.4203186,6.58875,-0.07826582,0.019000666,0.8867018,2017-07-23 07:04:29,35.064791354713456
-0.536,-0.268,9.5,0.0,-0.35070387,-0.7866062,9.64854,-0.18529615,0.4806062,0.119460106,0.01028293,0.043293506,-0.9817429,2017-07-23 07:04:30,72.37931258397614
-0.383,-0.536,9.692,0.0,-0.3796547,-0.67104393,9.697064,-0.003345281,-0.017956078,-0.04406452,0.013126958,0.037425254,-0.98350865,2017-07-23 07:04:31,42.00644213498311
-0.536,-0.766,9.653,0.0,-0.35122684,-0.69316834,9.72067,-0.03177315,0.04216832,-0.105669975,0.011489534,0.03818304,-0.9836456,2017-07-23 07:04:32,25.843002981629375
-0.459,-0.689,9.73,0.0,-0.41498855,-0.6970871,9.757927,-0.08301145,0.046087086,0.087073326,0.01459136,0.038809914,-0.98346835,2017-07-23 07:04:33,28.177247871452824
-0.498,-0.727,9.538,0.0,-0.41961807,-0.6617037,9.731047,0.036618084,-0.027296305,-0.039046288,0.015187332,0.03718018,-0.98352015,2017-07-23 07:04:34,29.748717943901557
-0.498,-0.651,9.883,0.0,-0.4433665,-0.6727974,9.714298,0.099366486,-0.16920263,0.0537014,0.016182492,0.03806872,-0.98287076,2017-07-23 07:04:35,32.014029925484216
-0.459,-0.612,9.73,0.0,-0.42141035,-0.6768325,9.724695,4.1034818E-4,0.06483251,0.043304443,0.014999755,0.038039546,-0.9827897,2017-07-23 07:04:36,27.116251917288636
-0.421,-0.689,9.807,0.0,-0.45061198,-0.6754533,9.6908865,-0.085388035,0.024453282,-0.03788662,0.01652374,0.038377285,-0.9826709,2017-07-23 07:04:37,26.857128802862395
-0.383,-0.727,9.653,0.0,-0.43176746,-0.68385303,9.699103,0.01076746,0.10985303,0.107896805,0.015532698,0.038574025,-0.9829271,2017-07-23 07:04:38,28.36320406224102
-0.383,-0.651,9.768,0.0,-0.43631524,-0.61394966,9.662557,-0.022684753,-0.037050366,0.02944374,0.01650479,0.03521025,-0.98318547,2017-07-23 07:04:39,26.630923853993625
-0.498,-0.727,9.768,0.0,-0.45774746,-0.6510751,9.645033,-0.001252532,7.510185E-5,0.007966995,0.017252987,0.03736269,-0.9829787,2017-07-23 07:04:40,29.567957060285273
-0.612,-0.574,9.653,0.0,-0.47422472,-0.63408965,9.720245,-0.02377528,-0.16991037,0.0867548,0.018080011,0.03638453,-0.98285866,2017-07-23 07:04:41,30.77879736582895
-0.536,-0.727,9.807,0.0,-0.4124414,-0.665904,9.699014,0.029441416,-0.10009599,-0.046013832,0.014790671,0.037467234,-0.9833027,2017-07-23 07:04:42,27.973257091051504
-0.383,-0.689,9.577,0.0,-0.4493969,-0.647368,9.755085,-0.048603088,0.111368,-0.17808533,0.016700896,0.036670297,-0.9831429,2017-07-23 07:04:43,26.148632442718043
-0.459,-0.727,9.73,0.0,-0.4215242,-0.649569,9.660182,-0.11447582,0.037568986,0.03181839,0.015483213,0.036863618,-0.983415,2017-07-23 07:04:44,52.82431482253676
-0.383,-0.651,9.73,0.0,-0.47559154,-0.6403129,9.684419,-0.060408473,-0.010687113,-0.06941891,0.018171674,0.036837332,-0.98290896,2017-07-23 07:04:45,27.482470962478654
-0.383,-0.727,9.653,0.0,-0.42672208,-0.673279,9.71278,0.043722093,-0.05372101,-0.13578033,0.015384249,0.037929703,-0.98309374,2017-07-23 07:04:46,26.610848885572473
-0.344,-0.689,9.768,0.0,-0.39545015,-0.6775225,9.704285,-0.025549859,-0.01147753,0.1407156,0.01385861,0.03786443,-0.9834937,2017-07-23 07:04:47,27.399592066442114
-0.459,-0.727,9.692,0.0,-0.40751323,-0.7124184,9.715052,-0.090486765,-0.053581595,-0.023051262,0.014135932,0.039685056,-0.983432,2017-07-23 07:04:48,29.25169017032061
-0.536,-0.612,9.73,0.0,-0.3729341,-0.6481739,9.682521,-0.16306591,0.112173915,-0.18252087,0.013068367,0.03624625,-0.98380864,2017-07-23 07:04:49,29.242161690195307
-0.498,-0.574,9.577,0.0,-0.45688277,-0.6973125,9.726811,-0.0021172166,0.04631245,0.08018875,0.016691525,0.039341692,-0.98316383,2017-07-23 07:04:50,31.0227890601435
-0.421,-0.612,9.615,0.0,-0.44513315,-0.6837887,9.735716,-0.013866842,0.07178873,0.1092844,0.016156686,0.03854369,-0.9829594,2017-07-23 07:04:51,25.301684201073833
-0.383,-0.689,9.653,0.0,-0.43169248,-0.6922596,9.720117,0.010692477,0.1562596,-0.028116226,0.01552886,0.03886804,-0.9834258,2017-07-23 07:04:53,26.49181731656021
-0.344,-0.689,9.538,0.0,-0.40032873,-0.6802654,9.672673,-0.020671278,-0.008734584,0.09532642,0.014195366,0.038144384,-0.9837983,2017-07-23 07:04:54,25.923730428087023
-0.421,-0.689,9.73,0.0,-0.39918616,-0.6627311,9.697947,-0.059813827,0.050731122,-0.120946884,0.014256642,0.037151914,-0.9838211,2017-07-23 07:04:55,30.849422943332513
-0.383,-0.689,9.73,0.0,-0.45128563,-0.67581445,9.697364,-0.046714365,-0.013185561,0.14763641,0.01668572,0.038314134,-0.98333293,2017-07-23 07:04:56,27.079816228495265
-0.421,-0.536,9.768,0.0,-0.43255112,-0.62292856,9.689252,-0.06544888,0.04892856,-0.07425213,0.016208254,0.035522252,-0.98329276,2017-07-23 07:04:57,27.742025073301715
-0.229,-0.766,9.73,0.0,-0.44529885,-0.6614226,9.695292,-0.013701141,-0.06557739,0.03470707,0.01659887,0.037507582,-0.98374003,2017-07-23 07:04:58,26.31823127379707
-0.383,-0.651,9.73,0.0,-0.42193028,-0.6570286,9.659933,9.302795E-4,-0.031971395,0.10806656,0.015574373,0.037188396,-0.9840554,2017-07-23 07:04:59,28.042672474582343
-0.421,-0.612,9.653,0.0,-0.43575114,-0.7020978,9.73728,0.12975115,0.013097763,-0.084280014,0.01563644,0.03932218,-0.9834982,2017-07-23 07:05:00,30.077011144340233
-0.383,-0.766,9.692,0.0,-0.4556137,-0.6607255,9.705147,-0.042386293,0.0097254515,0.10185337,0.017010313,0.03757149,-0.9832648,2017-07-23 07:05:01,27.84554610911886
-0.498,-0.574,9.577,0.0,-0.46978286,-0.6306817,9.692912,0.048782855,0.018681705,-0.11591244,0.018037928,0.036224045,-0.98335606,2017-07-23 07:05:02,26.659454127031754
-0.459,-0.727,9.768,0.0,-0.42483404,-0.6544003,9.704918,-0.11116597,0.08040029,-0.05191803,0.015544206,0.036963932,-0.98345494,2017-07-23 07:05:03,25.134920176882165
-0.459,-0.689,9.615,0.0,-0.44313818,-0.66994786,9.742659,0.09913817,-0.057052135,0.025341034,0.016232599,0.03777854,-0.9832681,2017-07-23 07:05:04,25.81066324572523
-0.421,-0.689,9.768,0.0,-0.42058623,-0.6427638,9.674964,-4.1377544E-4,-0.16123623,-0.09796429,0.015479844,0.03645286,-0.98345596,2017-07-23 07:05:05,27.334934962844223
-0.383,-0.612,9.845,0.0,-0.45734447,-0.6425674,9.710784,-0.001655519,-0.008432627,-0.01878357,0.017281465,0.036638588,-0.98342186,2017-07-23 07:05:06,29.245856520628188
-0.421,-0.689,9.768,0.0,-0.44011265,-0.6440925,9.736194,0.057112664,0.0700925,-0.08319378,0.016376086,0.03645695,-0.9835464,2017-07-23 07:05:07,27.15276029007994
-0.421,-0.651,9.807,0.0,-0.46362013,-0.60179377,9.705731,0.119620115,-0.0102062225,0.062268257,0.017902352,0.03469976,-0.9830707,2017-07-23 07:05:08,27.96239518626438
-0.498,-0.689,9.73,0.0,-0.4127568,-0.64946264,9.672537,-0.04624319,-0.07753736,0.01946354,0.01498584,0.03674641,-0.9832615,2017-07-23 07:05:09,29.9978619306382
-0.383,-0.689,9.807,0.0,-0.45900849,-0.6391844,9.710432,0.03800848,0.027184427,-0.09543228,0.017270254,0.036544923,-0.98280406,2017-07-23 07:05:10,28.324452906905595
-0.268,-0.651,9.807,0.0,-0.43554062,-0.6737065,9.731161,0.05254063,-0.0922935,0.03683853,0.015706802,0.037996236,-0.98266715,2017-07-23 07:05:11,26.55210678601563
-0.306,-0.727,9.73,0.0,-0.39877453,-0.6902067,9.6530905,0.015774548,0.07820672,0.11490917,0.013891365,0.03876996,-0.9830354,2017-07-23 07:05:12,27.19284340341634
-0.383,-0.574,9.615,0.0,-0.44560847,-0.5953204,9.686749,0.024608463,-0.20867962,0.043250084,0.017060172,0.034289375,-0.98296356,2017-07-23 07:05:13,27.362019101996967
-0.306,-0.651,9.692,0.0,-0.46979994,-0.6664572,9.677136,-0.06620008,-0.0995428,-0.06213665,0.017623419,0.038143992,-0.9827573,2017-07-23 07:05:14,29.19759719195605
-0.421,-0.689,9.615,0.0,-0.46226957,-0.67543095,9.64933,0.04126957,0.063430965,0.0036697388,0.017177682,0.038651787,-0.98260736,2017-07-23 07:05:15,28.50869302227467
-0.306,-0.727,9.615,0.0,-0.4114931,-0.68901384,9.672587,0.1054931,0.19101384,0.057412148,0.014496074,0.03875651,-0.98291975,2017-07-23 07:05:16,27.430609195035398
-0.421,-0.766,9.653,0.0,-0.43790457,-0.62217826,9.741087,0.13190457,0.048178256,-0.011087418,0.01633828,0.03537302,-0.98298985,2017-07-23 07:05:17,36.68057239195076
-0.383,-0.651,9.73,0.0,-0.47629294,-0.6271532,9.655918,-0.059707075,-0.13884676,-0.0029182434,0.018357687,0.03629945,-0.9827956,2017-07-23 07:05:18,26.950855976026105
-0.574,-0.727,9.692,0.0,-0.40597802,-0.7127538,9.715755,-0.13002199,0.06175375,-0.023755074,0.014038086,0.039692003,-0.9833601,2017-07-23 07:05:19,26.77687135262321
-0.383,-0.536,9.692,0.0,-0.3796117,-0.6752171,9.66799,0.07361171,-0.013782918,0.024010658,0.013143407,0.037741844,-0.9835803,2017-07-23 07:05:20,27.43538089221874
-0.421,-0.727,9.768,0.0,-0.43472904,-0.6529502,9.701839,0.09072903,0.04095024,-0.009839058,0.016100792,0.03697441,-0.98362845,2017-07-23 07:05:21,26.88972211514796
-0.306,-0.651,9.768,0.0,-0.45723668,-0.6322233,9.697404,-0.04076332,-0.13377666,0.032595634,0.017421875,0.03615322,-0.9835676,2017-07-23 07:05:22,29.074549249305313
-0.459,-0.498,9.73,0.0,-0.41396052,-0.67616296,9.730647,-0.0070394874,-0.12783706,-0.115647316,0.01482388,0.037837267,-0.98374593,2017-07-23 07:05:23,26.93445258497343
-0.498,-0.727,9.653,0.0,-0.40226102,-0.67429805,9.697713,-0.056738973,0.06229806,-0.04471302,0.014317656,0.037759606,-0.98384345,2017-07-23 07:05:24,26.027740389663624
-0.383,-0.689,9.768,0.0,-0.40967113,-0.7183884,9.687395,0.14167112,-0.0086116195,0.042604446,0.014272312,0.040103395,-0.98359656,2017-07-23 07:05:25,25.985351076162807
-0.459,-0.612,9.73,0.0,-0.43703794,-0.6875335,9.707473,-0.021962047,-0.0394665,-0.054472923,0.015809873,0.03874997,-0.9831879,2017-07-23 07:05:26,28.220166743317343
-0.383,-0.574,9.73,0.0,-0.47682425,-0.6159544,9.78029,0.05582425,0.0039544106,-0.050290108,0.018250227,0.035288244,-0.9828028,2017-07-23 07:05:27,26.02693581910621
-0.421,-0.536,9.653,0.0,-0.4161721,-0.6267357,9.698681,-0.0048279166,-0.062264323,-0.16068077,0.0153046185,0.03554301,-0.9831838,2017-07-23 07:05:28,25.472469435010034
-0.421,-0.612,9.653,0.0,-0.41522613,-0.63037896,9.693664,-0.005773872,-0.13562101,0.036335945,0.015268063,0.035720535,-0.983362,2017-07-23 07:05:29,28.940936695859648
-0.268,-0.612,9.577,0.0,-0.41238427,-0.67291003,9.666747,-0.008615732,-0.016089976,-0.013747215,0.01481131,0.037930686,-0.9834676,2017-07-23 07:05:30,28.429655699518275
-0.421,-0.574,9.577,0.0,-0.45258617,-0.7351265,9.696885,-0.08341384,0.1611265,-0.04388523,0.01628438,0.041286122,-0.9835545,2017-07-23 07:05:32,29.3115979485776
-0.383,-0.651,9.692,0.0,-0.4609951,-0.64836407,9.718625,0.0019951165,0.074364066,-0.02662468,0.017433846,0.036916737,-0.9835767,2017-07-23 07:05:33,25.621010985870328
-0.574,-0.727,9.692,0.0,-0.42978123,-0.67329514,9.708299,-0.06821877,0.022295117,0.02170086,0.015643109,0.0379354,-0.9835461,2017-07-23 07:05:34,28.504206595148002
-0.536,-0.612,9.692,0.0,-0.46850842,-0.7313642,9.7120905,0.04750842,0.0043641925,0.01790905,0.01701294,0.041207727,-0.9831871,2017-07-23 07:05:35,29.123808762108464
-0.459,-0.727,9.73,0.0,-0.39713043,-0.67026746,9.671614,0.014130443,0.09626746,-0.056613922,0.01401046,0.037657257,-0.9832821,2017-07-23 07:05:36,25.369946680655097
-0.459,-0.574,9.615,0.0,-0.46325064,-0.6246843,9.722024,0.15725064,0.12668428,-0.069024086,0.017571766,0.03582405,-0.9826874,2017-07-23 07:05:37,26.10435573184158
-0.421,-0.536,9.768,0.0,-0.4704876,-0.66138405,9.724825,0.04948759,0.049384058,0.005174637,0.0176065,0.037714984,-0.9827118,2017-07-23 07:05:38,27.47884223631965
-0.498,-0.766,9.615,0.0,-0.44025287,-0.65298146,9.707877,0.019252867,-0.03601855,-0.20787716,0.016264696,0.03704889,-0.9831198,2017-07-23 07:05:39,28.751200701211754
-0.498,-0.689,9.73,0.0,-0.43224567,-0.61134326,9.707559,0.011245668,-0.077656746,0.02244091,0.016286211,0.03486128,-0.9834008,2017-07-23 07:05:40,27.218082008849347
-0.498,-0.574,9.653,0.0,-0.48614192,-0.6537209,9.675101,0.027141929,-0.035279095,-0.06010151,0.018655203,0.037618063,-0.98314434,2017-07-23 07:05:41,24.581123653622242
-0.459,-0.612,9.577,0.0,-0.45361054,-0.6200988,9.731837,-0.005389452,-0.030901194,-0.039836884,0.017243052,0.03540565,-0.9833713,2017-07-23 07:05:42,28.14237187859847
-0.421,-0.651,9.73,0.0,-0.46404484,-0.69603497,9.689301,0.043044835,0.16003495,0.002699852,0.01718332,0.039470263,-0.9833894,2017-07-23 07:05:43,30.11411009601627
-0.421,-0.727,9.615,0.0,-0.48058936,-0.6172154,9.701122,0.021589369,0.043215394,-0.009121895,0.018636823,0.035640977,-0.98308736,2017-07-23 07:05:44,27.368180787181196
-0.536,-0.842,9.768,0.0,-0.44173846,-0.6475184,9.705022,0.097738445,-0.15648162,-0.09002209,0.016394729,0.036798075,-0.98312455,2017-07-23 07:05:45,27.229077442531388
-0.536,-0.612,9.73,0.0,-0.46843117,-0.6314208,9.696702,0.04743117,-0.09557921,-0.23470211,0.017857347,0.036283847,-0.98287284,2017-07-23 07:05:46,28.508770746162895
-0.459,-0.651,9.692,0.0,-0.44520447,-0.6844784,9.715784,0.101204455,-0.042521596,-0.062784195,0.016293071,0.03861341,-0.9834427,2017-07-23 07:05:47,24.699053934347358
-0.536,-0.651,9.615,0.0,-0.4602329,-0.67053694,9.684956,0.0012329221,0.096536934,0.08304405,0.01726637,0.038151026,-0.98359704,2017-07-23 07:05:48,26.07511568294093
-0.383,-0.651,9.73,0.0,-0.4214927,-0.68703717,9.704801,-0.037507296,0.036037147,-0.012800217,0.015119481,0.038562436,-0.98359716,2017-07-23 07:05:49,28.19766218092676
-0.498,-0.574,9.845,0.0,-0.44525397,-0.7061626,9.715786,0.024253964,0.017162561,0.014213562,0.016055379,0.039721273,-0.98321855,2017-07-23 07:05:50,29.23939860892667
-0.498,-0.651,9.807,0.0,-0.4109273,-0.642258,9.712911,-0.048072696,-0.046742022,-0.09791088,0.014911577,0.036209848,-0.9833497,2017-07-23 07:05:51,24.610313673118476
-0.536,-0.651,9.615,0.0,-0.47456753,-0.6675474,9.666975,0.13056752,0.13154739,-0.05197525,0.017908592,0.038266465,-0.98291385,2017-07-23 07:05:52,28.600395605874095
-0.383,-0.574,9.768,0.0,-0.48439047,-0.69905245,9.680285,0.025390476,-0.10494757,-0.027285576,0.018135557,0.03987049,-0.98306465,2017-07-23 07:05:53,25.540796391351194
-0.536,-0.536,9.73,0.0,-0.40728346,-0.61893255,9.747407,-0.12871656,-0.10806745,-0.05540657,0.014893578,0.034876667,-0.9834189,2017-07-23 07:05:54,23.85160985706106
-0.498,-0.574,9.807,0.0,-0.40976915,-0.6375069,9.736237,-0.011230856,-0.013493121,0.07076359,0.014854006,0.03587725,-0.9833269,2017-07-23 07:05:55,28.851043552790262
-0.421,-0.804,9.692,0.0,-0.48328325,-0.682262,9.742004,0.100283265,-0.006738007,-0.08900452,0.018168394,0.038744587,-0.9833277,2017-07-23 07:05:56,28.625267687292375
-0.383,-0.804,9.692,0.0,-0.46005335,-0.5975136,9.735881,-0.07594666,0.023513615,-0.043880463,0.017786277,0.034305017,-0.98349595,2017-07-23 07:05:57,28.905383580014316
-0.459,-0.689,9.768,0.0,-0.41203353,-0.6529866,9.633615,-0.08596647,-0.036013424,0.019385338,0.015104691,0.03701469,-0.9838602,2017-07-23 07:05:58,24.973751461959914
-0.459,-0.727,9.577,0.0,-0.4451326,-0.6889613,9.684843,0.02413261,-0.03803867,-0.031843185,0.016319117,0.03895325,-0.9835162,2017-07-23 07:05:59,25.6951563944412
-0.536,-0.766,9.73,0.0,-0.4855001,-0.6286891,9.6828985,0.06450009,-0.0603109,-0.029898643,0.01883486,0.036320586,-0.98316413,2017-07-23 07:06:00,27.963174843462703
-0.383,-0.651,9.692,0.0,-0.45316,-0.6173988,9.676511,0.032159984,-0.1096012,0.015489578,0.017366191,0.03545612,-0.9834818,2017-07-23 07:06:01,26.05102939033497
-0.459,-0.574,9.692,0.0,-0.48400173,-0.63948894,9.727526,0.025001734,-0.08751106,-0.035525322,0.018654006,0.036643468,-0.9835433,2017-07-23 07:06:02,25.741613104056825
-0.344,-0.727,9.692,0.0,-0.46436152,-0.656133,9.706537,0.08136153,0.082132995,-0.091537476,0.017564556,0.037379436,-0.9836043,2017-07-23 07:06:03,30.18902353574169
-0.421,-0.574,9.653,0.0,-0.4335227,-0.68142384,9.698931,-0.02547729,0.03042382,-0.045930862,0.015710596,0.038441103,-0.98323846,2017-07-23 07:06:04,25.01704989772829
-0.268,-0.612,9.768,0.0,-0.4567002,-0.6597536,9.701643,-0.0022997856,-0.10624635,-0.009642601,0.017054494,0.03755741,-0.9831413,2017-07-23 07:06:05,25.813455481790687
-0.383,-0.574,9.768,0.0,-0.46854022,-0.64833283,9.766282,0.00954023,0.036332846,0.04071808,0.017536113,0.036895335,-0.98264474,2017-07-23 07:06:06,27.98769300719679
-0.459,-0.727,9.73,0.0,-0.42300776,-0.63542646,9.683772,-0.11299226,0.09942645,0.16122818,0.015474549,0.036149304,-0.98256457,2017-07-23 07:06:07,25.923502739117804
-0.306,-0.689,9.692,0.0,-0.47428924,-0.6174728,9.651223,-0.061710775,0.005472839,0.11677647,0.018350786,0.035810735,-0.9827861,2017-07-23 07:06:08,28.018972261467
-0.344,-0.612,9.73,0.0,-0.44305134,-0.6662813,9.674963,-0.015948653,-0.060718715,0.13203716,0.016326876,0.03787663,-0.983036,2017-07-23 07:06:09,25.593372592810617
-0.498,-0.536,9.692,0.0,-0.47907236,-0.67764056,9.735264,0.05807236,0.14164054,0.032735825,0.01796923,0.038522225,-0.98314595,2017-07-23 07:06:10,28.54766097045886
-0.498,-0.651,9.692,0.0,-0.43149942,-0.68572783,9.681915,-0.066500574,0.03472781,0.010085106,0.015675938,0.038675103,-0.98359543,2017-07-23 07:06:11,28.868673087924044
-0.421,-0.651,9.653,0.0,-0.42774743,-0.70439875,9.726624,0.08374742,0.015398741,-0.111623764,0.01519469,0.039422475,-0.9833468,2017-07-23 07:06:12,27.47578690765444
-0.383,-0.651,9.883,0.0,-0.4395644,-0.6499292,9.6851845,-0.09643561,-0.07707077,0.15981579,0.01629353,0.036976226,-0.9831099,2017-07-23 07:06:14,27.622212449646128
-0.421,-0.651,9.807,0.0,-0.43430635,-0.65134275,9.745892,-0.024693638,0.03934276,0.1371088,0.015826358,0.036808804,-0.98269004,2017-07-23 07:06:15,27.164052519214316
-0.421,-0.612,9.73,0.0,-0.37071574,-0.6425404,9.7169285,-0.12728426,0.068540394,0.16607189,0.012830745,0.035861675,-0.98318064,2017-07-23 07:06:16,30.565836695717245
-0.421,-0.612,9.692,0.0,-0.40734348,-0.63735133,9.6831255,0.02434349,-0.013648689,0.16187477,0.01487656,0.03601757,-0.9836297,2017-07-23 07:06:17,26.303980766464427
-0.459,-0.651,9.692,0.0,-0.45935568,-0.66760904,9.736472,-0.038644314,-0.021390975,-0.12147236,0.017104225,0.037819937,-0.98336154,2017-07-23 07:06:18,28.252980400313582
-0.383,-0.498,9.73,0.0,-0.43958697,-0.6240865,9.704414,-0.096413046,-0.06491351,0.06358528,0.016468639,0.0356163,-0.9829884,2017-07-23 07:06:19,28.257322100028635
-0.498,-0.612,9.653,0.0,-0.4586071,-0.6461325,9.722738,-3.9288402E-4,0.110132515,0.045261383,0.017264644,0.03679706,-0.9832881,2017-07-23 07:06:20,27.2021907941042
-0.459,-0.612,9.653,0.0,-0.43701348,-0.62092817,9.664749,-0.06098652,0.00892818,-0.049749374,0.016559772,0.035520785,-0.9836135,2017-07-23 07:06:21,33.54484913189877
-0.459,-0.574,9.73,0.0,-0.46731085,-0.64368397,9.687109,0.046310842,-0.04531604,0.04289055,0.017761545,0.036900584,-0.9831338,2017-07-23 07:06:22,28.360841705812803
-0.421,-0.727,9.653,0.0,-0.4510342,-0.61926097,9.686927,0.0680342,0.08326095,0.0050735474,0.01715685,0.03552435,-0.9831531,2017-07-23 07:06:23,28.62302623043862
-0.498,-0.651,9.768,0.0,-0.39136562,-0.67975706,9.696559,-0.067634374,-0.04724294,0.03344059,0.013813916,0.03790868,-0.9842807,2017-07-23 07:06:24,27.422271042798542
-0.344,-0.727,9.73,0.0,-0.45789433,-0.6360688,9.697792,-0.04010567,-0.05293119,-0.005791664,0.017544184,0.03629165,-0.98415995,2017-07-23 07:06:25,28.534474715819627
-0.459,-0.689,9.807,0.0,-0.4588199,-0.60839325,9.694575,0.037819892,-0.08060676,0.035424232,0.017685877,0.034995027,-0.9834061,2017-07-23 07:06:26,26.170269755899813
-0.344,-0.612,9.653,0.0,-0.4143569,-0.6742955,9.710815,-0.044643104,0.023295462,0.019184113,0.014821869,0.03784987,-0.98342496,2017-07-23 07:06:27,25.094703023099306
-0.306,-0.612,9.807,0.0,-0.4234097,-0.6510276,9.705975,-0.074590296,-0.07597238,-0.0529747,0.015523101,0.036767893,-0.98356575,2017-07-23 07:06:28,27.98668176106277
-0.459,-0.574,9.73,0.0,-0.44391397,-0.63785875,9.74448,-0.015086025,0.101858735,-0.014480591,0.016560672,0.036169704,-0.9833104,2017-07-23 07:06:29,26.61083037455088
-0.459,-0.804,9.73,0.0,-0.46764177,-0.6807512,9.723398,-0.030358225,-0.08524877,0.04460144,0.017298702,0.038662195,-0.982746,2017-07-23 07:06:30,29.457651724871617
-0.498,-0.651,9.692,0.0,-0.43533072,-0.63406974,9.697974,-0.023669273,0.17506975,-0.005973816,0.016155304,0.036111567,-0.9828955,2017-07-23 07:06:31,28.438943082821297
-0.344,-0.651,9.692,0.0,-0.43499428,-0.623396,9.648014,0.0139942765,0.011395991,0.11998558,0.016366985,0.03573284,-0.98313326,2017-07-23 07:06:32,28.894029312309307
-0.459,-0.727,9.73,0.0,-0.39679903,-0.666865,9.713123,-0.024200976,0.13086498,-0.021122932,0.014032777,0.037297424,-0.9836132,2017-07-23 07:06:33,28.850490956927732
-0.421,-0.612,9.653,0.0,-0.43281507,-0.60833675,9.69783,0.04981509,-0.0036632419,0.07016945,0.016283924,0.0347849,-0.98301786,2017-07-23 07:06:34,28.614918221870408
-0.383,-0.536,9.807,0.0,-0.4265607,-0.67855364,9.74764,0.005560696,-0.01044637,0.17335987,0.015255371,0.038064804,-0.98301023,2017-07-23 07:06:35,26.145893142040908
-0.421,-0.689,9.845,0.0,-0.47959778,-0.68026125,9.817559,-0.018402219,0.029261231,-0.010559082,0.017769933,0.038360193,-0.9829141,2017-07-23 07:06:36,27.17108714608143
-0.344,-0.689,9.845,0.0,-0.49428624,-0.691075,9.811379,-0.0037137568,0.040075004,-0.11937904,0.018322749,0.039097197,-0.98245156,2017-07-23 07:06:37,25.422392901424246
-0.421,-0.727,9.807,0.0,-0.42152953,-0.63770384,9.819113,0.07752952,-0.013296187,-0.0121126175,0.015124901,0.035770975,-0.9823695,2017-07-23 07:06:38,26.100891027033853
-0.498,-0.651,9.73,0.0,-0.47588438,-0.62357926,9.782364,0.054884374,-0.02742076,0.062636375,0.01797752,0.035729084,-0.98202175,2017-07-23 07:06:39,26.1346501068794
-0.459,-0.727,9.768,0.0,-0.4338973,-0.69200563,9.759409,0.012897283,0.04100561,0.085591316,0.015377468,0.038800888,-0.9824965,2017-07-23 07:06:40,26.502581824843464
-0.459,-0.612,9.768,0.0,-0.42061627,-0.63131493,9.72731,-0.115383744,-0.01968509,-0.0743103,0.015374561,0.035737425,-0.9828391,2017-07-23 07:06:41,25.956318315618304
-0.268,-0.651,9.768,0.0,-0.4313323,-0.6271651,9.720253,-0.027667701,-0.06183493,0.04774666,0.016024722,0.03562634,-0.98313445,2017-07-23 07:06:42,28.897808256776617
-0.383,-0.651,9.807,0.0,-0.42147815,-0.6768082,9.646232,-0.19052184,-0.012191832,0.121768,0.0152475545,0.038298577,-0.9833463,2017-07-23 07:06:43,26.321338947997788
-0.229,-0.804,9.768,0.0,-0.427197,-0.6270831,9.717268,0.083197,-0.099916875,0.05073166,0.015781099,0.035613373,-0.98293436,2017-07-23 07:06:44,25.48424209823994
-0.383,-0.612,9.692,0.0,-0.38143697,-0.60795486,9.70102,-0.03956303,-0.004045129,0.06697941,0.013726805,0.03426829,-0.98329186,2017-07-23 07:06:45,28.94277111536281
-0.612,-0.536,9.692,0.0,-0.48723102,-0.633112,9.738215,0.06623101,0.059112012,0.029784203,0.018698288,0.036392722,-0.98278785,2017-07-23 07:06:46,26.48779159010917
-0.498,-0.842,9.768,0.0,-0.42544988,-0.67766726,9.729713,0.004449874,0.026667237,2.861023E-4,0.015188314,0.038099043,-0.9827867,2017-07-23 07:06:47,26.272067840745375
-0.383,-0.727,9.615,0.0,-0.36476976,-0.68737733,9.73119,-0.056230247,-0.07862264,-0.11618996,0.012131725,0.037998,-0.98326814,2017-07-23 07:06:48,30.845036660483338
-0.612,-0.574,9.692,0.0,-0.43043268,-0.6211766,9.72328,0.009432673,-0.06782341,-0.031279564,0.01606512,0.035289936,-0.9833237,2017-07-23 07:06:49,27.9181190588692
-0.421,-0.651,9.73,0.0,-0.34776497,-0.68973374,9.711419,-0.11123502,0.03873372,0.056580544,0.011434281,0.0379931,-0.9840086,2017-07-23 07:06:50,25.580273425396665
-0.421,-0.689,9.73,0.0,-0.4483304,-0.6269619,9.783483,0.027330399,-0.062038124,0.023517609,0.016831543,0.03551302,-0.9834069,2017-07-23 07:06:51,27.118327575857343
-0.536,-0.612,9.845,0.0,-0.45763412,-0.62979543,9.784387,-0.11636588,-0.13620454,-0.16938686,0.017198922,0.0357691,-0.98303646,2017-07-23 07:06:52,28.034751201872055
-0.421,-0.689,9.807,0.0,-0.4612864,-0.66160434,9.810714,-0.07471362,0.049604356,0.0342865,0.017007247,0.03730781,-0.98281187,2017-07-23 07:06:53,26.788943188864
-0.498,-0.612,9.692,0.0,-0.43361786,-0.6308849,9.722694,-0.064382136,0.056884885,0.0073051453,0.016144693,0.035805535,-0.9833406,2017-07-23 07:06:54,25.35611781495396
-0.383,-0.727,9.692,0.0,-0.3806922,-0.60318506,9.66667,-0.19330779,-0.12381494,0.025330544,0.013859147,0.0341103,-0.9836963,2017-07-23 07:06:56,25.357501449549382
-0.344,-0.574,9.73,0.0,-0.42865795,-0.66525894,9.695408,0.007657945,0.20625895,-0.04240799,0.015631197,0.037591115,-0.983326,2017-07-23 07:06:57,27.01104836549647
-0.536,-0.766,9.692,0.0,-0.4476693,-0.6936228,9.690016,-0.0503307,-0.11037719,0.03998375,0.016298559,0.039231695,-0.9830643,2017-07-23 07:06:58,27.626236229849383
-0.383,-0.612,9.653,0.0,-0.44488186,-0.69893634,9.711396,0.06188187,0.009936333,-0.05839634,0.01605677,0.039394114,-0.98298824,2017-07-23 07:06:59,28.06462846537962
-0.459,-0.651,9.692,0.0,-0.458973,-0.6353598,9.725001,-2.7000904E-5,-0.20664018,-0.07200146,0.01730344,0.036285285,-0.9829372,2017-07-23 07:07:00,27.501896261289648
-0.459,-0.689,9.692,0.0,-0.46190035,-0.66463625,9.7128315,0.04090035,-0.062363744,0.13216877,0.017215377,0.037823875,-0.98295534,2017-07-23 07:07:01,26.087463924754193
-0.421,-0.536,9.615,0.0,-0.44422948,-0.66025865,9.620191,0.10022947,0.048258662,0.10980892,0.016551223,0.037788995,-0.98310995,2017-07-23 07:07:02,29.710043479643527
-0.421,-0.536,9.807,0.0,-0.43525848,-0.6239877,9.682885,0.014258474,0.011987686,-0.0678854,0.016290328,0.035649337,-0.9830075,2017-07-23 07:07:03,25.78451170747379
-0.344,-0.727,9.692,0.0,-0.39783618,-0.6110898,9.724411,-0.10016382,-0.039910197,0.04358864,0.014476015,0.03449885,-0.9831892,2017-07-23 07:07:04,29.11517567584064
-0.459,-0.612,9.692,0.0,-0.41857195,-0.6317803,9.713256,-0.040428042,0.057780325,0.01674366,0.015384734,0.035753477,-0.983315,2017-07-23 07:07:05,28.901529298806686
-0.421,-0.689,9.73,0.0,-0.46093407,-0.6259307,9.67047,0.03993407,-0.063069284,0.021530151,0.01765974,0.035995428,-0.98329663,2017-07-23 07:07:06,28.853811000001702
-0.344,-0.651,9.845,0.0,-0.44321874,-0.64834994,9.715355,-0.054781258,-0.07865006,0.014644623,0.016474519,0.03680091,-0.9832706,2017-07-23 07:07:07,25.438304745890807
-0.421,-0.727,9.73,0.0,-0.41259283,-0.60898894,9.685623,0.106592834,-0.0030110478,0.044376373,0.015318244,0.034657437,-0.9832622,2017-07-23 07:07:08,28.454819978892772
-0.536,-0.689,9.692,0.0,-0.45584172,-0.61568284,9.673961,0.034841716,0.117682844,0.09403896,0.01747653,0.035424586,-0.98325115,2017-07-23 07:07:09,25.918143181057456
-0.536,-0.612,9.768,0.0,-0.39259103,-0.71175593,9.676878,-0.10540897,0.17575592,-0.09987831,0.013495258,0.039655756,-0.983682,2017-07-23 07:07:10,25.79971059937055
-0.306,-0.727,9.73,0.0,-0.46146056,-0.6442983,9.727909,0.078460574,-0.12170166,0.15509129,0.017321516,0.036755733,-0.98282796,2017-07-23 07:07:11,30.41940990387865
-0.459,-0.651,9.807,0.0,-0.4598756,-0.6022355,9.669295,0.07687563,-0.16376448,0.06070423,0.017779155,0.034816157,-0.98308873,2017-07-23 07:07:12,27.564704412716075
-0.498,-0.651,9.692,0.0,-0.4150777,-0.6885491,9.705112,-0.043922305,0.1905491,-0.1281128,0.014829407,0.038561083,-0.9838215,2017-07-23 07:07:13,27.581301957686915
-0.421,-0.536,9.73,0.0,-0.46748903,-0.67608976,9.697029,0.04648903,0.064089775,0.03297043,0.017527614,0.038463384,-0.983427,2017-07-23 07:07:14,28.399209640458494
-0.498,-0.727,9.692,0.0,-0.42624962,-0.6837894,9.743647,-0.032750368,0.18578938,0.06335354,0.015237778,0.038324635,-0.98318803,2017-07-23 07:07:15,26.06854563122102
-0.498,-0.727,9.73,0.0,-0.4162429,-0.6003321,9.707158,0.03324291,-0.24166793,0.06084156,0.015533177,0.034184046,-0.98319423,2017-07-23 07:07:16,28.929132439312717
-0.459,-0.574,9.615,0.0,-0.41146722,-0.6350813,9.675901,-0.009532779,-0.13091868,-0.022901535,0.015028536,0.036003705,-0.98319024,2017-07-23 07:07:17,28.775844763920286
-0.459,-0.498,9.692,0.0,-0.43916136,-0.6913872,9.686606,0.018161356,0.002387166,0.08139324,0.015883688,0.03906002,-0.98302746,2017-07-23 07:07:18,26.31959734082319
-0.536,-0.651,9.692,0.0,-0.4281276,-0.6925603,9.718588,-0.030872405,0.118560314,0.011411667,0.015258301,0.03889391,-0.9830168,2017-07-23 07:07:19,25.619708819768864
-0.421,-0.766,9.845,0.0,-0.46192583,-0.637875,9.704785,0.04092583,-0.12812495,0.10221481,0.01743812,0.03652759,-0.98279375,2017-07-23 07:07:20,25.413220171714116
-0.498,-0.612,9.692,0.0,-0.461811,-0.6605347,9.687612,0.07881102,-0.06646532,0.042387962,0.017300425,0.037711233,-0.9829893,2017-07-23 07:07:21,28.681425556481525
-0.498,-0.612,9.692,0.0,-0.43364426,-0.6570249,9.717132,0.08964425,-0.03197509,-0.10213184,0.015969297,0.03711861,-0.98355514,2017-07-23 07:07:22,25.566028122028076
-0.498,-0.727,9.768,0.0,-0.49770504,-0.6461422,9.6953,-0.03829497,-0.042857826,-0.042300224,0.019275904,0.03725985,-0.9831686,2017-07-23 07:07:23,27.77079035740286
-0.383,-0.574,9.73,0.0,-0.44132656,-0.6481484,9.717466,0.020326555,-0.040851593,-0.10246658,0.016241316,0.036826007,-0.98261017,2017-07-23 07:07:24,30.123568436754486
-0.306,-0.766,9.653,0.0,-0.4288655,-0.6537788,9.740318,-0.0301345,-0.03522122,-0.04831791,0.015501007,0.03691754,-0.982507,2017-07-23 07:07:25,27.17296600285023
-0.459,-0.612,9.73,0.0,-0.41856447,-0.603501,9.676569,-0.117435545,-0.123498976,0.13043118,0.015655013,0.034480706,-0.9831028,2017-07-23 07:07:26,28.623200930980186
-0.383,-0.651,9.538,0.0,-0.4517815,-0.6172187,9.6784,-0.0842185,0.0052186847,0.08959961,0.017254716,0.035447083,-0.98328376,2017-07-23 07:07:27,27.122837888223597
-0.536,-0.574,9.807,0.0,-0.42976826,-0.64809483,9.682077,0.08576825,-0.040905178,0.047922134,0.015873834,0.036783494,-0.9833837,2017-07-23 07:07:28,26.518664543844753
-0.421,-0.651,9.73,0.0,-0.4168679,-0.67025113,9.7242565,-0.004132092,-0.01874888,-0.07125664,0.01497241,0.037614696,-0.98346645,2017-07-23 07:07:29,25.159449548522375
-0.498,-0.727,9.653,0.0,-0.4150114,-0.6811061,9.673431,0.03201142,-0.00789392,0.09456825,0.014818351,0.03835806,-0.98326266,2017-07-23 07:07:30,27.161754026504504
-0.459,-0.574,9.692,0.0,-0.45633316,-0.64264214,9.705696,0.035333157,-0.08435786,-0.013695717,0.017180284,0.036680046,-0.98313767,2017-07-23 07:07:31,27.12616001203607
-0.498,-0.612,9.653,0.0,-0.44605958,-0.64032984,9.683091,-0.05194041,0.06632984,0.008909225,0.016734323,0.036549207,-0.98321193,2017-07-23 07:07:32,26.541088285489863
-0.383,-0.689,9.845,0.0,-0.45195317,-0.6368706,9.704318,-0.0070468187,-0.12912935,0.025681496,0.017017758,0.0363538,-0.98316634,2017-07-23 07:07:34,28.412335619527465
-0.498,-0.574,9.692,0.0,-0.47737935,-0.66094387,9.650084,0.01837936,-0.06605613,0.041916847,0.018183151,0.038005646,-0.98310095,2017-07-23 07:07:35,25.757109066423705
-0.459,-0.766,9.692,0.0,-0.45746517,-0.7100937,9.740846,-0.11653483,0.021093667,-0.0878458,0.016559772,0.039939757,-0.9830547,2017-07-23 07:07:36,30.024305787443183
-0.498,-0.612,9.768,0.0,-0.44109413,-0.66921,9.700966,0.058094144,0.095210016,-0.008965492,0.01615392,0.037906714,-0.9830213,2017-07-23 07:07:37,29.412328050429576
-0.383,-0.689,9.577,0.0,-0.42318293,-0.721564,9.693482,-0.07481706,0.18556398,-0.04048252,0.014788152,0.040406194,-0.9830078,2017-07-23 07:07:38,28.005801585940656
-0.574,-0.727,9.653,0.0,-0.4310607,-0.6466027,9.691526,-0.02793929,-0.04239732,-0.038526535,0.015858809,0.036718216,-0.9830046,2017-07-23 07:07:39,27.221211467897277
-0.306,-0.651,9.692,0.0,-0.3920151,-0.68269205,9.662317,-0.028984904,-0.044307947,-0.047317505,0.013682226,0.03826374,-0.9834145,2017-07-23 07:07:40,28.602209933729522
-0.574,-0.612,9.653,0.0,-0.40908095,-0.68604136,9.696198,-0.011919051,-0.07995862,-0.0041980743,0.0144507745,0.03845893,-0.983321,2017-07-23 07:07:41,26.713681271445402
-0.574,-0.727,9.653,0.0,-0.46736303,-0.6288313,9.707666,0.08436304,-0.060168684,-0.015666008,0.017828953,0.036092374,-0.982987,2017-07-23 07:07:42,27.106544114940338
-0.498,-0.651,9.692,0.0,-0.4273418,-0.64067745,9.742312,-0.14665821,-0.04832256,-0.050312042,0.015712019,0.03616682,-0.98336047,2017-07-23 07:07:43,27.02647589045968
-0.421,-0.766,9.768,0.0,-0.41425043,-0.6415241,9.671544,0.07025042,-0.009475946,0.020456314,0.015105677,0.03637511,-0.98312306,2017-07-23 07:07:44,30.56503988659347
-0.268,-0.498,9.692,0.0,-0.41910288,-0.6136808,9.738304,-0.039897114,-0.037319243,-0.08530426,0.015489948,0.034779117,-0.98310035,2017-07-23 07:07:45,26.792885726647356
-0.421,-0.498,9.692,0.0,-0.4631342,-0.62908405,9.725023,0.004134208,-0.05991596,-0.1100235,0.01747653,0.036054578,-0.9824652,2017-07-23 07:07:46,26.496124421487906
-0.421,-0.766,9.692,0.0,-0.46887532,-0.64006734,9.729462,0.20087531,-0.08693266,-0.03746128,0.017697249,0.0366215,-0.9826561,2017-07-23 07:07:47,27.809603944392652
-0.498,-0.689,9.73,0.0,-0.48510665,-0.6395607,9.615702,0.14110664,-0.011439323,0.19129848,0.018740078,0.037175972,-0.9826321,2017-07-23 07:07:48,28.100670419575327
-0.536,-0.651,9.538,0.0,-0.43699688,-0.6260728,9.685991,0.015996873,-0.024927199,0.006009102,0.01625599,0.035803452,-0.9825094,2017-07-23 07:07:49,28.161661829283048
-0.421,-0.536,9.692,0.0,-0.46858424,-0.68320423,9.704689,0.08558425,-0.12079579,0.025310516,0.017340431,0.038874555,-0.9826631,2017-07-23 07:07:50,27.93250699789588
-0.383,-0.574,9.807,0.0,-0.4571587,-0.63604236,9.667925,-0.0018412769,-0.014957666,-0.014925003,0.017321086,0.036510248,-0.9829991,2017-07-23 07:07:51,27.99553228421444
-0.383,-0.689,9.768,0.0,-0.43570584,-0.6521233,9.673982,-0.062294155,0.0011232495,0.018018723,0.016123913,0.037082262,-0.9832417,2017-07-23 07:07:52,25.901392671859927
-0.498,-0.651,9.653,0.0,-0.4527644,-0.67423576,9.705348,0.031764388,0.062235773,-0.052348137,0.016747229,0.03822302,-0.98327035,2017-07-23 07:07:53,26.345697588645184
-0.459,-0.727,9.768,0.0,-0.4590764,-0.6464665,9.643097,-0.03892359,-0.042533517,0.048903465,0.01740305,0.037132055,-0.98315716,2017-07-23 07:07:54,28.779463898861692
-0.536,-0.651,9.692,0.0,-0.4192244,-0.6514749,9.67547,-0.0017755926,-0.075525105,0.0925293,0.015273918,0.036902808,-0.9831732,2017-07-23 07:07:55,31.524158590457464
-0.459,-0.727,9.653,0.0,-0.44948512,-0.6902975,9.665343,-0.009514868,-0.036702514,-0.050343513,0.016477231,0.03917335,-0.9831294,2017-07-23 07:07:56,26.98664533623794
-0.498,-0.612,9.653,0.0,-0.45832574,-0.61238027,9.693561,-0.15367424,-0.11461973,0.036438942,0.017563283,0.03522675,-0.9830824,2017-07-23 07:07:57,26.20844370679699
-0.421,-0.766,9.653,0.0,-0.46664816,-0.6693664,9.710243,-0.031351835,-0.1346336,0.019756317,0.017412465,0.038116246,-0.98292625,2017-07-23 07:07:58,29.461403032128395
-0.383,-0.689,9.768,0.0,-0.46135646,-0.5928563,9.635674,0.0023564696,-0.0191437,0.20932579,0.018009406,0.03447141,-0.98312485,2017-07-23 07:07:59,30.827857208251558
-0.421,-0.612,9.653,0.0,-0.48963258,-0.6678635,9.684561,-0.008367419,0.13186347,0.27543926,0.018721383,0.038308106,-0.98329675,2017-07-23 07:08:00,32.08541337555096
-0.344,-0.536,9.653,0.0,-0.40273046,-0.68040687,9.735922,-0.018269539,-0.04659313,-0.12092209,0.014123804,0.03796308,-0.983344,2017-07-23 07:08:01,31.681166482912
-0.459,-0.536,9.653,0.0,-0.42856812,-0.6637435,9.693208,0.007568121,0.12774348,-0.07820797,0.015589196,0.037545107,-0.98306894,2017-07-23 07:08:02,30.189697530298155
-0.536,-0.689,9.73,0.0,-0.41749337,-0.6906124,9.646224,0.034493387,0.039612353,0.045776367,0.014959965,0.038945403,-0.98352003,2017-07-23 07:08:03,32.99584326432727
-0.498,-0.612,9.5,1.0,-0.48563746,-0.60052526,9.747397,-0.050362557,0.06452525,0.5576029,0.018919323,0.034701694,-0.98292094,2017-07-23 07:08:04,29.705311957578253
-0.574,-0.574,9.73,3.0,-0.49418768,-0.65148383,9.699917,0.03518769,4.838109E-4,0.030082703,0.019059785,0.03746962,-0.98325926,2017-07-23 07:08:05,61.36101879906026
-1.034,2.451,8.121,3.0,-0.32703304,-0.5391791,9.526723,-0.20896697,-0.034820914,0.28027725,0.0119840475,0.030792706,-0.98435163,2017-07-23 07:08:07,28.912014106330712
-0.459,-0.689,9.692,1.0,-0.5648311,-0.48998314,9.698778,-0.086168945,0.5279831,-0.6197777,0.024107264,0.02996994,-0.9833236,2017-07-23 07:08:08,39.70603404076675
-0.229,-0.114,9.232,3.0,-0.6764605,-0.39300424,9.674283,0.48546052,0.049004227,0.13271713,0.030656666,0.026212165,-0.9828454,2017-07-23 07:08:09,50.824278934842376
-0.153,-1.34,9.845,3.0,-0.17506362,-0.49869078,8.986458,-0.5139364,0.4606908,0.7435417,0.0050434396,0.02893221,-0.98598856,2017-07-23 07:08:10,36.34927229410355
-0.766,0.038,9.653,3.0,-0.5567225,-0.50827897,9.736089,-0.17027748,0.69927895,-0.044088364,0.023568423,0.030603638,-0.98406076,2017-07-23 07:08:11,36.80711830490032
-0.689,-0.076,9.653,3.0,-0.5987129,-0.16084604,9.745958,0.02471292,0.16084604,0.02204132,0.028706515,0.013581111,-0.98344886,2017-07-23 07:08:12,29.499657550490678
-0.881,-0.612,9.921,34.0,-0.38915923,-0.24230023,9.834638,-0.33784077,-0.21669976,-0.25763798,0.017381629,0.015498123,-0.9850961,2017-07-23 07:08:13,35.17206081763914
-0.306,-0.076,10.151,1162.0,-0.707449,-0.22101048,9.728204,-0.13455099,0.29701048,0.26979637,0.03435862,0.01625828,-0.98961496,2017-07-23 07:08:14,50.47149052259417
8.006,-6.205,2.528,169.0,4.594896,-3.2383556,7.969117,2.0701041,-1.8176446,-4.100117,0.24219571,-0.1810078,0.95282257,2017-07-23 07:08:15,32.88339848463171
8.466,-2.949,2.49,127.0,7.5457535,-3.1931734,2.872749,1.6862469,-0.17782664,-1.838749,0.5194252,-0.25449157,0.8144951,2017-07-23 07:08:16,60.29591066881109
7.278,-0.421,0.421,131.0,8.969617,-0.77441025,1.2546508,-1.4996171,0.008410275,-0.029650807,0.622201,-0.20941126,0.732971,2017-07-23 07:08:17,44.34186360992931
8.274,-0.306,9.002,199.0,10.490337,-2.3934116,3.048977,-6.3913374,3.0444117,-7.147977,-0.592986,0.10978343,-0.79701513,2017-07-23 07:08:18,29.666696077904668
-0.191,-0.191,-10.611,1.0,6.9537187,-0.3915326,-1.5883757,-6.6477184,0.3915326,-4.4636245,0.779259,-0.06269591,0.6233779,2017-07-23 07:08:19,60.028861741446136
-0.383,-0.459,-9.768,0.0,-0.32135418,-0.29886508,-9.747824,-0.061645806,0.030865073,-0.09717655,-0.9982329,0.055001043,0.01560305,2017-07-23 07:08:20,42.536867193908144
-0.421,-0.344,-9.692,0.0,-0.3296706,-0.33240592,-9.783864,0.023670614,0.10340592,-0.061136246,-0.9982141,0.054746322,0.015878528,2017-07-23 07:08:21,29.03950089611341
-0.383,-0.383,-9.653,0.0,-0.3478869,-0.2830202,-9.714914,0.0038868785,-0.022979796,-0.09208584,-0.9982159,0.055073194,0.017061483,2017-07-23 07:08:22,38.281003831332285
-0.421,-0.383,-9.73,0.0,-0.34883654,-0.30351725,-9.677216,-0.034163445,-0.002482742,-0.014784813,-0.9983842,0.05156817,0.017175948,2017-07-23 07:08:23,27.23055423881751
-0.421,-0.344,-9.883,0.0,-0.3546122,-0.3372904,-9.788643,0.086612195,-0.04570958,-0.056357384,-0.9983337,0.052020576,0.017176382,2017-07-23 07:08:24,32.47228388743068
-0.383,-0.268,-9.73,0.0,-0.36287707,-0.33193246,-9.775513,-0.13512293,0.10293245,0.0075130463,-0.99832064,0.052194875,0.017631872,2017-07-23 07:08:25,27.381648448860943
-0.383,-0.306,-9.921,0.0,-0.36310562,-0.3240055,-9.797273,0.05710563,0.01800552,0.029273033,-0.9984718,0.049379364,0.017675342,2017-07-23 07:08:26,33.22827777244035
-0.459,-0.421,-9.768,0.0,-0.40236622,-0.31679976,-9.777023,-0.05663377,-0.104200244,0.08502293,-0.9984608,0.04890253,0.019739566,2017-07-23 07:08:27,30.212220153348582
-0.383,-0.344,-9.73,0.0,-0.37326846,-0.29332605,-9.748387,-0.04773155,-0.08967394,0.056386948,-0.99846697,0.049717396,0.018356875,2017-07-23 07:08:28,28.6854915973435
-0.344,-0.229,-9.768,0.0,-0.39110157,-0.25536767,-9.76777,0.085101575,0.026367664,0.03777027,-0.9981895,0.055199813,0.019251151,2017-07-23 07:08:29,26.162385188180455
-0.268,-0.383,-9.807,0.0,-0.38707787,-0.2592425,-9.792998,0.08107787,-0.04675749,0.100997925,-0.99798864,0.058769852,0.018934676,2017-07-23 07:08:30,31.413523842909427
-0.306,-0.421,-9.807,0.0,-0.35956827,-0.29634196,-9.744849,0.015568256,0.028341949,-0.062150955,-0.99814194,0.05605447,0.017552676,2017-07-23 07:08:31,27.437607931604433
-0.344,-0.191,-9.615,0.0,-0.34655252,-0.28636724,-9.753268,0.0025525093,-0.019632757,-0.05373192,-0.99837804,0.052066673,0.01696382,2017-07-23 07:08:32,28.688458323039946
-0.421,-0.536,-9.73,0.0,-0.30556095,-0.36108747,-9.757143,0.03756094,0.093087465,0.06514263,-0.9983581,0.051909458,0.014663688,2017-07-23 07:08:33,26.329671180045263
-0.344,-0.153,-9.807,0.0,-0.3940954,-0.2999539,-9.734222,-0.026904613,-0.044046104,0.00422287,-0.99800676,0.0577639,0.019299854,2017-07-23 07:08:34,36.03671711497014
-0.344,-0.306,-9.768,0.0,-0.2924076,-0.31338346,-9.72551,-0.013592392,0.0073834658,0.033509254,-0.9983829,0.052409407,0.014157525,2017-07-23 07:08:35,28.194713157212167
-0.306,-0.229,-9.73,0.0,-0.39533085,-0.27604926,-9.730515,0.16633084,0.00804925,-0.037485123,-0.99810016,0.056421317,0.01946323,2017-07-23 07:08:36,29.69120933469263
-0.383,-0.268,-9.653,0.0,-0.28056768,-0.29880756,-9.711076,-0.10243231,-0.04519245,-0.09592438,-0.99836946,0.05304373,0.013600298,2017-07-23 07:08:37,28.271401143901954
-0.421,-0.421,-9.845,0.0,-0.341054,-0.30277723,-9.71549,0.035054,0.034777224,-0.052509308,-0.9982884,0.053575102,0.016678128,2017-07-23 07:08:39,32.72903997302242
-0.268,-0.383,-9.73,0.0,-0.34830126,-0.31156486,-9.725405,0.042301267,0.0055648685,-0.04259491,-0.99828917,0.053314827,0.017012503,2017-07-23 07:08:40,29.304002677036397
-0.383,-0.306,-9.73,0.0,-0.34347588,-0.33533964,-9.776047,-0.03952411,0.06733963,-0.030953407,-0.99826735,0.05348491,0.016609639,2017-07-23 07:08:41,29.18931415552826
-0.153,-0.344,-9.692,0.0,-0.35121694,-0.28548878,-9.749964,0.083216935,0.017488778,-0.0570364,-0.9981397,0.056384858,0.01714295,2017-07-23 07:08:42,26.728398773517867
-0.344,-0.268,-9.845,0.0,-0.36889336,-0.30564123,-9.780056,-0.05210665,-0.038358778,0.08805561,-0.99835265,0.051895678,0.01800651,2017-07-23 07:08:43,26.511170474085077
-0.383,-0.306,-9.692,0.0,-0.36438477,-0.28198892,-9.804403,0.020384759,0.013988912,0.112402916,-0.9986813,0.0456556,0.017891943,2017-07-23 07:08:44,27.796598926321153
-0.421,-0.344,-9.73,0.0,-0.36881477,-0.30508447,-9.739751,-0.12918523,-0.038915545,0.00975132,-0.99857193,0.047448624,0.018152393,2017-07-23 07:08:45,25.84580762427553
-0.344,-0.191,-9.845,0.0,-0.3433029,-0.336451,-9.813252,-0.15469709,-0.046548992,0.12125206,-0.998283,0.053218458,0.016539514,2017-07-23 07:08:46,27.207018324982506
-0.268,-0.344,-9.921,0.0,-0.3552673,-0.3116057,-9.73903,0.011267275,0.08260569,-0.067970276,-0.99822813,0.054341447,0.017327536,2017-07-23 07:08:47,26.330085891270976
-0.306,-0.306,-9.692,0.0,-0.38614753,-0.2868569,-9.789732,0.19514753,-0.019143105,0.059732437,-0.99816203,0.055408224,0.01886253,2017-07-23 07:08:48,28.620667085047305
-0.421,-0.306,-9.73,0.0,-0.38668072,-0.32041883,-9.765915,0.04268071,0.24441883,0.035915375,-0.9980223,0.057373438,0.018804772,2017-07-23 07:08:49,26.098402642082764
-0.344,-0.383,-9.845,0.0,-0.37289965,-0.2850758,-9.759731,-0.048100352,0.13207582,-0.047268867,-0.9983306,0.05252415,0.018294264,2017-07-23 07:08:50,29.347158793953803
-0.229,-0.191,-9.692,0.0,-0.379238,-0.2692676,-9.772693,-0.07976198,0.040267587,0.0046930313,-0.9982972,0.053267434,0.018625626,2017-07-23 07:08:51,28.634750503207272
-0.383,-0.268,-9.768,0.0,-0.37883773,-0.27009875,-9.738064,0.11083773,0.0020987391,0.00806427,-0.9982662,0.05380352,0.018660795,2017-07-23 07:08:52,29.64012734821015
-0.383,-0.268,-9.577,0.0,-0.36011785,-0.3085838,-9.747309,-0.09888214,0.0025838017,0.13230896,-0.99823797,0.054130994,0.017573038,2017-07-23 07:08:53,29.224157481897937
-0.421,-0.306,-9.807,0.0,-0.3583858,-0.320441,-9.733757,0.01438579,0.052441,0.04175663,-0.9982039,0.054592323,0.017467149,2017-07-23 07:08:54,28.220895086591295
-0.268,-0.268,-9.768,0.0,-0.34265748,-0.29851404,-9.813566,-0.04034251,-0.08448595,0.12156582,-0.9983969,0.051656082,0.016635636,2017-07-23 07:08:55,26.632508167767984
-0.383,-0.306,-9.768,0.0,-0.3826185,-0.34090906,-9.787113,-0.076381505,-0.11809093,-0.01988697,-0.9983106,0.051883187,0.018597603,2017-07-23 07:08:56,28.81639274465951
-0.306,-0.268,-9.807,0.0,-0.4044998,-0.32742476,-9.789732,0.021499813,-0.09357524,0.059732437,-0.9981242,0.055164844,0.019684382,2017-07-23 07:08:57,31.302263125571198
-0.268,-0.344,-9.73,0.0,-0.37807298,-0.28048417,-9.8170395,0.11007297,0.012484163,0.1250391,-0.9981346,0.056155395,0.018407134,2017-07-23 07:08:58,28.696939889908208
-0.268,-0.268,-9.807,0.0,-0.3129592,-0.3252659,-9.800768,-0.031040817,-0.057734072,0.03276825,-0.9982862,0.053807676,0.015037953,2017-07-23 07:08:59,26.59906919539511
-0.344,-0.306,-9.768,0.0,-0.3302528,-0.2819772,-9.780377,0.06225279,-0.10102278,0.012377739,-0.99841785,0.051668197,0.016104031,2017-07-23 07:09:00,29.400532125257858
-0.459,-0.306,-9.692,0.0,-0.32453433,-0.26162794,-9.731273,0.018534333,-0.0063720644,-0.03672695,-0.9985763,0.048859548,0.015987016,2017-07-23 07:09:01,29.50231703476403
-0.383,-0.383,-9.807,0.0,-0.31381887,-0.31447244,-9.760264,0.007818878,0.12347244,-0.08473587,-0.99840224,0.05172844,0.015209393,2017-07-23 07:09:02,29.30656576290042
-0.421,-0.114,-9.692,0.0,-0.36723122,-0.29410127,-9.712435,0.09923121,0.065101266,-0.1705656,-0.99822724,0.054376673,0.018037928,2017-07-23 07:09:03,29.14488809463267
-0.383,-0.306,-9.807,0.0,-0.3224581,-0.28266707,-9.714576,-0.060541898,0.05366707,-0.09242439,-0.9984983,0.05014743,0.01583436,2017-07-23 07:09:04,27.09841974639424
-0.268,-0.421,-9.73,0.0,-0.32443544,-0.31927645,-9.808507,0.018435448,0.12827645,-0.0364933,-0.9984933,0.04973418,0.015695889,2017-07-23 07:09:05,26.743793722811343
-0.306,-0.306,-9.768,0.0,-0.34658223,-0.27862203,-9.739627,0.04058224,0.010622025,-0.028372765,-0.99843276,0.05110418,0.017024761,2017-07-23 07:09:06,29.713419985001703
-0.383,-0.421,-9.768,0.0,-0.34383354,-0.2791233,-9.710688,0.07583353,0.0111233,0.018687248,-0.99830145,0.05361917,0.016894285,2017-07-23 07:09:07,29.899075865236725
-0.229,-0.344,-9.768,0.0,-0.29650414,-0.3098612,-9.769646,-0.009495854,0.0038612187,0.0776453,-0.9982724,0.054508187,0.014277009,2017-07-23 07:09:09,29.966399140160643
-0.191,-0.421,-9.845,0.0,-0.3220191,-0.263555,-9.779343,-0.021980911,0.03455499,-0.10365772,-0.99834055,0.053517077,0.0157087,2017-07-23 07:09:10,27.697161978840015
-0.459,-0.306,-9.73,0.0,-0.34831163,-0.30780265,-9.80722,-0.14968836,0.0018026531,0.03922081,-0.9984603,0.050163917,0.01693393,2017-07-23 07:09:11,28.53282212891991
-0.344,-0.229,-9.807,0.0,-0.29498196,-0.28989157,-9.752233,0.02698195,0.021891564,-0.05476761,-0.99855137,0.049458213,0.014360264,2017-07-23 07:09:12,46.899846718183824
-0.421,-0.344,-9.768,0.0,-0.34785217,-0.331279,-9.760882,0.0038521588,-0.012721002,-0.046117783,-0.99827087,0.05339373,0.016871778,2017-07-23 07:09:13,33.91408272717615
-0.459,-0.191,-9.768,0.0,-0.3958301,-0.29623705,-9.805092,-0.025169909,0.028237045,0.11309147,-0.9981174,0.055921663,0.019289814,2017-07-23 07:09:14,26.58035631164075
-0.306,-0.191,-9.692,0.0,-0.35008374,-0.29333845,-9.775744,-0.032916248,-0.08966154,0.08374405,-0.9982681,0.053999525,0.017055368,2017-07-23 07:09:15,26.927376505738685
-0.268,-0.306,-9.73,0.0,-0.33639657,-0.26511207,-9.782142,0.03039658,-0.0028879344,0.12914181,-0.9983783,0.05255719,0.016446454,2017-07-23 07:09:16,27.10799712947371
-0.383,-0.153,-9.73,0.0,-0.38768026,-0.27237624,-9.783769,0.15868026,-0.07162377,-0.023231506,-0.9982015,0.054849792,0.019002235,2017-07-23 07:09:17,40.71161347506062
-0.344,-0.306,-9.653,0.0,-0.36494792,-0.24465747,-9.733146,-0.05605209,-0.023342535,-0.034853935,-0.9982595,0.05449233,0.018020986,2017-07-23 07:09:18,31.29233759828697
-0.344,-0.268,-9.807,0.0,-0.2926574,-0.28451958,-9.777843,0.024657398,-0.05948043,0.085843086,-0.99842906,0.052003674,0.014179085,2017-07-23 07:09:19,26.954868068918092
-0.421,-0.421,-9.807,0.0,-0.32086772,-0.28834963,-9.747222,-0.023132294,0.13534963,0.055221558,-0.99849975,0.05009302,0.015685916,2017-07-23 07:09:20,28.13178185075765
-0.306,-0.153,-9.768,0.0,-0.29664975,-0.27733383,-9.748289,-0.047350258,0.048333824,-0.058711052,-0.99860835,0.04845638,0.0144986445,2017-07-23 07:09:21,30.215478317460214
-0.421,-0.306,-9.768,0.0,-0.31103346,-0.30284557,-9.804261,0.04303345,-0.041154444,-0.078739166,-0.99848557,0.050369944,0.015052809,2017-07-23 07:09:22,28.274532045096464
-0.383,-0.383,-9.768,0.0,-0.30369216,-0.30113518,-9.793862,-0.04030785,-0.004864812,0.17886257,-0.99838585,0.052436978,0.014666229,2017-07-23 07:09:23,30.686343952115163
-0.306,-0.268,-9.845,0.0,-0.348795,-0.3067609,-9.761428,0.042795002,0.0387609,0.031428337,-0.9982845,0.053505383,0.01698489,2017-07-23 07:09:24,31.4590804568314
-0.306,-0.229,-9.807,0.0,-0.32981947,-0.29014707,-9.789424,-0.053180516,-0.13085294,0.17442417,-0.998254,0.05464716,0.015998198,2017-07-23 07:09:25,28.19244380864977
-0.421,-0.306,-9.692,0.0,-0.32071912,-0.29498252,-9.782973,-0.023280889,-0.04901749,0.01497364,-0.9982368,0.055028398,0.015525501,2017-07-23 07:09:26,29.642964682179496
-0.344,-0.383,-9.883,0.0,-0.288997,-0.24467179,-9.824416,0.020996988,-0.17632821,0.017416,-0.9983082,0.05486188,0.01399503,2017-07-23 07:09:27,27.406471394028785
-0.229,-0.383,-9.807,0.0,-0.32864362,-0.29749686,-9.793098,-0.054356366,-0.046503156,0.06309891,-0.9982048,0.055458896,0.015898691,2017-07-23 07:09:28,37.005784920262656
-0.383,-0.306,-9.807,0.0,-0.3778028,-0.3349111,-9.734762,0.033802778,0.0669111,-0.07223797,-0.99807197,0.05640256,0.018384859,2017-07-23 07:09:29,27.688295252585515
-0.229,-0.383,-9.883,0.0,-0.3298448,-0.26221436,-9.748158,0.023844808,-0.15878564,0.018158913,-0.9981582,0.056690324,0.01611698,2017-07-23 07:09:30,27.902315447995797
-0.421,-0.191,-9.73,0.0,-0.3449997,-0.2664137,-9.74096,9.996891E-4,0.11341369,-0.027039528,-0.9981778,0.05604623,0.016901338,2017-07-23 07:09:31,29.55046641880632
-0.344,-0.153,-9.807,0.0,-0.3311771,-0.29002565,-9.790164,0.06317708,0.09902565,-0.016836166,-0.998255,0.054609105,0.01606744,2017-07-23 07:09:32,28.710196366883878
-0.421,-0.306,-9.692,0.0,-0.332921,-0.29678982,-9.769366,0.06492099,0.06778982,0.039366722,-0.99827665,0.05406971,0.016179727,2017-07-23 07:09:33,29.302359515795015
-0.306,-0.306,-9.768,0.0,-0.35122967,-0.28499678,-9.776097,-0.069770336,0.016996771,0.12309742,-0.99827194,0.054026283,0.017135995,2017-07-23 07:09:34,26.56581967398559
-0.268,-0.344,-9.73,0.0,-0.32445493,-0.3033627,-9.757973,-0.09654507,-0.1946373,0.027973175,-0.99829185,0.053816397,0.015751801,2017-07-23 07:09:35,26.969805932507228
-0.191,-0.306,-9.73,0.0,-0.31614125,-0.34910405,-9.772709,-0.06685874,0.15810405,-0.034291267,-0.9982045,0.054845717,0.015157378,2017-07-23 07:09:36,27.148240071372992
-0.344,-0.383,-9.768,0.0,-0.35224393,-0.2879132,-9.796392,0.046243936,-0.018086791,0.18139267,-0.99825376,0.05432362,0.017139472,2017-07-23 07:09:37,27.793632354425686
-0.306,-0.268,-9.807,0.0,-0.31865078,-0.33159736,-9.786762,0.050650775,-0.012402654,0.018762589,-0.99833935,0.052606355,0.015352738,2017-07-23 07:09:38,26.273928631210232
-0.459,-0.383,-9.768,0.0,-0.3735249,-0.26677206,-9.703708,0.029524893,-0.0012279451,-0.026291847,-0.9980813,0.05723002,0.0184128,2017-07-23 07:09:39,31.8577420835735
-0.344,-0.383,-9.768,0.0,-0.356534,-0.32994273,-9.745293,0.05053401,0.10094273,0.092292786,-0.9980921,0.056498513,0.017290518,2017-07-23 07:09:40,29.27562325708509
-0.306,-0.191,-9.807,0.0,-0.30200052,-0.27758837,-9.812725,-0.080999464,0.009588361,0.082725525,-0.9983637,0.053232316,0.01460361,2017-07-23 07:09:41,26.326411356010144
-0.306,-0.306,-9.692,0.0,-0.3258552,-0.29172364,-9.7901535,0.019855201,0.023723632,0.022153854,-0.998324,0.053394705,0.015810816,2017-07-23 07:09:42,25.662740301472738
-0.383,-0.229,-9.768,0.0,-0.33795792,-0.30185622,-9.804421,0.06995791,0.18785623,0.036421776,-0.9983653,0.052284013,0.016393365,2017-07-23 07:09:43,31.590129046105556
-0.306,-0.229,-9.692,0.0,-0.3094462,-0.29602218,-9.733136,0.0034461915,0.067022175,0.0801363,-0.9983941,0.05221143,0.015069628,2017-07-23 07:09:45,30.3314642094762
-0.344,-0.344,-9.653,0.0,-0.33256513,-0.27938458,-9.799779,0.14156513,-0.06461543,0.03177929,-0.99825215,0.05479312,0.016149307,2017-07-23 07:09:46,30.511457365430864
-0.191,-0.306,-9.768,0.0,-0.29042083,-0.26815268,-9.730359,0.061420828,-0.07584733,-0.1526413,-0.9983458,0.05379341,0.014151735,2017-07-23 07:09:47,25.798873809533582
-0.306,-0.229,-9.692,0.0,-0.35890076,-0.30038363,-9.768592,-0.02409923,-0.005616367,0.03859234,-0.9981755,0.055432558,0.017474398,2017-07-23 07:09:48,28.595985385790765
-0.536,-0.344,-9.692,0.0,-0.3119949,-0.29181546,-9.767973,0.08299491,-0.09118453,-2.670288E-5,-0.9983765,0.052600976,0.015151478,2017-07-23 07:09:49,27.785758653049196
0.0,-0.804,-9.692,0.0,-0.32318997,-0.31306842,-9.69874,0.13218997,-0.107931584,-0.14626026,-0.9982846,0.053765148,0.01575653,2017-07-23 07:09:50,29.93233382627838
2.566,-0.612,-9.27,10.0,-0.1430168,-0.21917729,-9.538838,1.8280168,-0.2398227,-0.45916176,-0.99871737,0.048739545,0.0069258097,2017-07-23 07:09:51,44.67910213628278
11.684,0.996,4.673,263.0,9.250878,-1.010509,-0.6809865,-0.6318779,-0.36849093,0.9869865,-0.7218704,-0.12407419,-0.6544851,2017-07-23 07:09:52,34.613931445472325
9.04,-0.996,1.723,210.0,8.74301,-0.7723438,2.034337,0.06699085,0.083343804,0.033663034,-0.62070477,0.04276644,-0.7827311,2017-07-23 07:09:53,43.32179830152129
7.968,-0.919,4.482,358.0,8.760364,-0.78073025,5.63718,-0.9073634,0.014730275,-0.96418,-0.47957203,-0.014184339,-0.8712396,2017-07-23 07:09:54,39.88629187198984
7.623,-0.804,4.903,300.0,8.2963705,-0.8688028,4.348738,-0.67337036,0.10280281,0.5542617,-0.5171766,0.037288833,-0.85461825,2017-07-23 07:09:55,37.786362385357066
7.546,-0.766,5.209,395.0,7.736235,-0.74017555,4.463872,2.0762177,0.60868895,-9.048996,-0.5001373,0.028764853,-0.8648455,2017-07-23 07:09:56,27.24639816392754
7.776,-1.11,4.903,358.0,7.5498633,-0.7300205,5.0975885,0.22613668,0.003020525,0.073411465,-0.46962005,0.023679124,-0.88161695,2017-07-23 07:09:57,26.247885230149922
7.278,-0.651,4.98,435.0,7.1860127,-0.6728366,5.3570156,-0.7890129,-0.47616345,0.69498444,-0.44910762,0.017382488,-0.8919738,2017-07-23 07:09:58,29.173203361399118
7.47,-0.689,5.095,362.0,7.5757747,-0.73896474,5.160382,0.047225475,0.08796471,0.048618317,-0.467682,0.026431534,-0.8827669,2017-07-23 07:09:59,26.693486653765696
7.508,-0.766,5.171,393.0,7.6123743,-0.80915415,5.1754293,-0.14237452,-0.032845855,0.0725708,-0.46795693,0.031269066,-0.88252026,2017-07-23 07:10:00,26.698668835779735
7.585,-0.689,5.018,393.0,7.5581374,-0.63498145,4.9830513,0.10286236,-0.054018557,-0.042051315,-0.4741606,0.025095768,-0.8796594,2017-07-23 07:10:04,26.20622955607749
7.623,-0.727,5.056,392.0,7.574865,-0.8086839,5.068101,0.16313505,0.0426839,0.14089918,-0.47125056,0.03115066,-0.88073164,2017-07-23 07:10:04,26.558603324915193
7.623,-0.766,4.941,388.0,7.5889096,-0.7775037,5.018272,-0.08090973,-0.026496291,0.03772831,-0.47365713,0.029364951,-0.8795092,2017-07-23 07:10:04,25.498411002040218
7.7,-0.766,5.133,384.0,7.6193676,-0.8073398,4.9862046,-0.03436756,0.11833978,0.29979515,-0.47567302,0.031851932,-0.878387,2017-07-23 07:10:04,26.16207730746684