ACC_X,ACC_Y,ACC_Z,LIGH_1,GRAV_X,GRAV_Y,GRAV_Z,LINACC_X,LINACC_Y,LINACC_Z,TIME,VOICE
8.025364,-0.19153613,5.592855,11.0,8.076866,-0.05448139,5.5571017,0.027240695,-0.27240694,0.19068487,2017-06-08 19:56:10,75.95187500649158
7.6614456,-0.4309563,6.5601125,11.0,8.036005,-0.19068487,5.611583,-0.28602728,-0.31326798,0.5992953,2017-06-08 19:56:11,83.0761670687757
7.9008656,-0.46926352,6.129156,8.0,7.8453197,-0.35412902,5.8703694,0.05448139,-0.08172209,0.095342435,2017-06-08 19:56:12,78.94166059870221
8.082825,-0.4213795,5.889736,5.0,7.7908387,-0.3949901,5.938472,0.14982383,0.040861044,-0.23154591,2017-06-08 19:56:13,77.00911938920183
8.0924015,-0.2777274,5.6886234,11.0,7.8725605,-0.35412902,5.8295083,0.2043052,0.068101734,-0.013620348,2017-06-08 19:56:14,81.80067640422328
8.264784,-0.30645782,5.4204726,8.0,7.927042,-0.32688835,5.761407,0.27240694,-0.040861044,0.13620347,2017-06-08 19:56:15,83.01704295013054
8.111555,-0.2873042,5.7269306,11.0,8.022385,-0.28602728,5.6252036,0.14982383,-0.05448139,0.013620348,2017-06-08 19:56:16,77.49007670395966
7.7667904,-0.22984336,6.1387334,8.0,7.967903,-0.28602728,5.7069254,-0.17706451,-0.013620348,0.53119355,2017-06-08 19:56:17,78.02152596219716
8.571242,-0.15322891,5.0278234,14.0,7.736357,-0.27240694,6.020194,0.8853226,-0.05448139,-0.8580819,2017-06-08 19:56:18,83.35953770454616
8.762778,0.5267244,4.8458643,14.0,8.21307,-0.027240695,5.3527966,0.53119355,0.51757324,-0.55843425,2017-06-08 19:56:19,80.36970856498039
8.293514,-0.34476504,5.449203,11.0,8.471856,0.21792556,4.9169455,-0.13620347,-0.7218784,0.58567494,2017-06-08 19:56:20,57.03376097590809
8.513782,-0.2777274,4.951209,14.0,8.253931,-0.21792556,5.298315,0.28602728,-0.068101734,-0.17706451,2017-06-08 19:56:21,54.07190546836881
8.580819,-0.47884035,5.21936,14.0,8.335652,-0.28602728,5.1621118,0.10896278,-0.16344418,-0.29964766,2017-06-08 19:56:22,52.65520349817354
8.494628,-0.51714754,4.9895163,14.0,8.390134,-0.4086104,5.0531487,0.17706451,-0.08172209,0.10896278,2017-06-08 19:56:23,52.71129168553556
8.389283,-0.38307226,5.3247046,14.0,8.362893,-0.49033248,5.09401,0.040861044,0.12258312,0.2043052,2017-06-08 19:56:24,53.78957418528621
8.303091,-0.39264908,5.3821654,11.0,8.281172,-0.42223078,5.2302136,0.040861044,0.013620348,0.21792556,2017-06-08 19:56:25,51.43206680285064
8.264784,-0.35434186,5.497087,11.0,8.22669,-0.38136974,5.325556,0.040861044,0.05448139,0.040861044,2017-06-08 19:56:27,53.22716958483525
8.255207,-0.31603462,5.5641246,11.0,8.19945,-0.36774936,5.366417,0.040861044,0.068101734,0.05448139,2017-06-08 19:56:28,51.301275955618976
8.293514,-0.34476504,5.4204726,11.0,8.172209,-0.31326798,5.407278,0.12258312,-0.040861044,0.040861044,2017-06-08 19:56:29,52.91400880847519
8.255207,-0.33518824,5.497087,11.0,8.172209,-0.32688835,5.393657,0.095342435,0.0,0.068101734,2017-06-08 19:56:30,53.398694379703116
8.2169,-0.2873042,5.4683566,11.0,8.172209,-0.32688835,5.393657,0.095342435,0.013620348,0.095342435,2017-06-08 19:56:31,52.54944685111553
8.24563,-0.37349546,5.506664,11.0,8.158588,-0.32688835,5.4208984,0.095342435,-0.08172209,0.068101734,2017-06-08 19:56:32,52.44482383920528
8.236053,-0.31603462,5.5162406,11.0,8.131348,-0.31326798,5.4617596,0.10896278,0.0,0.068101734,2017-06-08 19:56:33,51.95965107169233
8.341399,-0.31603462,5.391742,11.0,8.144968,-0.29964766,5.448139,0.17706451,-0.013620348,-0.05448139,2017-06-08 19:56:34,53.39131111766753
8.37013,-0.39264908,5.315128,11.0,8.19945,-0.29964766,5.3527966,0.16344418,-0.10896278,-0.040861044,2017-06-08 19:56:35,51.10827965082795
8.389283,-0.39264908,5.2863975,11.0,8.253931,-0.35412902,5.2846947,0.13620347,-0.027240695,0.0,2017-06-08 19:56:36,50.47562893620822
8.111555,-1.0821792,5.535394,11.0,8.253931,-0.35412902,5.2710743,-0.013620348,-0.27240694,-0.13620347,2017-06-08 19:56:37,52.41270593266557
8.839393,-0.9959879,4.4340615,14.0,8.158588,-0.7899802,5.366417,0.6537767,0.040861044,-0.74911916,2017-06-08 19:56:38,49.45980438198365
8.561666,-1.0342951,4.9799395,14.0,8.444615,-1.0760074,4.862464,0.21792556,0.05448139,-0.08172209,2017-06-08 19:56:39,52.64101572487455
8.532935,-0.41180268,5.094861,14.0,8.539958,-0.8853226,4.739881,-0.013620348,0.50395286,0.29964766,2017-06-08 19:56:40,53.48876202645877
8.485051,-0.4405331,5.267244,14.0,8.430995,-0.49033248,4.985047,0.068101734,0.05448139,0.08172209,2017-06-08 19:56:41,53.12885909501403
8.465898,-0.29688102,5.2959743,14.0,8.3765135,-0.4086104,5.09401,0.0,0.068101734,0.13620347,2017-06-08 19:56:42,54.09731412613426
8.42759,-0.20111294,5.257667,11.0,8.335652,-0.35412902,5.1621118,0.10896278,0.13620347,0.068101734,2017-06-08 19:56:43,54.896835588619524
8.465898,-0.18195933,5.1235914,11.0,8.308412,-0.25878662,5.1893525,0.14982383,0.068101734,0.10896278,2017-06-08 19:56:44,53.92263126249617
8.494628,-0.11492168,5.133168,14.0,8.322032,-0.23154591,5.175732,0.2043052,0.13620347,0.027240695,2017-06-08 19:56:46,52.57726924179944
8.523358,-0.076614454,5.142745,11.0,8.3765135,-0.12258312,5.1076303,0.14982383,0.095342435,-0.13620347,2017-06-08 19:56:47,52.46600706620195
8.571242,-0.05746084,5.1523223,14.0,8.403754,-0.05448139,5.0395284,0.12258312,0.0,-0.027240695,2017-06-08 19:56:48,53.708707593177095
8.360553,-0.94810385,5.2768207,11.0,8.458236,-0.12258312,4.9578066,0.0,-0.70825803,0.14982383,2017-06-08 19:56:49,54.988622569902105
8.599973,-0.5267244,4.9895163,11.0,8.430995,-0.62653595,4.971427,0.16344418,0.10896278,0.013620348,2017-06-08 19:56:50,52.857364431445035
8.590396,-0.5554548,4.9799395,11.0,8.444615,-0.5992953,4.9578066,0.14982383,0.040861044,0.027240695,2017-06-08 19:56:51,54.48226205582131
8.619126,-0.5650316,4.9224787,11.0,8.458236,-0.55843425,4.930566,0.095342435,-0.05448139,0.2043052,2017-06-08 19:56:52,52.562546597773675
8.293514,-0.6991069,5.439626,11.0,8.444615,-0.62653595,4.930566,-0.095342435,-0.040861044,0.31326798,2017-06-08 19:56:53,54.70359235707782
8.322245,-0.7757214,5.2385135,11.0,8.294791,-0.70825803,5.175732,-0.05448139,0.095342435,0.25878662,2017-06-08 19:56:54,54.29032332901581
8.571242,-0.842759,4.9799395,11.0,8.22669,-0.7627395,5.2710743,0.3405087,-0.16344418,-0.27240694,2017-06-08 19:56:55,55.40709750064381
8.542512,-0.7374141,5.00867,11.0,8.390134,-0.8580819,4.985047,0.14982383,0.13620347,0.013620348,2017-06-08 19:56:56,53.61341626115696
8.561666,-0.7469909,5.00867,11.0,8.444615,-0.74911916,4.930566,0.12258312,0.0,0.068101734,2017-06-08 19:56:57,54.645955535247516
8.571242,-0.6991069,4.960786,11.0,8.444615,-0.7354987,4.930566,0.13620347,0.027240695,0.040861044,2017-06-08 19:56:58,53.56731541200511
8.580819,-0.7182605,4.9799395,11.0,8.444615,-0.70825803,4.930566,0.14982383,0.0,0.013620348,2017-06-08 19:56:59,52.374900449172245
8.561666,-0.7565677,4.912902,11.0,8.458236,-0.6946377,4.903325,0.13620347,-0.040861044,0.013620348,2017-06-08 19:57:00,52.520805580630125
8.839393,-0.35434186,4.501099,11.0,8.458236,-0.6946377,4.903325,0.2043052,-0.05448139,-0.19068487,2017-06-08 19:57:01,53.43870017291734
9.768343,-0.51714754,0.19153613,17.0,8.798745,-0.47671217,4.3040295,0.91256326,0.24516624,-3.010097,2017-06-08 19:57:02,53.604015274146946
9.232041,1.2162545,-3.2273839,8.0,9.779409,0.14982383,0.5448139,-0.8036005,1.375655,-1.0896277,2017-06-08 19:57:03,52.873629044557575
7.6710224,1.7142484,-5.439626,5.0,9.139253,1.0623871,-3.3778462,-1.2530719,0.5992953,-2.2745981,2017-06-08 19:57:05,52.65278459639526
7.2592196,2.4229321,-6.799533,5.0,8.076866,1.56634,-5.3119354,-2.002191,0.70825803,-0.4086104,2017-06-08 19:57:06,53.00593734780631
4.31914,3.620033,-8.350976,2.0,7.43671,2.4789033,-5.8703694,-2.5333848,0.83084124,-2.3290794,2017-06-08 19:57:07,52.5403074161386
-0.30645782,0.41180268,-10.103531,0.0,4.358511,3.3369853,-8.117727,-4.3993726,-2.7921712,-2.7785509,2017-06-08 19:57:08,50.9639150342788
-0.12449849,0.37349546,-9.835381,0.0,0.29964766,1.4709975,-9.684067,-0.42223078,-1.1032481,-0.17706451,2017-06-08 19:57:09,52.25415031189203
-0.11492168,0.36391866,-9.825804,0.0,-0.14982383,0.36774936,-9.79303,0.027240695,-0.013620348,-0.027240695,2017-06-08 19:57:10,50.66710486606286
-0.11492168,0.35434186,-9.816227,0.0,-0.12258312,0.38136974,-9.79303,0.0,-0.027240695,-0.068101734,2017-06-08 19:57:11,50.57217102506537
-0.1436521,0.36391866,-9.854534,0.0,-0.12258312,0.35412902,-9.79303,0.0,0.0,-0.05448139,2017-06-08 19:57:12,52.644788665775266
-0.12449849,0.35434186,-9.844957,0.0,-0.13620347,0.35412902,-9.79303,-0.013620348,0.0,-0.040861044,2017-06-08 19:57:13,50.708224277790265
-0.17238252,-0.1436521,-10.04607,0.0,-0.13620347,0.35412902,-9.79303,-0.095342435,-0.23154591,0.6537767,2017-06-08 19:57:14,48.72333197133101
-0.20111294,-0.30645782,-9.921572,0.0,-0.14982383,0.05448139,-9.79303,-0.040861044,-0.35412902,-0.10896278,2017-06-08 19:57:15,52.97051654131852
-0.19153613,-0.29688102,-9.921572,0.0,-0.19068487,-0.23154591,-9.79303,0.0,-0.05448139,-0.10896278,2017-06-08 19:57:16,50.84520373442955
-0.19153613,-0.29688102,-9.921572,0.0,-0.19068487,-0.23154591,-9.79303,0.0,-0.05448139,-0.12258312,2017-06-08 19:57:17,50.91583414907444
-0.19153613,-0.29688102,-9.911995,0.0,-0.19068487,-0.27240694,-9.79303,-0.013620348,-0.013620348,-0.10896278,2017-06-08 19:57:18,52.417098978143585
-0.21068975,-0.29688102,-9.911995,0.0,-0.19068487,-0.28602728,-9.79303,0.0,0.0,-0.12258312,2017-06-08 19:57:19,49.23550812108279
-0.20111294,-0.29688102,-9.902418,0.0,-0.17706451,-0.28602728,-9.79303,-0.013620348,0.0,-0.10896278,2017-06-08 19:57:20,50.04317577720535
-0.21068975,-0.2873042,-9.911995,0.0,-0.17706451,-0.28602728,-9.79303,-0.013620348,0.0,-0.12258312,2017-06-08 19:57:21,49.97665129239816
-0.19153613,-0.30645782,-9.911995,0.0,-0.17706451,-0.28602728,-9.79303,-0.027240695,0.0,-0.12258312,2017-06-08 19:57:22,50.58337876557317
-0.19153613,-0.2873042,-9.892841,0.0,-0.17706451,-0.28602728,-9.79303,-0.027240695,0.0,-0.095342435,2017-06-08 19:57:24,51.031262908660096
-0.20111294,-0.2873042,-9.892841,0.0,-0.17706451,-0.28602728,-9.79303,-0.013620348,0.0,-0.095342435,2017-06-08 19:57:25,50.30099032263844
-0.19153613,-0.29688102,-9.902418,0.0,-0.17706451,-0.28602728,-9.79303,-0.013620348,0.0,-0.10896278,2017-06-08 19:57:26,52.39693110817196
-0.19153613,-0.29688102,-9.902418,0.0,-0.17706451,-0.28602728,-9.79303,-0.013620348,0.0,-0.10896278,2017-06-08 19:57:27,49.151004784956726
-0.20111294,-0.2873042,-9.892841,0.0,-0.17706451,-0.28602728,-9.79303,-0.013620348,0.0,-0.12258312,2017-06-08 19:57:28,51.019911349453636
-0.19153613,-0.30645782,-9.921572,0.0,-0.17706451,-0.28602728,-9.79303,-0.013620348,0.0,-0.12258312,2017-06-08 19:57:29,49.55818750838705
-0.19153613,-0.2873042,-9.911995,0.0,-0.19068487,-0.28602728,-9.79303,0.0,0.0,-0.12258312,2017-06-08 19:57:30,51.85913155406958
-0.19153613,-0.29688102,-9.911995,0.0,-0.19068487,-0.28602728,-9.79303,0.0,0.0,-0.12258312,2017-06-08 19:57:31,52.451942175524835
-0.20111294,-0.29688102,-9.902418,0.0,-0.17706451,-0.28602728,-9.79303,-0.013620348,0.0,-0.10896278,2017-06-08 19:57:32,51.95841437141393
-0.19153613,-0.29688102,-9.921572,0.0,-0.17706451,-0.28602728,-9.79303,-0.013620348,0.0,-0.10896278,2017-06-08 19:57:33,52.53099041277142
-0.18195933,-0.29688102,-9.911995,0.0,-0.17706451,-0.28602728,-9.79303,-0.013620348,0.0,-0.12258312,2017-06-08 19:57:34,53.045626248245995
-0.20111294,-0.2873042,-9.911995,0.0,-0.17706451,-0.28602728,-9.79303,-0.013620348,0.0,-0.12258312,2017-06-08 19:57:35,51.75674543644112
-0.18195933,-0.30645782,-9.921572,0.0,-0.16344418,-0.28602728,-9.79303,-0.027240695,0.0,-0.12258312,2017-06-08 19:57:36,53.81773767851824
-0.18195933,-0.30645782,-9.911995,0.0,-0.17706451,-0.28602728,-9.79303,-0.013620348,-0.013620348,-0.12258312,2017-06-08 19:57:37,53.02155354118881
-0.20111294,-0.2873042,-9.902418,0.0,-0.16344418,-0.28602728,-9.79303,-0.027240695,0.0,-0.10896278,2017-06-08 19:57:38,51.0485285974877
-0.20111294,-0.29688102,-9.902418,0.0,-0.19068487,-0.28602728,-9.79303,0.0,0.0,-0.10896278,2017-06-08 19:57:39,52.97750576635978
-0.19153613,-0.29688102,-9.892841,0.0,-0.17706451,-0.28602728,-9.79303,-0.013620348,0.0,-0.12258312,2017-06-08 19:57:40,52.846082647751444
-0.20111294,-0.29688102,-9.902418,0.0,-0.17706451,-0.28602728,-9.79303,-0.013620348,0.0,-0.095342435,2017-06-08 19:57:42,52.7059645209907
-0.19153613,-0.30645782,-9.902418,0.0,-0.19068487,-0.28602728,-9.79303,0.0,-0.013620348,-0.10896278,2017-06-08 19:57:43,52.445496872760614
-0.19153613,-0.30645782,-9.921572,0.0,-0.17706451,-0.28602728,-9.79303,-0.013620348,-0.013620348,-0.12258312,2017-06-08 19:57:44,52.74497373634787
-0.19153613,-0.2873042,-9.892841,0.0,-0.17706451,-0.28602728,-9.79303,0.0,-0.013620348,-0.12258312,2017-06-08 19:57:45,51.5911773174081
-0.20111294,-0.2873042,-9.902418,0.0,-0.16344418,-0.28602728,-9.79303,-0.027240695,0.0,-0.10896278,2017-06-08 19:57:46,55.01130893065083
-0.20111294,-0.2873042,-9.902418,0.0,-0.14982383,-0.28602728,-9.79303,-0.040861044,0.0,-0.10896278,2017-06-08 19:57:47,52.17336711525861
-0.20111294,-0.2873042,-9.892841,0.0,-0.13620347,-0.29964766,-9.79303,-0.05448139,0.0,-0.12258312,2017-06-08 19:57:48,54.46056498823636
-0.19153613,-0.2873042,-9.911995,0.0,-0.17706451,-0.28602728,-9.79303,-0.013620348,0.0,-0.12258312,2017-06-08 19:57:49,53.70015419298309
-0.19153613,-0.29688102,-9.902418,0.0,-0.16344418,-0.28602728,-9.79303,-0.040861044,0.0,-0.10896278,2017-06-08 19:57:50,53.30909684869646
-0.19153613,-0.2873042,-9.902418,0.0,-0.14982383,-0.28602728,-9.79303,-0.040861044,-0.013620348,-0.10896278,2017-06-08 19:57:51,52.676814171021476
-0.19153613,-0.29688102,-9.911995,0.0,-0.14982383,-0.28602728,-9.79303,-0.040861044,0.0,-0.10896278,2017-06-08 19:57:52,52.902274711462745
-0.19153613,-0.29688102,-9.911995,0.0,-0.13620347,-0.29964766,-9.79303,-0.05448139,0.013620348,-0.12258312,2017-06-08 19:57:53,53.12824542480068
-0.19153613,-0.29688102,-9.902418,0.0,-0.12258312,-0.29964766,-9.79303,-0.068101734,0.013620348,-0.10896278,2017-06-08 19:57:54,53.63313884736545
-0.20111294,-0.29688102,-9.902418,0.0,-0.12258312,-0.29964766,-9.79303,-0.068101734,0.013620348,-0.10896278,2017-06-08 19:57:55,51.28065553337891
-0.19153613,-0.29688102,-9.892841,0.0,-0.12258312,-0.29964766,-9.79303,-0.068101734,0.013620348,-0.095342435,2017-06-08 19:57:56,53.231177130789106
-0.20111294,-0.29688102,-9.911995,0.0,-0.12258312,-0.29964766,-9.79303,-0.068101734,0.013620348,-0.12258312,2017-06-08 19:57:57,53.26758244351073
-0.20111294,-0.29688102,-9.892841,0.0,-0.14982383,-0.28602728,-9.79303,-0.040861044,0.0,-0.12258312,2017-06-08 19:57:58,53.944884706212605
-0.20111294,-0.2873042,-9.883265,0.0,-0.17706451,-0.28602728,-9.79303,0.0,0.0,-0.10896278,2017-06-08 19:57:59,52.11782816722607
-0.20111294,-0.2873042,-9.902418,0.0,-0.17706451,-0.28602728,-9.79303,-0.013620348,0.0,-0.095342435,2017-06-08 19:58:01,52.585583404627734
-0.20111294,-0.29688102,-9.892841,0.0,-0.17706451,-0.28602728,-9.79303,-0.013620348,0.0,-0.095342435,2017-06-08 19:58:02,52.75088635122845
-0.20111294,-0.2873042,-9.902418,0.0,-0.17706451,-0.28602728,-9.79303,-0.013620348,0.0,-0.10896278,2017-06-08 19:58:03,51.12018388619962
-0.18195933,-0.2873042,-9.892841,0.0,-0.16344418,-0.28602728,-9.79303,-0.027240695,0.0,-0.12258312,2017-06-08 19:58:04,53.60826770536658
-0.20111294,-0.29688102,-9.892841,0.0,-0.14982383,-0.28602728,-9.79303,-0.040861044,0.0,-0.095342435,2017-06-08 19:58:05,51.812529513665105
-0.21068975,-0.29688102,-9.892841,0.0,-0.14982383,-0.28602728,-9.79303,-0.040861044,0.0,-0.095342435,2017-06-08 19:58:06,53.16975565576392
-0.19153613,-0.2873042,-9.902418,0.0,-0.14982383,-0.28602728,-9.79303,-0.05448139,0.0,-0.095342435,2017-06-08 19:58:07,49.100951779770625
-0.20111294,-0.2873042,-9.911995,0.0,-0.13620347,-0.28602728,-9.79303,-0.05448139,0.0,-0.12258312,2017-06-08 19:58:08,53.66047857301727
-0.19153613,-0.2873042,-9.902418,0.0,-0.13620347,-0.29964766,-9.79303,-0.05448139,0.013620348,-0.10896278,2017-06-08 19:58:09,49.805889615141254
-0.20111294,-0.2873042,-9.902418,0.0,-0.17706451,-0.28602728,-9.79303,-0.013620348,0.0,-0.095342435,2017-06-08 19:58:10,51.19156988157439
-0.20111294,-0.29688102,-9.902418,0.0,-0.16344418,-0.28602728,-9.79303,-0.027240695,0.0,-0.10896278,2017-06-08 19:58:11,51.81942181421807
-0.18195933,-0.2873042,-9.902418,0.0,-0.16344418,-0.28602728,-9.79303,-0.027240695,0.0,-0.10896278,2017-06-08 19:58:12,51.916319677293636
-0.19153613,-0.29688102,-9.911995,0.0,-0.16344418,-0.28602728,-9.79303,-0.027240695,0.0,-0.095342435,2017-06-08 19:58:13,49.19906018662879
-0.21068975,-0.2873042,-9.902418,0.0,-0.19068487,-0.28602728,-9.79303,0.0,0.0,-0.10896278,2017-06-08 19:58:14,52.38464823582852
-0.20111294,-0.2873042,-9.902418,0.0,-0.19068487,-0.28602728,-9.79303,0.0,0.0,-0.10896278,2017-06-08 19:58:15,52.20217252943064
-0.20111294,-0.29688102,-9.902418,0.0,-0.19068487,-0.28602728,-9.79303,0.0,0.0,-0.10896278,2017-06-08 19:58:16,49.93127167977525
-0.20111294,-0.29688102,-9.902418,0.0,-0.17706451,-0.28602728,-9.79303,-0.013620348,0.0,-0.10896278,2017-06-08 19:58:17,52.53291569747504
-0.20111294,-0.2873042,-9.902418,0.0,-0.17706451,-0.28602728,-9.79303,-0.013620348,0.0,-0.10896278,2017-06-08 19:58:18,50.13199082606996
-0.20111294,-0.29688102,-9.892841,0.0,-0.17706451,-0.28602728,-9.79303,-0.013620348,0.0,-0.095342435,2017-06-08 19:58:20,51.29778929750589
-0.19153613,-0.29688102,-9.892841,0.0,-0.17706451,-0.28602728,-9.79303,0.0,0.0,-0.095342435,2017-06-08 19:58:21,51.513911937873125
-0.20111294,-0.2873042,-9.902418,0.0,-0.16344418,-0.28602728,-9.79303,-0.027240695,-0.013620348,-0.095342435,2017-06-08 19:58:22,49.95729500835989
-0.19153613,-0.29688102,-9.902418,0.0,-0.16344418,-0.28602728,-9.79303,-0.040861044,0.0,-0.10896278,2017-06-08 19:58:23,54.57360633996652
-0.19153613,-0.2873042,-9.883265,0.0,-0.17706451,-0.28602728,-9.79303,-0.013620348,0.0,-0.10896278,2017-06-08 19:58:24,50.845119723459256
-0.20111294,-0.2873042,-9.902418,0.0,-0.17706451,-0.28602728,-9.79303,-0.013620348,0.0,-0.10896278,2017-06-08 19:58:25,52.29418313799944
-0.20111294,-0.2873042,-9.902418,0.0,-0.17706451,-0.28602728,-9.79303,-0.013620348,0.0,-0.10896278,2017-06-08 19:58:26,50.67457762097245
-0.20111294,-0.2873042,-9.911995,0.0,-0.17706451,-0.28602728,-9.79303,-0.013620348,0.0,-0.12258312,2017-06-08 19:58:27,52.30810508575413
-0.20111294,-0.29688102,-9.902418,0.0,-0.16344418,-0.28602728,-9.79303,-0.027240695,0.0,-0.10896278,2017-06-08 19:58:28,52.3829266547816
-0.19153613,-0.29688102,-9.892841,0.0,-0.16344418,-0.29964766,-9.79303,-0.027240695,0.013620348,-0.095342435,2017-06-08 19:58:29,53.92134687990832
-0.20111294,-0.29688102,-9.911995,0.0,-0.14982383,-0.29964766,-9.79303,-0.040861044,0.013620348,-0.12258312,2017-06-08 19:58:30,51.49670695173331
-0.20111294,-0.29688102,-9.902418,0.0,-0.14982383,-0.29964766,-9.79303,-0.040861044,0.013620348,-0.095342435,2017-06-08 19:58:31,53.770626264771494
-0.19153613,-0.29688102,-9.902418,0.0,-0.13620347,-0.29964766,-9.79303,-0.05448139,0.013620348,-0.10896278,2017-06-08 19:58:32,52.34306333092303
-0.19153613,-0.30645782,-9.911995,0.0,-0.17706451,-0.28602728,-9.79303,-0.013620348,0.0,-0.12258312,2017-06-08 19:58:33,52.36907534718377
-0.21068975,-0.2777274,-9.892841,0.0,-0.17706451,-0.28602728,-9.79303,-0.013620348,0.0,-0.095342435,2017-06-08 19:58:34,51.67903093993633
-0.20111294,-0.29688102,-9.911995,0.0,-0.16344418,-0.28602728,-9.79303,-0.027240695,0.0,-0.095342435,2017-06-08 19:58:35,51.03625489002308
-0.19153613,-0.29688102,-9.892841,0.0,-0.14982383,-0.28602728,-9.79303,-0.040861044,0.0,-0.12258312,2017-06-08 19:58:36,52.994720367191505
-0.19153613,-0.2873042,-9.902418,0.0,-0.16344418,-0.28602728,-9.79303,-0.027240695,0.0,-0.10896278,2017-06-08 19:58:37,52.477138006626916
-0.20111294,-0.2873042,-9.911995,0.0,-0.16344418,-0.28602728,-9.79303,-0.013620348,0.0,-0.12258312,2017-06-08 19:58:39,54.71630465696766
-0.19153613,-0.29688102,-9.902418,0.0,-0.17706451,-0.28602728,-9.79303,-0.013620348,0.0,-0.10896278,2017-06-08 19:58:40,55.87582414607711
-0.19153613,-0.2873042,-9.902418,0.0,-0.17706451,-0.28602728,-9.79303,-0.027240695,0.0,-0.10896278,2017-06-08 19:58:41,55.09463575178606
-0.20111294,-0.2873042,-9.911995,0.0,-0.17706451,-0.28602728,-9.79303,-0.013620348,0.0,-0.10896278,2017-06-08 19:58:42,51.87570845115326
-0.20111294,-0.2873042,-9.902418,0.0,-0.17706451,-0.28602728,-9.79303,-0.013620348,0.0,-0.10896278,2017-06-08 19:58:43,52.78080609062034
-0.21068975,-0.29688102,-9.892841,0.0,-0.19068487,-0.28602728,-9.79303,-0.013620348,0.0,-0.095342435,2017-06-08 19:58:44,51.77727219372933
-0.20111294,-0.29688102,-9.902418,0.0,-0.19068487,-0.28602728,-9.79303,0.0,0.0,-0.10896278,2017-06-08 19:58:45,52.746864232188635
-0.21068975,-0.29688102,-9.902418,0.0,-0.17706451,-0.28602728,-9.79303,-0.027240695,0.0,-0.10896278,2017-06-08 19:58:46,52.1298720282094
-0.19153613,-0.29688102,-9.892841,0.0,-0.17706451,-0.28602728,-9.79303,-0.013620348,0.0,-0.12258312,2017-06-08 19:58:47,52.3292829817376
-0.20111294,-0.2873042,-9.902418,0.0,-0.16344418,-0.28602728,-9.79303,-0.027240695,0.0,-0.10896278,2017-06-08 19:58:48,52.833510488383226
-0.19153613,-0.29688102,-9.892841,0.0,-0.16344418,-0.28602728,-9.79303,-0.027240695,0.0,-0.095342435,2017-06-08 19:58:49,53.99955499712938
-0.20111294,-0.29688102,-9.911995,0.0,-0.14982383,-0.28602728,-9.79303,-0.040861044,0.0,-0.095342435,2017-06-08 19:58:50,50.575263713320766
-0.19153613,-0.2873042,-9.902418,0.0,-0.14982383,-0.29964766,-9.79303,-0.040861044,0.0,-0.10896278,2017-06-08 19:58:51,52.56441933420553
-0.19153613,-0.29688102,-9.883265,0.0,-0.13620347,-0.29964766,-9.79303,-0.05448139,0.013620348,-0.095342435,2017-06-08 19:58:52,51.21897507742239
-0.19153613,-0.29688102,-9.902418,0.0,-0.13620347,-0.29964766,-9.79303,-0.040861044,0.013620348,-0.095342435,2017-06-08 19:58:53,53.893351105661296
-0.19153613,-0.29688102,-9.892841,0.0,-0.13620347,-0.29964766,-9.79303,-0.040861044,0.013620348,-0.12258312,2017-06-08 19:58:54,51.683550079189644
-0.19153613,-0.29688102,-9.892841,0.0,-0.12258312,-0.29964766,-9.79303,-0.068101734,0.013620348,-0.12258312,2017-06-08 19:58:55,51.181828023365725
-0.19153613,-0.29688102,-9.902418,0.0,-0.16344418,-0.28602728,-9.79303,-0.027240695,0.0,-0.10896278,2017-06-08 19:58:56,52.507290564644656
-0.20111294,-0.29688102,-9.892841,0.0,-0.17706451,-0.28602728,-9.79303,-0.013620348,0.0,-0.095342435,2017-06-08 19:58:58,51.523681998202264
-0.19153613,-0.29688102,-9.911995,0.0,-0.19068487,-0.28602728,-9.79303,0.0,0.0,-0.10896278,2017-06-08 19:58:59,53.04369233941386
-0.19153613,-0.29688102,-9.902418,0.0,-0.19068487,-0.28602728,-9.79303,-0.013620348,0.0,-0.10896278,2017-06-08 19:59:00,51.24112756503247
-0.19153613,-0.2873042,-9.892841,0.0,-0.17706451,-0.28602728,-9.79303,-0.013620348,0.0,-0.095342435,2017-06-08 19:59:01,53.286527165546225
-0.20111294,-0.29688102,-9.902418,0.0,-0.17706451,-0.28602728,-9.79303,-0.013620348,0.0,-0.10896278,2017-06-08 19:59:02,49.77398469908313
-0.20111294,-0.29688102,-9.902418,0.0,-0.19068487,-0.28602728,-9.79303,0.013620348,0.0,-0.10896278,2017-06-08 19:59:03,52.74856442735759
-0.20111294,-0.2873042,-9.911995,0.0,-0.19068487,-0.28602728,-9.79303,0.0,-0.013620348,-0.10896278,2017-06-08 19:59:04,53.02770991036178
-0.19153613,-0.29688102,-9.902418,0.0,-0.19068487,-0.28602728,-9.79303,0.0,0.0,-0.095342435,2017-06-08 19:59:05,52.16040661553776
-0.20111294,-0.29688102,-9.902418,0.0,-0.19068487,-0.28602728,-9.79303,0.0,0.0,-0.10896278,2017-06-08 19:59:06,53.113152239735165
-0.20111294,-0.2873042,-9.892841,0.0,-0.19068487,-0.28602728,-9.79303,0.0,0.0,-0.095342435,2017-06-08 19:59:07,51.57001783406656
-0.19153613,-0.2873042,-9.892841,0.0,-0.19068487,-0.28602728,-9.79303,0.0,0.0,-0.095342435,2017-06-08 19:59:08,54.11788885310189
-0.19153613,-0.2873042,-9.902418,0.0,-0.19068487,-0.28602728,-9.79303,0.0,0.0,-0.095342435,2017-06-08 19:59:09,52.79411954283635
-0.20111294,-0.29688102,-9.902418,0.0,-0.19068487,-0.28602728,-9.79303,0.0,0.0,-0.095342435,2017-06-08 19:59:10,52.65990857185792
-0.18195933,-0.30645782,-9.902418,0.0,-0.19068487,-0.28602728,-9.79303,0.013620348,0.0,-0.10896278,2017-06-08 19:59:11,52.98743196509445
-0.20111294,-0.2873042,-9.892841,0.0,-0.17706451,-0.28602728,-9.79303,-0.013620348,0.0,-0.12258312,2017-06-08 19:59:12,52.957813597459534
-0.20111294,-0.29688102,-9.902418,0.0,-0.17706451,-0.28602728,-9.79303,-0.013620348,0.0,-0.095342435,2017-06-08 19:59:13,52.25980263503968
-0.20111294,-0.2873042,-9.911995,0.0,-0.17706451,-0.28602728,-9.79303,-0.013620348,0.0,-0.12258312,2017-06-08 19:59:14,52.275585911945356
-0.20111294,-0.29688102,-9.902418,0.0,-0.16344418,-0.28602728,-9.79303,-0.027240695,0.0,-0.10896278,2017-06-08 19:59:15,51.90196546765269
-0.19153613,-0.2873042,-9.911995,0.0,-0.17706451,-0.28602728,-9.79303,-0.013620348,0.0,-0.095342435,2017-06-08 19:59:17,53.44905361578722
-0.19153613,-0.2873042,-9.892841,0.0,-0.17706451,-0.28602728,-9.79303,-0.013620348,0.0,-0.095342435,2017-06-08 19:59:18,53.69676754852119
-0.19153613,-0.29688102,-9.902418,0.0,-0.17706451,-0.28602728,-9.79303,-0.013620348,0.0,-0.095342435,2017-06-08 19:59:19,53.031477907932384
-0.19153613,-0.2873042,-9.911995,0.0,-0.16344418,-0.28602728,-9.79303,-0.013620348,0.013620348,-0.10896278,2017-06-08 19:59:20,53.195023511654654
-0.19153613,-0.2873042,-9.902418,0.0,-0.14982383,-0.28602728,-9.79303,-0.040861044,0.0,-0.095342435,2017-06-08 19:59:21,50.72121763449711
-0.19153613,-0.30645782,-9.911995,0.0,-0.19068487,-0.27240694,-9.79303,0.013620348,-0.013620348,-0.095342435,2017-06-08 19:59:22,53.36049768806441
-0.21068975,-0.29688102,-9.883265,0.0,-0.17706451,-0.28602728,-9.79303,-0.027240695,0.013620348,-0.10896278,2017-06-08 19:59:23,51.13835929436405
-0.19153613,-0.29688102,-9.902418,0.0,-0.17706451,-0.28602728,-9.79303,-0.013620348,0.0,-0.095342435,2017-06-08 19:59:24,51.89657146918279
-0.19153613,-0.2873042,-9.892841,0.0,-0.16344418,-0.28602728,-9.79303,-0.027240695,-0.013620348,-0.095342435,2017-06-08 19:59:25,50.33847136965073
-0.19153613,-0.29688102,-9.892841,0.0,-0.16344418,-0.28602728,-9.79303,-0.027240695,0.0,-0.12258312,2017-06-08 19:59:26,51.24651909159428
-0.20111294,-0.2873042,-9.902418,0.0,-0.14982383,-0.28602728,-9.79303,-0.040861044,0.0,-0.10896278,2017-06-08 19:59:27,52.284694870688206
-0.20111294,-0.29688102,-9.892841,0.0,-0.14982383,-0.28602728,-9.79303,-0.040861044,0.0,-0.095342435,2017-06-08 19:59:28,51.059801871876324
-0.19153613,-0.2777274,-9.892841,0.0,-0.19068487,-0.28602728,-9.79303,0.0,0.0,-0.095342435,2017-06-08 19:59:29,50.42816340299457
-0.20111294,-0.2777274,-9.892841,0.0,-0.19068487,-0.28602728,-9.79303,0.0,0.0,-0.095342435,2017-06-08 19:59:30,49.399868501475794
-0.19153613,-0.29688102,-9.902418,0.0,-0.19068487,-0.28602728,-9.79303,-0.013620348,0.0,-0.10896278,2017-06-08 19:59:31,49.91021828943041
-0.19153613,-0.2873042,-9.902418,0.0,-0.19068487,-0.27240694,-9.79303,0.0,-0.013620348,-0.10896278,2017-06-08 19:59:32,50.684075401009366
-0.19153613,-0.2873042,-9.892841,0.0,-0.19068487,-0.28602728,-9.79303,0.0,0.0,-0.095342435,2017-06-08 19:59:33,51.70122486843046
-0.19153613,-0.29688102,-9.902418,0.0,-0.17706451,-0.28602728,-9.79303,-0.013620348,0.0,-0.10896278,2017-06-08 19:59:34,51.96501002582427
-0.21068975,-0.29688102,-9.911995,0.0,-0.17706451,-0.28602728,-9.79303,-0.013620348,0.0,-0.095342435,2017-06-08 19:59:36,50.67330832738083
-0.21068975,-0.2873042,-9.892841,0.0,-0.16344418,-0.28602728,-9.79303,-0.027240695,0.0,-0.095342435,2017-06-08 19:59:37,50.29578247077612
-0.20111294,-0.30645782,-9.892841,0.0,-0.14982383,-0.28602728,-9.79303,-0.040861044,0.0,-0.12258312,2017-06-08 19:59:38,50.651315532052344
-0.20111294,-0.29688102,-9.902418,0.0,-0.19068487,-0.28602728,-9.79303,0.0,0.0,-0.10896278,2017-06-08 19:59:39,52.31163517966563
-0.19153613,-0.29688102,-9.883265,0.0,-0.17706451,-0.28602728,-9.79303,0.0,0.0,-0.10896278,2017-06-08 19:59:40,51.63416263612837
-0.19153613,-0.2873042,-9.911995,0.0,-0.17706451,-0.28602728,-9.79303,-0.013620348,0.0,-0.12258312,2017-06-08 19:59:41,52.727782769893935
-0.18195933,-0.2873042,-9.892841,0.0,-0.16344418,-0.28602728,-9.79303,-0.027240695,0.0,-0.095342435,2017-06-08 19:59:42,54.728493004526335
-0.19153613,-0.29688102,-9.902418,0.0,-0.17706451,-0.28602728,-9.79303,-0.013620348,0.0,-0.10896278,2017-06-08 19:59:43,52.16540113753085
-0.21068975,-0.29688102,-9.902418,0.0,-0.16344418,-0.28602728,-9.79303,-0.027240695,0.0,-0.10896278,2017-06-08 19:59:44,52.917326465557025
-0.19153613,-0.2873042,-9.892841,0.0,-0.16344418,-0.28602728,-9.79303,-0.040861044,0.013620348,-0.095342435,2017-06-08 19:59:45,54.11345784195413
-0.19153613,-0.2873042,-9.911995,0.0,-0.14982383,-0.28602728,-9.79303,-0.040861044,0.0,-0.095342435,2017-06-08 19:59:46,53.9688016986861
-0.19153613,-0.2873042,-9.892841,0.0,-0.16344418,-0.28602728,-9.79303,-0.027240695,0.013620348,-0.12258312,2017-06-08 19:59:47,54.773905129807325
-0.20111294,-0.2777274,-9.911995,0.0,-0.14982383,-0.28602728,-9.79303,-0.040861044,0.013620348,-0.095342435,2017-06-08 19:59:48,54.17203690068569
-0.22026655,-0.2777274,-9.902418,0.0,-0.16344418,-0.28602728,-9.79303,-0.05448139,0.013620348,-0.095342435,2017-06-08 19:59:49,56.366540207684636
-0.22026655,-0.2873042,-9.911995,0.0,-0.19068487,-0.28602728,-9.79303,-0.027240695,0.0,-0.095342435,2017-06-08 19:59:50,53.163434102757456
-0.22026655,-0.25857377,-9.892841,0.0,-0.19068487,-0.28602728,-9.79303,-0.027240695,0.040861044,-0.12258312,2017-06-08 19:59:51,54.69626544078443
-0.22026655,-0.23942018,-9.892841,0.0,-0.19068487,-0.27240694,-9.79303,-0.027240695,0.027240695,-0.095342435,2017-06-08 19:59:52,53.80449012216658
-0.21068975,-0.23942018,-9.892841,0.0,-0.19068487,-0.27240694,-9.79303,-0.013620348,0.027240695,-0.12258312,2017-06-08 19:59:54,54.0568546694532
-0.22026655,-0.24899697,-9.902418,0.0,-0.19068487,-0.27240694,-9.79303,-0.027240695,0.027240695,-0.10896278,2017-06-08 19:59:55,52.79523326844511
-0.21068975,-0.23942018,-9.911995,0.0,-0.21792556,-0.24516624,-9.79303,0.013620348,0.027240695,-0.12258312,2017-06-08 19:59:56,54.478227853765574
-0.21068975,-0.23942018,-9.911995,0.0,-0.2043052,-0.24516624,-9.79303,0.0,0.013620348,-0.12258312,2017-06-08 19:59:57,53.9684025136615
-0.20111294,-0.23942018,-9.892841,0.0,-0.2043052,-0.24516624,-9.79303,0.013620348,0.013620348,-0.12258312,2017-06-08 19:59:58,54.42676389298374
-0.20111294,-0.22984336,-9.902418,0.0,-0.19068487,-0.24516624,-9.79303,0.0,0.027240695,-0.095342435,2017-06-08 19:59:59,53.32490146089343
-0.19153613,-0.21068975,-9.911995,0.0,-0.17706451,-0.24516624,-9.79303,-0.013620348,0.027240695,-0.12258312,2017-06-08 20:00:00,53.038417590175754
-0.20111294,-0.21068975,-9.902418,0.0,-0.17706451,-0.24516624,-9.79303,-0.013620348,0.040861044,-0.10896278,2017-06-08 20:00:01,53.300808346383796
-0.21068975,-0.21068975,-9.911995,0.0,-0.17706451,-0.24516624,-9.79303,-0.027240695,0.027240695,-0.095342435,2017-06-08 20:00:02,52.22812047675113
-0.19153613,-0.21068975,-9.902418,0.0,-0.17706451,-0.24516624,-9.79303,-0.013620348,0.040861044,-0.10896278,2017-06-08 20:00:03,52.98005108894784
-0.19153613,-0.21068975,-9.902418,0.0,-0.17706451,-0.23154591,-9.79303,-0.013620348,0.027240695,-0.095342435,2017-06-08 20:00:04,51.307222078666605
-0.1436521,-0.16280572,-9.921572,0.0,-0.17706451,-0.24516624,-9.79303,0.027240695,0.095342435,-0.12258312,2017-06-08 20:00:05,51.60934104140768
-0.15322891,-0.1436521,-9.911995,0.0,-0.16344418,-0.24516624,-9.79303,0.027240695,0.10896278,-0.10896278,2017-06-08 20:00:06,49.56667976559043
-0.15322891,-0.15322891,-9.892841,0.0,-0.16344418,-0.17706451,-9.79303,0.040861044,0.05448139,-0.095342435,2017-06-08 20:00:07,51.17721901337079
-0.1436521,-0.1340753,-9.902418,0.0,-0.16344418,-0.17706451,-9.79303,0.013620348,0.05448139,-0.095342435,2017-06-08 20:00:08,50.107254542711175
-0.15322891,-0.12449849,-9.902418,0.0,-0.16344418,-0.17706451,-9.79303,0.013620348,0.05448139,-0.095342435,2017-06-08 20:00:09,52.04738305888408
-0.16280572,-0.1436521,-9.902418,0.0,-0.16344418,-0.17706451,-9.79303,0.013620348,0.040861044,-0.10896278,2017-06-08 20:00:10,48.432204426666274
-0.1436521,-0.1340753,-9.911995,0.0,-0.14982383,-0.19068487,-9.79303,0.013620348,0.068101734,-0.10896278,2017-06-08 20:00:11,52.765889179541105
-0.15322891,-0.1436521,-9.902418,0.0,-0.14982383,-0.13620347,-9.79303,0.013620348,0.0,-0.10896278,2017-06-08 20:00:13,52.15051098070023
-0.1436521,-0.1340753,-9.892841,0.0,-0.13620347,-0.12258312,-9.79303,0.0,0.0,-0.12258312,2017-06-08 20:00:14,51.90054843527296
-0.20111294,-0.21068975,-9.902418,0.0,-0.14982383,-0.13620347,-9.79303,-0.040861044,-0.068101734,-0.095342435,2017-06-08 20:00:15,48.804448033011816
-0.19153613,-0.21068975,-9.902418,0.0,-0.16344418,-0.17706451,-9.79303,-0.027240695,-0.027240695,-0.10896278,2017-06-08 20:00:16,52.73841831280965
-0.18195933,-0.20111294,-9.911995,0.0,-0.19068487,-0.19068487,-9.79303,0.0,0.0,-0.10896278,2017-06-08 20:00:17,51.13616098809757
-0.18195933,-0.20111294,-9.902418,0.0,-0.19068487,-0.19068487,-9.79303,0.013620348,0.0,-0.12258312,2017-06-08 20:00:18,49.31442057937381
-0.19153613,-0.21068975,-9.902418,0.0,-0.17706451,-0.2043052,-9.79303,0.0,0.013620348,-0.10896278,2017-06-08 20:00:19,52.54810395449647
-0.19153613,-0.22026655,-9.921572,0.0,-0.19068487,-0.19068487,-9.79303,0.0,0.0,-0.095342435,2017-06-08 20:00:20,52.492219600431426
-0.19153613,-0.20111294,-9.911995,0.0,-0.19068487,-0.19068487,-9.79303,0.0,-0.027240695,-0.12258312,2017-06-08 20:00:21,54.67144767510521
-0.17238252,-0.21068975,-9.911995,0.0,-0.19068487,-0.19068487,-9.79303,0.0,-0.013620348,-0.12258312,2017-06-08 20:00:22,49.64503491336825
-0.20111294,-0.22026655,-9.911995,0.0,-0.19068487,-0.19068487,-9.79303,0.0,-0.013620348,-0.095342435,2017-06-08 20:00:23,52.66226373844353
-0.1436521,-0.12449849,-9.902418,0.0,-0.19068487,-0.19068487,-9.79303,0.05448139,0.05448139,-0.10896278,2017-06-08 20:00:24,53.1328917213941
-0.20111294,-0.22984336,-9.911995,0.0,-0.19068487,-0.19068487,-9.79303,0.0,-0.027240695,-0.10896278,2017-06-08 20:00:25,53.733061941188836
-0.19153613,-0.20111294,-9.911995,0.0,-0.19068487,-0.19068487,-9.79303,0.0,-0.027240695,-0.10896278,2017-06-08 20:00:26,55.87702250285258
-0.18195933,-0.20111294,-9.902418,0.0,-0.19068487,-0.19068487,-9.79303,0.013620348,0.0,-0.12258312,2017-06-08 20:00:27,54.006827804458474
-0.17238252,-0.18195933,-9.921572,0.0,-0.19068487,-0.19068487,-9.79303,0.040861044,0.013620348,-0.12258312,2017-06-08 20:00:28,56.296478270435756
-0.17238252,-0.19153613,-9.902418,0.0,-0.17706451,-0.19068487,-9.79303,0.013620348,0.0,-0.095342435,2017-06-08 20:00:29,54.877611837093944
-0.18195933,-0.20111294,-9.911995,0.0,-0.17706451,-0.19068487,-9.79303,0.0,0.0,-0.12258312,2017-06-08 20:00:30,56.13743480290415
-0.18195933,-0.19153613,-9.911995,0.0,-0.19068487,-0.17706451,-9.79303,0.013620348,-0.013620348,-0.12258312,2017-06-08 20:00:32,52.11930411108921
-0.18195933,-0.19153613,-9.911995,0.0,-0.19068487,-0.17706451,-9.79303,0.013620348,-0.013620348,-0.12258312,2017-06-08 20:00:33,55.6617918659099
-0.19153613,-0.22984336,-9.902418,0.0,-0.19068487,-0.17706451,-9.79303,-0.013620348,-0.040861044,-0.10896278,2017-06-08 20:00:34,54.94137970539615
-0.19153613,-0.22026655,-9.911995,0.0,-0.19068487,-0.17706451,-9.79303,0.0,-0.027240695,-0.10896278,2017-06-08 20:00:35,54.554085601672895
-0.19153613,-0.2681506,-9.902418,0.0,-0.19068487,-0.17706451,-9.79303,0.0,-0.08172209,-0.10896278,2017-06-08 20:00:36,55.23499082563261
-0.19153613,-0.25857377,-9.902418,0.0,-0.19068487,-0.17706451,-9.79303,0.0,-0.095342435,-0.10896278,2017-06-08 20:00:37,55.49768927827383
-0.19153613,-0.2777274,-9.892841,0.0,-0.19068487,-0.17706451,-9.79303,0.0,-0.095342435,-0.12258312,2017-06-08 20:00:38,54.129764643326475
-0.20111294,-0.2681506,-9.940725,0.0,-0.19068487,-0.17706451,-9.79303,0.0,-0.10896278,-0.095342435,2017-06-08 20:00:39,53.86785877431355
-0.19153613,-0.2777274,-9.892841,0.0,-0.19068487,-0.19068487,-9.79303,0.0,-0.08172209,-0.095342435,2017-06-08 20:00:40,53.38790879294286
-0.20111294,-0.2777274,-9.902418,0.0,-0.19068487,-0.19068487,-9.79303,0.0,-0.08172209,-0.10896278,2017-06-08 20:00:41,54.40708245737456
-0.21068975,-0.2777274,-9.892841,0.0,-0.19068487,-0.19068487,-9.79303,0.0,-0.08172209,-0.095342435,2017-06-08 20:00:42,54.23050379501478
-0.19153613,-0.25857377,-9.892841,0.0,-0.19068487,-0.19068487,-9.79303,0.0,-0.08172209,-0.095342435,2017-06-08 20:00:43,51.606650324856275
-0.21068975,-0.2777274,-9.883265,0.0,-0.19068487,-0.23154591,-9.79303,-0.013620348,-0.040861044,-0.10896278,2017-06-08 20:00:44,52.35381461013493
-0.21068975,-0.2681506,-9.892841,0.0,-0.19068487,-0.23154591,-9.79303,0.0,-0.027240695,-0.095342435,2017-06-08 20:00:45,54.24501743472575
-0.19153613,-0.2873042,-9.902418,0.0,-0.19068487,-0.23154591,-9.79303,0.0,-0.027240695,-0.095342435,2017-06-08 20:00:46,53.74351630645374
-0.20111294,-0.2681506,-9.902418,0.0,-0.19068487,-0.25878662,-9.79303,0.0,0.0,-0.095342435,2017-06-08 20:00:47,51.833617210644725
-0.20111294,-0.2777274,-9.902418,0.0,-0.19068487,-0.25878662,-9.79303,0.0,-0.013620348,-0.10896278,2017-06-08 20:00:48,53.15888491198241
-0.20111294,-0.2777274,-9.911995,0.0,-0.19068487,-0.27240694,-9.79303,0.0,-0.013620348,-0.12258312,2017-06-08 20:00:49,50.71224374708558
-0.20111294,-0.2873042,-9.911995,0.0,-0.19068487,-0.27240694,-9.79303,0.0,-0.013620348,-0.095342435,2017-06-08 20:00:51,52.09349085540181
-0.19153613,-0.2873042,-9.902418,0.0,-0.19068487,-0.27240694,-9.79303,0.0,-0.013620348,-0.10896278,2017-06-08 20:00:52,51.7173471997521
-0.20111294,-0.2873042,-9.911995,0.0,-0.19068487,-0.27240694,-9.79303,0.0,0.0,-0.12258312,2017-06-08 20:00:53,51.071069132094124
-0.19153613,-0.2777274,-9.892841,0.0,-0.17706451,-0.27240694,-9.79303,-0.013620348,0.013620348,-0.095342435,2017-06-08 20:00:54,51.033264294639196
-0.19153613,-0.2777274,-9.892841,0.0,-0.17706451,-0.27240694,-9.79303,-0.013620348,0.0,-0.095342435,2017-06-08 20:00:55,52.430308595020634
-0.19153613,-0.2777274,-9.911995,0.0,-0.19068487,-0.27240694,-9.79303,0.013620348,0.0,-0.12258312,2017-06-08 20:00:56,50.895121984752265
-0.20111294,-0.2873042,-9.892841,0.0,-0.17706451,-0.27240694,-9.79303,0.0,-0.013620348,-0.12258312,2017-06-08 20:00:57,52.01380624572405
-0.20111294,-0.2777274,-9.902418,0.0,-0.19068487,-0.27240694,-9.79303,0.0,0.0,-0.095342435,2017-06-08 20:00:58,53.13615932834658
-0.20111294,-0.2873042,-9.902418,0.0,-0.19068487,-0.27240694,-9.79303,0.0,-0.013620348,-0.095342435,2017-06-08 20:00:59,50.830751528451614
-0.20111294,-0.2681506,-9.902418,0.0,-0.17706451,-0.27240694,-9.79303,-0.013620348,0.013620348,-0.10896278,2017-06-08 20:01:00,53.985630320186296
-0.20111294,-0.2777274,-9.892841,0.0,-0.16344418,-0.27240694,-9.79303,-0.027240695,0.0,-0.12258312,2017-06-08 20:01:01,52.521681476082364
-0.19153613,-0.2777274,-9.902418,0.0,-0.16344418,-0.27240694,-9.79303,-0.013620348,-0.013620348,-0.10896278,2017-06-08 20:01:02,51.32453828571344
-0.18195933,-0.29688102,-9.911995,0.0,-0.14982383,-0.28602728,-9.79303,-0.040861044,0.0,-0.10896278,2017-06-08 20:01:03,51.055015200828464
-0.18195933,-0.2873042,-9.902418,0.0,-0.14982383,-0.28602728,-9.79303,-0.027240695,0.013620348,-0.10896278,2017-06-08 20:01:04,52.884479300745156
-0.18195933,-0.2873042,-9.902418,0.0,-0.13620347,-0.28602728,-9.79303,-0.040861044,0.0,-0.10896278,2017-06-08 20:01:05,51.55874599639457
-0.18195933,-0.2777274,-9.911995,0.0,-0.14982383,-0.28602728,-9.79303,-0.027240695,0.0,-0.12258312,2017-06-08 20:01:06,52.2921136846961
-0.18195933,-0.2873042,-9.892841,0.0,-0.16344418,-0.28602728,-9.79303,-0.013620348,0.0,-0.12258312,2017-06-08 20:01:07,52.24735720872175
-0.20111294,-0.2777274,-9.902418,0.0,-0.14982383,-0.28602728,-9.79303,-0.040861044,0.013620348,-0.10896278,2017-06-08 20:01:08,51.81397917322215
-0.19153613,-0.2777274,-9.902418,0.0,-0.13620347,-0.28602728,-9.79303,-0.05448139,0.013620348,-0.10896278,2017-06-08 20:01:10,53.09114176238694
-0.20111294,-0.2777274,-9.892841,0.0,-0.12258312,-0.28602728,-9.79303,-0.068101734,0.013620348,-0.095342435,2017-06-08 20:01:11,51.5570558570878
-0.19153613,-0.2777274,-9.892841,0.0,-0.14982383,-0.28602728,-9.79303,-0.040861044,0.013620348,-0.095342435,2017-06-08 20:01:12,55.50110089194745
-0.20111294,-0.2777274,-9.902418,0.0,-0.13620347,-0.28602728,-9.79303,-0.05448139,0.013620348,-0.095342435,2017-06-08 20:01:13,50.69518730479662
-0.19153613,-0.2777274,-9.902418,0.0,-0.14982383,-0.28602728,-9.79303,-0.040861044,0.027240695,-0.10896278,2017-06-08 20:01:14,54.540688514730505
-0.19153613,-0.2873042,-9.902418,0.0,-0.2043052,-0.25878662,-9.79303,0.013620348,-0.027240695,-0.10896278,2017-06-08 20:01:15,50.67658245937211
-0.21068975,-0.2873042,-9.892841,0.0,-0.19068487,-0.25878662,-9.79303,0.0,-0.027240695,-0.095342435,2017-06-08 20:01:16,54.68744575676475
-0.20111294,-0.2777274,-9.883265,0.0,-0.19068487,-0.25878662,-9.79303,0.0,-0.013620348,-0.10896278,2017-06-08 20:01:17,52.54383214208171
-0.20111294,-0.2873042,-9.902418,0.0,-0.19068487,-0.25878662,-9.79303,0.0,-0.027240695,-0.095342435,2017-06-08 20:01:18,53.82761709879836
-0.20111294,-0.2777274,-9.892841,0.0,-0.17706451,-0.27240694,-9.79303,-0.013620348,0.0,-0.12258312,2017-06-08 20:01:19,51.67198649226917
-0.19153613,-0.2777274,-9.902418,0.0,-0.2043052,-0.25878662,-9.79303,0.0,-0.013620348,-0.095342435,2017-06-08 20:01:20,53.370220293274954
-0.20111294,-0.2777274,-9.902418,0.0,-0.19068487,-0.27240694,-9.79303,0.013620348,0.0,-0.10896278,2017-06-08 20:01:21,53.607339472807986
-0.19153613,-0.2681506,-9.883265,0.0,-0.17706451,-0.27240694,-9.79303,-0.013620348,0.013620348,-0.10896278,2017-06-08 20:01:22,51.55749009236112
-0.19153613,-0.2777274,-9.902418,0.0,-0.17706451,-0.27240694,-9.79303,-0.013620348,0.0,-0.10896278,2017-06-08 20:01:23,52.13347732956365
-0.20111294,-0.2777274,-9.902418,0.0,-0.17706451,-0.27240694,-9.79303,-0.013620348,0.0,-0.095342435,2017-06-08 20:01:24,50.37471083052763
-0.19153613,-0.2873042,-9.892841,0.0,-0.19068487,-0.27240694,-9.79303,0.0,-0.013620348,-0.095342435,2017-06-08 20:01:25,52.537444019727644
-0.19153613,-0.2777274,-9.892841,0.0,-0.17706451,-0.27240694,-9.79303,-0.027240695,0.0,-0.095342435,2017-06-08 20:01:26,50.56313252119924
-0.20111294,-0.2873042,-9.902418,0.0,-0.16344418,-0.27240694,-9.79303,-0.027240695,0.0,-0.10896278,2017-06-08 20:01:27,51.25627154787306
-0.19153613,-0.2777274,-9.902418,0.0,-0.19068487,-0.27240694,-9.79303,0.0,0.0,-0.10896278,2017-06-08 20:01:29,51.067649928307205
-0.20111294,-0.2681506,-9.883265,0.0,-0.19068487,-0.27240694,-9.79303,0.0,-0.013620348,-0.10896278,2017-06-08 20:01:30,52.47659063660875
-0.21068975,-0.2777274,-9.892841,0.0,-0.19068487,-0.27240694,-9.79303,0.0,0.0,-0.095342435,2017-06-08 20:01:31,49.608501289346336
-0.21068975,-0.2873042,-9.883265,0.0,-0.19068487,-0.27240694,-9.79303,-0.013620348,0.013620348,-0.10896278,2017-06-08 20:01:32,53.00080962495698
-0.20111294,-0.2777274,-9.892841,0.0,-0.19068487,-0.27240694,-9.79303,0.0,0.0,-0.095342435,2017-06-08 20:01:33,51.37457598109863
-0.19153613,-0.2777274,-9.883265,0.0,-0.19068487,-0.25878662,-9.79303,0.0,-0.013620348,-0.095342435,2017-06-08 20:01:34,53.52202302187126
-0.20111294,-0.2777274,-9.892841,0.0,-0.17706451,-0.27240694,-9.79303,-0.013620348,0.0,-0.095342435,2017-06-08 20:01:35,50.78400715038151
-0.19153613,-0.2873042,-9.902418,0.0,-0.19068487,-0.27240694,-9.79303,0.0,-0.013620348,-0.10896278,2017-06-08 20:01:36,53.65501734796883
-0.19153613,-0.2777274,-9.902418,0.0,-0.19068487,-0.27240694,-9.79303,0.0,0.0,-0.095342435,2017-06-08 20:01:37,52.85536620458569
-0.18195933,-0.2777274,-9.902418,0.0,-0.19068487,-0.27240694,-9.79303,0.013620348,0.0,-0.10896278,2017-06-08 20:01:38,53.076601843763704
-0.19153613,-0.29688102,-9.902418,0.0,-0.19068487,-0.27240694,-9.79303,0.0,-0.013620348,-0.10896278,2017-06-08 20:01:39,52.15687878247773
-0.19153613,-0.2873042,-9.911995,0.0,-0.19068487,-0.27240694,-9.79303,0.0,-0.013620348,-0.12258312,2017-06-08 20:01:40,52.73795420247497
-0.19153613,-0.2777274,-9.902418,0.0,-0.19068487,-0.27240694,-9.79303,0.0,0.0,-0.10896278,2017-06-08 20:01:41,52.89231900686553
-0.18195933,-0.2777274,-9.902418,0.0,-0.19068487,-0.27240694,-9.79303,0.013620348,0.0,-0.10896278,2017-06-08 20:01:42,51.247358295844336
-0.20111294,-0.2873042,-9.902418,0.0,-0.17706451,-0.27240694,-9.79303,-0.013620348,0.0,-0.095342435,2017-06-08 20:01:43,54.29508387571164
-0.19153613,-0.2873042,-9.902418,0.0,-0.17706451,-0.27240694,-9.79303,-0.013620348,0.013620348,-0.10896278,2017-06-08 20:01:44,53.435731372182744
-0.20111294,-0.2873042,-9.911995,0.0,-0.16344418,-0.27240694,-9.79303,-0.027240695,-0.013620348,-0.095342435,2017-06-08 20:01:45,53.02658859822347
-0.20111294,-0.2873042,-9.911995,0.0,-0.16344418,-0.27240694,-9.79303,-0.027240695,-0.013620348,-0.12258312,2017-06-08 20:01:46,52.02531971644441
-0.20111294,-0.2873042,-9.902418,0.0,-0.16344418,-0.27240694,-9.79303,-0.027240695,-0.013620348,-0.095342435,2017-06-08 20:01:48,51.238949151949114
-0.18195933,-0.2777274,-9.911995,0.0,-0.17706451,-0.27240694,-9.79303,-0.013620348,0.013620348,-0.12258312,2017-06-08 20:01:49,53.74156319515322
-0.21068975,-0.2777274,-9.892841,0.0,-0.17706451,-0.27240694,-9.79303,-0.027240695,0.0,-0.095342435,2017-06-08 20:01:50,50.20467395735093
-0.19153613,-0.2777274,-9.911995,0.0,-0.17706451,-0.27240694,-9.79303,0.0,0.0,-0.10896278,2017-06-08 20:01:51,52.90925649840598
-0.20111294,-0.2873042,-9.892841,0.0,-0.17706451,-0.27240694,-9.79303,-0.013620348,0.013620348,-0.095342435,2017-06-08 20:01:52,51.32547627422706
-0.20111294,-0.2777274,-9.902418,0.0,-0.17706451,-0.27240694,-9.79303,-0.013620348,0.0,-0.10896278,2017-06-08 20:01:53,53.646637841256776
-0.18195933,-0.2873042,-9.902418,0.0,-0.17706451,-0.27240694,-9.79303,-0.013620348,-0.013620348,-0.10896278,2017-06-08 20:01:54,54.59654637008113
-0.20111294,-0.2873042,-9.892841,0.0,-0.17706451,-0.27240694,-9.79303,-0.013620348,-0.013620348,-0.095342435,2017-06-08 20:01:55,55.58232713607859
-0.19153613,-0.2777274,-9.892841,0.0,-0.17706451,-0.27240694,-9.79303,0.0,0.013620348,-0.095342435,2017-06-08 20:01:56,53.892851583444006
-0.19153613,-0.2777274,-9.902418,0.0,-0.2043052,-0.25878662,-9.79303,0.013620348,-0.013620348,-0.10896278,2017-06-08 20:01:57,56.711783697485465
-0.842759,-1.1109096,-9.509769,14.0,-0.19068487,-0.28602728,-9.79303,-0.10896278,-0.42223078,-1.1304889,2017-06-08 20:01:58,51.79358288469977
0.0,-0.02873042,-9.911995,0.0,-0.23154591,0.040861044,-9.79303,0.23154591,-0.12258312,-0.16344418,2017-06-08 20:01:59,51.78941196519119
-0.02873042,-0.009576807,-9.902418,0.0,-0.05448139,0.28602728,-9.79303,0.027240695,-0.31326798,-0.10896278,2017-06-08 20:02:00,52.49809762107291
-0.019153614,-0.019153614,-9.902418,0.0,0.0,-0.013620348,-9.80665,-0.013620348,0.0,-0.08172209,2017-06-08 20:02:01,50.75418535852117
-0.02873042,-0.019153614,-9.902418,0.0,-0.013620348,-0.013620348,-9.80665,-0.013620348,0.0,-0.095342435,2017-06-08 20:02:02,51.17378219220467
-0.019153614,-0.019153614,-9.892841,0.0,-0.013620348,-0.013620348,-9.80665,0.0,0.013620348,-0.08172209,2017-06-08 20:02:03,50.52535091500788
-0.02873042,-0.019153614,-9.892841,0.0,-0.013620348,-0.027240695,-9.80665,0.013620348,0.013620348,-0.08172209,2017-06-08 20:02:04,51.708353597875046
-0.02873042,-0.009576807,-9.883265,0.0,-0.027240695,-0.013620348,-9.80665,0.0,-0.013620348,-0.095342435,2017-06-08 20:02:06,51.28187310620383
-0.02873042,-0.019153614,-9.911995,0.0,-0.013620348,-0.013620348,-9.80665,-0.013620348,0.0,-0.095342435,2017-06-08 20:02:07,52.36765200753764
-0.02873042,-0.02873042,-9.911995,0.0,-0.013620348,-0.013620348,-9.80665,-0.013620348,-0.013620348,-0.08172209,2017-06-08 20:02:08,48.80942058015356
-0.009576807,-0.02873042,-9.892841,0.0,-0.013620348,-0.013620348,-9.80665,-0.013620348,-0.013620348,-0.08172209,2017-06-08 20:02:09,53.80518150601119
-0.02873042,-0.02873042,-9.892841,0.0,-0.013620348,-0.013620348,-9.80665,0.0,-0.013620348,-0.08172209,2017-06-08 20:02:10,49.95699346998509
-0.019153614,-0.009576807,-9.902418,0.0,-0.027240695,-0.013620348,-9.80665,0.0,0.013620348,-0.095342435,2017-06-08 20:02:11,51.3763787199442
-0.02873042,-0.019153614,-9.902418,0.0,-0.027240695,-0.013620348,-9.80665,0.027240695,0.0,-0.08172209,2017-06-08 20:02:12,51.7101760625512
-0.02873042,-0.009576807,-9.883265,0.0,-0.027240695,-0.013620348,-9.80665,0.0,-0.013620348,-0.095342435,2017-06-08 20:02:13,52.625077015472364
-0.02873042,-0.019153614,-9.902418,0.0,-0.027240695,-0.013620348,-9.80665,0.027240695,0.0,-0.095342435,2017-06-08 20:02:14,49.438475535209314
-0.02873042,-0.019153614,-9.883265,0.0,-0.013620348,-0.013620348,-9.79303,-0.013620348,0.013620348,-0.095342435,2017-06-08 20:02:15,54.156915372783686
-0.02873042,-0.019153614,-9.883265,0.0,-0.013620348,-0.013620348,-9.79303,-0.013620348,0.013620348,-0.095342435,2017-06-08 20:02:16,50.921447976819245
-0.02873042,-0.009576807,-9.883265,0.0,-0.027240695,-0.013620348,-9.80665,0.0,0.013620348,-0.08172209,2017-06-08 20:02:17,53.917219168099486
-0.019153614,-0.019153614,-9.902418,0.0,-0.027240695,-0.013620348,-9.80665,0.0,0.0,-0.08172209,2017-06-08 20:02:18,52.67817027043422
-0.019153614,-0.019153614,-9.883265,0.0,-0.027240695,-0.013620348,-9.80665,0.013620348,0.0,-0.095342435,2017-06-08 20:02:19,52.57932876097343
-0.02873042,-0.019153614,-9.883265,0.0,-0.027240695,-0.013620348,-9.80665,0.0,0.0,-0.095342435,2017-06-08 20:02:20,52.34093063501455
-0.019153614,-0.019153614,-9.892841,0.0,-0.013620348,-0.013620348,-9.79303,0.0,0.0,-0.12258312,2017-06-08 20:02:21,53.633729640395174
-0.02873042,-0.019153614,-9.902418,0.0,-0.027240695,-0.013620348,-9.80665,0.0,0.013620348,-0.08172209,2017-06-08 20:02:22,53.78132993097448
-0.02873042,-0.019153614,-9.892841,0.0,-0.027240695,-0.013620348,-9.80665,0.0,0.0,-0.095342435,2017-06-08 20:02:23,52.199226557310794
-0.019153614,-0.02873042,-9.892841,0.0,-0.013620348,-0.013620348,-9.80665,0.0,-0.013620348,-0.10896278,2017-06-08 20:02:25,53.91409333573192
-0.02873042,-0.019153614,-9.902418,0.0,-0.013620348,-0.027240695,-9.80665,-0.013620348,0.013620348,-0.095342435,2017-06-08 20:02:26,55.01252489689026
-0.038307227,-0.019153614,-9.902418,0.0,-0.013620348,-0.027240695,-9.80665,-0.013620348,0.013620348,-0.095342435,2017-06-08 20:02:27,52.79434683950852
-0.02873042,-0.019153614,-9.892841,0.0,-0.027240695,-0.013620348,-9.80665,0.0,0.0,-0.068101734,2017-06-08 20:02:28,53.403349325725536
-0.038307227,-0.009576807,-9.883265,0.0,-0.027240695,-0.027240695,-9.80665,0.0,0.027240695,-0.08172209,2017-06-08 20:02:29,53.380362305696224
-0.038307227,-0.009576807,-9.892841,0.0,-0.027240695,-0.027240695,-9.80665,0.0,0.027240695,-0.08172209,2017-06-08 20:02:30,54.12329294222093
-0.038307227,-0.019153614,-9.892841,0.0,-0.040861044,-0.013620348,-9.80665,0.013620348,0.0,-0.08172209,2017-06-08 20:02:31,54.09171804743074
-0.02873042,-0.019153614,-9.873688,0.0,-0.040861044,-0.013620348,-9.80665,0.013620348,0.0,-0.08172209,2017-06-08 20:02:32,54.77457621219259
-0.02873042,-0.009576807,-9.892841,0.0,-0.040861044,-0.013620348,-9.80665,0.013620348,0.013620348,-0.068101734,2017-06-08 20:02:33,53.20338718137231
-0.02873042,-0.019153614,-9.883265,0.0,-0.040861044,-0.013620348,-9.80665,0.013620348,0.0,-0.08172209,2017-06-08 20:02:34,54.94824473555754
-0.038307227,-0.009576807,-9.873688,0.0,-0.027240695,-0.013620348,-9.80665,0.0,0.013620348,-0.08172209,2017-06-08 20:02:35,53.474134808912474
-0.02873042,-0.019153614,-9.883265,0.0,-0.027240695,-0.013620348,-9.80665,0.0,0.0,-0.08172209,2017-06-08 20:02:36,53.50924147148855
-0.02873042,-0.019153614,-9.883265,0.0,-0.027240695,0.013620348,-9.80665,0.0,-0.027240695,-0.08172209,2017-06-08 20:02:37,52.20216386533218
-0.047884032,0.0,-9.873688,0.0,-0.027240695,-0.013620348,-9.80665,0.0,0.0,-0.08172209,2017-06-08 20:02:38,53.325355214601444
-0.02873042,-0.009576807,-9.892841,0.0,-0.040861044,0.0,-9.79303,0.013620348,0.0,-0.095342435,2017-06-08 20:02:39,53.014452031858696
-0.038307227,-0.009576807,-9.902418,0.0,-0.040861044,-0.013620348,-9.80665,0.013620348,0.013620348,-0.068101734,2017-06-08 20:02:40,51.74066111748746
-0.02873042,-0.019153614,-9.883265,0.0,-0.027240695,-0.013620348,-9.80665,0.0,0.013620348,-0.08172209,2017-06-08 20:02:41,53.312141368521154
-0.038307227,-0.009576807,-9.873688,0.0,-0.027240695,-0.027240695,-9.80665,0.0,0.027240695,-0.08172209,2017-06-08 20:02:42,52.11072219636254
-0.02873042,-0.019153614,-9.892841,0.0,-0.027240695,-0.027240695,-9.80665,0.0,0.013620348,-0.08172209,2017-06-08 20:02:44,52.40131569447073
-0.038307227,-0.019153614,-9.892841,0.0,-0.027240695,-0.040861044,-9.80665,0.0,0.027240695,-0.08172209,2017-06-08 20:02:45,53.79376532465354
-0.038307227,-0.02873042,-9.892841,0.0,-0.040861044,-0.013620348,-9.79303,0.013620348,0.013620348,-0.095342435,2017-06-08 20:02:46,53.625146415580225
-0.02873042,-0.009576807,-9.892841,0.0,-0.040861044,-0.013620348,-9.80665,0.013620348,-0.013620348,-0.095342435,2017-06-08 20:02:47,51.72112518039291
-0.02873042,-0.009576807,-9.864111,0.0,-0.027240695,0.0,-9.80665,0.0,0.0,-0.08172209,2017-06-08 20:02:48,51.79534054239335
-0.02873042,-0.02873042,-9.873688,0.0,-0.027240695,0.0,-9.79303,0.0,0.0,-0.08172209,2017-06-08 20:02:49,53.49174254876026
-0.038307227,-0.009576807,-9.864111,0.0,-0.027240695,0.0,-9.79303,0.0,0.0,-0.068101734,2017-06-08 20:02:50,52.72309371435465
-0.02873042,-0.019153614,-9.854534,0.0,-0.027240695,0.0,-9.79303,0.0,-0.013620348,-0.068101734,2017-06-08 20:02:51,51.63288605031997
-0.019153614,-0.019153614,-9.844957,0.0,-0.040861044,0.0,-9.80665,0.013620348,-0.013620348,-0.040861044,2017-06-08 20:02:52,53.94552802862711
-0.038307227,-0.019153614,-9.854534,0.0,-0.040861044,0.0,-9.80665,0.027240695,-0.013620348,-0.027240695,2017-06-08 20:02:53,54.47696910316185
-0.02873042,-0.02873042,-9.864111,0.0,-0.027240695,-0.013620348,-9.80665,0.0,-0.013620348,-0.05448139,2017-06-08 20:02:54,53.70827611346652
-0.02873042,-0.019153614,-9.864111,0.0,-0.027240695,-0.013620348,-9.80665,0.0,0.013620348,-0.05448139,2017-06-08 20:02:55,53.1348102930335
-0.038307227,-0.019153614,-9.873688,0.0,-0.027240695,-0.013620348,-9.80665,0.0,0.0,-0.068101734,2017-06-08 20:02:56,55.681236173975925
-0.02873042,-0.019153614,-9.883265,0.0,-0.027240695,-0.013620348,-9.80665,0.0,0.013620348,-0.08172209,2017-06-08 20:02:57,54.17515032259927
-0.02873042,-0.019153614,-9.873688,0.0,-0.040861044,-0.013620348,-9.80665,0.013620348,0.0,-0.068101734,2017-06-08 20:02:58,54.06312217134386
-0.02873042,-0.009576807,-9.883265,0.0,-0.027240695,-0.013620348,-9.79303,0.0,0.013620348,-0.095342435,2017-06-08 20:02:59,52.25846497804185
-0.038307227,-0.009576807,-9.892841,0.0,-0.027240695,0.0,-9.80665,0.0,0.0,-0.068101734,2017-06-08 20:03:00,52.42259755203304
-0.02873042,-0.019153614,-9.892841,0.0,-0.027240695,0.0,-9.80665,0.0,-0.013620348,-0.068101734,2017-06-08 20:03:01,52.5602076929179
-0.02873042,-0.02873042,-9.892841,0.0,-0.027240695,-0.013620348,-9.80665,0.0,0.0,-0.08172209,2017-06-08 20:03:03,52.9822146497516
-0.038307227,0.0,-9.883265,0.0,-0.027240695,-0.013620348,-9.80665,0.0,0.0,-0.08172209,2017-06-08 20:03:04,54.61539671384842
-0.038307227,-0.019153614,-9.883265,0.0,-0.027240695,0.0,-9.80665,0.0,-0.013620348,-0.095342435,2017-06-08 20:03:05,54.29287419958138
-0.02873042,-0.009576807,-9.873688,0.0,-0.027240695,0.0,-9.80665,0.0,0.0,-0.068101734,2017-06-08 20:03:06,55.33119972503191
-0.02873042,-0.009576807,-9.873688,0.0,-0.027240695,0.0,-9.80665,0.0,0.0,-0.05448139,2017-06-08 20:03:07,53.04952877367822
-0.02873042,-0.009576807,-9.873688,0.0,-0.027240695,-0.013620348,-9.80665,0.0,0.013620348,-0.068101734,2017-06-08 20:03:08,55.08330076481326
-0.019153614,-0.009576807,-9.873688,0.0,-0.027240695,-0.013620348,-9.80665,0.013620348,0.013620348,-0.068101734,2017-06-08 20:03:09,54.52427752247253
-0.038307227,-0.02873042,-9.892841,0.0,-0.027240695,-0.013620348,-9.80665,0.0,0.013620348,-0.08172209,2017-06-08 20:03:10,55.24623136211488
-0.02873042,-0.009576807,-9.892841,0.0,-0.027240695,-0.013620348,-9.80665,0.0,0.013620348,-0.068101734,2017-06-08 20:03:11,55.58438548442963
-0.02873042,-0.009576807,-9.873688,0.0,-0.027240695,-0.027240695,-9.80665,0.0,0.027240695,-0.08172209,2017-06-08 20:03:12,52.762811875781885
-0.019153614,-0.009576807,-9.883265,0.0,-0.027240695,-0.027240695,-9.80665,0.0,0.027240695,-0.095342435,2017-06-08 20:03:13,57.05345549334542
-0.019153614,-0.019153614,-9.892841,0.0,-0.040861044,0.0,-9.80665,0.027240695,-0.013620348,-0.08172209,2017-06-08 20:03:14,52.62718325537069
-0.02873042,-0.02873042,-9.892841,0.0,-0.027240695,0.0,-9.79303,0.0,-0.027240695,-0.095342435,2017-06-08 20:03:15,55.8673715295675
-0.038307227,0.0,-9.883265,0.0,-0.027240695,-0.013620348,-9.80665,0.013620348,0.0,-0.08172209,2017-06-08 20:03:16,55.65000817890252
-0.02873042,-0.009576807,-9.892841,0.0,-0.027240695,-0.013620348,-9.80665,0.0,0.013620348,-0.08172209,2017-06-08 20:03:17,55.490741760493556
-0.02873042,-0.02873042,-9.892841,0.0,-0.027240695,-0.013620348,-9.80665,0.0,0.0,-0.08172209,2017-06-08 20:03:18,53.680006543552345
-0.02873042,0.0,-9.883265,0.0,-0.027240695,-0.013620348,-9.79303,0.0,0.0,-0.095342435,2017-06-08 20:03:19,54.39305781544047
-0.019153614,-0.02873042,-9.892841,0.0,-0.027240695,-0.013620348,-9.80665,0.0,0.013620348,-0.08172209,2017-06-08 20:03:20,52.35318733203806
-0.02873042,-0.009576807,-9.883265,0.0,-0.027240695,-0.027240695,-9.80665,0.0,0.0,-0.10896278,2017-06-08 20:03:22,52.78335030149013
-0.038307227,-0.02873042,-9.892841,0.0,-0.027240695,-0.027240695,-9.80665,0.0,0.013620348,-0.08172209,2017-06-08 20:03:23,53.51805848640911
-0.038307227,-0.019153614,-9.892841,0.0,-0.027240695,0.0,-9.80665,0.0,-0.013620348,-0.08172209,2017-06-08 20:03:24,52.64347522864129
-0.019153614,-0.019153614,-9.911995,0.0,-0.040861044,-0.013620348,-9.80665,0.027240695,0.0,-0.08172209,2017-06-08 20:03:25,52.28072898167224
-0.038307227,-0.019153614,-9.883265,0.0,-0.027240695,-0.027240695,-9.80665,0.0,0.013620348,-0.08172209,2017-06-08 20:03:26,52.873422912387554
-0.019153614,-0.009576807,-9.902418,0.0,-0.040861044,-0.013620348,-9.80665,0.027240695,-0.013620348,-0.095342435,2017-06-08 20:03:27,52.92620498660202
-0.038307227,-0.019153614,-9.892841,0.0,-0.040861044,-0.013620348,-9.80665,0.013620348,0.0,-0.08172209,2017-06-08 20:03:28,51.88677932334437
-0.02873042,-0.019153614,-9.911995,0.0,-0.027240695,-0.013620348,-9.80665,0.0,0.0,-0.08172209,2017-06-08 20:03:29,51.956233371574825
-0.038307227,-0.019153614,-9.892841,0.0,-0.027240695,-0.013620348,-9.80665,0.013620348,0.0,-0.10896278,2017-06-08 20:03:30,53.62390590967331
-0.038307227,-0.009576807,-9.883265,0.0,-0.027240695,-0.013620348,-9.80665,0.0,0.013620348,-0.095342435,2017-06-08 20:03:31,52.962304177596884
-0.02873042,-0.02873042,-9.902418,0.0,-0.027240695,-0.013620348,-9.80665,0.0,-0.013620348,-0.08172209,2017-06-08 20:03:32,53.07059715879086
-0.038307227,-0.009576807,-9.892841,0.0,-0.027240695,-0.013620348,-9.80665,0.0,0.013620348,-0.08172209,2017-06-08 20:03:33,52.588030966728496
-0.038307227,-0.009576807,-9.873688,0.0,-0.040861044,-0.013620348,-9.79303,0.013620348,0.013620348,-0.095342435,2017-06-08 20:03:34,51.104656009149465
-0.02873042,-0.019153614,-9.873688,0.0,-0.040861044,-0.013620348,-9.80665,0.013620348,0.0,-0.08172209,2017-06-08 20:03:35,53.432392684279606
-0.02873042,-0.019153614,-9.873688,0.0,-0.040861044,-0.013620348,-9.80665,0.013620348,0.0,-0.068101734,2017-06-08 20:03:36,51.70841197950868
-0.038307227,-0.009576807,-9.892841,0.0,-0.040861044,-0.013620348,-9.80665,0.013620348,0.013620348,-0.068101734,2017-06-08 20:03:37,50.92297259974223
-0.038307227,0.0,-9.883265,0.0,-0.040861044,-0.013620348,-9.80665,0.013620348,0.0,-0.08172209,2017-06-08 20:03:38,53.564879788185465
-0.02873042,-0.02873042,-9.892841,0.0,-0.027240695,-0.013620348,-9.80665,0.0,0.0,-0.08172209,2017-06-08 20:03:39,53.099575411645546
-0.019153614,-0.009576807,-9.873688,0.0,-0.027240695,-0.027240695,-9.80665,0.0,0.027240695,-0.068101734,2017-06-08 20:03:41,52.43525394784918
-0.02873042,-0.009576807,-9.883265,0.0,-0.040861044,-0.013620348,-9.80665,0.013620348,0.013620348,-0.08172209,2017-06-08 20:03:42,62.75308029281958
-0.019153614,-0.019153614,-9.892841,0.0,-0.027240695,0.0,-9.79303,0.0,-0.013620348,-0.095342435,2017-06-08 20:03:43,75.99904581666583
-0.02873042,-0.009576807,-9.883265,0.0,-0.040861044,0.0,-9.79303,0.013620348,-0.027240695,-0.095342435,2017-06-08 20:03:44,51.718965235908236
-0.02873042,-0.009576807,-9.902418,0.0,-0.040861044,0.0,-9.79303,0.013620348,0.0,-0.10896278,2017-06-08 20:03:45,52.59384314240964
-0.047884032,-0.019153614,-9.873688,0.0,-0.027240695,-0.013620348,-9.80665,0.0,0.013620348,-0.08172209,2017-06-08 20:03:46,52.19984772434127
-0.038307227,-0.019153614,-9.883265,0.0,-0.040861044,0.0,-9.79303,0.013620348,-0.013620348,-0.068101734,2017-06-08 20:03:47,50.609301552585436
-0.019153614,-0.019153614,-9.902418,0.0,-0.027240695,0.0,-9.80665,0.0,-0.013620348,-0.068101734,2017-06-08 20:03:48,52.12046469071809
-0.038307227,-0.019153614,-9.873688,0.0,-0.040861044,-0.013620348,-9.79303,0.013620348,0.0,-0.095342435,2017-06-08 20:03:49,53.42502058774171
-0.02873042,-0.019153614,-9.892841,0.0,-0.040861044,-0.013620348,-9.80665,0.013620348,0.0,-0.08172209,2017-06-08 20:03:50,54.23687748558241
-0.02873042,-0.019153614,-9.892841,0.0,-0.040861044,-0.013620348,-9.80665,0.013620348,0.0,-0.08172209,2017-06-08 20:03:51,52.281919686422206
-0.038307227,-0.009576807,-9.902418,0.0,-0.040861044,0.0,-9.79303,0.027240695,-0.027240695,-0.08172209,2017-06-08 20:03:52,51.66227286563813
-0.02873042,-0.009576807,-9.873688,0.0,-0.027240695,-0.013620348,-9.80665,0.0,-0.013620348,-0.095342435,2017-06-08 20:03:53,50.63257136068417
-0.038307227,-0.009576807,-9.902418,0.0,-0.027240695,-0.013620348,-9.80665,0.0,0.013620348,-0.08172209,2017-06-08 20:03:54,51.584716174921866
-0.038307227,-0.009576807,-9.873688,0.0,-0.027240695,-0.013620348,-9.80665,0.0,0.013620348,-0.068101734,2017-06-08 20:03:55,53.13693850092203
-0.038307227,-0.019153614,-9.883265,0.0,-0.040861044,0.0,-9.80665,0.027240695,-0.013620348,-0.08172209,2017-06-08 20:03:56,52.779950593154645
-0.02873042,-0.019153614,-9.873688,0.0,-0.027240695,-0.013620348,-9.80665,0.0,0.0,-0.068101734,2017-06-08 20:03:57,49.643456273735126
-0.047884032,-0.009576807,-9.892841,0.0,-0.027240695,-0.013620348,-9.80665,0.0,0.013620348,-0.08172209,2017-06-08 20:03:58,53.712124259300005
-0.02873042,-0.019153614,-9.892841,0.0,-0.027240695,0.0,-9.80665,0.0,-0.013620348,-0.08172209,2017-06-08 20:04:00,51.738405871354985
-0.02873042,-0.019153614,-9.892841,0.0,-0.040861044,-0.013620348,-9.80665,0.013620348,0.0,-0.08172209,2017-06-08 20:04:01,53.66744924997269
-0.02873042,-0.009576807,-9.892841,0.0,-0.040861044,-0.013620348,-9.80665,0.013620348,0.013620348,-0.068101734,2017-06-08 20:04:02,52.3557249747309
-0.02873042,0.0,-9.873688,0.0,-0.027240695,-0.027240695,-9.80665,0.0,0.013620348,-0.068101734,2017-06-08 20:04:03,53.278228036698394
-0.038307227,-0.009576807,-9.892841,0.0,-0.027240695,0.0,-9.80665,0.0,-0.027240695,-0.08172209,2017-06-08 20:04:04,50.31159955259257
-0.02873042,-0.019153614,-9.892841,0.0,-0.027240695,0.0,-9.80665,0.0,-0.013620348,-0.08172209,2017-06-08 20:04:05,51.21079532278376
-0.02873042,-0.02873042,-9.892841,0.0,-0.040861044,-0.013620348,-9.80665,0.013620348,0.0,-0.095342435,2017-06-08 20:04:06,51.87297982052147
-0.019153614,-0.019153614,-9.902418,0.0,-0.027240695,-0.013620348,-9.80665,0.0,0.0,-0.08172209,2017-06-08 20:04:07,50.286635190313774
-0.02873042,-0.019153614,-9.892841,0.0,-0.027240695,-0.013620348,-9.80665,0.0,0.0,-0.08172209,2017-06-08 20:04:08,52.646099049202604
-0.019153614,-0.019153614,-9.892841,0.0,-0.040861044,-0.013620348,-9.80665,0.013620348,0.0,-0.08172209,2017-06-08 20:04:09,52.83710720757938
-0.038307227,-0.009576807,-9.883265,0.0,-0.040861044,-0.013620348,-9.80665,0.013620348,0.013620348,-0.08172209,2017-06-08 20:04:10,51.77454191703244
-0.02873042,-0.019153614,-9.883265,0.0,-0.027240695,-0.013620348,-9.80665,0.013620348,0.0,-0.08172209,2017-06-08 20:04:11,52.641763668641815
-0.02873042,-0.019153614,-9.892841,0.0,-0.027240695,-0.013620348,-9.80665,0.013620348,0.0,-0.08172209,2017-06-08 20:04:12,53.32775718299401
-0.02873042,-0.009576807,-9.883265,0.0,-0.040861044,-0.013620348,-9.80665,0.027240695,0.013620348,-0.08172209,2017-06-08 20:04:13,52.55601388772301
-0.02873042,-0.019153614,-9.892841,0.0,-0.027240695,-0.027240695,-9.80665,0.0,0.027240695,-0.08172209,2017-06-08 20:04:14,53.02138240159622
-0.019153614,-0.019153614,-9.873688,0.0,-0.027240695,-0.027240695,-9.80665,0.0,0.013620348,-0.095342435,2017-06-08 20:04:15,50.65404437525306
-0.02873042,-0.02873042,-9.892841,0.0,-0.027240695,-0.013620348,-9.80665,0.0,0.013620348,-0.068101734,2017-06-08 20:04:16,54.19660112454848
-0.02873042,-0.019153614,-9.892841,0.0,-0.027240695,-0.013620348,-9.80665,0.0,0.0,-0.08172209,2017-06-08 20:04:18,51.2344169948292
-0.02873042,-0.019153614,-9.883265,0.0,-0.040861044,-0.013620348,-9.80665,0.013620348,0.0,-0.08172209,2017-06-08 20:04:19,53.49564056962086
-0.02873042,-0.019153614,-9.892841,0.0,-0.040861044,-0.013620348,-9.80665,0.013620348,0.0,-0.08172209,2017-06-08 20:04:20,52.51206071822878
-0.02873042,-0.009576807,-9.883265,0.0,-0.027240695,-0.013620348,-9.80665,0.0,0.013620348,-0.08172209,2017-06-08 20:04:21,53.251503597774494
-0.019153614,-0.009576807,-9.892841,0.0,-0.027240695,-0.013620348,-9.80665,0.0,-0.013620348,-0.08172209,2017-06-08 20:04:22,53.10818164013703
-0.02873042,-0.019153614,-9.873688,0.0,-0.027240695,-0.013620348,-9.80665,0.0,0.013620348,-0.068101734,2017-06-08 20:04:23,52.33249601041386
-0.02873042,-0.009576807,-9.873688,0.0,-0.027240695,-0.013620348,-9.80665,0.0,0.013620348,-0.068101734,2017-06-08 20:04:24,53.1705111990873
-0.02873042,-0.009576807,-9.883265,0.0,-0.040861044,0.0,-9.79303,0.013620348,0.0,-0.095342435,2017-06-08 20:04:25,52.59827875449173
-0.02873042,-0.009576807,-9.892841,0.0,-0.040861044,-0.013620348,-9.79303,0.013620348,-0.013620348,-0.095342435,2017-06-08 20:04:26,52.525315242309176
-0.02873042,-0.009576807,-9.892841,0.0,-0.027240695,-0.013620348,-9.80665,0.0,0.013620348,-0.08172209,2017-06-08 20:04:27,55.315450481111064
-0.038307227,0.0,-9.883265,0.0,-0.040861044,-0.013620348,-9.80665,0.027240695,0.0,-0.08172209,2017-06-08 20:04:28,52.18635989012499
-0.038307227,-0.019153614,-9.883265,0.0,-0.027240695,0.0,-9.80665,0.0,-0.013620348,-0.068101734,2017-06-08 20:04:29,53.907126452400114
-0.038307227,0.0,-9.873688,0.0,-0.040861044,-0.013620348,-9.79303,0.013620348,0.0,-0.095342435,2017-06-08 20:04:30,53.40917465825889
-0.038307227,-0.009576807,-9.883265,0.0,-0.027240695,-0.013620348,-9.80665,0.0,0.013620348,-0.08172209,2017-06-08 20:04:31,55.68294865476379
-0.038307227,0.0,-9.883265,0.0,-0.027240695,-0.013620348,-9.80665,0.0,0.0,-0.08172209,2017-06-08 20:04:32,53.74770240565681
-0.02873042,-0.009576807,-9.883265,0.0,-0.027240695,-0.013620348,-9.80665,0.0,0.013620348,-0.095342435,2017-06-08 20:04:33,50.756905410951774
-0.02873042,-0.019153614,-9.892841,0.0,-0.027240695,-0.013620348,-9.79303,0.0,0.0,-0.095342435,2017-06-08 20:04:34,52.771027303862155
-0.038307227,-0.009576807,-9.883265,0.0,-0.027240695,-0.013620348,-9.80665,0.0,0.013620348,-0.095342435,2017-06-08 20:04:35,52.27854034931659
-0.02873042,-0.009576807,-9.883265,0.0,-0.040861044,-0.013620348,-9.80665,0.013620348,0.013620348,-0.08172209,2017-06-08 20:04:37,54.581786231378615
-0.02873042,-0.019153614,-9.892841,0.0,-0.040861044,0.0,-9.80665,0.013620348,-0.013620348,-0.08172209,2017-06-08 20:04:38,52.69393380032663
-0.038307227,-0.019153614,-9.883265,0.0,-0.027240695,-0.013620348,-9.80665,0.0,0.0,-0.08172209,2017-06-08 20:04:39,54.047001804609806
-0.02873042,-0.019153614,-9.902418,0.0,-0.027240695,-0.013620348,-9.80665,0.0,0.0,-0.068101734,2017-06-08 20:04:40,54.68865079867999
-0.047884032,-0.009576807,-9.883265,0.0,-0.040861044,-0.013620348,-9.80665,0.013620348,0.013620348,-0.08172209,2017-06-08 20:04:41,56.006058999283766
-0.02873042,-0.009576807,-9.873688,0.0,-0.027240695,0.0,-9.80665,-0.013620348,0.0,-0.068101734,2017-06-08 20:04:42,53.269758167108215
-0.038307227,-0.009576807,-9.883265,0.0,-0.040861044,0.0,-9.79303,0.013620348,0.0,-0.08172209,2017-06-08 20:04:43,54.993712861639224
-0.02873042,-0.02873042,-9.902418,0.0,-0.040861044,0.0,-9.79303,0.013620348,-0.013620348,-0.095342435,2017-06-08 20:04:44,50.96055268056365
-0.038307227,-0.02873042,-9.892841,0.0,-0.040861044,0.0,-9.79303,0.027240695,-0.027240695,-0.095342435,2017-06-08 20:04:45,52.87479418839237
-0.038307227,-0.009576807,-9.873688,0.0,-0.040861044,0.0,-9.79303,0.013620348,0.0,-0.095342435,2017-06-08 20:04:46,53.04534445090329
-0.019153614,-0.009576807,-9.883265,0.0,-0.040861044,-0.013620348,-9.80665,0.027240695,0.013620348,-0.08172209,2017-06-08 20:04:47,53.9302988728092
-0.038307227,-0.009576807,-9.883265,0.0,-0.040861044,-0.013620348,-9.80665,0.013620348,0.013620348,-0.08172209,2017-06-08 20:04:48,50.46176203678968
-0.02873042,-0.02873042,-9.883265,0.0,-0.040861044,-0.013620348,-9.80665,0.027240695,0.0,-0.08172209,2017-06-08 20:04:49,55.26093750024703
-0.019153614,-0.009576807,-9.902418,0.0,-0.027240695,-0.013620348,-9.80665,0.0,0.013620348,-0.08172209,2017-06-08 20:04:50,51.856744698625974
-0.02873042,-0.02873042,-9.892841,0.0,-0.027240695,-0.013620348,-9.80665,0.013620348,0.0,-0.08172209,2017-06-08 20:04:51,54.410643839052504
-0.019153614,-0.019153614,-9.883265,0.0,-0.027240695,0.0,-9.80665,0.0,-0.013620348,-0.08172209,2017-06-08 20:04:52,53.039695191042206
-0.019153614,-0.019153614,-9.883265,0.0,-0.027240695,-0.013620348,-9.80665,0.013620348,0.0,-0.08172209,2017-06-08 20:04:53,52.36151828127866
-0.038307227,-0.009576807,-9.873688,0.0,-0.027240695,-0.013620348,-9.80665,0.0,0.013620348,-0.08172209,2017-06-08 20:04:54,50.01748379192105
-0.019153614,-0.02873042,-9.883265,0.0,-0.027240695,-0.013620348,-9.80665,0.0,-0.013620348,-0.095342435,2017-06-08 20:04:56,53.650434128604815
-0.019153614,-0.02873042,-9.892841,0.0,-0.027240695,-0.013620348,-9.80665,0.013620348,0.0,-0.08172209,2017-06-08 20:04:57,52.09468340457529
-0.02873042,-0.019153614,-9.892841,0.0,-0.027240695,-0.013620348,-9.79303,0.013620348,0.0,-0.095342435,2017-06-08 20:04:58,53.6718472074093
-0.019153614,-0.019153614,-9.892841,0.0,-0.040861044,0.0,-9.80665,0.013620348,-0.013620348,-0.08172209,2017-06-08 20:04:59,50.47062896266218
-0.019153614,-0.02873042,-9.892841,0.0,-0.040861044,-0.013620348,-9.80665,0.013620348,0.0,-0.08172209,2017-06-08 20:05:00,53.66141090964243
-0.038307227,-0.009576807,-9.883265,0.0,-0.027240695,-0.013620348,-9.80665,0.0,0.013620348,-0.08172209,2017-06-08 20:05:01,51.52267030552516
-0.02873042,0.0,-9.873688,0.0,-0.027240695,-0.027240695,-9.80665,0.0,0.013620348,-0.068101734,2017-06-08 20:05:02,50.70492246212615
-0.038307227,-0.019153614,-9.883265,0.0,-0.027240695,-0.027240695,-9.80665,0.0,0.027240695,-0.08172209,2017-06-08 20:05:03,50.867795607331104
-0.047884032,-0.019153614,-9.873688,0.0,-0.027240695,-0.027240695,-9.80665,0.0,0.013620348,-0.068101734,2017-06-08 20:05:04,50.058729016383495
-0.038307227,-0.009576807,-9.892841,0.0,-0.013620348,-0.040861044,-9.80665,-0.013620348,0.040861044,-0.08172209,2017-06-08 20:05:05,50.84796524878588
-0.038307227,-0.019153614,-9.873688,0.0,-0.013620348,-0.040861044,-9.80665,-0.013620348,0.027240695,-0.068101734,2017-06-08 20:05:06,50.9328628632493
-0.02873042,-0.019153614,-9.892841,0.0,-0.040861044,-0.013620348,-9.80665,0.013620348,0.0,-0.08172209,2017-06-08 20:05:07,53.881767223060486
-0.038307227,-0.019153614,-9.883265,0.0,-0.027240695,-0.013620348,-9.80665,0.013620348,0.0,-0.08172209,2017-06-08 20:05:08,51.16319296231733
-0.038307227,0.0,-9.892841,0.0,-0.027240695,-0.013620348,-9.80665,0.0,0.0,-0.068101734,2017-06-08 20:05:09,51.94958958200483
-0.038307227,-0.009576807,-9.864111,0.0,-0.027240695,-0.013620348,-9.80665,0.0,0.013620348,-0.08172209,2017-06-08 20:05:10,53.080568455139854
-0.038307227,-0.019153614,-9.873688,0.0,-0.040861044,0.0,-9.80665,0.013620348,-0.013620348,-0.068101734,2017-06-08 20:05:11,53.19536885423347
-0.02873042,-0.009576807,-9.883265,0.0,-0.027240695,-0.013620348,-9.80665,-0.013620348,0.013620348,-0.05448139,2017-06-08 20:05:12,53.99034372665952
-0.02873042,-0.009576807,-9.892841,0.0,-0.027240695,-0.013620348,-9.80665,-0.013620348,0.013620348,-0.068101734,2017-06-08 20:05:13,53.958236327228015
-0.047884032,-0.38307226,-9.883265,0.0,-0.027240695,-0.013620348,-9.80665,-0.013620348,0.29964766,-0.10896278,2017-06-08 20:05:15,51.71981028947079
-0.019153614,-0.009576807,-9.864111,0.0,-0.027240695,-0.013620348,-9.80665,0.05448139,-0.040861044,-0.08172209,2017-06-08 20:05:16,54.55443770860671
-0.10534488,0.12449849,-9.873688,0.0,-0.040861044,-0.027240695,-9.80665,-0.17706451,0.19068487,-0.068101734,2017-06-08 20:05:17,53.198790784030194
-0.06703765,0.019153614,-9.883265,0.0,-0.040861044,-0.013620348,-9.80665,-0.013620348,0.027240695,-0.08172209,2017-06-08 20:05:18,53.54026271530421
-0.02873042,0.06703765,-9.864111,0.0,-0.040861044,-0.027240695,-9.80665,0.068101734,0.7627395,-0.068101734,2017-06-08 20:05:19,51.64360078472931
-0.019153614,0.0,-9.883265,0.0,-0.05448139,0.0,-9.80665,0.10896278,0.0,-0.068101734,2017-06-08 20:05:20,53.54710005398799
-0.22026655,-0.30645782,-9.911995,0.0,-0.040861044,0.05448139,-9.80665,-0.46309182,-2.2201166,-0.12258312,2017-06-08 20:05:21,52.12827579617897
-0.095768064,0.0,-9.873688,0.0,-0.05448139,-0.027240695,-9.79303,-0.040861044,0.040861044,-0.068101734,2017-06-08 20:05:22,57.772932497266595
-0.06703765,0.009576807,-9.873688,0.0,-0.095342435,0.0,-9.79303,0.040861044,0.0,-0.10896278,2017-06-08 20:05:23,50.36457150680283
-0.05746084,0.02873042,-9.864111,0.0,-0.08172209,0.0,-9.79303,0.05448139,0.027240695,-0.068101734,2017-06-08 20:05:24,53.63548681793971
-0.1340753,0.095768064,-9.883265,0.0,-0.08172209,-0.013620348,-9.79303,0.10896278,-0.08172209,-0.095342435,2017-06-08 20:05:25,54.176650871207045
-0.038307227,0.02873042,-9.883265,0.0,-0.05448139,0.013620348,-9.80665,0.027240695,0.013620348,-0.068101734,2017-06-08 20:05:26,57.001283420637556
-0.22984336,0.15322891,-9.873688,0.0,-0.040861044,0.013620348,-9.80665,0.013620348,0.013620348,-0.068101734,2017-06-08 20:05:27,53.421227598679025
-0.18195933,-0.2777274,-9.902418,0.0,-0.05448139,0.013620348,-9.80665,0.05448139,-0.10896278,-0.08172209,2017-06-08 20:05:28,52.417944902191024
0.23942018,-0.51714754,-9.892841,0.0,-0.08172209,-0.027240695,-9.79303,-0.3405087,0.8036005,-0.095342435,2017-06-08 20:05:29,53.00790314343149
-0.02873042,0.019153614,-9.864111,0.0,-0.095342435,0.027240695,-9.79303,0.08172209,-0.013620348,-0.068101734,2017-06-08 20:05:30,52.79035322390616
-0.019153614,0.02873042,-9.873688,0.0,-0.05448139,0.027240695,-9.80665,0.040861044,0.0,-0.05448139,2017-06-08 20:05:31,52.067604614000345
-0.02873042,0.02873042,-9.864111,0.0,-0.027240695,0.027240695,-9.80665,0.0,0.0,-0.05448139,2017-06-08 20:05:32,52.75664992768511
-0.02873042,0.038307227,-9.873688,0.0,-0.027240695,0.027240695,-9.80665,0.0,0.0,-0.068101734,2017-06-08 20:05:34,51.23905225477778
-0.019153614,0.019153614,-9.864111,0.0,-0.013620348,0.027240695,-9.80665,-0.013620348,0.0,-0.08172209,2017-06-08 20:05:35,51.755513670050476
-0.02873042,0.038307227,-9.873688,0.0,-0.013620348,0.013620348,-9.80665,-0.013620348,0.013620348,-0.068101734,2017-06-08 20:05:36,50.941978726003725
-0.02873042,0.019153614,-9.883265,0.0,-0.027240695,0.027240695,-9.80665,0.0,-0.013620348,-0.08172209,2017-06-08 20:05:37,53.03524351627972
-0.019153614,0.02873042,-9.873688,0.0,-0.027240695,0.027240695,-9.80665,0.013620348,0.0,-0.068101734,2017-06-08 20:05:38,50.676254994620635
-0.02873042,0.038307227,-9.873688,0.0,-0.027240695,0.027240695,-9.80665,0.0,-0.013620348,-0.08172209,2017-06-08 20:05:39,51.26160737187459
-0.02873042,0.02873042,-9.864111,0.0,-0.027240695,0.027240695,-9.80665,0.0,0.0,-0.08172209,2017-06-08 20:05:40,52.28761599120536
-0.02873042,0.02873042,-9.892841,0.0,-0.027240695,0.027240695,-9.80665,0.0,0.0,-0.08172209,2017-06-08 20:05:41,51.008158186821376
-0.02873042,0.019153614,-9.873688,0.0,-0.027240695,0.027240695,-9.79303,0.0,-0.013620348,-0.095342435,2017-06-08 20:05:42,50.835977233121035
0.11492168,-0.29688102,-9.873688,0.0,-0.013620348,0.0,-9.80665,0.0,0.027240695,-0.068101734,2017-06-08 20:05:43,49.227859102886676
-0.038307227,0.019153614,-9.873688,0.0,-0.027240695,0.013620348,-9.79303,0.0,0.013620348,-0.08172209,2017-06-08 20:05:44,51.699828649558484
-0.019153614,0.009576807,-9.902418,0.0,-0.027240695,0.013620348,-9.80665,0.013620348,-0.013620348,-0.08172209,2017-06-08 20:05:45,51.36316412977371
-0.02873042,0.009576807,-9.892841,0.0,-0.027240695,0.013620348,-9.80665,0.0,-0.013620348,-0.08172209,2017-06-08 20:05:46,52.40479750145178
-0.019153614,0.0,-9.883265,0.0,-0.027240695,0.013620348,-9.80665,0.013620348,0.0,-0.08172209,2017-06-08 20:05:47,52.17841538807424
-0.019153614,0.009576807,-9.873688,0.0,-0.027240695,0.013620348,-9.80665,0.0,0.0,-0.095342435,2017-06-08 20:05:48,52.098757253840006
-0.02873042,0.0,-9.892841,0.0,-0.027240695,0.013620348,-9.80665,0.0,-0.013620348,-0.08172209,2017-06-08 20:05:49,54.22776508092747
-0.02873042,0.009576807,-9.883265,0.0,-0.027240695,0.013620348,-9.80665,0.0,-0.013620348,-0.08172209,2017-06-08 20:05:50,51.742563302307936
-0.009576807,0.009576807,-9.892841,0.0,-0.027240695,0.0,-9.80665,0.0,0.0,-0.08172209,2017-06-08 20:05:51,53.54239521409465
-0.02873042,0.0,-9.883265,0.0,-0.027240695,0.0,-9.80665,0.0,0.0,-0.08172209,2017-06-08 20:05:53,52.23656934137085
-0.02873042,0.009576807,-9.892841,0.0,-0.027240695,0.0,-9.80665,0.0,0.0,-0.08172209,2017-06-08 20:05:54,53.79555233271976
-0.019153614,0.0,-9.892841,0.0,-0.027240695,0.0,-9.80665,0.013620348,0.0,-0.08172209,2017-06-08 20:05:55,53.590106809513415
-0.019153614,0.019153614,-9.873688,0.0,-0.027240695,0.0,-9.80665,0.013620348,0.013620348,-0.068101734,2017-06-08 20:05:56,52.95161934857979
-0.019153614,0.009576807,-9.892841,0.0,-0.027240695,0.0,-9.80665,0.013620348,0.0,-0.08172209,2017-06-08 20:05:57,53.421330844513136
-0.02873042,0.0,-9.892841,0.0,-0.027240695,0.0,-9.80665,0.0,0.0,-0.08172209,2017-06-08 20:05:58,53.064937619469184
-0.019153614,0.009576807,-9.873688,0.0,-0.027240695,0.0,-9.80665,0.013620348,0.0,-0.095342435,2017-06-08 20:05:59,54.07915756311936
-0.02873042,0.009576807,-9.883265,0.0,-0.040861044,0.0,-9.80665,0.013620348,0.0,-0.08172209,2017-06-08 20:06:00,51.062157124710254
-0.019153614,0.0,-9.873688,0.0,-0.027240695,0.0,-9.80665,0.013620348,0.013620348,-0.068101734,2017-06-08 20:06:01,53.88065019037117
-0.02873042,0.009576807,-9.883265,0.0,-0.027240695,0.0,-9.80665,0.013620348,0.0,-0.08172209,2017-06-08 20:06:02,53.863746343040845
-0.02873042,0.0,-9.892841,0.0,-0.027240695,0.0,-9.80665,0.0,0.0,-0.08172209,2017-06-08 20:06:03,55.53860365479465
-0.038307227,0.009576807,-9.883265,0.0,-0.040861044,0.0,-9.80665,0.013620348,0.0,-0.068101734,2017-06-08 20:06:04,53.554163532061196
-0.02873042,0.019153614,-9.883265,0.0,-0.027240695,0.0,-9.80665,0.0,0.013620348,-0.08172209,2017-06-08 20:06:05,53.17001710046459
-0.019153614,0.009576807,-9.864111,0.0,-0.027240695,0.0,-9.80665,0.013620348,0.013620348,-0.05448139,2017-06-08 20:06:06,52.90056812708454
-0.02873042,0.009576807,-9.873688,0.0,-0.027240695,0.0,-9.80665,0.0,0.0,-0.068101734,2017-06-08 20:06:07,52.684001944593355
-0.019153614,0.009576807,-9.873688,0.0,-0.040861044,0.0,-9.80665,0.013620348,0.0,-0.068101734,2017-06-08 20:06:08,52.87009690426919
-0.019153614,0.019153614,-9.883265,0.0,-0.027240695,0.0,-9.80665,0.013620348,0.013620348,-0.05448139,2017-06-08 20:06:09,53.54727464922512
-0.02873042,0.009576807,-9.873688,0.0,-0.027240695,0.0,-9.80665,0.0,0.0,-0.05448139,2017-06-08 20:06:10,52.79469435861291
-0.038307227,0.009576807,-9.873688,0.0,-0.040861044,0.013620348,-9.80665,0.013620348,-0.013620348,-0.05448139,2017-06-08 20:06:12,51.933033078630416
-0.038307227,0.02873042,-9.864111,0.0,-0.027240695,0.0,-9.79303,0.0,0.0,-0.068101734,2017-06-08 20:06:13,52.129545564483884
-0.038307227,0.019153614,-9.864111,0.0,-0.027240695,0.0,-9.80665,0.0,0.013620348,-0.05448139,2017-06-08 20:06:14,52.53299170495605
-0.019153614,0.009576807,-9.873688,0.0,-0.027240695,0.0,-9.80665,0.0,0.0,-0.068101734,2017-06-08 20:06:15,52.47320068507378
-0.02873042,0.009576807,-9.883265,0.0,-0.027240695,0.013620348,-9.80665,0.0,-0.013620348,-0.08172209,2017-06-08 20:06:16,53.31241840265158
-0.019153614,0.019153614,-9.883265,0.0,-0.027240695,0.0,-9.80665,0.013620348,0.013620348,-0.068101734,2017-06-08 20:06:17,52.71344917641537
-0.02873042,0.009576807,-9.892841,0.0,-0.027240695,0.0,-9.80665,0.0,0.0,-0.08172209,2017-06-08 20:06:18,53.459656322732116
-0.038307227,0.019153614,-9.883265,0.0,-0.027240695,0.0,-9.80665,0.0,0.013620348,-0.068101734,2017-06-08 20:06:19,52.389337222589916
-0.02873042,0.009576807,-9.883265,0.0,-0.027240695,0.0,-9.80665,0.0,0.0,-0.095342435,2017-06-08 20:06:20,52.48350928338329
-0.02873042,0.009576807,-9.873688,0.0,-0.027240695,0.0,-9.80665,0.013620348,0.0,-0.095342435,2017-06-08 20:06:21,52.49817080454817
-0.02873042,0.019153614,-9.892841,0.0,-0.027240695,0.0,-9.80665,0.0,0.0,-0.095342435,2017-06-08 20:06:22,53.39885435016895
-0.02873042,0.009576807,-9.892841,0.0,-0.027240695,0.0,-9.80665,0.0,0.013620348,-0.08172209,2017-06-08 20:06:23,55.56769154232938
-0.02873042,0.009576807,-9.873688,0.0,-0.013620348,0.0,-9.80665,-0.013620348,0.013620348,-0.08172209,2017-06-08 20:06:24,52.93122466066411
-0.038307227,0.009576807,-9.883265,0.0,-0.027240695,0.013620348,-9.80665,0.0,-0.013620348,-0.05448139,2017-06-08 20:06:25,54.26762608219548
-0.02873042,0.02873042,-9.883265,0.0,-0.040861044,0.013620348,-9.80665,0.013620348,0.013620348,-0.08172209,2017-06-08 20:06:26,52.02187034022345
-0.019153614,0.019153614,-9.883265,0.0,-0.040861044,0.013620348,-9.80665,0.013620348,0.0,-0.05448139,2017-06-08 20:06:27,52.66729344434097
-0.038307227,0.009576807,-9.873688,0.0,-0.027240695,0.013620348,-9.80665,0.0,-0.013620348,-0.068101734,2017-06-08 20:06:28,52.699445724771444
-0.019153614,0.019153614,-9.873688,0.0,-0.027240695,0.013620348,-9.80665,0.013620348,0.0,-0.068101734,2017-06-08 20:06:30,55.1179717002742
-0.019153614,0.009576807,-9.892841,0.0,-0.027240695,0.013620348,-9.80665,0.013620348,-0.013620348,-0.068101734,2017-06-08 20:06:31,54.108547063942254
-0.038307227,0.009576807,-9.873688,0.0,-0.027240695,0.0,-9.80665,0.013620348,0.0,-0.068101734,2017-06-08 20:06:32,54.08273357838377
-0.019153614,0.009576807,-9.892841,0.0,-0.040861044,0.0,-9.80665,0.027240695,0.0,-0.08172209,2017-06-08 20:06:33,54.850988775963174
-0.019153614,0.009576807,-9.883265,0.0,-0.027240695,0.0,-9.80665,0.013620348,0.013620348,-0.08172209,2017-06-08 20:06:34,52.55088373469487
-0.019153614,0.009576807,-9.883265,0.0,-0.027240695,0.0,-9.80665,0.013620348,0.0,-0.08172209,2017-06-08 20:06:35,54.52133648352776
-0.019153614,0.019153614,-9.883265,0.0,-0.013620348,-0.013620348,-9.80665,0.0,0.013620348,-0.095342435,2017-06-08 20:06:36,54.46166940146831
-0.019153614,0.0,-9.883265,0.0,-0.013620348,0.0,-9.80665,0.0,0.0,-0.095342435,2017-06-08 20:06:37,54.582090406724184
-0.019153614,0.0,-9.911995,0.0,-0.027240695,0.0,-9.80665,0.013620348,0.0,-0.08172209,2017-06-08 20:06:38,54.877032649311424
-0.019153614,0.0,-9.892841,0.0,-0.027240695,0.0,-9.80665,0.0,0.0,-0.08172209,2017-06-08 20:06:39,53.30890103933841
-0.019153614,0.009576807,-9.883265,0.0,-0.027240695,-0.013620348,-9.80665,0.013620348,0.013620348,-0.08172209,2017-06-08 20:06:40,52.8651184423662
-0.02873042,0.009576807,-9.892841,0.0,-0.013620348,-0.013620348,-9.80665,-0.013620348,0.027240695,-0.068101734,2017-06-08 20:06:41,52.73674232569555
-0.019153614,0.0,-9.883265,0.0,-0.013620348,-0.013620348,-9.80665,0.013620348,0.013620348,-0.08172209,2017-06-08 20:06:42,53.792934532177696
-0.009576807,0.0,-9.892841,0.0,-0.013620348,0.0,-9.80665,0.013620348,0.0,-0.08172209,2017-06-08 20:06:43,53.21234113389799
-0.019153614,0.019153614,-9.883265,0.0,0.0,0.0,-9.80665,0.0,0.0,-0.095342435,2017-06-08 20:06:44,55.85354832643
-0.02873042,0.009576807,-9.864111,0.0,0.0,-0.013620348,-9.80665,-0.027240695,0.013620348,-0.08172209,2017-06-08 20:06:45,54.368553349160045
-0.019153614,0.0,-9.873688,0.0,-0.027240695,0.0,-9.80665,0.027240695,0.0,-0.08172209,2017-06-08 20:06:46,52.69481261163058
-0.019153614,0.0,-9.883265,0.0,-0.013620348,0.0,-9.80665,0.0,0.0,-0.08172209,2017-06-08 20:06:47,51.38814523411611
-0.019153614,0.009576807,-9.902418,0.0,-0.013620348,0.0,-9.80665,0.0,0.0,-0.095342435,2017-06-08 20:06:49,54.52173068883914
-0.02873042,0.009576807,-9.892841,0.0,-0.013620348,0.0,-9.80665,-0.013620348,0.0,-0.08172209,2017-06-08 20:06:50,51.00018027909716
-0.019153614,0.009576807,-9.873688,0.0,-0.013620348,0.0,-9.80665,0.0,0.013620348,-0.068101734,2017-06-08 20:06:51,53.76778384543314
-0.02873042,0.009576807,-9.873688,0.0,0.0,0.0,-9.80665,-0.013620348,0.0,-0.08172209,2017-06-08 20:06:52,51.96305019352876
-0.019153614,0.009576807,-9.883265,0.0,-0.040861044,0.0,-9.80665,0.027240695,0.013620348,-0.08172209,2017-06-08 20:06:53,54.056685245601024
-0.02873042,0.009576807,-9.864111,0.0,-0.040861044,0.0,-9.80665,0.013620348,0.0,-0.08172209,2017-06-08 20:06:54,52.67788787621126
-0.019153614,0.0,-9.873688,0.0,-0.040861044,0.0,-9.80665,0.027240695,0.0,-0.068101734,2017-06-08 20:06:55,51.53215972850135
-0.019153614,0.009576807,-9.883265,0.0,-0.027240695,0.0,-9.80665,0.013620348,0.0,-0.068101734,2017-06-08 20:06:56,52.30544671159013
-0.02873042,0.0,-9.892841,0.0,-0.027240695,0.0,-9.79303,0.013620348,0.0,-0.095342435,2017-06-08 20:06:57,51.206250739780536
-0.019153614,0.009576807,-9.873688,0.0,-0.027240695,0.0,-9.80665,0.013620348,0.0,-0.08172209,2017-06-08 20:06:58,51.191086433162
-0.02873042,0.019153614,-9.864111,0.0,-0.027240695,0.0,-9.80665,0.0,0.013620348,-0.08172209,2017-06-08 20:06:59,50.47161008393875
-0.019153614,0.009576807,-9.873688,0.0,-0.027240695,0.0,-9.80665,0.013620348,0.0,-0.068101734,2017-06-08 20:07:00,52.461187109412776
-0.019153614,0.009576807,-9.883265,0.0,-0.013620348,0.0,-9.80665,0.0,0.013620348,-0.08172209,2017-06-08 20:07:01,51.969050887430626
-0.019153614,0.009576807,-9.873688,0.0,-0.013620348,0.0,-9.80665,0.0,0.0,-0.068101734,2017-06-08 20:07:02,51.507985772331544
-0.02873042,0.019153614,-9.864111,0.0,-0.013620348,0.0,-9.80665,-0.013620348,0.013620348,-0.08172209,2017-06-08 20:07:03,53.74763483634773
-0.02873042,0.0,-9.892841,0.0,0.0,0.0,-9.80665,-0.027240695,0.0,-0.068101734,2017-06-08 20:07:04,51.79628632337448
-0.02873042,0.009576807,-9.883265,0.0,0.0,0.0,-9.80665,-0.027240695,0.013620348,-0.08172209,2017-06-08 20:07:05,53.50858567021204
-0.02873042,0.019153614,-9.883265,0.0,0.013620348,-0.013620348,-9.80665,-0.040861044,0.013620348,-0.08172209,2017-06-08 20:07:06,52.13652386507931
-0.02873042,0.009576807,-9.864111,0.0,0.0,0.0,-9.80665,-0.013620348,0.0,-0.08172209,2017-06-08 20:07:08,54.020872562016955
-0.009576807,0.0,-9.883265,0.0,-0.027240695,0.0,-9.80665,0.0,0.0,-0.08172209,2017-06-08 20:07:09,50.41449898453663
-0.019153614,0.009576807,-9.873688,0.0,-0.013620348,0.0,-9.80665,0.0,0.0,-0.068101734,2017-06-08 20:07:10,53.303646619375186
-0.02873042,0.009576807,-9.892841,0.0,-0.013620348,0.0,-9.80665,-0.013620348,0.013620348,-0.08172209,2017-06-08 20:07:11,53.72052956511028
-0.02873042,0.0,-9.873688,0.0,-0.013620348,0.0,-9.80665,-0.013620348,0.0,-0.08172209,2017-06-08 20:07:12,51.845451733152885
-0.019153614,0.0,-9.892841,0.0,-0.027240695,0.027240695,-9.79303,0.013620348,-0.027240695,-0.095342435,2017-06-08 20:07:13,54.47079005338074
-0.019153614,0.019153614,-9.873688,0.0,-0.027240695,0.013620348,-9.79303,0.0,0.0,-0.08172209,2017-06-08 20:07:14,54.125391853075165
-0.019153614,0.0,-9.883265,0.0,-0.027240695,0.013620348,-9.79303,0.013620348,-0.013620348,-0.08172209,2017-06-08 20:07:15,53.04256608734907
-0.019153614,0.0,-9.883265,0.0,-0.027240695,0.0,-9.80665,0.013620348,0.0,-0.08172209,2017-06-08 20:07:16,52.86217316687395
-0.019153614,0.009576807,-9.883265,0.0,-0.013620348,0.013620348,-9.80665,0.0,-0.013620348,-0.08172209,2017-06-08 20:07:17,52.24164609029398
-0.019153614,0.0,-9.892841,0.0,-0.013620348,0.0,-9.80665,0.0,0.0,-0.08172209,2017-06-08 20:07:18,53.41645113137925
-0.02873042,0.009576807,-9.873688,0.0,-0.027240695,0.0,-9.80665,0.0,0.013620348,-0.068101734,2017-06-08 20:07:19,54.856343614923624
-0.019153614,0.019153614,-9.873688,0.0,-0.013620348,0.0,-9.80665,0.0,0.0,-0.068101734,2017-06-08 20:07:20,52.66739419643059
-0.019153614,0.0,-9.883265,0.0,-0.013620348,0.0,-9.80665,0.0,0.0,-0.068101734,2017-06-08 20:07:21,55.19472146416987
-0.019153614,0.009576807,-9.883265,0.0,0.0,0.0,-9.80665,-0.013620348,0.0,-0.08172209,2017-06-08 20:07:22,52.44758834584508
-0.02873042,0.009576807,-9.892841,0.0,0.0,0.0,-9.80665,-0.027240695,0.0,-0.08172209,2017-06-08 20:07:23,54.08689009453632
-0.02873042,0.009576807,-9.873688,0.0,0.0,0.0,-9.80665,-0.027240695,0.0,-0.08172209,2017-06-08 20:07:24,52.67545882078802
-0.02873042,0.019153614,-9.883265,0.0,-0.027240695,0.0,-9.80665,0.0,0.027240695,-0.08172209,2017-06-08 20:07:25,54.96759326550814
-0.019153614,0.019153614,-9.892841,0.0,-0.040861044,0.013620348,-9.80665,0.027240695,0.0,-0.08172209,2017-06-08 20:07:27,54.17466290438381
-0.019153614,0.019153614,-9.883265,0.0,-0.040861044,0.0,-9.80665,0.027240695,0.0,-0.08172209,2017-06-08 20:07:28,54.97296151944547
-0.02873042,0.0,-9.873688,0.0,-0.027240695,0.0,-9.80665,0.0,0.0,-0.068101734,2017-06-08 20:07:29,52.81204599846276
-0.019153614,0.0,-9.892841,0.0,-0.027240695,0.0,-9.80665,0.0,0.0,-0.08172209,2017-06-08 20:07:30,53.22409018002561
-0.019153614,0.019153614,-9.883265,0.0,-0.040861044,0.0,-9.80665,0.013620348,0.013620348,-0.08172209,2017-06-08 20:07:31,53.69694431135181
-0.02873042,0.0,-9.883265,0.0,-0.027240695,0.0,-9.80665,0.0,0.0,-0.08172209,2017-06-08 20:07:32,53.6794348390682
-0.019153614,0.0,-9.873688,0.0,-0.027240695,0.0,-9.80665,0.0,0.0,-0.068101734,2017-06-08 20:07:33,52.578496983160896
-0.009576807,0.0,-9.892841,0.0,-0.027240695,0.0,-9.80665,0.0,0.0,-0.08172209,2017-06-08 20:07:34,54.9228382634865
-0.02873042,0.0,-9.883265,0.0,-0.027240695,0.0,-9.80665,0.0,0.0,-0.08172209,2017-06-08 20:07:35,52.41702095395347
-0.02873042,0.009576807,-9.892841,0.0,-0.013620348,0.0,-9.80665,-0.013620348,0.0,-0.08172209,2017-06-08 20:07:36,53.94789181324597
-0.02873042,0.019153614,-9.883265,0.0,-0.013620348,0.0,-9.80665,0.0,0.013620348,-0.068101734,2017-06-08 20:07:37,52.35406548811469
-0.019153614,0.019153614,-9.873688,0.0,0.0,-0.013620348,-9.80665,-0.013620348,0.027240695,-0.05448139,2017-06-08 20:07:38,54.00288811075373
-0.038307227,0.019153614,-9.873688,0.0,0.0,-0.013620348,-9.80665,-0.013620348,0.027240695,-0.068101734,2017-06-08 20:07:39,53.10662136127671
-0.02873042,0.019153614,-9.873688,0.0,0.013620348,-0.013620348,-9.80665,-0.027240695,0.027240695,-0.05448139,2017-06-08 20:07:40,52.46561306921539
-0.038307227,0.019153614,-9.883265,0.0,-0.040861044,0.013620348,-9.80665,0.013620348,0.0,-0.08172209,2017-06-08 20:07:41,52.84663346922038
-0.038307227,0.019153614,-9.873688,0.0,-0.040861044,0.013620348,-9.79303,0.013620348,0.0,-0.08172209,2017-06-08 20:07:42,50.57983764012184
-0.019153614,0.009576807,-9.883265,0.0,-0.040861044,0.0,-9.80665,0.027240695,0.0,-0.08172209,2017-06-08 20:07:43,52.249846594094066
-0.02873042,0.019153614,-9.873688,0.0,-0.040861044,0.0,-9.79303,0.013620348,0.013620348,-0.08172209,2017-06-08 20:07:44,51.97716774773566
-0.019153614,0.0,-9.883265,0.0,-0.040861044,0.0,-9.80665,0.013620348,0.0,-0.08172209,2017-06-08 20:07:46,53.41282009366392
-0.02873042,0.019153614,-9.883265,0.0,-0.027240695,0.0,-9.80665,0.0,0.013620348,-0.08172209,2017-06-08 20:07:47,50.87519046570507
-0.019153614,0.0,-9.892841,0.0,-0.027240695,0.0,-9.80665,0.013620348,0.0,-0.08172209,2017-06-08 20:07:48,52.05071422991266
-0.019153614,0.019153614,-9.883265,0.0,-0.027240695,0.0,-9.80665,0.0,0.013620348,-0.08172209,2017-06-08 20:07:49,51.15705799531477
-0.02873042,0.009576807,-9.892841,0.0,-0.027240695,0.0,-9.80665,0.013620348,0.0,-0.05448139,2017-06-08 20:07:50,50.47802978349874
-0.019153614,0.009576807,-9.883265,0.0,-0.027240695,0.0,-9.80665,0.013620348,0.0,-0.068101734,2017-06-08 20:07:51,51.4037079690717
-0.02873042,0.009576807,-9.883265,0.0,-0.027240695,0.0,-9.80665,0.0,0.013620348,-0.068101734,2017-06-08 20:07:52,51.331794488261394
-0.02873042,0.009576807,-9.883265,0.0,-0.013620348,0.0,-9.80665,-0.013620348,0.0,-0.08172209,2017-06-08 20:07:53,49.80788392185737
-0.02873042,0.019153614,-9.873688,0.0,-0.027240695,0.0,-9.80665,0.0,0.0,-0.08172209,2017-06-08 20:07:54,50.7065667633846
-0.019153614,0.009576807,-9.883265,0.0,-0.013620348,0.0,-9.80665,0.0,0.0,-0.08172209,2017-06-08 20:07:55,49.89472976547782
-0.02873042,0.0,-9.902418,0.0,-0.013620348,0.0,-9.80665,0.0,0.0,-0.095342435,2017-06-08 20:07:56,51.90953860729759
-0.019153614,0.009576807,-9.873688,0.0,-0.027240695,0.0,-9.80665,0.013620348,0.0,-0.08172209,2017-06-08 20:07:57,51.500522364078876
-0.02873042,0.009576807,-9.883265,0.0,-0.013620348,0.0,-9.80665,-0.013620348,0.0,-0.08172209,2017-06-08 20:07:58,49.92537819658484
-0.02873042,0.0,-9.883265,0.0,0.0,0.0,-9.80665,-0.027240695,0.0,-0.08172209,2017-06-08 20:07:59,52.541206716599966
-0.02873042,0.009576807,-9.883265,0.0,0.0,0.0,-9.80665,-0.027240695,0.013620348,-0.068101734,2017-06-08 20:08:00,52.824626638938184
-0.02873042,0.009576807,-9.873688,0.0,0.013620348,-0.013620348,-9.80665,-0.040861044,0.013620348,-0.068101734,2017-06-08 20:08:01,50.781174325652934
-0.038307227,0.009576807,-9.873688,0.0,0.013620348,-0.013620348,-9.80665,-0.027240695,0.013620348,-0.08172209,2017-06-08 20:08:02,52.62880847844993
-0.02873042,0.019153614,-9.883265,0.0,-0.040861044,0.0,-9.80665,0.027240695,0.013620348,-0.08172209,2017-06-08 20:08:03,49.54924396746072
-0.038307227,0.009576807,-9.883265,0.0,-0.040861044,0.0,-9.80665,0.013620348,0.013620348,-0.08172209,2017-06-08 20:08:05,54.17837979854695
-0.02873042,0.019153614,-9.873688,0.0,-0.027240695,0.0,-9.80665,0.0,0.0,-0.08172209,2017-06-08 20:08:06,51.66977798702917
-0.019153614,0.009576807,-9.892841,0.0,-0.013620348,0.0,-9.80665,-0.013620348,0.0,-0.10896278,2017-06-08 20:08:07,53.251675533856925
-0.02873042,0.009576807,-9.883265,0.0,-0.027240695,0.0,-9.80665,0.0,0.0,-0.08172209,2017-06-08 20:08:08,53.86331003460529
-0.019153614,0.0,-9.883265,0.0,-0.027240695,0.0,-9.80665,0.013620348,0.0,-0.08172209,2017-06-08 20:08:09,53.781568625295606
-0.009576807,0.009576807,-9.883265,0.0,-0.027240695,-0.013620348,-9.80665,0.0,0.013620348,-0.095342435,2017-06-08 20:08:10,54.83654160870222
-0.02873042,0.0,-9.883265,0.0,-0.013620348,-0.013620348,-9.80665,-0.013620348,0.013620348,-0.08172209,2017-06-08 20:08:11,52.6810322939744
-0.038307227,0.019153614,-9.873688,0.0,-0.013620348,-0.013620348,-9.80665,-0.013620348,0.027240695,-0.068101734,2017-06-08 20:08:12,53.413794212067344
-0.019153614,0.0,-9.873688,0.0,0.0,-0.027240695,-9.80665,-0.013620348,0.027240695,-0.08172209,2017-06-08 20:08:13,52.0926914215459
-0.02873042,0.009576807,-9.883265,0.0,-0.027240695,0.0,-9.80665,0.0,0.0,-0.08172209,2017-06-08 20:08:14,54.459093523353644
-0.02873042,-0.009576807,-9.883265,0.0,-0.027240695,0.0,-9.80665,0.0,0.0,-0.08172209,2017-06-08 20:08:15,52.35424610970835
-0.02873042,0.0,-9.883265,0.0,-0.027240695,0.0,-9.80665,0.0,0.0,-0.095342435,2017-06-08 20:08:16,53.22241626073199
-0.019153614,-0.009576807,-9.883265,0.0,-0.027240695,0.0,-9.80665,0.013620348,0.0,-0.095342435,2017-06-08 20:08:17,52.92732740764666
-0.02873042,0.009576807,-9.883265,0.0,-0.027240695,0.0,-9.80665,0.0,0.0,-0.08172209,2017-06-08 20:08:18,54.72079159610334
-0.019153614,0.0,-9.873688,0.0,-0.027240695,0.0,-9.80665,0.0,0.0,-0.068101734,2017-06-08 20:08:19,53.31799738537023
-0.02873042,0.009576807,-9.873688,0.0,-0.027240695,0.0,-9.80665,0.0,0.0,-0.068101734,2017-06-08 20:08:20,51.540156172301764
-0.02873042,0.009576807,-9.873688,0.0,-0.027240695,0.0,-9.80665,0.0,0.0,-0.08172209,2017-06-08 20:08:21,51.825664559792145
-0.02873042,0.019153614,-9.883265,0.0,-0.027240695,0.0,-9.80665,0.0,0.0,-0.08172209,2017-06-08 20:08:22,54.487753996895954
-0.02873042,0.0,-9.892841,0.0,-0.013620348,0.0,-9.80665,-0.013620348,0.0,-0.08172209,2017-06-08 20:08:24,52.97832968374132
-0.038307227,0.009576807,-9.883265,0.0,-0.013620348,0.0,-9.80665,-0.013620348,0.0,-0.08172209,2017-06-08 20:08:25,54.87265110938399
-0.038307227,0.019153614,-9.873688,0.0,-0.013620348,0.0,-9.80665,-0.013620348,0.0,-0.08172209,2017-06-08 20:08:26,49.715043108775646
-0.019153614,0.019153614,-9.892841,0.0,0.0,0.0,-9.80665,-0.027240695,0.013620348,-0.08172209,2017-06-08 20:08:27,54.746292599492286
-0.038307227,0.0,-9.873688,0.0,0.0,-0.013620348,-9.80665,-0.027240695,0.013620348,-0.08172209,2017-06-08 20:08:28,51.261101609880264
-0.02873042,0.019153614,-9.873688,0.0,0.0,0.0,-9.80665,-0.027240695,0.013620348,-0.068101734,2017-06-08 20:08:29,53.776663126298025
-0.038307227,0.009576807,-9.883265,0.0,0.0,0.0,-9.80665,-0.027240695,0.0,-0.08172209,2017-06-08 20:08:30,52.86371101383079
-0.02873042,-0.009576807,-9.892841,0.0,0.013620348,-0.013620348,-9.80665,-0.040861044,0.013620348,-0.068101734,2017-06-08 20:08:31,53.7544452571522
-0.02873042,0.009576807,-9.873688,0.0,0.013620348,-0.013620348,-9.80665,-0.040861044,0.013620348,-0.068101734,2017-06-08 20:08:32,52.32150043543942
-0.019153614,0.009576807,-9.873688,0.0,-0.027240695,0.0,-9.80665,0.0,0.0,-0.068101734,2017-06-08 20:08:33,53.080413981380836
-0.038307227,0.009576807,-9.883265,0.0,-0.027240695,0.0,-9.80665,0.013620348,0.0,-0.08172209,2017-06-08 20:08:34,52.683534579356774
-0.02873042,0.019153614,-9.873688,0.0,-0.027240695,0.0,-9.80665,0.0,0.013620348,-0.068101734,2017-06-08 20:08:35,52.763071418070446
-0.02873042,0.009576807,-9.883265,0.0,-0.027240695,0.0,-9.80665,0.0,0.0,-0.068101734,2017-06-08 20:08:36,53.833505669404445
-0.038307227,0.019153614,-9.873688,0.0,-0.027240695,0.0,-9.80665,0.0,0.013620348,-0.068101734,2017-06-08 20:08:37,54.520540992171
-0.02873042,0.009576807,-9.883265,0.0,-0.027240695,0.0,-9.80665,0.0,0.0,-0.08172209,2017-06-08 20:08:38,53.879292444915606
-0.02873042,0.009576807,-9.873688,0.0,-0.027240695,0.0,-9.80665,0.0,0.0,-0.08172209,2017-06-08 20:08:39,51.44378565642833
-0.019153614,0.0,-9.873688,0.0,-0.027240695,0.0,-9.80665,0.013620348,0.0,-0.08172209,2017-06-08 20:08:40,54.367342682395865
-0.019153614,0.019153614,-9.873688,0.0,-0.027240695,0.0,-9.80665,0.013620348,0.0,-0.08172209,2017-06-08 20:08:42,52.40855330486368
-0.02873042,0.0,-9.883265,0.0,-0.027240695,0.0,-9.80665,0.0,0.0,-0.095342435,2017-06-08 20:08:43,52.762341707718804
-0.038307227,0.009576807,-9.883265,0.0,-0.027240695,0.0,-9.80665,0.013620348,0.0,-0.095342435,2017-06-08 20:08:44,52.83072630268801
-0.019153614,0.009576807,-9.883265,0.0,-0.027240695,0.0,-9.80665,0.013620348,0.0,-0.08172209,2017-06-08 20:08:45,52.99487400344557
-0.02873042,0.009576807,-9.892841,0.0,-0.027240695,0.0,-9.80665,0.0,0.0,-0.068101734,2017-06-08 20:08:46,55.581875659042204
-0.019153614,0.019153614,-9.873688,0.0,-0.027240695,0.0,-9.80665,0.013620348,0.0,-0.068101734,2017-06-08 20:08:47,54.147569872461325
-0.02873042,0.009576807,-9.873688,0.0,-0.027240695,0.0,-9.80665,0.0,0.0,-0.068101734,2017-06-08 20:08:48,55.72653964980864
-0.019153614,0.009576807,-9.883265,0.0,-0.027240695,0.0,-9.80665,0.013620348,0.0,-0.08172209,2017-06-08 20:08:49,54.045223508558166
-0.02873042,0.009576807,-9.873688,0.0,-0.027240695,0.0,-9.80665,0.0,0.0,-0.08172209,2017-06-08 20:08:50,52.11910232642805
-0.038307227,0.02873042,-9.873688,0.0,-0.027240695,0.0,-9.80665,0.0,0.0,-0.068101734,2017-06-08 20:08:51,53.19920960133216
-0.02873042,0.0,-9.873688,0.0,-0.027240695,0.0,-9.80665,0.0,0.0,-0.08172209,2017-06-08 20:08:52,53.58028660189991
-0.02873042,0.0,-9.892841,0.0,-0.027240695,0.0,-9.80665,0.0,0.0,-0.08172209,2017-06-08 20:08:53,53.988538986270996
-0.02873042,0.009576807,-9.873688,0.0,-0.027240695,0.0,-9.80665,0.0,0.013620348,-0.068101734,2017-06-08 20:08:54,54.157215478915326
-0.019153614,0.009576807,-9.892841,0.0,-0.027240695,0.0,-9.80665,0.013620348,0.0,-0.068101734,2017-06-08 20:08:55,52.23063373999587
-0.02873042,0.019153614,-9.883265,0.0,-0.027240695,0.0,-9.80665,0.0,0.0,-0.08172209,2017-06-08 20:08:56,52.934425547739814
-0.02873042,0.009576807,-9.873688,0.0,-0.027240695,0.0,-9.80665,0.0,0.013620348,-0.068101734,2017-06-08 20:08:57,54.87576012506868
-0.02873042,0.009576807,-9.883265,0.0,-0.027240695,0.0,-9.80665,0.0,0.0,-0.08172209,2017-06-08 20:08:58,51.98045461721751
-0.019153614,0.0,-9.892841,0.0,-0.027240695,0.0,-9.80665,0.013620348,0.0,-0.08172209,2017-06-08 20:08:59,54.73899816565867
-0.02873042,0.009576807,-9.883265,0.0,-0.027240695,0.0,-9.80665,0.0,0.0,-0.068101734,2017-06-08 20:09:01,52.708826767515134
-0.019153614,0.009576807,-9.883265,0.0,-0.027240695,0.0,-9.80665,0.013620348,0.0,-0.08172209,2017-06-08 20:09:02,53.47991404902917
-0.019153614,0.0,-9.892841,0.0,-0.027240695,0.0,-9.80665,0.013620348,0.0,-0.08172209,2017-06-08 20:09:03,50.61394648238698
-0.009576807,0.0,-9.892841,0.0,-0.027240695,0.0,-9.80665,0.027240695,0.0,-0.08172209,2017-06-08 20:09:04,53.732391101776784
-0.009576807,0.0,-9.883265,0.0,-0.027240695,0.0,-9.80665,0.027240695,0.0,-0.08172209,2017-06-08 20:09:05,51.41505923302284
-0.019153614,-0.009576807,-9.902418,0.0,-0.013620348,0.0,-9.80665,0.0,0.0,-0.095342435,2017-06-08 20:09:06,51.938645866867546
-0.019153614,0.0,-9.892841,0.0,-0.013620348,0.0,-9.80665,0.0,0.0,-0.08172209,2017-06-08 20:09:07,52.202454266684086
-0.009576807,0.0,-9.873688,0.0,0.0,-0.013620348,-9.80665,-0.027240695,0.013620348,-0.068101734,2017-06-08 20:09:08,52.366101402969875
-0.009576807,-0.009576807,-9.883265,0.0,0.0,-0.013620348,-9.80665,0.0,0.013620348,-0.08172209,2017-06-08 20:09:09,51.152207613771964
-0.009576807,0.009576807,-9.883265,0.0,0.0,-0.013620348,-9.80665,0.0,0.013620348,-0.08172209,2017-06-08 20:09:10,52.07430074899339
-0.019153614,-0.009576807,-9.883265,0.0,0.0,-0.013620348,-9.80665,-0.013620348,0.013620348,-0.08172209,2017-06-08 20:09:11,50.02321176843216
-0.02873042,-0.009576807,-9.892841,0.0,-0.013620348,-0.027240695,-9.79303,-0.13620347,0.17706451,-0.095342435,2017-06-08 20:09:12,49.7908104481818
0.009576807,0.02873042,-9.892841,0.0,-0.013620348,-0.027240695,-9.79303,0.13620347,0.3405087,-0.095342435,2017-06-08 20:09:13,51.785684222277155
-0.009576807,-0.009576807,-9.902418,0.0,-0.013620348,-0.013620348,-9.80665,0.013620348,0.013620348,-0.095342435,2017-06-08 20:09:14,53.09562220438157
-0.019153614,-0.009576807,-9.902418,0.0,0.0,0.0,-9.80665,0.0,0.0,-0.08172209,2017-06-08 20:09:15,52.12217640124187
-0.009576807,-0.009576807,-9.892841,0.0,0.0,0.0,-9.80665,0.0,0.0,-0.08172209,2017-06-08 20:09:16,52.59234150746241
-0.009576807,-0.009576807,-9.892841,0.0,-0.013620348,0.0,-9.80665,0.013620348,0.0,-0.08172209,2017-06-08 20:09:17,53.43988376907156
0.0,-0.009576807,-9.902418,0.0,0.0,0.0,-9.80665,0.0,0.0,-0.095342435,2017-06-08 20:09:18,54.601863519470214
0.0,-0.009576807,-9.883265,0.0,0.0,0.0,-9.80665,0.0,0.0,-0.095342435,2017-06-08 20:09:20,54.990400359175936
-0.019153614,0.0,-9.892841,0.0,0.013620348,0.0,-9.80665,-0.013620348,0.0,-0.08172209,2017-06-08 20:09:21,54.60259275745792
0.009576807,-0.019153614,-9.902418,0.0,0.013620348,0.0,-9.80665,-0.013620348,0.0,-0.095342435,2017-06-08 20:09:22,55.14501359446829
0.0,-0.009576807,-9.902418,0.0,0.013620348,-0.013620348,-9.80665,-0.027240695,0.013620348,-0.095342435,2017-06-08 20:09:23,55.13935091673449
-0.009576807,0.0,-9.892841,0.0,0.0,0.0,-9.80665,0.0,0.0,-0.10896278,2017-06-08 20:09:24,56.426734154757
-0.019153614,-0.009576807,-9.892841,0.0,0.0,0.0,-9.80665,-0.013620348,0.0,-0.10896278,2017-06-08 20:09:25,53.193825378490196
0.009576807,-0.009576807,-9.911995,0.0,0.0,0.0,-9.80665,0.0,0.0,-0.08172209,2017-06-08 20:09:26,54.99902076457103
-0.009576807,-0.009576807,-9.892841,0.0,0.0,0.0,-9.80665,0.0,0.0,-0.08172209,2017-06-08 20:09:27,56.042779803104985
-0.009576807,-0.009576807,-9.883265,0.0,0.013620348,0.0,-9.80665,-0.013620348,0.0,-0.095342435,2017-06-08 20:09:28,55.232167723451084
-0.019153614,-0.009576807,-9.902418,0.0,0.013620348,0.0,-9.80665,-0.027240695,0.0,-0.08172209,2017-06-08 20:09:29,57.428997011992905
-0.009576807,0.0,-9.902418,0.0,0.0,0.0,-9.80665,0.0,0.0,-0.08172209,2017-06-08 20:09:30,55.44900685851162
-0.009576807,0.0,-9.883265,0.0,0.013620348,0.0,-9.80665,-0.013620348,0.0,-0.068101734,2017-06-08 20:09:31,55.895667210533446
-0.019153614,0.0,-9.883265,0.0,-0.013620348,0.0,-9.80665,0.0,0.0,-0.08172209,2017-06-08 20:09:32,54.64420938315943
-0.019153614,0.0,-9.892841,0.0,-0.013620348,0.0,-9.80665,0.0,0.0,-0.08172209,2017-06-08 20:09:33,55.35692612852614
-0.019153614,0.0,-9.892841,0.0,-0.013620348,0.0,-9.80665,0.013620348,0.0,-0.08172209,2017-06-08 20:09:34,54.52303463677985
0.0,-0.009576807,-9.902418,0.0,0.0,0.0,-9.80665,-0.013620348,0.0,-0.08172209,2017-06-08 20:09:35,54.37696775426878
-0.019153614,0.0,-9.883265,0.0,0.0,0.0,-9.80665,-0.013620348,0.0,-0.08172209,2017-06-08 20:09:36,53.878273961375164
-0.019153614,0.0,-9.883265,0.0,0.0,0.0,-9.80665,-0.013620348,0.0,-0.08172209,2017-06-08 20:09:37,54.4893128866609
-0.009576807,0.0,-9.883265,0.0,0.013620348,0.0,-9.80665,-0.040861044,0.0,-0.08172209,2017-06-08 20:09:39,54.26238697236742
-0.019153614,-0.009576807,-9.902418,0.0,0.013620348,0.0,-9.80665,-0.027240695,0.0,-0.08172209,2017-06-08 20:09:40,53.40579002191498
-0.009576807,0.009576807,-9.883265,0.0,0.013620348,0.0,-9.80665,-0.013620348,0.0,-0.08172209,2017-06-08 20:09:41,52.47802582084118
-0.019153614,0.009576807,-9.883265,0.0,0.013620348,0.0,-9.80665,-0.027240695,0.0,-0.08172209,2017-06-08 20:09:42,52.77500730982407
-0.009576807,-0.009576807,-9.854534,0.0,0.013620348,0.0,-9.80665,-0.013620348,0.0,-0.08172209,2017-06-08 20:09:43,53.3467158516909
-0.02873042,0.0,-9.892841,0.0,0.013620348,0.0,-9.80665,-0.040861044,0.0,-0.08172209,2017-06-08 20:09:44,51.0547978309217
-0.019153614,0.0,-9.892841,0.0,0.0,0.0,-9.80665,-0.013620348,0.0,-0.08172209,2017-06-08 20:09:45,54.615036173140446
-0.019153614,0.0,-9.873688,0.0,0.0,0.0,-9.80665,-0.013620348,0.0,-0.08172209,2017-06-08 20:09:46,50.8006254019804
-0.019153614,0.009576807,-9.892841,0.0,0.0,0.0,-9.80665,-0.013620348,0.0,-0.08172209,2017-06-08 20:09:47,51.28617537516712
-0.009576807,-0.009576807,-9.883265,0.0,-0.027240695,0.0,-9.79303,0.027240695,0.0,-0.095342435,2017-06-08 20:09:48,51.681664758052186
-0.02873042,0.009576807,-9.883265,0.0,-0.027240695,0.0,-9.80665,0.0,0.0,-0.08172209,2017-06-08 20:09:49,51.3246399267605
-0.02873042,0.019153614,-9.873688,0.0,-0.027240695,0.0,-9.80665,0.027240695,0.0,-0.08172209,2017-06-08 20:09:50,51.6245852220214
-0.02873042,0.009576807,-9.892841,0.0,-0.027240695,0.0,-9.80665,0.0,0.0,-0.08172209,2017-06-08 20:09:51,47.89067383131485
-0.019153614,0.009576807,-9.892841,0.0,-0.027240695,0.0,-9.80665,0.013620348,0.0,-0.08172209,2017-06-08 20:09:52,49.528275056428086
-0.009576807,0.009576807,-9.873688,0.0,-0.013620348,0.013620348,-9.80665,0.013620348,0.0,-0.068101734,2017-06-08 20:09:53,50.176892117892216
-0.019153614,0.009576807,-9.883265,0.0,-0.013620348,0.013620348,-9.80665,0.0,0.0,-0.08172209,2017-06-08 20:09:54,52.22269065361058
-0.019153614,0.0,-9.892841,0.0,-0.027240695,0.0,-9.80665,0.013620348,0.0,-0.08172209,2017-06-08 20:09:55,49.90836905915281
-0.02873042,0.009576807,-9.883265,0.0,-0.027240695,0.0,-9.80665,0.027240695,0.0,-0.08172209,2017-06-08 20:09:56,50.51577880445849
-0.009576807,0.019153614,-9.892841,0.0,-0.027240695,0.013620348,-9.80665,0.0,0.0,-0.068101734,2017-06-08 20:09:58,52.3332695134366
-0.02873042,0.009576807,-9.864111,0.0,-0.027240695,0.0,-9.80665,0.0,0.013620348,-0.08172209,2017-06-08 20:09:59,52.024215687839366
-0.02873042,0.0,-9.883265,0.0,-0.013620348,0.0,-9.80665,-0.013620348,0.0,-0.08172209,2017-06-08 20:10:00,51.89585524502867
-0.02873042,0.009576807,-9.892841,0.0,-0.013620348,0.0,-9.80665,0.013620348,0.0,-0.08172209,2017-06-08 20:10:01,52.74596625191565
-0.019153614,0.0,-9.892841,0.0,-0.013620348,0.0,-9.80665,0.013620348,0.0,-0.08172209,2017-06-08 20:10:02,52.304962201776334
-0.009576807,0.0,-9.883265,0.0,-0.013620348,0.0,-9.80665,0.013620348,0.0,-0.08172209,2017-06-08 20:10:03,54.01213946340741
-0.038307227,0.009576807,-9.864111,0.0,-0.013620348,0.0,-9.80665,-0.013620348,0.0,-0.08172209,2017-06-08 20:10:04,53.984819034011416
-0.02873042,0.0,-9.883265,0.0,-0.027240695,0.0,-9.80665,0.0,0.0,-0.08172209,2017-06-08 20:10:05,53.43661959887715
-0.019153614,0.0,-9.892841,0.0,-0.040861044,0.0,-9.80665,0.027240695,0.0,-0.05448139,2017-06-08 20:10:06,54.91618462385429
-0.019153614,0.0,-9.883265,0.0,-0.040861044,0.0,-9.80665,0.040861044,0.0,-0.08172209,2017-06-08 20:10:07,54.24446346000563
-0.019153614,0.009576807,-9.892841,0.0,-0.013620348,0.0,-9.79303,0.0,0.0,-0.08172209,2017-06-08 20:10:08,54.98354754360068
-0.009576807,0.009576807,-9.873688,0.0,-0.027240695,0.0,-9.80665,0.027240695,0.0,-0.068101734,2017-06-08 20:10:09,53.46488774169838
-0.009576807,0.0,-9.883265,0.0,-0.013620348,0.013620348,-9.80665,0.013620348,-0.013620348,-0.08172209,2017-06-08 20:10:10,56.698115706243485
-0.009576807,0.019153614,-9.873688,0.0,-0.013620348,0.0,-9.80665,0.013620348,0.0,-0.068101734,2017-06-08 20:10:11,53.12530530116251
-0.019153614,0.0,-9.892841,0.0,-0.027240695,0.0,-9.80665,0.013620348,0.0,-0.08172209,2017-06-08 20:10:12,56.13387900225436
-0.019153614,0.0,-9.892841,0.0,-0.027240695,0.0,-9.80665,0.013620348,0.0,-0.08172209,2017-06-08 20:10:13,53.03802225153
-0.009576807,0.009576807,-9.883265,0.0,-0.013620348,0.0,-9.80665,0.013620348,0.013620348,-0.068101734,2017-06-08 20:10:14,53.79171545234317
-0.009576807,0.0,-9.892841,0.0,-0.027240695,0.0,-9.80665,0.027240695,0.0,-0.08172209,2017-06-08 20:10:15,55.835884365189614
-0.019153614,0.0,-9.892841,0.0,-0.013620348,0.0,-9.80665,0.0,0.0,-0.08172209,2017-06-08 20:10:17,53.34468076600697
-0.019153614,0.009576807,-9.892841,0.0,-0.013620348,0.0,-9.80665,0.0,0.013620348,-0.08172209,2017-06-08 20:10:18,52.90778496636142
-0.019153614,0.009576807,-9.883265,0.0,0.0,0.0,-9.80665,0.0,0.0,-0.08172209,2017-06-08 20:10:19,52.70080140813732
-0.019153614,0.0,-9.892841,0.0,0.0,0.0,-9.80665,-0.013620348,0.0,-0.08172209,2017-06-08 20:10:20,52.366451997895574
-0.009576807,0.0,-9.892841,0.0,0.0,0.0,-9.80665,0.0,0.0,-0.08172209,2017-06-08 20:10:21,54.459710169429
-0.019153614,-0.009576807,-9.892841,0.0,-0.013620348,0.0,-9.80665,0.0,0.0,-0.08172209,2017-06-08 20:10:22,51.64002099468679
-0.009576807,-0.009576807,-9.883265,0.0,-0.013620348,0.0,-9.80665,0.013620348,0.0,-0.08172209,2017-06-08 20:10:23,52.68272029192589
-0.009576807,-0.009576807,-9.892841,0.0,-0.013620348,0.0,-9.80665,0.013620348,0.0,-0.08172209,2017-06-08 20:10:24,51.78826810225313
-0.02873042,0.009576807,-9.892841,0.0,-0.013620348,0.0,-9.79303,0.0,0.0,-0.095342435,2017-06-08 20:10:25,50.33932546979506
-0.019153614,-0.009576807,-9.892841,0.0,0.0,0.0,-9.80665,-0.013620348,0.0,-0.08172209,2017-06-08 20:10:26,52.62345740518207
-0.019153614,0.0,-9.873688,0.0,-0.013620348,0.013620348,-9.80665,0.0,-0.013620348,-0.068101734,2017-06-08 20:10:27,50.21719435062793
-0.009576807,-0.009576807,-9.883265,0.0,0.0,0.0,-9.80665,0.0,0.0,-0.08172209,2017-06-08 20:10:28,52.087434484845794
-0.02873042,0.0,-9.883265,0.0,-0.013620348,0.0,-9.80665,0.0,0.0,-0.08172209,2017-06-08 20:10:29,49.887593719209434
-0.009576807,0.009576807,-9.883265,0.0,-0.027240695,0.0,-9.80665,0.027240695,0.0,-0.08172209,2017-06-08 20:10:30,54.735371071982584
-0.019153614,0.0,-9.892841,0.0,-0.027240695,0.0,-9.80665,0.013620348,0.0,-0.08172209,2017-06-08 20:10:31,57.17300731229913
-0.019153614,-0.009576807,-9.883265,0.0,-0.027240695,0.0,-9.80665,0.013620348,0.0,-0.08172209,2017-06-08 20:10:32,53.99362458407423
-0.02873042,0.0,-9.892841,0.0,-0.013620348,0.0,-9.80665,-0.013620348,0.0,-0.08172209,2017-06-08 20:10:33,51.391149324915006
-0.009576807,0.0,-9.892841,0.0,-0.013620348,0.0,-9.80665,0.013620348,0.0,-0.08172209,2017-06-08 20:10:34,51.36416642919745
-0.009576807,0.0,-9.892841,0.0,-0.027240695,0.0,-9.79303,0.027240695,0.0,-0.095342435,2017-06-08 20:10:36,52.66818962994283
-0.019153614,0.0,-9.883265,0.0,-0.027240695,0.0,-9.80665,0.013620348,0.0,-0.068101734,2017-06-08 20:10:37,52.686385796377174
-0.019153614,0.0,-9.873688,0.0,-0.013620348,0.0,-9.80665,0.013620348,0.0,-0.08172209,2017-06-08 20:10:38,53.29582478845425
-0.019153614,0.0,-9.883265,0.0,-0.013620348,0.0,-9.80665,0.013620348,0.0,-0.08172209,2017-06-08 20:10:39,52.825986148606404
-0.019153614,0.0,-9.883265,0.0,-0.027240695,0.0,-9.80665,0.013620348,0.0,-0.08172209,2017-06-08 20:10:40,53.09448634580738
-0.009576807,-0.009576807,-9.892841,0.0,-0.013620348,0.0,-9.80665,0.013620348,0.0,-0.08172209,2017-06-08 20:10:41,52.330550639300846
-0.019153614,-0.009576807,-9.883265,0.0,0.0,0.0,-9.80665,0.0,0.0,-0.08172209,2017-06-08 20:10:42,53.52705976744974
-0.019153614,0.0,-9.883265,0.0,0.0,0.0,-9.80665,-0.013620348,0.0,-0.08172209,2017-06-08 20:10:43,52.87660214881454
-0.019153614,0.0,-9.892841,0.0,-0.013620348,0.0,-9.80665,0.0,0.0,-0.08172209,2017-06-08 20:10:44,53.48608826690903
-0.019153614,-0.009576807,-9.883265,0.0,0.0,0.0,-9.80665,-0.013620348,0.0,-0.08172209,2017-06-08 20:10:45,52.94352935894353
-0.009576807,0.009576807,-9.883265,0.0,-0.013620348,0.0,-9.80665,0.013620348,0.0,-0.08172209,2017-06-08 20:10:46,52.79175618652043
-0.009576807,0.009576807,-9.892841,0.0,-0.013620348,0.0,-9.80665,0.013620348,0.0,-0.08172209,2017-06-08 20:10:47,53.00926712906039
-0.009576807,-0.009576807,-9.892841,0.0,-0.013620348,0.0,-9.80665,0.013620348,0.0,-0.08172209,2017-06-08 20:10:48,53.25902486600694
-0.019153614,0.0,-9.892841,0.0,-0.013620348,0.0,-9.80665,0.0,0.0,-0.08172209,2017-06-08 20:10:49,54.501016642838316
-0.019153614,0.009576807,-9.883265,0.0,0.0,0.0,-9.80665,-0.013620348,0.0,-0.08172209,2017-06-08 20:10:50,53.350153757178475
-0.02873042,0.0,-9.883265,0.0,0.0,0.0,-9.80665,-0.013620348,0.0,-0.08172209,2017-06-08 20:10:51,54.977895360886315
-0.009576807,0.0,-9.892841,0.0,-0.013620348,0.0,-9.80665,0.013620348,0.0,-0.08172209,2017-06-08 20:10:52,53.49216471768077
-0.019153614,-0.009576807,-9.883265,0.0,-0.013620348,0.0,-9.80665,0.013620348,0.0,-0.08172209,2017-06-08 20:10:54,55.20808524009994
-0.019153614,0.0,-9.892841,0.0,-0.013620348,0.0,-9.80665,0.0,0.0,-0.08172209,2017-06-08 20:10:55,52.01079635315275
5.410896,4.6160207,0.02873042,19.0,0.24516624,-0.13620347,-9.79303,6.6194887,0.50395286,3.1190596,2017-06-08 20:10:56,54.73460859148698
4.817134,6.789956,-4.855441,11.0,4.590057,3.7455957,-7.804459,0.70825803,2.9556153,2.941995,2017-06-08 20:10:57,55.251224646676256
4.261679,7.690176,-4.156334,11.0,5.2710743,6.687591,-4.862464,-0.87170225,0.83084124,0.7627395,2017-06-08 20:10:58,52.85003103505954
3.667917,5.363012,-5.506664,11.0,4.5219555,7.3413677,-4.671779,-0.8853226,-1.2666924,0.068101734,2017-06-08 20:10:59,53.138318073228234
-0.076614454,-0.009576807,-9.883265,0.0,3.759216,4.6172976,-7.7908387,-3.8545582,-4.6172976,-2.165635,2017-06-08 20:11:00,54.021390774759524
-0.10534488,-0.009576807,-9.883265,0.0,0.83084124,0.42223078,-9.752169,-0.92618364,-0.42223078,-0.14982383,2017-06-08 20:11:01,54.235127652265675
-0.08619126,0.0,-9.883265,0.0,-0.08172209,0.027240695,-9.79303,0.0,-0.040861044,-0.08172209,2017-06-08 20:11:02,52.151217307669164
-0.095768064,-0.019153614,-9.883265,0.0,-0.08172209,0.013620348,-9.79303,-0.013620348,-0.027240695,-0.095342435,2017-06-08 20:11:03,56.10448704076543
-0.095768064,-0.009576807,-9.883265,0.0,-0.08172209,0.0,-9.79303,0.0,0.0,-0.095342435,2017-06-08 20:11:04,53.39857393257407
-0.095768064,-0.009576807,-9.892841,0.0,-0.08172209,0.0,-9.79303,-0.013620348,0.0,-0.095342435,2017-06-08 20:11:05,53.62577460390564
-0.095768064,-0.019153614,-9.892841,0.0,-0.095342435,0.0,-9.79303,0.027240695,-0.013620348,-0.095342435,2017-06-08 20:11:06,54.13788560145222
-0.095768064,-0.019153614,-9.883265,0.0,-0.095342435,-0.013620348,-9.79303,0.0,0.0,-0.10896278,2017-06-08 20:11:07,53.222884725935046
-0.31603462,-0.34476504,-9.864111,0.0,-0.08172209,0.0,-9.79303,0.013620348,-0.013620348,-0.095342435,2017-06-08 20:11:08,51.49822076386907
-2.4229321,3.9839516,-9.864111,19.0,-0.17706451,-0.013620348,-9.79303,-2.7921712,1.3620348,0.42223078,2017-06-08 20:11:09,54.847848302305316
-0.038307227,-0.009576807,-9.911995,0.0,-0.08172209,0.8580819,-9.765789,0.08172209,-0.7218784,-0.57205456,2017-06-08 20:11:10,52.469328273675906
0.0,-0.019153614,-9.883265,0.0,0.8172208,0.10896278,-9.765789,-0.8172208,-0.13620347,-0.13620347,2017-06-08 20:11:11,54.36893772241671
0.0,-0.02873042,-9.892841,0.0,0.13620347,0.0,-9.79303,-0.13620347,-0.013620348,-0.08172209,2017-06-08 20:11:13,52.187385245611566
-0.009576807,-0.038307227,-9.892841,0.0,0.08172209,-0.013620348,-9.79303,-0.08172209,-0.013620348,-0.095342435,2017-06-08 20:11:14,57.355349508159264
-0.009576807,-0.038307227,-9.892841,0.0,0.027240695,-0.013620348,-9.80665,-0.027240695,-0.013620348,-0.08172209,2017-06-08 20:11:15,51.234221649134284
-0.009576807,-0.02873042,-9.892841,0.0,0.040861044,-0.027240695,-9.80665,-0.040861044,0.0,-0.068101734,2017-06-08 20:11:16,53.83391205847833
-0.009576807,-0.02873042,-9.883265,0.0,0.05448139,-0.027240695,-9.79303,-0.05448139,0.0,-0.08172209,2017-06-08 20:11:17,53.65330106182096
0.0,-0.02873042,-9.892841,0.0,0.05448139,-0.027240695,-9.79303,-0.068101734,0.0,-0.095342435,2017-06-08 20:11:18,52.726121979834886
-0.009576807,-0.02873042,-9.892841,0.0,0.040861044,-0.027240695,-9.79303,-0.040861044,0.0,-0.095342435,2017-06-08 20:11:19,52.90670616525266
-0.009576807,-0.038307227,-9.883265,0.0,0.040861044,-0.027240695,-9.79303,-0.040861044,0.0,-0.10896278,2017-06-08 20:11:20,52.80681732046824
-0.009576807,-0.02873042,-9.902418,0.0,0.0,-0.027240695,-9.80665,0.0,0.0,-0.095342435,2017-06-08 20:11:21,53.80280285087327
-0.019153614,-0.019153614,-9.883265,0.0,0.013620348,-0.027240695,-9.80665,-0.013620348,0.013620348,-0.08172209,2017-06-08 20:11:22,52.95869537086338
0.009576807,-0.038307227,-9.902418,0.0,0.013620348,-0.027240695,-9.80665,-0.013620348,0.0,-0.095342435,2017-06-08 20:11:23,51.34563579622808
0.009576807,-0.038307227,-9.883265,0.0,0.027240695,-0.027240695,-9.80665,-0.027240695,0.0,-0.095342435,2017-06-08 20:11:24,54.39266777237777
0.0,-0.02873042,-9.892841,0.0,0.027240695,-0.027240695,-9.80665,-0.027240695,-0.013620348,-0.08172209,2017-06-08 20:11:25,54.09839088185035
-0.009576807,-0.038307227,-9.902418,0.0,0.040861044,-0.027240695,-9.79303,-0.040861044,0.0,-0.10896278,2017-06-08 20:11:26,54.38845102328066
0.009576807,-0.038307227,-9.892841,0.0,0.027240695,-0.027240695,-9.80665,-0.027240695,0.0,-0.08172209,2017-06-08 20:11:27,54.83442603867172
0.0,-0.02873042,-9.892841,0.0,0.027240695,-0.027240695,-9.79303,-0.027240695,0.0,-0.095342435,2017-06-08 20:11:28,54.52973290615715
0.0,-0.038307227,-9.902418,0.0,0.040861044,-0.027240695,-9.79303,-0.040861044,0.0,-0.10896278,2017-06-08 20:11:29,58.76527386150305
0.0,-0.02873042,-9.892841,0.0,0.040861044,-0.040861044,-9.79303,-0.040861044,0.0,-0.095342435,2017-06-08 20:11:30,53.97604038829694
0.009576807,-0.038307227,-9.892841,0.0,0.040861044,-0.027240695,-9.79303,-0.040861044,0.0,-0.095342435,2017-06-08 20:11:32,53.64493635733848
0.0,-0.038307227,-9.902418,0.0,0.027240695,-0.027240695,-9.80665,-0.027240695,0.0,-0.095342435,2017-06-08 20:11:33,53.46749011118702
0.0,-0.047884032,-9.902418,0.0,0.013620348,-0.027240695,-9.80665,-0.013620348,-0.013620348,-0.095342435,2017-06-08 20:11:34,52.98328018469996
0.0,-0.02873042,-9.892841,0.0,0.013620348,-0.027240695,-9.80665,-0.013620348,-0.013620348,-0.08172209,2017-06-08 20:11:35,53.74580399512083
0.0,-0.02873042,-9.892841,0.0,0.040861044,-0.027240695,-9.79303,-0.040861044,0.0,-0.095342435,2017-06-08 20:11:36,52.797061177424034
0.0,-0.038307227,-9.892841,0.0,0.05448139,-0.040861044,-9.79303,-0.05448139,0.013620348,-0.095342435,2017-06-08 20:11:37,54.45847926916723
0.009576807,-0.038307227,-9.864111,0.0,0.027240695,-0.027240695,-9.80665,-0.027240695,0.0,-0.08172209,2017-06-08 20:11:38,52.12009999433797
0.0,-0.047884032,-9.902418,0.0,0.013620348,-0.027240695,-9.79303,-0.013620348,0.0,-0.10896278,2017-06-08 20:11:39,55.234069664109654
-0.009576807,-0.038307227,-9.892841,0.0,0.027240695,-0.027240695,-9.79303,-0.027240695,0.0,-0.12258312,2017-06-08 20:11:40,53.21744856551352
0.0,-0.02873042,-9.892841,0.0,0.040861044,-0.027240695,-9.79303,-0.040861044,0.0,-0.095342435,2017-06-08 20:11:41,50.542705631755105
0.0,-0.02873042,-9.902418,0.0,0.013620348,-0.027240695,-9.80665,-0.013620348,0.0,-0.08172209,2017-06-08 20:11:42,52.915035786566065
0.46926352,-0.10534488,-9.988609,0.0,0.013620348,-0.027240695,-9.80665,-0.068101734,-0.068101734,-0.12258312,2017-06-08 20:11:43,50.08881846240429
0.1436521,0.29688102,-10.927136,8.0,1.1032481,-0.027240695,-9.738548,-2.1520147,3.3506055,-0.7218784,2017-06-08 20:11:44,53.404680846560254
