ACC_X,ACC_Y,ACC_Z,GYRO_X,GYRO_Y,GYRO_Z,LIGH_1,GRAV_X,GRAV_Y,GRAV_Z,LINACC_X,LINACC_Y,LINACC_Z,ROTVEC_X,ROTVEC_Y,ROTVEC_Z,TIME,VOICE
4.4340615,1.3311762,8.954314,0.6610349,-0.29027766,-0.9974908,44.0,0.42298695,0.06516738,0.90378934,0.02253896,0.042047724,0.03989649,0.17362446,-0.12083685,0.73301417,2017-07-08 20:37:34,-Infinity
-2.1547816,1.436521,12.373235,-0.32858998,2.3000336,0.33821627,109.0,0.09781462,0.08734263,0.99136454,-0.372561,-0.08942735,0.30262285,0.05500673,-0.012730476,0.642538,2017-07-08 20:37:35,-Infinity
-0.019153614,-0.02873042,10.208876,0.044128764,-0.16703953,-0.55891436,72.0,-3.6805947E-4,-0.0013860962,0.999999,0.0022677137,-5.760918E-4,0.041722953,-6.103516E-4,-5.593965E-4,0.6694792,2017-07-08 20:37:36,-Infinity
0.019153614,0.019153614,10.199299,0.059143145,-0.14195544,-0.07226403,71.0,0.001564444,-0.0010107507,0.9999983,-6.213683E-4,0.002800764,0.031951368,-5.7256053E-4,-0.0011053937,0.6560414,2017-07-08 20:37:37,-Infinity
-0.02873042,-0.038307227,10.228029,-0.009466198,-0.013606093,0.024073398,71.0,1.9367618E-4,-0.0018216049,0.9999983,7.2597736E-4,-0.0011101275,0.037814796,-6.6860666E-4,-6.9053395E-4,0.6453321,2017-07-08 20:37:38,-Infinity
0.019153614,-0.019153614,10.1226845,0.010177715,-0.00144784,-0.020761583,72.0,-0.0016944119,-0.0031321745,0.9999937,6.573171E-4,0.0029861839,0.035864353,-0.0016377451,-5.4591504E-4,0.6424402,2017-07-08 20:37:39,-Infinity
0.009576807,-0.009576807,10.084377,0.009683473,-0.0060558496,0.13708949,73.0,0.0013937661,-0.002585803,0.99999565,0.0023684143,-4.1659572E-4,0.035862982,-5.7256053E-4,-0.0011580606,0.6434386,2017-07-08 20:37:40,-Infinity
0.019153614,-0.02873042,10.151415,-0.0089502,0.0060863886,0.016466724,74.0,-6.2302285E-4,-0.0016334716,0.9999985,5.967517E-4,-3.840509E-4,0.03683728,-4.727763E-4,-6.342959E-4,0.6475357,2017-07-08 20:37:41,-Infinity
-0.019153614,-0.047884032,10.218452,-0.014053972,0.012231317,0.027359106,74.0,-0.0023308326,-0.0019484718,0.9999954,-4.8009073E-4,-0.0010144103,0.033909023,-0.0014391877,-4.228639E-4,0.64778364,2017-07-08 20:37:42,-Infinity
0.009576807,-0.02873042,10.151415,0.020424102,-4.7476962E-4,-0.04127063,75.0,0.0028879244,-1.2373058E-4,0.9999958,-0.0065932423,0.0019544503,0.03879392,6.103516E-4,-0.0014495048,0.64729863,2017-07-08 20:37:43,-Infinity
0.009576807,-0.047884032,10.132261,-0.0057259165,0.001835574,0.010722242,75.0,-0.0013781185,-0.0036470362,0.99999243,0.001289096,-1.6737776E-4,0.038798153,-0.0012328497,-5.7256053E-4,0.6480776,2017-07-08 20:37:44,-Infinity
0.009576807,-0.019153614,10.132261,-0.053491306,-0.0079709655,0.112719364,75.0,8.130332E-4,0.004070393,0.9999914,1.9313919E-4,-0.0049917437,0.041730344,0.0010711626,5.854287E-4,0.64532816,2017-07-08 20:37:45,-Infinity
0.009576807,0.0,10.151415,-0.01378959,0.008526643,0.02392621,75.0,2.517896E-4,-0.0030267215,0.9999954,-1.8879706E-4,-7.622824E-4,0.037818015,-4.5674533E-4,-7.3242193E-4,0.6476502,2017-07-08 20:37:46,-Infinity
0.038307227,-0.038307227,10.141838,-3.1357617E-5,-0.0029660547,0.0015210933,75.0,-2.3875308E-4,-0.002148778,0.9999977,0.003971873,-0.0017363613,0.034883797,-7.3242193E-4,-5.179005E-4,0.6476265,2017-07-08 20:37:47,-Infinity
0.02873042,-0.02873042,10.170568,0.014386434,-0.011979013,-0.029199077,75.0,0.0033774367,0.0012576962,0.99999356,-0.003300828,4.7693634E-4,0.037819624,6.224389E-4,-0.0012802843,0.64714116,2017-07-08 20:37:48,-Infinity
-0.02873042,0.009576807,10.199299,-0.005328742,2.9338023E-4,0.010576299,75.0,4.3251892E-4,-9.35814E-4,0.9999994,-0.0032461407,0.0019520677,0.040745378,-2.4414063E-4,-4.8828125E-4,0.6470225,2017-07-08 20:37:49,-Infinity
0.009576807,-0.06703765,10.084377,0.008854696,-0.010321393,-0.013824408,75.0,-4.9022824E-4,-0.0020762614,0.9999977,0.006083566,0.0010047136,0.035860598,-0.001326023,-1.7263349E-4,0.6477765,2017-07-08 20:37:50,-Infinity
-0.019153614,0.0,10.208876,9.85478E-4,0.0026993793,-0.003320868,75.0,7.5152016E-4,-0.0015030409,0.9999986,-0.0025513517,0.0015079624,0.04172319,-4.0486144E-4,-8.0046855E-4,0.64745265,2017-07-08 20:37:51,-Infinity
0.0,-0.038307227,10.189722,-0.012013846,1.5671723E-4,0.024513504,75.0,0.0016940476,-0.0026299572,0.99999505,-7.165654E-4,7.430685E-4,0.03977257,-5.179005E-4,-0.0010213136,0.6476408,2017-07-08 20:37:52,-Infinity
0.019153614,0.019153614,10.160992,-0.002649239,0.004626139,0.0038036602,75.0,-0.0010580468,-0.0049427757,0.9999871,0.00198019,0.0020831474,0.040757835,-0.0018792487,-8.5449225E-4,0.6488915,2017-07-08 20:37:54,-Infinity
0.038307227,-0.019153614,10.151415,-0.01282617,-0.00453476,0.028054327,75.0,6.321805E-4,2.5182302E-4,0.99999976,-6.6112546E-4,-1.2592872E-4,0.03585887,6.2243873E-4,-5.1790033E-4,0.6466189,2017-07-08 20:37:55,-Infinity
0.038307227,-0.019153614,10.113108,-0.010875539,-0.0011974294,0.022056669,75.0,6.4445176E-4,-0.0020748202,0.9999977,0.0031230845,-8.571218E-4,0.034883916,-7.012406E-4,-0.0012627052,0.6482626,2017-07-08 20:37:56,-Infinity
-0.019153614,0.0,10.170568,0.010223662,-0.0067073265,-0.017252205,75.0,0.0023934545,-8.27594E-4,0.9999968,-0.0023645053,-0.0021119802,0.034884572,2.9901E-4,-0.0011320335,0.6475938,2017-07-08 20:37:57,-Infinity
0.019153614,-0.009576807,10.151415,-0.0013280171,7.4586256E-5,0.0026385197,75.0,0.0015158799,-0.0023798526,0.99999595,0.0023382585,0.002355963,0.036839962,-3.4526698E-4,-0.0011187929,0.647872,2017-07-08 20:37:58,-Infinity
-0.009576807,-0.019153614,10.141838,0.015097998,0.0026375689,-0.03287247,75.0,0.0017626781,-0.005277527,0.99998456,-0.003625086,0.005106473,0.034895897,-0.0013918157,-0.0023225462,0.6497055,2017-07-08 20:37:59,-Infinity
0.0,0.0,10.141838,-0.0061498918,0.014520676,0.011838436,75.0,-0.0015729017,-0.0023305165,0.99999607,-0.0012961027,-4.7831563E-4,0.039771855,-0.0011053937,-3.8602023E-4,0.6478498,2017-07-08 20:38:00,-Infinity
-0.019153614,-0.019153614,10.199299,-0.023609146,0.014174986,0.04367643,75.0,-3.161108E-4,-9.378822E-4,0.9999995,-0.0024927354,-0.0018970314,0.040745497,-2.4414063E-4,-5.5939646E-4,0.6530623,2017-07-08 20:38:01,-Infinity
-0.019153614,-0.038307227,10.093954,-0.02472404,-0.006191461,0.05253066,75.0,0.0018309647,-8.905262E-4,0.9999979,0.0011035826,-0.0029948545,0.040746868,-5.7256053E-4,-9.134906E-4,0.653729,2017-07-08 20:38:02,-Infinity
0.0,0.009576807,10.132261,-0.0078041456,-0.0076777013,0.018282376,75.0,1.890362E-4,-6.957589E-4,0.99999976,6.621358E-4,-0.0021439516,0.031950116,-4.228639E-4,5.320921E-4,0.6467365,2017-07-08 20:38:03,-Infinity
0.009576807,-0.047884032,10.132261,-0.0010610912,0.0048071626,-1.0552537E-4,75.0,1.2564074E-4,-0.0028897382,0.9999959,0.0018288424,9.973357E-4,0.043680727,-6.224389E-4,-6.4593536E-4,0.64763486,2017-07-08 20:38:04,-Infinity
0.019153614,-0.019153614,10.113108,0.0060039693,-0.010627572,-0.00793842,75.0,0.0016403341,-0.0017689364,0.99999714,2.5356002E-4,-1.5906617E-4,0.03195274,-5.320922E-4,-7.6232885E-4,0.6476383,2017-07-08 20:38:05,-Infinity
0.02873042,-0.009576807,10.189722,0.020480365,0.0070016515,-0.042843286,75.0,-1.33386E-4,-3.2692624E-4,1.0,-0.0036892307,-0.0026178616,0.0407449,-3.2296768E-4,-5.320922E-4,0.64735,2017-07-08 20:38:06,-Infinity
-0.02873042,0.0,10.170568,-3.4438795E-5,0.0011316362,-3.8076914E-4,75.0,-5.766633E-4,-0.0023826682,0.999997,-0.0022396576,0.0022962412,0.03781593,-0.0011772035,-4.0486144E-4,0.6479197,2017-07-08 20:38:07,-Infinity
-0.019153614,0.009576807,10.151415,0.013276629,0.0014876416,-0.02730202,75.0,-0.0012535584,-0.0011276781,0.9999986,0.0031189963,0.0030245737,0.03195101,-0.0012744514,-4.5674524E-4,0.64775336,2017-07-08 20:38:08,-Infinity
0.0,-0.02873042,10.132261,-6.590591E-4,-0.007988587,0.20029996,75.0,0.0013822292,-0.002077278,0.9999969,-0.0014166937,-8.5385796E-4,0.033907294,-4.5674518E-4,-8.097227E-4,0.65360403,2017-07-08 20:38:09,-Infinity
0.009576807,-0.009576807,10.170568,-0.005528807,-0.013896032,0.01194587,75.0,-8.673968E-4,-0.0027594233,0.9999958,0.0045693377,7.187482E-4,0.037816882,-0.0014024811,-8.2792115E-4,0.66003126,2017-07-08 20:38:10,-Infinity
0.009576807,-0.009576807,10.141838,0.0064933337,0.00437549,-0.16934489,75.0,-5.7282094E-5,-3.1765524E-4,0.9999999,0.0010397232,-6.95984E-4,0.034881473,-7.221777E-4,-4.5674524E-4,0.65192646,2017-07-08 20:38:11,-Infinity
0.019153614,-0.019153614,10.170568,-0.029307565,7.940961E-5,0.05836311,75.0,0.0013718893,-0.0037001816,0.9999922,5.1195803E-4,-0.0011231021,0.036844075,-8.9702994E-4,-0.0010780958,0.6481804,2017-07-08 20:38:12,-Infinity
0.009576807,-0.038307227,10.132261,-0.0088102445,-0.001940737,0.017307531,75.0,0.0013910751,-8.8618556E-4,0.9999986,-0.0013569364,-0.001070864,0.03292817,3.8602017E-4,-8.802614E-4,0.6472955,2017-07-08 20:38:13,-Infinity
-0.02873042,0.0,10.180145,0.006173025,0.003749283,-0.013994705,75.0,4.2947062E-4,-0.0013826861,0.999999,-0.0031830815,0.0013513077,0.03879124,-2.9900996E-4,-7.7204034E-4,0.65122724,2017-07-08 20:38:14,-Infinity
0.009576807,-0.009576807,10.1226845,0.003957679,6.655122E-5,-0.007954953,75.0,0.0010748089,-0.0038876634,0.99999183,0.0016734281,0.0038061987,0.037821114,-0.0012802843,-0.0017520386,0.654959,2017-07-08 20:38:15,-Infinity
0.047884032,-0.009576807,10.113108,-0.010331801,-0.013592067,0.02519691,75.0,0.001460193,6.0295173E-5,0.9999989,0.0032504448,-0.0010401359,0.03195113,7.1178586E-4,-6.224387E-4,0.65265614,2017-07-08 20:38:16,-Infinity
0.009576807,-0.05746084,10.160992,-0.003681248,-0.004026675,0.009769281,75.0,0.0016750566,7.628191E-4,0.9999983,-0.006363925,0.0010426168,0.0368374,5.9802E-4,-2.4414063E-4,0.6468073,2017-07-08 20:38:17,-Infinity
0.009576807,0.019153614,10.132261,0.028601374,-2.1933406E-4,-0.056813363,75.0,0.0020655326,-6.2829885E-4,0.9999977,-0.0010019743,0.0024571042,0.03390628,-5.1790045E-4,-0.0012084345,0.64789236,2017-07-08 20:38:18,-Infinity
-0.009576807,0.02873042,10.170568,-0.005032779,0.0036844844,0.0095902495,75.0,6.2981254E-4,-0.0018815652,0.99999803,-0.0024583386,0.0018580891,0.031951606,-5.0330884E-4,-5.0330884E-4,0.64746755,2017-07-08 20:38:19,-Infinity
-0.02873042,-0.02873042,10.141838,-0.016811939,0.015950512,0.024664987,75.0,-6.315963E-4,-0.0037083367,0.99999285,-0.0012624357,-0.001111499,0.030979872,-0.0012328498,-0.0014130662,0.6487703,2017-07-08 20:38:20,-Infinity
-0.019153614,-0.02873042,10.132261,-0.0046392395,0.020104688,0.0062313215,75.0,-6.8143464E-4,-7.862705E-6,0.99999976,0.0017633638,-0.0018601137,0.03585899,-2.9901E-4,-5.7256053E-4,0.64733475,2017-07-08 20:38:21,-Infinity
-0.047884032,0.0,10.170568,0.016812487,0.0025148704,-0.03405168,75.0,-0.0016982678,-1.2599201E-4,0.99999857,-0.003122237,9.4494E-5,0.037814617,-8.097227E-4,4.8828113E-4,0.64696777,2017-07-08 20:38:22,-Infinity
0.0,-0.076614454,10.170568,0.0021026265,-0.015039348,-0.0015721984,75.0,4.2714967E-4,-0.0025838623,0.99999654,-0.0013861833,-3.5209395E-4,0.031953216,-0.0012567908,-5.1790045E-4,0.648128,2017-07-08 20:38:23,-Infinity
0.009576807,-0.019153614,10.170568,0.0024388083,0.0055507924,-0.0075599104,75.0,0.0014392042,9.925548E-4,0.9999985,-3.3909874E-4,-0.002988705,0.03781444,6.796587E-4,-8.0046855E-4,0.6472256,2017-07-08 20:38:24,-Infinity
-0.009576807,-0.047884032,10.141838,0.009856189,-0.005670102,-0.018668717,75.0,-9.5466385E-4,-0.0026588577,0.99999595,-0.0019535148,-0.0012899528,0.036839843,-0.0016468187,-9.6118264E-4,0.64865494,2017-07-08 20:38:25,-Infinity
-0.009576807,0.02873042,10.160992,0.008669481,0.007398325,-0.021482142,75.0,0.0014496071,-0.0010537831,0.9999984,-0.0023298494,0.0038439105,0.03683728,-5.5939646E-4,-0.0013864522,0.6479882,2017-07-08 20:38:26,-Infinity
-0.019153614,-0.02873042,10.132261,0.011203484,0.0072334884,-0.025262838,75.0,-4.4484038E-4,-0.0019363638,0.99999803,-0.0023979745,0.002829481,0.042701066,-7.6232885E-4,-8.368719E-4,0.6479218,2017-07-08 20:38:27,-Infinity
0.02873042,-0.009576807,10.132261,0.0025911394,-0.0022573024,-0.0048389426,74.0,4.474371E-4,-0.0015673386,0.9999986,0.0023350364,5.6147575E-4,0.033905566,-9.216107E-4,-4.401308E-4,0.6477761,2017-07-08 20:38:28,-Infinity
-0.019153614,0.0,10.170568,0.04541489,0.004858182,-0.09279233,75.0,5.2341734E-6,-0.0035252245,0.9999938,6.280588E-5,0.0011544407,0.038795173,-0.0017731738,-0.0014077836,0.6492025,2017-07-08 20:38:29,-Infinity
-0.009576807,-0.047884032,10.170568,-0.0072355606,-2.715593E-4,0.014711336,74.0,6.804736E-4,-0.0037085824,0.99999285,-0.0015739354,-0.0010546162,0.037820637,-0.0011053937,-0.0010358009,0.64835835,2017-07-08 20:38:31,-Infinity
0.0,-0.038307227,10.132261,-0.010354138,0.004773888,0.019459052,75.0,0.0020087005,-8.197172E-4,0.9999977,3.754173E-5,-1.2875773E-4,0.0339064,7.5249193E-4,-0.0011320335,0.64775753,2017-07-08 20:38:32,-Infinity
-0.02873042,-0.02873042,10.160992,0.006194946,0.031491622,-0.018852314,75.0,-6.2837254E-4,-0.0021417039,0.99999756,7.227685E-4,1.1958182E-4,0.03390664,-6.342959E-4,-8.0046855E-4,0.6469687,2017-07-08 20:38:33,-Infinity
0.0,-0.05746084,10.151415,0.012211135,-0.0014879558,-0.023635246,75.0,-8.1227176E-5,-0.0026385756,0.99999654,-0.0046030898,6.2431954E-4,0.02999866,-0.0010139921,-9.3763985E-4,0.64723915,2017-07-08 20:38:34,-Infinity
-0.02873042,-0.009576807,10.113108,0.0022961283,-0.0022845706,-0.0044858446,75.0,-0.0011946146,-4.3654404E-4,0.9999992,-0.0016454417,-5.380234E-4,0.031950653,-3.4526695E-4,2.9900996E-4,0.64632154,2017-07-08 20:38:35,-Infinity
0.047884032,-0.019153614,10.141838,-0.0044985134,-0.0029815377,0.010454795,75.0,-3.0143827E-4,8.754819E-4,0.9999995,0.0012288685,-0.0028352025,0.033904552,-7.012403E-4,5.9801975E-4,0.6466816,2017-07-08 20:38:36,-Infinity
0.038307227,-0.02873042,10.170568,-3.367946E-4,-0.011700282,0.0042489916,75.0,6.3742226E-4,-0.0023319689,0.99999714,0.0031219223,-6.0221995E-4,0.037816048,-9.991885E-4,-6.1035156E-4,0.64793026,2017-07-08 20:38:37,-Infinity
-0.02873042,0.009576807,10.218452,0.014678627,0.0120164305,-0.031097397,75.0,-8.058099E-4,-5.572648E-4,0.9999995,0.0018564285,0.0033398771,0.035859108,-5.725605E-4,-4.5674524E-4,0.6469612,2017-07-08 20:38:38,-Infinity
0.019153614,-0.038307227,10.170568,1.2376264E-4,0.0015593712,-7.6628546E-4,75.0,-0.0011278893,-0.0015178098,0.99999815,0.0030219527,-0.002401838,0.037814796,-8.631675E-4,-3.45267E-4,0.6475302,2017-07-08 20:38:39,-Infinity
0.019153614,0.0,10.103531,0.042234752,0.0030018594,-0.08464989,74.0,6.190564E-4,-0.0025863966,0.9999964,-0.002458227,0.0014472005,0.039770603,-0.0011772036,-0.001480024,0.6487645,2017-07-08 20:38:40,-Infinity
-0.02873042,-0.009576807,10.228029,0.013968056,-0.008287769,-0.026765876,75.0,8.009072E-4,-0.0027168037,0.999996,-0.0026976923,0.002679859,0.040748715,-8.7175646E-4,-7.425248E-4,0.647891,2017-07-08 20:38:41,-Infinity
-0.019153614,-0.038307227,10.151415,0.0014189832,0.0030706688,-0.0038285211,75.0,5.7001406E-4,-0.003399071,0.9999941,3.7835073E-4,0.0013236001,0.033909738,-0.0010213135,-0.0010918301,0.6483199,2017-07-08 20:38:42,-Infinity
0.009576807,0.009576807,10.141838,-0.002976001,-0.011489736,0.008659904,75.0,0.0015711519,-2.461471E-4,0.99999875,-6.8860117E-4,1.8858408E-4,0.03195113,-0.0,-3.45267E-4,0.6469357,2017-07-08 20:38:43,-Infinity
-0.038307227,0.0,10.170568,0.009500716,0.014623925,-0.021602074,74.0,-6.3964305E-4,-0.0018769857,0.99999803,-0.003059445,0.0018562183,0.03976959,-0.0,-7.2217773E-4,0.6404807,2017-07-08 20:38:44,-Infinity
-0.019153614,0.009576807,10.170568,0.013328422,-0.0011531446,-0.02594448,75.0,0.0015173684,-0.0034042518,0.9999931,4.1329034E-4,-4.1770167E-4,0.03684318,-4.4013077E-4,-0.0012627051,0.64121175,2017-07-08 20:38:45,-Infinity
-0.009576807,0.0,10.132261,-0.017250564,0.012203897,0.027626717,74.0,1.3081613E-4,-0.0017006109,0.9999986,0.00182885,-0.0010790711,0.031951487,-5.1790045E-4,-5.9802E-4,0.64056134,2017-07-08 20:38:46,-Infinity
0.009576807,0.0,10.237606,0.016200889,0.0016508952,-0.033134654,75.0,-8.107331E-4,-0.0020634467,0.9999976,-1.9254367E-4,0.0028604604,0.035860717,-0.0012918708,-2.4414065E-4,0.64094204,2017-07-08 20:38:47,-Infinity
0.009576807,-0.009576807,10.160992,0.019348402,-0.0020222755,-0.037165437,74.0,0.0013357244,-1.3357248E-4,0.9999991,0.005394628,2.2003567E-4,0.03292793,2.4414063E-4,-7.2217773E-4,0.64008915,2017-07-08 20:38:48,-Infinity
-0.019153614,-0.009576807,10.113108,-0.006817405,-0.019634245,0.02244875,75.0,0.0011144357,-0.0038231704,0.9999921,-0.0031502745,0.0027675934,0.031957448,-0.0014950499,-7.7204045E-4,0.6415154,2017-07-08 20:38:49,-Infinity
-0.009576807,0.009576807,10.132261,0.021979444,0.012100689,-0.047876365,75.0,-7.5594854E-4,-0.003206897,0.9999946,-0.0029674335,1.12402486E-4,0.040749848,-0.0011320335,-0.0013033543,0.64165735,2017-07-08 20:38:50,-Infinity
0.019153614,-0.019153614,10.151415,-0.011153886,-0.011827724,0.028627735,74.0,0.0023840268,0.0016224984,0.9999959,-4.3209945E-4,-0.0036501558,0.035862863,4.228639E-4,-7.816313E-4,0.63986313,2017-07-08 20:38:51,-Infinity
-0.047884032,-0.019153614,10.237606,0.007447239,-0.011586576,-0.0075092744,74.0,0.0012466683,-0.0015766686,0.99999803,-0.0013200465,-0.0013601913,0.036837995,-5.5939646E-4,-5.033088E-4,0.640521,2017-07-08 20:38:52,-Infinity
-0.009576807,-0.02873042,10.180145,-0.010442972,-0.002891495,0.053316638,75.0,0.0016913044,-5.008355E-4,0.9999985,-0.0025820564,5.6641083E-4,0.03586012,3.4526695E-4,-7.6232874E-4,0.64002246,2017-07-08 20:38:53,-Infinity
0.009576807,-0.038307227,10.180145,-0.0309444,-0.014262354,0.06541469,74.0,0.0016307941,-1.5731097E-5,0.9999987,-0.0016048321,-0.00564308,0.033905447,1.7263349E-4,-4.567453E-4,0.6466202,2017-07-08 20:38:54,-Infinity
-0.009576807,-0.009576807,10.170568,-0.010933657,0.026669629,0.012565468,74.0,-0.0013809125,-0.0024047843,0.9999962,-0.0023652602,-0.0033431207,0.034885883,-0.0010849846,-0.0012145842,0.648467,2017-07-08 20:38:55,-Infinity
0.0,-0.076614454,10.208876,-0.016411813,0.016123738,0.026202403,75.0,0.0020796335,-0.002514419,0.9999947,-0.0010027126,-0.0012061277,0.03781873,4.0486144E-4,-0.0015584894,0.64226025,2017-07-08 20:38:56,-Infinity
0.009576807,-0.047884032,10.170568,0.0036613708,0.014992259,-0.013525927,74.0,-0.0017187952,-5.101446E-4,0.9999984,-0.0067857374,-0.0014835233,0.036838114,-4.727763E-4,3.6621094E-4,0.64108366,2017-07-08 20:38:57,-Infinity
-0.02873042,0.009576807,10.189722,0.023859072,0.0019144819,-0.04903855,74.0,0.0025744399,-0.0021969248,0.9999942,-0.0017590369,0.0012243644,0.044659853,-6.573688E-4,-8.8868535E-4,0.647806,2017-07-08 20:38:58,-Infinity
0.0,0.0,10.208876,0.033733904,0.0065770335,-0.068844624,74.0,5.5996806E-4,-0.0020269265,0.9999978,-0.0034048755,-9.319617E-5,0.036837757,-0.0010066176,-0.0012567908,0.6484384,2017-07-08 20:38:59,-Infinity
-0.009576807,-0.038307227,10.1226845,-0.025095869,0.005534396,0.046936642,74.0,0.0010621428,1.1510892E-4,0.9999994,-0.001919081,-0.0038775052,0.036836386,6.224389E-4,-1.7263349E-4,0.6396337,2017-07-08 20:39:00,-Infinity
-0.02873042,-0.047884032,10.0748005,-0.010944132,-0.005134839,0.02495057,74.0,5.0735835E-4,-0.003025748,0.9999953,0.0014182769,-7.5493986E-4,0.037818253,-0.0013203924,-6.796587E-4,0.6412594,2017-07-08 20:39:01,-Infinity
-0.009576807,-0.047884032,10.103531,-0.0137445,-0.008123276,0.029592767,74.0,4.5845428E-4,-0.0012574749,0.9999991,0.0061804075,-6.026757E-4,0.034882605,-5.9802004E-4,-2.4414065E-4,0.6403782,2017-07-08 20:39:02,-Infinity
-0.009576807,-0.06703765,10.0748005,-0.021843378,0.013045538,0.037010342,74.0,0.0016856083,1.278557E-4,0.99999857,-0.0025746177,-1.566071E-4,0.029019296,4.4013077E-4,-4.4013077E-4,0.63988787,2017-07-08 20:39:03,-Infinity
-0.009576807,-0.076614454,10.132261,-0.0063948417,0.008180703,0.008859237,74.0,0.0014454515,-0.002712517,0.9999953,-0.0022678263,-0.0021160548,0.0368405,-0.0,-0.0012976252,0.6409854,2017-07-08 20:39:04,-Infinity
0.02873042,0.0,10.151415,0.016315207,0.009052089,-0.036228787,74.0,0.002446352,-0.0018131788,0.9999954,-0.0014091744,0.002672825,0.03684026,3.4526695E-4,-0.0018391744,0.64096975,2017-07-08 20:39:05,-Infinity
0.009576807,-0.02873042,10.160992,0.0107652275,-0.008561968,-0.021013822,74.0,0.0012435184,-0.0014948401,0.99999815,-0.0031168372,0.0033053323,0.037814677,-1.7263349E-4,-6.224389E-4,0.64035946,2017-07-08 20:39:06,-Infinity
-0.02873042,-0.05746084,10.160992,0.003520882,0.0011058867,-0.007520245,74.0,-5.6923105E-4,-0.0023241413,0.99999714,-4.4206314E-4,0.0013837833,0.035861492,-6.342959E-4,-6.342959E-4,0.64067894,2017-07-08 20:39:07,-Infinity
0.06703765,-0.019153614,10.141838,0.050221942,-0.001062106,-0.09816818,74.0,-8.2812534E-4,6.112976E-4,0.9999994,-0.002116629,0.0013274915,0.037813663,-6.1035156E-4,-4.4013077E-4,0.6402531,2017-07-08 20:39:08,-Infinity
0.009576807,0.019153614,10.151415,0.020938445,0.00875341,-0.044618286,74.0,-0.0013051224,-0.0012658902,0.9999984,0.0022955316,-6.047557E-4,0.03488332,-4.228639E-4,-6.459353E-4,0.6402159,2017-07-08 20:39:09,-Infinity
-0.019153614,-0.047884032,10.189722,0.012633493,-0.0039052842,-0.022586934,74.0,0.0017553758,-0.0032844215,0.9999931,-0.0036912619,0.0013612811,0.03391123,-4.22864E-4,-0.0015916022,0.64142257,2017-07-08 20:39:10,-Infinity
0.009576807,-0.009576807,10.103531,0.019155819,4.4617092E-4,-0.038081966,74.0,-2.4060113E-4,-0.0015011426,0.99999887,0.0021741337,0.0033039346,0.039768398,-7.0124055E-4,-7.4252475E-4,0.64081806,2017-07-08 20:39:11,-Infinity
0.009576807,-0.019153614,10.180145,-0.005426583,-0.0041712136,0.0128846895,75.0,0.0016238552,-0.0010047439,0.99999815,-0.0035286066,0.0010074597,0.0348832,5.1790033E-4,-6.2243873E-4,0.6398687,2017-07-08 20:39:12,-Infinity
0.0,0.02873042,10.1226845,0.030571584,0.006987699,-0.063928366,74.0,9.4053557E-4,-0.0035106349,0.99999344,-0.001889055,0.0033328957,0.03586459,-0.0011897943,-0.0015962764,0.64195955,2017-07-08 20:39:13,-Infinity
0.019153614,-0.019153614,10.160992,-0.020749256,0.004797983,0.038707208,74.0,6.54728E-5,-0.0011366071,0.9999994,9.4578747E-4,-0.002619958,0.031950593,-5.0330866E-4,-4.2286387E-4,0.6458166,2017-07-08 20:39:14,-Infinity
-0.019153614,-0.019153614,10.132261,-0.0070698545,0.009959868,0.010845738,75.0,-2.612082E-6,0.001744843,0.9999985,-0.0017977156,-0.0036158385,0.033905566,7.52492E-4,2.4414065E-4,0.6498838,2017-07-08 20:39:15,-Infinity
0.019153614,-0.05746084,10.228029,-0.016716324,0.001435512,0.03290713,74.0,0.0018883717,-0.002252426,0.99999577,-5.6981575E-5,2.769814E-4,0.034885943,-2.4414063E-4,-0.0014024811,0.6470957,2017-07-08 20:39:16,-Infinity
0.019153614,-0.019153614,10.151415,0.026189502,-0.0022490213,-0.050492544,74.0,-7.7740435E-4,-0.0013139967,0.99999887,-0.005015282,0.0040938435,0.039768517,-9.4555266E-4,-1.726335E-4,0.64656997,2017-07-08 20:39:18,-Infinity
0.009576807,-0.02873042,10.141838,-0.01487283,0.020003738,0.018625112,75.0,4.3911216E-4,9.383406E-4,0.9999994,-0.0033079335,-0.0017610958,0.04465401,0.0011708571,5.725604E-4,0.6390891,2017-07-08 20:39:19,-Infinity
-0.019153614,-0.038307227,10.170568,-0.0077614924,-9.88708E-4,0.016197618,75.0,0.002637256,-0.0031432104,0.9999916,-6.8786903E-4,-7.94739E-4,0.03391248,-4.2286396E-4,-0.0013147375,0.64115614,2017-07-08 20:39:20,-Infinity
0.009576807,0.0,10.208876,-0.017657086,8.476132E-4,0.034188986,74.0,-5.630517E-4,-0.0018698554,0.99999803,0.0014171716,0.0019169095,0.041723907,-6.9053395E-4,-2.4414063E-4,0.6400932,2017-07-08 20:39:21,-Infinity
-0.009576807,-0.019153614,10.160992,7.458845E-4,-0.018006494,0.0024318825,74.0,-6.28063E-5,-5.7572623E-5,1.0,9.772249E-4,9.772251E-4,0.039767504,-5.320922E-4,1.2207031E-4,0.639753,2017-07-08 20:39:22,-Infinity
-0.047884032,-0.02873042,10.199299,0.013911592,0.019756151,-0.030859338,74.0,3.8007324E-4,-0.0028833128,0.99999577,-0.0021431646,0.00279926,0.039771438,-7.0124055E-4,-0.0016148385,0.64162076,2017-07-08 20:39:23,-Infinity
-0.038307227,0.009576807,10.180145,-0.018373705,-0.005669911,0.039249357,74.0,0.0019274427,-8.787256E-4,0.9999977,-0.0028289566,-9.501213E-4,0.035860837,0.0,-6.796587E-4,0.63997924,2017-07-08 20:39:24,-Infinity
0.0,0.009576807,10.141838,0.0019038343,0.0045711733,-0.005491718,75.0,0.0018847742,-0.0023219371,0.9999955,1.321627E-4,-5.4385024E-4,0.034885943,4.8828113E-4,-0.0012448775,0.6406211,2017-07-08 20:39:25,-Infinity
-0.009576807,-0.038307227,10.093954,0.001307105,0.0022540602,-0.0036703357,74.0,5.7664016E-5,-0.0035227484,0.9999938,-0.0010401396,-3.227766E-4,0.032933354,-7.7204045E-4,-0.0010641844,0.641174,2017-07-08 20:39:26,-Infinity
0.019153614,0.009576807,10.208876,0.018777993,0.0069927587,-0.040766086,75.0,0.0011830705,-3.724967E-4,0.99999917,-0.00387617,0.002332248,0.029995918,3.4526698E-4,-3.4526698E-4,0.63994265,2017-07-08 20:39:27,-Infinity
0.02873042,-0.02873042,10.132261,-0.004607576,-0.008481878,0.013363684,75.0,5.68807E-4,-0.003336827,0.9999942,0.0022395942,-0.0016459266,0.0319553,-0.0010780958,-0.0010358009,0.6413415,2017-07-08 20:39:28,-Infinity
0.047884032,-0.019153614,10.141838,-0.011881204,-0.0086973645,0.026581889,75.0,9.3805103E-4,-0.002507584,0.9999964,-2.8997427E-5,4.667733E-4,0.033907652,-6.90534E-4,-0.001268592,0.6413039,2017-07-08 20:39:29,-Infinity
0.019153614,0.009576807,10.180145,0.03257547,0.008651707,-0.0682454,75.0,6.2801706E-4,-9.498756E-4,0.9999993,0.0013265663,0.0018248684,0.03879094,-2.9900996E-4,-9.216105E-4,0.640649,2017-07-08 20:39:30,-Infinity
-0.009576807,-0.038307227,10.093954,0.012108637,0.02282749,-0.03166134,75.0,0.001001742,-0.0017097797,0.99999803,-0.00280396,-0.0012641196,0.036837637,-2.4414063E-4,-0.0014235722,0.64109236,2017-07-08 20:39:31,-Infinity
-0.019153614,0.0,10.160992,-0.0041566975,-0.005361938,0.008642749,75.0,-3.9038685E-4,-0.0018785723,0.99999815,-0.0015143654,0.0017289043,0.03683752,-0.0012145842,-6.1035156E-4,0.64110917,2017-07-08 20:39:32,-Infinity
-0.02873042,-0.02873042,10.189722,0.012350911,-0.0025880595,-0.023871012,75.0,-3.2482238E-4,-0.002247562,0.9999974,-0.0025544958,0.00406037,0.03976983,-4.567453E-4,-6.4593536E-4,0.64048916,2017-07-08 20:39:33,-Infinity
0.009576807,-0.019153614,10.132261,-0.021383567,0.004030534,0.03997067,75.0,1.860825E-4,-0.0025055609,0.9999968,8.5140765E-4,5.304436E-4,0.033907294,-9.296598E-4,-0.0010500886,0.647211,2017-07-08 20:39:34,-Infinity
0.0,0.0,10.103531,-0.0012698412,0.00490864,8.974015E-4,75.0,-5.031735E-4,4.455183E-4,0.99999976,-0.0013568157,4.739539E-4,0.032927275,-1.7263349E-4,-4.727763E-4,0.6461031,2017-07-08 20:39:35,-Infinity
0.02873042,-0.02873042,10.180145,0.0017504769,0.01293905,-0.008296015,75.0,9.519038E-4,-0.0030838542,0.9999948,0.001956286,2.1474273E-4,0.03879577,-6.459351E-4,-0.0013372129,0.65328336,2017-07-08 20:39:36,-Infinity
0.009576807,-0.05746084,10.189722,-0.0076360926,0.0012071227,0.014466908,75.0,0.0010685255,-0.0015713607,0.9999983,-0.0019201749,-0.0014229557,0.031951368,-2.4414063E-4,-0.0012685918,0.66621655,2017-07-08 20:39:37,-Infinity
0.009576807,0.019153614,10.218452,-6.44785E-4,0.016422007,-0.0010517761,75.0,0.0010667151,0.0012514393,0.9999986,9.4141E-6,6.744416E-4,0.04270047,2.441406E-4,-0.0010571599,0.66498774,2017-07-08 20:39:38,-Infinity
0.0,-0.047884032,10.189722,0.014279829,-0.004682993,-0.025463201,75.0,0.0014941434,-0.004822601,0.99998724,-0.0034932313,0.005687778,0.038802624,-0.0011451211,-0.0018593196,0.66343874,2017-07-08 20:39:39,-Infinity
0.009576807,-0.009576807,10.151415,0.0042419927,-0.0066897892,-0.005122346,75.0,0.001265875,-0.0023879,0.9999963,0.0024648625,5.569195E-4,0.034885705,-4.882813E-4,-7.52492E-4,0.6478363,2017-07-08 20:39:40,-Infinity
0.019153614,0.0,10.208876,3.4983607E-4,-0.0072802356,0.15587094,75.0,1.257358E-4,-0.0018781791,0.9999983,0.0017030207,0.0017285786,0.04172343,-0.0010139921,-5.854287E-4,0.64317626,2017-07-08 20:39:41,-Infinity
0.0,-0.038307227,10.180145,0.015157842,0.0095565785,-0.033818725,75.0,4.4523604E-4,-0.003142843,0.99999493,6.00153E-4,0.0011249727,0.038795173,-6.459354E-4,-0.0013483107,0.6474849,2017-07-08 20:39:42,-Infinity
-0.019153614,-0.019153614,10.151415,-0.0024249172,0.004167553,0.002417954,75.0,-0.0010083878,-0.0016317548,0.99999815,-9.800992E-4,-3.829163E-4,0.03586036,-4.8828125E-4,-5.7256053E-4,0.6464436,2017-07-08 20:39:43,-Infinity
0.038307227,-0.02873042,10.132261,0.0145705715,-0.007155207,-0.025429323,74.0,5.7655314E-5,-0.003396439,0.9999942,8.1998867E-4,0.0013789698,0.034887016,-0.0013971586,-6.796587E-4,0.647275,2017-07-08 20:39:44,-Infinity
0.02873042,-0.05746084,10.170568,-0.0107438825,-0.006510855,0.023348916,75.0,0.0026910212,-0.0023957922,0.99999344,2.0399317E-4,-0.0033551373,0.03781998,-4.228639E-4,-0.0016102177,0.6471385,2017-07-08 20:39:45,-Infinity
0.0,0.0,10.065224,-0.013533307,0.00843178,0.021533394,74.0,-0.0017499961,3.1128476E-4,0.9999984,0.0016955516,-0.0012284179,0.03097397,-5.1790033E-4,8.004684E-4,0.6451432,2017-07-08 20:39:46,-Infinity
0.019153614,-0.038307227,10.151415,-0.010443263,-0.009847326,0.024083626,75.0,0.0012593732,-0.00376241,0.9999922,6.034073E-4,-1.385482E-4,0.035866678,-9.991885E-4,-0.0011897943,0.6473839,2017-07-08 20:39:47,-Infinity
-0.009576807,0.02873042,10.180145,3.458017E-4,0.013327688,-0.004540749,75.0,-4.845767E-4,-0.0015585035,0.9999986,0.004348764,0.004345523,0.044654787,-3.229677E-4,-7.221778E-4,0.64651716,2017-07-08 20:39:48,-Infinity
0.019153614,-0.009576807,10.160992,-0.008165237,-0.002906125,0.01730259,74.0,-1.2323297E-4,-0.0013136115,0.99999917,0.0020173828,2.499607E-4,0.036836743,-4.567453E-4,-4.8828125E-4,0.64627564,2017-07-08 20:39:49,-Infinity
0.0,-0.009576807,10.160992,-5.280257E-4,-0.001992334,0.002004933,75.0,5.6654314E-4,-0.0017048756,0.9999984,2.5320455E-4,-0.0012003214,0.028042614,-0.0010849846,-5.033088E-4,0.6468786,2017-07-08 20:39:50,-Infinity
0.0,-0.009576807,10.180145,0.004656121,0.01250447,-0.012288738,75.0,0.001985873,1.8788819E-4,0.9999979,-0.0058499756,0.0026812141,0.043678343,6.4593536E-4,-2.4414063E-4,0.6455331,2017-07-08 20:39:51,-Infinity
0.02873042,-0.047884032,10.189722,-0.010540396,0.0036575785,0.019000286,75.0,1.9377033E-4,-0.0043336456,0.9999906,0.002774553,-5.1811896E-4,0.03977704,-0.0015148527,-0.0012918707,0.6478355,2017-07-08 20:39:52,-Infinity
0.019153614,-0.038307227,10.093954,-0.01858227,0.030390376,0.025121091,75.0,-0.0019403268,1.3128212E-5,0.99999815,0.0029619732,0.0039719082,0.042701185,4.2286396E-4,2.4414063E-4,0.64508903,2017-07-08 20:39:53,-Infinity
0.019153614,-0.047884032,10.1226845,-8.8771165E-4,-2.1247586E-4,0.0017626754,75.0,0.0017637021,-0.0012063305,0.9999977,1.6425306E-4,-0.003567033,0.03292942,-4.8828113E-4,-0.001337213,0.6467607,2017-07-08 20:39:54,-Infinity
0.009576807,-0.038307227,10.160992,0.008295585,-0.005527532,-0.014907206,75.0,0.0016907181,-0.0038237448,0.99999124,-9.072395E-4,9.6288393E-4,0.037822366,-9.134906E-4,-0.0011320335,0.6413238,2017-07-08 20:39:55,-Infinity
0.0,-0.009576807,10.151415,-0.0029130424,-0.010022967,0.010231957,75.0,-0.0015683878,3.7379915E-4,0.99999875,0.0023575295,-2.82335E-4,0.03781408,-2.1143198E-4,7.2217773E-4,0.63937706,2017-07-08 20:39:56,-Infinity
-0.009576807,0.009576807,10.189722,0.008937513,-0.011424846,-0.009979352,75.0,1.20319746E-4,-0.0043969024,0.99999034,-2.1972985E-4,4.5430707E-4,0.031959295,-0.0017940599,-0.0014235722,0.6421818,2017-07-08 20:39:57,-Infinity
-0.009576807,-0.038307227,10.189722,0.0021221428,-0.004443731,-0.0034645894,75.0,0.0027985054,-0.0011167986,0.9999955,-0.0037259255,0.0010307624,0.039771855,4.228639E-4,-0.0016648169,0.640961,2017-07-08 20:39:59,-Infinity
0.038307227,-0.047884032,10.151415,0.028317198,-0.006478263,-0.05149643,75.0,0.0014538452,-0.0023329752,0.9999962,0.0013888113,0.0011953791,0.040748358,-9.765626E-4,-0.0013702359,0.64157444,2017-07-08 20:40:00,-Infinity
0.0,-0.009576807,10.093954,0.010132397,-0.0063480865,-0.016364003,75.0,0.0022113,5.606849E-4,0.9999974,0.0025593806,-0.0016060751,0.03683877,5.1790033E-4,-9.4555237E-4,0.64002377,2017-07-08 20:40:01,-Infinity
0.009576807,-0.019153614,10.1226845,-0.007884526,-0.009255817,0.014945832,75.0,2.6159448E-4,-3.1652945E-4,0.9999999,0.0036577233,-6.3185615E-4,0.03585875,4.4013077E-4,-2.4414063E-4,0.6396436,2017-07-08 20:40:02,-Infinity
0.009576807,0.02873042,10.189722,-0.0013520203,0.019343445,-0.003137138,75.0,-0.0016388017,-1.2304101E-4,0.9999986,-0.0021182518,9.424464E-5,0.039769113,-4.228639E-4,5.033087E-4,0.6397323,2017-07-08 20:40:03,-Infinity
0.047884032,-0.019153614,10.113108,-0.027471114,-0.0021315657,0.05470038,75.0,-3.6273524E-4,-0.0016336135,0.9999986,0.002267625,-0.0040469375,0.038792074,-4.228639E-4,-5.854286E-4,0.64011544,2017-07-08 20:40:04,-Infinity
-0.019153614,-0.038307227,10.160992,-0.004577848,0.0010246972,0.0087096095,75.0,-8.743282E-4,-0.0027041356,0.99999595,0.0028338162,-0.0022480278,0.036839843,-0.0012567908,-5.7256053E-4,0.64106256,2017-07-08 20:40:05,-Infinity
0.019153614,0.019153614,10.170568,0.0024329396,2.8488558E-4,-0.004718283,75.0,0.0011812939,1.8033021E-4,0.9999993,-0.0021374263,-0.0011967226,0.03879106,7.6232885E-4,-5.320922E-4,0.63974184,2017-07-08 20:40:06,-Infinity
-0.02873042,-0.009576807,10.132261,0.012976328,0.011193982,-0.031898044,75.0,-4.2407267E-4,-0.0017748238,0.9999983,0.0014483738,-0.004010165,0.036837757,-4.8828125E-4,-7.91106E-4,0.6407182,2017-07-08 20:40:07,-Infinity
0.0,-0.047884032,10.151415,-2.0047644E-4,0.020976854,-8.549879E-4,75.0,-9.3471276E-4,-0.0013719592,0.9999986,0.0038743296,0.003148479,0.035859764,-5.854287E-4,-5.854287E-4,0.6405847,2017-07-08 20:40:08,-Infinity
-0.009576807,-0.019153614,10.132261,0.010153442,-0.009945914,-0.015740504,74.0,0.0043288996,-0.0019018942,0.99998873,0.0024514976,-0.003982317,0.036847293,2.441406E-4,-0.0022375856,0.64158684,2017-07-08 20:40:09,-Infinity
0.0,0.009576807,10.141838,-0.0037492944,-0.013989347,0.013307572,75.0,5.1550096E-4,0.0015046353,0.99999875,0.0032181637,-0.0015070623,0.03683728,4.0486144E-4,1.7263349E-4,0.63938457,2017-07-08 20:40:10,-Infinity
0.02873042,-0.047884032,10.189722,0.010883009,-0.0048455424,-0.01835425,75.0,7.540573E-4,-0.0020788945,0.99999756,0.0010432192,-8.578389E-4,0.035861135,-5.459149E-4,-9.296596E-4,0.64055264,2017-07-08 20:40:11,-Infinity
-0.02873042,-0.009576807,10.151415,-0.008827923,-0.0023755643,0.018580865,74.0,3.133859E-4,0.001378898,0.999999,5.6976604E-4,-0.0014104357,0.034882486,5.179004E-4,3.8602017E-4,0.6394663,2017-07-08 20:40:12,-Infinity
0.009576807,0.0,10.113108,0.002291683,0.008391381,-0.007362975,74.0,9.4811403E-4,-0.0015845549,0.9999983,3.4245953E-5,-0.0030944655,0.03488356,-1.2207031E-4,-9.216106E-4,0.6405446,2017-07-08 20:40:13,-Infinity
0.02873042,0.0,10.141838,0.00887333,0.0011919197,-0.01806131,74.0,7.4428425E-4,-9.4276015E-4,0.9999993,-6.8941707E-4,-1.624595E-4,0.03879094,-0.0,-7.6232885E-4,0.64047444,2017-07-08 20:40:14,-Infinity
0.0,-0.076614454,10.1226845,-0.03148435,-0.001942466,0.06251935,74.0,0.0015573375,-5.6701695E-4,0.9999986,-0.0044049816,-0.0041651465,0.039768875,4.8828113E-4,-9.6118235E-4,0.6400385,2017-07-08 20:40:15,-Infinity
-0.009576807,0.0,10.132261,0.026604477,-0.008831258,-0.04717112,73.0,0.0029506334,-0.0014425316,0.9999946,-0.0019809667,0.0022675002,0.037818253,-2.4414063E-4,-0.00176475,0.6415344,2017-07-08 20:40:16,-Infinity
0.019153614,-0.038307227,10.180145,1.7254043E-4,-0.0037920435,0.0018107574,73.0,9.420428E-4,-4.3438643E-4,0.9999994,-2.779928E-5,0.0014483305,0.032927632,1.7263349E-4,-3.8602023E-4,0.6399118,2017-07-08 20:40:17,-Infinity
-0.009576807,-0.047884032,10.170568,-0.009102326,-0.0044534774,0.019486263,74.0,-6.548111E-5,-0.0023075568,0.9999974,0.0010400903,0.0031146437,0.035860956,-8.45728E-4,-9.1349066E-4,0.6410693,2017-07-08 20:40:18,-Infinity
0.02873042,-0.038307227,10.180145,-0.030472158,-0.0021196604,0.060336996,74.0,-9.566044E-4,-0.0018765173,0.9999978,-0.003816946,-6.76628E-5,0.037815392,-3.6621097E-4,-2.11432E-4,0.64000416,2017-07-08 20:40:19,-Infinity
0.019153614,-0.02873042,10.160992,0.027220529,0.006105693,-0.055405416,74.0,4.2910388E-4,-0.004960861,0.9999876,-0.0014483099,0.0020618238,0.029030561,-0.0013427736,-0.0014287964,0.6418874,2017-07-08 20:40:20,-Infinity
0.009576807,0.009576807,10.160992,0.023485262,0.0044998904,-0.04632858,74.0,1.20787794E-4,-0.001000438,0.9999995,-0.0040034037,0.0028049776,0.037813425,-0.0,-8.9702994E-4,0.6406448,2017-07-08 20:40:21,-Infinity
0.0,-0.009576807,10.208876,0.00411236,-0.026338916,-0.0051843044,74.0,0.0014319045,-0.0020822943,0.9999968,0.0013268479,-9.177737E-4,0.037816405,-9.296599E-4,-7.52492E-4,0.64100415,2017-07-08 20:40:22,-Infinity
-0.009576807,0.009576807,10.180145,0.0035122265,0.006726725,-0.008269099,74.0,3.8715533E-4,0.0014492171,0.99999887,0.0016404592,0.0014559167,0.035859764,7.324219E-4,2.9901E-4,0.6390346,2017-07-08 20:40:23,-Infinity
0.009576807,-0.08619126,10.141838,-0.0136580905,0.0076160775,0.023369482,74.0,3.1179076E-4,-0.00145153,0.999999,7.5712026E-4,-0.0033768355,0.02706474,-2.7295755E-4,-8.188726E-4,0.6406325,2017-07-08 20:40:24,-Infinity
0.0,0.009576807,10.141838,0.014588336,-0.011817023,-0.02057418,74.0,-6.845176E-4,-0.0011887616,0.9999991,0.0034960445,0.0020119022,0.035859346,-0.0010711626,-2.9901E-4,0.64062923,2017-07-08 20:40:25,-Infinity
0.02873042,-0.038307227,10.151415,-0.0037829548,0.01765995,-0.0025369336,73.0,-0.0010625912,-0.0037046394,0.9999926,0.0021104687,0.0026743375,0.032934308,-0.0010849846,-6.1035156E-4,0.64096975,2017-07-08 20:40:26,-Infinity
0.009576807,0.047884032,10.170568,0.02905767,-0.010052256,-0.050178457,73.0,-4.9352116E-4,7.875498E-6,0.9999999,0.002300874,0.0035939696,0.04172206,-7.8163145E-4,-2.7295755E-4,0.64037734,2017-07-08 20:40:27,-Infinity
-0.038307227,-0.047884032,10.151415,0.0013081656,0.032583643,-0.00515877,74.0,0.0016171155,-0.0030670327,0.99999404,-0.0053197714,2.662982E-4,0.03684199,-5.033088E-4,-0.001756286,0.641511,2017-07-08 20:40:28,-Infinity
0.019153614,-0.019153614,10.189722,0.013329196,-0.014047204,-0.022015952,74.0,-1.9894175E-4,-0.0015182393,0.99999887,-0.00277467,-0.0022760448,0.04660946,-0.0010500882,-5.4591487E-4,0.6403402,2017-07-08 20:40:29,-Infinity
-0.019153614,0.0,10.1226845,0.002869504,-0.016476111,0.0013465392,74.0,0.0024401394,-4.496377E-4,0.9999969,-0.007252572,-0.0024583861,0.035861492,2.1143198E-4,-7.2217773E-4,0.6400959,2017-07-08 20:40:30,-Infinity
0.019153614,-0.019153614,10.1226845,0.0023626138,0.008234797,-0.0063202465,74.0,0.0023857604,-0.0023151296,0.99999446,-0.0022286288,0.0013141821,0.035863698,2.1143198E-4,-0.0015000252,0.6409164,2017-07-08 20:40:31,-Infinity
0.009576807,-0.047884032,10.151415,-0.021440754,-0.0023404558,0.042554412,74.0,3.1944204E-4,-0.0020135334,0.9999979,6.31651E-4,-0.0017726228,0.040747106,-5.033088E-4,-4.0486144E-4,0.64037186,2017-07-08 20:40:32,-Infinity
0.02873042,0.038307227,10.228029,-0.0051044896,0.017189108,7.800497E-4,75.0,-5.227198E-5,1.3852112E-4,1.0,0.0030257457,0.003689403,0.043676376,4.5674533E-4,-1.726335E-4,0.639881,2017-07-08 20:40:33,-Infinity
-0.038307227,-0.009576807,10.170568,-0.014209067,-0.004186341,0.02957089,75.0,-4.354502E-4,-0.0017077,0.9999985,0.0031835085,-0.0029973765,0.033906043,-5.854286E-4,2.9900996E-4,0.63993824,2017-07-08 20:40:34,-Infinity
0.038307227,-0.038307227,10.141838,-0.025940418,-0.007481151,0.053900164,75.0,0.0010701265,-0.002336968,0.99999666,0.0017357335,-0.004385748,0.03390789,-3.45267E-4,-7.52492E-4,0.6405988,2017-07-08 20:40:35,-Infinity
0.02873042,0.019153614,10.180145,-0.0017528029,0.005980406,6.3341064E-4,75.0,-4.4567717E-4,-4.3781212E-4,0.99999976,-0.0023969666,-5.368768E-4,0.04074502,-3.4526698E-4,0.0,0.6396018,2017-07-08 20:40:36,-Infinity
-0.009576807,-0.038307227,10.132261,0.012476653,-0.017691562,-0.019423138,75.0,0.0014614685,-0.003392601,0.9999932,0.005108795,0.003243154,0.037819862,-0.0013702358,-0.0015049839,0.64195406,2017-07-08 20:40:38,-Infinity
0.009576807,0.038307227,10.170568,-0.017351588,-0.0026798602,0.03485391,75.0,6.838264E-4,-3.758435E-4,0.99999964,-0.0016351402,-0.0014531817,0.033904552,2.9900996E-4,-5.033087E-4,0.63973945,2017-07-08 20:40:39,-Infinity
0.009576807,-0.038307227,10.180145,-0.009903472,0.0011967347,0.018515714,75.0,0.002829534,-0.0044696154,0.99998605,1.0143779E-4,-0.0023436435,0.030009449,-7.6232885E-4,-0.002273918,0.64221334,2017-07-08 20:40:40,-Infinity
0.0,0.009576807,10.103531,-0.04445727,-0.005544835,0.08817871,75.0,6.9707725E-4,-0.0023270852,0.999997,0.004068287,-0.0024640653,0.026089787,-2.9901E-4,-1.7263349E-4,0.6400315,2017-07-08 20:40:41,-Infinity
0.047884032,-0.047884032,10.141838,0.012937965,0.016550537,-0.024073137,75.0,-4.4228818E-4,-0.0031405075,0.99999493,0.0015111591,0.0011235222,0.036840737,-0.0011835156,-0.0010358009,0.6414293,2017-07-08 20:40:42,-Infinity
-0.009576807,-0.02873042,10.189722,-0.0026175068,-8.123426E-4,0.00567083,75.0,0.0028146575,-0.0031419431,0.9999911,-0.003680754,-6.7095296E-4,0.030004323,-4.727763E-4,-0.0018147057,0.64139336,2017-07-08 20:40:43,-Infinity
0.0,-0.009576807,10.113108,-0.019298717,0.0040055923,0.035068393,75.0,6.270257E-4,-0.002951481,0.9999955,-5.9817755E-4,0.002045146,0.031954467,-8.2792115E-4,-5.9802E-4,0.6408118,2017-07-08 20:40:44,-Infinity
-0.02873042,-0.02873042,10.160992,-0.011570875,-0.017675838,0.020169752,75.0,-3.820206E-4,-8.817877E-4,0.9999995,2.8261868E-4,-0.0011379959,0.037813425,-0.0011320335,3.8602023E-4,0.6404301,2017-07-08 20:40:45,-Infinity
0.019153614,0.009576807,10.170568,0.020582043,6.4742705E-4,-0.039986424,75.0,3.201065E-4,-9.550717E-4,0.9999994,6.9385E-4,3.0330964E-5,0.035859227,-6.796587E-4,-1.7263349E-4,0.64036524,2017-07-08 20:40:46,-Infinity
-0.009576807,0.019153614,10.170568,0.005512895,0.0034347204,-0.012098848,75.0,0.0012494839,-0.0018820683,0.9999975,-0.0011294094,-1.3484596E-4,0.03390652,-3.4526695E-4,-0.001138596,0.6408225,2017-07-08 20:40:47,-Infinity
0.019153614,0.009576807,10.132261,-0.0033657644,-0.0106433015,0.011648083,75.0,0.0025229421,-7.623842E-4,0.99999654,0.0033798628,-0.0012942827,0.03586197,1.7263349E-4,-0.0015000252,0.64071226,2017-07-08 20:40:48,-Infinity
-0.009576807,0.02873042,10.151415,0.011947332,0.012791098,-0.02528347,75.0,1.2824581E-4,-0.002635586,0.99999654,-9.4205876E-5,4.9490714E-4,0.037816048,-3.8602023E-4,-0.0013810679,0.64127856,2017-07-08 20:40:49,-Infinity
0.019153614,0.038307227,10.151415,0.016417565,-0.007395839,-0.027116617,75.0,-4.5025352E-4,1.9371365E-4,0.9999999,-4.7452305E-4,9.1438746E-4,0.03488159,3.8602017E-4,6.686066E-4,0.6331448,2017-07-08 20:40:50,-Infinity
0.009576807,-0.009576807,10.189722,0.013057308,-0.0057555763,-0.021811496,75.0,8.20848E-4,-0.0022553643,0.99999714,0.0020505097,0.0041888338,0.035861492,-8.2792115E-4,-7.7204045E-4,0.6348979,2017-07-08 20:40:51,-Infinity
-0.019153614,0.0,10.1226845,-0.0139271375,-0.002504814,0.027809244,75.0,0.0019367788,-3.8997296E-4,0.99999803,-9.7006815E-4,-0.0051723756,0.037815273,5.459151E-4,-7.911061E-4,0.6338233,2017-07-08 20:40:52,-Infinity
0.0,-0.019153614,10.151415,0.02073891,-0.002648899,-0.037482847,75.0,0.0017485673,0.0015682216,0.99999726,-0.0036169826,0.0013005119,0.0319525,5.9802E-4,-0.0,0.6335543,2017-07-08 20:40:53,-Infinity
0.038307227,-0.019153614,10.132261,-0.02304698,0.0240148,0.03161296,75.0,-3.8478957E-4,6.0204904E-5,0.99999994,-0.0052978466,-0.0029002582,0.033904374,-3.6621094E-4,-2.4414063E-4,0.6339219,2017-07-08 20:40:54,-Infinity
-0.019153614,-0.02873042,10.084377,-0.0036898262,-0.008954815,0.011896625,75.0,0.0013389618,3.308023E-4,0.99999905,5.8933476E-4,-0.002248475,0.034882486,2.9900996E-4,-3.4526695E-4,0.6337534,2017-07-08 20:40:55,-Infinity
0.009576807,0.038307227,10.208876,0.020730529,0.00893198,-0.04367071,75.0,0.0021314428,-9.4411155E-4,0.99999726,-0.0021649033,-3.596273E-5,0.039770246,1.7263349E-4,-9.134906E-4,0.63438374,2017-07-08 20:40:56,-Infinity
0.019153614,-0.06703765,10.113108,-0.0028243826,-0.0023838112,0.006399532,75.0,7.53262E-4,-1.4646765E-4,0.99999964,-7.532955E-4,-0.005549478,0.032927275,0.0,-3.4526698E-4,0.6339198,2017-07-08 20:40:57,-Infinity
0.019153614,-0.019153614,10.151415,0.011812331,0.0027284184,-0.024936058,75.0,1.3586106E-4,-0.0012514915,0.9999992,0.0018290586,0.0029889322,0.035859227,-7.117861E-4,-0.0012918707,0.64128226,2017-07-08 20:40:58,-Infinity
0.02873042,-0.009576807,10.151415,0.010522807,0.018855399,-0.02310904,75.0,7.085529E-5,-0.0020731818,0.9999978,9.457423E-4,0.002929178,0.04074675,-3.6621094E-4,-0.0010849846,0.64089084,2017-07-08 20:40:59,-Infinity
-0.009576807,0.0,10.189722,-0.012380211,0.006525574,0.016799018,75.0,2.5957735E-4,-0.0015128899,0.99999887,0.001671307,-0.0022729617,0.03683728,-2.9901E-4,-7.324219E-4,0.64047694,2017-07-08 20:41:00,-Infinity
0.0,0.009576807,10.132261,-0.0041604773,6.0982315E-4,0.008137204,75.0,0.0014613064,-7.398026E-4,0.9999986,0.0033175005,0.0026760178,0.034882963,5.9802E-4,-5.7256053E-4,0.63983965,2017-07-08 20:41:01,-Infinity
0.019153614,0.0,10.141838,-0.0035225074,0.012596012,0.0021023245,75.0,-8.9228427E-4,-0.0026584826,0.99999607,-0.004855354,-0.0032173584,0.027067661,-0.0012685918,-5.9802E-4,0.64112735,2017-07-08 20:41:02,-Infinity
0.0,-0.02873042,10.141838,0.00647489,-0.0063537494,-0.009406835,75.0,0.0012623962,-0.0010738223,0.9999986,-0.0013203373,-0.0017999578,0.034882963,-5.320922E-4,-6.342959E-4,0.6405235,2017-07-08 20:41:03,-Infinity
0.009576807,-0.06703765,10.151415,-0.02178684,-0.00962182,0.04569479,75.0,3.7467593E-4,-0.0022035146,0.9999975,0.0015772237,-0.002497022,0.043679357,-4.22864E-4,-5.725606E-4,0.64046144,2017-07-08 20:41:04,-Infinity
0.019153614,0.009576807,10.199299,-0.013368126,-0.0013771302,0.024275146,75.0,8.714723E-4,0.001315036,0.99999875,0.0011403994,-3.0647044E-4,0.040745914,6.2243897E-4,-0.0,0.63941187,2017-07-08 20:41:05,-Infinity
0.019153614,-0.02873042,10.228029,0.012558037,0.01939157,-0.027862815,75.0,-6.801562E-4,-0.004398694,0.9999901,0.0017019017,0.0042535365,0.037822425,-0.0012388784,-0.0016513366,0.64199996,2017-07-08 20:41:06,-Infinity
0.02873042,0.0,10.170568,0.0040198923,-0.004062838,-0.0050206957,75.0,7.0187493E-12,-4.8966974E-4,0.9999999,0.0019230224,0.0024258667,0.037813187,3.6621097E-4,-5.0330884E-4,0.63987964,2017-07-08 20:41:07,-Infinity
0.009576807,-0.02873042,10.151415,0.0012477647,0.0056445366,-0.0036582686,75.0,0.0018328135,-0.0050795106,0.9999854,0.0010469847,0.0021569887,0.040759504,-8.2792115E-4,-0.00209307,0.63609535,2017-07-08 20:41:08,-Infinity
-0.02873042,0.038307227,10.151415,0.020229436,0.0027772647,-0.040333923,75.0,2.3846864E-4,-0.001381022,0.999999,-0.0019858987,0.0013522849,0.035859525,-3.45267E-4,-0.0011451212,0.63503706,2017-07-08 20:41:09,-Infinity
0.019153614,-0.009576807,10.151415,-0.027350571,0.016828133,0.04498417,75.0,-0.0022641458,-0.002778964,0.99999356,0.0023321616,-0.0029954212,0.036842704,-7.3242193E-4,-6.2243897E-4,0.6346317,2017-07-08 20:41:10,-Infinity
-0.009576807,0.009576807,10.189722,-0.008233528,-0.0019431522,0.016869947,75.0,3.0443814E-4,-0.0019394817,0.99999803,-0.0012921654,0.0028353732,0.039769232,-4.4013077E-4,-8.1887253E-4,0.6347373,2017-07-08 20:41:11,-Infinity
0.009576807,0.0,10.141838,0.017840423,0.005336555,-0.03689687,75.0,5.780097E-4,0.0012558574,0.9999991,0.0024272306,6.6181016E-4,0.036836922,5.980199E-4,-4.228639E-4,0.6334703,2017-07-08 20:41:12,-Infinity
0.019153614,-0.009576807,10.1226845,0.019213427,0.0035794638,-0.038512908,75.0,0.0012578833,9.3099027E-4,0.99999875,7.304613E-4,-0.0020129078,0.03292817,2.7295755E-4,-6.573688E-4,0.64000636,2017-07-08 20:41:13,-Infinity
-0.038307227,-0.019153614,10.141838,-0.00984019,-0.0056080865,0.02132478,75.0,-0.0010123197,-2.6681295E-4,0.9999994,-9.81383E-4,-0.0034694509,0.03488207,-5.179005E-4,1.726335E-4,0.639607,2017-07-08 20:41:14,-Infinity
0.076614454,0.009576807,10.180145,0.021925118,-0.014467601,-0.031794447,74.0,0.0012672938,-0.0021941988,0.9999968,0.006372718,0.00295636,0.038793325,-0.0010918301,-0.0012918707,0.6415425,2017-07-08 20:41:15,-Infinity
0.0,-0.019153614,10.151415,0.005874049,-0.0054562404,-0.008644702,74.0,-0.002387159,-9.3809323E-4,0.99999666,3.101218E-4,0.0018893445,0.034884453,-9.611826E-4,8.9702994E-4,0.6397255,2017-07-08 20:41:16,-Infinity
-0.038307227,-0.038307227,10.132261,0.030436188,0.008018349,-0.06239607,74.0,-0.0015056544,-0.004271249,0.9999898,-0.0023404858,3.571869E-4,0.033914506,-0.0020243074,-0.0015584895,0.6424277,2017-07-08 20:41:17,-Infinity
0.019153614,0.038307227,10.170568,0.03115571,-0.006050203,-0.056098226,74.0,0.001009292,-3.7815858E-4,0.9999994,0.0027820347,0.002204865,0.032927632,-2.4414063E-4,-7.4252475E-4,0.64042705,2017-07-08 20:41:18,-Infinity
-0.019153614,-0.02873042,10.1226845,0.003230748,-0.0019101513,-0.0059484523,73.0,7.554187E-4,-0.0053430134,0.99998546,-0.0027413198,0.0024190382,0.03294152,-0.0012267915,-0.0013971587,0.6417276,2017-07-08 20:41:19,-Infinity
-0.009576807,-0.019153614,10.170568,0.010311141,0.0011117527,-0.020226348,73.0,0.0018886746,8.603961E-4,0.9999978,1.2894627E-4,-0.0046957554,0.03976947,3.8602017E-4,-0.0013033542,0.64036256,2017-07-08 20:41:20,-Infinity
0.019153614,-0.038307227,10.132261,-0.03396359,-0.012498048,0.071138024,73.0,1.9055103E-4,-3.8632352E-4,0.9999999,0.0017038293,-0.0071077067,0.032927275,1.726335E-4,3.6621097E-4,0.6393572,2017-07-08 20:41:21,-Infinity
-0.009576807,0.0,10.065224,0.013042898,0.008079862,-0.028526533,75.0,2.618877E-4,-0.0010711201,0.9999994,0.0016715738,1.228496E-4,0.037813783,2.9901E-4,-8.457279E-4,0.6401364,2017-07-08 20:41:23,-Infinity
-0.009576807,-0.038307227,10.151415,1.022201E-4,0.012186047,6.4270303E-4,75.0,0.0018272423,-0.0023943183,0.9999955,-6.925317E-4,4.3991883E-4,0.030976772,-4.5674518E-4,-0.0014495043,0.6409773,2017-07-08 20:41:24,-Infinity
0.02873042,-0.047884032,10.141838,-0.011755141,-0.006043279,0.025640849,75.0,-3.250571E-4,-0.0015073214,0.99999887,-6.941889E-4,-3.5057787E-4,0.045632184,-5.5939646E-4,-5.5939646E-4,0.63450587,2017-07-08 20:41:25,-Infinity
-0.019153614,-0.02873042,10.151415,-0.0029938098,0.003126283,0.0048244083,75.0,-9.445193E-4,-0.0034002697,0.9999938,6.200769E-5,-5.0777453E-4,0.036842227,-0.0014183288,-3.2296768E-4,0.6350897,2017-07-08 20:41:26,-Infinity
0.019153614,-0.009576807,10.1226845,0.017034883,0.0109837605,-0.036264375,75.0,6.190195E-4,-0.0033311646,0.9999942,-0.0023952397,6.5761013E-4,0.032933474,-5.033088E-4,-0.00105716,0.6349269,2017-07-08 20:41:27,-Infinity
0.019153614,0.009576807,10.180145,0.0020027875,0.0063798237,-0.006885712,75.0,5.697271E-4,-8.2439766E-4,0.9999995,3.7846086E-4,-2.939487E-7,0.03390491,2.9901E-4,-5.1790045E-4,0.6339259,2017-07-08 20:41:28,-Infinity
-0.009576807,-0.047884032,10.1226845,0.010704168,-0.011008999,-0.015689505,75.0,5.2271885E-6,-0.0026815573,0.9999964,0.0037207664,0.0036424599,0.041725516,-5.1790045E-4,-5.4591504E-4,0.63452446,2017-07-08 20:41:29,-Infinity
0.019153614,0.019153614,10.151415,0.019722996,0.0012696561,-0.038034234,75.0,-1.0452922E-4,0.0022186337,0.9999975,0.0020171683,-3.4521148E-4,0.035861254,6.9053395E-4,4.567453E-4,0.6328119,2017-07-08 20:41:30,-Infinity
0.009576807,-0.019153614,10.151415,0.021719316,-0.02373735,-0.02830534,75.0,0.002744318,-0.003008044,0.9999917,-9.591512E-4,8.3383545E-4,0.040752947,-9.765626E-4,-0.0015632629,0.63574475,2017-07-08 20:41:31,-Infinity
-0.019153614,0.009576807,10.247183,0.021898866,0.006992001,-0.04531448,75.0,8.768467E-4,-8.1421476E-4,0.9999993,-0.002768578,0.0016661023,0.045631528,-3.8602017E-4,-7.7204034E-4,0.6343022,2017-07-08 20:41:32,-Infinity
-0.019153614,-0.038307227,10.151415,0.026125386,0.0209329,-0.058371775,75.0,-6.850278E-4,-0.0052807513,0.9999858,-2.2125867E-4,0.0051657725,0.034895062,-0.0017899021,-0.0019107027,0.64257324,2017-07-08 20:41:33,-Infinity
-0.019153614,0.0,10.151415,0.022723984,-0.0055882074,-0.040461723,75.0,-0.0010141573,-0.002638906,0.99999595,-9.797951E-4,0.0024837991,0.035862207,-0.0014850495,-4.567453E-4,0.64104253,2017-07-08 20:41:34,-Infinity
0.038307227,-0.009576807,10.170568,-0.013621984,-0.003489298,0.027823953,75.0,8.1742246E-4,-0.001438349,0.9999986,1.9153213E-4,4.0559436E-4,0.046609342,-5.179005E-4,-4.882813E-4,0.64039344,2017-07-08 20:41:35,-Infinity
0.019153614,0.0,10.1226845,-0.014680764,-0.0054600183,0.029587992,74.0,-1.2288368E-4,-6.1964814E-4,0.99999976,0.002079964,5.9619045E-4,0.032927036,-3.8602017E-4,4.228639E-4,0.6396689,2017-07-08 20:41:36,-Infinity
-0.02873042,0.009576807,10.160992,0.006781211,0.007910479,-0.016703894,73.0,0.0021892805,-1.3568843E-4,0.9999976,-0.0011522954,-0.0017039184,0.035860896,4.567453E-4,-7.324219E-4,0.6400404,2017-07-08 20:41:37,-Infinity
0.0,-0.02873042,10.132261,0.014192225,-0.0038808577,-0.02625879,73.0,4.1687454E-4,-0.0042736223,0.99999076,-0.0031833246,0.0021663085,0.035867155,-0.0015584894,-0.0013756625,0.64193803,2017-07-08 20:41:38,-Infinity
0.0,0.009576807,10.132261,-0.004293793,-0.0031095762,0.009479245,74.0,0.0025562567,-0.0015133662,0.99999565,-0.0034240438,-0.0024031664,0.038794458,-4.5674518E-4,-0.0012084342,0.63470745,2017-07-08 20:41:39,-Infinity
0.0,-0.019153614,10.199299,0.016143085,0.007268661,-0.034631368,74.0,6.918478E-4,-0.0023313963,0.999997,2.880044E-4,-4.8807473E-4,0.03586185,-6.4593536E-4,-8.6316746E-4,0.6348816,2017-07-08 20:41:40,-Infinity
0.0,-0.009576807,10.160992,0.008790785,0.030324304,-0.020360742,75.0,-0.0015659417,-0.0031292702,0.9999939,-0.0031607016,0.0012454281,0.037819743,-0.0010139921,-7.2217773E-4,0.6410148,2017-07-08 20:41:41,-Infinity
0.0,-0.047884032,10.093954,0.014697458,0.014966415,-0.03287425,75.0,-9.3585846E-4,6.143209E-4,0.9999993,-0.0018338787,-0.0024563007,0.040745556,4.228639E-4,-4.228639E-4,0.63967645,2017-07-08 20:41:42,-Infinity
0.038307227,0.009576807,10.141838,-0.011398094,-0.0057158233,0.0221034,75.0,-0.0019929626,-0.0027556692,0.9999943,0.0057895915,8.352408E-4,0.03781879,-0.0014699212,2.4414063E-4,0.6346191,2017-07-08 20:41:43,-Infinity
0.038307227,-0.02873042,10.132261,0.01642009,-0.007616256,-0.026643418,75.0,-0.0016204467,-0.0033193023,0.9999931,0.0035229195,0.0023792991,0.03781998,-0.0014077835,-2.7295752E-4,0.6373609,2017-07-08 20:41:44,-Infinity
-0.009576807,-0.009576807,10.113108,-0.0069864513,0.0035215109,0.011554356,75.0,-0.0018868175,-0.0010699797,0.99999774,-0.0020608234,-0.0018040349,0.035861015,-6.9053395E-4,5.1790045E-4,0.64020306,2017-07-08 20:41:45,-Infinity
0.02873042,-0.05746084,10.189722,-0.033907335,0.0051250425,0.05929056,75.0,8.887206E-4,-0.006910521,0.9999757,0.0028710924,-8.676341E-4,0.0407694,-0.0019184855,-0.001747781,0.64010996,2017-07-08 20:41:46,-Infinity
-0.009576807,-0.038307227,10.228029,0.0018301215,-0.0013063226,-0.0021501891,75.0,1.2049575E-4,-1.2311524E-4,1.0,-0.002142999,0.0018916006,0.04172194,-2.9901E-4,1.7263349E-4,0.63380826,2017-07-08 20:41:47,-Infinity
-0.02873042,-0.019153614,10.132261,-0.04241895,0.0055567054,0.07617261,75.0,7.535762E-4,0.001575184,0.9999985,-0.0026139142,-0.0024217656,0.035859883,0.0013260229,3.8602017E-4,0.63252574,2017-07-08 20:41:48,-Infinity
0.009576807,-0.019153614,10.160992,0.015429709,-0.0247907,-0.012106012,75.0,1.18005766E-4,-0.0042193625,0.9999911,0.0016397302,0.0011282149,0.034889758,-0.0022006538,-0.0011772035,0.6362598,2017-07-08 20:41:49,-Infinity
-0.019153614,-0.038307227,10.189722,0.0052892803,0.0060359673,-0.011890548,75.0,0.001510993,-5.728634E-4,0.99999875,-0.001450782,-3.7798926E-4,0.033905447,2.4414063E-4,-0.0011451211,0.6344816,2017-07-08 20:41:50,-Infinity
0.0,-0.019153614,10.093954,-0.024568938,-0.0036175663,0.047896028,75.0,-5.788438E-4,-0.0028261198,0.9999959,-0.0041633584,-0.0019636317,0.039771974,-0.0010711626,-1.2207031E-4,0.63472396,2017-07-08 20:41:51,-Infinity
0.019153614,0.019153614,10.189722,0.007796389,-0.012820235,-0.015204459,75.0,-7.610482E-5,-0.0015588364,0.99999875,-0.0028686854,0.0043489523,0.036836922,-0.0012802838,-6.459351E-4,0.63444334,2017-07-08 20:41:52,-Infinity
0.06703765,0.02873042,10.208876,-0.008757795,0.008251286,0.012234779,75.0,0.0021419264,-0.0015703964,0.9999964,-1.2199371E-4,6.2729965E-4,0.032930374,7.91106E-4,-6.9053395E-4,0.63397276,2017-07-08 20:41:53,-Infinity
0.02873042,-0.047884032,10.04607,0.040835507,-5.4062613E-5,-0.07657411,75.0,0.0015074839,-0.0028416328,0.9999948,-0.0015126143,0.0016383366,0.03684038,-9.296598E-4,-0.0016826232,0.63577557,2017-07-08 20:41:54,-Infinity
0.0,-0.02873042,10.180145,-0.008094462,-0.0161606,0.019545782,75.0,0.0014408472,-0.0015773211,0.9999977,-0.0024574432,-0.0012309992,0.035861194,-2.4414063E-4,-6.6860666E-4,0.6344911,2017-07-08 20:41:55,-Infinity
0.009576807,-0.019153614,10.103531,0.01292515,-7.803314E-4,-0.023777371,75.0,9.4019785E-4,-1.8020453E-4,0.9999995,3.6933867E-5,0.0030570475,0.03976798,4.8828125E-4,-2.4414063E-4,0.63401383,2017-07-08 20:41:56,-Infinity
-0.009576807,-0.02873042,10.160992,0.007131366,-0.011522884,-0.010084138,75.0,3.6932694E-4,-0.0028315075,0.9999959,-0.0022687167,-1.6612909E-4,0.044657588,-0.0011644766,-2.4414063E-4,0.63474524,2017-07-08 20:41:57,-Infinity
0.038307227,0.0,10.141838,-0.004942832,-0.010874077,0.0121182315,75.0,6.8379E-4,-3.170062E-4,0.99999964,2.2279308E-4,-6.943131E-4,0.03585899,-7.91106E-4,-2.4414063E-4,0.6337098,2017-07-08 20:41:58,-Infinity
0.009576807,-0.009576807,10.180145,-0.014943009,-0.005242412,0.03145088,75.0,-4.268701E-4,-9.3492377E-4,0.9999995,0.003245854,-9.75249E-5,0.03976798,-5.725605E-4,-2.9900996E-4,0.63297296,2017-07-08 20:41:59,-Infinity
0.0,-0.02873042,10.170568,0.0070360713,-0.0046538515,-0.011031687,75.0,0.0016385417,-0.0017589452,0.99999714,0.0020561242,-1.0167458E-4,0.04563439,-7.7204045E-4,-9.765625E-4,0.63782597,2017-07-08 20:42:00,-Infinity
-0.009576807,-0.019153614,10.1226845,0.012658952,0.005310687,-0.026092548,75.0,0.00119244,-0.0022489,0.9999968,-1.5246717E-4,0.004056933,0.03195262,-2.4414063E-4,-0.00119604,0.63391876,2017-07-08 20:42:01,-Infinity
0.02873042,0.0,10.160992,0.01785928,0.0060458,-0.037653208,75.0,9.918194E-4,-0.0023934168,0.99999666,-0.0028001792,-0.0013717134,0.037816644,-5.7256053E-4,-8.8026153E-4,0.6335714,2017-07-08 20:42:02,-Infinity
-0.019153614,-0.047884032,10.065224,0.00471151,0.009734187,-0.012870308,75.0,3.3984453E-4,-0.003029845,0.9999953,-0.0041493694,0.0010670943,0.04172653,-0.0011708573,-9.296598E-4,0.63412714,2017-07-08 20:42:03,-Infinity
0.019153614,0.02873042,10.160992,0.01994366,0.004693629,-0.040633798,75.0,3.6659796E-4,-0.0019377316,0.99999803,-0.0022685989,0.0048165675,0.03976935,-8.0046855E-4,-5.854287E-4,0.63357866,2017-07-08 20:42:04,-Infinity
-0.009576807,-0.009576807,10.180145,-0.012251244,0.009345468,0.018154176,75.0,-4.3801538E-4,6.2573505E-5,0.9999999,-4.766308E-4,-0.0011023736,0.038790464,-2.9900996E-4,-3.8602017E-4,0.63879186,2017-07-08 20:42:05,-Infinity
0.009576807,-0.05746084,10.189722,0.019183172,-0.002248215,-0.035585638,75.0,0.0026543704,-0.0021450256,0.9999941,0.0011683279,1.2460514E-4,0.035864532,-2.1143198E-4,-0.0015774961,0.6401463,2017-07-08 20:42:06,-Infinity
0.0,0.0,10.151415,-0.013504941,0.0014406859,0.024867417,74.0,-2.487311E-4,-0.003631475,0.9999933,2.513414E-4,0.003675869,0.035865426,-9.3763985E-4,-4.727763E-4,0.6335486,2017-07-08 20:42:08,-Infinity
-0.038307227,-0.019153614,10.151415,-0.004656254,0.007920174,0.008261653,74.0,9.473384E-4,-0.0022662857,0.999997,-2.763886E-5,-0.0015851515,0.031952977,-8.0046855E-4,-0.0011254327,0.63400245,2017-07-08 20:42:09,-Infinity
0.009576807,-0.02873042,10.189722,-0.036904998,-0.001136093,0.07021368,74.0,-4.3560695E-4,-0.0028235724,0.99999595,0.0013865303,2.7915929E-5,0.039771974,-9.91704E-4,-5.9802E-4,0.6408906,2017-07-08 20:42:10,-Infinity
0.009576807,-0.038307227,10.237606,-0.0014685937,-0.013788362,0.0054002237,74.0,3.6889582E-4,-0.0013761662,0.999999,0.0015148906,0.0012244892,0.03390509,-9.052977E-4,-4.7277633E-4,0.64066523,2017-07-08 20:42:11,-Infinity
0.019153614,-0.009576807,10.160992,-0.01613547,-9.10722E-5,0.030536272,74.0,6.2697066E-4,-0.0020697913,0.9999977,0.0012618878,0.0010689835,0.036838233,-1.7263349E-4,-7.7204045E-4,0.64051425,2017-07-08 20:42:12,-Infinity
-0.019153614,0.0,10.189722,-0.01726894,-0.018283226,0.036405977,74.0,5.2308777E-5,-0.0026520612,0.99999654,-0.0011027345,-0.0050252164,0.040748715,-9.917041E-4,-3.45267E-4,0.64060146,2017-07-08 20:42:13,-Infinity
0.019153614,-0.02873042,10.151415,-7.957902E-4,-0.004676525,0.002243302,74.0,5.22855E-6,-0.0016966632,0.9999985,0.0018603032,-0.0012056456,0.03586012,-6.224387E-4,-7.1178586E-4,0.64006877,2017-07-08 20:42:14,-Infinity
0.009576807,-0.019153614,10.189722,0.0024597966,0.01623819,-0.0049706283,74.0,0.0013887605,-0.0045933914,0.9999885,-0.0012888473,-2.022651E-4,0.044665515,-5.8542873E-4,-0.0020895074,0.64196116,2017-07-08 20:42:15,-Infinity
0.019153614,-0.009576807,10.180145,-0.011841966,-0.009168319,0.027125554,74.0,0.0020141238,-9.4272546E-4,0.99999756,-3.0359952E-5,3.0932482E-5,0.03879291,6.224387E-4,-7.9110573E-4,0.639991,2017-07-08 20:42:16,-Infinity
0.009576807,-0.019153614,10.160992,-0.008126456,-0.006080559,0.018517213,74.0,6.2134134E-4,-0.001895485,0.99999803,-6.607501E-4,-0.0020525074,0.03488344,-6.1035156E-4,-6.1035156E-4,0.640614,2017-07-08 20:42:17,-Infinity
0.009576807,0.047884032,10.160992,0.010586683,0.015285674,-0.024718534,74.0,-7.442294E-4,-0.003694943,0.99999285,0.002677693,0.0045934403,0.03391099,-0.0012976252,-0.0011644766,0.64156586,2017-07-08 20:42:18,-Infinity
0.0,-0.038307227,10.141838,-0.012268532,-0.002048109,0.024786951,74.0,0.0017573691,-0.0011855683,0.9999978,9.688875E-5,2.1917024E-4,0.03879279,-2.4414063E-4,-4.2286396E-4,0.63322955,2017-07-08 20:42:19,-Infinity
0.0,0.0,10.151415,0.008228611,0.003960545,-0.018062923,74.0,-0.0013251322,-0.002378443,0.9999963,-0.0015516339,0.0022268854,0.031953216,-0.001118793,-2.4414065E-4,0.6334261,2017-07-08 20:42:20,-Infinity
0.0,-0.02873042,10.160992,0.017566396,-2.4616148E-4,-0.033461936,74.0,0.0027023256,-2.513791E-4,0.9999963,-0.0016621179,1.2568304E-4,0.03977096,5.854287E-4,-0.0013090583,0.63353175,2017-07-08 20:42:21,-Infinity
0.0,0.0,10.228029,2.0175223E-4,-2.6499962E-5,-3.775193E-4,74.0,8.9093496E-4,-0.0027671396,0.99999577,0.0029969548,-0.0010787235,0.034885824,-4.2286396E-4,-9.91704E-4,0.6335937,2017-07-08 20:42:22,-Infinity
-0.009576807,-0.05746084,10.160992,-0.021640886,0.013519614,0.035583332,74.0,-0.001288557,-0.0021458422,0.9999969,0.0032372382,0.0012623966,0.042702556,-7.91106E-4,-5.4591504E-4,0.6335383,2017-07-08 20:42:23,-Infinity
0.02873042,-0.019153614,10.180145,-0.024762314,-0.0033877194,0.04905722,74.0,1.8262546E-4,0.0013749084,0.9999991,-0.0010085261,-0.003206484,0.036836684,6.224389E-4,1.7263349E-4,0.63181615,2017-07-08 20:42:24,-Infinity
0.009576807,-0.06703765,10.160992,0.0022602854,-0.006901047,-9.3809003E-4,74.0,0.001566937,-0.004359603,0.9999893,-0.002426165,-0.0043537105,0.030983448,-0.0016102181,-0.0016286212,0.635043,2017-07-08 20:42:25,-Infinity
0.02873042,-0.009576807,10.208876,0.0135239195,0.003168463,-0.025816573,74.0,0.0012435209,-0.001819468,0.99999756,-0.001131077,0.0027366788,0.031951964,-2.4414063E-4,-0.0010213135,0.6335965,2017-07-08 20:42:26,-Infinity
-0.019153614,-0.05746084,10.180145,-0.024745613,0.0067502973,0.043143317,74.0,-9.416341E-4,-6.5391214E-5,0.9999995,-0.0018329817,-0.0026805454,0.03390485,5.8542856E-4,5.1790033E-4,0.63229066,2017-07-08 20:42:27,-Infinity
-0.019153614,-0.019153614,10.151415,-0.01809153,-0.011238216,0.040278405,74.0,-1.3141947E-4,-0.0023340094,0.99999726,3.154763E-5,-5.340553E-4,0.035861492,-0.0012744515,-3.2296768E-4,0.63381416,2017-07-08 20:42:28,-Infinity
-0.019153614,0.038307227,10.218452,-0.021382429,0.010637119,0.038528897,74.0,-5.707657E-4,1.3090932E-4,0.9999999,-0.002303377,-2.1990419E-4,0.04172218,4.2286396E-4,-2.4414063E-4,0.6326787,2017-07-08 20:42:29,-Infinity
0.019153614,0.009576807,10.228029,-0.019701904,7.248448E-4,0.0369632,74.0,4.514147E-4,-0.0013279989,0.9999991,5.3628086E-4,-0.0033428206,0.03195101,2.9901E-4,-4.727763E-4,0.6326821,2017-07-08 20:42:30,-Infinity
0.009576807,0.0,10.189722,0.014709163,-0.038245343,-0.009009929,74.0,0.0030124923,-0.0021480382,0.9999932,-0.0012200286,-0.0017401967,0.03782046,-4.5674533E-4,-0.0010780959,0.6337549,2017-07-08 20:42:31,-Infinity
0.009576807,0.009576807,10.199299,0.0085710995,-0.009495126,-0.011885677,74.0,-3.1945898E-4,-0.003013912,0.9999954,0.0012285988,0.0010934542,0.04172665,-0.0011053937,-1.7263349E-4,0.63346106,2017-07-08 20:42:32,-Infinity
-0.06703765,-0.047884032,10.1226845,-0.009251731,0.0047206176,0.016680269,74.0,4.1726447E-4,-0.004718501,0.99998873,-0.0069665476,-1.6221404E-4,0.032938123,-0.0014443555,-0.0014340015,0.6347515,2017-07-08 20:42:33,-Infinity
0.009576807,-0.02873042,10.065224,0.0025733542,0.021157673,-0.012087893,74.0,7.5933646E-4,-0.0014532129,0.9999986,-0.002551502,-0.003377784,0.03683716,1.2207031E-4,-0.0013090583,0.6335413,2017-07-08 20:42:34,-Infinity
0.0,-0.009576807,10.170568,0.0024031051,-0.01172456,-0.00224988,74.0,8.7427127E-4,-0.0029509938,0.9999953,-9.7662E-4,0.0018581233,0.037817538,-3.4526698E-4,-0.0011187929,0.6398713,2017-07-08 20:42:35,-Infinity
0.0,-0.009576807,10.189722,0.01040815,-0.0017114402,-0.019000493,74.0,6.136762E-4,-1.8801994E-4,0.99999976,-0.0024559232,0.0011339354,0.03585875,-5.459149E-4,-6.459352E-4,0.6389709,2017-07-08 20:42:36,-Infinity
0.0,0.038307227,10.151415,-0.0023522982,3.4925147E-4,0.004762941,74.0,-5.07622E-4,-4.8668924E-4,0.99999976,5.023862E-4,0.0042228918,0.03585887,-7.012403E-4,-5.9801975E-4,0.6349031,2017-07-08 20:42:37,-Infinity
0.0,0.0,10.208876,0.008450491,0.011892894,-0.02125384,74.0,-8.8251027E-4,-0.003207939,0.99999446,-0.0010118601,3.0455203E-4,0.038796067,-0.0011451211,-6.9053395E-4,0.63391066,2017-07-08 20:42:38,-Infinity
-0.009576807,-0.009576807,10.141838,0.00483826,0.018684048,-0.01517119,74.0,-6.8697095E-4,-0.0011956444,0.9999991,-1.5907566E-4,1.5559758E-4,0.034882367,-2.9901E-4,-6.9053395E-4,0.6332918,2017-07-08 20:42:39,-Infinity
0.009576807,-0.009576807,10.180145,0.01687874,0.021964801,-0.036633097,74.0,-0.0010612241,-6.283907E-4,0.9999992,-0.0017428021,5.318643E-4,0.03781396,-4.567453E-4,-5.4591504E-4,0.63329136,2017-07-08 20:42:40,-Infinity
-0.02873042,0.0,10.151415,-0.0034691412,0.009210181,0.20084956,74.0,-0.0017027222,-0.003381868,0.99999285,-0.0010143543,0.0033003062,0.035865903,-0.001572766,-8.2792115E-4,0.6346684,2017-07-08 20:42:41,-Infinity
-0.038307227,0.0,10.093954,0.004935638,-0.0014077123,-0.009577422,74.0,0.0022499433,-3.0681043E-4,0.9999974,-0.0022021532,0.0012288998,0.040747225,0.0,-0.0010213135,0.6391206,2017-07-08 20:42:43,-Infinity
-0.009576807,-0.009576807,10.160992,0.017959513,0.013288555,-0.037610628,74.0,-4.3809423E-4,-0.0017025342,0.9999985,-4.7354255E-4,5.96783E-4,0.03683728,-6.5736874E-4,-6.5736874E-4,0.63351774,2017-07-08 20:42:44,-Infinity
0.009576807,0.009576807,10.180145,0.018735461,0.009607967,-0.04045334,74.0,0.0018296255,-0.0010062939,0.9999978,0.0011753676,0.0010663295,0.040746868,2.4414063E-4,-0.0010918301,0.6332626,2017-07-08 20:42:45,-Infinity
-0.02873042,-0.02873042,10.170568,0.0052039414,0.008364167,-0.010434367,74.0,0.0010650061,-0.002707109,0.9999957,-0.003844569,-2.559526E-4,0.03781712,-5.7256053E-4,-0.0014850495,0.6341658,2017-07-08 20:42:46,-Infinity
-0.019153614,-0.02873042,10.170568,0.0074055195,-0.0020038162,-0.012917783,74.0,1.2550954E-4,-7.5044244E-4,0.99999964,-1.5692181E-4,6.2768726E-4,0.03488171,-8.0046855E-4,-5.854287E-4,0.63356394,2017-07-08 20:42:47,-Infinity
-0.009576807,-0.009576807,10.170568,-0.017614089,0.0029015797,0.0319799,74.0,0.0015565447,6.267961E-5,0.99999875,-0.0025442285,-9.14545E-4,0.03781432,9.765626E-4,-1.726335E-4,0.632314,2017-07-08 20:42:48,-Infinity
-0.019153614,-0.009576807,10.199299,0.012414261,0.009090558,-0.025480032,74.0,3.109242E-4,-0.0040106596,0.99999183,7.5770146E-4,0.002028334,0.0348894,-0.0010066176,-0.0014235722,0.63440824,2017-07-08 20:42:49,-Infinity
0.009576807,-0.038307227,10.055647,-0.009988974,-0.003488699,0.021001868,74.0,0.0023239064,-0.0013917178,0.9999963,-0.0012613151,-0.002553165,0.026089787,5.854287E-4,-0.0014800238,0.63378114,2017-07-08 20:42:50,-Infinity
0.009576807,0.019153614,10.093954,0.0015318005,0.0066900593,-0.0057905633,74.0,0.0013261994,-8.239702E-4,0.99999887,0.0014881777,-0.0021157854,0.040746152,5.7256053E-4,-8.8026153E-4,0.6333646,2017-07-08 20:42:51,-Infinity
0.019153614,-0.02873042,10.237606,-0.01972304,-0.0053027235,0.04052389,74.0,3.7423422E-4,-0.0014472143,0.99999887,0.0014519542,-0.0014555928,0.044654906,-4.727763E-4,-1.2207031E-4,0.63303596,2017-07-08 20:42:52,-Infinity
-0.02873042,0.009576807,10.093954,-0.021933911,0.002853008,0.04003015,74.0,-5.728243E-4,6.1467447E-4,0.99999964,-0.0021784746,-0.004316884,0.033904552,2.7295752E-4,0.0,0.6322414,2017-07-08 20:42:53,-Infinity
0.009576807,-0.076614454,10.151415,-0.016155718,0.0017877395,0.02980158,74.0,8.1403885E-4,-0.005137314,0.99998647,1.9434624E-4,-0.0027134316,0.035871923,-0.0011516091,-0.0015488988,0.63463974,2017-07-08 20:42:54,-Infinity
0.019153614,0.019153614,10.141838,0.0077013723,0.0043745404,-0.015122184,74.0,1.9839834E-4,-0.0017412073,0.9999985,0.002649827,0.0017537238,0.038791955,3.6621097E-4,-7.012406E-4,0.6331656,2017-07-08 20:42:55,-Infinity
0.047884032,-0.038307227,10.170568,-0.026363384,-0.012575843,0.056618813,74.0,0.0016972607,-8.800611E-4,0.99999815,0.0030004643,-0.0030603528,0.037815273,1.7263349E-4,-6.224389E-4,0.63289934,2017-07-08 20:42:56,-Infinity
-0.047884032,-0.02873042,10.199299,-0.010035002,5.234642E-4,0.019332388,74.0,-1.3848091E-4,-0.0014527431,0.999999,-0.0017034465,-0.0032546013,0.029019415,-4.5674533E-4,-5.9802004E-4,0.6333286,2017-07-08 20:42:57,-Infinity
0.009576807,-0.038307227,10.180145,0.012270084,-0.017186726,-0.016971901,74.0,5.0077017E-4,-0.0013266483,0.999999,-6.292071E-4,2.4972914E-4,0.039768398,-7.324218E-4,-2.9900996E-4,0.6330672,2017-07-08 20:42:58,-Infinity
-0.009576807,-0.038307227,10.151415,0.015954953,0.0016809735,-0.031315222,74.0,-0.0020866094,-0.002590004,0.9999944,0.001067861,-0.0013942798,0.035863876,-0.0017562861,-1.2207033E-4,0.63394594,2017-07-08 20:42:59,-Infinity
0.038307227,-0.047884032,10.160992,0.015686331,0.004004799,-0.032157544,74.0,8.6276495E-4,3.7909378E-4,0.9999995,-0.0027074856,0.0014524267,0.036836386,1.7263349E-4,-7.0124055E-4,0.63279814,2017-07-08 20:43:00,-Infinity
0.02873042,0.009576807,10.228029,-6.0135545E-4,-0.0045509166,0.0025918563,74.0,-0.0020579104,-0.0021888209,0.9999955,0.0048477976,0.0030189948,0.04368031,-0.001326023,4.567453E-4,0.633023,2017-07-08 20:43:01,-Infinity
0.019153614,-0.047884032,10.25676,0.010012908,0.003945374,-0.02129604,75.0,-0.0016935114,-0.002833879,0.9999946,7.21734E-4,-1.00076664E-4,0.030000746,-0.0015869141,-1.2207031E-4,0.63400686,2017-07-08 20:43:02,-Infinity
0.0,0.019153614,10.180145,0.0014646763,-1.9891665E-4,0.0014957741,75.0,0.0036344584,-1.1496485E-4,0.9999933,-0.0035430756,0.0019544503,0.038796663,8.368719E-4,-0.0014287963,0.63311845,2017-07-08 20:43:03,-Infinity
0.019153614,0.0,10.0269165,-0.022269506,1.1447538E-4,0.04279477,75.0,7.389513E-4,-8.172852E-4,0.9999994,-0.004535722,-0.0019914436,0.028041601,1.2207031E-4,-2.1143198E-4,0.6323717,2017-07-08 20:43:04,-Infinity
-0.019153614,0.009576807,10.228029,0.049597777,-6.464868E-4,-0.094128005,74.0,0.0014992784,-0.0028284814,0.99999493,-0.003366874,0.0035509747,0.04368061,-0.0014235722,-0.0015148527,0.63479936,2017-07-08 20:43:05,-Infinity
0.0,0.019153614,10.208876,-0.0024715816,0.0062729963,0.001849559,75.0,0.001508023,-0.0030108108,0.99999434,5.402969E-4,0.0010309853,0.030977905,-3.8602023E-4,-0.0015246577,0.634108,2017-07-08 20:43:06,-Infinity
-0.02873042,-0.02873042,10.237606,0.027723067,0.00750086,-0.056053206,74.0,0.001058864,-0.0038423135,0.9999921,-0.003843876,9.6876896E-4,0.0446617,-0.0011708573,-0.0013593175,0.6344935,2017-07-08 20:43:07,-Infinity
0.009576807,0.038307227,10.189722,0.0347614,-0.0040546944,-0.06373338,74.0,4.338413E-4,-0.0012492539,0.9999991,6.635394E-4,0.003240562,0.034882367,-4.567453E-4,-4.8828125E-4,0.63312685,2017-07-08 20:43:08,-Infinity
-0.02873042,-0.047884032,10.093954,0.010814637,-0.023135861,-0.014017673,74.0,0.0019146294,-0.0012103382,0.9999975,-0.0048100753,-0.0035712458,0.029997945,-2.9901E-4,-7.324219E-4,0.6333068,2017-07-08 20:43:09,-Infinity
-0.009576807,-0.02873042,10.151415,0.009806411,-0.001709034,-0.01903304,74.0,0.0018143473,-0.0018274754,0.99999666,-0.0027414437,8.1849704E-4,0.03488469,-4.727763E-4,-8.717564E-4,0.6335187,2017-07-08 20:43:10,-Infinity
0.02873042,-0.02873042,10.218452,-0.025543947,-0.008719196,0.053662613,74.0,8.246097E-4,4.72704E-5,0.99999964,0.0019865856,-0.0030891902,0.03976798,-3.2296768E-4,-9.0529764E-4,0.63354516,2017-07-08 20:43:11,-Infinity
0.02873042,-0.02873042,10.151415,0.0038492274,-0.009564964,-0.0041352855,73.0,0.0016957922,-0.0029493182,0.9999943,0.0011416541,-1.1113705E-5,0.035864472,-0.0010066176,-0.0011053937,0.6341591,2017-07-08 20:43:12,-Infinity
0.02873042,-0.009576807,10.180145,0.027710387,0.0069719297,-0.0561248,73.0,0.0016892913,-0.0041602748,0.99998987,-0.002455803,0.0021352335,0.04564035,-0.0011254327,-0.0021596444,0.6412314,2017-07-08 20:43:13,-Infinity
-0.02873042,0.009576807,10.218452,0.013733019,0.0022320773,-0.027906679,74.0,-3.2819668E-4,-9.4520627E-4,0.9999995,-0.0024276434,0.001953787,0.042699814,-5.1790033E-4,5.1790033E-4,0.6328726,2017-07-08 20:43:14,-Infinity
0.02873042,-0.047884032,10.304645,-0.02254448,-0.004605182,0.0455375,74.0,0.0013209326,-0.0024554115,0.99999607,-2.5161996E-4,-5.6851236E-4,0.03977108,-8.631675E-4,-0.0014024812,0.634283,2017-07-08 20:43:15,-Infinity
0.009576807,0.02873042,10.189722,0.026300842,-0.0047736326,-0.0463676,75.0,0.0015580453,-4.462742E-4,0.99999875,-0.0024183264,-6.639423E-4,0.029996455,-3.4526695E-4,-0.001145121,0.63358873,2017-07-08 20:43:16,-Infinity
0.0,0.009576807,10.218452,-0.027024481,-0.012431928,0.057949517,75.0,-7.537294E-4,-8.1675884E-4,0.9999994,0.002490457,-0.0019857814,0.022178054,-4.2286396E-4,6.224389E-4,0.6322879,2017-07-08 20:43:17,-Infinity
0.019153614,0.019153614,10.199299,0.02851678,0.031218542,-0.059790276,75.0,-0.001988313,-0.004504404,0.99998784,0.0039295983,0.0062496127,0.040755928,-0.0016377451,-0.0015344,0.641036,2017-07-08 20:43:18,-Infinity
-0.038307227,-0.019153614,10.132261,0.027186166,-0.0064225243,-0.05047538,75.0,0.003512442,-6.815964E-4,0.99999356,-0.0014605303,0.0035582772,0.04075086,7.4252475E-4,-0.0013864522,0.63338315,2017-07-08 20:43:19,-Infinity
-0.038307227,0.0,10.160992,0.003876932,-0.00265084,-0.006927837,75.0,-1.285701E-4,5.5101435E-5,1.0,1.574803E-4,-9.772251E-4,0.03194976,-4.228639E-4,4.882812E-4,0.63249534,2017-07-08 20:43:20,-Infinity
-0.038307227,0.02873042,10.160992,0.008904439,0.001791432,-0.017521989,75.0,-1.3566858E-4,-4.4092292E-4,0.9999999,-0.0036270428,-5.3877966E-4,0.027063727,-2.4414063E-4,-4.727763E-4,0.6329678,2017-07-08 20:43:21,-Infinity
0.0,-0.047884032,10.132261,-0.017607119,-0.004733136,0.035816345,75.0,7.517274E-4,-0.002577351,0.9999964,-7.544058E-4,-0.0022142718,0.03390801,-3.229677E-4,-5.3209224E-4,0.63317746,2017-07-08 20:43:22,-Infinity
0.009576807,-0.05746084,10.065224,-0.01181605,0.01574905,0.016983466,75.0,0.0021370638,-0.0015864098,0.9999964,-0.0038423645,-0.0050785225,0.03586197,0.0,-0.0019909067,0.6339787,2017-07-08 20:43:23,-Infinity
0.02873042,-0.009576807,10.151415,0.011176375,-0.0015913248,-0.020164376,75.0,0.0025653238,-0.002818722,0.99999267,3.6043418E-4,0.0017507994,0.035865605,-7.3242193E-4,-0.0014130662,0.63412094,2017-07-08 20:43:24,-Infinity
0.047884032,0.019153614,10.237606,0.027591974,-0.012053708,-0.045455843,75.0,8.95762E-4,-1.3580064E-4,0.99999964,0.004860374,9.402906E-5,0.038790822,-1.2207031E-4,-3.2296768E-4,0.6328555,2017-07-08 20:43:25,-Infinity
0.019153614,-0.05746084,10.1226845,0.007343266,-0.0011576193,-0.013178619,75.0,-6.200371E-4,-0.0027849122,0.99999595,0.0023958108,-0.0031206114,0.03293085,-0.0015099264,-7.816314E-4,0.6342021,2017-07-08 20:43:26,-Infinity
-0.038307227,-0.019153614,10.113108,-0.012886573,0.0053568743,0.021354847,75.0,-4.9261947E-4,-0.0011520523,0.9999992,0.0080472,0.0012721182,0.04465443,4.7277624E-4,4.228639E-4,0.6323498,2017-07-08 20:43:27,-Infinity
-0.019153614,-0.02873042,10.180145,0.0032408368,-0.0064135487,-0.0048422953,75.0,0.002123258,-0.0013273632,0.9999969,-0.0040281555,-0.0016748849,0.038793325,-2.4414063E-4,-0.0013147375,0.6336429,2017-07-08 20:43:28,-Infinity
0.009576807,0.019153614,10.113108,0.021317018,-0.011119527,-0.033228595,75.0,-3.6605212E-4,-0.0010641655,0.9999994,0.0020799364,0.0019183713,0.03976798,-6.6860666E-4,-2.4414063E-4,0.63308096,2017-07-08 20:43:29,-Infinity
0.019153614,0.019153614,10.295067,0.01055539,0.005167807,-0.022436647,75.0,0.0012503774,1.2764269E-4,0.9999992,6.73561E-4,0.0017045207,0.050517797,3.6621097E-4,-5.0330884E-4,0.6327813,2017-07-08 20:43:30,-Infinity
-0.009576807,-0.019153614,10.189722,0.017837586,-0.0042536953,-0.031302,75.0,0.0010023386,-9.31678E-4,0.9999991,9.811387E-4,0.003685207,0.03879112,-2.7295752E-4,-7.816314E-4,0.6334196,2017-07-08 20:43:31,-Infinity
0.05746084,-0.009576807,10.160992,0.0056102606,0.00865675,-0.010326703,75.0,0.0017704404,-0.0025706694,0.9999952,0.0040742257,0.0015652163,0.036840737,-4.8828125E-4,-0.0012207031,0.63382846,2017-07-08 20:43:32,-Infinity
-0.047884032,0.0,10.160992,-0.0021095867,0.013984556,-6.798154E-4,75.0,-4.4457312E-4,-1.2363865E-4,0.9999999,-0.002268692,9.47119E-5,0.03488171,-3.8602023E-4,-3.8602023E-4,0.63304204,2017-07-08 20:43:33,-Infinity
0.0,-0.02873042,10.151415,-0.053210348,-0.008126092,0.105252355,75.0,0.0010695807,-0.001997251,0.99999744,-0.002049169,3.1798147E-5,0.03292948,-4.2286396E-4,-7.5249193E-4,0.63340867,2017-07-08 20:43:35,-Infinity
0.019153614,-0.009576807,10.132261,-0.0051071523,-0.0017692016,0.010651443,75.0,9.4707124E-4,5.7716243E-5,0.9999995,-2.985564E-5,-0.0010401676,0.03976798,-2.4414063E-4,-2.4414063E-4,0.63260436,2017-07-08 20:43:36,-Infinity
0.019153614,-0.019153614,10.189722,0.007989228,-0.01181177,-0.007974572,75.0,0.0011945218,-0.0016424673,0.9999979,-3.4344383E-4,-0.002305231,0.0339064,-8.5449225E-4,-8.004686E-4,0.6337619,2017-07-08 20:43:37,-Infinity
-0.019153614,-0.019153614,10.084377,-0.003452093,-0.0012697794,0.0073312437,75.0,5.100813E-4,-0.0016327855,0.9999985,0.0014180717,0.0014198255,0.029019177,-5.854287E-4,-8.717564E-4,0.6336411,2017-07-08 20:43:38,-Infinity
0.02873042,-0.038307227,10.132261,-0.014468988,6.101576E-4,0.027007869,75.0,0.0013042572,0.0018155265,0.9999975,-0.0021045124,-7.4502E-4,0.0241341,9.765625E-4,4.8828125E-4,0.6315022,2017-07-08 20:43:39,-Infinity
0.019153614,-0.02873042,10.160992,-0.0020913717,0.0060305935,0.0028139981,75.0,8.141908E-4,-0.0023979228,0.9999968,-0.0017963265,-0.0013570851,0.043679953,-3.8602023E-4,-9.765625E-4,0.6336201,2017-07-08 20:43:40,-Infinity
0.038307227,0.019153614,10.160992,0.003959729,0.008585244,-0.0111541115,75.0,0.0018750518,-0.0020651615,0.9999961,-0.0017815778,-8.062839E-4,0.031953633,4.8828125E-4,-0.0015344,0.6338092,2017-07-08 20:43:41,-Infinity
0.0,0.009576807,10.228029,0.010472102,0.0014845001,-0.02055062,75.0,-5.478561E-4,-0.0010537707,0.9999993,0.0033405446,0.0021094778,0.046608806,-2.4414063E-4,3.4526698E-4,0.63218445,2017-07-08 20:43:42,-Infinity
0.009576807,-0.02873042,10.055647,0.033324577,0.0022296696,-0.06416063,75.0,5.2115356E-6,-0.001899661,0.99999815,1.5644872E-10,-0.00398724,0.039769232,-0.0010918302,-6.90534E-4,0.63377947,2017-07-08 20:43:43,-Infinity
0.019153614,-0.02873042,10.1226845,-0.012371122,0.0095991595,0.019969165,75.0,-0.0014261276,6.947131E-4,0.99999875,0.0043156696,3.481367E-4,0.046609223,-3.4526698E-4,0.0,0.63242126,2017-07-08 20:43:44,-Infinity
0.02873042,-0.019153614,10.237606,-0.0020370446,0.011001374,-0.002451371,75.0,1.2991231E-4,6.8853504E-4,0.99999976,-9.3557064E-5,2.2876891E-4,0.03488171,5.1790045E-4,-4.567453E-4,0.6325127,2017-07-08 20:43:45,-Infinity
0.02873042,-0.06703765,10.007763,0.0040121023,-0.0044339667,-0.0051230695,75.0,0.0013780341,-0.0026255723,0.99999565,5.760094E-4,0.0025375844,0.034885585,-8.6316746E-4,-0.0013147375,0.63419926,2017-07-08 20:43:46,-Infinity
0.038307227,-0.009576807,10.218452,0.003039373,-0.0050103054,-0.0042207255,75.0,-1.649582E-4,0.0010002225,0.9999995,0.006777743,-0.0010681746,0.03879094,-0.0,0.0,0.6324214,2017-07-08 20:43:47,-Infinity
-0.019153614,0.019153614,10.208876,0.017207514,1.5389266E-4,-0.032466207,75.0,-9.481317E-4,-0.0013645765,0.9999986,-9.697222E-5,0.0032748298,0.03781432,-6.4593536E-4,1.7263349E-4,0.63291264,2017-07-08 20:43:48,-Infinity
0.009576807,-0.019153614,10.208876,0.045386113,0.013325707,-0.09291951,75.0,-0.0010188831,-0.0026375714,0.99999595,-0.0027775762,0.004342802,0.033907652,-0.0014699212,-0.0011385961,0.6344844,2017-07-08 20:43:49,-Infinity
0.0,0.009576807,10.180145,0.010193662,0.0059080636,-0.022641448,75.0,5.588532E-4,0.0015128028,0.99999875,-0.0015387242,0.0042100474,0.039768994,5.1790045E-4,1.7263349E-4,0.6319529,2017-07-08 20:43:50,-Infinity
0.0,-0.009576807,10.132261,0.02428418,0.0029722939,-0.047214475,75.0,-5.2373557E-6,-0.0021944535,0.99999756,-0.0018601761,0.0030198335,0.028042972,-0.0011708573,-0.0011835156,0.6282365,2017-07-08 20:43:51,-Infinity
0.038307227,-0.009576807,10.132261,-0.014189567,-0.0068839896,0.028314374,75.0,-4.4203328E-4,-8.788355E-4,0.9999995,-6.0061284E-4,-0.001138457,0.03976798,-5.4591504E-4,-3.4526698E-4,0.62700653,2017-07-08 20:43:52,-Infinity
0.02873042,-0.019153614,10.151415,-0.026082177,0.0021884209,0.048148382,75.0,-4.263408E-4,-6.8266847E-4,0.99999964,0.0013224962,-2.2390619E-4,0.03976786,1.7263349E-4,-2.4414063E-4,0.63244593,2017-07-08 20:43:53,-Infinity
-0.009576807,-0.02873042,10.160992,6.731084E-4,-0.0055048047,0.0018722061,75.0,-4.3969086E-4,-0.0020033256,0.9999979,0.0014455057,7.476541E-5,0.0446558,-6.5736874E-4,-9.0529764E-4,0.6337232,2017-07-08 20:43:54,-Infinity
-0.019153614,-0.009576807,10.151415,0.0046286294,0.0042131455,-0.010868635,75.0,0.0018953101,-1.85866E-4,0.99999815,0.0019301982,0.001134265,0.036837876,2.9901E-4,-9.765625E-4,0.63815343,2017-07-08 20:43:55,-Infinity
0.02873042,0.0,10.160992,0.028321663,0.011749206,-0.054126095,75.0,-9.942944E-4,-0.0023930916,0.99999666,9.39346E-4,5.504724E-4,0.047588944,-8.9702994E-4,-4.8828125E-4,0.6395711,2017-07-08 20:43:56,-Infinity
-0.019153614,-0.02873042,10.065224,0.0030877262,0.0028382312,-0.0073987977,75.0,5.0704E-4,-0.002905629,0.9999956,0.0033414196,-0.0010399681,0.03781736,-0.0010918301,-0.0013483106,0.6343924,2017-07-08 20:43:57,-Infinity
0.038307227,-0.02873042,10.295067,-0.01900899,0.025957549,0.020519368,75.0,0.00148386,6.7519554E-4,0.9999986,-0.009011042,-0.003559697,0.029996216,7.221778E-4,-9.689031E-4,0.6325631,2017-07-08 20:43:58,-Infinity
0.047884032,-0.019153614,10.093954,-0.018405419,-0.0034616792,0.0366051,75.0,6.3068874E-4,-0.0031900804,0.9999947,-7.221538E-4,0.0022881653,0.04856813,-4.22864E-4,-7.911061E-4,0.63348067,2017-07-08 20:43:59,-Infinity
0.0,0.047884032,10.247183,0.0033431086,-0.004506689,-0.0037886095,75.0,0.0020668046,-0.0018812887,0.9999961,8.620692E-4,-0.0019960825,0.029022038,3.4526695E-4,-8.188724E-4,0.6328991,2017-07-08 20:44:00,-Infinity
0.009576807,-0.038307227,10.093954,0.009937491,-0.010081458,-0.012678982,75.0,0.0015500078,-0.0020597419,0.99999666,-6.1482843E-4,9.894294E-4,0.033907413,-4.2286396E-4,-8.2792115E-4,0.6334757,2017-07-08 20:44:01,-Infinity
0.019153614,-0.038307227,10.1226845,0.013732333,-0.018416148,-0.015912656,75.0,-9.341858E-4,-0.0030092825,0.99999505,0.0055451943,0.0028245815,0.046612203,-0.0017773706,-6.4593536E-4,0.6342484,2017-07-08 20:44:02,-Infinity
-0.009576807,-0.02873042,10.208876,-0.008489384,-0.004994192,0.018708784,75.0,-0.0012459486,6.751059E-4,0.999999,0.0011261605,-0.0033696266,0.040745497,-4.567453E-4,8.457279E-4,0.6318161,2017-07-08 20:44:03,-Infinity
-0.02873042,-0.047884032,10.160992,-0.0146301985,-0.005272083,0.030478176,75.0,3.816973E-4,-0.0039450773,0.9999921,0.0015778171,-9.942495E-4,0.03684348,-0.001480024,-0.0014900581,0.6348035,2017-07-08 20:44:04,-Infinity
-0.009576807,0.02873042,10.275913,0.012457764,-0.0021814986,-0.023130806,75.0,0.0011957648,2.6165712E-6,0.9999993,0.0016448365,0.001734746,0.045631766,0.0,-8.2792115E-4,0.6331642,2017-07-08 20:44:05,-Infinity
-0.02873042,0.0,10.170568,-0.03916923,-5.1751675E-5,0.0737508,75.0,-6.6924334E-4,-0.0012466294,0.999999,0.005421457,-6.633571E-4,0.035859644,-7.117859E-4,5.1790033E-4,0.63277453,2017-07-08 20:44:06,-Infinity
0.047884032,-0.02873042,10.141838,0.011557348,0.0117147975,-0.025072036,75.0,-9.973468E-4,-0.0019500753,0.99999756,0.0029305802,8.4908225E-4,0.04465586,-0.0010213135,-7.5249193E-4,0.6338597,2017-07-08 20:44:07,-Infinity
-0.019153614,0.0,10.151415,-0.009637544,0.020950552,0.0130889835,75.0,-0.0018536688,-3.232838E-4,0.9999982,0.0038943714,-0.002493629,0.037815034,-1.7263349E-4,3.8602023E-4,0.63263106,2017-07-08 20:44:08,-Infinity
0.009576807,0.0,10.218452,-0.014675123,-0.009561885,0.027196074,75.0,-0.0016257431,-0.0030080182,0.99999416,0.007308475,0.001030046,0.03781861,-0.0013427734,-2.1143198E-4,0.63357484,2017-07-08 20:44:09,-Infinity
-0.009576807,0.009576807,10.151415,-0.015594198,0.005322628,0.02696329,75.0,0.0011182504,0.0015702536,0.99999815,-0.003020245,-6.841612E-4,0.046610057,5.725605E-4,-1.7263347E-4,0.632353,2017-07-08 20:44:10,-Infinity
0.009576807,-0.06703765,10.180145,-0.026144436,0.0069069355,0.045409363,75.0,5.6592404E-4,-0.002941762,0.9999955,4.4512976E-4,-0.0017561526,0.032931983,-3.4526698E-4,-0.0010641844,0.63367873,2017-07-08 20:44:11,-Infinity
0.019153614,-0.009576807,10.141838,-0.0026815282,-0.008754413,0.009585456,75.0,0.0015638908,-9.3572773E-4,0.9999984,0.0013676133,0.0016341312,0.037814558,-5.854287E-4,-0.0014391878,0.6341268,2017-07-08 20:44:12,-Infinity
0.019153614,-0.019153614,10.170568,-0.015385864,0.0013752964,0.03117216,75.0,-7.453784E-4,6.878405E-4,0.9999994,0.004599551,-0.0016364828,0.031950235,1.7263349E-4,2.9901E-4,0.6322577,2017-07-08 20:44:13,-Infinity
-0.047884032,-0.047884032,10.180145,-0.008628472,0.012456816,0.010062282,75.0,0.001253041,-0.0030621183,0.9999945,-0.0011904325,1.3838708E-4,0.036841273,-8.8026153E-4,-0.0010918301,0.6339877,2017-07-08 20:44:14,-Infinity
-0.02873042,-0.009576807,10.160992,0.009254217,-0.018171458,-0.007822604,75.0,0.0020692726,-6.9062953E-4,0.9999976,-0.0012521783,0.001573826,0.029997945,3.6621094E-4,-5.5939646E-4,0.63290566,2017-07-08 20:44:15,-Infinity
0.019153614,-0.009576807,10.247183,0.010710505,-0.008843228,-0.02140753,75.0,0.0013329203,-0.0045920415,0.9999885,-0.0023047319,0.0054510282,0.04075569,-0.0013483107,-0.0012328498,0.6344854,2017-07-08 20:44:16,-Infinity
0.019153614,0.0,10.160992,0.0066386727,-0.001724357,-0.011453109,75.0,7.543944E-4,-3.1433103E-4,0.99999964,0.0012314757,0.0011029599,0.027063966,-5.033088E-4,-3.2296768E-4,0.63309395,2017-07-08 20:44:17,-Infinity
0.02873042,-0.019153614,10.113108,-0.028979111,-0.0062178914,0.058053076,75.0,-0.0014409223,-0.0019639432,0.999997,4.037693E-4,-0.0065979897,0.032930255,-0.0012508485,0.0,0.6331866,2017-07-08 20:44:18,-Infinity
-0.009576807,-0.009576807,10.1226845,0.0062227068,0.01195159,-0.01351485,75.0,0.002646155,-0.0013126183,0.99999565,0.0013050714,0.0022320822,0.044657767,7.720405E-4,-0.0015246578,0.63339406,2017-07-08 20:44:19,-Infinity
0.0,-0.02873042,10.113108,-0.003085394,4.4980767E-4,0.0060861553,75.0,0.0018066545,-0.0013203481,0.9999975,-0.002797171,-0.00148827,0.029020786,-0.0,-6.103516E-4,0.6270234,2017-07-08 20:44:20,-Infinity
0.038307227,-0.019153614,10.189722,-0.0092661,-0.025210049,0.026228942,75.0,0.0011213265,-0.0032466333,0.99999416,0.0026256135,0.0012694194,0.039773464,-0.001326023,-8.097229E-4,0.6280421,2017-07-08 20:44:21,-Infinity
0.019153614,-0.019153614,10.1226845,-0.001055616,-7.747476E-4,0.0024564336,75.0,0.0032646272,-4.9883506E-4,0.9999945,6.5240543E-4,5.009993E-4,0.05834031,7.0124055E-4,-8.717564E-4,0.6326414,2017-07-08 20:44:22,-Infinity
0.02873042,-0.009576807,10.0269165,0.009069699,-0.011395406,-0.042385425,75.0,-5.6389207E-4,-0.0048363595,0.99998814,0.0033410033,0.0038402514,0.023166478,-0.0020389762,-4.0486144E-4,0.6343438,2017-07-08 20:44:23,-Infinity
0.019153614,0.02873042,10.04607,-0.004602018,0.0039331564,0.006784832,75.0,9.291218E-4,0.0019606047,0.9999977,-0.0038765846,9.4736577E-4,0.030974925,5.854287E-4,1.7263349E-4,0.62603265,2017-07-08 20:44:24,-Infinity
0.019153614,-0.038307227,10.228029,0.023102202,1.4537544E-4,-0.042650014,75.0,-0.0019996774,-0.0030270347,0.99999344,0.003746611,-0.0010162906,0.043682158,-0.0018989684,-5.4591504E-4,0.6281746,2017-07-08 20:44:25,-Infinity
0.02873042,0.009576807,10.0748005,0.020972013,0.0077209026,-0.042937715,75.0,2.5207896E-4,-3.6236347E-4,0.9999999,-2.5196848E-4,0.006115319,0.05638051,5.9801986E-4,-6.459352E-4,0.6325218,2017-07-08 20:44:26,-Infinity
-0.019153614,-0.047884032,10.132261,0.0038507252,-0.006865452,-0.0026764704,75.0,0.0018801596,-0.0037838877,0.99999106,-0.0037137254,-0.003922262,0.04661715,-0.0011187929,-0.0014850495,0.63452125,2017-07-08 20:44:27,-Infinity
0.019153614,0.009576807,10.25676,0.022555621,0.023592606,-0.05025735,75.0,0.002023403,-7.4463355E-4,0.9999977,-0.0020202617,0.0045402325,0.042701423,5.4591487E-4,-0.0013316295,0.6333332,2017-07-08 20:44:28,-Infinity
-0.019153614,-0.02873042,10.304645,-0.013660753,0.0017705665,0.024360433,75.0,-6.266837E-5,-0.0013160359,0.9999991,-9.1455877E-4,-0.0033821322,0.040745914,-2.9900996E-4,-6.686066E-4,0.6330572,2017-07-08 20:44:30,-Infinity
0.05746084,0.019153614,10.0748005,-0.025207974,-0.0031740759,0.048290618,75.0,0.0011251263,-0.0023784654,0.99999654,8.868497E-4,4.947516E-4,0.037816644,-5.1790033E-4,-8.802613E-4,0.6332644,2017-07-08 20:44:31,-Infinity
-0.009576807,0.0,10.170568,-0.010084181,0.008250218,0.014265228,75.0,-2.9886462E-4,-0.0028287289,0.99999595,0.0031519388,-3.6784448E-5,0.04270345,-1.7263349E-4,-9.455526E-4,0.6335082,2017-07-08 20:44:32,-Infinity
0.009576807,-0.02873042,10.132261,-0.006228298,-0.01648554,0.016184688,75.0,-9.3749433E-4,-0.0022385602,0.999997,-1.04273495E-4,2.5910628E-4,0.032929778,-0.0013372133,-8.8026153E-4,0.6339564,2017-07-08 20:44:33,-Infinity
0.009576807,-0.038307227,10.160992,-0.01525295,-0.010158937,0.034506954,75.0,-5.62081E-4,-4.8853754E-4,0.99999976,0.0032784818,0.0024273677,0.024132013,-1.7263349E-4,5.854287E-4,0.6322624,2017-07-08 20:44:34,-Infinity
0.02873042,-0.02873042,10.208876,7.5325894E-4,0.0019870286,-0.0024657699,75.0,-0.002063772,-0.0038345875,0.99999046,0.0010629955,-0.0010254008,0.04075432,-0.0016781894,-6.796587E-4,0.6339896,2017-07-08 20:44:35,-Infinity
-0.009576807,0.0,10.199299,-0.011652993,0.009168497,0.017607043,75.0,0.0011244753,-1.3535353E-4,0.9999993,-9.683865E-4,-0.0036277561,0.04465413,2.9901E-4,-8.097229E-4,0.63227504,2017-07-08 20:44:36,-Infinity
0.038307227,-0.038307227,10.151415,-3.7652662E-4,-0.0022504895,6.8283465E-4,75.0,-0.0016530037,-0.004614197,0.99998796,-0.0021718775,-3.0670082E-4,0.028052926,-0.0018832091,-9.455526E-4,0.6285143,2017-07-08 20:44:37,-Infinity
-0.019153614,0.0,10.295067,-4.8328142E-4,-0.00617825,0.004735863,75.0,0.0023601078,-1.7530732E-4,0.99999726,-0.00516003,-0.0017138298,0.05931461,3.45267E-4,-5.725606E-4,0.6266508,2017-07-08 20:44:38,-Infinity
0.009576807,-0.019153614,10.132261,-0.0069924966,0.005737998,0.008610687,75.0,-9.3894865E-4,-0.0014449378,0.9999985,8.680252E-5,-0.0013982233,0.044655383,-4.8828125E-4,-6.224389E-4,0.62727773,2017-07-08 20:44:39,-Infinity
0.009576807,0.02873042,10.208876,0.018887024,0.008393541,-0.04000374,75.0,-0.001172978,0.0019427447,0.9999975,0.0041252896,8.8996673E-4,0.050519705,2.4414063E-4,5.5939646E-4,0.6259,2017-07-08 20:44:40,-Infinity
-0.02873042,0.009576807,10.199299,-0.009032851,0.019544693,0.0056982436,75.0,-0.00200556,-5.8048783E-4,0.9999978,-0.0017744338,-0.004164174,0.03292942,-3.8602023E-4,1.7263349E-4,0.62659127,2017-07-08 20:44:41,-Infinity
-0.038307227,0.0,10.036493,0.012087675,-0.027760273,-0.01690638,75.0,0.0018710558,7.4160914E-4,0.9999979,-5.7997415E-5,-0.0028034518,0.035860956,-6.6860643E-4,-7.5249164E-4,0.63283986,2017-07-08 20:44:42,-Infinity
0.02873042,-0.047884032,10.189722,-0.037388243,-0.0065673683,0.0742532,75.0,2.612638E-6,1.2278707E-4,1.0,0.001985795,-0.0020798303,0.049539804,3.4526695E-4,-4.401307E-4,0.63256997,2017-07-08 20:44:43,-Infinity
0.0,-0.06703765,10.208876,-0.0027965747,0.0011717427,-0.19345474,75.0,-0.0016308947,-0.003962996,0.99999076,0.005389249,0.0029283764,0.044662416,-0.0022208747,-6.5736874E-4,0.6342127,2017-07-08 20:44:44,-Infinity
-0.009576807,0.0,9.959879,-0.0035547037,0.025022214,0.0029452946,75.0,-0.0024003317,5.678769E-4,0.999997,-0.0032120964,3.7753663E-4,0.017295122,3.4526695E-4,4.882812E-4,0.6259901,2017-07-08 20:44:45,-Infinity
-0.019153614,-0.038307227,10.113108,0.0034825285,-0.0017750136,-0.0053414246,75.0,-1.774228E-4,-0.0034440898,0.99999404,0.0010711713,-0.0013788033,0.04075098,-0.0013033543,-0.0012918707,0.6284178,2017-07-08 20:44:46,-Infinity
-0.019153614,0.009576807,10.113108,0.03347367,0.009713799,-0.06767584,75.0,1.2637798E-4,-0.0032752967,0.9999947,-2.2108399E-4,0.003347844,0.04270488,-5.1790045E-4,-9.455526E-4,0.6351434,2017-07-08 20:44:47,-Infinity
0.0,-0.05746084,10.1226845,-0.009329905,-9.967079E-4,0.017524824,75.0,0.0011795589,-9.929031E-4,0.99999887,-8.084311E-5,-8.652627E-4,0.034882605,5.0330884E-4,-5.0330884E-4,0.6343502,2017-07-08 20:44:48,-Infinity
0.019153614,0.009576807,10.170568,0.008141806,0.0015299924,-0.01601056,75.0,8.127846E-4,-0.001767609,0.99999815,-0.0017974909,-2.1927268E-4,0.041723788,-7.221778E-4,-5.8542873E-4,0.63495827,2017-07-08 20:44:49,-Infinity
-0.019153614,-0.038307227,10.180145,-0.019021828,-0.0022546113,0.036525976,75.0,0.001055645,8.727362E-4,0.9999991,-0.0039039797,-0.0027072018,0.031950533,4.2286396E-4,-6.224389E-4,0.62759006,2017-07-08 20:44:50,-Infinity
0.02873042,-0.009576807,10.084377,0.01616937,0.003076924,-0.031757224,75.0,0.002460505,-0.004913124,0.99998486,-0.0013575687,0.0028413427,0.03391838,-0.0014597486,-0.0028912888,0.6314101,2017-07-08 20:44:51,-Infinity
0.0,-0.02873042,10.199299,0.009240011,0.008916857,-0.022462983,75.0,2.5368718E-4,2.536869E-4,0.99999994,-0.0021114068,0.0016719289,0.028041005,1.7263349E-4,-5.1790045E-4,0.6278498,2017-07-08 20:44:52,-Infinity
0.0,-0.038307227,10.189722,0.020516807,0.0020970968,-0.03925183,75.0,9.477233E-4,-7.701883E-4,0.9999992,3.77291E-5,-0.0031573037,0.04465437,-3.8602023E-4,-0.0012084345,0.62922084,2017-07-08 20:44:53,-Infinity
0.02873042,0.019153614,10.151415,-0.005591942,-0.001506964,0.009629018,75.0,1.9298623E-4,0.0010066576,0.9999994,-0.0011336658,9.219425E-4,0.048563123,1.7263349E-4,4.727763E-4,0.6275802,2017-07-08 20:44:54,-Infinity
-0.009576807,-0.019153614,10.199299,-0.005571865,2.5102735E-4,0.010077446,75.0,0.002256937,-0.0020762773,0.9999953,-0.0021987595,-8.585593E-4,0.037817657,-4.228639E-4,-0.0017689667,0.6294782,2017-07-08 20:44:55,-Infinity
0.05746084,-0.009576807,10.065224,0.0014128177,-0.0319323,0.004074314,75.0,0.0012422086,5.036685E-4,0.9999991,-0.001377279,-5.634323E-4,0.04367751,-1.7263349E-4,-2.9901E-4,0.6281563,2017-07-08 20:44:56,-Infinity
-0.009576807,-0.009576807,10.1226845,0.017085154,0.016474789,-0.038504314,75.0,-1.9202076E-4,-0.0034063961,0.9999942,-0.0025845428,0.001390646,0.039773166,-0.0011708573,-0.0014235722,0.6299483,2017-07-08 20:44:57,-Infinity
-0.047884032,-0.019153614,10.113108,-0.0033594116,0.003670992,0.004232608,75.0,0.002504541,-0.002752645,0.99999315,-0.002381012,8.338401E-4,0.04368311,-2.9901E-4,-0.0016781894,0.62933916,2017-07-08 20:44:58,-Infinity
0.02873042,-0.019153614,10.199299,-2.1385466E-5,0.009308332,-0.00248437,75.0,-0.0014308568,5.702499E-4,0.99999887,0.002390185,4.4344045E-4,0.034882605,4.0486144E-4,4.4013077E-4,0.6273108,2017-07-08 20:44:59,-Infinity
-0.009576807,-0.10534488,10.199299,-0.024374053,-0.0013153101,0.045945507,75.0,7.874766E-6,-0.003903258,0.9999924,0.0019229545,-0.0018948773,0.038798153,-0.0012448778,-0.0013810679,0.6299549,2017-07-08 20:45:00,-Infinity
0.019153614,0.0,10.170568,0.031176332,-0.0045908983,0.101272345,75.0,1.2017097E-4,4.284355E-4,0.9999999,0.0017664155,4.1312113E-4,0.039767623,4.7277624E-4,4.228639E-4,0.62900186,2017-07-08 20:45:01,-Infinity
-0.009576807,0.0,10.266336,-0.013335879,-0.004192054,0.027001975,75.0,0.0017113842,-0.0017140099,0.999997,0.0011364622,-0.0049823727,0.031953096,4.8828125E-4,-3.4526698E-4,0.6343157,2017-07-08 20:45:03,-Infinity
-0.02873042,0.019153614,10.065224,-0.01117876,-0.015440999,0.026508356,75.0,0.0018788306,-5.495187E-5,0.9999983,0.0018058224,9.1444666E-4,0.04465586,6.4593536E-4,-2.4414063E-4,0.63428175,2017-07-08 20:45:04,-Infinity
0.047884032,-0.038307227,10.295067,-0.009654437,-0.0019995032,0.019250011,75.0,-0.0015487244,-1.9815333E-4,0.99999875,0.006199569,-0.0025876784,0.04856342,-7.0124055E-4,3.2296768E-4,0.63406736,2017-07-08 20:45:05,-Infinity
0.0,0.0,10.180145,0.018685393,-0.0073981825,-0.03136164,75.0,6.916168E-4,-0.0012622664,0.999999,0.0022059868,0.0012620671,0.04367739,-7.5249193E-4,-5.4591504E-4,0.63502026,2017-07-08 20:45:06,-Infinity
-0.038307227,-0.047884032,10.0269165,-0.046046495,0.0105067445,0.07991582,75.0,-6.3731655E-4,3.055986E-4,0.99999976,-0.0031250054,-0.004823414,0.023155093,0.0010641841,4.5674518E-4,0.6330406,2017-07-08 20:45:07,-Infinity
-0.038307227,-0.05746084,10.132261,-0.0062619317,-0.0032415707,0.012095482,75.0,6.922343E-4,-0.0025756343,0.9999964,-0.0017602586,-0.0022864544,0.047589064,-9.765625E-4,-5.1790045E-4,0.63517517,2017-07-08 20:45:08,-Infinity
0.019153614,0.009576807,10.237606,0.01122823,0.015280741,-0.028262166,75.0,-6.110059E-4,5.5878295E-4,0.99999964,0.0025184131,5.0725637E-4,0.044653893,7.012403E-4,6.224387E-4,0.6337727,2017-07-08 20:45:09,-Infinity
0.009576807,-0.02873042,10.132261,0.021990662,0.0043641264,-0.043417864,75.0,0.0011904564,4.4119952E-4,0.9999992,-1.5027553E-4,4.134752E-4,0.045631707,5.0330884E-4,-8.188726E-4,0.63474494,2017-07-08 20:45:10,-Infinity
0.0,0.0,10.247183,0.01607557,-0.0072401557,-0.026209569,75.0,8.756794E-4,3.722949E-4,0.9999995,-8.4935024E-4,-4.7186125E-4,0.04563141,-1.7263349E-4,-6.224389E-4,0.628627,2017-07-08 20:45:11,-Infinity
-0.047884032,-0.02873042,10.160992,-0.020232718,0.0060567977,0.033781923,75.0,-0.002968413,-6.955167E-4,0.99999535,-0.0018001096,-0.0021444263,0.036840975,-7.2217773E-4,8.717564E-4,0.6279592,2017-07-08 20:45:12,-Infinity
0.05746084,-0.019153614,10.228029,0.014835692,0.007334968,-0.031736407,75.0,9.083946E-4,-0.0030332485,0.99999505,0.0047895815,0.001045787,0.043681443,-0.0010500886,-0.0014235722,0.63590276,2017-07-08 20:45:13,-Infinity
0.019153614,0.019153614,10.103531,0.019798227,-0.005456868,-0.033576403,75.0,0.0013027693,0.002553218,0.9999959,-0.0050701536,-7.3421584E-4,0.039771736,5.7256053E-4,-1.7263349E-4,0.6337812,2017-07-08 20:45:14,-Infinity
-0.009576807,-0.047884032,10.0748005,0.007836381,0.010345191,-0.020213984,75.0,7.4788654E-4,-0.0020716717,0.9999976,-6.2548683E-4,-7.424718E-4,0.03195238,-3.8602026E-4,-0.0013033544,0.6302942,2017-07-08 20:45:15,-Infinity
0.047884032,-0.047884032,10.170568,0.0073659504,0.019411417,-0.015270377,75.0,5.1402283E-4,-6.923572E-4,0.99999964,0.001545388,-2.849659E-4,0.04465401,-4.567453E-4,-9.765625E-4,0.62753725,2017-07-08 20:45:16,-Infinity
0.0,0.019153614,10.170568,-0.0014458871,-7.642001E-4,0.0031894976,75.0,7.4740953E-4,2.5871865E-4,0.99999964,-6.8993634E-4,0.0016722037,0.037813425,5.7256053E-4,1.7263349E-4,0.62612,2017-07-08 20:45:17,-Infinity
0.038307227,-0.02873042,10.1226845,0.025869686,-0.0021823558,-0.047401648,75.0,0.0032137958,-0.003339827,0.9999893,-0.0021728452,2.8139655E-4,0.029028177,-3.8602017E-4,-0.0022934927,0.6288899,2017-07-08 20:45:18,-Infinity
-0.009576807,0.009576807,10.189722,-0.026279293,0.006314035,0.04681801,75.0,0.0015568646,7.550003E-5,0.9999988,-0.00247713,9.459772E-4,0.039768636,8.8868535E-4,-6.34296E-4,0.62626433,2017-07-08 20:45:19,-Infinity
-0.019153614,-0.076614454,10.065224,0.0059404736,0.020959537,-0.017874967,75.0,6.313509E-4,-0.0055595427,0.9999843,-5.3202326E-4,0.0025137416,0.04662311,-0.0016240398,-0.0021178408,0.629545,2017-07-08 20:45:20,-Infinity
-0.019153614,-0.038307227,10.036493,-0.08242259,0.0026623127,0.15187338,75.0,3.8406366E-4,-0.0024768175,0.9999969,-0.0022052962,-0.0012750209,0.02413547,1.7263349E-4,-7.7204045E-4,0.6271902,2017-07-08 20:45:21,-Infinity
0.019153614,-0.038307227,10.160992,0.0161207,0.0075123035,-0.034209583,75.0,5.637842E-4,-0.0015077953,0.99999875,-0.0015433689,0.0015097166,0.046609342,-3.8602023E-4,-6.9053395E-4,0.62738657,2017-07-08 20:45:22,-Infinity
0.009576807,-0.009576807,10.084377,0.001426888,-0.0050645983,-9.449308E-4,75.0,-0.0018199562,-0.0013255174,0.99999744,0.0026818747,3.1704595E-4,0.029020369,-0.0015246574,-4.8828113E-4,0.6276303,2017-07-08 20:45:23,-Infinity
-0.02873042,0.019153614,10.151415,0.025601756,-0.0021060137,-0.046399485,75.0,0.0011841735,3.2153048E-4,0.9999992,-3.404623E-4,0.0026806875,0.031950653,7.4252475E-4,1.7263349E-4,0.62599933,2017-07-08 20:45:24,-Infinity
0.047884032,-0.05746084,10.103531,0.023440778,-6.587376E-4,-0.044667814,75.0,-5.2519124E-5,-0.0030382378,0.9999954,0.004823092,-0.0029322912,0.030976772,-0.0017435128,-0.0011835156,0.6288416,2017-07-08 20:45:25,-Infinity
-0.019153614,0.009576807,10.160992,-0.005183242,-0.012766795,0.016751967,75.0,0.0014273886,-4.7839608E-4,0.99999887,-5.196391E-4,0.0042831167,0.04367751,4.7277624E-4,4.228639E-4,0.62642175,2017-07-08 20:45:26,-Infinity
-0.019153614,-0.06703765,10.01734,-0.025133517,0.019953977,0.06849407,75.0,0.0016364964,-0.0039679795,0.99999076,-0.0035914567,-0.0027795406,0.022186995,-0.0012084345,-0.0017940599,0.62904394,2017-07-08 20:45:27,-Infinity
0.009576807,-0.038307227,10.247183,0.009939866,-0.011445015,-0.012284409,75.0,0.0035027491,0.0019982124,0.99999183,-0.0035128142,-0.0020700516,0.026094854,8.8868535E-4,-0.0011516091,0.62819594,2017-07-08 20:45:28,-Infinity
0.019153614,-0.019153614,10.141838,-0.0034354227,-0.001643151,0.007135642,75.0,-4.938167E-4,-0.0026503236,0.9999964,0.0024903202,-0.0011034638,0.03293097,-8.457278E-4,-4.5674524E-4,0.6286152,2017-07-08 20:45:29,-Infinity
0.02873042,-0.009576807,10.170568,0.0056294594,0.004392536,-0.011922007,75.0,5.7701214E-4,0.0015631786,0.9999986,0.0023651395,-0.0026138844,0.037814558,5.980199E-4,-3.4526695E-4,0.6278052,2017-07-08 20:45:30,-Infinity
0.038307227,-0.02873042,10.036493,0.010292442,-0.0019452281,-0.017244529,75.0,4.4131372E-4,-0.0015667948,0.99999875,-0.0013845693,4.954814E-4,0.035859764,-6.9053395E-4,-7.5249193E-4,0.6290137,2017-07-08 20:45:31,-Infinity
-0.009576807,0.0,10.141838,0.0066094478,-0.010317985,0.1920183,75.0,0.0026779042,-2.5391654E-4,0.9999964,-0.0035224664,1.8853633E-4,0.03488481,1.7263349E-4,-9.134906E-4,0.6288868,2017-07-08 20:45:32,-Infinity
0.0,-0.019153614,10.304645,-0.004783102,-0.013885872,0.015851445,75.0,-8.780089E-4,-4.901123E-4,0.9999995,0.0027092143,0.0023632809,0.033904552,-8.8868535E-4,6.103516E-4,0.634317,2017-07-08 20:45:33,-Infinity
0.019153614,-0.019153614,10.170568,-0.011515149,-0.0067117545,0.02265414,75.0,0.0020007927,-0.002370732,0.9999952,-7.6662516E-5,4.203904E-4,0.037817955,-2.9901E-4,-8.8026153E-4,0.63497436,2017-07-08 20:45:34,-Infinity
-0.038307227,-0.05746084,10.170568,-0.004340525,0.007994969,0.003899599,75.0,-0.0048418078,-0.001885398,0.9999865,0.00562789,-6.1992323E-6,0.030007958,-0.0018832091,0.0012328497,0.6343115,2017-07-08 20:45:35,-Infinity
0.009576807,-0.038307227,10.160992,-0.0035746142,0.002489248,0.005109075,75.0,6.8575476E-4,-0.003015228,0.9999953,3.490083E-4,-9.5628086E-4,0.0368405,-9.134906E-4,-9.455526E-4,0.6293553,2017-07-08 20:45:36,-Infinity
-0.038307227,0.019153614,10.141838,0.013211755,0.014364364,-0.028201638,75.0,-7.5735507E-4,0.0016243961,0.9999984,-0.0029687872,3.2492063E-4,0.0348832,0.0,2.4414063E-4,0.62760574,2017-07-08 20:45:37,-Infinity
0.047884032,-0.02873042,10.189722,-0.008911044,-0.0024314064,0.016669549,75.0,0.0014554155,-6.92433E-4,0.99999875,0.0032561878,-0.0022107412,0.039769113,2.9901E-4,-6.4593536E-4,0.62836504,2017-07-08 20:45:38,-Infinity
-0.02873042,0.019153614,10.170568,0.020940043,-7.1749254E-4,-0.037841514,75.0,0.0020541607,-3.152164E-4,0.9999978,-0.0067771375,0.0011032926,0.031951606,2.1143198E-4,-0.0012267914,0.62894005,2017-07-08 20:45:40,-Infinity
0.009576807,-0.019153614,10.151415,-0.016552694,0.02160321,0.017293619,75.0,9.4517303E-4,-0.0016820439,0.99999815,-0.0019458523,-0.0012131431,0.036837876,4.727763E-4,-0.0013090583,0.6287819,2017-07-08 20:45:41,-Infinity
0.02873042,0.02873042,10.132261,0.004769268,-0.0076549007,-0.0054768347,75.0,-0.0011398197,-6.3672697E-4,0.99999917,-8.2305155E-4,-0.0013258953,0.031950593,-6.342959E-4,2.4414063E-4,0.62816465,2017-07-08 20:45:42,-Infinity
0.047884032,0.009576807,10.132261,-3.6570255E-4,-0.018153548,0.0050493404,75.0,0.0015063796,0.0010025128,0.9999984,-0.0015679362,-0.0010034792,0.018270314,4.401308E-4,-4.401308E-4,0.6279923,2017-07-08 20:45:43,-Infinity
0.038307227,-0.009576807,10.323798,0.016714906,0.013700863,-0.036068555,75.0,0.0016419798,-0.0029513736,0.9999943,0.0021191589,0.0019114802,0.05345452,-3.4526695E-4,-0.0013427733,0.6283542,2017-07-08 20:45:44,-Infinity
0.02873042,-0.06703765,10.132261,-0.001799873,0.0035642998,0.0019278941,75.0,-5.438575E-4,-0.003247458,0.9999946,0.005199643,0.005120976,0.048567593,-9.0529764E-4,-5.320922E-4,0.62770706,2017-07-08 20:45:45,-Infinity
0.0,-0.047884032,10.247183,-0.0013871614,0.024106484,0.017476223,75.0,4.6978824E-11,-0.0037253352,0.9999931,6.30771E-5,-0.0012276501,0.045637608,-0.0010066177,-0.00149505,0.62879723,2017-07-08 20:45:46,-Infinity
0.009576807,-0.019153614,10.228029,-0.0011089274,-1.0100838E-4,0.0020891884,75.0,0.0010084156,-0.0010761643,0.99999887,9.229755E-4,-0.0018064304,0.0475865,1.726335E-4,-6.459354E-4,0.6284403,2017-07-08 20:45:47,-Infinity
-0.009576807,-0.047884032,10.208876,-0.0035501812,-0.009026523,0.010036376,75.0,-1.9853759E-4,-0.0024555959,0.9999969,-8.5178646E-4,-0.002251915,0.041725397,-7.324219E-4,-3.8602023E-4,0.6287389,2017-07-08 20:45:48,-Infinity
-0.009576807,0.019153614,10.132261,-0.001461495,0.00361675,9.752409E-4,75.0,-2.6457643E-4,0.0010556862,0.9999994,-0.0035318506,-0.0020455332,0.041722655,-4.882812E-4,4.228639E-4,0.6279787,2017-07-08 20:45:49,-Infinity
0.038307227,0.019153614,10.199299,0.014590839,-0.008989735,-0.022577552,75.0,8.812522E-4,2.5290396E-4,0.9999995,0.0028767802,0.0016729627,0.040745378,2.4414063E-4,-3.4526698E-4,0.6282063,2017-07-08 20:45:50,-Infinity
0.02873042,0.0,10.247183,-8.3485415E-4,0.026903434,-0.0071771927,75.0,-0.0014373783,-0.0018184022,0.9999973,5.9941143E-4,0.0026799927,0.041724622,-8.097229E-4,-6.224389E-4,0.6290143,2017-07-08 20:45:51,-Infinity
0.02873042,-0.009576807,10.1226845,-0.020504972,-0.013132485,0.042827528,75.0,-1.249222E-4,-0.0026363845,0.99999654,0.00195445,-0.0029889017,0.041726053,-8.1887253E-4,-2.4414063E-4,0.6286218,2017-07-08 20:45:52,-Infinity
-0.019153614,0.009576807,10.237606,-0.0044782762,-0.014304335,0.013251047,75.0,-6.963799E-4,-0.0025682293,0.9999964,-3.487707E-4,0.0015051705,0.031953096,-0.0015537012,-3.4526695E-4,0.6279184,2017-07-08 20:45:53,-Infinity
-0.009576807,-0.047884032,10.151415,-0.02330556,0.018076675,0.034346677,75.0,0.0014366173,-0.0026982292,0.9999953,-0.0023255185,-0.001938693,0.035863936,4.2286396E-4,-0.0012448778,0.62747204,2017-07-08 20:45:54,-Infinity
0.009576807,0.009576807,10.170568,0.04279559,0.020218154,-0.09034337,75.0,-0.0011705667,-0.0029407556,0.99999493,0.004058255,0.0037623795,0.030976951,-0.0011516091,-0.0010139922,0.6282737,2017-07-08 20:45:55,-Infinity
-0.009576807,0.0,10.160992,-0.0036384095,0.02489199,1.14808674E-4,75.0,0.0021762236,2.4670793E-4,0.9999976,-0.0029416133,-1.870846E-4,0.036837876,0.0014235723,-8.802616E-4,0.62646806,2017-07-08 20:45:56,-Infinity
0.038307227,-0.05746084,10.1226845,-0.0040927376,0.012377233,0.0017232934,75.0,-3.9004788E-4,-0.0013743298,0.999999,-0.0052979183,0.001225104,0.027064502,-4.4013077E-4,-7.816314E-4,0.62752366,2017-07-08 20:45:57,-Infinity
0.019153614,-0.009576807,10.1226845,-0.028003994,0.0029016067,0.050631434,75.0,-7.512047E-4,6.9121266E-4,0.9999994,0.0027369715,-0.0015719413,0.032927394,2.7295752E-4,0.0010285827,0.63254046,2017-07-08 20:45:58,-Infinity
-0.019153614,-0.047884032,10.113108,-0.019180572,-0.006604512,0.03888364,75.0,1.1285352E-4,-0.004214953,0.9999911,-0.002080473,-6.6436175E-4,0.03195864,-0.0014800238,-0.0012145842,0.63599515,2017-07-08 20:45:59,-Infinity
0.038307227,0.0,10.170568,-0.0017062834,0.011044562,3.4071668E-4,75.0,6.5159315E-4,-0.0021447178,0.99999744,0.0032440084,0.0021846457,0.03781575,-2.1143198E-4,-8.0046855E-4,0.6287816,2017-07-08 20:46:00,-Infinity
-0.019153614,-0.009576807,10.266336,0.013825085,0.0027144318,-0.026909076,75.0,0.001373636,-0.002320791,0.9999964,-0.0031473893,0.0012516878,0.047588587,-3.4526698E-4,-0.0010358009,0.6290554,2017-07-08 20:46:01,-Infinity
0.009576807,0.019153614,10.266336,0.0089313695,0.0063059493,-0.050899595,75.0,-0.0012576722,-0.0011423855,0.9999985,-6.0301577E-4,-8.2301686E-4,0.0368374,-3.229677E-4,-4.401308E-4,0.63455105,2017-07-08 20:46:02,-Infinity
0.02873042,-0.009576807,10.208876,0.022726197,0.0025789326,-0.041279,75.0,0.0012825244,-4.3537625E-4,0.9999991,0.00835609,0.0033093183,0.045631945,-1.726335E-4,-9.4555266E-4,0.6288292,2017-07-08 20:46:03,-Infinity
0.0,-0.02873042,10.084377,0.0057389326,-0.01033297,-0.006487902,75.0,0.002794018,-0.0029020873,0.9999919,0.0028598015,0.002624153,0.038798332,-0.0010285827,-0.0015000252,0.62988544,2017-07-08 20:46:04,-Infinity
0.038307227,0.009576807,10.275913,-0.013167825,-7.396784E-4,0.027176745,75.0,-0.0019335703,0.0013654866,0.99999714,0.006584321,-0.0032359113,0.047587633,-4.2286387E-4,0.0011320333,0.6257557,2017-07-08 20:46:05,-Infinity
0.02873042,-0.009576807,10.084377,-0.011092994,0.005645905,0.019001663,75.0,2.5534432E-4,-0.0032878893,0.9999946,-2.5281095E-4,-0.0024187996,0.03195578,-9.5339963E-4,-0.00105716,0.6281693,2017-07-08 20:46:06,-Infinity
0.009576807,-0.02873042,10.103531,-0.008929501,-0.0041124984,0.018179089,75.0,0.0012366616,-5.040176E-4,0.9999991,-0.0049684863,-0.0032856148,0.041722596,4.727763E-4,-1.2207031E-4,0.62687033,2017-07-08 20:46:07,-Infinity
0.0,-0.047884032,10.103531,0.0033573587,-0.012702572,8.96403E-4,75.0,-1.9542525E-4,-0.0028818701,0.99999577,-8.5215137E-4,-9.383997E-4,0.04270369,-0.0016009369,-2.9900996E-4,0.62804526,2017-07-08 20:46:08,-Infinity
0.047884032,-0.06703765,10.189722,-0.0012410725,2.4903496E-4,0.0021505326,75.0,-5.4753516E-5,-6.257547E-5,1.0,9.772251E-4,-7.5810537E-4,0.034881473,7.1178604E-4,3.4526695E-4,0.6322742,2017-07-08 20:46:09,-Infinity
0.047884032,-0.047884032,10.160992,-0.012235049,0.0027137515,0.021032372,75.0,9.2032435E-4,-0.003059949,0.9999949,-0.0036807116,-0.0016715117,0.030977964,-8.2792115E-4,-0.001413066,0.6357705,2017-07-08 20:46:11,-Infinity
-0.009576807,0.009576807,10.218452,0.001242449,3.5496475E-4,-0.0029395102,75.0,6.787008E-4,-4.3166432E-4,0.99999964,-0.0016948758,0.0013828538,0.042699575,-2.4414063E-4,-2.4414063E-4,0.6303406,2017-07-08 20:46:12,-Infinity
-0.019153614,-0.08619126,9.998186,-0.014529375,-0.0038311344,0.025704965,75.0,0.0017588678,-0.0020891475,0.9999963,-0.0036224741,-0.006497559,0.020227075,-3.4526698E-4,-8.2792115E-4,0.6288107,2017-07-08 20:46:13,-Infinity
0.019153614,-0.009576807,10.228029,-0.017458372,0.01147042,0.025159316,75.0,-0.0015660654,-7.059065E-5,0.99999875,6.8530976E-4,-0.0026807268,0.04074627,-5.725604E-4,4.5674518E-4,0.627916,2017-07-08 20:46:14,-Infinity
-0.02873042,0.009576807,10.228029,0.0143512115,0.0028339098,-0.028070863,75.0,1.7790511E-4,-0.0010648147,0.9999994,-0.0029316754,0.0019815876,0.043676853,-8.368719E-4,-3.2296768E-4,0.62884164,2017-07-08 20:46:15,-Infinity
0.08619126,-0.038307227,10.228029,0.016068626,0.01587436,-0.03500276,75.0,-7.5184816E-4,-0.002200531,0.9999974,8.1722246E-4,0.0012229888,0.03683865,-8.0972293E-4,-7.52492E-4,0.6291203,2017-07-08 20:46:16,-Infinity
0.019153614,0.02873042,10.208876,-0.009868625,-0.0039650635,0.02044722,75.0,-1.2838545E-4,-5.554636E-4,0.99999976,0.0019544503,0.0035290467,0.04172218,-4.5674524E-4,2.9900996E-4,0.6279165,2017-07-08 20:46:17,-Infinity
0.05746084,-0.02873042,10.189722,0.020313129,-0.017520623,-0.029430777,75.0,0.0012589947,-0.0025704473,0.9999958,0.0025872784,0.0034946003,0.044657707,-5.459151E-4,-7.52492E-4,0.6289168,2017-07-08 20:46:18,-Infinity
0.019153614,0.019153614,10.170568,0.0105182035,-0.0037708841,-0.01679408,75.0,0.0013782808,3.792234E-4,0.999999,5.7327957E-4,0.0015149869,0.03781408,6.4593536E-4,-2.4414063E-4,0.62794286,2017-07-08 20:46:19,-Infinity
0.009576807,-0.009576807,10.208876,-0.016107216,0.002726308,0.028440004,75.0,-7.6773716E-4,-4.5592553E-4,0.9999995,-0.0029655048,-0.0043200883,0.037813663,-3.4526698E-4,-2.4414063E-4,0.62683034,2017-07-08 20:46:20,-Infinity
0.02873042,0.009576807,10.170568,-0.029007591,-0.0055237403,0.057263758,75.0,0.0012039033,-0.0013033561,0.9999984,0.0017067646,0.00229636,0.037814677,5.9802E-4,-0.0,0.62694955,2017-07-08 20:46:21,-Infinity
-0.009576807,-0.009576807,10.084377,0.02120725,0.008322827,-0.043763455,75.0,-0.002366413,-5.655414E-4,0.999997,0.0022217296,0.0014778966,0.026089072,-8.717563E-4,3.4526695E-4,0.6269636,2017-07-08 20:46:22,-Infinity
0.0,-0.02873042,10.113108,0.017671525,-0.0017414975,-0.031717565,75.0,-8.264216E-4,-0.0025027278,0.99999654,-0.0021189246,6.401001E-4,0.053452432,-0.0014130659,-2.9900996E-4,0.6278154,2017-07-08 20:46:23,-Infinity
0.0,0.02873042,10.266336,0.0190706,-0.0030616024,-0.03353601,75.0,6.22292E-4,5.072464E-4,0.99999964,-0.0026450143,0.0012952754,0.028041363,6.2243873E-4,-5.1790033E-4,0.6268014,2017-07-08 20:46:24,-Infinity
0.0,0.009576807,10.208876,0.017882504,0.0047318186,-0.035722964,75.0,-5.7979306E-4,-0.0028202601,0.9999958,-0.0021756543,0.0020153583,0.031954467,-8.8026153E-4,-4.567453E-4,0.62764513,2017-07-08 20:46:25,-Infinity
-0.019153614,0.009576807,10.323798,0.005454357,-0.0065323412,-0.00677207,75.0,0.0011258594,-6.938438E-4,0.9999991,-0.0011621319,-2.8622762E-4,0.046608984,-4.882812E-4,-4.228639E-4,0.6268043,2017-07-08 20:46:26,-Infinity
-0.038307227,0.019153614,10.151415,-0.022054013,0.004089636,0.038318794,75.0,-0.0020526836,-0.0025271864,0.9999947,0.004851595,-0.005173977,0.026091874,-0.0011121132,4.8828113E-4,0.627237,2017-07-08 20:46:27,-Infinity
-0.019153614,0.019153614,10.151415,-0.0032380137,0.01705877,-0.001680925,75.0,5.6054036E-4,0.0011729829,0.9999991,-0.0013511498,-0.002005518,0.027064204,9.216103E-4,-5.9801975E-4,0.6262606,2017-07-08 20:46:28,-Infinity
0.0,0.0,10.151415,-0.013213134,0.0026060052,0.023144139,75.0,0.0016349918,6.764583E-4,0.9999985,3.249714E-4,-0.0034957258,0.038791835,6.9053395E-4,-5.7256053E-4,0.62697846,2017-07-08 20:46:29,-Infinity
0.009576807,-0.038307227,10.218452,-0.0018944796,0.037775837,-0.0048795263,75.0,-8.8286365E-4,-0.0030769648,0.9999948,-0.0028116247,-0.0017824012,0.03390956,-9.841624E-4,-0.0012508486,0.62834823,2017-07-08 20:46:30,-Infinity
0.047884032,-0.009576807,10.266336,-0.014390824,-0.0013935267,0.027572311,75.0,0.0013253519,0.0018187499,0.99999744,-3.1419157E-4,-9.441506E-4,0.035861254,6.342959E-4,-4.0486144E-4,0.6266016,2017-07-08 20:46:31,-Infinity
-0.019153614,0.0,10.208876,-0.028815392,5.3475995E-4,0.053791456,75.0,-9.4065507E-4,-0.00175292,0.99999803,0.003811789,-1.627903E-4,0.037815034,-6.224389E-4,3.4526698E-4,0.6268401,2017-07-08 20:46:32,-Infinity
0.038307227,0.0,10.333375,0.014653929,0.0039068717,-0.029031387,75.0,1.8792138E-4,-2.68832E-4,1.0,7.265671E-4,-0.00167246,0.03585875,-6.103516E-4,-2.7295755E-4,0.62731826,2017-07-08 20:46:33,-Infinity
-0.019153614,-0.009576807,10.04607,0.0133157205,2.4944666E-4,-0.024901524,75.0,3.1950127E-4,-7.018552E-4,0.99999964,6.9446425E-4,-3.4886756E-4,0.047585607,-5.459151E-4,-0.0,0.62717366,2017-07-08 20:46:34,-Infinity
-0.009576807,0.0,10.247183,0.016534403,0.0065948493,-0.03476787,75.0,0.0023124134,-0.0017538848,0.99999577,-0.0031062763,0.0016907173,0.045634627,-5.5939646E-4,-0.0018310547,0.62233955,2017-07-08 20:46:35,-Infinity
0.019153614,-0.009576807,10.25676,0.01770375,0.0049545914,-0.03510265,75.0,-6.8182795E-5,1.127637E-4,1.0,-0.0028057585,-0.002080367,0.032926917,-4.2286396E-4,-2.4414063E-4,0.62095684,2017-07-08 20:46:36,-Infinity
-0.038307227,-0.02873042,10.103531,-0.0046332097,-0.0050873174,0.00959055,75.0,1.13029295E-4,-0.0022053828,0.99999756,-0.0040035285,-6.9214473E-4,0.030975044,-9.991885E-4,-8.544922E-4,0.62802285,2017-07-08 20:46:37,-Infinity
0.019153614,0.02873042,10.141838,-0.0028998307,-0.0011861883,0.0044087237,75.0,0.0012037259,5.627809E-4,0.9999991,0.0054338,4.457764E-4,0.04367751,4.0486144E-4,-8.368719E-4,0.62671334,2017-07-08 20:46:38,-Infinity
0.019153614,-0.009576807,10.132261,0.0027466596,-0.019753983,0.0023388285,75.0,0.0015059392,-3.1952103E-4,0.99999887,0.00215011,-6.317484E-4,0.050518572,2.9900996E-4,-3.4526695E-4,0.62663823,2017-07-08 20:46:39,-Infinity
0.038307227,-0.06703765,10.180145,-0.0112320185,0.006727415,0.017106786,75.0,0.0014358765,-0.0013212146,0.99999815,-0.004183081,-0.0014925597,0.026088297,1.7263349E-4,-7.7204045E-4,0.62724555,2017-07-08 20:46:40,-Infinity
-0.02873042,-0.019153614,10.141838,-0.006477759,0.012987846,0.0063009867,75.0,0.002701733,-0.0010180443,0.9999959,-0.0015925735,-0.0047664857,0.031953633,8.2792115E-4,-0.0014546356,0.6271264,2017-07-08 20:46:41,-Infinity
-0.02873042,-0.009576807,10.208876,-0.012919057,0.0053889058,0.021534117,75.0,0.001432261,-0.002814863,0.99999505,-0.004186375,0.0017517467,0.04172641,-3.4526698E-4,-0.0016377451,0.6282222,2017-07-08 20:46:42,-Infinity
-0.009576807,-0.02873042,10.1226845,0.014888059,-0.0010450362,-0.027575016,75.0,5.758867E-4,-7.5996015E-4,0.9999995,-0.0015448334,7.568111E-4,0.042699695,-3.8602023E-4,-8.8026153E-4,0.6275638,2017-07-08 20:46:43,-Infinity
0.0,-0.009576807,10.01734,0.01703256,7.537126E-4,-0.031627066,75.0,0.001137121,-0.0045008827,0.9999892,-0.001047243,0.0034021554,0.02218759,-0.0012207031,-0.0015632628,0.6287546,2017-07-08 20:46:44,-Infinity
-0.009576807,-0.019153614,10.189722,0.060177684,-0.015477596,-0.10104486,75.0,7.5279415E-4,-0.0022689104,0.99999714,-8.84032E-4,0.0059295446,0.035861075,-0.0019946455,-9.991885E-4,0.628791,2017-07-08 20:46:45,-Infinity
0.047884032,-0.009576807,10.28549,0.008815009,-0.0411588,7.3526916E-4,75.0,-0.0020583149,8.102157E-4,0.99999756,0.006332755,-0.0018577822,0.049541175,-7.012406E-4,0.0013647877,0.62601256,2017-07-08 20:46:46,-Infinity
-0.038307227,-0.02873042,10.218452,0.012460021,0.014304985,-0.025647473,75.0,6.2949955E-4,-0.0018937663,0.99999803,-6.003529E-4,0.0018642538,0.036837757,4.2286396E-4,-8.2792115E-4,0.6270821,2017-07-08 20:46:47,-Infinity
-0.009576807,-0.009576807,10.266336,-0.015012376,-0.0016205644,0.031079981,75.0,0.004494863,7.013445E-4,0.99998957,-0.004445235,0.0022742816,0.034891546,0.0014749814,-0.0013033544,0.6267971,2017-07-08 20:46:48,-Infinity
0.038307227,-0.009576807,10.0748005,-0.0147270635,-8.843942E-4,0.02759507,75.0,-3.0696654E-4,8.1595365E-4,0.99999964,0.0011659104,-0.0016690707,0.057357907,5.179005E-4,3.8602026E-4,0.62003297,2017-07-08 20:46:49,-Infinity
0.019153614,-0.019153614,10.314221,-0.032038685,-0.008374386,0.06319631,75.0,0.0010053313,-0.003568403,0.9999931,9.1805856E-4,8.3702174E-4,0.042706907,-1.7263349E-4,-7.324219E-4,0.6211918,2017-07-08 20:46:50,-Infinity
0.019153614,0.009576807,10.180145,-0.008072774,-3.0662963E-4,0.014830422,75.0,-1.817109E-4,0.0012460176,0.9999992,0.0011952391,5.5293145E-4,0.05247253,3.8602023E-4,-2.9901E-4,0.62024826,2017-07-08 20:46:51,-Infinity
-0.009576807,-0.019153614,10.113108,0.015534028,-6.780689E-4,-0.027878141,75.0,8.8563235E-4,5.045737E-4,0.9999994,0.0010718657,0.0013555537,0.047585964,1.7263349E-4,1.7263349E-4,0.6202737,2017-07-08 20:46:52,-Infinity
0.038307227,-0.019153614,10.189722,0.029301105,-3.854328E-4,-0.053283803,75.0,5.057828E-4,-0.0043017888,0.99999064,-6.318262E-4,0.0021840115,0.04759413,-0.0014850495,-0.0015148527,0.62272024,2017-07-08 20:46:53,-Infinity
0.038307227,0.02873042,10.247183,-0.010753752,-0.015364023,0.02268672,75.0,0.0017197817,1.21731486E-4,0.9999985,-0.0036027655,-0.0019544503,0.028042257,3.4526698E-4,-3.4526698E-4,0.6267127,2017-07-08 20:46:54,-Infinity
-0.009576807,-0.019153614,10.103531,0.015519755,0.0056589176,-0.03146407,75.0,0.0031161099,-0.0012500975,0.9999944,-0.0030380695,0.0013780931,0.046613693,7.117861E-4,-0.0011708573,0.6270647,2017-07-08 20:46:56,-Infinity
-0.02873042,-0.047884032,10.247183,0.0015875967,-0.010707656,-0.0022948808,75.0,0.0013066924,-0.0011943169,0.9999984,-4.332983E-4,1.5119382E-4,0.050518572,-3.8602026E-4,-0.0010066177,0.62762356,2017-07-08 20:46:57,-Infinity
0.038307227,-0.009576807,10.0748005,-0.028299842,-0.008627264,0.057236083,75.0,-8.1629073E-4,0.0018706662,0.9999979,-6.7337474E-5,-0.0038369766,0.041724145,2.7295755E-4,8.8868535E-4,0.6194,2017-07-08 20:46:58,-Infinity
0.02873042,-0.047884032,10.208876,0.009918457,0.014305629,-0.025073323,75.0,9.4501616E-4,-0.0013172952,0.99999875,0.002025398,-0.0016191357,0.044654906,-3.8602017E-4,-0.0013810678,0.62157446,2017-07-08 20:46:59,-Infinity
