ACC_X,ACC_Y,ACC_Z,GYRO_X,GYRO_Y,GYRO_Z,LIGH_1,GRAV_X,GRAV_Y,GRAV_Z,LINACC_X,LINACC_Y,LINACC_Z,ROTVEC_X,ROTVEC_Y,ROTVEC_Z,TIME,VOICE
3.9743195,0.14675903,8.886475,0.0040893555,-2.1362305E-4,0.0027313232,124.0,4.1819477,0.1517971,8.868972,-0.1649828,-0.011265427,0.042695045,-0.02598062,-0.21710205,-0.15101664,2017-05-27 09:07:46,65.7796877668169
3.9539795,0.14317322,8.912796,0.0040893555,-0.0014343262,2.746582E-4,114.0,3.993001,0.15763634,8.955527,-0.016656876,-0.013580218,0.0074281693,-0.030400567,-0.20608485,-0.18079184,2017-05-27 09:07:47,49.0925282485263
3.9503937,0.13957214,8.922363,0.0053253174,-0.0014343262,2.746582E-4,117.0,3.9783015,0.15870258,8.962049,-0.0023911,-0.006292686,-0.0022439957,-0.030395579,-0.20527737,-0.1817435,2017-05-27 09:07:48,56.92413808742102
3.959961,0.13719177,8.911606,0.0053253174,-0.0014343262,2.746582E-4,116.0,3.9777906,0.16117267,8.962232,-7.5387955E-4,-0.018270671,-0.0010719299,-0.030260423,-0.20527464,-0.18172772,2017-05-27 09:07:49,45.42994981807433
3.9527893,0.14555359,8.90921,0.0040893555,-2.1362305E-4,0.0015106201,116.0,3.9796214,0.16192763,8.961406,-0.0019021034,-0.015359655,0.0039424896,-0.030191595,-0.20538737,-0.18149649,2017-05-27 09:07:50,47.87862955727196
3.9515991,0.14555359,8.885284,7.4768066E-4,-5.950928E-4,-1.6784668E-4,117.0,3.9818683,0.15173465,8.960585,-0.003923893,0.0010322332,-0.0049505234,-0.030747332,-0.2054067,-0.18154533,2017-05-27 09:07:51,48.629240873489074
3.955185,0.15393066,8.880493,-4.8828125E-4,-5.950928E-4,0.0010681152,117.0,3.98657,0.1546929,8.958445,0.0044579506,6.285906E-4,0.0025939941,-0.030511312,-0.2057074,-0.18091941,2017-05-27 09:07:52,48.71074646753436
3.9575806,0.14196777,8.857758,7.4768066E-4,6.2561035E-4,0.0010681152,117.0,3.9860606,0.15283376,8.958703,0.0063450336,0.004919648,-0.006518364,-0.030625505,-0.20565839,-0.1810332,2017-05-27 09:07:53,44.50867792137879
3.9468079,0.15034485,8.86734,-4.8828125E-4,-5.950928E-4,-1.6784668E-4,117.0,3.9901314,0.1544005,8.956863,-0.004701853,0.0117973685,0.0019493103,-0.030478142,-0.20590812,-0.18052068,2017-05-27 09:07:54,48.243798780301496
3.9503937,0.15753174,8.892456,-4.8828125E-4,-5.950928E-4,-1.6784668E-4,117.0,3.9811625,0.15515535,8.96084,0.002588272,0.0036763847,0.0066957474,-0.030560147,-0.20540297,-0.1815234,2017-05-27 09:07:55,52.80247921677177
3.9420166,0.15153503,8.8936615,-4.8828125E-4,-5.950928E-4,0.0010681152,117.0,3.97956,0.1539888,8.961572,3.2615662E-4,0.0046375096,-6.2561035E-4,-0.030649593,-0.20529878,-0.18174134,2017-05-27 09:07:56,54.80597108580235
3.947998,0.15753174,8.911606,-4.8828125E-4,-5.950928E-4,-1.6784668E-4,117.0,3.9756525,0.15321475,8.96332,-0.0034677982,0.005249083,0.0028152466,-0.030748269,-0.20506689,-0.18221055,2017-05-27 09:07:57,53.42545746388382
3.943222,0.15274048,8.913986,-4.8828125E-4,-5.950928E-4,0.0010681152,117.0,3.9684103,0.15036923,8.966578,-0.01366353,-0.0027202219,0.0016841888,-0.03101172,-0.20462184,-0.18312214,2017-05-27 09:07:58,48.44632562383794
3.943222,0.14675903,8.919968,0.001953125,-5.950928E-4,-1.6784668E-4,117.0,3.967429,0.15196696,8.966984,0.0022702217,-0.0031409264,-0.0060358047,-0.030933073,-0.204583,-0.18318544,2017-05-27 09:08:00,61.42860639851507
3.9372406,0.15153503,8.917587,7.4768066E-4,-5.950928E-4,0.0010681152,117.0,3.970614,0.15338425,8.96555,0.0019962788,0.0038462281,-0.0010929108,-0.03080784,-0.20478049,-0.18277982,2017-05-27 09:08:01,50.38357402360714
3.9456177,0.1563263,8.90921,-4.8828125E-4,-5.950928E-4,0.0010681152,117.0,3.9758246,0.15618266,8.963193,-0.0038011074,0.008321062,0.007639885,-0.030574955,-0.20510864,-0.18210164,2017-05-27 09:08:02,49.14765897464011
3.947998,0.15513611,8.902023,-4.8828125E-4,-5.950928E-4,0.0010681152,117.0,3.9765396,0.15561895,8.962885,-0.002506256,5.3602457E-4,-0.0021800995,-0.03059754,-0.2051435,-0.18203703,2017-05-27 09:08:03,55.05132584986551
3.9539795,0.15393066,8.8936615,-4.8828125E-4,-5.950928E-4,0.0022888184,117.0,3.9786406,0.154468,8.961973,8.969307E-4,0.0064825863,-0.00207901,-0.030634753,-0.20525129,-0.18183196,2017-05-27 09:08:04,57.13488470582388
3.947998,0.15991211,8.913986,7.4768066E-4,-5.950928E-4,0.0010681152,117.0,3.9682262,0.15413192,8.966594,0.0016076565,0.005521655,0.0013151169,-0.030706288,-0.20476188,-0.18280008,2017-05-27 09:08:05,50.611256220924126
3.9456177,0.14794922,8.925964,-4.8828125E-4,6.2561035E-4,0.0010681152,117.0,3.965106,0.15082489,8.968032,0.003881216,-0.003267467,-0.0041770935,-0.031030558,-0.20443773,-0.1834846,2017-05-27 09:08:06,51.69642840593941
3.9492035,0.14196777,8.93074,-4.8828125E-4,-5.950928E-4,0.0010681152,117.0,3.961989,0.14971751,8.969426,0.0057935715,-0.007047668,0.0033740997,-0.031136706,-0.20424746,-0.1838729,2017-05-27 09:08:07,54.35784806603213
3.9468079,0.14794922,8.92955,7.4768066E-4,-5.950928E-4,0.0010681152,117.0,3.9634526,0.14359179,8.968881,8.087158E-4,-0.0021818876,-0.0022306442,-0.031469874,-0.2042646,-0.18389305,2017-05-27 09:08:08,50.97668258595111
3.9444122,0.15393066,8.900833,-4.8828125E-4,6.2561035E-4,0.0022888184,117.0,3.9720433,0.1481216,8.965006,-0.004976988,0.0077431053,-0.013138771,-0.031154998,-0.20479189,-0.18281263,2017-05-27 09:08:09,51.31430830062356
3.955185,0.14555359,8.899643,-4.8828125E-4,6.2561035E-4,0.0010681152,117.0,3.9756794,0.14689516,8.963414,0.0060896873,-3.593117E-4,-0.0038347244,-0.03111196,-0.20500034,-0.1823981,2017-05-27 09:08:10,48.673287654839676
3.9527893,0.14196777,8.905624,7.4768066E-4,-5.950928E-4,0.0010681152,117.0,3.9762723,0.1473654,8.963142,0.004776478,-0.0043397546,0.0055856705,-0.031080835,-0.20502642,-0.18234216,2017-05-27 09:08:11,51.54756390618069
3.9384308,0.13957214,8.896042,-4.8828125E-4,6.2561035E-4,0.0010681152,126.0,3.970148,0.13878821,8.965995,-0.00233531,0.0018110722,-0.0035972595,-0.03165531,-0.20459586,-0.18327564,2017-05-27 09:08:12,52.33850093032486
3.9420166,0.12760925,8.918777,7.4768066E-4,-5.950928E-4,0.0010681152,128.0,3.9734886,0.14254934,8.964456,-0.0046942234,-0.013494894,0.013875961,-0.03142574,-0.2048044,-0.18283118,2017-05-27 09:08:13,56.07168175185215
3.9492035,0.14915466,8.922363,7.4768066E-4,6.2561035E-4,0.0022888184,129.0,3.9625363,0.14056097,8.969334,0.0041615963,0.00884892,9.908676E-4,-0.03158727,-0.20436208,-0.18372159,2017-05-27 09:08:14,58.52694714646777
3.9288635,0.13957214,8.94989,7.4768066E-4,0.0018615723,-1.6784668E-4,112.0,3.942744,0.14151427,8.978036,0.0019817352,-0.0013727993,0.007973671,-0.032255966,-0.20299536,-0.18815002,2017-05-27 09:08:15,55.2589647082887
3.9180908,0.14794922,8.943909,-4.8828125E-4,0.0030670166,0.0010681152,114.0,3.9316778,0.14416136,8.982845,0.023627758,0.0055684,-7.05719E-4,-0.03248236,-0.20235425,-0.19043572,2017-05-27 09:08:16,62.52538526365025
3.9049377,0.14675903,8.952286,-4.8828125E-4,6.2561035E-4,0.0022888184,114.0,3.9122066,0.14548114,8.991322,0.00876832,0.0018742532,-0.0021781921,-0.03243815,-0.20129073,-0.1915654,2017-05-27 09:08:17,56.787161166866625
3.8833923,0.1443634,8.952286,-4.8828125E-4,0.0018615723,0.0010681152,116.0,3.9086528,0.14069425,8.992943,-0.019817114,-0.0039522946,-0.007923126,-0.032757457,-0.20103349,-0.19211063,2017-05-27 09:08:18,52.92082000163763
3.8750153,0.15274048,8.928345,-4.8828125E-4,-5.950928E-4,0.0010681152,111.0,3.9068475,0.1472939,8.993622,0.003169775,-0.0031623393,0.0016155243,-0.032398943,-0.2010055,-0.19210231,2017-05-27 09:08:19,50.53000453238013
3.873825,0.13838196,8.92955,-4.8828125E-4,0.0018615723,0.0010681152,112.0,3.90737,0.14459363,8.99344,0.0011498928,0.013738617,-0.008512497,-0.032548256,-0.2010046,-0.1921297,2017-05-27 09:08:20,53.163869738433284
3.8965607,0.14077759,8.939117,-4.8828125E-4,0.0018615723,0.0010681152,111.0,3.9055104,0.14486669,8.994242,-0.008995771,0.0028743148,-0.0037565231,-0.03255506,-0.20090161,-0.19232707,2017-05-27 09:08:21,52.83664939362276
3.873825,0.15513611,8.941513,-4.8828125E-4,-5.950928E-4,0.0010681152,112.0,3.8938408,0.14622705,8.999278,-0.002585888,0.0061424524,0.013931274,-0.03261673,-0.20025149,-0.19357441,2017-05-27 09:08:22,52.58972951606526
3.8666534,0.14794922,8.965439,-4.8828125E-4,-5.950928E-4,0.0010681152,112.0,3.8864892,0.14397012,9.002492,0.0052189827,0.004641548,0.0031795502,-0.032833867,-0.19980639,-0.19445753,2017-05-27 09:08:23,52.33928948116676
3.8702393,0.14077759,8.976212,7.4768066E-4,6.2561035E-4,0.0010681152,111.0,3.883944,0.14560832,9.003564,1.616478E-4,-0.004310876,0.0047922134,-0.03276931,-0.19968018,-0.19468553,2017-05-27 09:08:24,49.41722689858092
3.8809967,0.14915466,8.97023,7.4768066E-4,-5.950928E-4,0.0022888184,112.0,3.8838577,0.14839539,9.003555,-0.007496357,-0.0035234839,-0.0048685074,-0.032609634,-0.19970737,-0.19460578,2017-05-27 09:08:25,50.551884652459194
3.873825,0.1563263,8.9474945,7.4768066E-4,-5.950928E-4,0.0010681152,111.0,3.882754,0.14737874,9.004048,0.0086705685,0.0096156,-0.015740395,-0.032681175,-0.19963276,-0.19475985,2017-05-27 09:08:26,50.01202489809903
3.8714294,0.15753174,8.9474945,-4.8828125E-4,6.2561035E-4,0.0010681152,112.0,3.8867333,0.14842345,9.002315,-5.464554E-4,0.0063446313,-0.00642395,-0.03257424,-0.19987154,-0.19428825,2017-05-27 09:08:27,50.737262241528136
3.8690338,0.15872192,8.945099,7.4768066E-4,-5.950928E-4,0.0010681152,112.0,3.8898623,0.15403764,9.000868,1.3613701E-4,-3.7272274E-4,-0.0029411316,-0.032213707,-0.20011427,-0.19376463,2017-05-27 09:08:28,52.42604223939147
3.8594666,0.14317322,8.9474945,-4.8828125E-4,6.2561035E-4,0.0010681152,112.0,3.8901355,0.15054226,9.000809,-0.005981207,-0.0064136535,0.0038070679,-0.03241194,-0.20008977,-0.19384575,2017-05-27 09:08:29,58.618898010790225
3.8546906,0.1443634,8.958267,-4.8828125E-4,0.0018615723,0.0022888184,112.0,3.8830113,0.14672133,9.003948,0.0037207603,0.01170516,0.0032463074,-0.032716066,-0.19963984,-0.19475259,2017-05-27 09:08:30,51.87680401334273
3.8678436,0.15274048,8.976212,-4.8828125E-4,6.2561035E-4,-1.6784668E-4,112.0,3.8742185,0.14571662,9.007751,0.009495497,0.0076207668,0.005358696,-0.032876257,-0.19912723,-0.19575189,2017-05-27 09:08:31,53.48787871728425
3.8463135,0.14317322,8.988174,7.4768066E-4,6.2561035E-4,0.0010681152,112.0,3.8581448,0.1502656,9.014574,-0.0025818348,0.009003177,0.0099925995,-0.03279735,-0.19826503,-0.19736633,2017-05-27 09:08:32,46.17331164659512
3.8439178,0.15393066,8.986969,7.4768066E-4,6.2561035E-4,0.0010681152,113.0,3.8510818,0.14912546,9.0176115,0.005881071,0.0068071038,-0.0027360916,-0.033041466,-0.19777797,-0.1983285,2017-05-27 09:08:33,55.50344648885237
3.8271637,0.15991211,8.986969,0.001953125,-5.950928E-4,0.0010681152,112.0,3.8449686,0.15189622,9.020174,0.0011520386,-0.011176318,1.2397766E-4,-0.032850243,-0.19753481,-0.19875093,2017-05-27 09:08:34,31.151615295058733
3.8379364,0.15991211,8.976212,7.4768066E-4,-5.950928E-4,0.0010681152,114.0,3.8486168,0.15203363,9.018615,-0.0010893345,-0.004564777,8.9263916E-4,-0.032801945,-0.19774386,-0.19834886,2017-05-27 09:08:35,45.99919830054154
3.8283691,0.15153503,8.954666,7.4768066E-4,0.0018615723,0.0010681152,112.0,3.8479457,0.15185724,9.018904,0.003875494,0.008980393,-0.008065224,-0.032819558,-0.19770363,-0.19842777,2017-05-27 09:08:36,43.29486293022447
3.811615,0.13719177,8.966629,7.4768066E-4,0.0018615723,0.0022888184,113.0,3.8432958,0.1463647,9.020978,-0.008498669,-0.008290082,6.484985E-5,-0.033187654,-0.19737455,-0.19911438,2017-05-27 09:08:38,41.3297301898034
3.8223877,0.15872192,8.954666,7.4768066E-4,-5.950928E-4,0.0010681152,112.0,3.8391337,0.14438027,9.022781,-0.0024380684,-3.5393238E-4,0.0031585693,-0.033347763,-0.19711441,-0.19963299,2017-05-27 09:08:39,54.46354699533127
3.8223877,0.14317322,8.99057,7.4768066E-4,6.2561035E-4,0.0010681152,113.0,3.838413,0.14679354,9.023049,0.0017302036,-0.0020415038,0.007642746,-0.033276185,-0.19705805,-0.19972555,2017-05-27 09:08:40,57.19055918176722
3.8080292,0.15153503,9.0013275,7.4768066E-4,-5.950928E-4,0.0010681152,113.0,3.8298392,0.14820418,9.026669,-0.00527668,-0.010464728,0.0104112625,-0.03322809,-0.1966313,-0.20051743,2017-05-27 09:08:41,52.666168012413294
3.804428,0.14555359,9.004929,0.001953125,-5.950928E-4,0.0010681152,114.0,3.8210216,0.14406137,9.030472,-0.0073337555,0.0011698604,-0.0015487671,-0.033512834,-0.19613217,-0.2015061,2017-05-27 09:08:42,46.54317682702984
3.819992,0.13838196,9.0121,7.4768066E-4,-5.950928E-4,0.0010681152,113.0,3.8220658,0.14537263,9.030009,0.0027458668,-0.0030845553,0.0031766891,-0.0334746,-0.19615585,-0.20145454,2017-05-27 09:08:43,46.63639936765074
3.8056335,0.15153503,8.985779,7.4768066E-4,-5.950928E-4,0.0010681152,112.0,3.823707,0.14676437,9.029292,-0.0039196014,0.005313933,-0.010089874,-0.03337685,-0.1962657,-0.2012304,2017-05-27 09:08:44,56.160065611407546
3.804428,0.15393066,8.986969,7.4768066E-4,-5.950928E-4,0.0010681152,113.0,3.8280935,0.14978924,9.027384,0.00787735,-0.003516674,-0.0054454803,-0.033155456,-0.1965509,-0.20065452,2017-05-27 09:08:45,54.84044402646512
3.8128052,0.14196777,8.984589,7.4768066E-4,6.2561035E-4,0.0022888184,112.0,3.8310087,0.14983885,9.026146,-0.0037162304,0.0013531297,-0.003695488,-0.033121213,-0.19671713,-0.20033652,2017-05-27 09:08:46,55.97929601229283
3.8104095,0.15034485,8.979797,7.4768066E-4,-5.950928E-4,0.0022888184,113.0,3.827165,0.14685681,9.027826,0.004827738,0.0043162256,0.0028829575,-0.033334546,-0.19646327,-0.20085232,2017-05-27 09:08:47,52.19596141406295
3.803238,0.14794922,8.984589,7.4768066E-4,-5.950928E-4,0.0022888184,116.0,3.8264744,0.14985022,9.028069,0.0042393208,-0.0070407093,0.0036315918,-0.033169303,-0.19645967,-0.20082809,2017-05-27 09:08:48,57.23102910831806
3.7924652,0.14317322,8.994156,7.4768066E-4,6.2561035E-4,0.0010681152,113.0,3.819247,0.15177046,9.0310955,-0.009112835,0.00636822,3.6621094E-4,-0.033135526,-0.19607212,-0.20154725,2017-05-27 09:08:49,60.28018849650272
3.8008423,0.15034485,9.004929,7.4768066E-4,6.2561035E-4,0.0010681152,114.0,3.8127027,0.15053079,9.033882,-0.019461155,0.002280295,-0.006303787,-0.033275925,-0.19568576,-0.20229606,2017-05-27 09:08:50,57.51033420376223
3.8104095,0.15393066,9.015686,1.0681152E-4,-6.866455E-4,0.0,113.0,3.8133657,0.14898308,9.0336275,0.00633502,0.00531058,0.0040683746,-0.03335823,-0.19570488,-0.202276,2017-05-27 09:08:51,50.436844833339414
3.7984467,0.14675903,9.007309,0.0013122559,5.340576E-4,0.0012207031,113.0,3.8110387,0.14746585,9.034636,-0.009541988,8.328408E-4,-0.001124382,-0.033470094,-0.19555454,-0.20257814,2017-05-27 09:08:52,59.470299982519315
3.8020477,0.14675903,8.983383,1.0681152E-4,-6.866455E-4,0.0,114.0,3.8193529,0.146604,9.0311365,-0.0010416508,7.793009E-4,-0.009297371,-0.033432364,-0.19601643,-0.2017075,2017-05-27 09:08:53,57.54017431686205
3.8080292,0.13719177,8.99176,1.0681152E-4,5.340576E-4,0.0,114.0,3.821718,0.15030207,9.030076,0.0061187744,-0.011596113,0.0075416565,-0.03324095,-0.1961668,-0.20138995,2017-05-27 09:08:54,51.17328536495962
3.7984467,0.14675903,8.967834,-0.0011291504,0.0017700195,0.0012207031,114.0,3.8211439,0.14991917,9.030325,0.010561466,-0.0011817217,0.006518364,-0.03322218,-0.19615772,-0.20140342,2017-05-27 09:08:55,51.99760215204749
3.7948608,0.15153503,8.97142,1.0681152E-4,-6.866455E-4,0.0012207031,113.0,3.821197,0.15112153,9.030283,-0.0038514137,0.001302734,-0.0057268143,-0.03315228,-0.19617505,-0.2013578,2017-05-27 09:08:56,53.03157315571418
3.7960663,0.13719177,8.9965515,-0.0011291504,5.340576E-4,0.0012207031,113.0,3.8102808,0.14534357,9.034988,0.0039105415,-0.008282125,0.0027990341,-0.03356077,-0.1954598,-0.20277238,2017-05-27 09:08:57,55.810296343747126
3.791275,0.13957214,9.006119,1.0681152E-4,5.340576E-4,0.0,113.0,3.8049808,0.14726017,9.037191,-0.0021100044,-0.007239267,-0.0035324097,-0.0335449,-0.19520818,-0.20323902,2017-05-27 09:08:58,51.60291631519514
3.7948608,0.15753174,9.019272,1.0681152E-4,5.340576E-4,0.0,113.0,3.7941527,0.1514552,9.041674,0.01345706,0.0027931333,-0.005818367,-0.03341389,-0.1946445,-0.20426409,2017-05-27 09:08:59,52.90609003396585
3.7900696,0.15753174,9.026459,1.0681152E-4,5.340576E-4,0.0,112.0,3.7881415,0.14812237,9.044249,-0.0054507256,-0.0034866482,0.006009102,-0.033666812,-0.19426325,-0.20502236,2017-05-27 09:09:00,45.285261776886216
3.7757263,0.1563263,9.0121,-0.0011291504,-6.866455E-4,0.0,113.0,3.7910154,0.14820376,9.043042,-0.005587101,0.008501828,-0.0077991486,-0.03365102,-0.19443542,-0.20469911,2017-05-27 09:09:01,50.43509730107557
3.8140106,0.14196777,9.003723,1.0681152E-4,0.018859863,0.0,113.0,3.7536185,0.14862064,9.058622,0.0755682,-0.007584065,-0.013834,-0.033867538,-0.19242208,-0.20847352,2017-05-27 09:09:02,52.06743249379251
3.721878,0.15274048,8.99295,1.0681152E-4,5.340576E-4,0.0,113.0,3.736813,0.15053171,9.065537,1.9788742E-4,0.006596595,-0.0015516281,-0.034021042,-0.19138661,-0.21041317,2017-05-27 09:09:03,57.70478396832033
3.7147064,0.15393066,9.030045,1.0681152E-4,-6.866455E-4,0.0,114.0,3.7378912,0.15043958,9.065094,0.002207756,0.0019252151,-0.0018053055,-0.034016456,-0.19144642,-0.21030217,2017-05-27 09:09:04,59.73918314251378
3.7230835,0.15153503,9.0168915,-0.0011291504,5.340576E-4,0.0012207031,114.0,3.7375245,0.14777179,9.065289,0.01144433,-0.0037639737,0.00518322,-0.034173675,-0.19139245,-0.21043362,2017-05-27 09:09:05,46.35443186893184
3.7194824,0.14317322,9.040817,1.0681152E-4,5.340576E-4,0.0012207031,114.0,3.730514,0.14827016,9.068168,0.0038211346,-0.004506618,0.008753777,-0.034208898,-0.19100228,-0.21115835,2017-05-27 09:09:06,46.20030690631956
3.721878,0.14675903,9.040817,1.0681152E-4,0.0017700195,0.0012207031,114.0,3.7263052,0.14824648,9.069899,-0.003175497,0.0025288016,-0.0027475357,-0.034248263,-0.19076408,-0.211604,2017-05-27 09:09:07,57.09053291165502
3.7194824,0.15153503,9.047989,1.0681152E-4,0.0017700195,0.0,114.0,3.7269568,0.15134448,9.069579,7.431507E-4,9.2582405E-4,-0.0019845963,-0.034088492,-0.19082695,-0.2114556,2017-05-27 09:09:08,58.06034904306864
3.7111206,0.15513611,9.046799,1.0681152E-4,5.340576E-4,0.0,114.0,3.723366,0.14941065,9.071087,-0.006815672,1.0639429E-4,-0.0058717728,-0.034207493,-0.19061258,-0.21187365,2017-05-27 09:09:09,52.16145911409306
3.7099152,0.13719177,9.040817,1.0681152E-4,5.340576E-4,0.0012207031,113.0,3.7205925,0.15017962,9.072211,0.0026624203,-0.012449414,0.0011329651,-0.03418789,-0.19046557,-0.21213928,2017-05-27 09:09:10,56.83416268066796
3.6943665,0.15274048,9.028854,1.0681152E-4,5.340576E-4,0.0,114.0,3.7086525,0.15112789,9.077084,-0.0050673485,0.01184839,-0.0020942688,-0.03423826,-0.18980329,-0.21336278,2017-05-27 09:09:11,55.50799768096604
3.6919708,0.15034485,9.026459,1.0681152E-4,0.0017700195,0.0012207031,114.0,3.7092812,0.15145056,9.07682,0.006320238,8.536875E-4,-0.012638092,-0.03421418,-0.18984288,-0.21328533,2017-05-27 09:09:13,58.339516166698424
3.6919708,0.14555359,9.0216675,1.0681152E-4,0.0017700195,0.0,113.0,3.7092009,0.15167098,9.076851,0.005467415,-0.005880654,-0.0044994354,-0.034181044,-0.18975219,-0.21344428,2017-05-27 09:09:14,52.472026995780176
3.6835938,0.14915466,9.047989,1.0681152E-4,5.340576E-4,0.0,114.0,3.7008908,0.1503414,9.080263,-0.0015180111,-0.0011890978,0.007027626,-0.03431114,-0.18937504,-0.21416092,2017-05-27 09:09:15,53.02319542106712
3.6871796,0.15153503,9.059952,0.0013122559,5.340576E-4,0.0,114.0,3.7025259,0.15083314,9.079589,0.007941246,-0.00486733,0.002781868,-0.034308225,-0.1894538,-0.21401642,2017-05-27 09:09:16,53.89451962644238
3.6835938,0.14794922,9.068329,0.0013122559,-6.866455E-4,0.0,114.0,3.6962235,0.15291329,9.082123,-0.0045843124,-0.0046312213,0.0059757233,-0.034242146,-0.18912464,-0.21460348,2017-05-27 09:09:17,59.81646330551826
3.688385,0.1443634,9.071915,0.0013122559,-6.866455E-4,0.0,114.0,3.695084,0.15390867,9.082569,-0.008103132,3.620237E-4,-0.0049467087,-0.034194425,-0.18907306,-0.21468751,2017-05-27 09:09:18,55.23456998504146
3.6859894,0.16230774,9.05397,1.0681152E-4,5.340576E-4,-0.0012359619,114.0,3.6986315,0.15524739,9.081101,0.005956888,-0.010454923,-0.0032234192,-0.034087088,-0.1892901,-0.2142688,2017-05-27 09:09:19,50.75938966709469
3.6788177,0.16230774,9.036026,1.0681152E-4,5.340576E-4,0.0,115.0,3.6993225,0.15545249,9.080817,-0.005025625,0.007888973,-0.006026268,-0.034088578,-0.18934225,-0.21417393,2017-05-27 09:09:20,52.41043565718076
3.6895752,0.13957214,9.031235,1.0681152E-4,-6.866455E-4,0.0,114.0,3.7012408,0.15515073,9.080041,-0.002891779,0.0031997412,-0.003271103,-0.034070347,-0.189436,-0.2139989,2017-05-27 09:09:21,62.12993495359862
3.6740265,0.15872192,9.027649,1.0681152E-4,5.340576E-4,0.0012207031,114.0,3.7020745,0.1569162,9.079669,-0.0068585873,0.0024205297,-9.2697144E-4,-0.033948407,-0.18949138,-0.21387212,2017-05-27 09:09:22,55.36855864776231
3.6716309,0.15153503,9.03363,1.0681152E-4,5.340576E-4,0.0,116.0,3.6972363,0.15404575,9.081691,-0.0067510605,-0.0017251372,-0.0017471313,-0.03416825,-0.18919615,-0.21445738,2017-05-27 09:09:23,51.465849628719795
3.6919708,0.14794922,9.051575,0.0013122559,-6.866455E-4,0.0,115.0,3.6960218,0.1538984,9.082188,0.007678032,-0.0059856623,-0.002937317,-0.034161117,-0.18910946,-0.21461405,2017-05-27 09:09:24,52.62662493552732
3.688385,0.15513611,9.065933,1.0681152E-4,5.340576E-4,0.0012207031,114.0,3.6916273,0.15023206,9.084035,0.0063786507,-0.0019397587,0.0014533997,-0.03443556,-0.18883134,-0.21517944,2017-05-27 09:09:25,54.247188222172475
3.6788177,0.15872192,9.065933,0.0013122559,-6.866455E-4,0.0,114.0,3.6907654,0.15479364,9.084309,-0.0044345856,0.0036479682,0.0017499924,-0.03413931,-0.18888073,-0.21502656,2017-05-27 09:09:26,52.59288482878073
3.6871796,0.15393066,9.061157,1.0681152E-4,-6.866455E-4,0.0,114.0,3.6906474,0.15396427,9.084372,0.002096653,-0.0022851974,-0.0031642914,-0.034228645,-0.18882364,-0.21514955,2017-05-27 09:09:27,55.412863962001026
3.6656494,0.14196777,9.059952,0.0013122559,5.340576E-4,0.0,114.0,3.6890202,0.15571445,9.085002,-0.011341095,-0.014112815,0.0054302216,-0.034087688,-0.18878211,-0.2151953,2017-05-27 09:09:28,52.265069794440386
3.6656494,0.13838196,9.061157,1.0681152E-4,-6.866455E-4,0.0012207031,113.0,3.686826,0.1503264,9.085984,-0.0051641464,-0.011291549,0.014635086,-0.034470327,-0.18856178,-0.21567808,2017-05-27 09:09:29,49.65863717311397
3.672821,0.15274048,9.038422,0.0013122559,-6.866455E-4,0.0,115.0,3.6893976,0.15698622,9.084827,-0.0046048164,-0.009484962,0.013846397,-0.034064937,-0.18879168,-0.21517304,2017-05-27 09:09:30,50.12645511745224
3.6811981,0.16949463,9.046799,0.0013122559,-6.866455E-4,0.0,114.0,3.684615,0.14987451,9.086888,-0.00724411,-0.008425236,0.0054101944,-0.034514762,-0.18843135,-0.21592511,2017-05-27 09:09:31,51.42880336592561
3.6776123,0.15513611,9.056366,1.0681152E-4,-6.866455E-4,0.0,114.0,3.6814842,0.15049873,9.088146,-0.0029006004,-0.010397837,0.009716988,-0.034504667,-0.18826288,-0.21622959,2017-05-27 09:09:32,55.40948077700052
3.6704407,0.14915466,9.067139,0.0013122559,5.340576E-4,0.0,113.0,3.6777234,0.15339679,9.089621,0.0022661686,-0.003843844,0.00111866,-0.034368504,-0.18808809,-0.21651828,2017-05-27 09:09:33,53.62420841064573
3.668045,0.14555359,9.07431,1.0681152E-4,5.340576E-4,0.0,114.0,3.6726203,0.14941083,9.091749,-0.0025429726,0.0037785769,-0.0064582825,-0.0346398,-0.1877494,-0.21719213,2017-05-27 09:09:34,58.73490051521308
3.668045,0.14317322,9.082687,0.0013122559,5.340576E-4,-0.0012359619,114.0,3.6711361,0.15533632,9.092251,0.007365465,0.0048161596,-0.0074567795,-0.03431027,-0.18774198,-0.21713449,2017-05-27 09:09:35,55.01056160409039
3.6776123,0.16111755,9.057556,1.0681152E-4,-6.866455E-4,0.0,114.0,3.6800973,0.15389174,9.088652,0.0015571117,-0.0043676794,-0.006883621,-0.0343205,-0.18822816,-0.21625328,2017-05-27 09:09:36,43.79989400822929
3.6692352,0.15513611,9.046799,0.0013122559,-6.866455E-4,0.0012207031,114.0,3.6818,0.15351112,9.087969,3.4618378E-4,-0.0016452521,-0.0049209595,-0.034328416,-0.1883192,-0.21608935,2017-05-27 09:09:37,47.518105295671916
3.6620636,0.15034485,9.049194,0.0025482178,-6.866455E-4,0.0,114.0,3.6779711,0.15385062,9.089514,-0.0013844967,-0.0064336658,0.008118629,-0.034340322,-0.18810783,-0.21647632,2017-05-27 09:09:38,47.21702890950318
3.6752167,0.1563263,9.031235,0.0013122559,-6.866455E-4,0.0,114.0,3.68345,0.15525898,9.087271,0.009026289,0.00179483,-0.013454437,-0.034214035,-0.18843453,-0.21585509,2017-05-27 09:09:39,46.929047396901794
3.6656494,0.15034485,9.05278,0.0013122559,5.340576E-4,0.0,115.0,3.676964,0.15425517,9.089914,-0.0079648495,0.0063492656,-0.004714012,-0.034325242,-0.18805629,-0.21656679,2017-05-27 09:09:40,56.71911615692174
3.6584778,0.14555359,9.081497,0.0013122559,-6.866455E-4,0.0,114.0,3.6695175,0.15536559,9.092902,0.008170128,-0.0033712536,-8.869171E-5,-0.03432163,-0.18765126,-0.2173016,2017-05-27 09:09:41,61.08212681421907
3.6536865,0.15274048,9.080292,0.0013122559,5.340576E-4,-0.0012359619,114.0,3.6617749,0.1534979,9.096056,-0.0010099411,-4.606992E-4,0.0018196106,-0.03449109,-0.18719132,-0.2181724,2017-05-27 09:09:42,51.24727937274132
3.651291,0.15753174,9.076706,1.0681152E-4,-6.866455E-4,0.0,114.0,3.6616511,0.15130821,9.096143,-0.0041513443,0.0056399554,-0.005191803,-0.03457403,-0.18714343,-0.21827725,2017-05-27 09:09:43,57.689735915129184
3.6620636,0.1443634,9.076706,0.0025482178,5.340576E-4,0.0,114.0,3.6588342,0.15106429,9.09728,0.009259701,-0.011193395,-1.8692017E-4,-0.03465456,-0.18699434,-0.21856488,2017-05-27 09:09:45,45.90901420147236
3.651291,0.15393066,9.061157,0.0013122559,5.340576E-4,0.0,120.0,3.665129,0.15667956,9.09465,-0.002294302,-0.0014295727,-0.002702713,-0.034320977,-0.18745317,-0.21766084,2017-05-27 09:09:46,53.60507667911298
3.651291,0.1563263,9.058762,0.0013122559,5.340576E-4,0.0012207031,121.0,3.6612763,0.15885402,9.096165,0.004092455,-0.0019169301,-0.0024271011,-0.03418639,-0.18723242,-0.21803176,2017-05-27 09:09:47,56.915896236166105
3.6297607,0.15753174,9.045593,0.0013122559,5.340576E-4,0.0,121.0,3.664338,0.15894397,9.09493,-0.0011694431,0.0028443336,-0.004975319,-0.034156896,-0.18740582,-0.21771115,2017-05-27 09:09:48,58.58416181087325
3.6369324,0.15034485,9.044403,0.0013122559,5.340576E-4,0.0,117.0,3.663335,0.15495764,9.095403,-0.0013158321,0.00571163,0.0018196106,-0.03439459,-0.18729798,-0.21795812,2017-05-27 09:09:49,55.56974270316487
3.6345367,0.15393066,9.067139,0.0013122559,-6.866455E-4,0.0012207031,113.0,3.6519263,0.15601386,9.099972,3.1471252E-4,-0.0051173717,0.001739502,-0.034423318,-0.18666981,-0.21910171,2017-05-27 09:09:50,47.48096105346869
3.6345367,0.15153503,9.071915,0.0013122559,5.340576E-4,0.0,113.0,3.65154,0.15534689,9.100138,-0.0035245419,-0.009373084,-0.0012111664,-0.034464743,-0.18663944,-0.2191657,2017-05-27 09:09:51,59.958703922501556
3.6405182,0.14915466,9.082687,6.1035156E-4,4.272461E-4,7.4768066E-4,112.0,3.6457267,0.15273286,9.102512,-0.015232563,0.009906694,-4.9591064E-5,-0.034660157,-0.18627854,-0.21986091,2017-05-27 09:09:52,45.73580362730307
3.6441193,0.16828918,9.088669,-5.950928E-4,4.272461E-4,7.4768066E-4,114.0,3.6450038,0.15155147,9.102822,0.0033094883,-0.0045184493,-0.001282692,-0.03473377,-0.1862225,-0.2199784,2017-05-27 09:09:53,44.23829167693273
3.639328,0.15513611,9.068329,6.1035156E-4,4.272461E-4,-4.7302246E-4,114.0,3.6456716,0.15516073,9.102494,0.009370804,-0.011522606,-0.0044965744,-0.03452069,-0.18630703,-0.21977875,2017-05-27 09:09:54,49.37693912354034
3.6488953,0.16470337,9.064743,-5.950928E-4,4.272461E-4,7.4768066E-4,114.0,3.653613,0.15780632,9.099263,0.008659601,0.0074748397,-0.001203537,-0.034306925,-0.1867879,-0.21886267,2017-05-27 09:09:55,56.972023524920715
3.6501007,0.15872192,9.056366,-5.950928E-4,-7.9345703E-4,7.4768066E-4,113.0,3.6605518,0.1580782,9.096469,-4.3416023E-4,1.4442205E-4,-3.4713745E-4,-0.034236822,-0.18718167,-0.21813464,2017-05-27 09:09:56,57.86470325989616
3.6369324,0.15274048,9.045593,-5.950928E-4,4.272461E-4,7.4768066E-4,113.0,3.6544592,0.15736412,9.098931,2.1338463E-4,-0.0038597286,-0.009167671,-0.03432581,-0.18682975,-0.21879108,2017-05-27 09:09:57,44.75029712859679
3.6381378,0.16111755,9.064743,6.1035156E-4,-7.9345703E-4,7.4768066E-4,113.0,3.6544743,0.15655568,9.09894,0.0041749477,0.002891317,0.0019626617,-0.034372274,-0.18682012,-0.21881866,2017-05-27 09:09:58,58.673220326746446
3.6321564,0.14915466,9.09465,-5.950928E-4,4.272461E-4,7.4768066E-4,113.0,3.6405418,0.15349671,9.104575,-0.0052700043,0.0033141226,0.005662918,-0.034655623,-0.18599695,-0.22036831,2017-05-27 09:09:59,62.759678228632595
3.6357422,0.14675903,9.086273,6.1035156E-4,4.272461E-4,7.4768066E-4,112.0,3.638374,0.14989057,9.1055,0.004555702,-0.0028354228,-0.0012397766,-0.03487978,-0.18582802,-0.22072281,2017-05-27 09:10:00,56.246015983234216
3.6429138,0.15872192,9.097046,-5.950928E-4,4.272461E-4,-4.7302246E-4,113.0,3.6343117,0.1552659,9.107034,0.009218693,0.003498152,-0.0040826797,-0.034586534,-0.18575491,-0.22078957,2017-05-27 09:10:01,59.4751575094591
3.6321564,0.14915466,9.09465,6.1035156E-4,-7.9345703E-4,7.4768066E-4,113.0,3.6328695,0.15288524,9.10765,7.0142746E-4,-0.00367105,-0.00945282,-0.034748465,-0.18555774,-0.22118092,2017-05-27 09:10:02,55.25896759925986
3.6237793,0.15393066,9.081497,6.1035156E-4,-7.9345703E-4,7.4768066E-4,113.0,3.635155,0.1552413,9.106697,-0.0059797764,-0.003475815,-0.0021152496,-0.03459566,-0.185717,-0.22085993,2017-05-27 09:10:03,52.78465503173479
3.6177979,0.15153503,9.07312,6.1035156E-4,-7.9345703E-4,7.4768066E-4,112.0,3.640043,0.1595852,9.104669,-0.009584904,-0.007265225,-2.670288E-5,-0.03432241,-0.18604255,-0.22021243,2017-05-27 09:10:04,57.15897518441561
3.6225739,0.1563263,9.057556,-0.0018310547,-7.9345703E-4,-4.7302246E-4,113.0,3.6416848,0.15676221,9.104061,-0.003045082,-0.0015253574,-0.0065574646,-0.034356616,-0.18612224,-0.22007622,2017-05-27 09:10:05,59.435397832128196
3.6130066,0.15153503,9.067139,6.1035156E-4,-7.9345703E-4,-4.7302246E-4,113.0,3.6432748,0.15714473,9.103418,-0.01275754,-0.0044818074,0.0039482117,-0.03445855,-0.18612404,-0.22009544,2017-05-27 09:10:06,58.85316560118743
3.6213837,0.15872192,9.088669,6.1035156E-4,-7.9345703E-4,-4.7302246E-4,112.0,3.6365838,0.15542747,9.106123,-0.010793209,-0.0057772696,0.011577606,-0.03457422,-0.18579973,-0.22070605,2017-05-27 09:10:07,58.04240796010128
3.6165924,0.15753174,9.104218,6.1035156E-4,-7.9345703E-4,-4.7302246E-4,113.0,3.6288955,0.15644658,9.109173,-0.0046858788,0.001413554,0.014165878,-0.034572765,-0.18538116,-0.2214598,2017-05-27 09:10:08,61.09356852405418
3.6381378,0.15872192,9.098236,6.1035156E-4,-7.9345703E-4,-4.7302246E-4,112.0,3.627613,0.15600447,9.109691,-3.888607E-4,-0.005408451,0.0020217896,-0.034607686,-0.18530335,-0.22160764,2017-05-27 09:10:09,50.15050338774802
3.6177979,0.15872192,9.107819,6.1035156E-4,4.272461E-4,-4.7302246E-4,112.0,3.6242802,0.15897818,9.110966,-0.0065882206,0.0071208924,-0.010519028,-0.034460854,-0.18515523,-0.2218413,2017-05-27 09:10:10,51.45879243592162
3.597458,0.1563263,9.083878,6.1035156E-4,-7.9345703E-4,-0.0017089844,113.0,3.6203296,0.1594563,9.112529,-0.01418376,-0.0022139102,-0.0073194504,-0.034494642,-0.18492247,-0.22226727,2017-05-27 09:10:11,54.63427148221402
3.6082153,0.15513611,9.07312,-5.950928E-4,4.272461E-4,7.4768066E-4,113.0,3.6241317,0.15826783,9.111038,-0.0025863647,-0.0025495887,-0.0044059753,-0.034502856,-0.18513756,-0.22188249,2017-05-27 09:10:12,56.38786179160691
3.6094208,0.16351318,9.067139,6.1035156E-4,4.272461E-4,7.4768066E-4,113.0,3.6235344,0.16040875,9.1112385,0.0015602112,1.9721687E-4,0.0036888123,-0.034383915,-0.18513213,-0.22186567,2017-05-27 09:10:13,51.97183360934075
3.6201935,0.15274048,9.061157,6.1035156E-4,-7.9345703E-4,7.4768066E-4,114.0,3.625045,0.15875341,9.110666,0.0020115376,0.0018789172,-0.004590988,-0.034468208,-0.1851952,-0.22177108,2017-05-27 09:10:14,37.14217477383367
3.598648,0.15513611,9.0707245,-5.950928E-4,4.272461E-4,-4.7302246E-4,114.0,3.6234207,0.15668319,9.111347,-0.009082794,-8.686185E-4,-0.0011692047,-0.034599315,-0.18507686,-0.2220132,2017-05-27 09:10:15,37.04171303040941
3.6154022,0.15513611,9.09465,6.1035156E-4,4.272461E-4,-4.7302246E-4,113.0,3.619066,0.15841487,9.113049,0.010336161,-0.0028229207,0.0018434525,-0.034531195,-0.18485518,-0.22239637,2017-05-27 09:10:16,51.024572411201994
3.618988,0.15513611,9.095856,6.1035156E-4,-7.9345703E-4,-4.7302246E-4,113.0,3.6207378,0.15789898,9.112393,0.004950762,-0.0024706721,3.2520294E-4,-0.034548804,-0.18494222,-0.22224393,2017-05-27 09:10:17,50.617219681125256
3.6010437,0.15034485,9.109009,6.1035156E-4,4.272461E-4,-0.0017089844,113.0,3.6124291,0.16122152,9.115632,-0.006661415,-0.009621769,0.004878044,-0.0344787,-0.18449825,-0.22302532,2017-05-27 09:10:18,49.89774443791927
3.6141968,0.1563263,9.09346,6.1035156E-4,4.272461E-4,7.4768066E-4,113.0,3.6151807,0.15557729,9.114639,-0.006540537,-0.004956752,-0.012214661,-0.03472257,-0.18459976,-0.22289811,2017-05-27 09:10:20,55.438198226019665
3.6130066,0.16470337,9.092255,6.1035156E-4,4.272461E-4,7.4768066E-4,113.0,3.615889,0.16047043,9.114274,0.007817268,0.0047077835,0.0049505234,-0.034435697,-0.18470398,-0.22264646,2017-05-27 09:10:21,29.010647851444602
3.6010437,0.15872192,9.069534,6.1035156E-4,4.272461E-4,7.4768066E-4,112.0,3.6180987,0.15790898,9.113441,-0.0011796951,0.0021135062,-0.005628586,-0.034608144,-0.18475305,-0.2225971,2017-05-27 09:10:22,45.77449790154695
3.6046295,0.16828918,9.080292,-5.950928E-4,-7.9345703E-4,7.4768066E-4,112.0,3.622364,0.16040674,9.111703,-0.0014719963,0.0086025745,0.0094947815,-0.034392558,-0.18506643,-0.22198568,2017-05-27 09:10:23,47.63359228726166
3.598648,0.15153503,9.065933,6.1035156E-4,4.272461E-4,7.4768066E-4,112.0,3.6243708,0.1566949,9.1109705,0.003972769,-0.0068257004,-0.003490448,-0.034591705,-0.18513033,-0.22191535,2017-05-27 09:10:24,54.256734304033486
3.6141968,0.15991211,9.091064,6.1035156E-4,4.272461E-4,7.4768066E-4,112.0,3.6192658,0.15786952,9.112978,0.0045495033,-0.002210021,0.0059022903,-0.034561157,-0.18485923,-0.22239582,2017-05-27 09:10:25,37.95137499411518
3.6177979,0.15274048,9.097046,6.1035156E-4,-7.9345703E-4,7.4768066E-4,112.0,3.6171482,0.16186415,9.1137495,0.0070693493,-0.007909179,0.0022706985,-0.03439043,-0.18483555,-0.22240004,2017-05-27 09:10:26,48.78546721120571
3.605835,0.15872192,9.097046,6.1035156E-4,4.272461E-4,7.4768066E-4,112.0,3.6135542,0.16389897,9.115138,0.0064969063,0.008186877,0.012768745,-0.034254987,-0.1846182,-0.22275978,2017-05-27 09:10:27,55.45834128750408
3.602234,0.1563263,9.109009,0.0018463135,4.272461E-4,-4.7302246E-4,112.0,3.6129794,0.16104978,9.1154175,-0.0056653023,-0.0044970363,0.0064086914,-0.034423146,-0.18454842,-0.22292282,2017-05-27 09:10:28,50.04206623988371
3.4503021,0.061813354,9.109009,6.1035156E-4,-7.9345703E-4,-4.7302246E-4,113.0,3.6179569,0.15974239,9.113465,0.012805223,5.838126E-4,-0.015530586,-0.034462746,-0.18481041,-0.2224614,2017-05-27 09:10:29,55.11706143117257
3.602234,0.15274048,9.076706,6.1035156E-4,4.272461E-4,7.4768066E-4,112.0,3.6168423,0.15514484,9.113987,8.106232E-6,-0.0012882203,-0.0012207031,-0.034766376,-0.18466598,-0.2227891,2017-05-27 09:10:30,54.507745974954396
3.6130066,0.16111755,9.064743,6.1035156E-4,-7.9345703E-4,-4.7302246E-4,112.0,3.6229155,0.16199705,9.111456,0.0056107044,-3.0460954E-4,-0.0041656494,-0.034278102,-0.18518852,-0.22174065,2017-05-27 09:10:31,53.44209763492998
3.6118164,0.15991211,9.064743,6.1035156E-4,-7.9345703E-4,-4.7302246E-4,113.0,3.624903,0.160894,9.110685,-0.0016770363,-2.0998716E-4,-0.003437996,-0.034345962,-0.1852153,-0.22170764,2017-05-27 09:10:32,63.14754654782932
3.6046295,0.16111755,9.079102,0.0018463135,-7.9345703E-4,-0.0017089844,112.0,3.62398,0.15808679,9.1111,-0.0035994053,-0.0022116601,0.0034065247,-0.034514386,-0.18512669,-0.22190459,2017-05-27 09:10:33,46.94919345599861
3.6046295,0.14675903,9.087479,6.1035156E-4,4.272461E-4,-4.7302246E-4,116.0,3.6164434,0.15655044,9.114122,-2.5725365E-4,-0.009291142,0.0024814606,-0.034657467,-0.18468344,-0.2227332,2017-05-27 09:10:34,52.18127768940185
3.598648,0.15991211,9.099442,6.1035156E-4,4.272461E-4,7.4768066E-4,113.0,3.6099687,0.1573921,9.116674,9.0789795E-4,-0.0043792576,-0.0038528442,-0.034655157,-0.18433127,-0.22336467,2017-05-27 09:10:35,62.336305349914944
3.605835,0.15991211,9.107819,6.1035156E-4,-7.9345703E-4,7.4768066E-4,112.0,3.605567,0.15790333,9.118407,3.8146973E-5,-0.0013251454,-0.00921154,-0.03465672,-0.18409117,-0.22379541,2017-05-27 09:10:36,57.84258167086257
3.597458,0.1563263,9.088669,6.1035156E-4,4.272461E-4,7.4768066E-4,113.0,3.6072319,0.1621565,9.117674,0.003260851,-0.0031710118,-0.009393692,-0.03440013,-0.18424076,-0.22346927,2017-05-27 09:10:37,59.61475858737006
3.6046295,0.1563263,9.089859,6.1035156E-4,4.272461E-4,-4.7302246E-4,113.0,3.611751,0.1561572,9.11599,-2.6488304E-4,-0.0028616637,0.001496315,-0.034713637,-0.18441495,-0.22322778,2017-05-27 09:10:38,63.515470539748065
3.598648,0.16111755,9.0707245,6.1035156E-4,4.272461E-4,7.4768066E-4,112.0,3.6153657,0.16006471,9.114489,0.002055645,-0.0018078834,-0.0024757385,-0.034462813,-0.18466929,-0.22271483,2017-05-27 09:10:39,49.70362772558652
3.598648,0.15513611,9.068329,6.1035156E-4,0.001663208,-4.7302246E-4,117.0,3.6081688,0.1594249,9.117351,0.008068562,-0.0035116076,-0.0045757294,-0.034550812,-0.18425721,-0.22347385,2017-05-27 09:10:40,50.174268251863566
3.597458,0.16111755,9.062347,6.1035156E-4,-7.9345703E-4,7.4768066E-4,116.0,3.6085808,0.1568666,9.117233,0.0062921047,-0.0010980964,-0.012573242,-0.03469523,-0.18424647,-0.22352579,2017-05-27 09:10:41,56.44108631776482
3.5950623,0.15393066,9.089859,6.1035156E-4,4.272461E-4,-4.7302246E-4,116.0,3.6021907,0.1560189,9.119774,-0.002452135,-0.007556513,0.010853767,-0.03478879,-0.18387687,-0.22420928,2017-05-27 09:10:42,62.750440382663975
3.5914764,0.14794922,9.1138,6.1035156E-4,4.272461E-4,-4.7302246E-4,116.0,3.5946043,0.1536668,9.122806,-0.0017948151,0.006558001,0.010748863,-0.034976494,-0.18342024,-0.22506927,2017-05-27 09:10:43,63.68001986245653
3.5914764,0.13838196,9.118576,0.0018463135,4.272461E-4,-4.7302246E-4,114.0,3.5917168,0.15582731,9.123907,-0.0032320023,-0.0042702705,0.0040779114,-0.034871742,-0.18328716,-0.22528316,2017-05-27 09:10:44,61.36436864563593
3.5842896,0.14915466,9.110199,6.1035156E-4,-7.9345703E-4,7.4768066E-4,113.0,3.5916407,0.15333524,9.123979,3.0994415E-4,-4.2143464E-4,1.3542175E-4,-0.035015747,-0.18324967,-0.22538319,2017-05-27 09:10:45,60.848526310502365
3.573532,0.15991211,9.085083,0.0018463135,0.001663208,-4.7302246E-4,114.0,3.596825,0.15666239,9.121881,-0.013804436,0.0036629885,-0.012734413,-0.034788806,-0.18358457,-0.22473241,2017-05-27 09:10:46,61.11661264019293
3.5890808,0.14915466,9.088669,6.1035156E-4,4.272461E-4,7.4768066E-4,113.0,3.6006536,0.15807676,9.120345,-0.0043668747,0.004862845,-0.0035972595,-0.034680963,-0.183818,-0.22429015,2017-05-27 09:10:47,56.710569497996744
3.5914764,0.14077759,9.081497,6.1035156E-4,4.272461E-4,-4.7302246E-4,113.0,3.604669,0.15651579,9.118786,0.0027987957,-0.014704645,0.0042390823,-0.034759004,-0.18403892,-0.22391222,2017-05-27 09:10:48,49.25264958706654
3.5866852,0.14317322,9.085083,0.0018463135,-7.9345703E-4,7.4768066E-4,113.0,3.6035612,0.15886325,9.119184,0.0060236454,-0.007772565,0.012298584,-0.03461547,-0.18399142,-0.22396477,2017-05-27 09:10:49,54.18330565324331
3.590271,0.15274048,9.104218,6.1035156E-4,4.272461E-4,-4.7302246E-4,114.0,3.5967395,0.15327913,9.121971,0.0026845932,-2.8416514E-5,0.007628441,-0.034984224,-0.18357523,-0.22479379,2017-05-27 09:10:50,46.021212802048126
3.5866852,0.14196777,9.1245575,-3.0517578E-5,5.950928E-4,2.2888184E-4,114.0,3.5919523,0.15168852,9.123884,-0.0026507378,-0.0035276562,0.008627892,-0.03510846,-0.18324515,-0.22541256,2017-05-27 09:10:51,46.08355534849666
3.5926666,0.14794922,9.123367,-3.0517578E-5,5.950928E-4,-9.918213E-4,114.0,3.5896978,0.15065646,9.124788,0.005187273,-0.0026141405,0.0042181015,-0.03518314,-0.18310498,-0.22568025,2017-05-27 09:10:52,48.74734179842878
3.5795135,0.15513611,9.1197815,-3.0517578E-5,5.950928E-4,2.2888184E-4,116.0,3.5862746,0.15273482,9.126101,0.0013237,0.006128013,-2.9468536E-4,-0.035086468,-0.18294086,-0.2259511,2017-05-27 09:10:54,51.46550017187414
3.581894,0.15393066,9.105423,-3.0517578E-5,5.950928E-4,2.2888184E-4,114.0,3.5942657,0.15380311,9.122937,-0.0056455135,9.919703E-5,-0.0032196045,-0.034961537,-0.18335345,-0.22518523,2017-05-27 09:10:55,47.50121404854539
3.578308,0.15872192,9.083878,-3.0517578E-5,-6.2561035E-4,-9.918213E-4,114.0,3.6011722,0.15724902,9.120155,-0.0013170242,0.0067865998,-0.013148308,-0.034725033,-0.18383607,-0.22426781,2017-05-27 09:10:56,53.27984924070512
3.5830994,0.15991211,9.080292,-3.0517578E-5,-6.2561035E-4,-9.918213E-4,114.0,3.59834,0.15891914,9.121243,-4.925728E-4,0.0016443133,-0.003566742,-0.034648445,-0.1836995,-0.22449479,2017-05-27 09:10:57,53.65655557234619
3.581894,0.16111755,9.075516,-3.0517578E-5,5.950928E-4,2.2888184E-4,114.0,3.6006682,0.15984719,9.120309,-0.003002882,0.00308913,-0.0036668777,-0.034639727,-0.18385065,-0.22422232,2017-05-27 09:10:58,48.414652151700935
3.5914764,0.16589355,9.0707245,0.0012054443,-6.2561035E-4,2.2888184E-4,114.0,3.6019332,0.15646656,9.119867,0.002534151,0.0029754639,-0.010756493,-0.0347648,-0.18386838,-0.22421902,2017-05-27 09:10:59,54.38422572502014
3.590271,0.14794922,9.099442,-3.0517578E-5,-6.2561035E-4,2.2888184E-4,114.0,3.598954,0.15329579,9.121097,0.00122118,-0.0049247146,0.0034446716,-0.03496801,-0.18365921,-0.2246398,2017-05-27 09:11:00,44.252828369142904
3.590271,0.15034485,9.104218,-3.0517578E-5,5.950928E-4,2.2888184E-4,114.0,3.595556,0.15434243,9.12242,0.0032987595,-0.0025417805,-0.0025024414,-0.034931086,-0.18348257,-0.2249474,2017-05-27 09:11:01,44.69498244718936
3.569931,0.16230774,9.11618,-3.0517578E-5,5.950928E-4,2.2888184E-4,114.0,3.5902615,0.15520293,9.12449,-0.014961243,0.0073369145,0.005335808,-0.034917545,-0.18319729,-0.22545426,2017-05-27 09:11:02,50.27510195676379
3.5830994,0.1563263,9.117386,-3.0517578E-5,-6.2561035E-4,-9.918213E-4,114.0,3.5903835,0.15654783,9.124419,-0.0014820099,3.144145E-5,0.0077114105,-0.0348485,-0.18321049,-0.22541481,2017-05-27 09:11:03,53.069352449115115
3.5807037,0.15153503,9.106613,0.0012054443,-6.2561035E-4,-9.918213E-4,114.0,3.5841427,0.15795393,9.126848,-0.0027296543,-0.001174748,-4.7683716E-5,-0.03480023,-0.1828912,-0.22597374,2017-05-27 09:11:04,56.701808359824206
3.581894,0.1563263,9.088669,-3.0517578E-5,5.950928E-4,2.2888184E-4,114.0,3.5867717,0.15916896,9.125794,0.008558989,-0.0022463948,-0.0029382706,-0.034712717,-0.18305467,-0.22566187,2017-05-27 09:11:05,50.68342899708502
3.5627594,0.15393066,9.07431,-3.0517578E-5,5.950928E-4,2.2888184E-4,114.0,3.5881028,0.1568178,9.125312,-0.0067989826,2.142787E-4,-0.009931564,-0.034839127,-0.18309787,-0.22561382,2017-05-27 09:11:06,55.7083371657292
3.5759125,0.16230774,9.080292,-3.0517578E-5,-6.2561035E-4,2.2888184E-4,114.0,3.5921552,0.16000554,9.123661,0.00126338,0.0030819774,0.0010938644,-0.034628216,-0.1833674,-0.22508399,2017-05-27 09:11:07,62.49611806905061
3.5807037,0.14675903,9.092255,-3.0517578E-5,5.950928E-4,2.2888184E-4,114.0,3.5857353,0.15837134,9.126216,-0.0019905567,0.00585708,0.012046814,-0.03476557,-0.18298598,-0.22579665,2017-05-27 09:11:08,60.70931599933984
3.5747223,0.16111755,9.105423,-3.0517578E-5,5.950928E-4,-9.918213E-4,113.0,3.5809288,0.15840667,9.128102,0.0027074814,-0.005219221,-0.0052986145,-0.034795504,-0.18271728,-0.22628288,2017-05-27 09:11:09,51.922026848181
3.565155,0.1563263,9.109009,0.0012054443,-6.2561035E-4,2.2888184E-4,113.0,3.5770502,0.1578193,9.129632,-0.0048878193,-0.0011838526,-0.0027389526,-0.034816034,-0.18250561,-0.2266649,2017-05-27 09:11:10,45.71185350960935
3.5723267,0.15991211,9.1197815,0.0012054443,5.950928E-4,2.2888184E-4,113.0,3.5759666,0.15415832,9.130119,0.001773119,0.0059871227,0.003481865,-0.03507265,-0.18238246,-0.22694379,2017-05-27 09:11:11,57.30159306682072
3.578308,0.15872192,9.103027,-3.0517578E-5,5.950928E-4,2.2888184E-4,113.0,3.5765548,0.15694885,9.129843,4.8565865E-4,-0.00868766,-0.0074768066,-0.03490818,-0.18245283,-0.22678028,2017-05-27 09:11:12,58.61401812632739
3.578308,0.15393066,9.088669,-3.0517578E-5,5.950928E-4,-9.918213E-4,113.0,3.5866578,0.15627453,9.12589,0.0031411648,-0.0018431991,-0.007984161,-0.034880105,-0.18300964,-0.22578077,2017-05-27 09:11:13,58.713390324989696
3.5627594,0.15393066,9.071915,-0.0012359619,5.950928E-4,-9.918213E-4,113.0,3.5870209,0.1562273,9.125748,-0.008289337,-0.0022646636,-0.013866425,-0.034844153,-0.18302512,-0.22574486,2017-05-27 09:11:14,54.277830761848655
3.5627594,0.15034485,9.068329,0.0012054443,5.950928E-4,2.2888184E-4,114.0,3.5862226,0.15749086,9.126039,-0.0036821365,-0.003986895,-0.003900528,-0.034812994,-0.18300153,-0.22577979,2017-05-27 09:11:15,47.259005094790886
3.581894,0.14675903,9.088669,0.0012054443,5.950928E-4,2.2888184E-4,113.0,3.5847754,0.15940464,9.1265745,-0.0015356541,-0.003464356,-0.0026359558,-0.034712505,-0.18294603,-0.22585572,2017-05-27 09:11:16,40.74451576474968
3.5759125,0.14915466,9.105423,-3.0517578E-5,5.950928E-4,2.2888184E-4,114.0,3.5825834,0.15678155,9.1274805,0.0034697056,-0.0071831048,0.0037784576,-0.034878086,-0.18278821,-0.22617546,2017-05-27 09:11:17,55.70408478950878
3.569931,0.15153503,9.118576,-3.0517578E-5,5.950928E-4,2.2888184E-4,113.0,3.5763357,0.15821141,9.129906,5.5503845E-4,-0.007337883,0.0061922073,-0.03478185,-0.1824655,-0.22672845,2017-05-27 09:11:18,61.926071152181564
3.5627594,0.15513611,9.112595,-3.0517578E-5,5.950928E-4,2.2888184E-4,113.0,3.5751836,0.15471308,9.130417,-0.0029468536,0.00779745,-0.0022697449,-0.03504582,-0.18234608,-0.22700241,2017-05-27 09:11:19,56.86135991050235
3.578308,0.14794922,9.118576,-0.0012359619,-6.2561035E-4,2.2888184E-4,113.0,3.5802424,0.15081242,9.1285,-9.012222E-5,-0.0027855039,-0.005221367,-0.035237223,-0.18257707,-0.2266351,2017-05-27 09:11:20,46.90821437397666
3.5723267,0.1443634,9.106613,-3.0517578E-5,5.950928E-4,2.2888184E-4,114.0,3.5827026,0.148583,9.127571,-0.0018320084,0.0020168424,-5.0258636E-4,-0.03534932,-0.18268505,-0.22646844,2017-05-27 09:11:21,51.43926758772938
3.573532,0.15393066,9.082687,-3.0517578E-5,-6.2561035E-4,2.2888184E-4,113.0,3.5905907,0.15197681,9.124415,0.002973795,-0.0010119975,0.004904747,-0.03510108,-0.18317266,-0.22554041,2017-05-27 09:11:22,59.6690836088616
3.5747223,0.15153503,9.091064,-3.0517578E-5,-6.2561035E-4,2.2888184E-4,113.0,3.590711,0.1494439,9.12441,0.0011365414,-0.0070123076,0.0033502579,-0.035246123,-0.18314558,-0.22562218,2017-05-27 09:11:23,48.030148606185044
3.5807037,0.14675903,9.100632,-3.0517578E-5,5.950928E-4,2.2888184E-4,113.0,3.5925255,0.14911623,9.123699,-4.2438507E-5,-0.0018682629,0.0068473816,-0.035252694,-0.18324299,-0.22544958,2017-05-27 09:11:24,33.84085033848955
3.5807037,0.14915466,9.11618,-3.0517578E-5,5.950928E-4,2.2888184E-4,114.0,3.5888164,0.1494268,9.125155,-0.0061178207,1.5972555E-4,0.01262188,-0.035259888,-0.18303911,-0.22581561,2017-05-27 09:11:25,43.07416071161067
3.569931,0.15393066,9.118576,0.0012054443,5.950928E-4,-9.918213E-4,113.0,3.5826526,0.14901903,9.1275835,-0.007984877,0.004625812,0.0033092499,-0.035295967,-0.1826992,-0.22643083,2017-05-27 09:11:26,55.057558183478434
3.5807037,0.14794922,9.131744,-3.0517578E-5,5.950928E-4,2.2888184E-4,113.0,3.580102,0.14748526,9.12861,0.002401352,-0.004286945,-0.0048942566,-0.035429724,-0.18252452,-0.22677347,2017-05-27 09:11:27,44.70736613115853
3.5878906,0.14555359,9.130539,-3.0517578E-5,5.950928E-4,2.2888184E-4,111.0,3.5774343,0.14675875,9.129667,0.010181189,-0.0012164563,1.6975403E-4,-0.035489075,-0.18236522,-0.22707133,2017-05-27 09:11:28,58.09698140771318
3.5795135,0.1443634,9.117386,-3.0517578E-5,5.950928E-4,2.2888184E-4,112.0,3.572365,0.14715995,9.131644,0.0017271042,-0.0039139986,-0.008555412,-0.035498947,-0.18208657,-0.22757015,2017-05-27 09:11:30,49.63120184106684
3.5759125,0.14675903,9.111404,0.0012054443,-6.2561035E-4,2.2888184E-4,113.0,3.5788343,0.14792214,9.1291,0.006768465,-0.0032080412,-0.008014679,-0.035412908,-0.18245932,-0.22688583,2017-05-27 09:11:31,55.13319783798651
3.565155,0.15274048,9.085083,-3.0517578E-5,5.950928E-4,-9.918213E-4,114.0,3.5814192,0.1530331,9.128001,-0.004733324,2.0770729E-4,-0.013471603,-0.035101857,-0.18267381,-0.2264312,2017-05-27 09:11:32,53.9215711523328
3.5675507,0.14915466,9.086273,0.0012054443,5.950928E-4,0.001449585,113.0,3.5839539,0.15216622,9.127021,0.008157253,-0.0042616874,0.00787735,-0.035134688,-0.1828032,-0.22620794,2017-05-27 09:11:33,55.892767350634614
3.5543823,0.14317322,9.099442,-3.0517578E-5,5.950928E-4,2.2888184E-4,114.0,3.5865686,0.1546588,9.125952,-0.0026278496,0.0034770668,0.0031557083,-0.034973722,-0.18298307,-0.22584976,2017-05-27 09:11:34,45.10823915460462
3.5615692,0.1443634,9.112595,0.0012054443,5.950928E-4,-9.918213E-4,114.0,3.5758452,0.1521372,9.130201,-0.0065329075,-0.0074443817,0.0021629333,-0.035189793,-0.1823485,-0.22703151,2017-05-27 09:11:35,28.897042889601344
3.565155,0.13719177,9.122162,-3.0517578E-5,-6.2561035E-4,2.2888184E-4,114.0,3.5737762,0.1488466,9.131065,-0.0046961308,-0.010583684,0.0018606186,-0.035442755,-0.18219052,-0.22737186,2017-05-27 09:11:36,36.48919140528348
3.573532,0.15274048,9.126953,0.0012054443,5.950928E-4,-9.918213E-4,113.0,3.5730333,0.15208866,9.131303,-0.004706621,0.0019263476,-0.008853912,-0.03521087,-0.18219037,-0.22731811,2017-05-27 09:11:37,49.511426133510625
3.5639496,0.14794922,9.125763,0.0012054443,-6.2561035E-4,2.2888184E-4,113.0,3.5741189,0.15250348,9.130871,-0.0016508102,2.938211E-4,6.8950653E-4,-0.035179947,-0.18225674,-0.22719269,2017-05-27 09:11:38,52.39713906620392
3.5723267,0.15274048,9.110199,0.0012054443,5.950928E-4,2.2888184E-4,114.0,3.5761504,0.15522222,9.130031,0.0029273033,-0.0021887124,-0.0025949478,-0.03501021,-0.18240702,-0.22688556,2017-05-27 09:11:39,58.55522134996469
3.5759125,0.15513611,9.091064,-3.0517578E-5,5.950928E-4,2.2888184E-4,113.0,3.580982,0.15179308,9.128194,-9.522438E-4,-0.0046059787,0.0029716492,-0.03517588,-0.18263166,-0.22652352,2017-05-27 09:11:40,50.46241276131661
3.578308,0.15393066,9.09465,0.0012054443,-6.2561035E-4,-9.918213E-4,113.0,3.5831132,0.15405549,9.127319,-0.0071253777,-0.00314188,-0.012125015,-0.035031505,-0.18278138,-0.22622304,2017-05-27 09:11:41,53.53407631212207
3.578308,0.15753174,9.091064,0.0012054443,-6.2561035E-4,-9.918213E-4,114.0,3.5854707,0.15572856,9.126365,0.0055453777,-0.007227406,6.322861E-4,-0.034919478,-0.18293585,-0.22592154,2017-05-27 09:11:42,56.00932114037211
3.5675507,0.14675903,9.110199,0.0012054443,-6.2561035E-4,2.2888184E-4,113.0,3.5828514,0.156504,9.12738,-0.004297495,-0.0073053986,0.006893158,-0.034892287,-0.18279949,-0.22615859,2017-05-27 09:11:43,54.48650326985402
3.5795135,0.13598633,9.111404,0.0012054443,-6.2561035E-4,-9.918213E-4,114.0,3.5757322,0.15123463,9.13026,-0.002449274,-0.0053876042,-0.0011405945,-0.03524249,-0.18233006,-0.22707665,2017-05-27 09:11:44,46.30288448694819
3.5687408,0.15393066,9.122162,0.0012054443,5.950928E-4,0.001449585,113.0,3.573292,0.15075777,9.131225,-0.0017571449,0.0032907724,-0.0019226074,-0.035285812,-0.18218693,-0.2273417,2017-05-27 09:11:45,48.942191024736275
3.577118,0.15034485,9.13533,-3.0517578E-5,5.950928E-4,2.2888184E-4,114.0,3.5741446,0.15163155,9.130876,0.004441023,-0.0014103055,0.00863266,-0.035217978,-0.18225713,-0.22720087,2017-05-27 09:11:46,44.83571741602657
3.5460052,0.15034485,9.129349,-3.0517578E-5,-6.2561035E-4,-9.918213E-4,113.0,3.5676234,0.15196006,9.13342,0.0023550987,-0.0062517226,-0.005542755,-0.035253096,-0.1818857,-0.22787023,2017-05-27 09:11:47,51.82456720891513
3.5627594,0.15513611,9.107819,0.0012054443,5.950928E-4,2.2888184E-4,113.0,3.5678868,0.15561754,9.133256,0.0035760403,-1.01819634E-4,-0.0031576157,-0.035040896,-0.18194975,-0.22770675,2017-05-27 09:11:48,55.558789853898276
3.5543823,0.15872192,9.105423,-3.0517578E-5,0.0018310547,0.001449585,114.0,3.5668256,0.15083358,9.133749,-0.014021635,0.0035362244,-0.0017347336,-0.035323028,-0.18182586,-0.22799303,2017-05-27 09:11:49,57.632879624984724
3.5627594,0.15872192,9.101837,-3.0517578E-5,5.950928E-4,2.2888184E-4,114.0,3.569091,0.15298054,9.13283,0.0046606064,0.0062125474,-0.002863884,-0.035184953,-0.18198162,-0.22768363,2017-05-27 09:11:50,52.68750771962961
3.5579681,0.13598633,9.099442,7.324219E-4,2.4414063E-4,1.5258789E-4,113.0,3.5694938,0.15042716,9.132715,0.0030257702,0.0040157586,-0.0045681,-0.035329353,-0.18196975,-0.2277385,2017-05-27 09:11:51,54.26902694608831
3.5639496,0.14794922,9.1245575,7.324219E-4,2.4414063E-4,1.5258789E-4,114.0,3.561543,0.14762484,9.135863,3.5595894E-4,-0.0018096566,0.009674072,-0.03554121,-0.18148668,-0.22864726,2017-05-27 09:11:52,54.38622728346172
3.5507965,0.1443634,9.130539,-5.0354004E-4,2.4414063E-4,1.5258789E-4,114.0,3.5613253,0.14871888,9.135931,-0.0074567795,-0.004227191,0.0024881363,-0.035479605,-0.1814893,-0.22862811,2017-05-27 09:11:53,52.06261280413307
3.5460052,0.15274048,9.138916,7.324219E-4,2.4414063E-4,-0.0010681152,114.0,3.5516427,0.15415248,9.139609,0.014639378,0.0022227317,0.0022068024,-0.035227075,-0.18102118,-0.22939953,2017-05-27 09:11:54,57.02090193660693
3.544815,0.15153503,9.143707,-5.0354004E-4,-9.765625E-4,1.5258789E-4,114.0,3.5468166,0.15037619,9.141545,-0.0018422604,0.0011655986,0.0025720596,-0.035473816,-0.18069997,-0.23002732,2017-05-27 09:11:55,51.425315497468716
3.544815,0.14794922,9.129349,7.324219E-4,-9.765625E-4,1.5258789E-4,114.0,3.552218,0.14877728,9.139475,0.005527258,5.6809187E-4,-0.0055980682,-0.03553287,-0.18098035,-0.22954424,2017-05-27 09:11:56,54.33629632855474
3.5352478,0.16351318,9.11499,-5.0354004E-4,2.4414063E-4,1.5258789E-4,115.0,3.5556612,0.14862275,9.138139,-8.2850456E-4,-0.0122177005,-0.00817585,-0.03552051,-0.18117094,-0.22920316,2017-05-27 09:11:57,61.04791381072406
3.5376282,0.15753174,9.11499,7.324219E-4,2.4414063E-4,0.001373291,114.0,3.55027,0.15476951,9.140133,-0.007017374,9.2442334E-4,-0.0029716492,-0.035199992,-0.1809528,-0.22951438,2017-05-27 09:11:58,61.084346264989584
3.536438,0.15753174,9.106613,-5.0354004E-4,-9.765625E-4,1.5258789E-4,114.0,3.5521677,0.1533596,9.139418,-0.0027759075,0.004731387,5.235672E-4,-0.03526947,-0.18103981,-0.22937652,2017-05-27 09:11:59,56.77431119388655
3.5519867,0.14675903,9.122162,7.324219E-4,2.4414063E-4,1.5258789E-4,115.0,3.5478332,0.15138358,9.141134,0.016049862,-0.0033763498,0.010476112,-0.035455868,-0.18073766,-0.22995627,2017-05-27 09:12:00,55.68870592611744
3.5436096,0.1443634,9.141312,-5.0354004E-4,2.4414063E-4,-0.0010681152,115.0,3.5432277,0.15292048,9.142896,8.0895424E-4,0.00478442,-0.002002716,-0.035349082,-0.18053395,-0.23029172,2017-05-27 09:12:01,42.520203409217785
3.5412292,0.14794922,9.13414,7.324219E-4,2.4414063E-4,-0.0010681152,115.0,3.538068,0.1519929,9.144909,0.004869461,-0.003970295,-0.0063533783,-0.03543323,-0.1802329,-0.23084447,2017-05-27 09:12:02,51.961751829271066
3.5328522,0.14794922,9.140121,-5.0354004E-4,2.4414063E-4,-0.0010681152,116.0,3.5378575,0.15023553,9.14502,0.0020663738,1.5561283E-4,-0.005681038,-0.03553558,-0.18019712,-0.2309322,2017-05-27 09:12:03,55.55738564182853
3.536438,0.1563263,9.137726,7.324219E-4,2.4414063E-4,1.5258789E-4,115.0,3.5372837,0.15181018,9.145215,2.3913383E-4,0.004562676,-0.0046844482,-0.035448384,-0.18018657,-0.23093003,2017-05-27 09:12:04,48.913710286999645
3.5436096,0.14675903,9.132935,-5.0354004E-4,-9.765625E-4,0.001373291,115.0,3.546086,0.15248299,9.141794,0.0026390553,-0.0058303177,0.0030622482,-0.035341874,-0.180668,-0.23005264,2017-05-27 09:12:06,55.576655070737
3.5328522,0.167099,9.11499,7.324219E-4,-9.765625E-4,1.5258789E-4,116.0,3.543083,0.15535404,9.14291,-0.0010120869,0.00501512,-0.0046072006,-0.035209943,-0.18055902,-0.23021427,2017-05-27 09:12:07,59.586005431879904
3.5352478,0.15513611,9.106613,-5.0354004E-4,-9.765625E-4,-0.0010681152,114.0,3.5491052,0.1546592,9.140586,-0.0011396408,0.0010311157,-0.0012187958,-0.03521345,-0.1808862,-0.22963561,2017-05-27 09:12:08,57.68253197241651
3.5424194,0.15513611,9.100632,7.324219E-4,-9.765625E-4,1.5258789E-4,115.0,3.548074,0.15341908,9.141007,0.0011880398,0.0011175573,-0.0018749237,-0.03529109,-0.18081167,-0.22978604,2017-05-27 09:12:09,50.05875425534748
3.5400238,0.15513611,9.1245575,7.324219E-4,2.4414063E-4,1.5258789E-4,114.0,3.5446723,0.15436384,9.142312,0.004084587,0.001152575,0.0047693253,-0.035257343,-0.18063433,-0.23009218,2017-05-27 09:12:10,56.284225195135
3.5208893,0.15393066,9.138916,7.324219E-4,2.4414063E-4,1.5258789E-4,114.0,3.5350559,0.15431423,9.146035,-0.009777069,2.014637E-5,0.0023765564,-0.03533493,-0.18005809,-0.23113005,2017-05-27 09:12:11,54.1888896007015
3.524475,0.1563263,9.137726,7.324219E-4,2.4414063E-4,1.5258789E-4,114.0,3.5282488,0.1530206,9.1486845,-0.002425909,0.0032874048,-0.007081032,-0.035426065,-0.17970666,-0.23177259,2017-05-27 09:12:12,52.23211543815311
3.5172882,0.15034485,9.146103,-5.0354004E-4,2.4414063E-4,1.5258789E-4,115.0,3.5263555,0.1506911,9.149453,-0.0016813278,-0.008714825,0.01031971,-0.035576425,-0.17956066,-0.23206642,2017-05-27 09:12:13,53.27835646149392
3.5137024,0.13838196,9.138916,7.324219E-4,2.4414063E-4,1.5258789E-4,114.0,3.5308106,0.15307812,9.147696,-0.0033667088,0.0034807324,-0.0056390762,-0.035413392,-0.17984225,-0.23153016,2017-05-27 09:12:14,57.33114469829281
3.516098,0.1335907,9.1245575,-5.0354004E-4,2.4414063E-4,0.001373291,114.0,3.5235128,0.15055943,9.15055,-0.010001898,0.013354391,-0.00762558,-0.03560025,-0.1794001,-0.23235545,2017-05-27 09:12:15,50.11874636547561
3.5184937,0.14077759,9.126953,7.324219E-4,2.4414063E-4,1.5258789E-4,117.0,3.5265357,0.14961125,9.149402,0.0024328232,-0.008389264,0.0047283173,-0.035637505,-0.1795559,-0.23208955,2017-05-27 09:12:16,59.02023999257108
3.5172882,0.15872192,9.109009,7.324219E-4,2.4414063E-4,1.5258789E-4,116.0,3.5285833,0.1505014,9.148598,0.0027265549,0.0051813424,-0.012341499,-0.035574514,-0.1796825,-0.23185092,2017-05-27 09:12:17,60.094728104911084
3.5268707,0.15153503,9.1245575,-5.0354004E-4,0.0026855469,0.001373291,116.0,3.523714,0.14938155,9.150492,0.013265371,0.0025820285,3.156662E-4,-0.03561475,-0.17941143,-0.23233896,2017-05-27 09:12:18,53.33726273855461
3.5196838,0.15991211,9.138916,-5.0354004E-4,-9.765625E-4,1.5258789E-4,117.0,3.5180113,0.15135919,9.152655,-0.015247107,0.003975287,0.010219574,-0.03558535,-0.1791039,-0.23287398,2017-05-27 09:12:19,55.1656816577469
3.516098,0.14317322,9.161652,7.324219E-4,2.4414063E-4,1.5258789E-4,116.0,3.513135,0.15054259,9.154541,0.0036437511,-0.0073402077,0.00888443,-0.035659477,-0.17882043,-0.2333911,2017-05-27 09:12:20,50.02709946322597
3.5125122,0.15274048,9.147293,7.324219E-4,2.4414063E-4,-0.0010681152,116.0,3.5090525,0.14898473,9.156132,-0.0019471645,-0.0046474636,0.007499695,-0.03577151,-0.17857106,-0.23385715,2017-05-27 09:12:21,48.01338333657556
3.5113068,0.14196777,9.158066,0.0019378662,-9.765625E-4,1.5258789E-4,117.0,3.5130873,0.15049903,9.154559,-4.5323372E-4,-0.008474395,0.006965637,-0.03566224,-0.1788172,-0.2333975,2017-05-27 09:12:22,51.724810606535
3.5125122,0.15153503,9.130539,7.324219E-4,-9.765625E-4,1.5258789E-4,115.0,3.5200088,0.15149473,9.151884,-0.0014100075,-0.0056272894,-0.003575325,-0.03556632,-0.17921728,-0.23266958,2017-05-27 09:12:23,55.546708616602096
3.5041351,0.15513611,9.117386,-5.0354004E-4,-9.765625E-4,1.5258789E-4,114.0,3.5220165,0.14842634,9.151161,0.008602142,0.0071197897,0.0010709763,-0.035731446,-0.17928717,-0.23258628,2017-05-27 09:12:24,70.46560089591512
3.5125122,0.15153503,9.103027,7.324219E-4,-9.765625E-4,1.5258789E-4,114.0,3.523482,0.15129395,9.15055,0.0012619495,7.663071E-4,-0.015756607,-0.03549817,-0.17938888,-0.23235062,2017-05-27 09:12:25,61.91813285425727
3.5125122,0.14555359,9.118576,-5.0354004E-4,2.4414063E-4,0.001373291,114.0,3.5245113,0.15075348,9.150163,7.097721E-4,-0.0046563,0.0014076233,-0.035583396,-0.17945851,-0.23224832,2017-05-27 09:12:26,65.0488873440006
3.4969635,0.1443634,9.150879,-5.0354004E-4,0.0014801025,1.5258789E-4,115.0,3.5155118,0.15059872,9.153626,0.009059191,0.002402112,-0.0048675537,-0.035643052,-0.1789539,-0.23315215,2017-05-27 09:12:27,53.4627604298253
3.5065308,0.14555359,9.168823,7.324219E-4,2.4414063E-4,1.5258789E-4,115.0,3.5044584,0.14861,9.157897,0.0019452572,-6.1506033E-4,-6.1416626E-4,-0.035818007,-0.17830952,-0.23432833,2017-05-27 09:12:28,44.26403843558881
3.4933624,0.14675903,9.179596,7.324219E-4,2.4414063E-4,1.5258789E-4,114.0,3.4978628,0.15027583,9.160392,-0.008640289,-0.00392963,0.008615494,-0.035743345,-0.17797269,-0.23490158,2017-05-27 09:12:29,58.61731625264053
3.5005493,0.15153503,9.15686,7.324219E-4,2.4414063E-4,-0.0010681152,115.0,3.4996772,0.15177988,9.159674,0.0031974316,-0.0040408373,-0.0011386871,-0.03566139,-0.17808682,-0.23468116,2017-05-27 09:12:30,61.41340646632368
3.4981537,0.15513611,9.141312,7.324219E-4,2.4414063E-4,0.001373291,115.0,3.5037692,0.15409733,9.15807,-0.0017719269,0.0014485717,-0.007883072,-0.03552318,-0.17832182,-0.23423468,2017-05-27 09:12:31,51.75350000917781
3.495758,0.16230774,9.1245575,-5.0354004E-4,0.0014801025,0.001373291,116.0,3.5108843,0.15133503,9.15539,-0.0063886642,0.01134935,-0.008047104,-0.03562632,-0.17870581,-0.23358476,2017-05-27 09:12:32,47.068686979752705
3.4993439,0.15393066,9.128159,7.324219E-4,2.4414063E-4,-0.0010681152,115.0,3.5122614,0.1531901,9.154832,-0.004985094,-0.0047385097,-0.007422447,-0.035512067,-0.17880826,-0.23337676,2017-05-27 09:12:33,54.10449747293267
3.4909668,0.1563263,9.128159,-5.0354004E-4,2.4414063E-4,1.5258789E-4,114.0,3.512664,0.15294155,9.154682,2.0885468E-4,0.0051267445,0.007974625,-0.035524134,-0.17882729,-0.23334621,2017-05-27 09:12:34,61.8582534280316
3.5041351,0.1563263,9.13533,-5.0354004E-4,2.4414063E-4,1.5258789E-4,114.0,3.5049417,0.15458056,9.157613,0.006236315,0.0020563453,-0.0038805008,-0.03547213,-0.17841922,-0.23405114,2017-05-27 09:12:35,60.902805134631194
3.4945679,0.14675903,9.164047,7.324219E-4,2.4414063E-4,-0.0010681152,114.0,3.496982,0.15545954,9.160641,0.0024573803,-0.003867343,0.016342163,-0.035464175,-0.17798768,-0.23480684,2017-05-27 09:12:36,55.77294759009982
3.4993439,0.14915466,9.153275,7.324219E-4,2.4414063E-4,1.5258789E-4,115.0,3.4976828,0.15499385,9.160381,0.001547575,-0.0058442205,-0.0074043274,-0.03548723,-0.17802025,-0.23475532,2017-05-27 09:12:37,53.3789783007689
3.4981537,0.15274048,9.15567,-5.0354004E-4,2.4414063E-4,1.5258789E-4,114.0,3.4976838,0.15219489,9.160428,0.0022518635,-0.0042723566,-0.0015735626,-0.03564811,-0.17798144,-0.23486286,2017-05-27 09:12:38,61.401238735356486
3.5005493,0.15034485,9.140121,7.324219E-4,-9.765625E-4,1.5258789E-4,115.0,3.5016487,0.1561338,9.158846,9.191036E-4,0.0027849376,-8.583069E-6,-0.035400577,-0.17825714,-0.23431836,2017-05-27 09:12:40,61.46051495679684
3.4993439,0.1563263,9.123367,0.0019378662,2.4414063E-4,1.5258789E-4,114.0,3.5076792,0.15815882,9.156504,5.7435036E-4,-0.0014307946,-0.009877205,-0.03525156,-0.1786213,-0.23364228,2017-05-27 09:12:41,55.78870085968896
3.4981537,0.15393066,9.1197815,7.324219E-4,2.4414063E-4,1.5258789E-4,114.0,3.5105398,0.1561772,9.155441,-7.6270103E-4,-0.0018098652,-0.0036993027,-0.035340723,-0.17878568,-0.2333749,2017-05-27 09:12:42,53.7715528518413
3.5017395,0.14915466,9.130539,7.324219E-4,2.4414063E-4,1.5258789E-4,114.0,3.5127652,0.1537297,9.154629,8.4114075E-4,-0.0040557235,0.0068359375,-0.035478253,-0.17884383,-0.23330596,2017-05-27 09:12:43,43.928906227726195
3.4909668,0.16351318,9.143707,7.324219E-4,-9.765625E-4,0.001373291,116.0,3.5072227,0.15615009,9.156713,-0.004021883,0.004200056,0.013871193,-0.03536952,-0.17856811,-0.23376447,2017-05-27 09:12:44,50.076125198570345
3.4885864,0.15872192,9.148483,7.324219E-4,2.4414063E-4,1.5258789E-4,114.0,3.4942622,0.1525095,9.161728,-0.003908634,-0.0055161566,8.3065033E-4,-0.035648048,-0.1777951,-0.23518972,2017-05-27 09:12:45,44.8731050747005
3.4981537,0.1443634,9.191559,7.324219E-4,2.4414063E-4,1.5258789E-4,118.0,3.4902442,0.15349165,9.163243,0.0010480881,0.0017049462,0.010625839,-0.035555914,-0.1776201,-0.23547383,2017-05-27 09:12:46,47.71234817925325
3.4933624,0.16470337,9.171219,7.324219E-4,2.4414063E-4,1.5258789E-4,118.0,3.4915814,0.1581425,9.162655,-0.0019702911,0.0069838613,-0.002459526,-0.035375386,-0.17769393,-0.23530006,2017-05-27 09:12:47,51.47096343338451
3.4945679,0.15753174,9.13652,7.324219E-4,2.4414063E-4,1.5258789E-4,115.0,3.4970977,0.1556945,9.160593,0.0025320053,0.002062589,-0.010812759,-0.03545006,-0.17799738,-0.23478636,2017-05-27 09:12:48,48.012330975746835
3.487381,0.15753174,9.129349,7.324219E-4,-9.765625E-4,1.5258789E-4,116.0,3.501856,0.15544659,9.158778,-0.0051221848,0.0024428517,-0.006085396,-0.035438612,-0.1782389,-0.23435968,2017-05-27 09:12:49,53.610799680585075
3.4837952,0.14675903,9.1245575,7.324219E-4,-9.765625E-4,1.5258789E-4,117.0,3.5008523,0.15541469,9.159163,0.009631634,-9.894669E-4,-0.004254341,-0.035446174,-0.17820276,-0.23442496,2017-05-27 09:12:50,57.94713806505507
3.413208,0.13479614,9.166443,-0.0010528564,2.1362305E-4,-0.0010681152,121.0,3.4270775,0.15309998,9.187061,-0.008394718,-0.0069814324,0.012078285,-0.03160407,-0.1749041,-0.21802735,2017-05-27 09:12:51,28.588340945396553
3.4036407,0.14794922,9.181992,1.8310547E-4,2.1362305E-4,-0.0010681152,115.0,3.421419,0.14625545,9.189281,-0.010253191,-0.0040684193,0.012468338,-0.02892499,-0.17504399,-0.20176858,2017-05-27 09:12:52,46.49484045738744
3.404831,0.14555359,9.269333,0.0013885498,2.1362305E-4,1.5258789E-4,116.0,3.3999918,0.14252569,9.197289,-0.009422779,-0.005931765,0.044220924,-0.028107086,-0.1740079,-0.19752574,2017-05-27 09:12:53,52.02313003226534
3.4060364,0.14555359,9.244202,1.8310547E-4,2.1362305E-4,-0.0010681152,117.0,3.3948638,0.14574529,9.199134,1.5735626E-5,0.0061572194,-0.009012222,-0.027969087,-0.17375985,-0.19797944,2017-05-27 09:12:54,57.437125016643705
3.4179993,0.15513611,9.202332,0.0013885498,-0.0010070801,1.5258789E-4,116.0,3.4059746,0.15027684,9.194952,0.0031671524,0.004468456,-0.016532898,-0.027625423,-0.17447571,-0.19650668,2017-05-27 09:12:55,60.980934113593285
3.4108124,0.15274048,9.186768,0.0013885498,2.1362305E-4,1.5258789E-4,116.0,3.4092374,0.1483315,9.193774,0.0022246838,0.004437253,-0.0052547455,-0.027692795,-0.17458832,-0.19630118,2017-05-27 09:12:56,57.353065406878166
3.4120178,0.16230774,9.166443,1.8310547E-4,2.1362305E-4,-0.0010681152,117.0,3.418897,0.15364493,9.190099,-0.0045883656,0.007916003,6.8950653E-4,-0.027301386,-0.17518558,-0.19504796,2017-05-27 09:12:57,55.100922585427405
3.413208,0.15153503,9.1736145,1.8310547E-4,2.1362305E-4,1.5258789E-4,116.0,3.419423,0.15049608,9.189956,0.0027811527,0.0015196651,0.0069150925,-0.027484393,-0.17516127,-0.1951348,2017-05-27 09:12:58,49.72381765682727
3.421585,0.15034485,9.168823,1.8310547E-4,2.1362305E-4,-0.0010681152,116.0,3.423435,0.15000038,9.18847,0.0021920204,0.013847008,0.009202957,-0.027466988,-0.17539665,-0.1946698,2017-05-27 09:12:59,57.042561688113906
3.4084167,0.15513611,9.181992,1.8310547E-4,-0.0010070801,1.5258789E-4,116.0,3.4093125,0.14785165,9.193754,0.0011615753,0.0073736757,-0.0062150955,-0.027719468,-0.17458703,-0.19630949,2017-05-27 09:13:00,55.352923751060786
3.4072266,0.14915466,9.202332,1.8310547E-4,2.1362305E-4,-0.0010681152,117.0,3.4032357,0.14827202,9.195999,0.0033073425,9.6538663E-4,0.0022335052,-0.027765213,-0.17421173,-0.19705288,2017-05-27 09:13:01,60.71333079673948
3.4060364,0.14915466,9.202332,0.0013885498,2.1362305E-4,1.5258789E-4,116.0,3.4009037,0.14673804,9.196885,0.001242876,0.0013947338,-0.0033473969,-0.027803775,-0.17414786,-0.197186,2017-05-27 09:13:02,57.99894480530472
3.4036407,0.14794922,9.202332,0.0013885498,-0.0010070801,-0.0010681152,116.0,3.4013865,0.15136446,9.196632,-0.008904457,-0.014349431,0.014095306,-0.027590707,-0.17418669,-0.19706364,2017-05-27 09:13:03,60.50595078422164
3.3904724,0.14196777,9.209503,1.8310547E-4,0.001449585,1.5258789E-4,117.0,3.391024,0.15229401,9.200443,0.018940926,0.0015444607,-0.001285553,-0.027629599,-0.17362192,-0.19817351,2017-05-27 09:13:04,59.01002947948487
3.3988495,0.14675903,9.21669,0.0013885498,2.1362305E-4,1.5258789E-4,116.0,3.386969,0.15125054,9.201954,-0.003902197,-0.011902124,-0.0024757385,-0.027724544,-0.1733848,-0.19865622,2017-05-27 09:13:05,57.798928607973494
3.3988495,0.1443634,9.2274475,1.8310547E-4,-0.0010070801,-0.0010681152,116.0,3.3841174,0.15083507,9.20301,0.008309364,-0.00675793,0.0069713593,-0.027773002,-0.17322172,-0.19898432,2017-05-27 09:13:06,58.49667778827811
3.3916779,0.1335907,9.213089,0.0013885498,-0.0010070801,-0.0010681152,117.0,3.387743,0.15252154,9.201648,-0.009474039,-7.584691E-6,-0.0022258759,-0.027645348,-0.17344241,-0.19852655,2017-05-27 09:13:07,53.256582326301675
3.384491,0.15153503,9.205917,0.0013885498,-0.0010070801,1.5258789E-4,116.0,3.3894796,0.15187332,9.201019,-0.0047450066,-0.0029224306,0.002120018,-0.027667118,-0.17353134,-0.19835821,2017-05-27 09:13:08,48.60641756703819
3.384491,0.15872192,9.205917,1.8310547E-4,0.001449585,1.5258789E-4,117.0,3.388667,0.15430924,9.201277,0.012597322,-0.002664253,-0.015124321,-0.027535379,-0.1735143,-0.19836232,2017-05-27 09:13:09,52.71157591409264
3.3785095,0.16470337,9.17601,1.8310547E-4,2.1362305E-4,1.5258789E-4,117.0,3.3916469,0.15856574,9.200108,-0.0017650127,-0.0039003491,0.0011520386,-0.027266683,-0.17372853,-0.19788605,2017-05-27 09:13:10,55.36900338534415
3.3809052,0.15872192,9.183182,1.8310547E-4,-0.0010070801,1.5258789E-4,116.0,3.395206,0.15732434,9.198816,-0.00587821,0.0017878562,0.0071849823,-0.027369168,-0.17389576,-0.19758269,2017-05-27 09:13:11,56.18631511892254
3.376114,0.1563263,9.174805,1.8310547E-4,2.1362305E-4,1.5258789E-4,116.0,3.3976388,0.15439416,9.197968,-0.012633324,0.0023361742,9.088516E-4,-0.027451454,-0.17401324,-0.19737165,2017-05-27 09:13:12,61.701642981597864
3.371338,0.14794922,9.184387,1.8310547E-4,-0.0010070801,1.5258789E-4,117.0,3.3871698,0.15537618,9.201811,4.1675568E-4,-0.0022746176,0.01113224,-0.027487641,-0.1734435,-0.19848962,2017-05-27 09:13:13,46.375220158305524
3.376114,0.15034485,9.193954,0.0013885498,2.1362305E-4,1.5258789E-4,117.0,3.382991,0.15235601,9.2034,-0.006002426,-0.006655127,0.009019852,-0.02769606,-0.17317677,-0.1990547,2017-05-27 09:13:15,46.876363371712515
3.3868866,0.14196777,9.201126,0.0013885498,2.1362305E-4,0.001373291,117.0,3.3811424,0.15390737,9.204052,0.0063581467,-0.0119116455,-0.0012550354,-0.027623588,-0.17309213,-0.19920318,2017-05-27 09:13:16,56.96859983648616
3.379715,0.15274048,9.208313,1.8310547E-4,-0.0010070801,1.5258789E-4,117.0,3.3798697,0.15309781,9.204533,-0.0016260147,0.003452465,0.0067100525,-0.02768068,-0.17301217,-0.19937131,2017-05-27 09:13:17,61.98711549444532
3.3689423,0.1563263,9.193954,1.8310547E-4,2.1362305E-4,1.5258789E-4,117.0,3.3807077,0.15115014,9.204258,-0.010395765,0.0052374005,-0.006573677,-0.027784493,-0.17303611,-0.19934785,2017-05-27 09:13:18,59.77390390766899
3.3749237,0.14915466,9.184387,1.8310547E-4,0.001449585,1.5258789E-4,116.0,3.3866394,0.15441936,9.202023,-0.005599022,-0.0049858093,-0.0010156631,-0.027547544,-0.17339209,-0.1986029,2017-05-27 09:13:19,52.425603413118644
3.3749237,0.1563263,9.184387,1.8310547E-4,-0.0010070801,1.5258789E-4,117.0,3.381657,0.1539763,9.203862,5.030632E-4,0.002734363,0.002295494,-0.027615225,-0.17312147,-0.19914429,2017-05-27 09:13:20,50.49440541576557
3.3773193,0.15513611,9.170029,1.8310547E-4,2.1362305E-4,1.5258789E-4,116.0,3.3838737,0.15675652,9.203,0.0034122467,-9.1816485E-4,-0.0047273636,-0.027447168,-0.17329454,-0.19877048,2017-05-27 09:13:21,50.19975930499843
3.3689423,0.1563263,9.1772,-0.0010528564,2.1362305E-4,1.5258789E-4,116.0,3.3865201,0.15575874,9.202044,0.0025422573,0.0023131222,-1.04904175E-4,-0.027471498,-0.17341185,-0.19854765,2017-05-27 09:13:22,47.78151092047085
3.3785095,0.15034485,9.203522,1.8310547E-4,2.1362305E-4,-0.0010681152,116.0,3.3752005,0.15196641,9.2062645,-0.003009081,-0.00136742,0.00548172,-0.027785117,-0.17274001,-0.19992335,2017-05-27 09:13:23,50.666799034810914
3.3665466,0.15153503,9.207108,1.8310547E-4,0.001449585,1.5258789E-4,117.0,3.370601,0.15087536,9.207969,-0.0023698807,7.350743E-4,0.0037412643,-0.027886309,-0.17247216,-0.20046599,2017-05-27 09:13:24,50.63013819618938
3.3773193,0.15393066,9.207108,0.0013885498,2.1362305E-4,1.5258789E-4,116.0,3.3662868,0.15073687,9.209548,0.009817362,0.0031393766,-0.0057649612,-0.027996719,-0.172229,-0.20096251,2017-05-27 09:13:25,50.02862319114287
3.3773193,0.15991211,9.208313,0.0013885498,2.1362305E-4,1.5258789E-4,117.0,3.369218,0.15463877,9.208412,0.008071661,0.005271971,-1.8024445E-4,-0.027626488,-0.17244683,-0.2004568,2017-05-27 09:13:26,62.15857280216534
3.3677368,0.1563263,9.181992,0.0013885498,-0.0010070801,1.5258789E-4,117.0,3.3715644,0.1539523,9.207563,0.0013890266,0.004455939,-0.012710571,-0.02781286,-0.17251544,-0.20036554,2017-05-27 09:13:27,49.50028794318689
3.3617554,0.14794922,9.183182,1.8310547E-4,-0.0010070801,1.5258789E-4,117.0,3.3715131,0.14986172,9.20765,0.004213333,-0.005196765,0.0060224533,-0.027936378,-0.172511,-0.20040189,2017-05-27 09:13:28,46.60631881157337
3.3665466,0.15034485,9.179596,1.8310547E-4,2.1362305E-4,1.5258789E-4,117.0,3.37619,0.15028004,9.20593,-2.2125244E-4,0.0016743839,-0.011415482,-0.027872808,-0.17277534,-0.19987436,2017-05-27 09:13:29,47.09742367650503
3.364151,0.14794922,9.166443,1.8310547E-4,0.001449585,0.001373291,117.0,3.3709652,0.15012956,9.207847,0.004473448,-0.0016776174,-0.01057148,-0.027925743,-0.17248371,-0.20045245,2017-05-27 09:13:30,53.67775689481153
3.3569794,0.1443634,9.207108,1.8310547E-4,-0.0010070801,1.5258789E-4,116.0,3.3663054,0.15013874,9.209552,-0.0020537376,-0.005450979,0.01745224,-0.028004719,-0.17227331,-0.2008784,2017-05-27 09:13:31,55.735682657649264
3.3617554,0.14794922,9.203522,0.0013885498,2.1362305E-4,1.5258789E-4,116.0,3.3673947,0.15153518,9.20913,0.014529705,0.008530602,0.0025405884,-0.027875675,-0.17230202,-0.20079364,2017-05-27 09:13:32,53.58490339123949
3.3605652,0.1443634,9.221466,1.8310547E-4,2.1362305E-4,1.5258789E-4,117.0,3.3599184,0.14740089,9.211927,-0.0027623177,0.0029517114,0.0016460419,-0.028173586,-0.17183906,-0.20175822,2017-05-27 09:13:33,46.180885156127815
3.3486023,0.15513611,9.226257,1.8310547E-4,2.1362305E-4,1.5258789E-4,116.0,3.3558292,0.1521193,9.213342,-0.0064468384,-6.5748394E-4,0.0013093948,-0.027938284,-0.17166765,-0.20203654,2017-05-27 09:13:34,51.56325548720292
3.3569794,0.1563263,9.19754,0.0013885498,2.1362305E-4,1.5258789E-4,116.0,3.3570192,0.14936455,9.212953,-0.0014629364,-0.0038206428,0.0019340515,-0.028085535,-0.17170133,-0.2020049,2017-05-27 09:13:35,54.487317938715414
3.347412,0.16111755,9.191559,0.0013885498,2.1362305E-4,1.5258789E-4,117.0,3.3620796,0.15109934,9.211079,-0.008508921,0.010294989,-0.0026474,-0.027944863,-0.17200221,-0.20139034,2017-05-27 09:13:36,49.34444129474075
3.3569794,0.15513611,9.179596,0.0013885498,-0.0010070801,-0.0010681152,116.0,3.3659158,0.15363276,9.209637,9.393692E-4,0.0019541085,-0.0030183792,-0.027757622,-0.17227063,-0.20082794,2017-05-27 09:13:37,51.546970854987165
3.3605652,0.14077759,9.192764,0.0013885498,2.1362305E-4,1.5258789E-4,117.0,3.3617907,0.15325998,9.211148,0.016080141,0.013095573,-0.012163162,-0.02782411,-0.17201145,-0.20134513,2017-05-27 09:13:38,49.36558272344931
3.3581696,0.13240051,9.184387,1.8310547E-4,2.1362305E-4,0.001373291,117.0,3.359991,0.15344426,9.2118025,-0.0018217564,0.00452438,0.0011940002,-0.027828509,-0.17191385,-0.20153514,2017-05-27 09:13:39,47.31911067920549
3.352188,0.14675903,9.213089,1.8310547E-4,2.1362305E-4,-0.0010681152,117.0,3.3543718,0.1515406,9.2138815,7.1644783E-4,-0.003938496,0.010173798,-0.028013404,-0.17162596,-0.20213433,2017-05-27 09:13:40,50.07319811937403
3.3497925,0.15393066,9.210709,0.0013885498,2.1362305E-4,-0.0010681152,117.0,3.349497,0.15326078,9.215627,-3.552437E-5,6.6810846E-4,-0.004609108,-0.027921373,-0.17135191,-0.20264319,2017-05-27 09:13:41,57.32563943270567
3.343811,0.14555359,9.21788,0.0013885498,0.001449585,-0.0010681152,118.0,3.3483655,0.15154442,9.216066,-0.008082151,0.0015265793,0.0028352737,-0.028031768,-0.17124729,-0.20287058,2017-05-27 09:13:42,54.3993811737943
3.3378296,0.14196777,9.21788,1.8310547E-4,2.1362305E-4,-0.0010681152,120.0,3.3446527,0.1492472,9.217451,-0.0065968037,-0.007269323,0.0010528564,-0.028192563,-0.17101449,-0.20335713,2017-05-27 09:13:43,44.332219715331185
3.335434,0.15513611,9.202332,0.0013885498,2.1362305E-4,1.5258789E-4,117.0,3.3503716,0.15238279,9.215323,-0.010175228,0.0029699206,1.077652E-4,-0.027939841,-0.17141283,-0.20252968,2017-05-27 09:13:44,54.01666009916261
3.3450165,0.15274048,9.186768,0.0013885498,2.1362305E-4,1.5258789E-4,117.0,3.3497927,0.15288796,9.215525,0.0043792725,2.7039647E-4,-0.003569603,-0.02794365,-0.1713422,-0.20266706,2017-05-27 09:13:45,55.375160709477925
3.3414154,0.1563263,9.187973,0.0013885498,2.1362305E-4,1.5258789E-4,117.0,3.3508134,0.1529504,9.215153,-0.0050008297,2.6381016E-4,1.5735626E-4,-0.027931819,-0.17139947,-0.20255366,2017-05-27 09:13:46,50.41371272185083
3.3366394,0.15393066,9.179596,1.8310547E-4,2.1362305E-4,1.5258789E-4,117.0,3.353724,0.15798439,9.214009,7.829666E-4,0.0024876297,-0.0041532516,-0.027621252,-0.17161979,-0.20205705,2017-05-27 09:13:47,51.722914456408034
3.339035,0.1563263,9.202332,1.8310547E-4,-0.0010070801,1.5258789E-4,118.0,3.3501792,0.15416802,9.2153635,-0.003935337,0.0024900138,0.0067977905,-0.027867569,-0.17137864,-0.20257923,2017-05-27 09:13:49,50.977563118504804
3.343811,0.14675903,9.225067,1.8310547E-4,2.1362305E-4,-0.0010681152,117.0,3.3460903,0.15224744,9.216881,-0.0079882145,-0.0065183043,0.0044555664,-0.028010026,-0.17112952,-0.20309307,2017-05-27 09:13:50,60.474886408922
3.3402252,0.15393066,9.2274475,6.713867E-4,5.493164E-4,-8.239746E-4,117.0,3.3398058,0.15535074,9.219109,3.2567978E-4,-0.0014244467,0.0080804825,-0.027883353,-0.17081812,-0.20366487,2017-05-27 09:13:51,57.15958519469021
3.3486023,0.1443634,9.209503,-5.340576E-4,5.493164E-4,3.9672852E-4,117.0,3.3343446,0.15018578,9.22117,-0.0035386086,-0.001785785,-0.004207611,-0.028220788,-0.17045458,-0.20444365,2017-05-27 09:13:52,53.59795648455108
3.3258667,0.15153503,9.19635,-5.340576E-4,5.493164E-4,3.9672852E-4,117.0,3.3376195,0.15482582,9.219909,-0.0054495335,4.363507E-4,-0.007674217,-0.027930573,-0.1706909,-0.20392105,2017-05-27 09:13:53,57.81676929857294
3.330658,0.14555359,9.190369,-5.340576E-4,5.493164E-4,3.9672852E-4,117.0,3.3407993,0.15359515,9.218778,-0.0019919872,-0.007666886,-0.00592041,-0.027975509,-0.1708524,-0.20362,2017-05-27 09:13:54,55.763014756491756
3.3486023,0.16949463,9.186768,-5.340576E-4,-6.713867E-4,-8.239746E-4,117.0,3.346909,0.15060619,9.216611,-0.0054461956,0.0025669634,-0.0033655167,-0.028096987,-0.17115553,-0.20306279,2017-05-27 09:13:55,44.41279269458257
3.3210907,0.15153503,9.189163,-5.340576E-4,5.493164E-4,3.9672852E-4,117.0,3.3407123,0.1515822,9.2188425,-0.00803256,4.7867E-4,0.0023012161,-0.028090922,-0.17082378,-0.2037018,2017-05-27 09:13:56,48.93800022867293
3.339035,0.16470337,9.178406,-5.340576E-4,5.493164E-4,3.9672852E-4,117.0,3.342604,0.15237664,9.2181425,0.0076532364,0.011936903,-0.007966995,-0.027976282,-0.17096315,-0.2034065,2017-05-27 09:13:57,36.84779881655708
3.3318481,0.15153503,9.204727,-5.340576E-4,5.493164E-4,-8.239746E-4,118.0,3.337803,0.15446869,9.219849,-8.678436E-5,0.008054823,0.0049295425,-0.027949477,-0.17069681,-0.203914,2017-05-27 09:13:58,34.411494706884675
3.3270721,0.13957214,9.229843,-5.340576E-4,5.493164E-4,3.9672852E-4,117.0,3.3309364,0.14878176,9.2224245,-0.002771616,-0.009160817,0.010443687,-0.028327445,-0.17024915,-0.20486414,2017-05-27 09:13:59,56.02180849182291
3.323471,0.14675903,9.232239,6.713867E-4,-6.713867E-4,-8.239746E-4,117.0,3.3286707,0.15111451,9.223205,-0.004038334,-0.003240645,0.006685257,-0.0282909,-0.1700398,-0.20525861,2017-05-27 09:14:00,59.020774757374845
3.3282623,0.14555359,9.221466,6.713867E-4,5.493164E-4,3.9672852E-4,118.0,3.329773,0.15082641,9.222811,-8.8596344E-4,-0.0052445233,3.8528442E-4,-0.028219957,-0.17020907,-0.2049163,2017-05-27 09:14:01,54.11091856391792
3.335434,0.15034485,9.202332,6.713867E-4,5.493164E-4,3.9672852E-4,117.0,3.331353,0.15286602,9.222207,0.0064017773,-0.004701093,-0.009257317,-0.028091425,-0.17032078,-0.20467134,2017-05-27 09:14:02,53.141223790532564
3.330658,0.15393066,9.202332,-5.340576E-4,5.493164E-4,3.9672852E-4,118.0,3.3346045,0.1499218,9.221081,0.005302906,0.0037433952,0.0022382736,-0.028210204,-0.17039149,-0.20456274,2017-05-27 09:14:03,56.64678793848193
3.3139038,0.15991211,9.195145,-5.340576E-4,0.0017852783,3.9672852E-4,117.0,3.3320498,0.15420479,9.221933,-0.008107662,0.006171882,9.937286E-4,-0.028009698,-0.17037524,-0.2045475,2017-05-27 09:14:04,48.44942034359023
3.322281,0.14675903,9.19754,6.713867E-4,5.493164E-4,3.9672852E-4,118.0,3.3282864,0.15348178,9.223304,0.002699852,-0.011002079,0.006205559,-0.028080162,-0.17015837,-0.20498133,2017-05-27 09:14:05,53.67351631065374
3.318695,0.14915466,9.21669,-5.340576E-4,5.493164E-4,-8.239746E-4,117.0,3.3260043,0.15079911,9.224172,-4.8542023E-4,-0.0013350546,0.011443138,-0.028250676,-0.1700001,-0.20532557,2017-05-27 09:14:06,50.53854939055773
3.318695,0.14196777,9.21669,6.713867E-4,5.493164E-4,-8.239746E-4,117.0,3.324649,0.14929037,9.224685,0.0014886856,-0.011322945,0.006545067,-0.028347092,-0.1699071,-0.20552702,2017-05-27 09:14:07,56.899645654079826
3.3174896,0.14077759,9.223862,6.713867E-4,-6.713867E-4,3.9672852E-4,118.0,3.316427,0.15039663,9.227626,-0.009892464,0.0011294335,-0.005504608,-0.028346676,-0.16946529,-0.20637597,2017-05-27 09:14:08,59.15831939919436
3.318695,0.14317322,9.243011,6.713867E-4,5.493164E-4,3.9672852E-4,117.0,3.315279,0.15211996,9.228009,-3.8719177E-4,0.003263414,-0.004588127,-0.028257124,-0.16942245,-0.20643713,2017-05-27 09:14:09,50.691807508918394
3.3139038,0.15274048,9.21669,6.713867E-4,-6.713867E-4,3.9672852E-4,117.0,3.3150826,0.1521088,9.228081,3.1375885E-4,7.0014596E-4,-0.0024604797,-0.028259242,-0.16941144,-0.20645878,2017-05-27 09:14:10,57.20313369186201
3.3258667,0.15034485,9.202332,6.713867E-4,5.493164E-4,3.9672852E-4,117.0,3.325172,0.15487105,9.224404,0.0062963963,-0.0042652935,-0.006532669,-0.02802504,-0.17000258,-0.20526817,2017-05-27 09:14:11,40.67430235318321
3.2995453,0.15393066,9.207108,6.713867E-4,-6.713867E-4,3.9672852E-4,117.0,3.3191497,0.15091167,9.226639,2.193451E-4,0.006977454,-0.010832787,-0.028296707,-0.16962211,-0.20606305,2017-05-27 09:14:12,45.2194201439712
3.3115082,0.15153503,9.201126,-5.340576E-4,5.493164E-4,3.9672852E-4,117.0,3.3220549,0.14936012,9.225617,0.0046083927,-0.0033940822,9.841919E-4,-0.028362995,-0.16976434,-0.20580526,2017-05-27 09:14:13,48.93248932626679
3.3055267,0.15753174,9.207108,-5.340576E-4,-6.713867E-4,3.9672852E-4,117.0,3.3220794,0.14943823,9.225609,-0.009285927,0.006186068,-0.002705574,-0.02835836,-0.1697666,-0.2057998,2017-05-27 09:14:14,52.883880687287615
3.301941,0.15991211,9.21669,6.713867E-4,0.0017852783,-8.239746E-4,117.0,3.3111954,0.15208942,9.229477,-0.004134178,0.008057892,0.0014858246,-0.028251009,-0.16915213,-0.20695435,2017-05-27 09:14:15,54.21493935884751
3.3043365,0.15274048,9.220276,6.713867E-4,5.493164E-4,3.9672852E-4,117.0,3.3022678,0.15157504,9.232683,0.0031986237,9.910911E-4,-0.008073807,-0.028368225,-0.16871984,-0.20781052,2017-05-27 09:14:16,49.42759600412643
3.2971497,0.15753174,9.23822,6.713867E-4,-6.713867E-4,3.9672852E-4,118.0,3.3015544,0.14986144,9.232965,-0.0046560764,0.007658884,0.004550934,-0.02848767,-0.16863628,-0.20799898,2017-05-27 09:14:17,58.77135969654589
3.3079224,0.1443634,9.226257,6.713867E-4,-6.713867E-4,3.9672852E-4,118.0,3.3015606,0.15009788,9.232961,0.0074505806,-0.005684972,-0.0036582947,-0.028467914,-0.16864847,-0.20797093,2017-05-27 09:14:18,48.70576562638051
3.303131,0.15274048,9.211899,-5.340576E-4,5.493164E-4,3.9672852E-4,118.0,3.3076599,0.15452877,9.230704,0.006627083,-0.0015465319,-0.0019683838,-0.028176798,-0.16903004,-0.20717084,2017-05-27 09:14:19,52.691375280771595
3.3007507,0.15034485,9.19754,-5.340576E-4,5.493164E-4,3.9672852E-4,119.0,3.3128202,0.15222517,9.228892,-0.0041685104,-0.0014446676,-0.00634861,-0.028264098,-0.16934012,-0.20659679,2017-05-27 09:14:20,47.3484342930653
3.3043365,0.16230774,9.198746,6.713867E-4,-6.713867E-4,3.9672852E-4,118.0,3.3086257,0.15530959,9.230346,0.0048737526,0.0050892085,0.0033073425,-0.028125148,-0.16909279,-0.20703833,2017-05-27 09:14:21,57.32572212406183
3.303131,0.1563263,9.189163,-5.340576E-4,-6.713867E-4,3.9672852E-4,117.0,3.311382,0.15296963,9.229395,-0.0056214333,3.3429265E-4,-2.5558472E-4,-0.02823794,-0.16921711,-0.20682663,2017-05-27 09:14:22,51.653678685601406
3.301941,0.15513611,9.214294,6.713867E-4,5.493164E-4,3.9672852E-4,117.0,3.3088236,0.15379305,9.230299,4.8589706E-4,0.0016855448,0.004550934,-0.028210081,-0.16908553,-0.20707233,2017-05-27 09:14:23,52.38553803712299
3.289978,0.14915466,9.2226715,6.713867E-4,0.0017852783,3.9672852E-4,118.0,3.3006942,0.15112552,9.2332535,0.0057971478,-0.005418077,8.583069E-6,-0.028421924,-0.16860397,-0.20804515,2017-05-27 09:14:24,57.04891442550174
3.2875824,0.14915466,9.23822,-5.340576E-4,-6.713867E-4,3.9672852E-4,117.0,3.293189,0.15024655,9.235947,-6.477833E-4,-0.0029771924,-0.0027885437,-0.0285263,-0.1681785,-0.208884,2017-05-27 09:14:25,48.561074887341675
3.2995453,0.15153503,9.235825,6.713867E-4,-6.713867E-4,3.9672852E-4,118.0,3.2936327,0.15058339,9.235783,-0.0032978058,-0.005067885,0.001291275,-0.028503923,-0.16820712,-0.20882393,2017-05-27 09:14:27,54.148862402245534
3.301941,0.15393066,9.220276,6.713867E-4,5.493164E-4,3.9672852E-4,118.0,3.298516,0.15320268,9.233997,0.0067424774,8.8207424E-4,-0.004433632,-0.028319424,-0.16850868,-0.20820306,2017-05-27 09:14:28,51.8149482036651
3.298355,0.1563263,9.207108,6.713867E-4,5.493164E-4,0.0016174316,118.0,3.3059492,0.15637726,9.231286,-0.0010938644,-1.1725724E-4,-0.0053272247,-0.028060572,-0.16897453,-0.20724966,2017-05-27 09:14:29,49.89191850907473
3.2971497,0.15753174,9.202332,6.713867E-4,-6.713867E-4,3.9672852E-4,118.0,3.3066812,0.15452701,9.231054,3.838539E-4,0.0034680814,-0.0010433197,-0.02818414,-0.16897592,-0.20727627,2017-05-27 09:14:30,51.456547216183964
3.3007507,0.16230774,9.210709,6.713867E-4,5.493164E-4,0.0016174316,118.0,3.30626,0.15466131,9.231203,1.0371208E-4,0.0010171682,0.004691124,-0.0281796,-0.16895427,-0.2073167,2017-05-27 09:14:31,59.73540189184816
3.298355,0.14675903,9.201126,6.713867E-4,-0.0018920898,3.9672852E-4,117.0,3.309792,0.15390156,9.229949,-0.0018250942,-6.580949E-4,0.0073242188,-0.028196694,-0.1691404,-0.20696399,2017-05-27 09:14:32,55.93373022807134
3.2971497,0.15393066,9.240616,6.713867E-4,-6.713867E-4,3.9672852E-4,126.0,3.3001456,0.15087098,9.233454,-0.0030784607,0.006875336,-0.0012359619,-0.028440427,-0.16857056,-0.2081135,2017-05-27 09:14:33,53.52475007407762