ACC_X,ACC_Y,ACC_Z,GYRO_X,GYRO_Y,GYRO_Z,LIGH_1,GRAV_X,GRAV_Y,GRAV_Z,LINACC_X,LINACC_Y,LINACC_Z,ROTVEC_X,ROTVEC_Y,ROTVEC_Z,TIME,VOICE
0.0,0.0,0.0,0.0,0.0,0.0,2.0,0.0,0.0,0.0,0.0,0.0,0.0,0.0,0.0,0.0,2017-10-18 21:55:12,30.601221367702433
0.0,0.0,0.0,-0.0012359619,-0.0030975342,-0.0011291504,2.0,0.0,0.0,0.0,0.0,0.0,0.0,0.0,0.0,0.0,2017-10-18 21:55:13,28.055911144064538
0.0,0.0,0.0,0.0012207031,0.006668091,0.0013122559,2.0,0.0,0.0,0.0,0.0,0.0,0.0,0.0,0.0,0.0,2017-10-18 21:55:14,29.543269473796055
0.0,0.0,0.0,-0.0012359619,-0.0043182373,-0.0035705566,2.0,0.0,0.0,0.0,0.0,0.0,0.0,0.0,0.0,0.0,2017-10-18 21:55:15,33.120374501306756
0.0,0.0,0.0,-0.002456665,-0.0030975342,-0.0035705566,2.0,0.0,0.0,0.0,0.0,0.0,0.0,0.0,0.0,0.0,2017-10-18 21:55:16,35.72273891015358
0.0,0.0,0.0,-1.5258789E-5,0.007904053,9.1552734E-5,2.0,0.0,0.0,0.0,0.0,0.0,0.0,0.0,0.0,0.0,2017-10-18 21:55:17,34.026965338451
0.0,0.0,0.0,-1.5258789E-5,-0.0030975342,-0.0011291504,2.0,0.0,0.0,0.0,0.0,0.0,0.0,0.0,0.0,0.0,2017-10-18 21:55:18,37.10761344878146
0.0,0.0,0.0,-0.002456665,-0.007980347,9.1552734E-5,2.0,0.0,0.0,0.0,0.0,0.0,0.0,0.0,0.0,0.0,2017-10-18 21:55:19,33.3690886872951
0.0,0.0,0.0,-0.0012359619,0.014007568,0.002532959,2.0,0.0,0.0,0.0,0.0,0.0,0.0,0.0,0.0,0.0,2017-10-18 21:55:20,24.1180377919255
0.0,0.0,0.0,-0.0048980713,0.020111084,-0.0035705566,2.0,0.0,0.0,0.0,0.0,0.0,0.0,0.0,0.0,0.0,2017-10-18 21:55:21,29.36311062132884
0.0,0.0,0.0,-0.0012359619,-0.001876831,0.0013122559,2.0,0.0,0.0,0.0,0.0,0.0,0.0,0.0,0.0,0.0,2017-10-18 21:55:22,28.57374905931024
0.0,0.0,0.0,-0.002456665,5.645752E-4,0.0013122559,2.0,0.0,0.0,0.0,0.0,0.0,0.0,0.0,0.0,0.0,2017-10-18 21:55:23,28.828694743698794
0.0,0.0,0.0,-0.0012359619,5.645752E-4,0.0013122559,2.0,0.0,0.0,0.0,0.0,0.0,0.0,0.0,0.0,0.0,2017-10-18 21:55:24,37.60127858714205
0.0,0.0,0.0,-0.0012359619,-6.5612793E-4,9.1552734E-5,2.0,0.0,0.0,0.0,0.0,0.0,0.0,0.0,0.0,0.0,2017-10-18 21:55:25,36.05553508961834
0.0,0.0,0.0,-0.002456665,-6.5612793E-4,9.1552734E-5,2.0,0.0,0.0,0.0,0.0,0.0,0.0,0.0,0.0,0.0,2017-10-18 21:55:26,33.04028467180928
0.0,0.0,0.0,-0.0012359619,0.0017852783,-0.0011291504,2.0,0.0,0.0,0.0,0.0,0.0,0.0,0.0,0.0,0.0,2017-10-18 21:55:27,38.05095854583036
0.0,0.0,0.0,-1.5258789E-5,5.645752E-4,-0.0011291504,2.0,0.0,0.0,0.0,0.0,0.0,0.0,0.0,0.0,0.0,2017-10-18 21:55:28,33.95972547794993
0.0,0.0,0.0,-0.0012359619,5.645752E-4,9.1552734E-5,2.0,0.0,0.0,0.0,0.0,0.0,0.0,0.0,0.0,0.0,2017-10-18 21:55:29,34.571037826998236
0.0,0.0,0.0,-0.002456665,5.645752E-4,-0.0023651123,2.0,0.0,0.0,0.0,0.0,0.0,0.0,0.0,0.0,0.0,2017-10-18 21:55:30,33.75671328333824
0.0,0.0,0.0,-0.0036773682,-6.5612793E-4,-0.0011291504,2.0,0.0,0.0,0.0,0.0,0.0,0.0,0.0,0.0,0.0,2017-10-18 21:55:31,31.7657278744812
0.0,0.0,0.0,-0.0012359619,0.006668091,-0.0011291504,2.0,0.0,0.0,0.0,0.0,0.0,0.0,0.0,0.0,0.0,2017-10-18 21:55:32,36.72024651200095
0.0,0.0,0.0,-0.0012359619,0.0017852783,-0.0011291504,2.0,0.0,0.0,0.0,0.0,0.0,0.0,0.0,0.0,0.0,2017-10-18 21:55:33,28.229134741828446
0.0,0.0,0.0,-0.002456665,-0.0055389404,-0.0011291504,2.0,0.0,0.0,0.0,0.0,0.0,0.0,0.0,0.0,0.0,2017-10-18 21:55:34,44.93600084063152
0.0,0.0,0.0,-0.002456665,0.0017852783,-0.0023651123,2.0,0.0,0.0,0.0,0.0,0.0,0.0,0.0,0.0,0.0,2017-10-18 21:55:35,43.5866956739212
0.0,0.0,0.0,-1.5258789E-5,5.645752E-4,-0.0011291504,2.0,0.0,0.0,0.0,0.0,0.0,0.0,0.0,0.0,0.0,2017-10-18 21:55:36,43.45714298804787
0.0,0.0,0.0,-1.5258789E-5,0.0017852783,-0.0023651123,2.0,0.0,0.0,0.0,0.0,0.0,0.0,0.0,0.0,0.0,2017-10-18 21:55:37,34.35518383513009
0.0,0.0,0.0,-0.0036773682,-0.007980347,-0.0023651123,2.0,0.0,0.0,0.0,0.0,0.0,0.0,0.0,0.0,0.0,2017-10-18 21:55:38,34.87704746162345
0.0,0.0,0.0,-0.0012359619,0.0017852783,-0.006011963,2.0,0.0,0.0,0.0,0.0,0.0,0.0,0.0,0.0,0.0,2017-10-18 21:55:39,28.53465301494911
0.0,0.0,0.0,-0.0012359619,-6.5612793E-4,-0.0048065186,2.0,0.0,0.0,0.0,0.0,0.0,0.0,0.0,0.0,0.0,2017-10-18 21:55:40,27.906017949628268
0.0,0.0,0.0,-0.0012359619,-0.0030975342,-0.0048065186,2.0,0.0,0.0,0.0,0.0,0.0,0.0,0.0,0.0,0.0,2017-10-18 21:55:41,27.591600843174263
0.0,0.0,0.0,-0.0012359619,-0.0030975342,-0.0035705566,2.0,0.0,0.0,0.0,0.0,0.0,0.0,0.0,0.0,0.0,2017-10-18 21:55:42,35.14097827335101
0.0,0.0,0.0,-0.002456665,-0.0067749023,-0.0035705566,2.0,0.0,0.0,0.0,0.0,0.0,0.0,0.0,0.0,0.0,2017-10-18 21:55:43,37.15126693136472
0.0,0.0,0.0,-0.0012359619,-6.5612793E-4,-0.0023651123,2.0,0.0,0.0,0.0,0.0,0.0,0.0,0.0,0.0,0.0,2017-10-18 21:55:44,32.96816988583906
0.0,0.0,0.0,-0.002456665,-0.001876831,-0.0023651123,2.0,0.0,0.0,0.0,0.0,0.0,0.0,0.0,0.0,0.0,2017-10-18 21:55:45,35.63645509185436
0.0,0.0,0.0,-0.002456665,5.645752E-4,-0.0023651123,2.0,0.0,0.0,0.0,0.0,0.0,0.0,0.0,0.0,0.0,2017-10-18 21:55:46,31.27527948246971
0.0,0.0,0.0,-1.5258789E-5,-6.5612793E-4,-0.0023651123,2.0,0.0,0.0,0.0,0.0,0.0,0.0,0.0,0.0,0.0,2017-10-18 21:55:47,33.02371520115092
0.0,0.0,0.0,-1.5258789E-5,-0.001876831,-0.0023651123,2.0,0.0,0.0,0.0,0.0,0.0,0.0,0.0,0.0,0.0,2017-10-18 21:55:48,39.458400323806785
0.0,0.0,0.0,-0.002456665,-0.007980347,-0.0048065186,2.0,0.0,0.0,0.0,0.0,0.0,0.0,0.0,0.0,0.0,2017-10-18 21:55:49,40.70167673535893
0.0,0.0,0.0,-0.0012359619,-0.007980347,9.1552734E-5,2.0,0.0,0.0,0.0,0.0,0.0,0.0,0.0,0.0,0.0,2017-10-18 21:55:50,31.0998487512705
0.0,0.0,0.0,-0.0012359619,-0.001876831,-0.0011291504,2.0,0.0,0.0,0.0,0.0,0.0,0.0,0.0,0.0,0.0,2017-10-18 21:55:51,33.19131119044725
0.0,0.0,0.0,-0.0012359619,-0.0030975342,-0.0011291504,2.0,0.0,0.0,0.0,0.0,0.0,0.0,0.0,0.0,0.0,2017-10-18 21:55:53,27.43471791698394
0.0,0.0,0.0,-0.0012359619,-0.001876831,-0.0011291504,2.0,0.0,0.0,0.0,0.0,0.0,0.0,0.0,0.0,0.0,2017-10-18 21:55:54,29.290906858358845
0.0,0.0,0.0,-0.0012359619,5.645752E-4,-0.0011291504,2.0,0.0,0.0,0.0,0.0,0.0,0.0,0.0,0.0,0.0,2017-10-18 21:55:55,43.858877253936626
0.0,0.0,0.0,-1.5258789E-5,0.014007568,0.0013122559,2.0,0.0,0.0,0.0,0.0,0.0,0.0,0.0,0.0,0.0,2017-10-18 21:55:56,41.52589636777605
0.0,0.0,0.0,-0.002456665,-0.009216309,-0.0035705566,2.0,0.0,0.0,0.0,0.0,0.0,0.0,0.0,0.0,0.0,2017-10-18 21:55:57,33.56809259796651
0.0,0.0,0.0,-0.0012359619,5.645752E-4,-0.0023651123,2.0,0.0,0.0,0.0,0.0,0.0,0.0,0.0,0.0,0.0,2017-10-18 21:55:58,32.68559325016198
0.0,0.0,0.0,-0.002456665,-0.0067749023,-0.0023651123,2.0,0.0,0.0,0.0,0.0,0.0,0.0,0.0,0.0,0.0,2017-10-18 21:55:59,36.06617797736322
0.0,0.0,0.0,0.0036621094,0.011550903,-0.009689331,2.0,0.0,0.0,0.0,0.0,0.0,0.0,0.0,0.0,0.0,2017-10-18 21:56:00,35.99238108024786
0.0,0.0,0.0,-0.0012359619,-0.001876831,-0.0011291504,2.0,0.0,0.0,0.0,0.0,0.0,0.0,0.0,0.0,0.0,2017-10-18 21:56:01,23.175214338874994
0.0,0.0,0.0,-0.0012359619,5.645752E-4,-0.0035705566,2.0,0.0,0.0,0.0,0.0,0.0,0.0,0.0,0.0,0.0,2017-10-18 21:56:02,34.348774009846466
0.0,0.0,0.0,-0.0012359619,-6.5612793E-4,-0.0011291504,2.0,0.0,0.0,0.0,0.0,0.0,0.0,0.0,0.0,0.0,2017-10-18 21:56:03,35.75036400194834
0.0,0.0,0.0,-0.0012359619,-0.0067749023,9.1552734E-5,2.0,0.0,0.0,0.0,0.0,0.0,0.0,0.0,0.0,0.0,2017-10-18 21:56:04,35.82013443178695
0.0,0.0,0.0,-0.0012359619,0.006668091,-0.0023651123,2.0,0.0,0.0,0.0,0.0,0.0,0.0,0.0,0.0,0.0,2017-10-18 21:56:05,37.19080111966413
0.0,0.0,0.0,9.1552734E-5,-0.0031738281,0.0026855469,2.0,0.0,0.0,0.0,0.0,0.0,0.0,0.0,0.0,0.0,2017-10-18 21:56:06,39.94476078887763
0.0,0.0,0.0,0.0013122559,0.02003479,-9.918213E-4,2.0,0.0,0.0,0.0,0.0,0.0,0.0,0.0,0.0,0.0,2017-10-18 21:56:07,31.829595861095214
0.0,0.0,0.0,-0.0035705566,0.009048462,0.0026855469,2.0,0.0,0.0,0.0,0.0,0.0,0.0,0.0,0.0,0.0,2017-10-18 21:56:08,25.409157519107815
0.0,0.0,0.0,-0.0011291504,-0.010513306,0.0014648438,2.0,0.0,0.0,0.0,0.0,0.0,0.0,0.0,0.0,0.0,2017-10-18 21:56:09,40.00495288187544
0.0,0.0,0.0,9.1552734E-5,0.0029296875,0.0014648438,2.0,0.0,0.0,0.0,0.0,0.0,0.0,0.0,0.0,0.0,2017-10-18 21:56:10,44.615630977753256
0.0,0.0,0.0,9.1552734E-5,0.0017089844,-0.0021972656,2.0,0.0,0.0,0.0,0.0,0.0,0.0,0.0,0.0,0.0,2017-10-18 21:56:11,38.50174798214966
0.0,0.0,0.0,0.0013122559,-0.0068359375,0.0026855469,2.0,0.0,0.0,0.0,0.0,0.0,0.0,0.0,0.0,0.0,2017-10-18 21:56:12,38.97191805670224
0.0,0.0,0.0,0.0013122559,0.0029296875,0.0026855469,2.0,0.0,0.0,0.0,0.0,0.0,0.0,0.0,0.0,0.0,2017-10-18 21:56:13,37.47729376415985
0.0,0.0,0.0,0.0013122559,4.8828125E-4,2.4414063E-4,2.0,0.0,0.0,0.0,0.0,0.0,0.0,0.0,0.0,0.0,2017-10-18 21:56:14,42.09447779145133
0.0,0.0,0.0,0.0013122559,4.8828125E-4,-0.0021972656,2.0,0.0,0.0,0.0,0.0,0.0,0.0,0.0,0.0,0.0,2017-10-18 21:56:15,43.61634269702591
0.0,0.0,0.0,-0.0023498535,-0.01171875,0.00390625,2.0,0.0,0.0,0.0,0.0,0.0,0.0,0.0,0.0,0.0,2017-10-18 21:56:16,29.322104953373504
0.0,0.0,0.0,0.0025482178,0.0029296875,0.0014648438,2.0,0.0,0.0,0.0,0.0,0.0,0.0,0.0,0.0,0.0,2017-10-18 21:56:17,43.79285173886966
0.0,0.0,0.0,-0.0035705566,-0.015396118,0.008804321,2.0,0.0,0.0,0.0,0.0,0.0,0.0,0.0,0.0,0.0,2017-10-18 21:56:18,40.66737017396005
0.0,0.0,0.0,-0.0011291504,-0.001953125,0.0026855469,2.0,0.0,0.0,0.0,0.0,0.0,0.0,0.0,0.0,0.0,2017-10-18 21:56:19,31.113313121194818
0.0,0.0,0.0,9.1552734E-5,-0.001953125,0.0026855469,2.0,0.0,0.0,0.0,0.0,0.0,0.0,0.0,0.0,0.0,2017-10-18 21:56:20,32.28008752479883
0.0,0.0,0.0,9.1552734E-5,4.8828125E-4,0.0014648438,2.0,0.0,0.0,0.0,0.0,0.0,0.0,0.0,0.0,0.0,2017-10-18 21:56:21,35.52474861850974
0.0,0.0,0.0,9.1552734E-5,-0.005630493,0.0026855469,2.0,0.0,0.0,0.0,0.0,0.0,0.0,0.0,0.0,0.0,2017-10-18 21:56:22,33.04874418388041
0.0,0.0,0.0,-0.0011291504,0.0053710938,0.0026855469,2.0,0.0,0.0,0.0,0.0,0.0,0.0,0.0,0.0,0.0,2017-10-18 21:56:23,25.49587525517913
0.0,0.0,0.0,9.1552734E-5,0.0017089844,0.0014648438,2.0,0.0,0.0,0.0,0.0,0.0,0.0,0.0,0.0,0.0,2017-10-18 21:56:24,45.79647786928663
0.0,0.0,0.0,9.1552734E-5,0.0017089844,2.4414063E-4,2.0,0.0,0.0,0.0,0.0,0.0,0.0,0.0,0.0,0.0,2017-10-18 21:56:25,40.63755612443218
0.0,0.0,0.0,0.0013122559,0.0053710938,0.0026855469,2.0,0.0,0.0,0.0,0.0,0.0,0.0,0.0,0.0,0.0,2017-10-18 21:56:26,28.724585705510997
0.0,0.0,0.0,-0.0011291504,-0.010513306,0.0063476563,2.0,0.0,0.0,0.0,0.0,0.0,0.0,0.0,0.0,0.0,2017-10-18 21:56:27,33.55862009262755
0.0,0.0,0.0,9.1552734E-5,-0.001953125,-0.0021972656,2.0,0.0,0.0,0.0,0.0,0.0,0.0,0.0,0.0,0.0,2017-10-18 21:56:28,35.28002057069304
0.0,0.0,0.0,9.1552734E-5,4.8828125E-4,0.0014648438,2.0,0.0,0.0,0.0,0.0,0.0,0.0,0.0,0.0,0.0,2017-10-18 21:56:29,32.07745417339804
0.0,0.0,0.0,9.1552734E-5,-0.0031738281,2.4414063E-4,2.0,0.0,0.0,0.0,0.0,0.0,0.0,0.0,0.0,0.0,2017-10-18 21:56:30,33.961892635852095
0.0,0.0,0.0,0.0013122559,4.8828125E-4,0.0026855469,2.0,0.0,0.0,0.0,0.0,0.0,0.0,0.0,0.0,0.0,2017-10-18 21:56:31,35.29597963026744
0.0,0.0,0.0,0.0013122559,-7.324219E-4,-0.0034332275,2.0,0.0,0.0,0.0,0.0,0.0,0.0,0.0,0.0,0.0,2017-10-18 21:56:32,42.34802741146896
0.0,0.0,0.0,-0.0011291504,0.0017089844,0.00390625,2.0,0.0,0.0,0.0,0.0,0.0,0.0,0.0,0.0,0.0,2017-10-18 21:56:33,35.66195454380096
0.0,0.0,0.0,0.0013122559,0.0066070557,0.0026855469,2.0,0.0,0.0,0.0,0.0,0.0,0.0,0.0,0.0,0.0,2017-10-18 21:56:34,38.87592072409783
0.0,0.0,0.0,9.1552734E-5,-0.0068359375,0.0026855469,2.0,0.0,0.0,0.0,0.0,0.0,0.0,0.0,0.0,0.0,2017-10-18 21:56:35,28.876665213380527
0.0,0.0,0.0,9.1552734E-5,0.0078125,2.4414063E-4,2.0,0.0,0.0,0.0,0.0,0.0,0.0,0.0,0.0,0.0,2017-10-18 21:56:36,22.47290310705353
0.0,0.0,0.0,9.1552734E-5,0.0041656494,2.4414063E-4,2.0,0.0,0.0,0.0,0.0,0.0,0.0,0.0,0.0,0.0,2017-10-18 21:56:37,26.11882555512116
0.0,0.0,0.0,0.0013122559,4.8828125E-4,0.0014648438,2.0,0.0,0.0,0.0,0.0,0.0,0.0,0.0,0.0,0.0,2017-10-18 21:56:38,29.67439740104357
0.0,0.0,0.0,0.0013122559,4.8828125E-4,0.0014648438,2.0,0.0,0.0,0.0,0.0,0.0,0.0,0.0,0.0,0.0,2017-10-18 21:56:39,29.848633115127402
0.0,0.0,0.0,9.1552734E-5,0.0017089844,0.0026855469,2.0,0.0,0.0,0.0,0.0,0.0,0.0,0.0,0.0,0.0,2017-10-18 21:56:41,19.829351732098463
0.0,0.0,0.0,9.1552734E-5,0.0041656494,0.0026855469,2.0,0.0,0.0,0.0,0.0,0.0,0.0,0.0,0.0,0.0,2017-10-18 21:56:42,29.201518716019642
0.0,0.0,0.0,9.1552734E-5,0.0041656494,0.00390625,2.0,0.0,0.0,0.0,0.0,0.0,0.0,0.0,0.0,0.0,2017-10-18 21:56:43,22.653817150554328
0.0,0.0,0.0,-0.0011291504,4.8828125E-4,0.0014648438,2.0,0.0,0.0,0.0,0.0,0.0,0.0,0.0,0.0,0.0,2017-10-18 21:56:44,28.686931028018755
0.0,0.0,0.0,9.1552734E-5,-7.324219E-4,0.0014648438,2.0,0.0,0.0,0.0,0.0,0.0,0.0,0.0,0.0,0.0,2017-10-18 21:56:45,30.38200888300758
0.0,0.0,0.0,9.1552734E-5,-0.014160156,0.00390625,2.0,0.0,0.0,0.0,0.0,0.0,0.0,0.0,0.0,0.0,2017-10-18 21:56:46,18.452240446855512
0.0,0.0,0.0,-0.0011291504,0.0078125,0.008804321,2.0,0.0,0.0,0.0,0.0,0.0,0.0,0.0,0.0,0.0,2017-10-18 21:56:47,26.847654382735627
0.0,0.0,0.0,9.1552734E-5,0.010253906,2.4414063E-4,2.0,0.0,0.0,0.0,0.0,0.0,0.0,0.0,0.0,0.0,2017-10-18 21:56:48,31.99500633249761
0.0,0.0,0.0,9.1552734E-5,-0.0031738281,0.0026855469,2.0,0.0,0.0,0.0,0.0,0.0,0.0,0.0,0.0,0.0,2017-10-18 21:56:49,20.955997262695057
0.0,0.0,0.0,9.1552734E-5,0.0041656494,2.4414063E-4,2.0,0.0,0.0,0.0,0.0,0.0,0.0,0.0,0.0,0.0,2017-10-18 21:56:50,23.852933974078315
0.0,0.0,0.0,9.1552734E-5,-7.324219E-4,0.0014648438,2.0,0.0,0.0,0.0,0.0,0.0,0.0,0.0,0.0,0.0,2017-10-18 21:56:51,29.177860430069657
0.0,0.0,0.0,0.003753662,0.082336426,-0.010757446,2.0,0.0,0.0,0.0,0.0,0.0,0.0,0.0,0.0,0.0,2017-10-18 21:56:52,27.299098342850748
0.0,0.0,0.0,-0.0035705566,-0.001953125,-9.918213E-4,2.0,0.0,0.0,0.0,0.0,0.0,0.0,0.0,0.0,0.0,2017-10-18 21:56:53,26.572531059335553
0.0,0.0,0.0,0.01109314,0.017593384,0.010009766,2.0,0.0,0.0,0.0,0.0,0.0,0.0,0.0,0.0,0.0,2017-10-18 21:56:54,32.61692860236466
0.0,0.0,0.0,0.0025482178,0.009048462,-9.918213E-4,2.0,0.0,0.0,0.0,0.0,0.0,0.0,0.0,0.0,0.0,2017-10-18 21:56:55,30.73813971646745
0.0,0.0,0.0,-0.0023498535,0.015151978,0.0014648438,2.0,0.0,0.0,0.0,0.0,0.0,0.0,0.0,0.0,0.0,2017-10-18 21:56:56,30.07743111869685
0.0,0.0,0.0,-0.0023498535,-0.0043945313,2.4414063E-4,2.0,0.0,0.0,0.0,0.0,0.0,0.0,0.0,0.0,0.0,2017-10-18 21:56:57,23.97179327538413
0.0,0.0,0.0,0.0025482178,0.0017089844,2.4414063E-4,2.0,0.0,0.0,0.0,0.0,0.0,0.0,0.0,0.0,0.0,2017-10-18 21:56:58,37.17317807553662
0.0,0.0,0.0,-0.0011291504,0.0017089844,0.00390625,2.0,0.0,0.0,0.0,0.0,0.0,0.0,0.0,0.0,0.0,2017-10-18 21:56:59,20.68881289407813
0.0,0.0,0.0,-0.0011291504,0.0041656494,0.00390625,2.0,0.0,0.0,0.0,0.0,0.0,0.0,0.0,0.0,0.0,2017-10-18 21:57:00,21.340475492426123
0.0,0.0,0.0,9.1552734E-5,0.0017089844,0.0014648438,2.0,0.0,0.0,0.0,0.0,0.0,0.0,0.0,0.0,0.0,2017-10-18 21:57:01,22.96911878414658
0.0,0.0,0.0,9.1552734E-5,-7.324219E-4,0.0026855469,2.0,0.0,0.0,0.0,0.0,0.0,0.0,0.0,0.0,0.0,2017-10-18 21:57:02,26.341039666695334
0.0,0.0,0.0,-0.0011291504,-7.324219E-4,0.0014648438,2.0,0.0,0.0,0.0,0.0,0.0,0.0,0.0,0.0,0.0,2017-10-18 21:57:03,32.65551476344459
0.0,0.0,0.0,9.1552734E-5,0.0017089844,0.0026855469,2.0,0.0,0.0,0.0,0.0,0.0,0.0,0.0,0.0,0.0,2017-10-18 21:57:04,24.92072531671877
0.0,0.0,0.0,-0.0011291504,-0.0031738281,0.0026855469,2.0,0.0,0.0,0.0,0.0,0.0,0.0,0.0,0.0,0.0,2017-10-18 21:57:05,30.45539949552383
0.0,0.0,0.0,-9.613037E-4,-0.004272461,8.239746E-4,2.0,0.0,0.0,0.0,0.0,0.0,0.0,0.0,0.0,0.0,2017-10-18 21:57:06,31.01033006508804
0.0,0.0,0.0,0.0014801025,0.0030670166,-0.0028533936,2.0,0.0,0.0,0.0,0.0,0.0,0.0,0.0,0.0,0.0,2017-10-18 21:57:07,31.189082073045547
0.0,0.0,0.0,2.593994E-4,-0.0030517578,0.0020446777,2.0,0.0,0.0,0.0,0.0,0.0,0.0,0.0,0.0,0.0,2017-10-18 21:57:08,36.922709100781944
0.0,0.0,0.0,2.593994E-4,0.007949829,-0.0016174316,2.0,0.0,0.0,0.0,0.0,0.0,0.0,0.0,0.0,0.0,2017-10-18 21:57:09,36.34837510818592
0.0,0.0,0.0,-9.613037E-4,6.1035156E-4,-3.9672852E-4,2.0,0.0,0.0,0.0,0.0,0.0,0.0,0.0,0.0,0.0,2017-10-18 21:57:10,19.642448941134482
0.0,0.0,0.0,-9.613037E-4,-6.1035156E-4,8.239746E-4,2.0,0.0,0.0,0.0,0.0,0.0,0.0,0.0,0.0,0.0,2017-10-18 21:57:11,19.99911774972706
0.0,0.0,0.0,-9.613037E-4,-6.1035156E-4,-3.9672852E-4,2.0,0.0,0.0,0.0,0.0,0.0,0.0,0.0,0.0,0.0,2017-10-18 21:57:12,46.934258632291105
0.0,0.0,0.0,2.593994E-4,0.006713867,0.005706787,2.0,0.0,0.0,0.0,0.0,0.0,0.0,0.0,0.0,0.0,2017-10-18 21:57:13,44.4242697340239
0.0,0.0,0.0,2.593994E-4,-0.0018310547,8.239746E-4,2.0,0.0,0.0,0.0,0.0,0.0,0.0,0.0,0.0,0.0,2017-10-18 21:57:14,30.173959699097445
0.0,0.0,0.0,2.593994E-4,0.0018310547,0.0020446777,2.0,0.0,0.0,0.0,0.0,0.0,0.0,0.0,0.0,0.0,2017-10-18 21:57:15,24.950367281682936
0.0,0.0,0.0,0.0014801025,0.0030670166,-3.9672852E-4,2.0,0.0,0.0,0.0,0.0,0.0,0.0,0.0,0.0,0.0,2017-10-18 21:57:16,28.24836393254258
0.0,0.0,0.0,0.0014801025,0.005508423,-3.9672852E-4,2.0,0.0,0.0,0.0,0.0,0.0,0.0,0.0,0.0,0.0,2017-10-18 21:57:17,25.943079348269155
0.0,0.0,0.0,2.593994E-4,6.1035156E-4,-3.9672852E-4,2.0,0.0,0.0,0.0,0.0,0.0,0.0,0.0,0.0,0.0,2017-10-18 21:57:18,27.338928533206797
0.0,0.0,0.0,-9.613037E-4,-6.1035156E-4,8.239746E-4,2.0,0.0,0.0,0.0,0.0,0.0,0.0,0.0,0.0,0.0,2017-10-18 21:57:19,34.477646987546855
0.0,0.0,0.0,2.593994E-4,0.0030670166,0.0020446777,2.0,0.0,0.0,0.0,0.0,0.0,0.0,0.0,0.0,0.0,2017-10-18 21:57:20,22.541400547043978
0.0,0.0,0.0,2.593994E-4,0.0018310547,-3.9672852E-4,2.0,0.0,0.0,0.0,0.0,0.0,0.0,0.0,0.0,0.0,2017-10-18 21:57:21,32.23393715272782
0.0,0.0,0.0,2.593994E-4,0.006713867,-0.004058838,2.0,0.0,0.0,0.0,0.0,0.0,0.0,0.0,0.0,0.0,2017-10-18 21:57:22,31.875392273092782
0.0,0.0,0.0,-9.613037E-4,-0.0018310547,0.006942749,2.0,0.0,0.0,0.0,0.0,0.0,0.0,0.0,0.0,0.0,2017-10-18 21:57:23,19.001622244385135
0.0,0.0,0.0,-9.613037E-4,0.006713867,0.0020446777,2.0,0.0,0.0,0.0,0.0,0.0,0.0,0.0,0.0,0.0,2017-10-18 21:57:24,19.43873060122846
0.0,0.0,0.0,-9.613037E-4,-0.010375977,0.0032653809,2.0,0.0,0.0,0.0,0.0,0.0,0.0,0.0,0.0,0.0,2017-10-18 21:57:25,26.207686147401414
0.0,0.0,0.0,-9.613037E-4,0.0018310547,-3.9672852E-4,2.0,0.0,0.0,0.0,0.0,0.0,0.0,0.0,0.0,0.0,2017-10-18 21:57:26,28.734059843213657
0.0,0.0,0.0,0.0014801025,0.010391235,-0.0028533936,2.0,0.0,0.0,0.0,0.0,0.0,0.0,0.0,0.0,0.0,2017-10-18 21:57:27,23.32009003102996
0.0,0.0,0.0,2.593994E-4,6.1035156E-4,-0.0016174316,2.0,0.0,0.0,0.0,0.0,0.0,0.0,0.0,0.0,0.0,2017-10-18 21:57:29,25.717524919278777
0.0,0.0,0.0,2.593994E-4,-0.004272461,0.0032653809,2.0,0.0,0.0,0.0,0.0,0.0,0.0,0.0,0.0,0.0,2017-10-18 21:57:30,28.52257871766932
0.0,0.0,0.0,2.593994E-4,0.0030670166,0.0020446777,2.0,0.0,0.0,0.0,0.0,0.0,0.0,0.0,0.0,0.0,2017-10-18 21:57:31,21.374085134764137
0.0,0.0,0.0,2.593994E-4,-6.1035156E-4,-3.9672852E-4,2.0,0.0,0.0,0.0,0.0,0.0,0.0,0.0,0.0,0.0,2017-10-18 21:57:32,26.77795091032531
0.0,0.0,0.0,2.593994E-4,-6.1035156E-4,-3.9672852E-4,2.0,0.0,0.0,0.0,0.0,0.0,0.0,0.0,0.0,0.0,2017-10-18 21:57:33,27.269321366655525
0.0,0.0,0.0,2.593994E-4,0.006713867,0.0020446777,2.0,0.0,0.0,0.0,0.0,0.0,0.0,0.0,0.0,0.0,2017-10-18 21:57:34,18.756309011561356
0.0,0.0,0.0,-0.0021820068,-0.00793457,-3.9672852E-4,2.0,0.0,0.0,0.0,0.0,0.0,0.0,0.0,0.0,0.0,2017-10-18 21:57:35,25.049399902879056
0.0,0.0,0.0,0.0027160645,6.1035156E-4,-3.9672852E-4,2.0,0.0,0.0,0.0,0.0,0.0,0.0,0.0,0.0,0.0,2017-10-18 21:57:36,18.95482975625021
0.0,0.0,0.0,-9.613037E-4,0.005508423,8.239746E-4,2.0,0.0,0.0,0.0,0.0,0.0,0.0,0.0,0.0,0.0,2017-10-18 21:57:37,18.90770214350726
0.0,0.0,0.0,-0.00340271,-0.0018310547,0.0020446777,2.0,0.0,0.0,0.0,0.0,0.0,0.0,0.0,0.0,0.0,2017-10-18 21:57:38,22.42603536912277
0.0,0.0,0.0,0.003921509,0.0018310547,-0.0028533936,2.0,0.0,0.0,0.0,0.0,0.0,0.0,0.0,0.0,0.0,2017-10-18 21:57:39,27.3432718726679
0.0,0.0,0.0,0.0027160645,6.1035156E-4,-0.0016174316,2.0,0.0,0.0,0.0,0.0,0.0,0.0,0.0,0.0,0.0,2017-10-18 21:57:40,25.36049205286016
0.0,0.0,0.0,2.593994E-4,0.004272461,0.0032653809,2.0,0.0,0.0,0.0,0.0,0.0,0.0,0.0,0.0,0.0,2017-10-18 21:57:41,24.76829365046963
0.0,0.0,0.0,-9.613037E-4,-6.1035156E-4,8.239746E-4,2.0,0.0,0.0,0.0,0.0,0.0,0.0,0.0,0.0,0.0,2017-10-18 21:57:42,28.208395380926042
0.0,0.0,0.0,0.0014801025,-0.006729126,-0.006500244,2.0,0.0,0.0,0.0,0.0,0.0,0.0,0.0,0.0,0.0,2017-10-18 21:57:43,27.5125504001426
0.0,0.0,0.0,-9.613037E-4,-6.1035156E-4,-3.9672852E-4,2.0,0.0,0.0,0.0,0.0,0.0,0.0,0.0,0.0,0.0,2017-10-18 21:57:44,19.916205837232962
0.0,0.0,0.0,2.593994E-4,-6.1035156E-4,-3.9672852E-4,2.0,0.0,0.0,0.0,0.0,0.0,0.0,0.0,0.0,0.0,2017-10-18 21:57:45,28.827859324432165
0.0,0.0,0.0,-9.613037E-4,6.1035156E-4,-3.9672852E-4,2.0,0.0,0.0,0.0,0.0,0.0,0.0,0.0,0.0,0.0,2017-10-18 21:57:46,29.80621829076261
0.0,0.0,0.0,2.593994E-4,0.0030670166,-3.9672852E-4,2.0,0.0,0.0,0.0,0.0,0.0,0.0,0.0,0.0,0.0,2017-10-18 21:57:47,21.28480045149157
0.0,0.0,0.0,2.593994E-4,6.1035156E-4,8.239746E-4,2.0,0.0,0.0,0.0,0.0,0.0,0.0,0.0,0.0,0.0,2017-10-18 21:57:48,24.620913563875774
0.0,0.0,0.0,2.593994E-4,0.004272461,8.239746E-4,2.0,0.0,0.0,0.0,0.0,0.0,0.0,0.0,0.0,0.0,2017-10-18 21:57:49,28.024369737983385
0.0,0.0,0.0,2.593994E-4,6.1035156E-4,-3.9672852E-4,2.0,0.0,0.0,0.0,0.0,0.0,0.0,0.0,0.0,0.0,2017-10-18 21:57:50,28.003926965545535
0.0,0.0,0.0,0.0051574707,0.004272461,0.0020446777,2.0,0.0,0.0,0.0,0.0,0.0,0.0,0.0,0.0,0.0,2017-10-18 21:57:51,23.202177102509904
0.0,0.0,0.0,0.0014801025,0.004272461,8.239746E-4,2.0,0.0,0.0,0.0,0.0,0.0,0.0,0.0,0.0,0.0,2017-10-18 21:57:52,28.77683526797158
0.0,0.0,0.0,2.593994E-4,-0.0018310547,-0.0028533936,2.0,0.0,0.0,0.0,0.0,0.0,0.0,0.0,0.0,0.0,2017-10-18 21:57:53,31.95496636593598
0.0,0.0,0.0,-9.613037E-4,0.0018310547,-0.0016174316,2.0,0.0,0.0,0.0,0.0,0.0,0.0,0.0,0.0,0.0,2017-10-18 21:57:54,23.34786632911653
0.0,0.0,0.0,2.593994E-4,-0.0030517578,8.239746E-4,2.0,0.0,0.0,0.0,0.0,0.0,0.0,0.0,0.0,0.0,2017-10-18 21:57:55,28.489459698773704
0.0,0.0,0.0,2.593994E-4,0.015274048,8.239746E-4,2.0,0.0,0.0,0.0,0.0,0.0,0.0,0.0,0.0,0.0,2017-10-18 21:57:56,27.68360567220551
0.0,0.0,0.0,-9.613037E-4,-6.1035156E-4,8.239746E-4,2.0,0.0,0.0,0.0,0.0,0.0,0.0,0.0,0.0,0.0,2017-10-18 21:57:57,39.37047721320683
0.0,0.0,0.0,2.593994E-4,-0.0030517578,0.0032653809,2.0,0.0,0.0,0.0,0.0,0.0,0.0,0.0,0.0,0.0,2017-10-18 21:57:58,27.76412859835969
0.0,0.0,0.0,2.593994E-4,-6.1035156E-4,-3.9672852E-4,2.0,0.0,0.0,0.0,0.0,0.0,0.0,0.0,0.0,0.0,2017-10-18 21:57:59,23.97124942154596
0.0,0.0,0.0,-9.613037E-4,-6.1035156E-4,8.239746E-4,2.0,0.0,0.0,0.0,0.0,0.0,0.0,0.0,0.0,0.0,2017-10-18 21:58:00,25.153563212096
0.0,0.0,0.0,-9.613037E-4,6.1035156E-4,-3.9672852E-4,2.0,0.0,0.0,0.0,0.0,0.0,0.0,0.0,0.0,0.0,2017-10-18 21:58:01,34.56831065688025
0.0,0.0,0.0,-9.613037E-4,-0.004272461,-0.0028533936,2.0,0.0,0.0,0.0,0.0,0.0,0.0,0.0,0.0,0.0,2017-10-18 21:58:02,27.894385826087692
0.0,0.0,0.0,2.593994E-4,0.0018310547,-3.9672852E-4,2.0,0.0,0.0,0.0,0.0,0.0,0.0,0.0,0.0,0.0,2017-10-18 21:58:03,29.307707963939183
0.0,0.0,0.0,-9.613037E-4,-6.1035156E-4,-3.9672852E-4,2.0,0.0,0.0,0.0,0.0,0.0,0.0,0.0,0.0,0.0,2017-10-18 21:58:04,31.403445036777804
0.0,0.0,0.0,2.593994E-4,-0.0030517578,0.004486084,2.0,0.0,0.0,0.0,0.0,0.0,0.0,0.0,0.0,0.0,2017-10-18 21:58:05,27.489314105392673
0.0,0.0,0.0,-0.0021820068,-0.0039520264,0.0027008057,2.0,0.0,0.0,0.0,0.0,0.0,0.0,0.0,0.0,0.0,2017-10-18 21:58:06,24.720704683154793
0.0,0.0,0.0,-9.613037E-4,0.002166748,2.593994E-4,2.0,0.0,0.0,0.0,0.0,0.0,0.0,0.0,0.0,0.0,2017-10-18 21:58:07,24.617048201821664
0.0,0.0,0.0,2.593994E-4,-2.89917E-4,-9.613037E-4,2.0,0.0,0.0,0.0,0.0,0.0,0.0,0.0,0.0,0.0,2017-10-18 21:58:08,28.618898924778374
0.0,0.0,0.0,0.0014801025,0.0033721924,-9.613037E-4,2.0,0.0,0.0,0.0,0.0,0.0,0.0,0.0,0.0,0.0,2017-10-18 21:58:09,27.45506625621614
0.0,0.0,0.0,-9.613037E-4,-0.013717651,-9.613037E-4,2.0,0.0,0.0,0.0,0.0,0.0,0.0,0.0,0.0,0.0,2017-10-18 21:58:10,34.31717489646013
0.0,0.0,0.0,0.0014801025,0.002166748,2.593994E-4,2.0,0.0,0.0,0.0,0.0,0.0,0.0,0.0,0.0,0.0,2017-10-18 21:58:11,27.02352438278161
0.0,0.0,0.0,-0.0021820068,-0.008834839,-0.00340271,2.0,0.0,0.0,0.0,0.0,0.0,0.0,0.0,0.0,0.0,2017-10-18 21:58:12,23.344977312933707
0.0,0.0,0.0,0.0027160645,0.009490967,-0.00340271,2.0,0.0,0.0,0.0,0.0,0.0,0.0,0.0,0.0,0.0,2017-10-18 21:58:13,33.83553106192615
0.0,0.0,0.0,-9.613037E-4,-2.89917E-4,-0.00340271,2.0,0.0,0.0,0.0,0.0,0.0,0.0,0.0,0.0,0.0,2017-10-18 21:58:14,37.659276899682865
0.0,0.0,0.0,0.0027160645,0.02658081,-0.004638672,2.0,0.0,0.0,0.0,0.0,0.0,0.0,0.0,0.0,0.0,2017-10-18 21:58:15,41.69086541385393
0.0,0.0,0.0,-0.00340271,9.3078613E-4,-0.0021972656,2.0,0.0,0.0,0.0,0.0,0.0,0.0,0.0,0.0,0.0,2017-10-18 21:58:17,47.52614415216689
0.0,0.0,0.0,0.0014801025,0.0058135986,0.0014801025,2.0,0.0,0.0,0.0,0.0,0.0,0.0,0.0,0.0,0.0,2017-10-18 21:58:18,19.811600432730856
0.0,0.0,0.0,0.0027160645,0.011932373,-0.010726929,2.0,0.0,0.0,0.0,0.0,0.0,0.0,0.0,0.0,0.0,2017-10-18 21:58:19,27.727845485019955
0.0,0.0,0.0,2.593994E-4,-0.019836426,0.02468872,2.0,0.0,0.0,0.0,0.0,0.0,0.0,0.0,0.0,0.0,2017-10-18 21:58:20,41.34888938632986
0.0,0.0,0.0,2.593994E-4,-0.0039520264,-9.613037E-4,2.0,0.0,0.0,0.0,0.0,0.0,0.0,0.0,0.0,0.0,2017-10-18 21:58:21,41.02752405804771
0.0,0.0,0.0,0.0014801025,9.3078613E-4,0.0014801025,2.0,0.0,0.0,0.0,0.0,0.0,0.0,0.0,0.0,0.0,2017-10-18 21:58:22,35.576507900880124
0.0,0.0,0.0,2.593994E-4,-0.01739502,0.0027008057,2.0,0.0,0.0,0.0,0.0,0.0,0.0,0.0,0.0,0.0,2017-10-18 21:58:23,20.673963618557067
0.0,0.0,0.0,2.593994E-4,-0.012512207,-9.613037E-4,2.0,0.0,0.0,0.0,0.0,0.0,0.0,0.0,0.0,0.0,2017-10-18 21:58:24,20.615584950725612
0.0,0.0,0.0,2.593994E-4,-0.0015106201,-9.613037E-4,2.0,0.0,0.0,0.0,0.0,0.0,0.0,0.0,0.0,0.0,2017-10-18 21:58:25,24.686011486220192
0.0,0.0,0.0,2.593994E-4,-0.0063934326,0.0027008057,2.0,0.0,0.0,0.0,0.0,0.0,0.0,0.0,0.0,0.0,2017-10-18 21:58:26,24.96345758976854
0.0,0.0,0.0,0.0027160645,-0.0039520264,-0.0021972656,2.0,0.0,0.0,0.0,0.0,0.0,0.0,0.0,0.0,0.0,2017-10-18 21:58:27,18.80062928764549
0.0,0.0,0.0,0.0014801025,-2.89917E-4,-9.613037E-4,2.0,0.0,0.0,0.0,0.0,0.0,0.0,0.0,0.0,0.0,2017-10-18 21:58:28,22.299017170088668
0.0,0.0,0.0,2.593994E-4,-0.0027313232,2.593994E-4,2.0,0.0,0.0,0.0,0.0,0.0,0.0,0.0,0.0,0.0,2017-10-18 21:58:29,25.157724578805873
0.0,0.0,0.0,2.593994E-4,-0.0015106201,2.593994E-4,2.0,0.0,0.0,0.0,0.0,0.0,0.0,0.0,0.0,0.0,2017-10-18 21:58:30,24.179437214592454
0.0,0.0,0.0,2.593994E-4,-0.0015106201,2.593994E-4,2.0,0.0,0.0,0.0,0.0,0.0,0.0,0.0,0.0,0.0,2017-10-18 21:58:31,30.57299322956478
0.0,0.0,0.0,2.593994E-4,-0.0015106201,-9.613037E-4,2.0,0.0,0.0,0.0,0.0,0.0,0.0,0.0,0.0,0.0,2017-10-18 21:58:32,36.88198808445491
0.0,0.0,0.0,-9.613037E-4,0.0033721924,2.593994E-4,2.0,0.0,0.0,0.0,0.0,0.0,0.0,0.0,0.0,0.0,2017-10-18 21:58:33,21.70243374869103
0.0,0.0,0.0,2.593994E-4,-0.0015106201,2.593994E-4,2.0,0.0,0.0,0.0,0.0,0.0,0.0,0.0,0.0,0.0,2017-10-18 21:58:34,24.87853947145346
0.0,0.0,0.0,-0.0021820068,-0.0051727295,0.007598877,2.0,0.0,0.0,0.0,0.0,0.0,0.0,0.0,0.0,0.0,2017-10-18 21:58:35,16.790302170273527
0.0,0.0,0.0,2.593994E-4,-0.0015106201,0.0014801025,2.0,0.0,0.0,0.0,0.0,0.0,0.0,0.0,0.0,0.0,2017-10-18 21:58:36,18.95474343341861
0.0,0.0,0.0,2.593994E-4,9.3078613E-4,2.593994E-4,2.0,0.0,0.0,0.0,0.0,0.0,0.0,0.0,0.0,0.0,2017-10-18 21:58:37,22.575623375530782
0.0,0.0,0.0,-9.613037E-4,-0.0015106201,2.593994E-4,2.0,0.0,0.0,0.0,0.0,0.0,0.0,0.0,0.0,0.0,2017-10-18 21:58:38,30.219389729285943
0.0,0.0,0.0,2.593994E-4,-0.0015106201,-9.613037E-4,2.0,0.0,0.0,0.0,0.0,0.0,0.0,0.0,0.0,0.0,2017-10-18 21:58:39,27.294166540345934
0.0,0.0,0.0,2.593994E-4,-0.0015106201,2.593994E-4,2.0,0.0,0.0,0.0,0.0,0.0,0.0,0.0,0.0,0.0,2017-10-18 21:58:40,29.301894338468927
0.0,0.0,0.0,2.593994E-4,0.002166748,2.593994E-4,2.0,0.0,0.0,0.0,0.0,0.0,0.0,0.0,0.0,0.0,2017-10-18 21:58:41,28.00060545079579
0.0,0.0,0.0,-9.613037E-4,-0.0051727295,-0.008285522,2.0,0.0,0.0,0.0,0.0,0.0,0.0,0.0,0.0,0.0,2017-10-18 21:58:42,29.625683515677142
0.0,0.0,0.0,2.593994E-4,-2.89917E-4,2.593994E-4,2.0,0.0,0.0,0.0,0.0,0.0,0.0,0.0,0.0,0.0,2017-10-18 21:58:43,24.160941758126757
0.0,0.0,0.0,2.593994E-4,9.3078613E-4,2.593994E-4,2.0,0.0,0.0,0.0,0.0,0.0,0.0,0.0,0.0,0.0,2017-10-18 21:58:44,26.007636573938974
0.0,0.0,0.0,2.593994E-4,-0.0039520264,0.003921509,2.0,0.0,0.0,0.0,0.0,0.0,0.0,0.0,0.0,0.0,2017-10-18 21:58:45,29.930516435107656
0.0,0.0,0.0,0.0014801025,9.3078613E-4,0.0014801025,2.0,0.0,0.0,0.0,0.0,0.0,0.0,0.0,0.0,0.0,2017-10-18 21:58:46,29.05223131058197
0.0,0.0,0.0,-9.613037E-4,-0.014953613,0.0027008057,2.0,0.0,0.0,0.0,0.0,0.0,0.0,0.0,0.0,0.0,2017-10-18 21:58:47,28.250425326070726
0.0,0.0,0.0,2.593994E-4,-0.0015106201,2.593994E-4,2.0,0.0,0.0,0.0,0.0,0.0,0.0,0.0,0.0,0.0,2017-10-18 21:58:48,32.165934685103686
0.0,0.0,0.0,2.593994E-4,-0.0015106201,-9.613037E-4,2.0,0.0,0.0,0.0,0.0,0.0,0.0,0.0,0.0,0.0,2017-10-18 21:58:49,33.779180835708345
0.0,0.0,0.0,2.593994E-4,-0.0015106201,0.0014801025,2.0,0.0,0.0,0.0,0.0,0.0,0.0,0.0,0.0,0.0,2017-10-18 21:58:50,27.863787057157307
0.0,0.0,0.0,2.593994E-4,-2.89917E-4,0.0014801025,2.0,0.0,0.0,0.0,0.0,0.0,0.0,0.0,0.0,0.0,2017-10-18 21:58:51,24.117511948018937
0.0,0.0,0.0,2.593994E-4,-0.0015106201,-9.613037E-4,2.0,0.0,0.0,0.0,0.0,0.0,0.0,0.0,0.0,0.0,2017-10-18 21:58:52,28.8821285128518
0.0,0.0,0.0,0.0014801025,-2.89917E-4,0.0027008057,2.0,0.0,0.0,0.0,0.0,0.0,0.0,0.0,0.0,0.0,2017-10-18 21:58:53,32.68271842596483
0.0,0.0,0.0,2.593994E-4,0.009490967,0.0014801025,2.0,0.0,0.0,0.0,0.0,0.0,0.0,0.0,0.0,0.0,2017-10-18 21:58:54,23.398301657626625
0.0,0.0,0.0,-0.0021820068,0.0058135986,0.012481689,2.0,0.0,0.0,0.0,0.0,0.0,0.0,0.0,0.0,0.0,2017-10-18 21:58:55,27.688264920265002
0.0,0.0,0.0,2.593994E-4,0.0033721924,-9.613037E-4,2.0,0.0,0.0,0.0,0.0,0.0,0.0,0.0,0.0,0.0,2017-10-18 21:58:56,29.806757514669904
0.0,0.0,0.0,0.006362915,0.02293396,-9.613037E-4,2.0,0.0,0.0,0.0,0.0,0.0,0.0,0.0,0.0,0.0,2017-10-18 21:58:57,25.378072934324386
0.0,0.0,0.0,-9.613037E-4,0.008255005,-9.613037E-4,2.0,0.0,0.0,0.0,0.0,0.0,0.0,0.0,0.0,0.0,2017-10-18 21:58:58,25.514976488086504
0.0,0.0,0.0,-0.0021820068,0.010696411,0.018585205,2.0,0.0,0.0,0.0,0.0,0.0,0.0,0.0,0.0,0.0,2017-10-18 21:58:59,30.385009430766743
0.0,0.0,0.0,2.593994E-4,0.0033721924,0.0014801025,2.0,0.0,0.0,0.0,0.0,0.0,0.0,0.0,0.0,0.0,2017-10-18 21:59:00,36.159687821736924
0.0,0.0,0.0,0.003921509,-0.022277832,0.008804321,2.0,0.0,0.0,0.0,0.0,0.0,0.0,0.0,0.0,0.0,2017-10-18 21:59:01,21.014140960301226
0.0,0.0,0.0,0.0027160645,-0.0063934326,-0.008285522,2.0,0.0,0.0,0.0,0.0,0.0,0.0,0.0,0.0,0.0,2017-10-18 21:59:02,22.599483303919342
0.0,0.0,0.0,-9.613037E-4,-0.010070801,0.0027008057,2.0,0.0,0.0,0.0,0.0,0.0,0.0,0.0,0.0,0.0,2017-10-18 21:59:03,28.550314742267837
0.0,0.0,0.0,2.593994E-4,-2.89917E-4,-9.613037E-4,2.0,0.0,0.0,0.0,0.0,0.0,0.0,0.0,0.0,0.0,2017-10-18 21:59:04,31.855709262648688
0.0,0.0,0.0,2.593994E-4,0.0033721924,0.003921509,2.0,0.0,0.0,0.0,0.0,0.0,0.0,0.0,0.0,0.0,2017-10-18 21:59:06,26.63416739306557
0.0,0.0,0.0,2.593994E-4,-2.89917E-4,-9.613037E-4,2.0,0.0,0.0,0.0,0.0,0.0,0.0,0.0,0.0,0.0,2017-10-18 21:59:07,35.36134514555592
0.0,0.0,0.0,2.593994E-4,-2.89917E-4,2.593994E-4,2.0,0.0,0.0,0.0,0.0,0.0,0.0,0.0,0.0,0.0,2017-10-18 21:59:08,27.79939030355105
0.0,0.0,0.0,-0.0021820068,0.0033721924,-9.613037E-4,2.0,0.0,0.0,0.0,0.0,0.0,0.0,0.0,0.0,0.0,2017-10-18 21:59:09,30.276559780394425
0.0,0.0,0.0,-9.613037E-4,-0.0063934326,0.0014801025,2.0,0.0,0.0,0.0,0.0,0.0,0.0,0.0,0.0,0.0,2017-10-18 21:59:10,25.234334734844964
0.0,0.0,0.0,-9.613037E-4,-2.89917E-4,2.593994E-4,2.0,0.0,0.0,0.0,0.0,0.0,0.0,0.0,0.0,0.0,2017-10-18 21:59:11,25.6875341168374
0.0,0.0,0.0,0.0027160645,-2.89917E-4,0.0014801025,2.0,0.0,0.0,0.0,0.0,0.0,0.0,0.0,0.0,0.0,2017-10-18 21:59:12,29.60752377088127
0.0,0.0,0.0,-0.0021820068,-0.0027313232,0.0014801025,2.0,0.0,0.0,0.0,0.0,0.0,0.0,0.0,0.0,0.0,2017-10-18 21:59:13,27.92444221943763
0.0,0.0,0.0,2.593994E-4,-2.89917E-4,0.0014801025,2.0,0.0,0.0,0.0,0.0,0.0,0.0,0.0,0.0,0.0,2017-10-18 21:59:14,23.601317066757048
0.0,0.0,0.0,2.593994E-4,-0.0015106201,0.0014801025,2.0,0.0,0.0,0.0,0.0,0.0,0.0,0.0,0.0,0.0,2017-10-18 21:59:15,23.333527976140523
0.0,0.0,0.0,2.593994E-4,-0.0015106201,2.593994E-4,2.0,0.0,0.0,0.0,0.0,0.0,0.0,0.0,0.0,0.0,2017-10-18 21:59:16,21.139015912142614
0.0,0.0,0.0,2.593994E-4,-0.0015106201,0.0027008057,2.0,0.0,0.0,0.0,0.0,0.0,0.0,0.0,0.0,0.0,2017-10-18 21:59:17,20.222994659926776
0.0,0.0,0.0,2.593994E-4,0.0033721924,2.593994E-4,2.0,0.0,0.0,0.0,0.0,0.0,0.0,0.0,0.0,0.0,2017-10-18 21:59:18,24.161748680038208
0.0,0.0,0.0,-9.613037E-4,-0.0076293945,-9.613037E-4,2.0,0.0,0.0,0.0,0.0,0.0,0.0,0.0,0.0,0.0,2017-10-18 21:59:19,30.001295904230837
0.0,0.0,0.0,-0.00340271,-0.012512207,0.006362915,2.0,0.0,0.0,0.0,0.0,0.0,0.0,0.0,0.0,0.0,2017-10-18 21:59:20,34.41803106831585
0.0,0.0,0.0,2.593994E-4,-0.0015106201,0.0027008057,2.0,0.0,0.0,0.0,0.0,0.0,0.0,0.0,0.0,0.0,2017-10-18 21:59:21,28.88752357957971
0.0,0.0,0.0,0.0014801025,0.0058135986,-0.0021972656,2.0,0.0,0.0,0.0,0.0,0.0,0.0,0.0,0.0,0.0,2017-10-18 21:59:22,28.469022318997244
0.0,0.0,0.0,2.593994E-4,0.013153076,-0.010726929,2.0,0.0,0.0,0.0,0.0,0.0,0.0,0.0,0.0,0.0,2017-10-18 21:59:23,36.31920102765305
0.0,0.0,0.0,2.593994E-4,-0.0027313232,-0.011962891,2.0,0.0,0.0,0.0,0.0,0.0,0.0,0.0,0.0,0.0,2017-10-18 21:59:24,37.97860437957048
0.0,0.0,0.0,0.0014801025,-2.89917E-4,0.005142212,2.0,0.0,0.0,0.0,0.0,0.0,0.0,0.0,0.0,0.0,2017-10-18 21:59:25,37.219192782488484
0.0,0.0,0.0,-9.613037E-4,9.3078613E-4,2.593994E-4,2.0,0.0,0.0,0.0,0.0,0.0,0.0,0.0,0.0,0.0,2017-10-18 21:59:26,23.433101031623416
0.0,0.0,0.0,2.593994E-4,-0.0027313232,2.593994E-4,2.0,0.0,0.0,0.0,0.0,0.0,0.0,0.0,0.0,0.0,2017-10-18 21:59:27,29.302093563980563
0.0,0.0,0.0,-9.613037E-4,-0.014953613,0.0027008057,2.0,0.0,0.0,0.0,0.0,0.0,0.0,0.0,0.0,0.0,2017-10-18 21:59:28,23.483839733909736
0.0,0.0,0.0,-9.613037E-4,-0.0039520264,-0.0021972656,2.0,0.0,0.0,0.0,0.0,0.0,0.0,0.0,0.0,0.0,2017-10-18 21:59:29,22.314536609101886
0.0,0.0,0.0,0.0014801025,0.0070495605,-0.00340271,2.0,0.0,0.0,0.0,0.0,0.0,0.0,0.0,0.0,0.0,2017-10-18 21:59:30,27.46243654525438
0.0,0.0,0.0,-9.613037E-4,-0.0027313232,0.0014801025,2.0,0.0,0.0,0.0,0.0,0.0,0.0,0.0,0.0,0.0,2017-10-18 21:59:31,25.56912798367467
0.0,0.0,0.0,2.593994E-4,0.0046081543,-9.613037E-4,2.0,0.0,0.0,0.0,0.0,0.0,0.0,0.0,0.0,0.0,2017-10-18 21:59:32,23.71287264160399
0.0,0.0,0.0,2.593994E-4,-2.89917E-4,2.593994E-4,2.0,0.0,0.0,0.0,0.0,0.0,0.0,0.0,0.0,0.0,2017-10-18 21:59:33,28.270470275547545
0.0,0.0,0.0,-9.613037E-4,9.3078613E-4,2.593994E-4,2.0,0.0,0.0,0.0,0.0,0.0,0.0,0.0,0.0,0.0,2017-10-18 21:59:34,24.9235654135375
0.0,0.0,0.0,2.593994E-4,0.0033721924,0.0014801025,2.0,0.0,0.0,0.0,0.0,0.0,0.0,0.0,0.0,0.0,2017-10-18 21:59:35,24.861403504763043
0.0,0.0,0.0,2.593994E-4,-0.0015106201,0.005142212,2.0,0.0,0.0,0.0,0.0,0.0,0.0,0.0,0.0,0.0,2017-10-18 21:59:36,20.388125817040063
0.0,0.0,0.0,2.593994E-4,-2.89917E-4,2.593994E-4,2.0,0.0,0.0,0.0,0.0,0.0,0.0,0.0,0.0,0.0,2017-10-18 21:59:37,27.575419238138743
0.0,0.0,0.0,-0.0021820068,0.0046081543,0.014923096,2.0,0.0,0.0,0.0,0.0,0.0,0.0,0.0,0.0,0.0,2017-10-18 21:59:38,30.315018780175407
0.0,0.0,0.0,-9.613037E-4,-0.010070801,0.0027008057,2.0,0.0,0.0,0.0,0.0,0.0,0.0,0.0,0.0,0.0,2017-10-18 21:59:39,32.63788399947201
0.0,0.0,0.0,2.593994E-4,-0.0039520264,0.0014801025,2.0,0.0,0.0,0.0,0.0,0.0,0.0,0.0,0.0,0.0,2017-10-18 21:59:40,26.485825908524735
0.0,0.0,0.0,-9.613037E-4,9.3078613E-4,0.007598877,2.0,0.0,0.0,0.0,0.0,0.0,0.0,0.0,0.0,0.0,2017-10-18 21:59:41,25.224075516800468
0.0,0.0,0.0,-9.613037E-4,-0.0051727295,2.593994E-4,2.0,0.0,0.0,0.0,0.0,0.0,0.0,0.0,0.0,0.0,2017-10-18 21:59:42,31.441142774564426
0.0,0.0,0.0,-9.613037E-4,0.0033721924,-0.00340271,2.0,0.0,0.0,0.0,0.0,0.0,0.0,0.0,0.0,0.0,2017-10-18 21:59:43,22.046582758653397
0.0,0.0,0.0,2.593994E-4,0.0033721924,2.593994E-4,2.0,0.0,0.0,0.0,0.0,0.0,0.0,0.0,0.0,0.0,2017-10-18 21:59:44,30.978589946165908
0.0,0.0,0.0,-9.613037E-4,0.002166748,0.0027008057,2.0,0.0,0.0,0.0,0.0,0.0,0.0,0.0,0.0,0.0,2017-10-18 21:59:45,23.82740076792531
0.0,0.0,0.0,-0.004623413,-0.0039520264,0.0014801025,2.0,0.0,0.0,0.0,0.0,0.0,0.0,0.0,0.0,0.0,2017-10-18 21:59:46,26.34146511114517
0.0,0.0,0.0,2.593994E-4,9.3078613E-4,2.593994E-4,2.0,0.0,0.0,0.0,0.0,0.0,0.0,0.0,0.0,0.0,2017-10-18 21:59:47,29.032010910937423
0.0,0.0,0.0,2.593994E-4,0.0046081543,2.593994E-4,2.0,0.0,0.0,0.0,0.0,0.0,0.0,0.0,0.0,0.0,2017-10-18 21:59:48,23.31420969340593
0.0,0.0,0.0,0.0014801025,0.014373779,-0.00340271,2.0,0.0,0.0,0.0,0.0,0.0,0.0,0.0,0.0,0.0,2017-10-18 21:59:49,30.372646034267344
0.0,0.0,0.0,-9.613037E-4,-2.89917E-4,0.0014801025,2.0,0.0,0.0,0.0,0.0,0.0,0.0,0.0,0.0,0.0,2017-10-18 21:59:50,35.78548782219408
0.0,0.0,0.0,2.593994E-4,0.0058135986,0.0014801025,2.0,0.0,0.0,0.0,0.0,0.0,0.0,0.0,0.0,0.0,2017-10-18 21:59:51,27.2736967071683
0.0,0.0,0.0,-9.613037E-4,-0.0027313232,2.593994E-4,2.0,0.0,0.0,0.0,0.0,0.0,0.0,0.0,0.0,0.0,2017-10-18 21:59:52,29.798370686265258
0.0,0.0,0.0,2.593994E-4,9.3078613E-4,2.593994E-4,2.0,0.0,0.0,0.0,0.0,0.0,0.0,0.0,0.0,0.0,2017-10-18 21:59:54,23.568441708926777
0.0,0.0,0.0,-0.0021820068,-0.0051727295,0.003921509,2.0,0.0,0.0,0.0,0.0,0.0,0.0,0.0,0.0,0.0,2017-10-18 21:59:55,23.189009707819213
0.0,0.0,0.0,2.593994E-4,0.0046081543,0.0027008057,2.0,0.0,0.0,0.0,0.0,0.0,0.0,0.0,0.0,0.0,2017-10-18 21:59:56,26.15214980651085
0.0,0.0,0.0,-9.613037E-4,-0.0051727295,-0.004638672,2.0,0.0,0.0,0.0,0.0,0.0,0.0,0.0,0.0,0.0,2017-10-18 21:59:57,29.38624471077417
0.0,0.0,0.0,2.593994E-4,0.002166748,-9.613037E-4,2.0,0.0,0.0,0.0,0.0,0.0,0.0,0.0,0.0,0.0,2017-10-18 21:59:58,25.408337207436414
0.0,0.0,0.0,-9.613037E-4,-0.0063934326,-0.0021972656,2.0,0.0,0.0,0.0,0.0,0.0,0.0,0.0,0.0,0.0,2017-10-18 21:59:59,22.386849935167128
0.0,0.0,0.0,0.0014801025,0.0058135986,2.593994E-4,2.0,0.0,0.0,0.0,0.0,0.0,0.0,0.0,0.0,0.0,2017-10-18 22:00:00,26.585345613761156
0.0,0.0,0.0,-9.613037E-4,-0.0039520264,0.0027008057,2.0,0.0,0.0,0.0,0.0,0.0,0.0,0.0,0.0,0.0,2017-10-18 22:00:01,29.637922528781893
0.0,0.0,0.0,0.0014801025,0.0033721924,0.0014801025,2.0,0.0,0.0,0.0,0.0,0.0,0.0,0.0,0.0,0.0,2017-10-18 22:00:02,29.822090249477245
0.0,0.0,0.0,2.593994E-4,-0.0015106201,0.0027008057,2.0,0.0,0.0,0.0,0.0,0.0,0.0,0.0,0.0,0.0,2017-10-18 22:00:03,31.23169970069885
0.0,0.0,0.0,2.593994E-4,0.0046081543,2.593994E-4,2.0,0.0,0.0,0.0,0.0,0.0,0.0,0.0,0.0,0.0,2017-10-18 22:00:04,31.614461494907697
0.0,0.0,0.0,2.593994E-4,-0.0051727295,0.0014801025,2.0,0.0,0.0,0.0,0.0,0.0,0.0,0.0,0.0,0.0,2017-10-18 22:00:05,35.3833274567517
0.0,0.0,0.0,2.4414063E-4,0.004257202,-3.0517578E-4,2.0,0.0,0.0,0.0,0.0,0.0,0.0,0.0,0.0,0.0,2017-10-18 22:00:06,43.94471627487431
0.0,0.0,0.0,0.0014648438,0.014022827,0.0021362305,2.0,0.0,0.0,0.0,0.0,0.0,0.0,0.0,0.0,0.0,2017-10-18 22:00:07,20.18550976206193
0.0,0.0,0.0,-9.765625E-4,0.0018157959,9.1552734E-4,2.0,0.0,0.0,0.0,0.0,0.0,0.0,0.0,0.0,0.0,2017-10-18 22:00:08,28.63492008673939
0.0,0.0,0.0,0.0014648438,5.79834E-4,-3.0517578E-4,2.0,0.0,0.0,0.0,0.0,0.0,0.0,0.0,0.0,0.0,2017-10-18 22:00:09,29.30648217541904
0.0,0.0,0.0,-9.765625E-4,-0.0030822754,-3.0517578E-4,2.0,0.0,0.0,0.0,0.0,0.0,0.0,0.0,0.0,0.0,2017-10-18 22:00:10,31.58838654275378
0.0,0.0,0.0,2.4414063E-4,-0.011627197,9.1552734E-4,2.0,0.0,0.0,0.0,0.0,0.0,0.0,0.0,0.0,0.0,2017-10-18 22:00:11,32.15751540866597
0.0,0.0,0.0,-9.765625E-4,-6.4086914E-4,-0.0015258789,2.0,0.0,0.0,0.0,0.0,0.0,0.0,0.0,0.0,0.0,2017-10-18 22:00:12,27.798793308094414
0.0,0.0,0.0,2.4414063E-4,0.0018157959,-3.0517578E-4,2.0,0.0,0.0,0.0,0.0,0.0,0.0,0.0,0.0,0.0,2017-10-18 22:00:13,32.85276642723392
0.0,0.0,0.0,-0.0107421875,-0.0055236816,-3.0517578E-4,2.0,0.0,0.0,0.0,0.0,0.0,0.0,0.0,0.0,0.0,2017-10-18 22:00:14,27.22147845356128
0.0,0.0,0.0,-9.765625E-4,-0.0043029785,-0.003967285,2.0,0.0,0.0,0.0,0.0,0.0,0.0,0.0,0.0,0.0,2017-10-18 22:00:15,24.001303772752948
0.0,0.0,0.0,-9.765625E-4,-0.011627197,-0.0015258789,2.0,0.0,0.0,0.0,0.0,0.0,0.0,0.0,0.0,0.0,2017-10-18 22:00:16,22.871296207191108
0.0,0.0,0.0,-9.765625E-4,5.79834E-4,0.0021362305,2.0,0.0,0.0,0.0,0.0,0.0,0.0,0.0,0.0,0.0,2017-10-18 22:00:17,21.22139050519835
0.0,0.0,0.0,2.4414063E-4,-0.0018615723,9.1552734E-4,2.0,0.0,0.0,0.0,0.0,0.0,0.0,0.0,0.0,0.0,2017-10-18 22:00:18,25.52632099435594
0.0,0.0,0.0,2.4414063E-4,-0.0043029785,-3.0517578E-4,2.0,0.0,0.0,0.0,0.0,0.0,0.0,0.0,0.0,0.0,2017-10-18 22:00:19,31.089474842742373
0.0,0.0,0.0,2.4414063E-4,-0.0030822754,9.1552734E-4,2.0,0.0,0.0,0.0,0.0,0.0,0.0,0.0,0.0,0.0,2017-10-18 22:00:20,31.008576682873223
0.0,0.0,0.0,2.4414063E-4,5.79834E-4,9.1552734E-4,2.0,0.0,0.0,0.0,0.0,0.0,0.0,0.0,0.0,0.0,2017-10-18 22:00:21,28.988099964480586
0.0,0.0,0.0,0.0014648438,-0.0018615723,-3.0517578E-4,2.0,0.0,0.0,0.0,0.0,0.0,0.0,0.0,0.0,0.0,2017-10-18 22:00:22,36.40898791382144
0.0,0.0,0.0,-9.765625E-4,-6.4086914E-4,-3.0517578E-4,2.0,0.0,0.0,0.0,0.0,0.0,0.0,0.0,0.0,0.0,2017-10-18 22:00:23,28.72433083678886
0.0,0.0,0.0,2.4414063E-4,0.0018157959,-3.0517578E-4,2.0,0.0,0.0,0.0,0.0,0.0,0.0,0.0,0.0,0.0,2017-10-18 22:00:24,31.492032305853904
0.0,0.0,0.0,-0.0021972656,-0.0018615723,-3.0517578E-4,2.0,0.0,0.0,0.0,0.0,0.0,0.0,0.0,0.0,0.0,2017-10-18 22:00:25,32.35664931537031
0.0,0.0,0.0,2.4414063E-4,-6.4086914E-4,9.1552734E-4,2.0,0.0,0.0,0.0,0.0,0.0,0.0,0.0,0.0,0.0,2017-10-18 22:00:26,24.432336422455414
0.0,0.0,0.0,-9.765625E-4,-6.4086914E-4,9.1552734E-4,2.0,0.0,0.0,0.0,0.0,0.0,0.0,0.0,0.0,0.0,2017-10-18 22:00:27,22.658896963181306
0.0,0.0,0.0,-9.765625E-4,0.0018157959,-3.0517578E-4,2.0,0.0,0.0,0.0,0.0,0.0,0.0,0.0,0.0,0.0,2017-10-18 22:00:28,22.44389237204597
0.0,0.0,0.0,2.4414063E-4,-0.0030822754,-0.0015258789,2.0,0.0,0.0,0.0,0.0,0.0,0.0,0.0,0.0,0.0,2017-10-18 22:00:29,21.42291676273136
0.0,0.0,0.0,-9.765625E-4,-6.4086914E-4,-3.0517578E-4,2.0,0.0,0.0,0.0,0.0,0.0,0.0,0.0,0.0,0.0,2017-10-18 22:00:30,28.18124815982348
0.0,0.0,0.0,2.4414063E-4,0.0018157959,-3.0517578E-4,2.0,0.0,0.0,0.0,0.0,0.0,0.0,0.0,0.0,0.0,2017-10-18 22:00:31,26.88902072675782
0.0,0.0,0.0,2.4414063E-4,-6.4086914E-4,9.1552734E-4,2.0,0.0,0.0,0.0,0.0,0.0,0.0,0.0,0.0,0.0,2017-10-18 22:00:32,28.73455026255715
0.0,0.0,0.0,-9.765625E-4,-0.0030822754,-3.0517578E-4,2.0,0.0,0.0,0.0,0.0,0.0,0.0,0.0,0.0,0.0,2017-10-18 22:00:33,32.676677292082
0.0,0.0,0.0,-9.765625E-4,-0.007980347,-0.0064086914,2.0,0.0,0.0,0.0,0.0,0.0,0.0,0.0,0.0,0.0,2017-10-18 22:00:34,32.77645022069449
0.0,0.0,0.0,2.4414063E-4,-6.4086914E-4,-0.0027618408,2.0,0.0,0.0,0.0,0.0,0.0,0.0,0.0,0.0,0.0,2017-10-18 22:00:35,29.280852565135408
0.0,0.0,0.0,2.4414063E-4,5.79834E-4,-3.0517578E-4,2.0,0.0,0.0,0.0,0.0,0.0,0.0,0.0,0.0,0.0,2017-10-18 22:00:36,30.060453163120574
0.0,0.0,0.0,-9.765625E-4,-0.0018615723,0.0021362305,2.0,0.0,0.0,0.0,0.0,0.0,0.0,0.0,0.0,0.0,2017-10-18 22:00:37,22.368481028034335
0.0,0.0,0.0,2.4414063E-4,-6.4086914E-4,-3.0517578E-4,2.0,0.0,0.0,0.0,0.0,0.0,0.0,0.0,0.0,0.0,2017-10-18 22:00:38,29.12952353930053
0.0,0.0,0.0,-0.0034179688,-0.011627197,0.00579834,2.0,0.0,0.0,0.0,0.0,0.0,0.0,0.0,0.0,0.0,2017-10-18 22:00:39,28.54948087442139
0.0,0.0,0.0,0.005142212,0.0018157959,-0.0015258789,2.0,0.0,0.0,0.0,0.0,0.0,0.0,0.0,0.0,0.0,2017-10-18 22:00:40,24.04697443897785
0.0,0.0,0.0,0.0027008057,-0.0018615723,0.0021362305,2.0,0.0,0.0,0.0,0.0,0.0,0.0,0.0,0.0,0.0,2017-10-18 22:00:42,32.68708112029469
0.0,0.0,0.0,2.4414063E-4,0.0018157959,0.0021362305,2.0,0.0,0.0,0.0,0.0,0.0,0.0,0.0,0.0,0.0,2017-10-18 22:00:43,50.8110004338269
0.0,0.0,0.0,-0.0034179688,-0.022628784,0.0021362305,2.0,0.0,0.0,0.0,0.0,0.0,0.0,0.0,0.0,0.0,2017-10-18 22:00:44,32.64807127786153
0.0,0.0,0.0,2.4414063E-4,-6.4086914E-4,9.1552734E-4,2.0,0.0,0.0,0.0,0.0,0.0,0.0,0.0,0.0,0.0,2017-10-18 22:00:45,26.576040546088944
0.0,0.0,0.0,2.4414063E-4,0.011581421,0.0045776367,2.0,0.0,0.0,0.0,0.0,0.0,0.0,0.0,0.0,0.0,2017-10-18 22:00:46,30.028906315447237
0.0,0.0,0.0,2.4414063E-4,-0.0018615723,0.0021362305,2.0,0.0,0.0,0.0,0.0,0.0,0.0,0.0,0.0,0.0,2017-10-18 22:00:47,24.16983564287715
0.0,0.0,0.0,-9.765625E-4,-0.0043029785,9.1552734E-4,2.0,0.0,0.0,0.0,0.0,0.0,0.0,0.0,0.0,0.0,2017-10-18 22:00:48,21.328348048010195
0.0,0.0,0.0,2.4414063E-4,0.007904053,-0.003967285,2.0,0.0,0.0,0.0,0.0,0.0,0.0,0.0,0.0,0.0,2017-10-18 22:00:49,23.19701243986256
0.0,0.0,0.0,-9.765625E-4,-0.007980347,-3.0517578E-4,2.0,0.0,0.0,0.0,0.0,0.0,0.0,0.0,0.0,0.0,2017-10-18 22:00:50,42.26192845328383
0.0,0.0,0.0,0.0014648438,0.0054626465,-3.0517578E-4,2.0,0.0,0.0,0.0,0.0,0.0,0.0,0.0,0.0,0.0,2017-10-18 22:00:51,31.371819579947662
0.0,0.0,0.0,-9.765625E-4,-6.4086914E-4,-3.0517578E-4,2.0,0.0,0.0,0.0,0.0,0.0,0.0,0.0,0.0,0.0,2017-10-18 22:00:52,25.435267779091877
0.0,0.0,0.0,-9.765625E-4,-0.0018615723,-3.0517578E-4,2.0,0.0,0.0,0.0,0.0,0.0,0.0,0.0,0.0,0.0,2017-10-18 22:00:53,34.0895745321572
0.0,0.0,0.0,-9.765625E-4,-6.4086914E-4,-3.0517578E-4,2.0,0.0,0.0,0.0,0.0,0.0,0.0,0.0,0.0,0.0,2017-10-18 22:00:54,29.681062799598372
0.0,0.0,0.0,-9.765625E-4,-0.0030822754,9.1552734E-4,2.0,0.0,0.0,0.0,0.0,0.0,0.0,0.0,0.0,0.0,2017-10-18 22:00:55,29.72806489642342
0.0,0.0,0.0,2.4414063E-4,0.0030212402,0.0021362305,2.0,0.0,0.0,0.0,0.0,0.0,0.0,0.0,0.0,0.0,2017-10-18 22:00:56,25.49497542685308
0.0,0.0,0.0,2.4414063E-4,0.0018157959,0.0021362305,2.0,0.0,0.0,0.0,0.0,0.0,0.0,0.0,0.0,0.0,2017-10-18 22:00:57,25.100336760602396
0.0,0.0,0.0,2.4414063E-4,5.79834E-4,-0.005203247,2.0,0.0,0.0,0.0,0.0,0.0,0.0,0.0,0.0,0.0,2017-10-18 22:00:58,20.071474353402678
0.0,0.0,0.0,2.4414063E-4,0.0030212402,0.0045776367,2.0,0.0,0.0,0.0,0.0,0.0,0.0,0.0,0.0,0.0,2017-10-18 22:00:59,35.37561156141444
0.0,0.0,0.0,-0.0021972656,-0.010421753,9.1552734E-4,2.0,0.0,0.0,0.0,0.0,0.0,0.0,0.0,0.0,0.0,2017-10-18 22:01:00,29.069744278534113
0.0,0.0,0.0,2.4414063E-4,-6.4086914E-4,-3.0517578E-4,2.0,0.0,0.0,0.0,0.0,0.0,0.0,0.0,0.0,0.0,2017-10-18 22:01:01,24.695251773317686
0.0,0.0,0.0,0.005142212,0.016464233,-3.0517578E-4,2.0,0.0,0.0,0.0,0.0,0.0,0.0,0.0,0.0,0.0,2017-10-18 22:01:02,27.825733924443753
0.0,0.0,0.0,-9.765625E-4,-0.017745972,0.0033569336,2.0,0.0,0.0,0.0,0.0,0.0,0.0,0.0,0.0,0.0,2017-10-18 22:01:03,30.09784748188736
0.0,0.0,0.0,0.0027008057,0.007904053,-0.0027618408,2.0,0.0,0.0,0.0,0.0,0.0,0.0,0.0,0.0,0.0,2017-10-18 22:01:04,32.00804345012956
0.0,0.0,0.0,-0.0021972656,-0.0067443848,-0.0015258789,2.0,0.0,0.0,0.0,0.0,0.0,0.0,0.0,0.0,0.0,2017-10-18 22:01:05,33.03307452631624
0.0,0.0,0.0,2.4414063E-4,0.0054626465,-0.0027618408,2.0,0.0,0.0,0.0,0.0,0.0,0.0,0.0,0.0,0.0,2017-10-18 22:01:06,29.03104406686525
0.0,0.0,0.0,-9.765625E-4,0.0030212402,-0.0027618408,2.0,0.0,0.0,0.0,0.0,0.0,0.0,0.0,0.0,0.0,2017-10-18 22:01:07,35.06170050025839
0.0,0.0,0.0,2.4414063E-4,0.007904053,-0.003967285,2.0,0.0,0.0,0.0,0.0,0.0,0.0,0.0,0.0,0.0,2017-10-18 22:01:08,29.812507436125987
0.0,0.0,0.0,2.4414063E-4,-0.0018615723,0.0021362305,2.0,0.0,0.0,0.0,0.0,0.0,0.0,0.0,0.0,0.0,2017-10-18 22:01:09,32.64309693409476
0.0,0.0,0.0,-9.765625E-4,0.0018157959,-0.0015258789,2.0,0.0,0.0,0.0,0.0,0.0,0.0,0.0,0.0,0.0,2017-10-18 22:01:10,26.29535421778462
0.0,0.0,0.0,2.4414063E-4,0.0018157959,-0.0015258789,2.0,0.0,0.0,0.0,0.0,0.0,0.0,0.0,0.0,0.0,2017-10-18 22:01:11,31.819328662844647
0.0,0.0,0.0,2.4414063E-4,-6.4086914E-4,-3.0517578E-4,2.0,0.0,0.0,0.0,0.0,0.0,0.0,0.0,0.0,0.0,2017-10-18 22:01:12,27.130427348772137
0.0,0.0,0.0,2.4414063E-4,-6.4086914E-4,9.1552734E-4,2.0,0.0,0.0,0.0,0.0,0.0,0.0,0.0,0.0,0.0,2017-10-18 22:01:13,28.681639290697355
0.0,0.0,0.0,-9.765625E-4,-0.0055236816,0.0021362305,2.0,0.0,0.0,0.0,0.0,0.0,0.0,0.0,0.0,0.0,2017-10-18 22:01:14,29.46443053352558
0.0,0.0,0.0,2.4414063E-4,0.0018157959,0.0021362305,2.0,0.0,0.0,0.0,0.0,0.0,0.0,0.0,0.0,0.0,2017-10-18 22:01:15,18.956469564132522
0.0,0.0,0.0,2.4414063E-4,-6.4086914E-4,-3.0517578E-4,2.0,0.0,0.0,0.0,0.0,0.0,0.0,0.0,0.0,0.0,2017-10-18 22:01:16,26.933201568523266
0.0,0.0,0.0,-0.004638672,-0.03239441,0.0045776367,2.0,0.0,0.0,0.0,0.0,0.0,0.0,0.0,0.0,0.0,2017-10-18 22:01:17,19.16412820231138
0.0,0.0,0.0,2.4414063E-4,0.0018157959,9.1552734E-4,2.0,0.0,0.0,0.0,0.0,0.0,0.0,0.0,0.0,0.0,2017-10-18 22:01:18,24.164844827337994
0.0,0.0,0.0,2.4414063E-4,-0.0030822754,9.1552734E-4,2.0,0.0,0.0,0.0,0.0,0.0,0.0,0.0,0.0,0.0,2017-10-18 22:01:19,27.328948696207117
0.0,0.0,0.0,2.4414063E-4,-6.4086914E-4,-3.0517578E-4,2.0,0.0,0.0,0.0,0.0,0.0,0.0,0.0,0.0,0.0,2017-10-18 22:01:20,25.13494357945858
0.0,0.0,0.0,2.4414063E-4,5.79834E-4,-3.0517578E-4,2.0,0.0,0.0,0.0,0.0,0.0,0.0,0.0,0.0,0.0,2017-10-18 22:01:21,28.220229360082122
0.0,0.0,0.0,2.4414063E-4,5.79834E-4,9.1552734E-4,2.0,0.0,0.0,0.0,0.0,0.0,0.0,0.0,0.0,0.0,2017-10-18 22:01:22,32.893331885985695
0.0,0.0,0.0,-9.765625E-4,-6.4086914E-4,9.1552734E-4,2.0,0.0,0.0,0.0,0.0,0.0,0.0,0.0,0.0,0.0,2017-10-18 22:01:23,28.056229650749692
0.0,0.0,0.0,2.4414063E-4,5.79834E-4,-3.0517578E-4,2.0,0.0,0.0,0.0,0.0,0.0,0.0,0.0,0.0,0.0,2017-10-18 22:01:24,25.217079664186386
0.0,0.0,0.0,-9.765625E-4,5.79834E-4,-0.0015258789,2.0,0.0,0.0,0.0,0.0,0.0,0.0,0.0,0.0,0.0,2017-10-18 22:01:25,19.494509987778553
0.0,0.0,0.0,2.4414063E-4,0.0030212402,-3.0517578E-4,2.0,0.0,0.0,0.0,0.0,0.0,0.0,0.0,0.0,0.0,2017-10-18 22:01:26,24.710256975968576
0.0,0.0,0.0,0.0063476563,0.004257202,9.1552734E-4,2.0,0.0,0.0,0.0,0.0,0.0,0.0,0.0,0.0,0.0,2017-10-18 22:01:27,30.778593883507096
0.0,0.0,0.0,0.0014648438,0.0054626465,-3.0517578E-4,2.0,0.0,0.0,0.0,0.0,0.0,0.0,0.0,0.0,0.0,2017-10-18 22:01:28,31.638673496623024
0.0,0.0,0.0,-9.765625E-4,5.79834E-4,0.0021362305,2.0,0.0,0.0,0.0,0.0,0.0,0.0,0.0,0.0,0.0,2017-10-18 22:01:30,35.17794455258994
0.0,0.0,0.0,0.0014648438,0.0018157959,9.1552734E-4,2.0,0.0,0.0,0.0,0.0,0.0,0.0,0.0,0.0,0.0,2017-10-18 22:01:31,30.751310576393507
0.0,0.0,0.0,-9.765625E-4,-0.012863159,-0.0027618408,2.0,0.0,0.0,0.0,0.0,0.0,0.0,0.0,0.0,0.0,2017-10-18 22:01:32,32.655050839699065
0.0,0.0,0.0,-0.005859375,-0.0018615723,0.0021362305,2.0,0.0,0.0,0.0,0.0,0.0,0.0,0.0,0.0,0.0,2017-10-18 22:01:33,32.659628996949486
0.0,0.0,0.0,0.0014648438,0.011581421,-0.0064086914,2.0,0.0,0.0,0.0,0.0,0.0,0.0,0.0,0.0,0.0,2017-10-18 22:01:34,26.212752984597763
0.0,0.0,0.0,2.4414063E-4,0.0066986084,-0.0015258789,2.0,0.0,0.0,0.0,0.0,0.0,0.0,0.0,0.0,0.0,2017-10-18 22:01:35,32.831828135937926
0.0,0.0,0.0,0.0014648438,5.79834E-4,-0.0027618408,2.0,0.0,0.0,0.0,0.0,0.0,0.0,0.0,0.0,0.0,2017-10-18 22:01:36,29.590443751026218
0.0,0.0,0.0,2.4414063E-4,-0.0030822754,0.0021362305,2.0,0.0,0.0,0.0,0.0,0.0,0.0,0.0,0.0,0.0,2017-10-18 22:01:37,26.386171553164928
0.0,0.0,0.0,-0.004638672,-0.0043029785,-0.0015258789,2.0,0.0,0.0,0.0,0.0,0.0,0.0,0.0,0.0,0.0,2017-10-18 22:01:38,22.60965304901508
0.0,0.0,0.0,2.4414063E-4,-0.0043029785,-0.0027618408,2.0,0.0,0.0,0.0,0.0,0.0,0.0,0.0,0.0,0.0,2017-10-18 22:01:39,21.501709755478164
0.0,0.0,0.0,-9.765625E-4,-0.0067443848,-3.0517578E-4,2.0,0.0,0.0,0.0,0.0,0.0,0.0,0.0,0.0,0.0,2017-10-18 22:01:40,19.658775544106454
0.0,0.0,0.0,2.4414063E-4,0.0030212402,-3.0517578E-4,2.0,0.0,0.0,0.0,0.0,0.0,0.0,0.0,0.0,0.0,2017-10-18 22:01:41,26.73555090323287
0.0,0.0,0.0,-9.765625E-4,-0.0018615723,-0.003967285,2.0,0.0,0.0,0.0,0.0,0.0,0.0,0.0,0.0,0.0,2017-10-18 22:01:42,30.986799515600126
0.0,0.0,0.0,-9.765625E-4,-0.0018615723,-0.0015258789,2.0,0.0,0.0,0.0,0.0,0.0,0.0,0.0,0.0,0.0,2017-10-18 22:01:43,32.981295592592986
0.0,0.0,0.0,2.4414063E-4,-0.0018615723,-0.0015258789,2.0,0.0,0.0,0.0,0.0,0.0,0.0,0.0,0.0,0.0,2017-10-18 22:01:44,28.559533466043796
0.0,0.0,0.0,-9.765625E-4,-0.0018615723,-3.0517578E-4,2.0,0.0,0.0,0.0,0.0,0.0,0.0,0.0,0.0,0.0,2017-10-18 22:01:45,34.14861889111889
0.0,0.0,0.0,-9.765625E-4,-0.0018615723,-3.0517578E-4,2.0,0.0,0.0,0.0,0.0,0.0,0.0,0.0,0.0,0.0,2017-10-18 22:01:46,32.93114187162835
0.0,0.0,0.0,2.4414063E-4,-0.0018615723,-3.0517578E-4,2.0,0.0,0.0,0.0,0.0,0.0,0.0,0.0,0.0,0.0,2017-10-18 22:01:47,30.2848101945399
0.0,0.0,0.0,2.4414063E-4,-6.4086914E-4,-0.0015258789,2.0,0.0,0.0,0.0,0.0,0.0,0.0,0.0,0.0,0.0,2017-10-18 22:01:48,19.296663392141802
0.0,0.0,0.0,-9.765625E-4,-6.4086914E-4,-3.0517578E-4,2.0,0.0,0.0,0.0,0.0,0.0,0.0,0.0,0.0,0.0,2017-10-18 22:01:49,26.722090161660937
0.0,0.0,0.0,2.4414063E-4,0.0018157959,-3.0517578E-4,2.0,0.0,0.0,0.0,0.0,0.0,0.0,0.0,0.0,0.0,2017-10-18 22:01:50,32.47602378196242
0.0,0.0,0.0,2.4414063E-4,-6.4086914E-4,9.1552734E-4,2.0,0.0,0.0,0.0,0.0,0.0,0.0,0.0,0.0,0.0,2017-10-18 22:01:51,32.62048943884229
0.0,0.0,0.0,2.4414063E-4,-6.4086914E-4,-0.0015258789,2.0,0.0,0.0,0.0,0.0,0.0,0.0,0.0,0.0,0.0,2017-10-18 22:01:52,26.34928900521021
0.0,0.0,0.0,-9.765625E-4,-6.4086914E-4,-3.0517578E-4,2.0,0.0,0.0,0.0,0.0,0.0,0.0,0.0,0.0,0.0,2017-10-18 22:01:53,26.79180809993312
0.0,0.0,0.0,0.0014648438,-0.0018615723,9.1552734E-4,2.0,0.0,0.0,0.0,0.0,0.0,0.0,0.0,0.0,0.0,2017-10-18 22:01:54,25.986109950124224
0.0,0.0,0.0,2.4414063E-4,-0.0043029785,-0.0015258789,2.0,0.0,0.0,0.0,0.0,0.0,0.0,0.0,0.0,0.0,2017-10-18 22:01:55,26.43702447354679
0.0,0.0,0.0,2.4414063E-4,-0.0018615723,-0.0015258789,2.0,0.0,0.0,0.0,0.0,0.0,0.0,0.0,0.0,0.0,2017-10-18 22:01:56,30.890513519865156
0.0,0.0,0.0,2.4414063E-4,-0.007980347,0.0021362305,2.0,0.0,0.0,0.0,0.0,0.0,0.0,0.0,0.0,0.0,2017-10-18 22:01:57,33.59397589061844
0.0,0.0,0.0,-9.765625E-4,-0.0043029785,-3.0517578E-4,2.0,0.0,0.0,0.0,0.0,0.0,0.0,0.0,0.0,0.0,2017-10-18 22:01:58,30.17092711438928
0.0,0.0,0.0,2.4414063E-4,0.0018157959,-0.0015258789,2.0,0.0,0.0,0.0,0.0,0.0,0.0,0.0,0.0,0.0,2017-10-18 22:01:59,32.75458566362089
0.0,0.0,0.0,2.4414063E-4,-6.4086914E-4,-0.0015258789,2.0,0.0,0.0,0.0,0.0,0.0,0.0,0.0,0.0,0.0,2017-10-18 22:02:00,31.082271852796165
0.0,0.0,0.0,2.4414063E-4,0.0030212402,-0.0027618408,2.0,0.0,0.0,0.0,0.0,0.0,0.0,0.0,0.0,0.0,2017-10-18 22:02:01,31.800882241590127
0.0,0.0,0.0,2.4414063E-4,5.79834E-4,-0.0027618408,2.0,0.0,0.0,0.0,0.0,0.0,0.0,0.0,0.0,0.0,2017-10-18 22:02:02,26.63639097614926
0.0,0.0,0.0,2.4414063E-4,0.0018157959,-0.0027618408,2.0,0.0,0.0,0.0,0.0,0.0,0.0,0.0,0.0,0.0,2017-10-18 22:02:03,26.18956287009651
0.0,0.0,0.0,-9.765625E-4,-0.0030822754,-3.0517578E-4,2.0,0.0,0.0,0.0,0.0,0.0,0.0,0.0,0.0,0.0,2017-10-18 22:02:04,26.86530140103031
0.0,0.0,0.0,0.0014648438,0.05555725,0.015563965,2.0,0.0,0.0,0.0,0.0,0.0,0.0,0.0,0.0,0.0,2017-10-18 22:02:05,32.67168793970925
0.0,0.0,0.0,-0.0011444092,0.003326416,0.001876831,2.0,0.0,0.0,0.0,0.0,0.0,0.0,0.0,0.0,0.0,2017-10-18 22:02:06,34.80978120452901
0.0,0.0,0.0,0.0012969971,-0.007675171,-0.0018005371,2.0,0.0,0.0,0.0,0.0,0.0,0.0,0.0,0.0,0.0,2017-10-18 22:02:07,39.79369800399246
0.0,0.0,0.0,-0.0048065186,0.004562378,6.5612793E-4,2.0,0.0,0.0,0.0,0.0,0.0,0.0,0.0,0.0,0.0,2017-10-18 22:02:08,37.913843555333735
0.0,0.0,0.0,0.0012969971,0.00944519,-0.0018005371,2.0,0.0,0.0,0.0,0.0,0.0,0.0,0.0,0.0,0.0,2017-10-18 22:02:09,26.43182700777185
0.0,0.0,0.0,0.0037384033,-0.0015563965,0.0043182373,2.0,0.0,0.0,0.0,0.0,0.0,0.0,0.0,0.0,0.0,2017-10-18 22:02:10,30.23605437701262
0.0,0.0,0.0,7.6293945E-5,-0.0027770996,-5.645752E-4,2.0,0.0,0.0,0.0,0.0,0.0,0.0,0.0,0.0,0.0,2017-10-18 22:02:11,29.18130310042461
0.0,0.0,0.0,-0.0011444092,-3.3569336E-4,6.5612793E-4,2.0,0.0,0.0,0.0,0.0,0.0,0.0,0.0,0.0,0.0,2017-10-18 22:02:12,45.516608990483924
0.0,0.0,0.0,-0.0011444092,-0.008880615,0.001876831,2.0,0.0,0.0,0.0,0.0,0.0,0.0,0.0,0.0,0.0,2017-10-18 22:02:13,24.738905121620057
0.0,0.0,0.0,0.0012969971,-0.0027770996,0.001876831,2.0,0.0,0.0,0.0,0.0,0.0,0.0,0.0,0.0,0.0,2017-10-18 22:02:14,22.506486786539245
0.0,0.0,0.0,7.6293945E-5,-0.005218506,0.001876831,2.0,0.0,0.0,0.0,0.0,0.0,0.0,0.0,0.0,0.0,2017-10-18 22:02:15,27.464055114904898
0.0,0.0,0.0,7.6293945E-5,-3.3569336E-4,0.0043182373,2.0,0.0,0.0,0.0,0.0,0.0,0.0,0.0,0.0,0.0,2017-10-18 22:02:16,35.87338898954426
0.0,0.0,0.0,7.6293945E-5,0.0021209717,6.5612793E-4,2.0,0.0,0.0,0.0,0.0,0.0,0.0,0.0,0.0,0.0,2017-10-18 22:02:18,38.55267334216275
0.0,0.0,0.0,7.6293945E-5,-0.0027770996,-5.645752E-4,2.0,0.0,0.0,0.0,0.0,0.0,0.0,0.0,0.0,0.0,2017-10-18 22:02:19,30.82883501706119
0.0,0.0,0.0,0.0012969971,8.8500977E-4,-5.645752E-4,2.0,0.0,0.0,0.0,0.0,0.0,0.0,0.0,0.0,0.0,2017-10-18 22:02:20,28.51289887446012
0.0,0.0,0.0,7.6293945E-5,-0.0015563965,6.5612793E-4,2.0,0.0,0.0,0.0,0.0,0.0,0.0,0.0,0.0,0.0,2017-10-18 22:02:21,24.61198288622493
0.0,0.0,0.0,-0.0011444092,8.8500977E-4,0.001876831,2.0,0.0,0.0,0.0,0.0,0.0,0.0,0.0,0.0,0.0,2017-10-18 22:02:22,22.092216997190622
0.0,0.0,0.0,-0.0011444092,-0.0015563965,6.5612793E-4,2.0,0.0,0.0,0.0,0.0,0.0,0.0,0.0,0.0,0.0,2017-10-18 22:02:23,28.037248395061813
0.0,0.0,0.0,7.6293945E-5,8.8500977E-4,0.001876831,2.0,0.0,0.0,0.0,0.0,0.0,0.0,0.0,0.0,0.0,2017-10-18 22:02:24,31.841491112883084
0.0,0.0,0.0,-0.0011444092,-0.0015563965,-5.645752E-4,2.0,0.0,0.0,0.0,0.0,0.0,0.0,0.0,0.0,0.0,2017-10-18 22:02:25,31.98002489350351
0.0,0.0,0.0,7.6293945E-5,8.8500977E-4,-5.645752E-4,2.0,0.0,0.0,0.0,0.0,0.0,0.0,0.0,0.0,0.0,2017-10-18 22:02:26,30.76593799103104
0.0,0.0,0.0,-0.0011444092,-3.3569336E-4,6.5612793E-4,2.0,0.0,0.0,0.0,0.0,0.0,0.0,0.0,0.0,0.0,2017-10-18 22:02:27,27.018444575750742
0.0,0.0,0.0,7.6293945E-5,-0.0027770996,0.0030975342,2.0,0.0,0.0,0.0,0.0,0.0,0.0,0.0,0.0,0.0,2017-10-18 22:02:28,29.391845109806127
0.0,0.0,0.0,0.0012969971,-0.0015563965,6.5612793E-4,2.0,0.0,0.0,0.0,0.0,0.0,0.0,0.0,0.0,0.0,2017-10-18 22:02:29,32.13864589211808
0.0,0.0,0.0,0.0012969971,8.8500977E-4,0.001876831,2.0,0.0,0.0,0.0,0.0,0.0,0.0,0.0,0.0,0.0,2017-10-18 22:02:30,22.403268962437856
0.0,0.0,0.0,0.0012969971,-0.0015563965,0.001876831,2.0,0.0,0.0,0.0,0.0,0.0,0.0,0.0,0.0,0.0,2017-10-18 22:02:31,26.894392833045675
0.0,0.0,0.0,7.6293945E-5,-3.3569336E-4,-5.645752E-4,2.0,0.0,0.0,0.0,0.0,0.0,0.0,0.0,0.0,0.0,2017-10-18 22:02:32,23.11763791456289
0.0,0.0,0.0,7.6293945E-5,-0.005218506,6.5612793E-4,2.0,0.0,0.0,0.0,0.0,0.0,0.0,0.0,0.0,0.0,2017-10-18 22:02:33,20.42630878504265
0.0,0.0,0.0,7.6293945E-5,-0.005218506,6.5612793E-4,2.0,0.0,0.0,0.0,0.0,0.0,0.0,0.0,0.0,0.0,2017-10-18 22:02:34,32.37290765856154
0.0,0.0,0.0,7.6293945E-5,-3.3569336E-4,0.001876831,2.0,0.0,0.0,0.0,0.0,0.0,0.0,0.0,0.0,0.0,2017-10-18 22:02:35,30.65817125446225
0.0,0.0,0.0,7.6293945E-5,8.8500977E-4,-5.645752E-4,2.0,0.0,0.0,0.0,0.0,0.0,0.0,0.0,0.0,0.0,2017-10-18 22:02:36,23.096434728128237
0.0,0.0,0.0,7.6293945E-5,-0.0015563965,-5.645752E-4,2.0,0.0,0.0,0.0,0.0,0.0,0.0,0.0,0.0,0.0,2017-10-18 22:02:37,27.926181902970416
0.0,0.0,0.0,7.6293945E-5,8.8500977E-4,6.5612793E-4,2.0,0.0,0.0,0.0,0.0,0.0,0.0,0.0,0.0,0.0,2017-10-18 22:02:38,32.58501095449069
0.0,0.0,0.0,-0.0023651123,-3.3569336E-4,-5.645752E-4,2.0,0.0,0.0,0.0,0.0,0.0,0.0,0.0,0.0,0.0,2017-10-18 22:02:39,29.860772034912276
0.0,0.0,0.0,-0.0011444092,-0.039413452,0.011642456,2.0,0.0,0.0,0.0,0.0,0.0,0.0,0.0,0.0,0.0,2017-10-18 22:02:40,25.309476992179896
0.0,0.0,0.0,7.6293945E-5,-0.0015563965,0.0030975342,2.0,0.0,0.0,0.0,0.0,0.0,0.0,0.0,0.0,0.0,2017-10-18 22:02:41,30.783746776953528
0.0,0.0,0.0,-0.0011444092,-0.0113220215,0.0055389404,2.0,0.0,0.0,0.0,0.0,0.0,0.0,0.0,0.0,0.0,2017-10-18 22:02:42,29.75462684830177
0.0,0.0,0.0,0.0037384033,-0.0039978027,0.0043182373,2.0,0.0,0.0,0.0,0.0,0.0,0.0,0.0,0.0,0.0,2017-10-18 22:02:43,21.723520376368775
0.0,0.0,0.0,0.0012969971,0.007003784,0.001876831,2.0,0.0,0.0,0.0,0.0,0.0,0.0,0.0,0.0,0.0,2017-10-18 22:02:44,29.838981997613985
0.0,0.0,0.0,7.6293945E-5,-0.0027770996,0.001876831,2.0,0.0,0.0,0.0,0.0,0.0,0.0,0.0,0.0,0.0,2017-10-18 22:02:45,31.583431708389057
0.0,0.0,0.0,-0.0011444092,-0.008880615,0.001876831,2.0,0.0,0.0,0.0,0.0,0.0,0.0,0.0,0.0,0.0,2017-10-18 22:02:46,33.0068242103006
0.0,0.0,0.0,7.6293945E-5,0.0021209717,-5.645752E-4,2.0,0.0,0.0,0.0,0.0,0.0,0.0,0.0,0.0,0.0,2017-10-18 22:02:47,29.24845212619983
0.0,0.0,0.0,7.6293945E-5,-0.0015563965,0.001876831,2.0,0.0,0.0,0.0,0.0,0.0,0.0,0.0,0.0,0.0,2017-10-18 22:02:48,25.43973032040009
0.0,0.0,0.0,-0.0011444092,-3.3569336E-4,0.001876831,2.0,0.0,0.0,0.0,0.0,0.0,0.0,0.0,0.0,0.0,2017-10-18 22:02:49,28.31098561015931
0.0,0.0,0.0,7.6293945E-5,8.8500977E-4,6.5612793E-4,2.0,0.0,0.0,0.0,0.0,0.0,0.0,0.0,0.0,0.0,2017-10-18 22:02:50,28.68000269186146
0.0,0.0,0.0,-0.0011444092,-0.0015563965,0.001876831,2.0,0.0,0.0,0.0,0.0,0.0,0.0,0.0,0.0,0.0,2017-10-18 22:02:51,24.598728864282727
0.0,0.0,0.0,-0.0011444092,-3.3569336E-4,0.001876831,2.0,0.0,0.0,0.0,0.0,0.0,0.0,0.0,0.0,0.0,2017-10-18 22:02:52,26.371596929379493
0.0,0.0,0.0,7.6293945E-5,0.004562378,-5.645752E-4,2.0,0.0,0.0,0.0,0.0,0.0,0.0,0.0,0.0,0.0,2017-10-18 22:02:53,30.896507054403312
0.0,0.0,0.0,-0.0011444092,0.0021209717,0.001876831,2.0,0.0,0.0,0.0,0.0,0.0,0.0,0.0,0.0,0.0,2017-10-18 22:02:54,29.154262192517603
0.0,0.0,0.0,7.6293945E-5,0.00944519,-0.0018005371,2.0,0.0,0.0,0.0,0.0,0.0,0.0,0.0,0.0,0.0,2017-10-18 22:02:55,26.18760435366967
0.0,0.0,0.0,7.6293945E-5,0.0021209717,-5.645752E-4,2.0,0.0,0.0,0.0,0.0,0.0,0.0,0.0,0.0,0.0,2017-10-18 22:02:56,26.826892962851765
0.0,0.0,0.0,-0.0011444092,-0.0015563965,-5.645752E-4,2.0,0.0,0.0,0.0,0.0,0.0,0.0,0.0,0.0,0.0,2017-10-18 22:02:57,24.357349029764507
0.0,0.0,0.0,-0.0011444092,-0.024765015,-0.0054473877,2.0,0.0,0.0,0.0,0.0,0.0,0.0,0.0,0.0,0.0,2017-10-18 22:02:58,21.315234314754466
0.0,0.0,0.0,7.6293945E-5,0.0021209717,0.001876831,2.0,0.0,0.0,0.0,0.0,0.0,0.0,0.0,0.0,0.0,2017-10-18 22:02:59,26.40147450908806
0.0,0.0,0.0,-0.0011444092,0.010650635,0.0030975342,2.0,0.0,0.0,0.0,0.0,0.0,0.0,0.0,0.0,0.0,2017-10-18 22:03:00,31.047356413421134
0.0,0.0,0.0,0.0012969971,0.0021209717,6.5612793E-4,2.0,0.0,0.0,0.0,0.0,0.0,0.0,0.0,0.0,0.0,2017-10-18 22:03:01,31.824204484580743
0.0,0.0,0.0,-0.0011444092,0.003326416,0.001876831,2.0,0.0,0.0,0.0,0.0,0.0,0.0,0.0,0.0,0.0,2017-10-18 22:03:02,27.948963128429526
0.0,0.0,0.0,-0.0011444092,8.8500977E-4,6.5612793E-4,2.0,0.0,0.0,0.0,0.0,0.0,0.0,0.0,0.0,0.0,2017-10-18 22:03:03,24.146234747422795
0.0,0.0,0.0,-0.0011444092,-0.0015563965,-0.0018005371,2.0,0.0,0.0,0.0,0.0,0.0,0.0,0.0,0.0,0.0,2017-10-18 22:03:04,24.401831764205646
0.0,0.0,0.0,-7.7819824E-4,-3.9672852E-4,9.3078613E-4,2.0,0.0,0.0,0.0,0.0,0.0,0.0,0.0,0.0,0.0,2017-10-18 22:03:05,22.389277605125756
0.0,0.0,0.0,-7.7819824E-4,0.008148193,0.0070495605,2.0,0.0,0.0,0.0,0.0,0.0,0.0,0.0,0.0,0.0,2017-10-18 22:03:07,25.16268815757842
0.0,0.0,0.0,0.001663208,8.239746E-4,9.3078613E-4,2.0,0.0,0.0,0.0,0.0,0.0,0.0,0.0,0.0,0.0,2017-10-18 22:03:08,31.58935141829918
0.0,0.0,0.0,4.4250488E-4,-0.004058838,9.3078613E-4,2.0,0.0,0.0,0.0,0.0,0.0,0.0,0.0,0.0,0.0,2017-10-18 22:03:09,30.993422956138716
0.0,0.0,0.0,-7.7819824E-4,-0.005279541,0.0021514893,2.0,0.0,0.0,0.0,0.0,0.0,0.0,0.0,0.0,0.0,2017-10-18 22:03:10,21.930767467670268
0.0,0.0,0.0,-7.7819824E-4,8.239746E-4,9.3078613E-4,2.0,0.0,0.0,0.0,0.0,0.0,0.0,0.0,0.0,0.0,2017-10-18 22:03:11,24.755735881927237
0.0,0.0,0.0,4.4250488E-4,-3.9672852E-4,9.3078613E-4,2.0,0.0,0.0,0.0,0.0,0.0,0.0,0.0,0.0,0.0,2017-10-18 22:03:12,26.948573674544377
0.0,0.0,0.0,-7.7819824E-4,0.008148193,9.3078613E-4,2.0,0.0,0.0,0.0,0.0,0.0,0.0,0.0,0.0,0.0,2017-10-18 22:03:13,29.544603560175734
0.0,0.0,0.0,4.4250488E-4,-0.0016174316,9.3078613E-4,2.0,0.0,0.0,0.0,0.0,0.0,0.0,0.0,0.0,0.0,2017-10-18 22:03:14,23.065757980718693
0.0,0.0,0.0,4.4250488E-4,8.239746E-4,-2.89917E-4,2.0,0.0,0.0,0.0,0.0,0.0,0.0,0.0,0.0,0.0,2017-10-18 22:03:15,25.99932513904256
0.0,0.0,0.0,4.4250488E-4,0.009384155,-0.0039520264,2.0,0.0,0.0,0.0,0.0,0.0,0.0,0.0,0.0,0.0,2017-10-18 22:03:16,23.65119286507248
0.0,0.0,0.0,-7.7819824E-4,-0.004058838,-2.89917E-4,2.0,0.0,0.0,0.0,0.0,0.0,0.0,0.0,0.0,0.0,2017-10-18 22:03:17,27.111716612333062
0.0,0.0,0.0,-0.0032196045,-0.011383057,0.0070495605,2.0,0.0,0.0,0.0,0.0,0.0,0.0,0.0,0.0,0.0,2017-10-18 22:03:18,28.61059982292147
0.0,0.0,0.0,0.001663208,0.009384155,-0.002746582,2.0,0.0,0.0,0.0,0.0,0.0,0.0,0.0,0.0,0.0,2017-10-18 22:03:19,30.421538837127017
0.0,0.0,0.0,4.4250488E-4,-0.004058838,-2.89917E-4,2.0,0.0,0.0,0.0,0.0,0.0,0.0,0.0,0.0,0.0,2017-10-18 22:03:20,25.656560022617242
0.0,0.0,0.0,4.4250488E-4,-0.0016174316,-2.89917E-4,2.0,0.0,0.0,0.0,0.0,0.0,0.0,0.0,0.0,0.0,2017-10-18 22:03:21,27.38543979899317
0.0,0.0,0.0,4.4250488E-4,-0.0028381348,9.3078613E-4,2.0,0.0,0.0,0.0,0.0,0.0,0.0,0.0,0.0,0.0,2017-10-18 22:03:22,33.03443451072595
0.0,0.0,0.0,-0.0056610107,-0.028503418,0.02658081,2.0,0.0,0.0,0.0,0.0,0.0,0.0,0.0,0.0,0.0,2017-10-18 22:03:23,29.125740804028034
0.0,0.0,0.0,4.4250488E-4,-0.011383057,-2.89917E-4,2.0,0.0,0.0,0.0,0.0,0.0,0.0,0.0,0.0,0.0,2017-10-18 22:03:24,29.13239986216839
0.0,0.0,0.0,-7.7819824E-4,0.005706787,0.0021514893,2.0,0.0,0.0,0.0,0.0,0.0,0.0,0.0,0.0,0.0,2017-10-18 22:03:25,31.860920227301044
0.0,0.0,0.0,-0.0044403076,0.006942749,-0.002746582,2.0,0.0,0.0,0.0,0.0,0.0,0.0,0.0,0.0,0.0,2017-10-18 22:03:26,31.811434562077796
0.0,0.0,0.0,4.4250488E-4,0.006942749,-2.89917E-4,2.0,0.0,0.0,0.0,0.0,0.0,0.0,0.0,0.0,0.0,2017-10-18 22:03:27,23.266910126037207
0.0,0.0,0.0,-7.7819824E-4,-0.0016174316,-0.0039520264,2.0,0.0,0.0,0.0,0.0,0.0,0.0,0.0,0.0,0.0,2017-10-18 22:03:28,20.98340825254455
0.0,0.0,0.0,4.4250488E-4,-0.005279541,9.3078613E-4,2.0,0.0,0.0,0.0,0.0,0.0,0.0,0.0,0.0,0.0,2017-10-18 22:03:29,28.763261119551238
0.0,0.0,0.0,-7.7819824E-4,-0.006500244,0.0045928955,2.0,0.0,0.0,0.0,0.0,0.0,0.0,0.0,0.0,0.0,2017-10-18 22:03:30,28.66753327758222
0.0,0.0,0.0,-0.0032196045,-0.011383057,-2.89917E-4,2.0,0.0,0.0,0.0,0.0,0.0,0.0,0.0,0.0,0.0,2017-10-18 22:03:31,27.313898022710056
0.0,0.0,0.0,-0.0129852295,0.021591187,-0.0051879883,2.0,0.0,0.0,0.0,0.0,0.0,0.0,0.0,0.0,0.0,2017-10-18 22:03:32,62.67121677848466
0.0,0.0,0.0,0.00289917,-0.0028381348,-2.89917E-4,2.0,0.0,0.0,0.0,0.0,0.0,0.0,0.0,0.0,0.0,2017-10-18 22:03:33,62.64982143393362
0.0,0.0,0.0,-7.7819824E-4,0.0032653809,-0.002746582,2.0,0.0,0.0,0.0,0.0,0.0,0.0,0.0,0.0,0.0,2017-10-18 22:03:34,51.243223952462316
0.0,0.0,0.0,0.001663208,0.0105896,-0.0015106201,2.0,0.0,0.0,0.0,0.0,0.0,0.0,0.0,0.0,0.0,2017-10-18 22:03:35,34.96785478834296
0.0,0.0,0.0,4.4250488E-4,0.004501343,-2.89917E-4,2.0,0.0,0.0,0.0,0.0,0.0,0.0,0.0,0.0,0.0,2017-10-18 22:03:36,34.60578391118825
0.0,0.0,0.0,-0.0019989014,-0.019943237,0.009490967,2.0,0.0,0.0,0.0,0.0,0.0,0.0,0.0,0.0,0.0,2017-10-18 22:03:37,28.6163147408767
0.0,0.0,0.0,-0.0019989014,0.0020599365,0.0021514893,2.0,0.0,0.0,0.0,0.0,0.0,0.0,0.0,0.0,0.0,2017-10-18 22:03:38,31.209423699805892
0.0,0.0,0.0,4.4250488E-4,0.004501343,0.0033721924,2.0,0.0,0.0,0.0,0.0,0.0,0.0,0.0,0.0,0.0,2017-10-18 22:03:39,34.87324670128379
0.0,0.0,0.0,-7.7819824E-4,8.239746E-4,9.3078613E-4,2.0,0.0,0.0,0.0,0.0,0.0,0.0,0.0,0.0,0.0,2017-10-18 22:03:40,30.809802891640906
0.0,0.0,0.0,-7.7819824E-4,-0.0016174316,-0.002746582,2.0,0.0,0.0,0.0,0.0,0.0,0.0,0.0,0.0,0.0,2017-10-18 22:03:41,37.03183731771462
0.0,0.0,0.0,4.4250488E-4,-3.9672852E-4,9.3078613E-4,2.0,0.0,0.0,0.0,0.0,0.0,0.0,0.0,0.0,0.0,2017-10-18 22:03:42,44.47705788667272
0.0,0.0,0.0,-7.7819824E-4,-0.005279541,9.3078613E-4,2.0,0.0,0.0,0.0,0.0,0.0,0.0,0.0,0.0,0.0,2017-10-18 22:03:43,42.81798995780558
0.0,0.0,0.0,4.4250488E-4,0.005706787,0.0033721924,2.0,0.0,0.0,0.0,0.0,0.0,0.0,0.0,0.0,0.0,2017-10-18 22:03:44,30.546369898806507
0.0,0.0,0.0,-0.0019989014,-0.006500244,-0.0015106201,2.0,0.0,0.0,0.0,0.0,0.0,0.0,0.0,0.0,0.0,2017-10-18 22:03:45,29.11745872341335
0.0,0.0,0.0,-7.7819824E-4,-0.0016174316,-2.89917E-4,2.0,0.0,0.0,0.0,0.0,0.0,0.0,0.0,0.0,0.0,2017-10-18 22:03:46,29.910376928465176
0.0,0.0,0.0,-7.7819824E-4,0.004501343,-2.89917E-4,2.0,0.0,0.0,0.0,0.0,0.0,0.0,0.0,0.0,0.0,2017-10-18 22:03:47,33.24874767974
0.0,0.0,0.0,0.001663208,8.239746E-4,-2.89917E-4,2.0,0.0,0.0,0.0,0.0,0.0,0.0,0.0,0.0,0.0,2017-10-18 22:03:48,35.361781500879225
0.0,0.0,0.0,0.001663208,0.0032653809,0.0033721924,2.0,0.0,0.0,0.0,0.0,0.0,0.0,0.0,0.0,0.0,2017-10-18 22:03:49,28.268701454910858
0.0,0.0,0.0,4.4250488E-4,-0.0016174316,-2.89917E-4,2.0,0.0,0.0,0.0,0.0,0.0,0.0,0.0,0.0,0.0,2017-10-18 22:03:50,31.541295185899976
0.0,0.0,0.0,0.001663208,-0.0016174316,-0.0015106201,2.0,0.0,0.0,0.0,0.0,0.0,0.0,0.0,0.0,0.0,2017-10-18 22:03:51,34.013202879829066
0.0,0.0,0.0,4.4250488E-4,-0.0028381348,-0.002746582,2.0,0.0,0.0,0.0,0.0,0.0,0.0,0.0,0.0,0.0,2017-10-18 22:03:52,23.384066863355667
0.0,0.0,0.0,-0.0032196045,-0.004058838,-0.0015106201,2.0,0.0,0.0,0.0,0.0,0.0,0.0,0.0,0.0,0.0,2017-10-18 22:03:53,23.886145570017362
0.0,0.0,0.0,4.4250488E-4,-0.0028381348,-0.0015106201,2.0,0.0,0.0,0.0,0.0,0.0,0.0,0.0,0.0,0.0,2017-10-18 22:03:55,26.6648141731709
0.0,0.0,0.0,4.4250488E-4,0.004501343,0.0045928955,2.0,0.0,0.0,0.0,0.0,0.0,0.0,0.0,0.0,0.0,2017-10-18 22:03:56,25.827644750189055
0.0,0.0,0.0,4.4250488E-4,-0.0016174316,-0.0015106201,2.0,0.0,0.0,0.0,0.0,0.0,0.0,0.0,0.0,0.0,2017-10-18 22:03:57,27.651060008330326
0.0,0.0,0.0,0.00289917,0.006942749,0.0021514893,2.0,0.0,0.0,0.0,0.0,0.0,0.0,0.0,0.0,0.0,2017-10-18 22:03:58,19.453069871832007
0.0,0.0,0.0,4.4250488E-4,0.0020599365,-2.89917E-4,2.0,0.0,0.0,0.0,0.0,0.0,0.0,0.0,0.0,0.0,2017-10-18 22:03:59,30.783690122703828
0.0,0.0,0.0,0.001663208,-3.9672852E-4,9.3078613E-4,2.0,0.0,0.0,0.0,0.0,0.0,0.0,0.0,0.0,0.0,2017-10-18 22:04:00,39.79041914754547
0.0,0.0,0.0,-0.0032196045,-0.017501831,0.0058135986,2.0,0.0,0.0,0.0,0.0,0.0,0.0,0.0,0.0,0.0,2017-10-18 22:04:01,49.03010398628865
0.0,0.0,0.0,4.4250488E-4,-0.004058838,9.3078613E-4,2.0,0.0,0.0,0.0,0.0,0.0,0.0,0.0,0.0,0.0,2017-10-18 22:04:02,26.621540614957375
0.0,0.0,0.0,-7.7819824E-4,0.0020599365,-2.89917E-4,2.0,0.0,0.0,0.0,0.0,0.0,0.0,0.0,0.0,0.0,2017-10-18 22:04:03,34.21173428912311
0.0,0.0,0.0,-7.7819824E-4,8.239746E-4,0.0033721924,2.0,0.0,0.0,0.0,0.0,0.0,0.0,0.0,0.0,0.0,2017-10-18 22:04:04,36.38393464490106
0.0,0.0,0.0,4.4250488E-4,-0.0028381348,-0.002746582,2.0,0.0,0.0,0.0,0.0,0.0,0.0,0.0,0.0,0.0,2017-10-18 22:04:05,30.40280232668101
0.0,0.0,0.0,2.746582E-4,0.0028381348,-0.0018157959,2.0,0.0,0.0,0.0,0.0,0.0,0.0,0.0,0.0,0.0,2017-10-18 22:04:06,33.05205213900335
0.0,0.0,0.0,-9.460449E-4,-0.008163452,0.0042877197,2.0,0.0,0.0,0.0,0.0,0.0,0.0,0.0,0.0,0.0,2017-10-18 22:04:07,30.01445691761075
0.0,0.0,0.0,0.0039367676,0.0064849854,-5.950928E-4,2.0,0.0,0.0,0.0,0.0,0.0,0.0,0.0,0.0,0.0,2017-10-18 22:04:08,32.63382680889003
0.0,0.0,0.0,-0.002166748,0.0016021729,-0.0066986084,2.0,0.0,0.0,0.0,0.0,0.0,0.0,0.0,0.0,0.0,2017-10-18 22:04:09,33.9963046290419
0.0,0.0,0.0,0.0051727295,0.0077209473,-0.0030517578,2.0,0.0,0.0,0.0,0.0,0.0,0.0,0.0,0.0,0.0,2017-10-18 22:04:10,30.487706532012638
0.0,0.0,0.0,-9.460449E-4,-0.013046265,-5.950928E-4,2.0,0.0,0.0,0.0,0.0,0.0,0.0,0.0,0.0,0.0,2017-10-18 22:04:11,26.530888428785953
0.0,0.0,0.0,0.0014953613,0.0016021729,0.0018463135,2.0,0.0,0.0,0.0,0.0,0.0,0.0,0.0,0.0,0.0,2017-10-18 22:04:12,33.89893084973639
0.0,0.0,0.0,-9.460449E-4,3.8146973E-4,-5.950928E-4,2.0,0.0,0.0,0.0,0.0,0.0,0.0,0.0,0.0,0.0,2017-10-18 22:04:13,20.730650431364154
0.0,0.0,0.0,2.746582E-4,0.0016021729,-5.950928E-4,2.0,0.0,0.0,0.0,0.0,0.0,0.0,0.0,0.0,0.0,2017-10-18 22:04:14,24.92059419047751
0.0,0.0,0.0,2.746582E-4,-0.0020599365,0.0018463135,2.0,0.0,0.0,0.0,0.0,0.0,0.0,0.0,0.0,0.0,2017-10-18 22:04:15,29.702400622244873
0.0,0.0,0.0,2.746582E-4,3.8146973E-4,0.0018463135,2.0,0.0,0.0,0.0,0.0,0.0,0.0,0.0,0.0,0.0,2017-10-18 22:04:16,26.46625779702086
0.0,0.0,0.0,2.746582E-4,-0.010604858,0.0067443848,2.0,0.0,0.0,0.0,0.0,0.0,0.0,0.0,0.0,0.0,2017-10-18 22:04:17,29.929040591776385
0.0,0.0,0.0,-9.460449E-4,0.0016021729,-5.950928E-4,2.0,0.0,0.0,0.0,0.0,0.0,0.0,0.0,0.0,0.0,2017-10-18 22:04:18,29.262885745598986
0.0,0.0,0.0,2.746582E-4,0.004043579,6.2561035E-4,2.0,0.0,0.0,0.0,0.0,0.0,0.0,0.0,0.0,0.0,2017-10-18 22:04:19,29.328723297702616
0.0,0.0,0.0,2.746582E-4,0.0064849854,-0.0018157959,2.0,0.0,0.0,0.0,0.0,0.0,0.0,0.0,0.0,0.0,2017-10-18 22:04:20,22.76282247184742
0.0,0.0,0.0,-9.460449E-4,3.8146973E-4,0.0042877197,2.0,0.0,0.0,0.0,0.0,0.0,0.0,0.0,0.0,0.0,2017-10-18 22:04:21,24.467288566127763
0.0,0.0,0.0,-9.460449E-4,-8.392334E-4,-5.950928E-4,2.0,0.0,0.0,0.0,0.0,0.0,0.0,0.0,0.0,0.0,2017-10-18 22:04:22,28.900322085378054
0.0,0.0,0.0,-9.460449E-4,0.0028381348,-0.0030517578,2.0,0.0,0.0,0.0,0.0,0.0,0.0,0.0,0.0,0.0,2017-10-18 22:04:23,31.514660961879407
0.0,0.0,0.0,2.746582E-4,0.005279541,0.0030670166,2.0,0.0,0.0,0.0,0.0,0.0,0.0,0.0,0.0,0.0,2017-10-18 22:04:24,28.829618850137297
0.0,0.0,0.0,2.746582E-4,0.0016021729,-0.0018157959,2.0,0.0,0.0,0.0,0.0,0.0,0.0,0.0,0.0,0.0,2017-10-18 22:04:25,26.30329333921512
0.0,0.0,0.0,-9.460449E-4,-0.005722046,0.0018463135,2.0,0.0,0.0,0.0,0.0,0.0,0.0,0.0,0.0,0.0,2017-10-18 22:04:26,23.737938428094743
0.0,0.0,0.0,0.0014953613,0.0016021729,-0.0018157959,2.0,0.0,0.0,0.0,0.0,0.0,0.0,0.0,0.0,0.0,2017-10-18 22:04:27,29.015374966338797
0.0,0.0,0.0,-9.460449E-4,-0.008163452,6.2561035E-4,2.0,0.0,0.0,0.0,0.0,0.0,0.0,0.0,0.0,0.0,2017-10-18 22:04:28,26.050507127400028
0.0,0.0,0.0,-9.460449E-4,-0.005722046,-5.950928E-4,2.0,0.0,0.0,0.0,0.0,0.0,0.0,0.0,0.0,0.0,2017-10-18 22:04:29,26.685853690859812
0.0,0.0,0.0,2.746582E-4,3.8146973E-4,-5.950928E-4,2.0,0.0,0.0,0.0,0.0,0.0,0.0,0.0,0.0,0.0,2017-10-18 22:04:30,30.223407198173234
0.0,0.0,0.0,-9.460449E-4,0.0016021729,6.2561035E-4,2.0,0.0,0.0,0.0,0.0,0.0,0.0,0.0,0.0,0.0,2017-10-18 22:04:31,28.995760062289282
0.0,0.0,0.0,-9.460449E-4,3.8146973E-4,6.2561035E-4,2.0,0.0,0.0,0.0,0.0,0.0,0.0,0.0,0.0,0.0,2017-10-18 22:04:32,26.855136181319153
0.0,0.0,0.0,2.746582E-4,0.005279541,-0.0018157959,2.0,0.0,0.0,0.0,0.0,0.0,0.0,0.0,0.0,0.0,2017-10-18 22:04:33,20.096566800993028
0.0,0.0,0.0,2.746582E-4,3.8146973E-4,6.2561035E-4,2.0,0.0,0.0,0.0,0.0,0.0,0.0,0.0,0.0,0.0,2017-10-18 22:04:34,33.1260440371324
0.0,0.0,0.0,-9.460449E-4,-0.0032806396,-0.004257202,2.0,0.0,0.0,0.0,0.0,0.0,0.0,0.0,0.0,0.0,2017-10-18 22:04:35,41.699160955452285
0.0,0.0,0.0,2.746582E-4,3.8146973E-4,-5.950928E-4,2.0,0.0,0.0,0.0,0.0,0.0,0.0,0.0,0.0,0.0,2017-10-18 22:04:36,27.25703670150964
0.0,0.0,0.0,2.746582E-4,0.0016021729,-5.950928E-4,2.0,0.0,0.0,0.0,0.0,0.0,0.0,0.0,0.0,0.0,2017-10-18 22:04:37,28.316898469947034
0.0,0.0,0.0,2.746582E-4,-8.392334E-4,-5.950928E-4,2.0,0.0,0.0,0.0,0.0,0.0,0.0,0.0,0.0,0.0,2017-10-18 22:04:38,34.6139909588046
0.0,0.0,0.0,2.746582E-4,3.8146973E-4,6.2561035E-4,2.0,0.0,0.0,0.0,0.0,0.0,0.0,0.0,0.0,0.0,2017-10-18 22:04:39,29.519541833634577
0.0,0.0,0.0,2.746582E-4,-8.392334E-4,-5.950928E-4,2.0,0.0,0.0,0.0,0.0,0.0,0.0,0.0,0.0,0.0,2017-10-18 22:04:40,33.1167242320536
0.0,0.0,0.0,-9.460449E-4,-8.392334E-4,-5.950928E-4,2.0,0.0,0.0,0.0,0.0,0.0,0.0,0.0,0.0,0.0,2017-10-18 22:04:41,31.741879609559152
0.0,0.0,0.0,2.746582E-4,0.0028381348,6.2561035E-4,2.0,0.0,0.0,0.0,0.0,0.0,0.0,0.0,0.0,0.0,2017-10-18 22:04:43,32.40919192562132
0.0,0.0,0.0,2.746582E-4,-8.392334E-4,-5.950928E-4,2.0,0.0,0.0,0.0,0.0,0.0,0.0,0.0,0.0,0.0,2017-10-18 22:04:44,27.852508449686397
0.0,0.0,0.0,2.746582E-4,3.8146973E-4,6.2561035E-4,2.0,0.0,0.0,0.0,0.0,0.0,0.0,0.0,0.0,0.0,2017-10-18 22:04:45,27.705609276109872
0.0,0.0,0.0,2.746582E-4,3.8146973E-4,-0.0018157959,2.0,0.0,0.0,0.0,0.0,0.0,0.0,0.0,0.0,0.0,2017-10-18 22:04:46,30.98316475858023
0.0,0.0,0.0,2.746582E-4,0.0016021729,6.2561035E-4,2.0,0.0,0.0,0.0,0.0,0.0,0.0,0.0,0.0,0.0,2017-10-18 22:04:47,30.113510208318846
0.0,0.0,0.0,2.746582E-4,3.8146973E-4,-5.950928E-4,2.0,0.0,0.0,0.0,0.0,0.0,0.0,0.0,0.0,0.0,2017-10-18 22:04:48,29.146414337546368
0.0,0.0,0.0,2.746582E-4,0.0028381348,-5.950928E-4,2.0,0.0,0.0,0.0,0.0,0.0,0.0,0.0,0.0,0.0,2017-10-18 22:04:49,36.31113705384541
0.0,0.0,0.0,-0.002166748,-0.008163452,6.2561035E-4,2.0,0.0,0.0,0.0,0.0,0.0,0.0,0.0,0.0,0.0,2017-10-18 22:04:50,22.263179088732233
0.0,0.0,0.0,2.746582E-4,-0.0020599365,6.2561035E-4,2.0,0.0,0.0,0.0,0.0,0.0,0.0,0.0,0.0,0.0,2017-10-18 22:04:51,29.34790302573247
0.0,0.0,0.0,2.746582E-4,3.8146973E-4,6.2561035E-4,2.0,0.0,0.0,0.0,0.0,0.0,0.0,0.0,0.0,0.0,2017-10-18 22:04:52,28.56730777959109
0.0,0.0,0.0,-0.002166748,-0.0020599365,-0.0018157959,2.0,0.0,0.0,0.0,0.0,0.0,0.0,0.0,0.0,0.0,2017-10-18 22:04:53,20.014429864326885
0.0,0.0,0.0,-0.002166748,-0.041152954,0.0018463135,2.0,0.0,0.0,0.0,0.0,0.0,0.0,0.0,0.0,0.0,2017-10-18 22:04:54,22.581581933407943
0.0,0.0,0.0,2.746582E-4,-0.004501343,6.2561035E-4,2.0,0.0,0.0,0.0,0.0,0.0,0.0,0.0,0.0,0.0,2017-10-18 22:04:55,29.444024683205427
0.0,0.0,0.0,2.746582E-4,-8.392334E-4,0.0018463135,2.0,0.0,0.0,0.0,0.0,0.0,0.0,0.0,0.0,0.0,2017-10-18 22:04:56,24.82837867133393
0.0,0.0,0.0,2.746582E-4,-0.0020599365,6.2561035E-4,2.0,0.0,0.0,0.0,0.0,0.0,0.0,0.0,0.0,0.0,2017-10-18 22:04:57,36.64969100736719
0.0,0.0,0.0,-9.460449E-4,-8.392334E-4,-5.950928E-4,2.0,0.0,0.0,0.0,0.0,0.0,0.0,0.0,0.0,0.0,2017-10-18 22:04:58,36.08200157056407
0.0,0.0,0.0,2.746582E-4,-8.392334E-4,-0.0018157959,2.0,0.0,0.0,0.0,0.0,0.0,0.0,0.0,0.0,0.0,2017-10-18 22:04:59,24.781898415571114
0.0,0.0,0.0,-0.002166748,-0.0020599365,6.2561035E-4,2.0,0.0,0.0,0.0,0.0,0.0,0.0,0.0,0.0,0.0,2017-10-18 22:05:00,23.60256060670868
0.0,0.0,0.0,2.746582E-4,3.8146973E-4,-0.0018157959,2.0,0.0,0.0,0.0,0.0,0.0,0.0,0.0,0.0,0.0,2017-10-18 22:05:01,26.2634197159224
0.0,0.0,0.0,2.746582E-4,3.8146973E-4,-0.0018157959,2.0,0.0,0.0,0.0,0.0,0.0,0.0,0.0,0.0,0.0,2017-10-18 22:05:02,27.350434520364853
0.0,0.0,0.0,2.746582E-4,3.8146973E-4,-0.0018157959,2.0,0.0,0.0,0.0,0.0,0.0,0.0,0.0,0.0,0.0,2017-10-18 22:05:03,27.423175436065378
0.0,0.0,0.0,2.746582E-4,-0.0020599365,6.2561035E-4,2.0,0.0,0.0,0.0,0.0,0.0,0.0,0.0,0.0,0.0,2017-10-18 22:05:04,32.50914554041998
0.0,0.0,0.0,-9.460449E-4,0.0028381348,-0.0018157959,2.0,0.0,0.0,0.0,0.0,0.0,0.0,0.0,0.0,0.0,2017-10-18 22:05:05,21.870886791077574
0.0,0.0,0.0,2.746582E-4,-0.011154175,-3.8146973E-4,2.0,0.0,0.0,0.0,0.0,0.0,0.0,0.0,0.0,0.0,2017-10-18 22:05:06,25.639073094513126
0.0,0.0,0.0,2.746582E-4,-1.6784668E-4,-3.8146973E-4,2.0,0.0,0.0,0.0,0.0,0.0,0.0,0.0,0.0,0.0,2017-10-18 22:05:07,28.779820029563872
0.0,0.0,0.0,2.746582E-4,-0.002609253,-0.0016174316,2.0,0.0,0.0,0.0,0.0,0.0,0.0,0.0,0.0,0.0,2017-10-18 22:05:08,30.973001598776673
0.0,0.0,0.0,0.0014953613,-0.0013885498,-0.004058838,2.0,0.0,0.0,0.0,0.0,0.0,0.0,0.0,0.0,0.0,2017-10-18 22:05:09,27.44675512164988
0.0,0.0,0.0,2.746582E-4,-0.003829956,8.392334E-4,2.0,0.0,0.0,0.0,0.0,0.0,0.0,0.0,0.0,0.0,2017-10-18 22:05:10,32.2502482910913
0.0,0.0,0.0,-9.460449E-4,-0.003829956,8.392334E-4,2.0,0.0,0.0,0.0,0.0,0.0,0.0,0.0,0.0,0.0,2017-10-18 22:05:11,38.63688398557649
0.0,0.0,0.0,2.746582E-4,-0.0013885498,-0.002822876,2.0,0.0,0.0,0.0,0.0,0.0,0.0,0.0,0.0,0.0,2017-10-18 22:05:12,31.869064755686377
0.0,0.0,0.0,-9.460449E-4,-1.6784668E-4,8.392334E-4,2.0,0.0,0.0,0.0,0.0,0.0,0.0,0.0,0.0,0.0,2017-10-18 22:05:13,29.172420368720523
0.0,0.0,0.0,0.0039367676,-1.6784668E-4,8.392334E-4,2.0,0.0,0.0,0.0,0.0,0.0,0.0,0.0,0.0,0.0,2017-10-18 22:05:14,22.249577293214884
0.0,0.0,0.0,2.746582E-4,-1.6784668E-4,-0.0016174316,2.0,0.0,0.0,0.0,0.0,0.0,0.0,0.0,0.0,0.0,2017-10-18 22:05:15,22.13990641375309
0.0,0.0,0.0,2.746582E-4,-1.6784668E-4,-3.8146973E-4,2.0,0.0,0.0,0.0,0.0,0.0,0.0,0.0,0.0,0.0,2017-10-18 22:05:16,27.76396962386184
0.0,0.0,0.0,2.746582E-4,-1.6784668E-4,-0.0016174316,2.0,0.0,0.0,0.0,0.0,0.0,0.0,0.0,0.0,0.0,2017-10-18 22:05:17,40.85954270188512
0.0,0.0,0.0,-0.002166748,-0.0013885498,-3.8146973E-4,2.0,0.0,0.0,0.0,0.0,0.0,0.0,0.0,0.0,0.0,2017-10-18 22:05:18,68.53904719327095
0.0,0.0,0.0,2.746582E-4,-0.005050659,8.392334E-4,2.0,0.0,0.0,0.0,0.0,0.0,0.0,0.0,0.0,0.0,2017-10-18 22:05:19,27.723331691582743
0.0,0.0,0.0,0.0014953613,-1.6784668E-4,-0.0016174316,2.0,0.0,0.0,0.0,0.0,0.0,0.0,0.0,0.0,0.0,2017-10-18 22:05:20,21.924803348267147
0.0,0.0,0.0,2.746582E-4,-0.0013885498,8.392334E-4,2.0,0.0,0.0,0.0,0.0,0.0,0.0,0.0,0.0,0.0,2017-10-18 22:05:21,24.508310501709914
0.0,0.0,0.0,-9.460449E-4,-0.002609253,8.392334E-4,2.0,0.0,0.0,0.0,0.0,0.0,0.0,0.0,0.0,0.0,2017-10-18 22:05:22,27.73635622100045
0.0,0.0,0.0,2.746582E-4,0.0034942627,8.392334E-4,2.0,0.0,0.0,0.0,0.0,0.0,0.0,0.0,0.0,0.0,2017-10-18 22:05:23,21.0305502938442
0.0,0.0,0.0,-9.460449E-4,0.0034942627,0.0020599365,2.0,0.0,0.0,0.0,0.0,0.0,0.0,0.0,0.0,0.0,2017-10-18 22:05:24,26.964874437507437
0.0,0.0,0.0,2.746582E-4,0.0022888184,8.392334E-4,2.0,0.0,0.0,0.0,0.0,0.0,0.0,0.0,0.0,0.0,2017-10-18 22:05:25,28.38872693056867
0.0,0.0,0.0,-9.460449E-4,-0.003829956,8.392334E-4,2.0,0.0,0.0,0.0,0.0,0.0,0.0,0.0,0.0,0.0,2017-10-18 22:05:26,21.359223727458357
0.0,0.0,0.0,0.0014953613,-0.0013885498,8.392334E-4,2.0,0.0,0.0,0.0,0.0,0.0,0.0,0.0,0.0,0.0,2017-10-18 22:05:27,27.45025969764019
0.0,0.0,0.0,-0.002166748,-0.0013885498,8.392334E-4,2.0,0.0,0.0,0.0,0.0,0.0,0.0,0.0,0.0,0.0,2017-10-18 22:05:28,34.02008418259953
0.0,0.0,0.0,-9.460449E-4,-1.6784668E-4,-3.8146973E-4,2.0,0.0,0.0,0.0,0.0,0.0,0.0,0.0,0.0,0.0,2017-10-18 22:05:29,32.35025134418346
0.0,0.0,0.0,-9.460449E-4,-0.0013885498,-3.8146973E-4,2.0,0.0,0.0,0.0,0.0,0.0,0.0,0.0,0.0,0.0,2017-10-18 22:05:31,31.48541924902426
0.0,0.0,0.0,2.746582E-4,0.0010528564,8.392334E-4,2.0,0.0,0.0,0.0,0.0,0.0,0.0,0.0,0.0,0.0,2017-10-18 22:05:32,26.401567749347823
0.0,0.0,0.0,2.746582E-4,0.0010528564,8.392334E-4,2.0,0.0,0.0,0.0,0.0,0.0,0.0,0.0,0.0,0.0,2017-10-18 22:05:33,30.286621024341432
0.0,0.0,0.0,2.746582E-4,0.0010528564,0.0032806396,2.0,0.0,0.0,0.0,0.0,0.0,0.0,0.0,0.0,0.0,2017-10-18 22:05:34,33.54974722310229
0.0,0.0,0.0,-0.002166748,-0.0013885498,8.392334E-4,2.0,0.0,0.0,0.0,0.0,0.0,0.0,0.0,0.0,0.0,2017-10-18 22:05:35,23.85047407890123
0.0,0.0,0.0,2.746582E-4,-0.005050659,-3.8146973E-4,2.0,0.0,0.0,0.0,0.0,0.0,0.0,0.0,0.0,0.0,2017-10-18 22:05:36,24.36671908600291
0.0,0.0,0.0,2.746582E-4,-0.008712769,8.392334E-4,2.0,0.0,0.0,0.0,0.0,0.0,0.0,0.0,0.0,0.0,2017-10-18 22:05:37,32.953454295229015
0.0,0.0,0.0,2.746582E-4,-0.0013885498,0.0020599365,2.0,0.0,0.0,0.0,0.0,0.0,0.0,0.0,0.0,0.0,2017-10-18 22:05:38,25.465580855935745
0.0,0.0,0.0,-9.460449E-4,-0.002609253,8.392334E-4,2.0,0.0,0.0,0.0,0.0,0.0,0.0,0.0,0.0,0.0,2017-10-18 22:05:39,30.14175859276947
0.0,0.0,0.0,0.0014953613,-0.002609253,8.392334E-4,2.0,0.0,0.0,0.0,0.0,0.0,0.0,0.0,0.0,0.0,2017-10-18 22:05:40,29.600216237574454
0.0,0.0,0.0,2.746582E-4,-0.0013885498,0.0020599365,2.0,0.0,0.0,0.0,0.0,0.0,0.0,0.0,0.0,0.0,2017-10-18 22:05:41,31.86807621327567
0.0,0.0,0.0,2.746582E-4,-0.0013885498,8.392334E-4,2.0,0.0,0.0,0.0,0.0,0.0,0.0,0.0,0.0,0.0,2017-10-18 22:05:42,21.17400777330467
0.0,0.0,0.0,-9.460449E-4,-1.6784668E-4,-3.8146973E-4,2.0,0.0,0.0,0.0,0.0,0.0,0.0,0.0,0.0,0.0,2017-10-18 22:05:43,31.7008653174376
0.0,0.0,0.0,0.0014953613,-0.0062713623,0.0020599365,2.0,0.0,0.0,0.0,0.0,0.0,0.0,0.0,0.0,0.0,2017-10-18 22:05:44,25.42514216281654
0.0,0.0,0.0,-9.460449E-4,-0.0013885498,0.0020599365,2.0,0.0,0.0,0.0,0.0,0.0,0.0,0.0,0.0,0.0,2017-10-18 22:05:45,27.912958158864903
0.0,0.0,0.0,-9.460449E-4,-0.005050659,8.392334E-4,2.0,0.0,0.0,0.0,0.0,0.0,0.0,0.0,0.0,0.0,2017-10-18 22:05:46,21.237699989926178
0.0,0.0,0.0,2.746582E-4,-1.6784668E-4,0.0020599365,2.0,0.0,0.0,0.0,0.0,0.0,0.0,0.0,0.0,0.0,2017-10-18 22:05:47,21.983305561954396
0.0,0.0,0.0,2.746582E-4,0.0010528564,0.0020599365,2.0,0.0,0.0,0.0,0.0,0.0,0.0,0.0,0.0,0.0,2017-10-18 22:05:48,30.561995027263016
0.0,0.0,0.0,2.746582E-4,-0.0013885498,0.0020599365,2.0,0.0,0.0,0.0,0.0,0.0,0.0,0.0,0.0,0.0,2017-10-18 22:05:49,31.94903540884562
0.0,0.0,0.0,2.746582E-4,-1.6784668E-4,0.0020599365,2.0,0.0,0.0,0.0,0.0,0.0,0.0,0.0,0.0,0.0,2017-10-18 22:05:50,20.98886975058698
0.0,0.0,0.0,-9.460449E-4,-1.6784668E-4,0.0020599365,2.0,0.0,0.0,0.0,0.0,0.0,0.0,0.0,0.0,0.0,2017-10-18 22:05:51,24.3727727670567
0.0,0.0,0.0,-0.002166748,-0.011154175,0.006942749,2.0,0.0,0.0,0.0,0.0,0.0,0.0,0.0,0.0,0.0,2017-10-18 22:05:52,30.57928070455231
0.0,0.0,0.0,2.746582E-4,-0.003829956,0.0020599365,2.0,0.0,0.0,0.0,0.0,0.0,0.0,0.0,0.0,0.0,2017-10-18 22:05:53,26.15175478536059
0.0,0.0,0.0,2.746582E-4,-0.002609253,8.392334E-4,2.0,0.0,0.0,0.0,0.0,0.0,0.0,0.0,0.0,0.0,2017-10-18 22:05:54,23.321764154538556
0.0,0.0,0.0,-9.460449E-4,-0.007507324,0.016708374,2.0,0.0,0.0,0.0,0.0,0.0,0.0,0.0,0.0,0.0,2017-10-18 22:05:55,25.996153064666725
0.0,0.0,0.0,2.746582E-4,0.0022888184,0.0020599365,2.0,0.0,0.0,0.0,0.0,0.0,0.0,0.0,0.0,0.0,2017-10-18 22:05:56,29.92352588070296
0.0,0.0,0.0,2.746582E-4,0.0010528564,-3.8146973E-4,2.0,0.0,0.0,0.0,0.0,0.0,0.0,0.0,0.0,0.0,2017-10-18 22:05:57,31.276321539542266
0.0,0.0,0.0,2.746582E-4,0.0010528564,0.0020599365,2.0,0.0,0.0,0.0,0.0,0.0,0.0,0.0,0.0,0.0,2017-10-18 22:05:58,25.711280987855325
0.0,0.0,0.0,2.746582E-4,-0.0013885498,-3.8146973E-4,2.0,0.0,0.0,0.0,0.0,0.0,0.0,0.0,0.0,0.0,2017-10-18 22:05:59,19.70172472446783
0.0,0.0,0.0,2.746582E-4,-0.002609253,8.392334E-4,2.0,0.0,0.0,0.0,0.0,0.0,0.0,0.0,0.0,0.0,2017-10-18 22:06:00,26.90187770743375
0.0,0.0,0.0,2.746582E-4,-0.0013885498,0.0020599365,2.0,0.0,0.0,0.0,0.0,0.0,0.0,0.0,0.0,0.0,2017-10-18 22:06:01,33.93296002568223
0.0,0.0,0.0,2.746582E-4,-0.0013885498,0.0020599365,2.0,0.0,0.0,0.0,0.0,0.0,0.0,0.0,0.0,0.0,2017-10-18 22:06:02,23.157244116591325
0.0,0.0,0.0,-0.002166748,0.0010528564,0.0032806396,2.0,0.0,0.0,0.0,0.0,0.0,0.0,0.0,0.0,0.0,2017-10-18 22:06:03,24.582623997042127
0.0,0.0,0.0,2.746582E-4,-1.6784668E-4,0.0020599365,2.0,0.0,0.0,0.0,0.0,0.0,0.0,0.0,0.0,0.0,2017-10-18 22:06:04,31.936110801147986
0.0,0.0,0.0,2.746582E-4,-0.0013885498,8.392334E-4,2.0,0.0,0.0,0.0,0.0,0.0,0.0,0.0,0.0,0.0,2017-10-18 22:06:05,31.10648622221463
0.0,0.0,0.0,2.746582E-4,-0.0033111572,-4.7302246E-4,2.0,0.0,0.0,0.0,0.0,0.0,0.0,0.0,0.0,0.0,2017-10-18 22:06:06,30.778747027884247
0.0,0.0,0.0,2.746582E-4,0.0028076172,7.4768066E-4,2.0,0.0,0.0,0.0,0.0,0.0,0.0,0.0,0.0,0.0,2017-10-18 22:06:07,38.901069395522136
0.0,0.0,0.0,0.0014953613,3.5095215E-4,-4.7302246E-4,2.0,0.0,0.0,0.0,0.0,0.0,0.0,0.0,0.0,0.0,2017-10-18 22:06:08,25.434258220846914
0.0,0.0,0.0,-9.460449E-4,-0.002090454,-0.0016937256,2.0,0.0,0.0,0.0,0.0,0.0,0.0,0.0,0.0,0.0,2017-10-18 22:06:09,38.97154401459883
0.0,0.0,0.0,2.746582E-4,3.5095215E-4,-4.7302246E-4,2.0,0.0,0.0,0.0,0.0,0.0,0.0,0.0,0.0,0.0,2017-10-18 22:06:10,37.945058006102165
0.0,0.0,0.0,2.746582E-4,3.5095215E-4,-0.0016937256,2.0,0.0,0.0,0.0,0.0,0.0,0.0,0.0,0.0,0.0,2017-10-18 22:06:11,27.532334528577294
0.0,0.0,0.0,-0.0033874512,-0.0155181885,0.031280518,2.0,0.0,0.0,0.0,0.0,0.0,0.0,0.0,0.0,0.0,2017-10-18 22:06:12,27.183018300583544
0.0,0.0,0.0,-9.460449E-4,-8.69751E-4,-4.7302246E-4,2.0,0.0,0.0,0.0,0.0,0.0,0.0,0.0,0.0,0.0,2017-10-18 22:06:13,38.44449507230359
0.0,0.0,0.0,2.746582E-4,0.0015716553,0.0019683838,2.0,0.0,0.0,0.0,0.0,0.0,0.0,0.0,0.0,0.0,2017-10-18 22:06:14,39.42596665850485
0.0,0.0,0.0,0.0014953613,-8.69751E-4,7.4768066E-4,2.0,0.0,0.0,0.0,0.0,0.0,0.0,0.0,0.0,0.0,2017-10-18 22:06:15,32.42280475083192
0.0,0.0,0.0,2.746582E-4,3.5095215E-4,-4.7302246E-4,2.0,0.0,0.0,0.0,0.0,0.0,0.0,0.0,0.0,0.0,2017-10-18 22:06:16,31.818493915945886
0.0,0.0,0.0,0.0014953613,0.0052490234,0.003189087,2.0,0.0,0.0,0.0,0.0,0.0,0.0,0.0,0.0,0.0,2017-10-18 22:06:17,33.19078719767845
0.0,0.0,0.0,2.746582E-4,3.5095215E-4,-4.7302246E-4,2.0,0.0,0.0,0.0,0.0,0.0,0.0,0.0,0.0,0.0,2017-10-18 22:06:19,46.84390050408914
0.0,0.0,0.0,-9.460449E-4,3.5095215E-4,7.4768066E-4,2.0,0.0,0.0,0.0,0.0,0.0,0.0,0.0,0.0,0.0,2017-10-18 22:06:20,53.303039682004744
0.0,0.0,0.0,0.0014953613,0.0015716553,-4.7302246E-4,2.0,0.0,0.0,0.0,0.0,0.0,0.0,0.0,0.0,0.0,2017-10-18 22:06:21,42.26720503444171
0.0,0.0,0.0,2.746582E-4,3.5095215E-4,7.4768066E-4,2.0,0.0,0.0,0.0,0.0,0.0,0.0,0.0,0.0,0.0,2017-10-18 22:06:22,44.92402773657798
0.0,0.0,0.0,-9.460449E-4,-0.002090454,7.4768066E-4,2.0,0.0,0.0,0.0,0.0,0.0,0.0,0.0,0.0,0.0,2017-10-18 22:06:23,22.799305998174326
0.0,0.0,0.0,2.746582E-4,-8.69751E-4,-4.7302246E-4,2.0,0.0,0.0,0.0,0.0,0.0,0.0,0.0,0.0,0.0,2017-10-18 22:06:24,36.131210322596374
0.0,0.0,0.0,2.746582E-4,-8.69751E-4,7.4768066E-4,2.0,0.0,0.0,0.0,0.0,0.0,0.0,0.0,0.0,0.0,2017-10-18 22:06:25,28.03563798319098
0.0,0.0,0.0,0.0051727295,0.052886963,-4.7302246E-4,2.0,0.0,0.0,0.0,0.0,0.0,0.0,0.0,0.0,0.0,2017-10-18 22:06:26,26.82931578949571
0.0,0.0,0.0,0.0051727295,0.0028076172,-4.7302246E-4,2.0,0.0,0.0,0.0,0.0,0.0,0.0,0.0,0.0,0.0,2017-10-18 22:06:27,28.021288580474426
0.0,0.0,0.0,2.746582E-4,-0.0057525635,7.4768066E-4,2.0,0.0,0.0,0.0,0.0,0.0,0.0,0.0,0.0,0.0,2017-10-18 22:06:28,27.236518914529437
0.0,0.0,0.0,0.0014953613,-0.002090454,7.4768066E-4,2.0,0.0,0.0,0.0,0.0,0.0,0.0,0.0,0.0,0.0,2017-10-18 22:06:29,32.369523225463496
0.0,0.0,0.0,-9.460449E-4,0.0076904297,7.4768066E-4,2.0,0.0,0.0,0.0,0.0,0.0,0.0,0.0,0.0,0.0,2017-10-18 22:06:30,32.281135096390365
0.0,0.0,0.0,-9.460449E-4,-0.002090454,-4.7302246E-4,2.0,0.0,0.0,0.0,0.0,0.0,0.0,0.0,0.0,0.0,2017-10-18 22:06:31,23.27534532679544
0.0,0.0,0.0,2.746582E-4,3.5095215E-4,-4.7302246E-4,2.0,0.0,0.0,0.0,0.0,0.0,0.0,0.0,0.0,0.0,2017-10-18 22:06:32,23.463193495615606
0.0,0.0,0.0,-9.460449E-4,-0.009429932,0.003189087,2.0,0.0,0.0,0.0,0.0,0.0,0.0,0.0,0.0,0.0,2017-10-18 22:06:33,26.871665263828312
0.0,0.0,0.0,-9.460449E-4,-8.69751E-4,-4.7302246E-4,2.0,0.0,0.0,0.0,0.0,0.0,0.0,0.0,0.0,0.0,2017-10-18 22:06:34,30.23144387134561
0.0,0.0,0.0,-9.460449E-4,3.5095215E-4,-4.7302246E-4,2.0,0.0,0.0,0.0,0.0,0.0,0.0,0.0,0.0,0.0,2017-10-18 22:06:35,27.740833672502333
0.0,0.0,0.0,0.0027313232,-0.02041626,0.003189087,2.0,0.0,0.0,0.0,0.0,0.0,0.0,0.0,0.0,0.0,2017-10-18 22:06:36,22.760091783043393
0.0,0.0,0.0,-0.0046081543,-0.022872925,7.4768066E-4,2.0,0.0,0.0,0.0,0.0,0.0,0.0,0.0,0.0,0.0,2017-10-18 22:06:37,66.71943717838684
0.0,0.0,0.0,-0.002166748,-8.69751E-4,7.4768066E-4,2.0,0.0,0.0,0.0,0.0,0.0,0.0,0.0,0.0,0.0,2017-10-18 22:06:38,67.07116538214888
0.0,0.0,0.0,0.0014953613,-8.69751E-4,7.4768066E-4,2.0,0.0,0.0,0.0,0.0,0.0,0.0,0.0,0.0,0.0,2017-10-18 22:06:39,28.26140630597214
0.0,0.0,0.0,2.746582E-4,0.0052490234,-4.7302246E-4,2.0,0.0,0.0,0.0,0.0,0.0,0.0,0.0,0.0,0.0,2017-10-18 22:06:40,47.18734175027656
0.0,0.0,0.0,-9.460449E-4,-0.0033111572,-0.0016937256,2.0,0.0,0.0,0.0,0.0,0.0,0.0,0.0,0.0,0.0,2017-10-18 22:06:41,52.92838094178124
0.0,0.0,0.0,-9.460449E-4,-8.69751E-4,-4.7302246E-4,2.0,0.0,0.0,0.0,0.0,0.0,0.0,0.0,0.0,0.0,2017-10-18 22:06:42,23.699807666305222
0.0,0.0,0.0,0.0076141357,-0.0069885254,0.0019683838,2.0,0.0,0.0,0.0,0.0,0.0,0.0,0.0,0.0,0.0,2017-10-18 22:06:43,38.321590010652514
0.0,0.0,0.0,0.0027313232,0.006454468,-4.7302246E-4,2.0,0.0,0.0,0.0,0.0,0.0,0.0,0.0,0.0,0.0,2017-10-18 22:06:44,37.28275769434792
0.0,0.0,0.0,0.0014953613,-8.69751E-4,0.008071899,2.0,0.0,0.0,0.0,0.0,0.0,0.0,0.0,0.0,0.0,2017-10-18 22:06:45,23.865268326289716
0.0,0.0,0.0,2.746582E-4,0.0040130615,7.4768066E-4,2.0,0.0,0.0,0.0,0.0,0.0,0.0,0.0,0.0,0.0,2017-10-18 22:06:46,22.137501154207207
0.0,0.0,0.0,-9.460449E-4,-0.009429932,-4.7302246E-4,2.0,0.0,0.0,0.0,0.0,0.0,0.0,0.0,0.0,0.0,2017-10-18 22:06:47,18.934062910748
0.0,0.0,0.0,2.746582E-4,3.5095215E-4,-4.7302246E-4,2.0,0.0,0.0,0.0,0.0,0.0,0.0,0.0,0.0,0.0,2017-10-18 22:06:48,20.475364850762503
0.0,0.0,0.0,2.746582E-4,0.0015716553,-4.7302246E-4,2.0,0.0,0.0,0.0,0.0,0.0,0.0,0.0,0.0,0.0,2017-10-18 22:06:49,23.975136479942357
0.0,0.0,0.0,-0.002166748,-0.013076782,0.005630493,2.0,0.0,0.0,0.0,0.0,0.0,0.0,0.0,0.0,0.0,2017-10-18 22:06:50,26.439243453753388
0.0,0.0,0.0,2.746582E-4,0.0028076172,-4.7302246E-4,2.0,0.0,0.0,0.0,0.0,0.0,0.0,0.0,0.0,0.0,2017-10-18 22:06:51,22.975758693508403
0.0,0.0,0.0,2.746582E-4,-0.0057525635,0.0019683838,2.0,0.0,0.0,0.0,0.0,0.0,0.0,0.0,0.0,0.0,2017-10-18 22:06:52,20.855135563537203
0.0,0.0,0.0,2.746582E-4,3.5095215E-4,7.4768066E-4,2.0,0.0,0.0,0.0,0.0,0.0,0.0,0.0,0.0,0.0,2017-10-18 22:06:53,19.79349163575585
0.0,0.0,0.0,2.746582E-4,-8.69751E-4,-4.7302246E-4,2.0,0.0,0.0,0.0,0.0,0.0,0.0,0.0,0.0,0.0,2017-10-18 22:06:54,24.117459360126304
0.0,0.0,0.0,0.0014953613,0.0028076172,7.4768066E-4,2.0,0.0,0.0,0.0,0.0,0.0,0.0,0.0,0.0,0.0,2017-10-18 22:06:55,28.556582575362587
0.0,0.0,0.0,-9.460449E-4,3.5095215E-4,-4.7302246E-4,2.0,0.0,0.0,0.0,0.0,0.0,0.0,0.0,0.0,0.0,2017-10-18 22:06:56,26.066265271589195
0.0,0.0,0.0,2.746582E-4,3.5095215E-4,-4.7302246E-4,2.0,0.0,0.0,0.0,0.0,0.0,0.0,0.0,0.0,0.0,2017-10-18 22:06:57,23.643868141421052
0.0,0.0,0.0,2.746582E-4,0.0028076172,-4.7302246E-4,2.0,0.0,0.0,0.0,0.0,0.0,0.0,0.0,0.0,0.0,2017-10-18 22:06:58,26.51579334533762
0.0,0.0,0.0,-0.0046081543,3.5095215E-4,7.4768066E-4,2.0,0.0,0.0,0.0,0.0,0.0,0.0,0.0,0.0,0.0,2017-10-18 22:06:59,27.90489681241068
0.0,0.0,0.0,2.746582E-4,0.006454468,-0.004135132,2.0,0.0,0.0,0.0,0.0,0.0,0.0,0.0,0.0,0.0,2017-10-18 22:07:00,28.451484462698854
0.0,0.0,0.0,-9.460449E-4,0.0028076172,-4.7302246E-4,2.0,0.0,0.0,0.0,0.0,0.0,0.0,0.0,0.0,0.0,2017-10-18 22:07:01,33.982515032274904
0.0,0.0,0.0,2.746582E-4,0.0028076172,7.4768066E-4,2.0,0.0,0.0,0.0,0.0,0.0,0.0,0.0,0.0,0.0,2017-10-18 22:07:02,30.644234736118104
0.0,0.0,0.0,-9.460449E-4,-0.002090454,-4.7302246E-4,2.0,0.0,0.0,0.0,0.0,0.0,0.0,0.0,0.0,0.0,2017-10-18 22:07:03,23.268796687700224
0.0,0.0,0.0,2.746582E-4,0.0028076172,-4.7302246E-4,2.0,0.0,0.0,0.0,0.0,0.0,0.0,0.0,0.0,0.0,2017-10-18 22:07:04,27.008875180413074
0.0,0.0,0.0,-9.460449E-4,-0.011871338,-0.0016937256,2.0,0.0,0.0,0.0,0.0,0.0,0.0,0.0,0.0,0.0,2017-10-18 22:07:05,33.95803188878551
0.0,0.0,0.0,2.746582E-4,-0.025314331,0.009307861,2.0,0.0,0.0,0.0,0.0,0.0,0.0,0.0,0.0,0.0,2017-10-18 22:07:06,33.60179972097082
0.0,0.0,0.0,-0.002166748,-0.0045318604,0.003189087,2.0,0.0,0.0,0.0,0.0,0.0,0.0,0.0,0.0,0.0,2017-10-18 22:07:08,33.48730671804636
0.0,0.0,0.0,-0.0058288574,-0.0045318604,-0.0016937256,2.0,0.0,0.0,0.0,0.0,0.0,0.0,0.0,0.0,0.0,2017-10-18 22:07:09,31.604863512336415
0.0,0.0,0.0,0.0014953613,0.0028076172,7.4768066E-4,2.0,0.0,0.0,0.0,0.0,0.0,0.0,0.0,0.0,0.0,2017-10-18 22:07:10,28.37585479278652
0.0,0.0,0.0,2.746582E-4,3.5095215E-4,7.4768066E-4,2.0,0.0,0.0,0.0,0.0,0.0,0.0,0.0,0.0,0.0,2017-10-18 22:07:11,22.068132314043968
0.0,0.0,0.0,-9.460449E-4,-0.002090454,-4.7302246E-4,2.0,0.0,0.0,0.0,0.0,0.0,0.0,0.0,0.0,0.0,2017-10-18 22:07:12,23.17397289076692
0.0,0.0,0.0,2.746582E-4,0.0015716553,0.0019683838,2.0,0.0,0.0,0.0,0.0,0.0,0.0,0.0,0.0,0.0,2017-10-18 22:07:13,19.67489473560741
0.0,0.0,0.0,-0.009490967,0.0076904297,0.014190674,2.0,0.0,0.0,0.0,0.0,0.0,0.0,0.0,0.0,0.0,2017-10-18 22:07:14,18.82284343124841
0.0,0.0,0.0,2.746582E-4,-0.017959595,0.006866455,2.0,0.0,0.0,0.0,0.0,0.0,0.0,0.0,0.0,0.0,2017-10-18 22:07:15,24.636807335291678
0.0,0.0,0.0,0.0027313232,3.5095215E-4,-0.0053710938,2.0,0.0,0.0,0.0,0.0,0.0,0.0,0.0,0.0,0.0,2017-10-18 22:07:16,32.06986430781277
0.0,0.0,0.0,2.746582E-4,3.5095215E-4,-0.0016937256,2.0,0.0,0.0,0.0,0.0,0.0,0.0,0.0,0.0,0.0,2017-10-18 22:07:17,33.00330829786919
0.0,0.0,0.0,2.746582E-4,0.0052490234,0.0019683838,2.0,0.0,0.0,0.0,0.0,0.0,0.0,0.0,0.0,0.0,2017-10-18 22:07:18,23.643516243773167
0.0,0.0,0.0,-9.460449E-4,-0.009429932,-0.0016937256,2.0,0.0,0.0,0.0,0.0,0.0,0.0,0.0,0.0,0.0,2017-10-18 22:07:19,28.27634769100067
0.0,0.0,0.0,2.746582E-4,-0.002090454,0.0019683838,2.0,0.0,0.0,0.0,0.0,0.0,0.0,0.0,0.0,0.0,2017-10-18 22:07:20,28.580895895312075
0.0,0.0,0.0,2.746582E-4,0.0052490234,-0.0053710938,2.0,0.0,0.0,0.0,0.0,0.0,0.0,0.0,0.0,0.0,2017-10-18 22:07:21,32.24031826308432
0.0,0.0,0.0,-9.460449E-4,3.5095215E-4,7.4768066E-4,2.0,0.0,0.0,0.0,0.0,0.0,0.0,0.0,0.0,0.0,2017-10-18 22:07:22,23.98696650169608
0.0,0.0,0.0,-9.460449E-4,-0.0057525635,7.4768066E-4,2.0,0.0,0.0,0.0,0.0,0.0,0.0,0.0,0.0,0.0,2017-10-18 22:07:23,23.83560120547464
0.0,0.0,0.0,2.746582E-4,-8.69751E-4,-0.0016937256,2.0,0.0,0.0,0.0,0.0,0.0,0.0,0.0,0.0,0.0,2017-10-18 22:07:24,22.316925423899118
0.0,0.0,0.0,2.746582E-4,0.0040130615,-4.7302246E-4,2.0,0.0,0.0,0.0,0.0,0.0,0.0,0.0,0.0,0.0,2017-10-18 22:07:25,17.824390295438054
0.0,0.0,0.0,0.0039367676,0.021118164,-4.7302246E-4,2.0,0.0,0.0,0.0,0.0,0.0,0.0,0.0,0.0,0.0,2017-10-18 22:07:26,25.773481601858737
0.0,0.0,0.0,-0.0070495605,-0.0033111572,7.4768066E-4,2.0,0.0,0.0,0.0,0.0,0.0,0.0,0.0,0.0,0.0,2017-10-18 22:07:27,29.35829120218573
0.0,0.0,0.0,-0.002166748,0.0040130615,0.0019683838,2.0,0.0,0.0,0.0,0.0,0.0,0.0,0.0,0.0,0.0,2017-10-18 22:07:28,21.312877656594903
0.0,0.0,0.0,-9.460449E-4,0.0040130615,-4.7302246E-4,2.0,0.0,0.0,0.0,0.0,0.0,0.0,0.0,0.0,0.0,2017-10-18 22:07:29,23.71711319331037
0.0,0.0,0.0,-9.460449E-4,-0.0057525635,7.4768066E-4,2.0,0.0,0.0,0.0,0.0,0.0,0.0,0.0,0.0,0.0,2017-10-18 22:07:30,27.64041796143151
0.0,0.0,0.0,2.746582E-4,-0.0045318604,0.0019683838,2.0,0.0,0.0,0.0,0.0,0.0,0.0,0.0,0.0,0.0,2017-10-18 22:07:31,25.23663159449974
0.0,0.0,0.0,2.746582E-4,3.5095215E-4,7.4768066E-4,2.0,0.0,0.0,0.0,0.0,0.0,0.0,0.0,0.0,0.0,2017-10-18 22:07:32,27.845961211522543
0.0,0.0,0.0,-9.460449E-4,-8.69751E-4,-0.0016937256,2.0,0.0,0.0,0.0,0.0,0.0,0.0,0.0,0.0,0.0,2017-10-18 22:07:33,33.75462992151693
0.0,0.0,0.0,-9.460449E-4,-0.002090454,7.4768066E-4,2.0,0.0,0.0,0.0,0.0,0.0,0.0,0.0,0.0,0.0,2017-10-18 22:07:34,31.03074297630073
0.0,0.0,0.0,-9.460449E-4,-0.002090454,0.0019683838,2.0,0.0,0.0,0.0,0.0,0.0,0.0,0.0,0.0,0.0,2017-10-18 22:07:35,27.07551547871389
0.0,0.0,0.0,2.746582E-4,0.0015716553,7.4768066E-4,2.0,0.0,0.0,0.0,0.0,0.0,0.0,0.0,0.0,0.0,2017-10-18 22:07:36,29.85905500023174
0.0,0.0,0.0,0.0014953613,3.5095215E-4,7.4768066E-4,2.0,0.0,0.0,0.0,0.0,0.0,0.0,0.0,0.0,0.0,2017-10-18 22:07:37,31.49279266745245
0.0,0.0,0.0,0.0014953613,0.0028076172,-0.0016937256,2.0,0.0,0.0,0.0,0.0,0.0,0.0,0.0,0.0,0.0,2017-10-18 22:07:38,32.92391421071821
0.0,0.0,0.0,2.746582E-4,-8.69751E-4,7.4768066E-4,2.0,0.0,0.0,0.0,0.0,0.0,0.0,0.0,0.0,0.0,2017-10-18 22:07:39,27.210734611288242
0.0,0.0,0.0,2.746582E-4,0.0015716553,7.4768066E-4,2.0,0.0,0.0,0.0,0.0,0.0,0.0,0.0,0.0,0.0,2017-10-18 22:07:40,37.54813896542956
0.0,0.0,0.0,2.746582E-4,3.5095215E-4,-4.7302246E-4,2.0,0.0,0.0,0.0,0.0,0.0,0.0,0.0,0.0,0.0,2017-10-18 22:07:41,29.723482251399727
0.0,0.0,0.0,0.0014953613,3.5095215E-4,0.003189087,2.0,0.0,0.0,0.0,0.0,0.0,0.0,0.0,0.0,0.0,2017-10-18 22:07:42,23.726272489276422
0.0,0.0,0.0,0.0014953613,0.0028076172,-4.7302246E-4,2.0,0.0,0.0,0.0,0.0,0.0,0.0,0.0,0.0,0.0,2017-10-18 22:07:43,20.63350953715332
0.0,0.0,0.0,2.746582E-4,0.0015716553,7.4768066E-4,2.0,0.0,0.0,0.0,0.0,0.0,0.0,0.0,0.0,0.0,2017-10-18 22:07:44,29.393788329972296
0.0,0.0,0.0,2.746582E-4,-8.69751E-4,-0.0016937256,2.0,0.0,0.0,0.0,0.0,0.0,0.0,0.0,0.0,0.0,2017-10-18 22:07:45,32.51165424635082
0.0,0.0,0.0,0.0014953613,-0.002090454,7.4768066E-4,2.0,0.0,0.0,0.0,0.0,0.0,0.0,0.0,0.0,0.0,2017-10-18 22:07:46,23.54792490450614
0.0,0.0,0.0,-9.460449E-4,0.0052490234,-0.0029296875,2.0,0.0,0.0,0.0,0.0,0.0,0.0,0.0,0.0,0.0,2017-10-18 22:07:47,27.627488777374506
0.0,0.0,0.0,2.746582E-4,-8.69751E-4,-4.7302246E-4,2.0,0.0,0.0,0.0,0.0,0.0,0.0,0.0,0.0,0.0,2017-10-18 22:07:48,24.341420838623947
0.0,0.0,0.0,0.0014953613,-8.69751E-4,0.0019683838,2.0,0.0,0.0,0.0,0.0,0.0,0.0,0.0,0.0,0.0,2017-10-18 22:07:49,23.043524999377475
0.0,0.0,0.0,0.0014953613,-8.69751E-4,-0.004135132,2.0,0.0,0.0,0.0,0.0,0.0,0.0,0.0,0.0,0.0,2017-10-18 22:07:50,19.58907145944825
0.0,0.0,0.0,2.746582E-4,0.0040130615,-0.0016937256,2.0,0.0,0.0,0.0,0.0,0.0,0.0,0.0,0.0,0.0,2017-10-18 22:07:51,25.042754199897015
0.0,0.0,0.0,-0.002166748,-0.01675415,-0.009017944,2.0,0.0,0.0,0.0,0.0,0.0,0.0,0.0,0.0,0.0,2017-10-18 22:07:52,28.8983548650468
0.0,0.0,0.0,-9.460449E-4,-0.002090454,0.0019683838,2.0,0.0,0.0,0.0,0.0,0.0,0.0,0.0,0.0,0.0,2017-10-18 22:07:53,24.08046419400415
0.0,0.0,0.0,-9.460449E-4,-8.69751E-4,-4.7302246E-4,2.0,0.0,0.0,0.0,0.0,0.0,0.0,0.0,0.0,0.0,2017-10-18 22:07:54,30.620705411536775
0.0,0.0,0.0,-0.002166748,0.018676758,0.00440979,2.0,0.0,0.0,0.0,0.0,0.0,0.0,0.0,0.0,0.0,2017-10-18 22:07:56,34.43188642400548
0.0,0.0,0.0,2.746582E-4,0.0076904297,-0.0016937256,2.0,0.0,0.0,0.0,0.0,0.0,0.0,0.0,0.0,0.0,2017-10-18 22:07:57,29.44921987971874
0.0,0.0,0.0,-9.460449E-4,-8.69751E-4,7.4768066E-4,2.0,0.0,0.0,0.0,0.0,0.0,0.0,0.0,0.0,0.0,2017-10-18 22:07:58,20.26737494238748
0.0,0.0,0.0,2.746582E-4,3.5095215E-4,-0.0016937256,2.0,0.0,0.0,0.0,0.0,0.0,0.0,0.0,0.0,0.0,2017-10-18 22:07:59,18.46201760672895
0.0,0.0,0.0,2.746582E-4,0.0028076172,0.003189087,2.0,0.0,0.0,0.0,0.0,0.0,0.0,0.0,0.0,0.0,2017-10-18 22:08:00,23.89869027914631
0.0,0.0,0.0,-0.002166748,0.0040130615,7.4768066E-4,2.0,0.0,0.0,0.0,0.0,0.0,0.0,0.0,0.0,0.0,2017-10-18 22:08:01,25.744816146755895
0.0,0.0,0.0,2.746582E-4,-8.69751E-4,7.4768066E-4,2.0,0.0,0.0,0.0,0.0,0.0,0.0,0.0,0.0,0.0,2017-10-18 22:08:02,21.089136891751238
0.0,0.0,0.0,2.746582E-4,-8.69751E-4,-4.7302246E-4,2.0,0.0,0.0,0.0,0.0,0.0,0.0,0.0,0.0,0.0,2017-10-18 22:08:03,24.670111880136965
0.0,0.0,0.0,2.746582E-4,-0.010635376,7.4768066E-4,2.0,0.0,0.0,0.0,0.0,0.0,0.0,0.0,0.0,0.0,2017-10-18 22:08:04,29.091756210192493
0.0,0.0,0.0,-9.460449E-4,-0.002090454,-4.7302246E-4,2.0,0.0,0.0,0.0,0.0,0.0,0.0,0.0,0.0,0.0,2017-10-18 22:08:05,29.486032030449007
0.0,0.0,0.0,2.1362305E-4,-7.171631E-4,7.171631E-4,2.0,0.0,0.0,0.0,0.0,0.0,0.0,0.0,0.0,0.0,2017-10-18 22:08:06,27.889611717040705
0.0,0.0,0.0,2.1362305E-4,5.0354004E-4,-5.0354004E-4,2.0,0.0,0.0,0.0,0.0,0.0,0.0,0.0,0.0,0.0,2017-10-18 22:08:07,31.60715602748661
0.0,0.0,0.0,-0.0010070801,0.0017242432,7.171631E-4,2.0,0.0,0.0,0.0,0.0,0.0,0.0,0.0,0.0,0.0,2017-10-18 22:08:08,25.66433809220822
0.0,0.0,0.0,2.1362305E-4,5.0354004E-4,7.171631E-4,2.0,0.0,0.0,0.0,0.0,0.0,0.0,0.0,0.0,0.0,2017-10-18 22:08:09,29.327281595776636
0.0,0.0,0.0,0.0014343262,0.0041656494,7.171631E-4,2.0,0.0,0.0,0.0,0.0,0.0,0.0,0.0,0.0,0.0,2017-10-18 22:08:10,27.540686877381717
0.0,0.0,0.0,-0.0010070801,-7.171631E-4,-0.0041656494,2.0,0.0,0.0,0.0,0.0,0.0,0.0,0.0,0.0,0.0,2017-10-18 22:08:11,21.94969384165333
0.0,0.0,0.0,2.1362305E-4,0.0017242432,-5.0354004E-4,2.0,0.0,0.0,0.0,0.0,0.0,0.0,0.0,0.0,0.0,2017-10-18 22:08:12,26.77718135210174
0.0,0.0,0.0,-0.0010070801,5.0354004E-4,-0.0017242432,2.0,0.0,0.0,0.0,0.0,0.0,0.0,0.0,0.0,0.0,2017-10-18 22:08:13,28.91527875491878
0.0,0.0,0.0,2.1362305E-4,0.0017242432,-5.0354004E-4,2.0,0.0,0.0,0.0,0.0,0.0,0.0,0.0,0.0,0.0,2017-10-18 22:08:14,27.43722842073979
0.0,0.0,0.0,2.1362305E-4,5.0354004E-4,7.171631E-4,2.0,0.0,0.0,0.0,0.0,0.0,0.0,0.0,0.0,0.0,2017-10-18 22:08:15,27.536763991967177
0.0,0.0,0.0,2.1362305E-4,-0.0019378662,-0.0017242432,2.0,0.0,0.0,0.0,0.0,0.0,0.0,0.0,0.0,0.0,2017-10-18 22:08:16,21.71118271628427
0.0,0.0,0.0,2.1362305E-4,5.0354004E-4,-5.0354004E-4,2.0,0.0,0.0,0.0,0.0,0.0,0.0,0.0,0.0,0.0,2017-10-18 22:08:17,27.52685729934674
0.0,0.0,0.0,2.1362305E-4,0.002960205,-5.0354004E-4,2.0,0.0,0.0,0.0,0.0,0.0,0.0,0.0,0.0,0.0,2017-10-18 22:08:18,28.77245330350503
0.0,0.0,0.0,2.1362305E-4,-7.171631E-4,0.0031585693,2.0,0.0,0.0,0.0,0.0,0.0,0.0,0.0,0.0,0.0,2017-10-18 22:08:19,30.962836345935642
0.0,0.0,0.0,-0.0010070801,5.0354004E-4,-0.002960205,2.0,0.0,0.0,0.0,0.0,0.0,0.0,0.0,0.0,0.0,2017-10-18 22:08:20,29.443060498828103
0.0,0.0,0.0,2.1362305E-4,-0.0019378662,7.171631E-4,2.0,0.0,0.0,0.0,0.0,0.0,0.0,0.0,0.0,0.0,2017-10-18 22:08:21,26.136882462658818
0.0,0.0,0.0,2.1362305E-4,0.0017242432,-5.0354004E-4,2.0,0.0,0.0,0.0,0.0,0.0,0.0,0.0,0.0,0.0,2017-10-18 22:08:22,29.900515059198824
0.0,0.0,0.0,2.1362305E-4,-0.0019378662,-5.0354004E-4,2.0,0.0,0.0,0.0,0.0,0.0,0.0,0.0,0.0,0.0,2017-10-18 22:08:23,28.408487647635198
0.0,0.0,0.0,2.1362305E-4,0.0066070557,-0.002960205,2.0,0.0,0.0,0.0,0.0,0.0,0.0,0.0,0.0,0.0,2017-10-18 22:08:24,26.894434451335268
0.0,0.0,0.0,2.1362305E-4,-0.0019378662,7.171631E-4,2.0,0.0,0.0,0.0,0.0,0.0,0.0,0.0,0.0,0.0,2017-10-18 22:08:25,19.959092838978457
0.0,0.0,0.0,-0.0010070801,-0.0068359375,0.0019378662,2.0,0.0,0.0,0.0,0.0,0.0,0.0,0.0,0.0,0.0,2017-10-18 22:08:26,30.566881262286557
0.0,0.0,0.0,2.1362305E-4,-0.0019378662,-5.0354004E-4,2.0,0.0,0.0,0.0,0.0,0.0,0.0,0.0,0.0,0.0,2017-10-18 22:08:27,32.06859171789716
0.0,0.0,0.0,0.0014343262,0.0017242432,-5.0354004E-4,2.0,0.0,0.0,0.0,0.0,0.0,0.0,0.0,0.0,0.0,2017-10-18 22:08:28,23.550022902085516
0.0,0.0,0.0,2.1362305E-4,-7.171631E-4,-0.0017242432,2.0,0.0,0.0,0.0,0.0,0.0,0.0,0.0,0.0,0.0,2017-10-18 22:08:29,27.452895424034946
0.0,0.0,0.0,0.0014343262,5.0354004E-4,-0.0017242432,2.0,0.0,0.0,0.0,0.0,0.0,0.0,0.0,0.0,0.0,2017-10-18 22:08:30,30.85061906779596
0.0,0.0,0.0,2.1362305E-4,-7.171631E-4,-5.0354004E-4,2.0,0.0,0.0,0.0,0.0,0.0,0.0,0.0,0.0,0.0,2017-10-18 22:08:31,27.43562431499665
0.0,0.0,0.0,2.1362305E-4,-0.0019378662,-5.0354004E-4,2.0,0.0,0.0,0.0,0.0,0.0,0.0,0.0,0.0,0.0,2017-10-18 22:08:32,24.513594123956167
0.0,0.0,0.0,-0.0046691895,-0.0031585693,-5.0354004E-4,2.0,0.0,0.0,0.0,0.0,0.0,0.0,0.0,0.0,0.0,2017-10-18 22:08:33,19.840418361524893
0.0,0.0,0.0,-0.0010070801,0.0017242432,-0.0017242432,2.0,0.0,0.0,0.0,0.0,0.0,0.0,0.0,0.0,0.0,2017-10-18 22:08:34,17.877813831484392
0.0,0.0,0.0,-0.0010070801,5.0354004E-4,-0.0017242432,2.0,0.0,0.0,0.0,0.0,0.0,0.0,0.0,0.0,0.0,2017-10-18 22:08:35,28.893743707046006
0.0,0.0,0.0,-0.0010070801,-0.0031585693,-0.0017242432,2.0,0.0,0.0,0.0,0.0,0.0,0.0,0.0,0.0,0.0,2017-10-18 22:08:36,36.58414780988678
0.0,0.0,0.0,0.0014343262,-7.171631E-4,-0.0041656494,2.0,0.0,0.0,0.0,0.0,0.0,0.0,0.0,0.0,0.0,2017-10-18 22:08:37,32.866473018110625
0.0,0.0,0.0,-0.0010070801,5.0354004E-4,-0.002960205,2.0,0.0,0.0,0.0,0.0,0.0,0.0,0.0,0.0,0.0,2017-10-18 22:08:38,32.03437043798806
0.0,0.0,0.0,2.1362305E-4,-7.171631E-4,-0.0017242432,2.0,0.0,0.0,0.0,0.0,0.0,0.0,0.0,0.0,0.0,2017-10-18 22:08:39,36.952835282164905
0.0,0.0,0.0,2.1362305E-4,-0.0031585693,-5.0354004E-4,2.0,0.0,0.0,0.0,0.0,0.0,0.0,0.0,0.0,0.0,2017-10-18 22:08:40,22.951098881269168
0.0,0.0,0.0,0.0014343262,-0.0055999756,-0.002960205,2.0,0.0,0.0,0.0,0.0,0.0,0.0,0.0,0.0,0.0,2017-10-18 22:08:41,28.30995428748497
0.0,0.0,0.0,2.1362305E-4,0.0054016113,-0.002960205,2.0,0.0,0.0,0.0,0.0,0.0,0.0,0.0,0.0,0.0,2017-10-18 22:08:42,25.706213714027935
0.0,0.0,0.0,-0.0010070801,-0.0043792725,0.0019378662,2.0,0.0,0.0,0.0,0.0,0.0,0.0,0.0,0.0,0.0,2017-10-18 22:08:44,24.958780818315653
0.0,0.0,0.0,0.0051116943,0.020050049,0.0019378662,2.0,0.0,0.0,0.0,0.0,0.0,0.0,0.0,0.0,0.0,2017-10-18 22:08:45,29.81643087753651
0.0,0.0,0.0,0.0038757324,0.034713745,-0.015167236,2.0,0.0,0.0,0.0,0.0,0.0,0.0,0.0,0.0,0.0,2017-10-18 22:08:46,46.551265143692135
0.0,0.0,0.0,2.1362305E-4,0.002960205,0.0019378662,2.0,0.0,0.0,0.0,0.0,0.0,0.0,0.0,0.0,0.0,2017-10-18 22:08:47,41.232714970503366
0.0,0.0,0.0,2.1362305E-4,5.0354004E-4,-0.0017242432,2.0,0.0,0.0,0.0,0.0,0.0,0.0,0.0,0.0,0.0,2017-10-18 22:08:48,25.34535737849682
0.0,0.0,0.0,2.1362305E-4,-0.0019378662,-0.002960205,2.0,0.0,0.0,0.0,0.0,0.0,0.0,0.0,0.0,0.0,2017-10-18 22:08:49,24.581702587693506
0.0,0.0,0.0,2.1362305E-4,-0.0019378662,-0.007843018,2.0,0.0,0.0,0.0,0.0,0.0,0.0,0.0,0.0,0.0,2017-10-18 22:08:50,24.937999320120433
0.0,0.0,0.0,0.0038757324,0.009048462,-5.0354004E-4,2.0,0.0,0.0,0.0,0.0,0.0,0.0,0.0,0.0,0.0,2017-10-18 22:08:51,25.893089214232084
0.0,0.0,0.0,-0.0010070801,-0.0068359375,-0.0041656494,2.0,0.0,0.0,0.0,0.0,0.0,0.0,0.0,0.0,0.0,2017-10-18 22:08:52,44.466385789537846
0.0,0.0,0.0,-0.0034484863,-0.014160156,-0.007843018,2.0,0.0,0.0,0.0,0.0,0.0,0.0,0.0,0.0,0.0,2017-10-18 22:08:53,47.280091904645616
0.0,0.0,0.0,2.1362305E-4,5.0354004E-4,-0.0017242432,2.0,0.0,0.0,0.0,0.0,0.0,0.0,0.0,0.0,0.0,2017-10-18 22:08:54,48.14644865032422
0.0,0.0,0.0,2.1362305E-4,0.0017242432,-5.0354004E-4,2.0,0.0,0.0,0.0,0.0,0.0,0.0,0.0,0.0,0.0,2017-10-18 22:08:55,47.374450626584014
0.0,0.0,0.0,-0.0010070801,0.01272583,0.0031585693,2.0,0.0,0.0,0.0,0.0,0.0,0.0,0.0,0.0,0.0,2017-10-18 22:08:56,28.011420596961443
0.0,0.0,0.0,-0.0058898926,-0.017807007,-5.0354004E-4,2.0,0.0,0.0,0.0,0.0,0.0,0.0,0.0,0.0,0.0,2017-10-18 22:08:57,31.652995185375925
0.0,0.0,0.0,2.1362305E-4,-0.0043792725,-0.0017242432,2.0,0.0,0.0,0.0,0.0,0.0,0.0,0.0,0.0,0.0,2017-10-18 22:08:58,32.8722104667509
0.0,0.0,0.0,2.1362305E-4,-7.171631E-4,-0.0017242432,2.0,0.0,0.0,0.0,0.0,0.0,0.0,0.0,0.0,0.0,2017-10-18 22:08:59,31.45968538888758
0.0,0.0,0.0,0.0014343262,-0.0019378662,7.171631E-4,2.0,0.0,0.0,0.0,0.0,0.0,0.0,0.0,0.0,0.0,2017-10-18 22:09:00,47.07665034599705
0.0,0.0,0.0,2.1362305E-4,-0.01171875,-0.0041656494,2.0,0.0,0.0,0.0,0.0,0.0,0.0,0.0,0.0,0.0,2017-10-18 22:09:01,21.262379782367702
0.0,0.0,0.0,-0.0010070801,-0.0019378662,-5.0354004E-4,2.0,0.0,0.0,0.0,0.0,0.0,0.0,0.0,0.0,0.0,2017-10-18 22:09:02,27.754374966588543
0.0,0.0,0.0,2.1362305E-4,0.0017242432,-0.0017242432,2.0,0.0,0.0,0.0,0.0,0.0,0.0,0.0,0.0,0.0,2017-10-18 22:09:03,37.762396598237615
0.0,0.0,0.0,2.1362305E-4,0.0017242432,-5.0354004E-4,2.0,0.0,0.0,0.0,0.0,0.0,0.0,0.0,0.0,0.0,2017-10-18 22:09:04,28.693591649927413
0.0,0.0,0.0,-0.0046691895,-0.015365601,-0.0017242432,2.0,0.0,0.0,0.0,0.0,0.0,0.0,0.0,0.0,0.0,2017-10-18 22:09:05,26.849995581601114
0.0,0.0,0.0,0.004989624,0.008178711,-0.0010986328,2.0,0.0,0.0,0.0,0.0,0.0,0.0,0.0,0.0,0.0,2017-10-18 22:09:06,24.30916170058893
0.0,0.0,0.0,0.0025482178,-0.0016021729,1.2207031E-4,2.0,0.0,0.0,0.0,0.0,0.0,0.0,0.0,0.0,0.0,2017-10-18 22:09:07,25.94138654255743
0.0,0.0,0.0,9.1552734E-5,0.0032958984,0.005004883,2.0,0.0,0.0,0.0,0.0,0.0,0.0,0.0,0.0,0.0,2017-10-18 22:09:08,28.74644864957076
0.0,0.0,0.0,-0.0011291504,-0.004043579,-0.0010986328,2.0,0.0,0.0,0.0,0.0,0.0,0.0,0.0,0.0,0.0,2017-10-18 22:09:09,27.527768652354474
0.0,0.0,0.0,9.1552734E-5,-0.0016021729,1.2207031E-4,2.0,0.0,0.0,0.0,0.0,0.0,0.0,0.0,0.0,0.0,2017-10-18 22:09:10,26.2727462212287
0.0,0.0,0.0,9.1552734E-5,-0.015029907,1.2207031E-4,2.0,0.0,0.0,0.0,0.0,0.0,0.0,0.0,0.0,0.0,2017-10-18 22:09:11,27.298213559826646
0.0,0.0,0.0,-0.0011291504,-0.002822876,-0.0010986328,2.0,0.0,0.0,0.0,0.0,0.0,0.0,0.0,0.0,0.0,2017-10-18 22:09:12,25.67928369992593
0.0,0.0,0.0,9.1552734E-5,-3.8146973E-4,0.0013427734,2.0,0.0,0.0,0.0,0.0,0.0,0.0,0.0,0.0,0.0,2017-10-18 22:09:13,19.173003265296227
0.0,0.0,0.0,9.1552734E-5,8.392334E-4,-0.0010986328,2.0,0.0,0.0,0.0,0.0,0.0,0.0,0.0,0.0,0.0,2017-10-18 22:09:14,25.011084943102464
0.0,0.0,0.0,-0.0011291504,8.392334E-4,1.2207031E-4,2.0,0.0,0.0,0.0,0.0,0.0,0.0,0.0,0.0,0.0,2017-10-18 22:09:15,28.1004234647563
0.0,0.0,0.0,-0.0011291504,-0.0077056885,0.008666992,2.0,0.0,0.0,0.0,0.0,0.0,0.0,0.0,0.0,0.0,2017-10-18 22:09:16,30.29043083139024
0.0,0.0,0.0,9.1552734E-5,0.004501343,-0.0010986328,2.0,0.0,0.0,0.0,0.0,0.0,0.0,0.0,0.0,0.0,2017-10-18 22:09:17,22.553478969066205
0.0,0.0,0.0,-0.006011963,-0.011383057,-0.003540039,2.0,0.0,0.0,0.0,0.0,0.0,0.0,0.0,0.0,0.0,2017-10-18 22:09:18,28.983634616461813
0.0,0.0,0.0,-0.0011291504,-0.004043579,0.0013427734,2.0,0.0,0.0,0.0,0.0,0.0,0.0,0.0,0.0,0.0,2017-10-18 22:09:19,34.77453860231512
0.0,0.0,0.0,-0.0023498535,-0.004043579,0.005004883,2.0,0.0,0.0,0.0,0.0,0.0,0.0,0.0,0.0,0.0,2017-10-18 22:09:20,24.40636087045391
0.0,0.0,0.0,9.1552734E-5,-0.0016021729,1.2207031E-4,2.0,0.0,0.0,0.0,0.0,0.0,0.0,0.0,0.0,0.0,2017-10-18 22:09:21,27.57697254064048
0.0,0.0,0.0,9.1552734E-5,8.392334E-4,1.2207031E-4,2.0,0.0,0.0,0.0,0.0,0.0,0.0,0.0,0.0,0.0,2017-10-18 22:09:22,32.28709862882236
0.0,0.0,0.0,-0.0011291504,-0.0077056885,1.2207031E-4,2.0,0.0,0.0,0.0,0.0,0.0,0.0,0.0,0.0,0.0,2017-10-18 22:09:23,20.81217873443995
0.0,0.0,0.0,-0.0011291504,-0.004043579,-0.0010986328,2.0,0.0,0.0,0.0,0.0,0.0,0.0,0.0,0.0,0.0,2017-10-18 22:09:24,27.397391775971222
0.0,0.0,0.0,9.1552734E-5,8.392334E-4,0.0025634766,2.0,0.0,0.0,0.0,0.0,0.0,0.0,0.0,0.0,0.0,2017-10-18 22:09:25,31.278546455491703
0.0,0.0,0.0,9.1552734E-5,-0.002822876,-0.0010986328,2.0,0.0,0.0,0.0,0.0,0.0,0.0,0.0,0.0,0.0,2017-10-18 22:09:26,26.727225730031293
0.0,0.0,0.0,9.1552734E-5,-3.8146973E-4,0.0013427734,2.0,0.0,0.0,0.0,0.0,0.0,0.0,0.0,0.0,0.0,2017-10-18 22:09:27,27.76554775564395
0.0,0.0,0.0,-0.0011291504,-3.8146973E-4,1.2207031E-4,2.0,0.0,0.0,0.0,0.0,0.0,0.0,0.0,0.0,0.0,2017-10-18 22:09:28,24.816933862420484
0.0,0.0,0.0,0.0013122559,8.392334E-4,0.0013427734,2.0,0.0,0.0,0.0,0.0,0.0,0.0,0.0,0.0,0.0,2017-10-18 22:09:29,31.60579660420988
0.0,0.0,0.0,-0.0011291504,-3.8146973E-4,0.0013427734,2.0,0.0,0.0,0.0,0.0,0.0,0.0,0.0,0.0,0.0,2017-10-18 22:09:30,29.8340426328378
0.0,0.0,0.0,9.1552734E-5,8.392334E-4,-0.0010986328,2.0,0.0,0.0,0.0,0.0,0.0,0.0,0.0,0.0,0.0,2017-10-18 22:09:32,23.268317131064038
0.0,0.0,0.0,9.1552734E-5,-3.8146973E-4,0.0013427734,2.0,0.0,0.0,0.0,0.0,0.0,0.0,0.0,0.0,0.0,2017-10-18 22:09:33,20.080876041632525
0.0,0.0,0.0,9.1552734E-5,0.0020599365,1.2207031E-4,2.0,0.0,0.0,0.0,0.0,0.0,0.0,0.0,0.0,0.0,2017-10-18 22:09:34,22.74042330049831
0.0,0.0,0.0,9.1552734E-5,-0.0016021729,0.0013427734,2.0,0.0,0.0,0.0,0.0,0.0,0.0,0.0,0.0,0.0,2017-10-18 22:09:35,31.071580123661494
0.0,0.0,0.0,9.1552734E-5,0.0020599365,1.2207031E-4,2.0,0.0,0.0,0.0,0.0,0.0,0.0,0.0,0.0,0.0,2017-10-18 22:09:36,25.191837828928314
0.0,0.0,0.0,0.0013122559,0.0032958984,1.2207031E-4,2.0,0.0,0.0,0.0,0.0,0.0,0.0,0.0,0.0,0.0,2017-10-18 22:09:37,27.617975023437957
0.0,0.0,0.0,9.1552734E-5,-3.8146973E-4,-0.0023345947,2.0,0.0,0.0,0.0,0.0,0.0,0.0,0.0,0.0,0.0,2017-10-18 22:09:38,26.09365931045904
0.0,0.0,0.0,9.1552734E-5,-0.004043579,-0.003540039,2.0,0.0,0.0,0.0,0.0,0.0,0.0,0.0,0.0,0.0,2017-10-18 22:09:39,25.72077985277427
0.0,0.0,0.0,9.1552734E-5,8.392334E-4,-0.003540039,2.0,0.0,0.0,0.0,0.0,0.0,0.0,0.0,0.0,0.0,2017-10-18 22:09:40,46.35800445745876
0.0,0.0,0.0,0.0013122559,8.392334E-4,-0.003540039,2.0,0.0,0.0,0.0,0.0,0.0,0.0,0.0,0.0,0.0,2017-10-18 22:09:41,49.29411485164211
0.0,0.0,0.0,9.1552734E-5,-0.0016021729,-0.003540039,2.0,0.0,0.0,0.0,0.0,0.0,0.0,0.0,0.0,0.0,2017-10-18 22:09:42,21.9032294214489
0.0,0.0,0.0,9.1552734E-5,-3.8146973E-4,-0.003540039,2.0,0.0,0.0,0.0,0.0,0.0,0.0,0.0,0.0,0.0,2017-10-18 22:09:43,25.087779365363218
0.0,0.0,0.0,0.0013122559,-3.8146973E-4,-0.003540039,2.0,0.0,0.0,0.0,0.0,0.0,0.0,0.0,0.0,0.0,2017-10-18 22:09:44,27.512105181560592
0.0,0.0,0.0,9.1552734E-5,-0.0016021729,-0.003540039,2.0,0.0,0.0,0.0,0.0,0.0,0.0,0.0,0.0,0.0,2017-10-18 22:09:45,28.562368971337698
0.0,0.0,0.0,9.1552734E-5,-3.8146973E-4,-0.004776001,2.0,0.0,0.0,0.0,0.0,0.0,0.0,0.0,0.0,0.0,2017-10-18 22:09:46,20.513756442311433
0.0,0.0,0.0,9.1552734E-5,8.392334E-4,-0.004776001,2.0,0.0,0.0,0.0,0.0,0.0,0.0,0.0,0.0,0.0,2017-10-18 22:09:47,18.702392577344728
0.0,0.0,0.0,0.0013122559,-0.0016021729,-0.0059814453,2.0,0.0,0.0,0.0,0.0,0.0,0.0,0.0,0.0,0.0,2017-10-18 22:09:48,19.351213557716058
0.0,0.0,0.0,-0.0011291504,-0.005264282,-0.003540039,2.0,0.0,0.0,0.0,0.0,0.0,0.0,0.0,0.0,0.0,2017-10-18 22:09:49,28.953888744796945
0.0,0.0,0.0,-0.0011291504,-0.0016021729,-0.0059814453,2.0,0.0,0.0,0.0,0.0,0.0,0.0,0.0,0.0,0.0,2017-10-18 22:09:50,28.00778275477276
0.0,0.0,0.0,9.1552734E-5,0.006942749,-0.003540039,2.0,0.0,0.0,0.0,0.0,0.0,0.0,0.0,0.0,0.0,2017-10-18 22:09:51,26.94429690957083
0.0,0.0,0.0,-0.0011291504,-0.012588501,-0.007217407,2.0,0.0,0.0,0.0,0.0,0.0,0.0,0.0,0.0,0.0,2017-10-18 22:09:52,25.284667540562012
0.0,0.0,0.0,9.1552734E-5,0.004501343,-0.004776001,2.0,0.0,0.0,0.0,0.0,0.0,0.0,0.0,0.0,0.0,2017-10-18 22:09:53,26.745353550986565
0.0,0.0,0.0,0.0061950684,-0.0016021729,-0.007217407,2.0,0.0,0.0,0.0,0.0,0.0,0.0,0.0,0.0,0.0,2017-10-18 22:09:54,33.39553915756819
0.0,0.0,0.0,0.0025482178,-0.027267456,-0.0059814453,2.0,0.0,0.0,0.0,0.0,0.0,0.0,0.0,0.0,0.0,2017-10-18 22:09:55,27.920073527437246
0.0,0.0,0.0,0.0025482178,-0.011383057,-0.0023345947,2.0,0.0,0.0,0.0,0.0,0.0,0.0,0.0,0.0,0.0,2017-10-18 22:09:56,29.788507356072923
0.0,0.0,0.0,9.1552734E-5,-0.005264282,-0.003540039,2.0,0.0,0.0,0.0,0.0,0.0,0.0,0.0,0.0,0.0,2017-10-18 22:09:57,27.410469043172505
0.0,0.0,0.0,9.1552734E-5,-0.002822876,-0.003540039,2.0,0.0,0.0,0.0,0.0,0.0,0.0,0.0,0.0,0.0,2017-10-18 22:09:58,22.53637055383207
0.0,0.0,0.0,9.1552734E-5,-0.002822876,-0.0023345947,2.0,0.0,0.0,0.0,0.0,0.0,0.0,0.0,0.0,0.0,2017-10-18 22:09:59,24.829874102746864
0.0,0.0,0.0,0.003753662,0.021606445,-0.007217407,2.0,0.0,0.0,0.0,0.0,0.0,0.0,0.0,0.0,0.0,2017-10-18 22:10:00,26.023737236030044
0.0,0.0,0.0,-0.0047912598,-0.027267456,1.2207031E-4,2.0,0.0,0.0,0.0,0.0,0.0,0.0,0.0,0.0,0.0,2017-10-18 22:10:01,22.857717311585077
0.0,0.0,0.0,9.1552734E-5,-0.004043579,-0.003540039,2.0,0.0,0.0,0.0,0.0,0.0,0.0,0.0,0.0,0.0,2017-10-18 22:10:02,24.71144965160633
0.0,0.0,0.0,9.1552734E-5,-0.0016021729,-0.0023345947,2.0,0.0,0.0,0.0,0.0,0.0,0.0,0.0,0.0,0.0,2017-10-18 22:10:03,29.932949791526916
0.0,0.0,0.0,0.0013122559,-3.8146973E-4,-0.003540039,2.0,0.0,0.0,0.0,0.0,0.0,0.0,0.0,0.0,0.0,2017-10-18 22:10:04,27.402800176195758
0.0,0.0,0.0,-0.0011291504,-0.002822876,-0.003540039,2.0,0.0,0.0,0.0,0.0,0.0,0.0,0.0,0.0,0.0,2017-10-18 22:10:05,21.40807460008918
0.0,0.0,0.0,9.3078613E-4,0.0011138916,0.0019378662,2.0,0.0,0.0,0.0,0.0,0.0,0.0,0.0,0.0,0.0,2017-10-18 22:10:06,27.1075447657002
0.0,0.0,0.0,-2.89917E-4,0.0011138916,7.019043E-4,2.0,0.0,0.0,0.0,0.0,0.0,0.0,0.0,0.0,0.0,2017-10-18 22:10:07,28.76810295913465
0.0,0.0,0.0,-2.89917E-4,0.0023345947,-5.0354004E-4,2.0,0.0,0.0,0.0,0.0,0.0,0.0,0.0,0.0,0.0,2017-10-18 22:10:08,30.20226580742355
0.0,0.0,0.0,-2.89917E-4,0.0011138916,-5.0354004E-4,2.0,0.0,0.0,0.0,0.0,0.0,0.0,0.0,0.0,0.0,2017-10-18 22:10:09,35.63448452752452
0.0,0.0,0.0,-2.89917E-4,0.004776001,0.0019378662,2.0,0.0,0.0,0.0,0.0,0.0,0.0,0.0,0.0,0.0,2017-10-18 22:10:10,34.423651048890605
0.0,0.0,0.0,9.3078613E-4,0.00843811,7.019043E-4,2.0,0.0,0.0,0.0,0.0,0.0,0.0,0.0,0.0,0.0,2017-10-18 22:10:11,29.585840387481532
0.0,0.0,0.0,9.3078613E-4,0.005996704,-0.0029449463,2.0,0.0,0.0,0.0,0.0,0.0,0.0,0.0,0.0,0.0,2017-10-18 22:10:12,23.452082651960012
0.0,0.0,0.0,-2.89917E-4,-0.003768921,0.0019378662,2.0,0.0,0.0,0.0,0.0,0.0,0.0,0.0,0.0,0.0,2017-10-18 22:10:13,20.69083912890898
0.0,0.0,0.0,9.3078613E-4,0.0023345947,0.0031585693,2.0,0.0,0.0,0.0,0.0,0.0,0.0,0.0,0.0,0.0,2017-10-18 22:10:14,25.094314581990346
0.0,0.0,0.0,-2.89917E-4,-1.0681152E-4,7.019043E-4,2.0,0.0,0.0,0.0,0.0,0.0,0.0,0.0,0.0,0.0,2017-10-18 22:10:15,31.40162721021229
0.0,0.0,0.0,-2.89917E-4,0.007232666,-0.001739502,2.0,0.0,0.0,0.0,0.0,0.0,0.0,0.0,0.0,0.0,2017-10-18 22:10:16,31.80452047215594
0.0,0.0,0.0,-0.0015106201,-0.0025634766,7.019043E-4,2.0,0.0,0.0,0.0,0.0,0.0,0.0,0.0,0.0,0.0,2017-10-18 22:10:17,33.083622915528295
0.0,0.0,0.0,-2.89917E-4,0.014556885,-5.0354004E-4,2.0,0.0,0.0,0.0,0.0,0.0,0.0,0.0,0.0,0.0,2017-10-18 22:10:18,43.597710860600394
0.0,0.0,0.0,9.3078613E-4,0.0011138916,7.019043E-4,2.0,0.0,0.0,0.0,0.0,0.0,0.0,0.0,0.0,0.0,2017-10-18 22:10:19,18.698090501887407
0.0,0.0,0.0,9.3078613E-4,-1.0681152E-4,7.019043E-4,2.0,0.0,0.0,0.0,0.0,0.0,0.0,0.0,0.0,0.0,2017-10-18 22:10:21,22.85117588335676
0.0,0.0,0.0,9.3078613E-4,0.0011138916,0.0019378662,2.0,0.0,0.0,0.0,0.0,0.0,0.0,0.0,0.0,0.0,2017-10-18 22:10:22,27.8080768712067
0.0,0.0,0.0,-0.0015106201,0.0023345947,0.0043792725,2.0,0.0,0.0,0.0,0.0,0.0,0.0,0.0,0.0,0.0,2017-10-18 22:10:23,29.100045662741934
0.0,0.0,0.0,-2.89917E-4,-0.005004883,-5.0354004E-4,2.0,0.0,0.0,0.0,0.0,0.0,0.0,0.0,0.0,0.0,2017-10-18 22:10:24,27.600276407647804
0.0,0.0,0.0,-0.0015106201,0.0023345947,0.0019378662,2.0,0.0,0.0,0.0,0.0,0.0,0.0,0.0,0.0,0.0,2017-10-18 22:10:25,29.62162084660646
0.0,0.0,0.0,-2.89917E-4,-1.0681152E-4,7.019043E-4,2.0,0.0,0.0,0.0,0.0,0.0,0.0,0.0,0.0,0.0,2017-10-18 22:10:26,27.40785673804639
0.0,0.0,0.0,-2.89917E-4,0.0011138916,7.019043E-4,2.0,0.0,0.0,0.0,0.0,0.0,0.0,0.0,0.0,0.0,2017-10-18 22:10:27,27.492820780892785
0.0,0.0,0.0,9.3078613E-4,0.0035552979,7.019043E-4,2.0,0.0,0.0,0.0,0.0,0.0,0.0,0.0,0.0,0.0,2017-10-18 22:10:28,22.686876431302977
0.0,0.0,0.0,-2.89917E-4,-0.006210327,0.0055999756,2.0,0.0,0.0,0.0,0.0,0.0,0.0,0.0,0.0,0.0,2017-10-18 22:10:29,22.442655209011516
0.0,0.0,0.0,-2.89917E-4,-1.0681152E-4,7.019043E-4,2.0,0.0,0.0,0.0,0.0,0.0,0.0,0.0,0.0,0.0,2017-10-18 22:10:30,22.50774399338357
0.0,0.0,0.0,-2.89917E-4,-1.0681152E-4,0.0031585693,2.0,0.0,0.0,0.0,0.0,0.0,0.0,0.0,0.0,0.0,2017-10-18 22:10:31,27.475623087396265
0.0,0.0,0.0,9.3078613E-4,0.007232666,-5.0354004E-4,2.0,0.0,0.0,0.0,0.0,0.0,0.0,0.0,0.0,0.0,2017-10-18 22:10:32,29.831496772573118
0.0,0.0,0.0,-2.89917E-4,0.0011138916,7.019043E-4,2.0,0.0,0.0,0.0,0.0,0.0,0.0,0.0,0.0,0.0,2017-10-18 22:10:33,31.633426349581807
0.0,0.0,0.0,-2.89917E-4,0.0011138916,0.0019378662,2.0,0.0,0.0,0.0,0.0,0.0,0.0,0.0,0.0,0.0,2017-10-18 22:10:34,23.6641711989532
0.0,0.0,0.0,-0.0015106201,0.0035552979,0.0019378662,2.0,0.0,0.0,0.0,0.0,0.0,0.0,0.0,0.0,0.0,2017-10-18 22:10:35,23.084410169182995
0.0,0.0,0.0,-2.89917E-4,0.0023345947,0.0019378662,2.0,0.0,0.0,0.0,0.0,0.0,0.0,0.0,0.0,0.0,2017-10-18 22:10:36,28.4509319295058
0.0,0.0,0.0,-2.89917E-4,0.0035552979,0.0031585693,2.0,0.0,0.0,0.0,0.0,0.0,0.0,0.0,0.0,0.0,2017-10-18 22:10:37,31.79936242283318
0.0,0.0,0.0,-2.89917E-4,0.0023345947,7.019043E-4,2.0,0.0,0.0,0.0,0.0,0.0,0.0,0.0,0.0,0.0,2017-10-18 22:10:38,25.69331838957599
0.0,0.0,0.0,9.3078613E-4,0.0023345947,7.019043E-4,2.0,0.0,0.0,0.0,0.0,0.0,0.0,0.0,0.0,0.0,2017-10-18 22:10:39,24.35010258985942
0.0,0.0,0.0,-2.89917E-4,0.0035552979,0.0031585693,2.0,0.0,0.0,0.0,0.0,0.0,0.0,0.0,0.0,0.0,2017-10-18 22:10:40,23.78823582507918
0.0,0.0,0.0,-2.89917E-4,0.0023345947,0.0031585693,2.0,0.0,0.0,0.0,0.0,0.0,0.0,0.0,0.0,0.0,2017-10-18 22:10:41,21.480963126016025
0.0,0.0,0.0,-2.89917E-4,0.0023345947,0.0019378662,2.0,0.0,0.0,0.0,0.0,0.0,0.0,0.0,0.0,0.0,2017-10-18 22:10:42,21.087658046879568
0.0,0.0,0.0,-2.89917E-4,-1.0681152E-4,0.0031585693,2.0,0.0,0.0,0.0,0.0,0.0,0.0,0.0,0.0,0.0,2017-10-18 22:10:43,23.499752869057996
0.0,0.0,0.0,-2.89917E-4,0.0011138916,0.0019378662,2.0,0.0,0.0,0.0,0.0,0.0,0.0,0.0,0.0,0.0,2017-10-18 22:10:44,22.756783913530967
0.0,0.0,0.0,-2.89917E-4,0.0023345947,0.0031585693,2.0,0.0,0.0,0.0,0.0,0.0,0.0,0.0,0.0,0.0,2017-10-18 22:10:45,21.42741327355811
0.0,0.0,0.0,-2.89917E-4,0.0011138916,7.019043E-4,2.0,0.0,0.0,0.0,0.0,0.0,0.0,0.0,0.0,0.0,2017-10-18 22:10:46,28.1054753612967
0.0,0.0,0.0,-2.89917E-4,-1.0681152E-4,0.0031585693,2.0,0.0,0.0,0.0,0.0,0.0,0.0,0.0,0.0,0.0,2017-10-18 22:10:47,27.117400241493645
0.0,0.0,0.0,-2.89917E-4,0.0035552979,0.0019378662,2.0,0.0,0.0,0.0,0.0,0.0,0.0,0.0,0.0,0.0,2017-10-18 22:10:48,22.94390438468932
0.0,0.0,0.0,-2.89917E-4,0.0023345947,7.019043E-4,2.0,0.0,0.0,0.0,0.0,0.0,0.0,0.0,0.0,0.0,2017-10-18 22:10:49,26.463960671811776
0.0,0.0,0.0,-2.89917E-4,0.005996704,-0.001739502,2.0,0.0,0.0,0.0,0.0,0.0,0.0,0.0,0.0,0.0,2017-10-18 22:10:50,29.743375140164005
0.0,0.0,0.0,-2.89917E-4,0.0035552979,0.0031585693,2.0,0.0,0.0,0.0,0.0,0.0,0.0,0.0,0.0,0.0,2017-10-18 22:10:51,25.703787350219528
0.0,0.0,0.0,0.0033721924,0.030441284,-0.0029449463,2.0,0.0,0.0,0.0,0.0,0.0,0.0,0.0,0.0,0.0,2017-10-18 22:10:52,26.29564085137843
0.0,0.0,0.0,-2.89917E-4,0.0011138916,0.0031585693,2.0,0.0,0.0,0.0,0.0,0.0,0.0,0.0,0.0,0.0,2017-10-18 22:10:53,47.93479793685443
0.0,0.0,0.0,-2.89917E-4,0.0011138916,0.0055999756,2.0,0.0,0.0,0.0,0.0,0.0,0.0,0.0,0.0,0.0,2017-10-18 22:10:54,49.87306919970773
0.0,0.0,0.0,-0.0015106201,0.0011138916,0.0031585693,2.0,0.0,0.0,0.0,0.0,0.0,0.0,0.0,0.0,0.0,2017-10-18 22:10:55,29.43693872151374
