ACC_X,ACC_Y,ACC_Z,GYRO_X,GYRO_Y,GYRO_Z,LIGH_1,GRAV_X,GRAV_Y,GRAV_Z,LINACC_X,LINACC_Y,LINACC_Z,ROTVEC_X,ROTVEC_Y,ROTVEC_Z,TIME,VOICE
6.7923503,-6.603208,2.456451,0.0062432485,0.01193176,-0.011391405,2.0,2.9125464,-1.2050316,9.286211,3.879804,-5.3981767,-6.8297596,0.03772323,-0.15845513,0.57808465,2017-10-04 20:59:08,56.573160180103095
6.8809357,-6.505046,2.5881321,-0.0033273534,0.034265827,0.033348635,3.0,6.1372366,-5.1397524,5.6645317,0.7436989,-1.3652935,-3.0763996,-0.024224764,-0.45891094,0.5335409,2017-10-04 20:59:09,48.512196927350075
9.610326,-4.4699745,2.566584,0.53677106,1.1101632,-0.039089877,3.0,8.58052,-3.4856584,3.2240918,1.029806,-0.9843162,-0.65750766,0.0932954,-0.571761,0.42437908,2017-10-04 20:59:10,53.770728704750425
6.327875,-0.36631286,6.847417,1.2675459,1.0217385,-0.5962232,13.0,6.819135,-0.19422962,7.044789,-0.49126026,-0.17208324,-0.197372,0.20767969,-0.31253457,0.5347765,2017-10-04 20:59:11,50.29949524224115
2.3630772,0.22266077,9.334992,-0.011836952,0.07152345,0.016303873,12.0,2.3213282,0.37693712,9.520393,0.041748893,-0.15427637,-0.185401,0.083566,-0.08722024,0.5629383,2017-10-04 20:59:12,43.460836921374565
2.3247697,0.17238252,9.370906,-0.0022506374,0.0044139232,3.2490565E-4,8.0,2.3138463,0.252289,9.526379,0.010923545,-0.07990648,-0.15547347,0.078224584,-0.09038837,0.56446904,2017-10-04 20:59:14,47.60477037033448
2.1404164,0.33279404,9.533711,0.0030724888,-0.0072970614,0.0013901701,12.0,2.210746,0.20964229,9.551817,-0.07032967,0.12315175,-0.01810615,0.07353115,-0.087072074,0.5664713,2017-10-04 20:59:15,48.78576652188365
2.006341,0.055066638,9.26556,-0.06510337,-0.12021749,0.018434402,12.0,2.1787236,0.20679916,9.559299,-0.17238252,-0.15173253,-0.29373863,0.07254574,-0.085722625,0.56733423,2017-10-04 20:59:16,48.860452275914845
2.1021092,0.20350714,9.416395,-1.2383699E-4,1.605886E-4,-7.403588E-4,12.0,2.1245546,0.21817163,9.57112,-0.022445641,-0.014664485,-0.15472528,0.07145613,-0.08304486,0.5679001,2017-10-04 20:59:17,48.026438663626585
2.0973208,0.23463176,9.473856,0.0020042951,0.0044269725,0.0013904364,12.0,2.1149778,0.21173722,9.573365,-0.017657237,0.022894554,-0.09950901,0.070908815,-0.08282213,0.5680036,2017-10-04 20:59:18,47.534262686029074
2.0398598,0.20350714,9.428367,-0.0075828186,0.0012303804,0.0035209653,12.0,2.137274,0.20859483,9.568577,-0.097414084,-0.005087679,-0.14021043,0.071451016,-0.08384992,0.56808656,2017-10-04 20:59:19,46.999756643114445
1.958457,0.07182605,9.564836,0.004131628,0.08539373,0.01204308,12.0,2.1013608,0.20320787,9.576657,-0.14290391,-0.13138182,-0.011821371,0.07016705,-0.082467824,0.56829697,2017-10-04 20:59:20,47.42407787579448
2.1068976,0.20350714,9.442732,-0.003325223,-8.926916E-4,0.0013904364,12.0,2.119467,0.19931729,9.572766,-0.012569559,0.004189853,-0.13003507,0.0705559,-0.08334288,0.5683587,2017-10-04 20:59:21,46.12988987170085
2.0733786,0.260968,9.394848,-0.0011946941,0.0012378372,0.0013904364,12.0,2.1260512,0.20006548,9.57127,-0.05267244,0.060902506,-0.17642274,0.07078422,-0.083597004,0.56841344,2017-10-04 20:59:22,45.678489859613876
2.1260512,0.24181437,9.44752,-0.0033273534,-8.881642E-4,3.2543828E-4,12.0,2.1185691,0.21951836,9.572467,0.0074818805,0.022296004,-0.1249474,0.07138622,-0.082702994,0.5684567,2017-10-04 20:59:23,45.85739377751559
2.1045034,0.23942018,9.411607,6.9907977E-4,2.663161E-4,-0.0023635554,12.0,2.1226094,0.22774844,9.57142,-0.01810615,0.011671733,-0.15981296,0.071850255,-0.082634985,0.56844205,2017-10-04 20:59:24,45.82780187149896
2.1140802,0.22026655,9.43076,-0.0014314491,2.663161E-4,-2.330266E-4,12.0,2.1092918,0.23104046,9.574263,0.0047884034,-0.010773907,-0.14350246,0.07159759,-0.08197361,0.5684665,2017-10-04 20:59:25,44.30772655285548
2.0949266,0.25378537,9.433155,-0.0013315806,0.0015313176,0.0019307918,12.0,2.116175,0.22864626,9.572766,-0.02124854,0.025139118,-0.13961188,0.07170372,-0.082328856,0.5685093,2017-10-04 20:59:26,44.22417193974269
2.0925324,0.18674773,9.433155,7.9894834E-4,-0.0016644757,8.6552737E-4,12.0,2.121562,0.2275988,9.571569,-0.029029695,-0.040851068,-0.13841479,0.071831346,-0.082583755,0.56858593,2017-10-04 20:59:27,45.365213308617385
2.0733786,0.23223756,9.437943,0.0017976337,-4.3276369E-4,-5.659217E-4,12.0,2.12246,0.22744916,9.57142,-0.049081136,0.0047884034,-0.13347675,0.07184886,-0.08262703,0.5685919,2017-10-04 20:59:28,44.256058557563364
2.1212628,0.25139117,9.437943,-3.3289514E-4,-0.001498028,-5.659217E-4,12.0,2.114529,0.23867199,9.572916,0.0067336923,0.012719196,-0.13497312,0.07206908,-0.081975624,0.56841093,2017-10-04 20:59:29,45.29198432507472
2.1140802,0.20111294,9.440337,0.0019640813,-6.9907977E-4,-4.3276369E-4,12.0,2.1151276,0.23089083,9.572916,-0.0010474633,-0.029777884,-0.13257892,0.07175114,-0.08223458,0.5683735,2017-10-04 20:59:30,45.29078223186864
2.1068976,0.21547815,9.40203,-1.6644757E-4,-6.9907977E-4,6.3250074E-4,12.0,2.1187189,0.23657705,9.572019,-0.011821371,-0.021098902,-0.16998832,0.07210408,-0.08222172,0.5683678,2017-10-04 20:59:31,45.61074211430249
2.0614076,0.19393034,9.397242,-3.3289514E-4,-5.9921126E-4,9.653959E-4,12.0,2.1226094,0.23448212,9.57127,-0.06120178,-0.040551793,-0.17402853,0.072132096,-0.08244872,0.5683451,2017-10-04 20:59:32,44.614405330754025
2.078167,0.23702596,9.454702,-3.3289514E-4,0.0015313176,9.653959E-4,12.0,2.120365,0.22685061,9.571869,-0.042197805,0.010175358,-0.11716624,0.071750484,-0.08256292,0.5684777,2017-10-04 20:59:33,44.303387086746795
2.1045034,0.20829555,9.437943,-3.3289514E-4,-5.9921126E-4,-9.986854E-5,12.0,2.1134815,0.22969373,9.573365,-0.008978256,-0.021398177,-0.13542204,0.071673974,-0.082181334,0.56857187,2017-10-04 20:59:34,45.67057242753613
2.0733786,0.22505496,9.473856,7.323693E-4,6.657903E-4,5.9921126E-4,12.0,2.1166239,0.2275988,9.572766,-0.043245267,-0.0025438394,-0.09891046,0.07167406,-0.082379624,0.5684921,2017-10-04 20:59:35,44.1029482422758
2.0973208,0.22026655,9.473856,-3.3289514E-4,0.0017310547,-4.660532E-4,12.0,2.1139305,0.22505496,9.573365,-0.016609775,-0.0047884034,-0.09950901,0.071474895,-0.08235188,0.5683995,2017-10-04 20:59:36,43.58284945435433
2.0709844,0.23702596,9.433155,-3.9947417E-4,-0.0019307918,-4.660532E-4,12.0,2.117821,0.22370823,9.572467,-0.04683657,0.013317747,-0.13931261,0.07153046,-0.08256264,0.5683194,2017-10-04 20:59:37,45.696914116072584
2.0709844,0.18914193,9.43076,-3.9947417E-4,1.9973709E-4,-4.660532E-4,12.0,2.110788,0.22610243,9.573964,-0.0398036,-0.03696049,-0.14320318,0.07140757,-0.082203716,0.56824595,2017-10-04 20:59:38,46.23865471862882
2.1284454,0.18674773,9.435549,-1.3315806E-4,-6.9907977E-4,9.321064E-4,12.0,2.1140802,0.23178865,9.5732155,0.01436521,-0.04504092,-0.1376666,0.07174565,-0.08217248,0.56824356,2017-10-04 20:59:39,45.229224312418346
2.1140802,0.21547815,9.471462,-1.3315806E-4,-6.9907977E-4,0.0019973707,12.0,2.1188686,0.22924481,9.572168,-0.0047884034,-0.013766659,-0.10070611,0.07179872,-0.082435936,0.56837994,2017-10-04 20:59:40,55.533381856157874
2.0374656,0.18674773,9.44752,-0.0021638183,0.0014647386,-3.6618466E-4,12.0,2.12246,0.23567922,9.57127,-0.08499416,-0.048931498,-0.1237503,0.072176896,-0.082408786,0.56833154,2017-10-04 20:59:41,45.31788242923302
2.0925324,0.23463176,9.397242,-3.3289514E-5,-0.0017310547,6.9907977E-4,12.0,2.104952,0.22984336,9.575161,-0.012419921,0.0047884034,-0.17791912,0.07140905,-0.081830755,0.5684256,2017-10-04 20:59:43,47.37690727880626
2.1045034,0.21787235,9.435549,-1.9973709E-4,-7.9894834E-4,7.656588E-4,12.0,2.1170728,0.23133974,9.572467,-0.012569559,-0.0134673845,-0.13691841,0.07183446,-0.08230387,0.56837076,2017-10-04 20:59:44,50.26576886802023
2.0829554,0.25378537,9.461885,-0.0012650015,2.663161E-4,7.656588E-4,12.0,2.1160254,0.24046764,9.572467,-0.033069912,0.013317747,-0.11058219,0.07218179,-0.08199617,0.56833035,2017-10-04 20:59:45,47.77617406060369
2.0853498,0.22505496,9.433155,-9.986854E-5,0.0027630297,5.326322E-4,12.0,2.123208,0.23642741,9.570971,-0.037858315,-0.011372458,-0.13781624,0.072223544,-0.08241922,0.56829804,2017-10-04 20:59:46,49.57317063637148
2.111686,0.2633622,9.442732,-9.986854E-5,-4.3276369E-4,-5.326322E-4,12.0,2.1136312,0.23867199,9.573066,-0.0019452889,0.024690205,-0.13033436,0.07202637,-0.081954524,0.5682638,2017-10-04 20:59:47,44.75221989197388
2.0829554,0.23463176,9.457097,-9.986854E-5,6.3250074E-4,-5.326322E-4,12.0,2.1149778,0.24645314,9.572617,-0.032022446,-0.011821371,-0.11552023,0.07238347,-0.081791,0.56816167,2017-10-04 20:59:48,46.02714226918909
2.0853498,0.21787235,9.425972,-2.9960563E-4,0.002330266,-3.9947417E-4,12.0,2.1055508,0.23178865,9.575011,-0.020201078,-0.013916298,-0.14903906,0.071485616,-0.08182411,0.5681793,2017-10-04 20:59:49,45.20995662228508
2.111686,0.22505496,9.423578,7.656588E-4,0.002330266,0.0017310547,12.0,2.09762,0.2220622,9.576957,0.014065935,0.002992752,-0.15337855,0.07084364,-0.08176303,0.5682315,2017-10-04 20:59:50,46.40907226683416
2.0566192,0.21787235,9.473856,7.837683E-4,1.619202E-4,-4.002731E-4,12.0,2.0849009,0.24046764,9.57935,-0.028281508,-0.022595279,-0.105494514,0.07123622,-0.08069153,0.5681998,2017-10-04 20:59:51,44.983248523122725
2.0446482,0.23223756,9.476251,7.8137143E-4,-8.9881686E-4,-4.000068E-4,12.0,2.1167736,0.25243863,9.572019,-0.07212532,-0.020201078,-0.095768064,0.07267347,-0.081703305,0.5679944,2017-10-04 20:59:52,62.68613632928121
2.0805612,0.24181437,9.414001,-0.0013494237,-8.980179E-4,-4.000068E-4,12.0,2.1089923,0.2427122,9.573964,-0.028431145,-8.9782564E-4,-0.1599626,0.07203147,-0.08166267,0.56798476,2017-10-04 20:59:53,44.611613969084694
2.0350714,0.20590134,9.437943,7.739146E-4,0.0012471583,-0.0014652712,12.0,2.105401,0.24106619,9.574862,-0.07032967,-0.035164837,-0.13691841,0.07184738,-0.08156352,0.5679255,2017-10-04 20:59:54,44.0519549187819
2.0757728,0.25857377,9.387665,0.0028628982,-0.0049268478,0.0010652645,12.0,2.1048026,0.23762453,9.575011,-0.029029695,0.020949265,-0.18734628,0.07168348,-0.08164385,0.567931,2017-10-04 20:59:55,45.07201021706337
2.0638018,0.272939,9.471462,7.323693E-4,3.9947417E-4,0.0,12.0,2.1019595,0.24241292,9.57561,-0.03815759,0.030526072,-0.10414778,0.07181103,-0.08137162,0.5680216,2017-10-04 20:59:56,43.00962259103762
2.0829554,0.24420857,9.435549,-3.6618466E-4,0.0030626352,-1.6644757E-4,12.0,2.0983682,0.24495676,9.576358,-0.015412673,-7.48188E-4,-0.14080898,0.0718134,-0.081137955,0.5680861,2017-10-04 20:59:57,44.38482481771149
2.0446482,0.15083471,9.464279,0.0049601374,-0.0033289513,-0.0033622407,12.0,2.102558,0.23732524,9.57561,-0.057909753,-0.086490534,-0.11133038,0.07162374,-0.081537634,0.5681276,2017-10-04 20:59:58,52.59726941715151
2.0398598,0.24420857,9.433155,0.0028296087,-0.0011984225,-0.0012317119,12.0,2.141314,0.21278468,9.56753,-0.101454295,0.031423897,-0.13437457,0.07176339,-0.08388132,0.5682196,2017-10-04 20:59:59,44.46345188021547
2.0470424,0.22026655,9.442732,6.964166E-4,-1.2783174E-4,-1.6644757E-4,12.0,2.1064487,0.23867199,9.574712,-0.05940613,-0.018405426,-0.13198037,0.071804695,-0.08165541,0.5682066,2017-10-04 21:00:00,43.81629454936267
2.0207062,0.20111294,9.437943,6.929545E-4,0.0020096214,0.0030293458,12.0,2.0911856,0.23956981,9.578004,-0.07047931,-0.038456865,-0.1400608,0.071388625,-0.08097623,0.56828576,2017-10-04 21:00:01,43.61466206916404
2.078167,0.23942018,9.423578,6.3250074E-4,6.3250074E-4,-2.330266E-4,12.0,2.0925324,0.24121583,9.577704,-0.01436521,-0.0017956513,-0.15412673,0.07149763,-0.080988854,0.56825846,2017-10-04 21:00:02,42.12526452511984
2.0709844,0.20829555,9.440337,-4.3276369E-4,-0.001498028,8.322378E-4,12.0,2.100912,0.2347814,9.576058,-0.029927522,-0.026485857,-0.13572131,0.07148002,-0.08152434,0.56827766,2017-10-04 21:00:03,44.689412631166846
2.0733786,0.23223756,9.409213,3.3289514E-5,7.9894834E-4,-3.3289514E-4,12.0,2.0974703,0.23702596,9.576657,-0.024091655,-0.0047884034,-0.16744448,0.07147327,-0.08132021,0.56824034,2017-10-04 21:00:04,40.690193369192116
2.0829554,0.21308395,9.390059,3.3289514E-5,0.0018642128,-3.3289514E-4,12.0,2.0961237,0.2391209,9.576957,-0.01316811,-0.026036944,-0.18689737,0.07151402,-0.081202045,0.5681967,2017-10-04 21:00:05,41.42402666061214
2.030283,0.28491,9.435549,-1.9973709E-4,-4.3276369E-4,-2.9960563E-4,12.0,2.0989666,0.23852235,9.576358,-0.06868366,0.046387658,-0.14080898,0.07157905,-0.0813386,0.56823045,2017-10-04 21:00:06,41.305832653452406
2.0614076,0.23463176,9.454702,8.6552737E-4,0.0016977652,7.656588E-4,12.0,2.0892403,0.23956981,9.578453,-0.027832596,-0.004938041,-0.1237503,0.07133229,-0.08089632,0.5682656,2017-10-04 21:00:07,41.882044132232465
2.0829554,0.22984336,9.425972,9.986854E-5,-7.323693E-4,7.656588E-4,12.0,2.100912,0.24570495,9.575759,-0.017956512,-0.015861586,-0.14978725,0.071935035,-0.08121604,0.5682172,2017-10-04 21:00:08,41.191428038911695
2.0805612,0.21308395,9.44752,0.0022303974,0.0013981595,-2.9960563E-4,12.0,2.105401,0.24884734,9.574712,-0.024839843,-0.035763387,-0.12719196,0.07220583,-0.08130963,0.56825167,2017-10-04 21:00:09,40.33176166287827
2.0949266,0.2777274,9.459491,9.986854E-4,-0.002197108,3.9947417E-4,12.0,2.110489,0.25423428,9.573365,-0.015562311,0.023493104,-0.11387422,0.07258441,-0.08136293,0.56826895,2017-10-04 21:00:10,40.420939530543556
2.030283,0.25857377,9.421184,-6.657903E-5,-6.657903E-5,3.9947417E-4,12.0,2.1028574,0.24794951,9.575161,-0.072574235,0.01062427,-0.1539771,0.072086245,-0.08123107,0.56820744,2017-10-04 21:00:11,40.05079249360821
2.0709844,0.19153613,9.435549,9.986854E-4,-6.657903E-5,-6.657903E-4,12.0,2.104952,0.24001873,9.575011,-0.033967737,-0.048482586,-0.13946225,0.07181323,-0.08155164,0.5681558,2017-10-04 21:00:13,38.90969920720244
2.1021092,0.20350714,9.41879,-3.9947417E-4,7.9894834E-4,7.323693E-4,12.0,2.0949266,0.22714989,9.577555,0.007182605,-0.023642741,-0.1587655,0.07096911,-0.08150646,0.568175,2017-10-04 21:00:14,38.35837934435136
2.0805612,0.20111294,9.416395,-0.0014647386,7.9894834E-4,-3.3289514E-4,12.0,2.0902877,0.23298575,9.578303,-0.009726444,-0.03187281,-0.1619079,0.07107575,-0.08114065,0.56814986,2017-10-04 21:00:15,39.88866788850786
2.0278888,0.22266077,9.433155,-6.657903E-5,-0.0017643442,7.9894834E-4,12.0,2.0907366,0.23463176,9.578154,-0.06284779,-0.011971008,-0.14499883,0.07115932,-0.08111258,0.56815535,2017-10-04 21:00:16,39.21396659525072
2.0614076,0.24420857,9.425972,9.986854E-4,3.6618466E-4,-0.0013315806,12.0,2.0892403,0.23448212,9.578603,-0.027832596,0.009726444,-0.15263036,0.07111341,-0.08105208,0.56820744,2017-10-04 21:00:17,38.65838987655277
2.0350714,0.2801216,9.461885,-3.9947417E-4,-4.660532E-4,0.0019307918,12.0,2.098817,0.2451064,9.576208,-0.06374562,0.0350152,-0.11432313,0.07184453,-0.08114886,0.5681657,2017-10-04 21:00:18,40.57926270345735
2.078167,0.2777274,9.442732,-3.9947417E-4,5.9921126E-4,8.6552737E-4,12.0,2.0928316,0.23298575,9.577854,-0.014664485,0.044741645,-0.13512276,0.07116461,-0.08124173,0.56830174,2017-10-04 21:00:19,39.15228789630152
2.0494366,0.23463176,9.445126,-1.9973709E-4,0.0015978967,-0.0015646071,12.0,2.1013608,0.2335843,9.575909,-0.05192425,0.0010474633,-0.13078327,0.07143976,-0.08158721,0.5682108,2017-10-04 21:00:20,39.69024931083018
2.0638018,0.22026655,9.454702,-0.0012650015,5.326322E-4,5.659217E-4,12.0,2.1018097,0.23747487,9.575759,-0.038007952,-0.017208325,-0.121056825,0.07160358,-0.08150208,0.56811506,2017-10-04 21:00:21,38.54624338153763
2.1021092,0.22984336,9.437943,-0.0013315806,4.660532E-4,8.322378E-4,12.0,2.0953753,0.240318,9.577106,0.0067336923,-0.0104746325,-0.13916297,0.07152773,-0.08114603,0.5681135,2017-10-04 21:00:22,38.710383006201795
2.0374656,0.23942018,9.435549,-2.663161E-4,4.660532E-4,8.322378E-4,12.0,2.1004632,0.23956981,9.575909,-0.06299743,-1.496376E-4,-0.14036007,0.07165952,-0.08138166,0.5681825,2017-10-04 21:00:23,40.063430939703665
2.0135236,0.17477672,9.454702,0.0020306604,-5.9921126E-4,5.9921126E-4,12.0,2.1004632,0.24435821,9.575909,-0.08693945,-0.06958149,-0.12120646,0.07186254,-0.081233084,0.568178,2017-10-04 21:00:24,40.31591761907443
2.0254946,0.19632454,9.471462,-0.001165133,-0.0016644757,-4.660532E-4,12.0,2.0896893,0.23044191,9.578603,-0.06419453,-0.034117375,-0.107140526,0.07096102,-0.08117662,0.56828266,2017-10-04 21:00:25,39.60371240619544
2.0638018,0.272939,9.416395,0.0072238245,-0.0019640813,-0.0015978967,12.0,2.0880432,0.2439093,9.578603,-0.024241293,0.029029695,-0.16220717,0.071470514,-0.08072606,0.5682016,2017-10-04 21:00:26,39.72138990255738
2.0398598,0.25378537,9.459491,0.0018975022,-8.9881686E-4,-0.0015978967,12.0,2.0913353,0.24779987,9.577704,-0.051475335,0.005985504,-0.118213706,0.07172402,-0.080756396,0.5681146,2017-10-04 21:00:27,40.96965856973573
2.0638018,0.25139117,9.473856,-2.330266E-4,-8.9881686E-4,5.326322E-4,12.0,2.0956748,0.24241292,9.576957,-0.03187281,0.008978256,-0.10310031,0.07162949,-0.08110033,0.5680763,2017-10-04 21:00:28,39.59103700235592
2.0350714,0.2633622,9.425972,-0.0015313176,0.0028628982,-5.326322E-4,12.0,2.0919337,0.23897126,9.577854,-0.05686229,0.02439093,-0.15188217,0.07136202,-0.081048355,0.5680155,2017-10-04 21:00:29,38.36776404149287
2.0398598,0.16519992,9.440337,5.9921126E-4,0.0017976337,-5.326322E-4,12.0,2.0913353,0.23313539,9.578154,-0.051475335,-0.067935474,-0.13781624,0.07109131,-0.08119734,0.56793374,2017-10-04 21:00:30,40.0751957880434
2.0398598,0.22266077,9.466674,-4.5779737E-4,-0.0014160027,-5.331648E-4,12.0,2.0907366,0.24001873,9.578154,-0.050876785,-0.017357962,-0.11148002,0.07134442,-0.08099109,0.567774,2017-10-04 21:00:31,39.50441873044386
2.0925324,0.24899697,9.457097,0.0016679377,7.2464615E-4,-0.0015981629,12.0,2.0895395,0.24555531,9.578154,0.002992752,0.0034416649,-0.121056825,0.071529984,-0.08079256,0.56759125,2017-10-04 21:00:32,41.08455215412357
2.0207062,0.25139117,9.437943,-2.663161E-4,5.9921126E-4,-4.3276369E-4,12.0,2.0920835,0.23971945,9.577854,-0.071377136,0.011671733,-0.13991116,0.07135513,-0.08107385,0.56757814,2017-10-04 21:00:33,51.388747648467515
2.0590134,0.24899697,9.457097,0.0018642128,5.9921126E-4,-4.3276369E-4,12.0,2.0916345,0.23927054,9.577854,-0.032621,0.009726444,-0.12075755,0.07132804,-0.08106212,0.56764644,2017-10-04 21:00:34,40.327763003069556
2.0853498,0.21308395,9.442732,-2.9960563E-4,-0.0012317119,-5.9921126E-4,12.0,2.0986674,0.24001873,9.576358,-0.013317747,-0.026934769,-0.13362639,0.07157026,-0.081330925,0.5676754,2017-10-04 21:00:35,40.75290955290676
2.0709844,0.19393034,9.423578,7.656588E-4,-1.6644757E-4,-5.9921126E-4,12.0,2.0952258,0.24301147,9.577106,-0.024241293,-0.049081136,-0.15352818,0.071594894,-0.081101835,0.56762356,2017-10-04 21:00:36,38.07071358262312
2.042254,0.23463176,9.433155,7.656588E-4,8.9881686E-4,-5.9921126E-4,12.0,2.0887914,0.2391209,9.578603,-0.046537295,-0.004489128,-0.14544775,0.07123683,-0.08094737,0.56762904,2017-10-04 21:00:37,40.84891946124706
2.0566192,0.24181437,9.437943,5.659217E-4,-8.9881686E-4,5.9921126E-4,12.0,2.0847511,0.24211365,9.57935,-0.02813187,-2.992752E-4,-0.14140753,0.07123612,-0.08068998,0.5675599,2017-10-04 21:00:38,37.54631422796504
2.0853498,0.23463176,9.478644,5.659217E-4,-8.9881686E-4,-4.660532E-4,12.0,2.0874445,0.2503437,9.578603,-0.0020949265,-0.015711948,-0.09995792,0.071658,-0.080572546,0.56748825,2017-10-04 21:00:39,38.74022890490799
2.0638018,0.29209262,9.445126,8.322378E-4,1.6644757E-4,-0.0013315806,12.0,2.0816088,0.2451064,9.579949,-0.017806875,0.046986207,-0.13482349,0.07127496,-0.08046967,0.56760734,2017-10-04 21:00:40,39.2932326461407
2.0374656,0.2753332,9.414001,8.322378E-4,0.0012317119,7.9894834E-4,12.0,2.085649,0.21951836,9.57965,-0.04818331,0.05581483,-0.16564883,0.07033956,-0.081365496,0.56784993,2017-10-04 21:00:41,42.176278498172415
2.1092918,0.24660277,9.454702,0.004021373,0.006571616,7.9894834E-4,12.0,2.0796635,0.2415151,9.580399,0.029628245,0.005087679,-0.12569559,0.07108861,-0.08047107,0.5678937,2017-10-04 21:00:42,41.61222593956527
2.0470424,0.20829555,9.461885,-0.0023720777,-0.0019467707,-2.663161E-4,12.0,2.099266,0.23163901,9.576358,-0.052223526,-0.023343466,-0.11447277,0.07126984,-0.08158031,0.56797284,2017-10-04 21:00:43,42.82280019682907
2.0733786,0.25139117,9.43076,8.237157E-4,0.00551008,7.9894834E-4,12.0,2.0790648,0.23313539,9.580847,-0.005686229,0.018255789,-0.15008652,0.07074517,-0.080666274,0.5681235,2017-10-04 21:00:45,41.55836250305744
2.0685902,0.25617957,9.437943,-2.4314661E-4,0.001251952,0.001864479,12.0,2.0968719,0.24405894,9.576657,-0.028281508,0.012120646,-0.13871406,0.071734615,-0.0811017,0.56811684,2017-10-04 21:00:46,46.18055940226892
2.0757728,0.23942018,9.52174,-2.412824E-4,1.8295916E-4,-2.663161E-4,12.0,2.0862474,0.24061728,9.579051,-0.0104746325,-0.0011971008,-0.057311203,0.071288,-0.08074002,0.5682984,2017-10-04 21:00:47,44.91371455226361
2.0494366,0.2633622,9.433155,8.234494E-4,0.002314287,7.9894834E-4,12.0,2.079364,0.23747487,9.580547,-0.029927522,0.025887307,-0.14739305,0.0709619,-0.08052862,0.56840163,2017-10-04 21:00:48,47.90646824656187
2.0374656,0.260968,9.459491,-4.660532E-4,6.657903E-4,-4.3276369E-4,12.0,2.0849009,0.24735096,9.579201,-0.04743512,0.013617022,-0.11971009,0.07154743,-0.08046377,0.5684895,2017-10-04 21:00:49,49.12839181202691
2.0446482,0.260968,9.423578,5.9921126E-4,-0.0014647386,-4.3276369E-4,12.0,2.0826561,0.24435821,9.5798,-0.038007952,0.016609775,-0.15622166,0.0713632,-0.0804532,0.56855565,2017-10-04 21:00:50,48.91018719628707
2.0470424,0.24660277,9.44752,-0.0015313176,6.657903E-4,6.3250074E-4,12.0,2.088941,0.23777416,9.578603,-0.04189853,0.008828619,-0.13108255,0.07127771,-0.08090711,0.5685988,2017-10-04 21:00:51,46.571243412086844
2.0470424,0.24899697,9.442732,9.321064E-4,-0.0014647386,-0.0018309233,12.0,2.091784,0.24615386,9.577704,-0.044741645,0.0028431145,-0.13497312,0.07170742,-0.080786616,0.568479,2017-10-04 21:00:52,45.68831463095271
2.1428106,0.34237084,9.485827,9.321064E-4,-0.0014647386,2.9960563E-4,12.0,2.0958242,0.24495676,9.576807,0.046986207,0.097414084,-0.090979666,0.07177078,-0.081002,0.5684218,2017-10-04 21:00:53,47.27705896285169
2.018312,0.22505496,9.459491,8.9881686E-4,-0.0014647386,7.323693E-4,12.0,2.086547,0.24884734,9.5787525,-0.06823475,-0.023792379,-0.119261175,0.07165957,-0.08049382,0.5684745,2017-10-04 21:00:54,46.51117767156628
2.0949266,0.24660277,9.411607,8.9881686E-4,6.657903E-4,-3.3289514E-4,12.0,2.079813,0.24720132,9.580249,0.015113398,-5.985504E-4,-0.16864158,0.071404055,-0.080248475,0.5685665,2017-10-04 21:00:55,43.83321656630927
2.018312,0.24181437,9.440337,-3.3289514E-4,8.9881686E-4,3.3289514E-4,12.0,2.0813096,0.24136546,9.580099,-0.06299743,4.4891282E-4,-0.13976152,0.07119961,-0.080484405,0.5685691,2017-10-04 21:00:56,45.19261628774758
2.0350714,0.22505496,9.433155,7.323693E-4,8.9881686E-4,-7.323693E-4,12.0,2.0768204,0.23867199,9.581146,-0.041748893,-0.013617022,-0.1479916,0.07094364,-0.08037664,0.5685162,2017-10-04 21:00:57,45.99658259213247
2.0470424,0.25378537,9.433155,-4.660532E-4,7.9894834E-4,-4.660532E-4,12.0,2.0723312,0.23223756,9.582343,-0.025288755,0.021547815,-0.1491887,0.070537604,-0.08037315,0.568489,2017-10-04 21:00:58,44.615603518279094
2.0470424,0.22744916,9.466674,5.9921126E-4,-2.663161E-4,5.9921126E-4,12.0,2.0772693,0.23552959,9.581146,-0.030226797,-0.00808043,-0.11447277,0.07082373,-0.08048761,0.56847185,2017-10-04 21:00:59,45.62762095342108
2.0709844,0.20350714,9.442732,-1.9973709E-4,-1.9973709E-4,4.660532E-4,12.0,2.0796635,0.22939445,9.580847,-0.008678981,-0.025887307,-0.13811551,0.07063624,-0.080765754,0.5685144,2017-10-04 21:01:00,45.267851272948214
2.0231004,0.21308395,9.459491,-0.0012650015,-1.9973709E-4,4.660532E-4,12.0,2.0826561,0.24076691,9.5798,-0.05955577,-0.027682956,-0.12030864,0.071202554,-0.080561146,0.56846386,2017-10-04 21:01:01,45.25578314281117
2.0614076,0.22744916,9.435549,7.656588E-4,9.653959E-4,5.659217E-4,12.0,2.0878935,0.23867199,9.5787525,-0.026485857,-0.011222821,-0.14320318,0.07127489,-0.080846906,0.56849414,2017-10-04 21:01:02,43.288675202821345
2.042254,0.23463176,9.43076,7.656588E-4,9.653959E-4,5.659217E-4,12.0,2.0772693,0.24211365,9.5809965,-0.0350152,-0.0074818805,-0.15023616,0.071107075,-0.08028579,0.56856567,2017-10-04 21:01:03,42.17852344465366
2.054225,0.18674773,9.40203,-2.9960563E-4,9.653959E-4,-4.993427E-4,12.0,2.0783167,0.23777416,9.580847,-0.024091655,-0.051026423,-0.17881694,0.07096146,-0.080455884,0.56860095,2017-10-04 21:01:04,43.12160852403459
2.0135236,0.22984336,9.449914,-2.9960563E-4,-6.657903E-4,-0.0017643442,12.0,2.0777183,0.24420857,9.580847,-0.06419453,-0.01436521,-0.13093291,0.07120322,-0.08025488,0.56850964,2017-10-04 21:01:05,43.111155946569816
2.0254946,0.22984336,9.428367,-2.9960563E-4,3.9947417E-4,3.6618466E-4,12.0,2.0778677,0.24465749,9.580847,-0.052373163,-0.014814123,-0.15248072,0.07122151,-0.080247656,0.56842643,2017-10-04 21:01:06,56.30192141781443
2.0207062,0.25378537,9.43076,-0.0024634239,-0.0024967135,3.6618466E-4,12.0,2.0784664,0.2503437,9.580547,-0.057760116,0.0034416649,-0.14978725,0.07147224,-0.080111936,0.56835943,2017-10-04 21:01:07,50.42639423089247
2.0709844,0.19871874,9.442732,7.323693E-4,-3.6618466E-4,-6.9907977E-4,12.0,2.0811598,0.24540567,9.580099,-0.010175358,-0.046686932,-0.13736732,0.07134072,-0.08037357,0.5683201,2017-10-04 21:01:08,44.65260051139616
2.0757728,0.23702596,9.445126,-0.0011984225,8.322378E-4,-3.9947417E-4,12.0,2.084452,0.23942018,9.5795,-0.008678981,-0.0023942017,-0.13437457,0.0711864,-0.08069241,0.5683308,2017-10-04 21:01:09,43.89268292876843
2.0446482,0.24420857,9.416395,9.321064E-4,-2.330266E-4,-3.9947417E-4,12.0,2.0756233,0.23822308,9.581446,-0.030974984,0.005985504,-0.16505028,0.07088026,-0.08034754,0.56842023,2017-10-04 21:01:10,44.81113632284378
2.018312,0.24660277,9.473856,0.0010652645,-5.659217E-4,-1.3315806E-4,12.0,2.0792146,0.23986909,9.580547,-0.060902506,0.0067336923,-0.106691614,0.07106882,-0.08044328,0.5685304,2017-10-04 21:01:11,43.50015497145443
2.0829554,0.22505496,9.428367,-0.0010652645,-5.659217E-4,9.321064E-4,12.0,2.0841527,0.23687632,9.57965,-0.0011971008,-0.011821371,-0.15128362,0.071107395,-0.08071865,0.5687019,2017-10-04 21:01:12,44.16127406217248
2.0326772,0.24420857,9.473856,0.0010319749,-2.330266E-4,3.6618466E-4,12.0,2.0846014,0.24016836,9.5795,-0.05192425,0.004040215,-0.10564415,0.07126871,-0.08063249,0.5688202,2017-10-04 21:01:13,45.28333136742518
2.066196,0.2633622,9.457097,-0.001098554,8.322378E-4,3.6618466E-4,12.0,2.0808606,0.24705169,9.580099,-0.014664485,0.0163105,-0.12300211,0.07144586,-0.08027685,0.5687559,2017-10-04 21:01:14,44.063483878959914
2.0446482,0.24899697,9.44752,-4.3276369E-4,6.9907977E-4,-5.659217E-4,12.0,2.0849009,0.24615386,9.579201,-0.040252518,0.0028431145,-0.1316811,0.07152308,-0.08048031,0.568716,2017-10-04 21:01:15,40.519331358548705
2.042254,0.25139117,9.433155,0.0016977652,6.9907977E-4,4.993427E-4,12.0,2.0854993,0.23777416,9.57935,-0.043245267,0.013617022,-0.14619595,0.07118865,-0.08074647,0.5687147,2017-10-04 21:01:17,43.405566748912044
2.078167,0.21308395,9.440337,-0.0023635554,-3.9947417E-4,4.660532E-4,12.0,2.0878935,0.23837271,9.5787525,-0.009726444,-0.025288755,-0.13841479,0.07128324,-0.08083767,0.56867284,2017-10-04 21:01:18,44.23260461671623
2.0685902,0.23702596,9.416395,-2.330266E-4,-3.9947417E-4,4.660532E-4,12.0,2.0813096,0.23822308,9.580249,-0.012719196,-0.0011971008,-0.16385318,0.07108104,-0.08056009,0.5687178,2017-10-04 21:01:19,41.11302920945864
2.0853498,0.22026655,9.452309,8.322378E-4,-0.0014647386,-5.9921126E-4,12.0,2.0834043,0.24001873,9.57965,0.0019452889,-0.019752163,-0.1273416,0.07120996,-0.080604956,0.5686434,2017-10-04 21:01:20,42.30694539642719
2.054225,0.22744916,9.428367,0.0011984225,-9.986854E-5,3.6618466E-4,12.0,2.0854993,0.23897126,9.579201,-0.03127426,-0.011522096,-0.15083471,0.07123581,-0.08071974,0.56867415,2017-10-04 21:01:21,41.22293892550729
2.0207062,0.2633622,9.406818,1.3315806E-4,9.653959E-4,-6.9907977E-4,12.0,2.0780175,0.24226329,9.580847,-0.057311203,0.021098902,-0.17402853,0.07114628,-0.0803128,0.5686446,2017-10-04 21:01:22,47.080087023206055
2.0805612,0.22505496,9.433155,8.9881686E-4,-9.986854E-5,5.9921126E-4,12.0,2.0762217,0.2463035,9.581146,0.0043394906,-0.02124854,-0.1479916,0.071267284,-0.080114424,0.56865984,2017-10-04 21:01:23,46.395932540821704
2.030283,0.20590134,9.421184,-1.6644757E-4,-9.986854E-5,5.9921126E-4,12.0,2.0718822,0.24241292,9.582193,-0.041599255,-0.036511578,-0.16101007,0.07098013,-0.08003168,0.56881386,2017-10-04 21:01:24,71.06081696142914
2.0614076,0.25378537,9.414001,1.6644757E-4,-1.9973709E-4,-5.326322E-4,12.0,2.083105,0.24361002,9.57965,-0.021697452,0.010175358,-0.16564883,0.0713683,-0.08046916,0.5688067,2017-10-04 21:01:25,45.101338291750636
2.0039468,0.17238252,9.425972,0.0012317119,-0.0012650015,-0.0015978967,12.0,2.086846,0.25049335,9.578603,-0.082899235,-0.07811083,-0.15263036,0.07177548,-0.08042984,0.5687831,2017-10-04 21:01:26,45.06199766627766
2.0590134,0.23942018,9.433155,-9.986854E-4,0.0010319749,0.0014647386,12.0,2.0820577,0.24600422,9.5798,-0.023044191,-0.006584055,-0.14664486,0.0714429,-0.080356896,0.5688427,2017-10-04 21:01:27,44.685881224179965
2.1523874,0.33518824,9.844957,-9.986854E-4,0.0031625037,3.9947417E-4,12.0,2.0901382,0.2475006,9.578004,0.062249243,0.087687634,0.2669535,0.07174724,-0.080651,0.5687966,2017-10-04 21:01:28,67.71624963628726
2.0757728,0.22026655,9.433155,6.657903E-5,-0.001098554,3.9947417E-4,12.0,2.0805612,0.25692776,9.579949,-0.0047884034,-0.036661215,-0.1467945,0.0718503,-0.07997313,0.5687434,2017-10-04 21:01:29,58.445592234623696
2.0398598,0.18435353,9.385271,0.0043209787,-2.050634E-5,-0.0017310547,12.0,2.0624552,0.24570495,9.584139,-0.022595279,-0.06135142,-0.19886838,0.07083841,-0.07953772,0.5687954,2017-10-04 21:01:30,45.8955774447497
2.0566192,0.22984336,9.382876,6.338323E-5,0.0021030982,3.9947417E-4,12.0,2.0660465,0.23747487,9.583541,-0.009427169,-0.007631518,-0.20066403,0.0705947,-0.07993448,0.5687507,2017-10-04 21:01:31,48.00423171357926
1.9488802,0.38067806,9.32781,-0.012713398,-0.029867617,0.003595001,12.0,2.079813,0.2240075,9.580847,-0.13093291,0.15667057,-0.25303718,0.07044129,-0.08090773,0.5687476,2017-10-04 21:01:32,66.20006385938578
2.0374656,0.2777274,9.442732,6.524745E-5,-0.0010964234,-6.660566E-4,12.0,2.0780175,0.25184008,9.580547,-0.040551793,0.025887307,-0.13781624,0.07154789,-0.080033645,0.5686278,2017-10-04 21:01:33,51.00348300352352
2.0087352,0.30166942,9.337387,0.0075212996,-2.9827404E-5,0.0014647386,12.0,2.0641012,0.28191724,9.582792,-0.055365913,0.019752163,-0.24540567,0.072387144,-0.078572765,0.5684957,2017-10-04 21:01:34,48.59530178156455
2.0135236,0.19393034,9.473856,-0.0020642162,-0.0042946134,0.0014644723,12.0,2.0932806,0.2503437,9.577255,-0.07975684,-0.05641338,-0.10339958,0.07193169,-0.08073112,0.5684952,2017-10-04 21:01:35,49.80517062589563
2.0638018,0.2633622,9.404425,7.057377E-5,0.0010234528,-0.0017315873,12.0,2.0825067,0.23777416,9.579949,-0.018704701,0.02558803,-0.1755249,0.07107795,-0.08064419,0.5685236,2017-10-04 21:01:36,43.34212301340709
2.0685902,0.24181437,9.440337,7.057377E-5,-4.181163E-5,3.9894154E-4,12.0,2.083105,0.2427122,9.57965,-0.014514848,-8.9782564E-4,-0.13931261,0.071300104,-0.08052845,0.56848806,2017-10-04 21:01:37,43.01541337100865
2.0566192,0.22984336,9.43076,9.986854E-5,6.3250074E-4,5.9921126E-4,12.0,2.0795138,0.24121583,9.580547,-0.022894554,-0.011372458,-0.14978725,0.07113363,-0.08041076,0.56852716,2017-10-04 21:01:38,41.77946134900395
2.054225,0.2657564,9.421184,0.001165133,-4.3276369E-4,5.9921126E-4,12.0,2.0834043,0.23822308,9.5798,-0.029179333,0.027533319,-0.15861586,0.07113169,-0.08065824,0.5685794,2017-10-04 21:01:39,44.472607536490074
2.0733786,0.24420857,9.454702,-6.657903E-5,-0.0015646071,-7.323693E-4,12.0,2.0822072,0.24375966,9.5798,-0.008828619,4.4891282E-4,-0.12509704,0.07132606,-0.08044566,0.5685529,2017-10-04 21:01:40,47.51544072892621
2.0853498,0.21787235,9.428367,-6.657903E-5,-4.993427E-4,-7.323693E-4,12.0,2.0841527,0.24884734,9.57935,0.0011971008,-0.030974984,-0.15098435,0.07158637,-0.080395326,0.5684323,2017-10-04 21:01:41,48.22013562628313
2.0494366,0.2633622,9.435549,0.001098554,3.3289514E-5,5.9921126E-4,12.0,2.0799627,0.24765024,9.580249,-0.030526072,0.015711948,-0.14469956,0.071411714,-0.08025488,0.5684261,2017-10-04 21:01:43,42.97779590545245
2.018312,0.25617957,9.435549,0.001098554,-0.0010319749,-4.660532E-4,12.0,2.0853498,0.23687632,9.57935,-0.06703765,0.019303251,-0.14380173,0.071131304,-0.080788225,0.56852216,2017-10-04 21:01:44,44.77443618494451
2.066196,0.2873042,9.473856,-2.9960563E-4,-0.0010652645,-8.322378E-4,12.0,2.0852,0.23927054,9.57935,-0.019003976,0.048033673,-0.105494514,0.07122244,-0.080710724,0.5685435,2017-10-04 21:01:45,43.018276922482634
2.0709844,0.2777274,9.454702,7.656588E-4,-0.0010652645,2.330266E-4,12.0,2.0937295,0.24301147,9.577405,-0.022744916,0.034715924,-0.12270284,0.07162384,-0.08097401,0.56839067,2017-10-04 21:01:46,46.703125419606636
2.0207062,0.260968,9.471462,9.321064E-4,-0.0010319749,-7.9894834E-4,12.0,2.0817583,0.24525604,9.579949,-0.061052144,0.015711948,-0.10848726,0.07135277,-0.08041172,0.5683077,2017-10-04 21:01:47,57.52174558515689
2.042254,0.20350714,9.461885,-1.3315806E-4,3.3289514E-5,2.663161E-4,12.0,2.0837038,0.24540567,9.5795,-0.041449618,-0.04189853,-0.117615156,0.071409,-0.080494,0.5682277,2017-10-04 21:01:48,47.22469361777415
2.078167,0.2633622,9.43076,-1.3315806E-4,3.3289514E-5,-7.9894834E-4,12.0,2.0881927,0.240318,9.578603,-0.010025719,0.023044191,-0.14784196,0.07131352,-0.08084579,0.5680899,2017-10-04 21:01:49,45.87779618116632
2.0590134,0.25617957,9.473856,-0.0011984225,9.986854E-5,-2.9960563E-4,12.0,2.0904374,0.240318,9.578154,-0.031423897,0.015861586,-0.104297414,0.07138665,-0.080936104,0.5681539,2017-10-04 21:01:50,42.71566456544737
2.0398598,0.260968,9.449914,9.321064E-4,9.986854E-5,7.656588E-4,12.0,2.082357,0.24720132,9.5798,-0.04249708,0.013766659,-0.12988544,0.071444064,-0.08038023,0.5682513,2017-10-04 21:01:51,40.927916046122625
2.0278888,0.24660277,9.416395,1.6644757E-4,0.0017310547,5.9921126E-4,12.0,2.085649,0.25213936,9.578901,-0.057760116,-0.0055365916,-0.16250645,0.071753174,-0.08037461,0.5682731,2017-10-04 21:01:52,40.5241977673455
2.0518308,0.19871874,9.421184,0.0012317119,-0.0014647386,-4.660532E-4,12.0,2.084003,0.24854806,9.57935,-0.032172084,-0.049829323,-0.15816694,0.07156553,-0.080400914,0.56839055,2017-10-04 21:01:53,40.67574523809529
2.078167,0.2657564,9.414001,-3.3289514E-5,9.321064E-4,-7.656588E-4,12.0,2.0932806,0.24480712,9.577405,-0.015113398,0.020949265,-0.16340427,0.071681745,-0.080902085,0.5683735,2017-10-04 21:01:54,41.31545894531833
2.0398598,0.22744916,9.437943,0.0010319749,9.321064E-4,2.9960563E-4,12.0,2.085649,0.24705169,9.579051,-0.045789108,-0.019602526,-0.14110826,0.0715491,-0.0805154,0.56834906,2017-10-04 21:01:55,42.72905965635478
2.066196,0.23463176,9.473856,0.0,-2.663161E-4,4.660532E-4,12.0,2.0883424,0.24435821,9.578453,-0.022146367,-0.009726444,-0.10459669,0.07150842,-0.08071178,0.56831414,2017-10-04 21:01:56,43.16350694646931
2.0901382,0.24420857,9.41879,0.0,-0.0013315806,-5.9921126E-4,12.0,2.087744,0.24375966,9.578603,0.0023942017,4.4891282E-4,-0.15981296,0.071468346,-0.08070013,0.5683374,2017-10-04 21:01:57,41.86680007062357
2.0566192,0.2705448,9.414001,8.6552737E-4,7.9894834E-4,-0.0026631611,12.0,2.0932806,0.24600422,9.577405,-0.036661215,0.024540568,-0.16340427,0.07172006,-0.08088021,0.5682511,2017-10-04 21:01:58,42.88230771123735
2.0470424,0.21547815,9.435549,-1.9973709E-4,-0.0013315806,5.326322E-4,12.0,2.0893898,0.24794951,9.578154,-0.042347442,-0.03247136,-0.14260463,0.07169385,-0.08065443,0.56827444,2017-10-04 21:01:59,43.599124830723504
2.0494366,0.23223756,9.457097,8.6552737E-4,-2.663161E-4,-5.326322E-4,12.0,2.0849009,0.24121583,9.57935,-0.03546411,-0.008978256,-0.122253925,0.07127837,-0.0806583,0.5683189,2017-10-04 21:02:00,51.819241819817975
2.0685902,0.23463176,9.459491,-0.001165133,-1.9973709E-4,7.9894834E-4,12.0,2.078616,0.24181437,9.580697,-0.010025719,-0.007182605,-0.12120646,0.07112068,-0.08036803,0.56843144,2017-10-04 21:02:01,53.93128050304172
1.9871874,0.20111294,9.464279,-9.986854E-5,8.6552737E-4,-2.663161E-4,12.0,2.085649,0.2451064,9.579051,-0.098461546,-0.043993454,-0.114772044,0.07148158,-0.08055955,0.5685083,2017-10-04 21:02:02,50.90263735906768
2.054225,0.2633622,9.404425,-0.0011984225,0.0018642128,-5.659217E-4,12.0,2.080262,0.23388357,9.580547,-0.026036944,0.029478608,-0.17612346,0.070858344,-0.08065094,0.5686154,2017-10-04 21:02:03,52.07297301277248
2.0350714,-0.007182605,9.416395,-0.007590009,0.010386328,0.0015646071,12.0,2.134431,0.24794951,9.568277,-0.09935937,-0.2551321,-0.15188217,0.07306287,-0.08253749,0.5684964,2017-10-04 21:02:04,48.339763316463724
0.7469909,1.6232687,9.174581,-0.024630245,-0.021580126,-0.050633617,8.0,2.0826561,0.25094226,9.5795,-1.3356652,1.3723265,-0.40491936,0.0718415,-0.08008289,0.57057077,2017-10-04 21:02:05,61.89693790981995
2.873042,-2.6767175,8.085219,-0.5530011,-0.489232,0.08145917,3.0,2.830096,-2.380884,9.082404,0.042945992,-0.29583356,-0.997185,-0.012282973,-0.19175434,0.58244616,2017-10-04 21:02:06,50.634788737057015
3.5529952,-1.2401965,9.394848,0.24701032,0.11903851,0.07506759,3.0,2.6524763,-1.9533693,9.23683,0.90051913,0.71317285,0.15801731,0.022893399,-0.16890097,0.68555504,2017-10-04 21:02:07,50.15339783439697
1.1252748,-0.050278235,9.617508,-0.03422029,-0.06738117,-0.002696717,5.0,1.1822867,-0.26396075,9.731532,-0.05701193,0.2136825,-0.11402386,0.031065332,-0.05352602,0.67700773,2017-10-04 21:02:08,58.37627662851694
1.0773908,-0.059855044,9.622296,-0.0075838836,-0.0045404234,-0.0016317188,5.0,1.1427824,-0.10280103,9.739163,-0.06539164,0.042945992,-0.11686697,0.035712544,-0.046462238,0.6767439,2017-10-04 21:02:09,45.695427514331584
1.0534488,0.009576807,9.588778,0.004127367,0.003995274,-5.661881E-4,6.0,1.1044751,-0.0016460137,9.744102,-0.051026423,0.011222821,-0.15532383,0.03817309,-0.041528724,0.6767346,2017-10-04 21:02:10,48.414927134009886
0.6871359,0.260968,9.7324295,-0.0012034825,-0.0077135796,-0.0016311861,9.0,1.0953473,0.0034416649,9.745149,-0.40821138,0.2575263,-0.012719196,0.03806159,-0.040990837,0.67700213,2017-10-04 21:02:11,52.98580932657274
1.1587936,0.019153614,9.526528,0.0041193776,-2.4980452E-4,0.0026298715,9.0,1.0785879,0.041748893,9.746944,0.08020575,-0.022595279,-0.22041619,0.038919017,-0.03903187,0.67709833,2017-10-04 21:02:12,54.24697741950479
1.0127473,-0.079008654,9.617508,0.0041185785,0.0040125847,0.0026298715,9.0,1.0735002,0.023493104,9.747543,-0.06075287,-0.10250176,-0.13003507,0.038063265,-0.03947351,0.67718476,2017-10-04 21:02:14,45.459823369002294
1.0319009,-0.033518825,9.583989,9.2145376E-4,0.008276838,0.0015646071,9.0,1.1233295,0.018255789,9.742006,-0.09142858,-0.051774614,-0.15801731,0.039598458,-0.041527957,0.6770312,2017-10-04 21:02:15,45.81204551571452
1.0749966,-0.05267244,9.533711,0.008375109,-0.008761267,-5.656554E-4,9.0,1.1028291,0.017657237,9.744401,-0.027832596,-0.07032967,-0.21068975,0.038860552,-0.040777028,0.67712885,2017-10-04 21:02:16,40.497522879705016
1.0702082,0.08619126,9.595961,0.003045591,0.0029632994,-5.656554E-4,9.0,1.1180922,0.019752163,9.742605,-0.047884032,0.0664391,-0.14664486,0.039476722,-0.041271843,0.6772068,2017-10-04 21:02:17,41.062050618991535
1.1228806,0.08140286,9.615114,-1.5339808E-4,0.0019041601,0.0015651397,9.0,1.115698,0.020201078,9.742905,0.007182605,0.06120178,-0.12779051,0.039407242,-0.041166835,0.6771905,2017-10-04 21:02:18,39.39224318956746
1.103727,-0.0023942017,9.588778,-0.0022852586,0.0029723542,4.9987534E-4,9.0,1.1083658,0.013617022,9.743652,-0.004638766,-0.016011223,-0.15487492,0.038915813,-0.041116133,0.6772476,2017-10-04 21:02:19,40.308426213371135
1.1228806,0.047884032,9.605537,0.0030394658,0.0040408145,0.0015651397,9.0,1.1186907,0.010324995,9.742605,0.004189853,0.03755904,-0.13706805,0.039145906,-0.041615665,0.67730147,2017-10-04 21:02:20,39.61004565723268
1.091756,-0.0023942017,9.569624,-0.002288987,-0.0012809804,0.0015651397,9.0,1.1119571,0.027533319,9.743354,-0.020201078,-0.029927522,-0.17372926,0.039558798,-0.04076618,0.67730075,2017-10-04 21:02:21,38.48656776022964
1.1013328,0.055066638,9.569624,-0.0014314491,-1.6644757E-4,3.3289514E-4,9.0,1.1085154,0.025139118,9.743652,-0.007182605,0.029927522,-0.17402853,0.03935409,-0.04071346,0.67733926,2017-10-04 21:02:22,37.366356532399585
1.0845734,0.045489833,9.583989,-3.6618466E-4,-1.6644757E-4,-7.323693E-4,9.0,1.1014824,0.02498948,9.744551,-0.01690905,0.020500353,-0.16056114,0.039102085,-0.040460974,0.6772886,2017-10-04 21:02:23,37.33820526456607
1.0893618,-0.009576807,9.588778,-1.9973709E-4,-1.3315806E-4,3.9947417E-4,9.0,1.1077672,0.032621,9.743802,-0.018405426,-0.042197805,-0.15502456,0.039604433,-0.040432334,0.67724174,2017-10-04 21:02:24,37.856477011450636
1.0965444,0.038307227,9.583989,8.6552737E-4,-0.0011984225,0.0014647386,9.0,1.1026795,0.022595279,9.744401,-0.006135142,0.015711948,-0.1604115,0.039054126,-0.040590845,0.6772837,2017-10-04 21:02:25,40.56056591927252
1.079785,-0.009576807,9.581595,-0.0012650015,0.0011984225,2.9960563E-4,9.0,1.102081,0.024540568,9.744401,-0.022296004,-0.034117375,-0.16280572,0.039098565,-0.040501192,0.67725843,2017-10-04 21:02:26,40.40014244438544
1.115698,0.033518825,9.636662,8.6552737E-4,0.0011984225,0.00136487,9.0,1.098789,0.023942016,9.74485,0.01690905,0.009576807,-0.10818799,0.038960584,-0.040404655,0.6771895,2017-10-04 21:02:27,40.51473826718344
1.115698,0.009576807,9.591172,-1.9973709E-4,-0.0019973707,-7.656588E-4,9.0,1.1071687,0.022296004,9.743802,0.008529344,-0.012719196,-0.15263036,0.039186884,-0.040778115,0.6771224,2017-10-04 21:02:28,39.53635859656994
1.0989386,0.038307227,9.572019,-0.0012650015,-5.659217E-4,-9.321064E-4,9.0,1.1153988,0.023193829,9.742905,-0.016460137,0.015113398,-0.17088614,0.039506167,-0.041060686,0.6770533,2017-10-04 21:02:29,39.8371376594062
1.0749966,0.01436521,9.581595,-0.0012650015,-0.0016311861,1.3315806E-4,9.0,1.1109096,0.023493104,9.743354,-0.035913024,-0.009127894,-0.16175826,0.039350018,-0.040889427,0.6768982,2017-10-04 21:02:30,40.87455897921725
1.13964,0.02873042,9.603143,-4.3276369E-4,-2.663161E-4,0.0015646071,9.0,1.1100118,0.020051438,9.743503,0.029628245,0.008678981,-0.14036007,0.03918915,-0.040972844,0.6769013,2017-10-04 21:02:31,40.361722437182735
1.0821792,0.033518825,9.579201,-0.0025632926,-0.0013315806,4.993427E-4,9.0,1.1047745,0.026485857,9.744102,-0.022595279,0.0070329676,-0.16490065,0.039248556,-0.040554293,0.67689794,2017-10-04 21:02:32,41.1655793671921
1.079785,0.01436521,9.627085,2.663161E-4,-8.9881686E-4,2.330266E-4,9.0,1.1136031,0.030526072,9.743054,-0.0338181,-0.01616086,-0.115969144,0.039710645,-0.040748484,0.67688125,2017-10-04 21:02:33,40.9890477420182
1.0702082,0.04309563,9.651027,2.663161E-4,1.6644757E-4,-0.0018975022,9.0,1.1085154,0.022744916,9.743652,-0.038307227,0.020350715,-0.09262568,0.03923742,-0.04082346,0.67686456,2017-10-04 21:02:34,40.11043675671811
1.0749966,0.016759412,9.605537,-2.330266E-4,1.3315806E-4,2.663161E-4,9.0,1.1115081,0.028431145,9.743354,-0.036511578,-0.011671733,-0.13781624,0.039554097,-0.04074634,0.6767928,2017-10-04 21:02:35,39.593900292563625
1.1013328,0.0023942017,9.610326,-2.330266E-4,-9.321064E-4,2.663161E-4,9.0,1.1076176,0.031124622,9.743802,-0.0062847794,-0.02873042,-0.13347675,0.039512746,-0.040514335,0.6767152,2017-10-04 21:02:36,39.24386917328765
1.079785,0.019153614,9.595961,6.657903E-5,-1.9973709E-4,5.659217E-4,9.0,1.1061212,0.034117375,9.743952,-0.02633622,-0.014963761,-0.1479916,0.039566074,-0.040353805,0.6766651,2017-10-04 21:02:37,39.63920181984892
1.0941502,0.045489833,9.61272,0.0011318434,-1.9973709E-4,5.659217E-4,9.0,1.1013328,0.03232172,9.744401,-0.007182605,0.01316811,-0.1316811,0.03933781,-0.040236793,0.67670375,2017-10-04 21:02:38,38.35444173968921
1.0965444,0.05267244,9.61272,-6.657903E-5,-9.986854E-4,-7.323693E-4,9.0,1.1071687,0.023942016,9.743802,-0.01062427,0.02873042,-0.13108255,0.039232284,-0.04074178,0.6767855,2017-10-04 21:02:39,38.99539501653282
1.0390835,0.009576807,9.569624,-6.657903E-5,0.002197108,-7.323693E-4,9.0,1.1091139,0.023642741,9.743652,-0.0700304,-0.014065935,-0.17402853,0.03928244,-0.040822595,0.6767277,2017-10-04 21:02:40,39.47681132009903
1.1085154,-0.019153614,9.61272,0.0020639498,0.002197108,-0.0017976337,9.0,1.101632,0.017208325,9.744401,0.0068833297,-0.036361936,-0.1316811,0.038787134,-0.04076679,0.67673916,2017-10-04 21:02:41,50.566024613386304
1.103727,0.0047884034,9.605537,9.933591E-4,0.0011422298,-7.323693E-4,9.0,1.1061212,0.017806875,9.743952,-0.0023942017,-0.013018472,-0.13841479,0.038962007,-0.04091897,0.67669135,2017-10-04 21:02:42,41.0436401028851
1.0654198,0.031124622,9.617508,-0.0011329087,-9.973538E-4,0.0013978933,9.0,1.1101614,0.019602526,9.743503,-0.044741645,0.011522096,-0.12599486,0.039160557,-0.041008838,0.676622,2017-10-04 21:02:44,39.15105663154279
1.1372458,0.04070143,9.629479,6.657903E-5,2.330266E-4,3.6618466E-4,9.0,1.1085154,0.030376434,9.743652,0.02873042,0.010324995,-0.114173494,0.03950444,-0.04057669,0.6765993,2017-10-04 21:02:45,39.17891452541968
1.1085154,0.055066638,9.595961,6.657903E-5,2.330266E-4,3.6618466E-4,9.0,1.0981904,0.033967737,9.74485,0.010324995,0.021098902,-0.14888942,0.03928485,-0.04006668,0.67657596,2017-10-04 21:02:46,41.341063691564905
1.0821792,-0.007182605,9.588778,-0.0013981595,1.3315806E-4,4.660532E-4,9.0,1.0960954,0.032172084,9.745,-0.013916298,-0.03935469,-0.15622166,0.039145164,-0.040047273,0.67658347,2017-10-04 21:02:47,40.23584811004774
1.0630256,0.021547815,9.569624,7.323693E-4,-9.321064E-4,4.660532E-4,9.0,1.1061212,0.025288755,9.743952,-0.04309563,-0.0037409402,-0.1743278,0.03922893,-0.040665977,0.6765494,2017-10-04 21:02:48,39.12171232349918
1.0821792,0.047884032,9.564836,-0.0012317119,9.986854E-5,-0.0015313176,9.0,1.1076176,0.027682956,9.743802,-0.025438393,0.020201078,-0.17896658,0.03936982,-0.040638894,0.67654353,2017-10-04 21:02:49,41.82251189441161
1.0941502,0.016759412,9.615114,-1.6644757E-4,9.986854E-5,5.9921126E-4,9.0,1.1050737,0.029927522,9.744102,-0.010923545,-0.01316811,-0.12898761,0.039373145,-0.04046365,0.6765998,2017-10-04 21:02:50,39.94221984773246
1.103727,-0.038307227,9.61272,-0.00136487,0.0012650015,5.659217E-4,9.0,1.1131542,0.024540568,9.743204,-0.009427169,-0.06284779,-0.130484,0.03946,-0.040950067,0.6766663,2017-10-04 21:02:51,39.41590255682593
1.0965444,0.035913024,9.605537,7.656588E-4,0.0012650015,-4.993427E-4,9.0,1.1061212,0.029029695,9.743952,-0.009576807,0.0068833297,-0.13841479,0.039376557,-0.04052934,0.67669326,2017-10-04 21:02:52,41.50843157618469
1.0941502,0.059855044,9.581595,-3.3289514E-5,0.0010319749,-7.9894834E-4,9.0,1.1004349,0.026186582,9.744551,-0.0062847794,0.033668462,-0.16295536,0.039077602,-0.040412262,0.67673546,2017-10-04 21:02:53,40.04422687825243
1.0869676,0.01436521,9.588778,0.0010319749,0.0010319749,2.663161E-4,9.0,1.1128548,0.03127426,9.743204,-0.025887307,-0.01690905,-0.15442601,0.039695676,-0.04070317,0.6766282,2017-10-04 21:02:54,38.10206092025287
1.1468226,0.045489833,9.619903,0.0010319749,-3.3289514E-5,2.663161E-4,9.0,1.1098621,0.027234044,9.743503,0.03696049,0.018255789,-0.12360066,0.03944033,-0.040738627,0.67657787,2017-10-04 21:02:55,37.56225948488188
1.091756,0.01436521,9.555259,-2.663161E-4,-0.0023635554,4.3276369E-4,9.0,1.1047745,0.025737667,9.744102,-0.013018472,-0.011372458,-0.18884265,0.039201867,-0.040596016,0.67656547,2017-10-04 21:02:56,38.31596230337732
1.0989386,0.02633622,9.583989,7.9894834E-4,-0.001298291,4.3276369E-4,9.0,1.1070191,0.032920275,9.743802,-0.00808043,-0.006584055,-0.15981296,0.039548315,-0.040433146,0.6765868,2017-10-04 21:02:57,37.30888725121248
1.1013328,0.033518825,9.576807,7.9894834E-4,2.663161E-4,5.659217E-4,9.0,1.1067197,0.03127426,9.743802,-0.0053869537,0.002244564,-0.16699557,0.039483912,-0.040475182,0.67662793,2017-10-04 21:02:58,38.672478071259164
1.091756,0.031124622,9.64145,7.9894834E-4,0.0013315806,5.659217E-4,9.0,1.1095629,0.030376434,9.743503,-0.017806875,7.48188E-4,-0.102052845,0.03954926,-0.04060953,0.6767065,2017-10-04 21:02:59,38.72777087163955
1.103727,0.0023942017,9.617508,6.657903E-4,0.001165133,-8.6552737E-4,9.0,1.1082162,0.022894554,9.743652,-0.004489128,-0.020500353,-0.1261445,0.039221328,-0.040818684,0.67669064,2017-10-04 21:03:00,37.16787575438086
1.0845734,0.007182605,9.572019,-0.002530003,0.001165133,1.9973709E-4,9.0,1.1095629,0.020201078,9.743503,-0.02498948,-0.013018472,-0.1714847,0.03916081,-0.040972598,0.6765664,2017-10-04 21:03:01,40.53367740394252
1.0749966,0.021547815,9.605537,9.986854E-5,3.3289514E-5,6.657903E-4,9.0,1.1034278,0.018255789,9.744251,-0.028431145,0.0032920274,-0.13871406,0.03887447,-0.040804677,0.6765639,2017-10-04 21:03:02,40.63329674957875
1.1228806,0.011971008,9.574412,0.001165133,-0.0010319749,-3.9947417E-4,9.0,1.1047745,0.021098902,9.744102,0.01810615,-0.009127894,-0.16968904,0.0390338,-0.040756404,0.6766402,2017-10-04 21:03:03,42.07724847374059
1.103727,-0.01436521,9.598354,-2.330266E-4,0.0010652645,5.326322E-4,9.0,1.1101614,0.025887307,9.743503,-0.006434417,-0.040252518,-0.14514847,0.039402593,-0.04079,0.67668587,2017-10-04 21:03:04,41.5444609968079
1.079785,0.05267244,9.643845,-2.330266E-4,0.0,0.0015978967,9.0,1.1028291,0.032172084,9.744251,-0.023044191,0.020500353,-0.10040683,0.03938507,-0.04029496,0.6767271,2017-10-04 21:03:05,43.99163037801202
1.1013328,0.038307227,9.586384,-0.001498028,0.0010319749,-5.326322E-4,9.0,1.1043255,0.025737667,9.744102,-0.002992752,0.012569559,-0.15771803,0.039200038,-0.04057353,0.67680603,2017-10-04 21:03:06,43.304995888449554
1.1133038,0.033518825,9.61272,-4.3276369E-4,0.0010319749,5.326322E-4,9.0,1.1005846,0.029927522,9.744551,0.012719196,0.0035913025,-0.13183074,0.03923008,-0.040281065,0.6768182,2017-10-04 21:03:07,44.287870386398815
1.0845734,0.0047884034,9.631873,-4.3276369E-4,-0.001098554,5.326322E-4,9.0,1.1145009,0.022744916,9.743054,-0.029927522,-0.017956512,-0.111180745,0.03944279,-0.041053362,0.6767915,2017-10-04 21:03:08,42.24114359542093
1.0845734,0.009576807,9.605537,8.322378E-4,-8.9881686E-4,-3.6618466E-4,9.0,1.1034278,0.023193829,9.744251,-0.018854339,-0.013617022,-0.13871406,0.039077543,-0.040619858,0.6768879,2017-10-04 21:03:09,41.06274715959007
1.067814,0.019153614,9.61272,8.322378E-4,1.6644757E-4,-3.6618466E-4,9.0,1.1116577,0.017058687,9.743354,-0.043843817,0.0020949265,-0.13063364,0.039138846,-0.04113309,0.6770254,2017-10-04 21:03:11,43.29530665876213
1.0893618,0.009576807,9.610326,-2.330266E-4,-6.657903E-4,1.3315806E-4,9.0,1.1043255,0.028431145,9.744102,-0.014963761,-0.018854339,-0.13377602,0.03931155,-0.040463284,0.6769914,2017-10-04 21:03:12,44.915530783341204
1.055843,0.01436521,9.605537,0.0018975022,-6.657903E-4,1.3315806E-4,9.0,1.1070191,0.024690205,9.743802,-0.05117606,-0.010324995,-0.13826515,0.039260626,-0.040703177,0.67691296,2017-10-04 21:03:13,39.784516700973256
1.0989386,0.062249243,9.64145,-3.3289514E-4,-0.0016644757,9.986854E-5,9.0,1.1085154,0.022445641,9.743652,-0.009576807,0.0398036,-0.10220248,0.039228026,-0.040838405,0.6768268,2017-10-04 21:03:14,46.79507335622999
1.079785,0.1388637,9.679757,-0.0024634239,-0.035752937,0.001165133,9.0,1.1254244,0.020350715,9.741708,-0.04563947,0.11851298,-0.06194997,0.039730795,-0.041554444,0.6766966,2017-10-04 21:03:15,55.34971035787349
1.0462662,0.007182605,9.603143,-0.0024647557,0.0025987127,9.986854E-5,9.0,1.1098621,0.01436521,9.743503,-0.06359598,-0.007182605,-0.14036007,0.03895482,-0.04117924,0.67660874,2017-10-04 21:03:16,62.44820924392008
1.0630256,0.011971008,9.629479,-0.009921607,-0.014445518,9.986854E-5,9.0,1.1133038,0.03007716,9.743054,-0.050278235,-0.01810615,-0.113574944,0.039655313,-0.04077611,0.6764446,2017-10-04 21:03:17,45.40811257126496
1.0821792,0.02633622,9.581595,-0.0010319749,1.3315806E-4,0.0011318434,9.0,1.102081,0.030526072,9.744401,-0.0199018,-0.004189853,-0.16280572,0.03927616,-0.04034535,0.6763609,2017-10-04 21:03:18,41.7867646552623
1.103727,0.02633622,9.595961,3.3289514E-5,1.3315806E-4,-9.986854E-4,9.0,1.0978911,0.028580783,9.74485,0.0058358666,-0.002244564,-0.14888942,0.03904945,-0.040256955,0.6762553,2017-10-04 21:03:19,44.57535136106905
1.0893618,0.059855044,9.603143,-3.3289514E-4,6.3250074E-4,4.3276369E-4,9.0,1.1076176,0.028281508,9.743802,-0.018255789,0.031573534,-0.14065935,0.03937148,-0.040642105,0.6761319,2017-10-04 21:03:20,44.76031034004115
1.0989386,0.023942016,9.593566,-3.3289514E-4,-0.001498028,4.3276369E-4,9.0,1.1131542,0.024540568,9.743204,-0.014215573,-5.985504E-4,-0.14963761,0.039429065,-0.040977158,0.6761629,2017-10-04 21:03:21,43.54651905376343
1.0414777,0.035913024,9.617508,-5.9921126E-4,-9.986854E-4,2.663161E-4,9.0,1.1038766,0.0175076,9.744251,-0.06239888,0.018405426,-0.12674305,0.038843803,-0.040871307,0.67616636,2017-10-04 21:03:22,43.88733192771694
1.103727,0.0047884034,9.610326,-0.00272974,6.657903E-5,-7.9894834E-4,9.0,1.1068693,0.020500353,9.743952,-0.0031423897,-0.015711948,-0.13362639,0.03904978,-0.04088421,0.6760753,2017-10-04 21:03:23,42.755754634288095
1.0869676,0.038307227,9.560047,-5.9921126E-4,6.657903E-5,2.663161E-4,9.0,1.1113585,0.023044191,9.743354,-0.02439093,0.015263036,-0.18330607,0.039301485,-0.04097183,0.6759859,2017-10-04 21:03:24,43.87967959518339
1.067814,0.045489833,9.591172,-1.6644757E-4,-0.0014314491,-5.326322E-4,9.0,1.1185411,0.025438393,9.742605,-0.050727148,0.020051438,-0.15143326,0.039642174,-0.041155174,0.67599744,2017-10-04 21:03:25,42.59893001378741
1.1252748,0.04070143,9.605537,-1.6644757E-4,-3.6618466E-4,-5.326322E-4,9.0,1.1109096,0.026635494,9.743354,0.01436521,0.014065935,-0.13781624,0.03942157,-0.04082714,0.6760258,2017-10-04 21:03:26,40.93478030750792
1.0702082,0.01436521,9.610326,-0.0017976337,-4.3276369E-4,3.3289514E-4,9.0,1.117793,0.023193829,9.742605,-0.047584757,-0.008828619,-0.13227965,0.03952945,-0.041204035,0.67602915,2017-10-04 21:03:27,40.32728906805279
1.0941502,0.02633622,9.581595,3.3289514E-4,-4.3276369E-4,0.0013981595,9.0,1.1145009,0.022146367,9.743054,-0.020350715,0.004189853,-0.16145898,0.039376616,-0.04112096,0.6760159,2017-10-04 21:03:28,42.841092122652896
1.0749966,-0.011971008,9.603143,0.0028961876,-0.0010319749,2.9960563E-4,9.0,1.1092635,0.022445641,9.743652,-0.034267012,-0.03441665,-0.14050971,0.039206967,-0.040912695,0.67598337,2017-10-04 21:03:29,42.10622676461492
1.0893618,0.01436521,9.617508,7.656588E-4,3.3289514E-5,0.00136487,9.0,1.1028291,0.022744916,9.744401,-0.0134673845,-0.008379706,-0.12689269,0.038994744,-0.040658727,0.6760103,2017-10-04 21:03:30,42.77208234314127
1.1204864,-0.02873042,9.593566,0.0016311861,6.657903E-5,-6.9907977E-4,9.0,1.1062708,0.02558803,9.743952,0.014215573,-0.05431845,-0.1503858,0.039214045,-0.0406928,0.67596394,2017-10-04 21:03:31,44.704083373701934
1.1109096,0.035913024,9.588778,5.659217E-4,6.657903E-5,3.6618466E-4,9.0,1.1049241,0.019752163,9.744102,0.005985504,0.01616086,-0.15532383,0.03894863,-0.040842965,0.67599994,2017-10-04 21:03:32,43.234920571653916
1.0749966,0.033518825,9.631873,-5.326322E-4,-8.9881686E-4,3.9947417E-4,9.0,1.1050737,0.022445641,9.744102,-0.03007716,0.011073183,-0.11222821,0.03905508,-0.040760376,0.67594343,2017-10-04 21:03:33,45.2920144828635
1.1252748,0.01436521,9.64145,-5.326322E-4,0.0033622407,-0.002796319,9.0,1.105373,0.019752163,9.744102,0.0199018,-0.0053869537,-0.102651395,0.03896402,-0.040866554,0.6759216,2017-10-04 21:03:34,43.256589691785095
1.0869676,0.01436521,9.605537,6.3250074E-4,-0.0012317119,7.656588E-4,9.0,1.1067197,0.01810615,9.743952,-0.019752163,-0.0037409402,-0.13841479,0.038950197,-0.040972456,0.6759345,2017-10-04 21:03:35,44.35437339831557
1.1228806,0.04070143,9.615114,6.3250074E-4,-1.6644757E-4,-2.9960563E-4,9.0,1.108665,0.038307227,9.743652,0.014215573,0.0023942017,-0.1285387,0.039779298,-0.040342815,0.6760132,2017-10-04 21:03:37,43.86070135779134
1.0773908,0.01436521,9.581595,-4.3276369E-4,-1.6644757E-4,-2.9960563E-4,9.0,1.102081,0.035314474,9.744401,-0.024690205,-0.020949265,-0.16280572,0.039446086,-0.040188543,0.67618257,2017-10-04 21:03:38,43.3511272142737
1.1013328,0.016759412,9.583989,5.659217E-4,-0.0011984225,-0.001098554,9.0,1.1047745,0.02633622,9.744102,-0.0034416649,-0.009576807,-0.16011223,0.0391961,-0.040611453,0.67603225,2017-10-04 21:03:39,42.9670592916238
1.0726024,0.02873042,9.619903,0.0016311861,9.321064E-4,-0.0021638183,9.0,1.1115081,0.031423897,9.743354,-0.038905777,-0.0026934769,-0.123451024,0.039611008,-0.04069428,0.67582196,2017-10-04 21:03:40,42.28093894679999
1.0845734,0.04309563,9.600749,-3.3289514E-4,3.9947417E-4,-7.323693E-4,9.0,1.098789,0.029927522,9.74485,-0.014215573,0.01316811,-0.14410101,0.039105535,-0.04026992,0.6757911,2017-10-04 21:03:41,48.30855960982491
1.0845734,0.023942016,9.595961,-0.0013981595,3.9947417E-4,3.3289514E-4,9.0,1.1011832,0.02633622,9.744551,-0.016609775,-0.0023942017,-0.14859015,0.03905717,-0.040487103,0.6757985,2017-10-04 21:03:42,45.938727732604185
1.1133038,-0.007182605,9.61272,8.322378E-4,-7.323693E-4,-0.0018309233,9.0,1.1101614,0.028281508,9.743503,0.0031423897,-0.03546411,-0.13078327,0.03944063,-0.040761724,0.6757267,2017-10-04 21:03:43,41.06862387055411
1.0941502,-0.011971008,9.603143,-2.330266E-4,3.3289514E-4,-0.0018309233,9.0,1.103727,0.032770637,9.744251,-0.009576807,-0.044741645,-0.14110826,0.0393815,-0.040366083,0.6756514,2017-10-04 21:03:44,41.07020434723815
1.0989386,0.038307227,9.593566,-0.0014314491,-7.9894834E-4,6.9907977E-4,9.0,1.1023803,0.033668462,9.744401,-0.0034416649,0.004638766,-0.15083471,0.039366215,-0.04028196,0.6756771,2017-10-04 21:03:45,41.84565827283631
1.1085154,0.016759412,9.615114,-3.6618466E-4,2.663161E-4,0.0017643442,9.0,1.1083658,0.028880058,9.743652,1.496376E-4,-0.012120646,-0.1285387,0.039404213,-0.04067011,0.6757974,2017-10-04 21:03:46,40.76768583785046
1.1133038,0.009576807,9.634268,0.0010652645,4.660532E-4,0.001298291,9.0,1.1055226,0.03127426,9.743952,0.0077811554,-0.021697452,-0.10968436,0.03939922,-0.040470384,0.6758811,2017-10-04 21:03:47,38.14728135183371
1.0773908,-0.01436521,9.64145,0.0010652645,-5.9921126E-4,2.330266E-4,9.0,1.0996867,0.035763387,9.7447,-0.022296004,-0.050128598,-0.103249945,0.039362565,-0.040104598,0.6758161,2017-10-04 21:03:48,39.4067690916524
1.1204864,0.038307227,9.557653,-0.00136487,2.330266E-4,4.660532E-4,9.0,1.1019313,0.02813187,9.744401,0.018555064,0.010175358,-0.18674773,0.039150216,-0.040449575,0.6757712,2017-10-04 21:03:49,39.162463649959214
1.0869676,0.01436521,9.595961,-0.00136487,-8.322378E-4,4.660532E-4,9.0,1.1076176,0.032770637,9.743802,-0.02064999,-0.018405426,-0.14784196,0.039520364,-0.040511794,0.67572933,2017-10-04 21:03:50,37.99283020743501
1.0941502,-0.02633622,9.593566,-2.9960563E-4,0.001298291,4.660532E-4,9.0,1.105373,0.027982233,9.744102,-0.011222821,-0.05431845,-0.15053543,0.03926293,-0.040584795,0.6758025,2017-10-04 21:03:51,39.24809813378713
1.1061212,-0.009576807,9.607931,8.6552737E-4,0.0013315806,4.993427E-4,9.0,1.1044751,0.019602526,9.744102,0.0016460137,-0.029179333,-0.13617022,0.038921203,-0.04083533,0.6758731,2017-10-04 21:03:52,35.99950254051023
1.0821792,-0.0023942017,9.581595,-0.0012650015,-7.9894834E-4,0.0015646071,9.0,1.1014824,0.021098902,9.744551,-0.019303251,-0.023493104,-0.16295536,0.038878817,-0.04066576,0.67595047,2017-10-04 21:03:53,38.45650250969423
1.0319009,0.059855044,9.600749,-3.9947417E-4,0.0022636869,4.3276369E-4,9.0,1.1050737,0.02633622,9.744102,-0.07317279,0.033518825,-0.14335282,0.03919959,-0.040621966,0.6759241,2017-10-04 21:03:54,35.7289139003591
1.0893618,0.02633622,9.627085,-3.9947417E-4,-9.321064E-4,-6.3250074E-4,9.0,1.0953473,0.02932897,9.745149,-0.005985504,-0.002992752,-0.11806407,0.03897433,-0.04015199,0.67597955,2017-10-04 21:03:55,38.72210550473771
1.0342951,0.047884032,9.639056,-9.986854E-5,4.993427E-4,-8.322378E-4,9.0,1.1044751,0.022146367,9.744102,-0.070180036,0.025737667,-0.1050456,0.0390212,-0.040744565,0.67592007,2017-10-04 21:03:56,39.72284624420739
1.079785,0.023942016,9.572019,-9.986854E-5,-0.0016311861,2.330266E-4,9.0,1.1073183,0.024091655,9.743802,-0.027533319,-1.496376E-4,-0.17178397,0.039193653,-0.04078657,0.6758713,2017-10-04 21:03:57,37.662500694713856
1.0821792,0.0047884034,9.591172,-0.00136487,0.0013981595,4.660532E-4,9.0,1.1050737,0.033369187,9.744102,-0.022894554,-0.028580783,-0.15292963,0.039459813,-0.04038755,0.6758347,2017-10-04 21:03:58,37.946895059429
1.0941502,0.059855044,9.615114,7.656588E-4,3.3289514E-4,4.660532E-4,9.0,1.1076176,0.023792379,9.743802,-0.0134673845,0.03606266,-0.12868834,0.03918691,-0.0408106,0.6758732,2017-10-04 21:03:59,38.39777188338289
1.079785,0.016759412,9.583989,-3.6618466E-4,2.9960563E-4,5.326322E-4,9.0,1.1091139,0.022146367,9.743652,-0.02932897,-0.0053869537,-0.15966332,0.039181665,-0.04091791,0.6758968,2017-10-04 21:04:00,39.18700414126596
1.0821792,0.0,9.56723,-3.6618466E-4,-7.656588E-4,-5.326322E-4,9.0,1.1040263,0.018255789,9.744251,-0.02184709,-0.018255789,-0.1770213,0.038865246,-0.04086346,0.6759748,2017-10-04 21:04:01,38.1149240017247
1.115698,0.031124622,9.61272,-3.6618466E-4,0.0024301345,-5.326322E-4,9.0,1.1005846,0.024540568,9.744551,0.015113398,0.006584055,-0.13183074,0.03898205,-0.040512025,0.6759787,2017-10-04 21:04:02,35.67107676124615
1.0893618,0.05267244,9.61272,9.986854E-5,-6.657903E-5,3.3289514E-4,9.0,1.1119571,0.02813187,9.743354,-0.022595279,0.024540568,-0.13063364,0.03950629,-0.040819243,0.67593104,2017-10-04 21:04:03,37.53211031653268
1.1061212,0.04070143,9.595961,9.986854E-5,9.986854E-4,3.3289514E-4,9.0,1.1079168,0.022894554,9.743802,-0.0017956513,0.017806875,-0.14784196,0.039172105,-0.040848,0.67592865,2017-10-04 21:04:04,38.45954302893308
1.0845734,0.038307227,9.624691,-4.660532E-4,1.6644757E-4,-6.9907977E-4,9.0,1.1140519,0.02184709,9.743054,-0.029478608,0.016460137,-0.11836334,0.039343398,-0.041118592,0.675908,2017-10-04 21:04:05,37.68944303078457
1.0821792,0.031124622,9.593566,-4.660532E-4,1.6644757E-4,-6.9907977E-4,9.0,1.1112089,0.024540568,9.743354,-0.029029695,0.006584055,-0.14978725,0.03934137,-0.040920287,0.67586035,2017-10-04 21:04:06,37.79163212200245
1.1180922,0.033518825,9.603143,7.656588E-4,-6.657903E-5,4.993427E-4,9.0,1.1133038,0.034267012,9.743054,0.0047884034,-7.48188E-4,-0.13991116,0.03978575,-0.04066193,0.67587346,2017-10-04 21:04:07,39.10014818949805
1.079785,0.04070143,9.591172,7.656588E-4,9.986854E-4,4.993427E-4,9.0,1.1168951,0.02813187,9.742755,-0.037110128,0.012569559,-0.1515829,0.039680045,-0.041003123,0.67590255,2017-10-04 21:04:08,38.90568288066669
1.0845734,0.076614454,9.593566,-0.0015313176,0.0022636869,3.3289514E-4,9.0,1.1068693,0.033668462,9.743802,-0.022296004,0.042945992,-0.15023616,0.03953847,-0.04044015,0.6758972,2017-10-04 21:04:09,39.61082086386185
1.055843,-0.011971008,9.586384,-4.660532E-4,-0.0019973707,-7.323693E-4,9.0,1.1077672,0.032022446,9.743802,-0.05192425,-0.043993454,-0.15741876,0.039501593,-0.040532462,0.67584425,2017-10-04 21:04:10,38.650265507124246
1.151611,0.0047884034,9.631873,5.9921126E-4,2.663161E-4,4.993427E-4,9.0,1.1095629,0.022445641,9.743503,0.042048167,-0.017657237,-0.11162966,0.039209362,-0.04093028,0.67583865,2017-10-04 21:04:11,37.83299317382827
1.067814,0.02633622,9.579201,-0.0015313176,2.663161E-4,0.0015646071,9.0,1.1047745,0.029478608,9.744102,-0.03696049,-0.0031423897,-0.16490065,0.039303362,-0.040510014,0.6758452,2017-10-04 21:04:13,38.16818167311879
2.2098482,-0.34237084,9.720459,0.0016658072,-0.0039979373,-0.014414625,9.0,0.7495348,0.0935235,9.777471,1.4603134,-0.43589434,-0.05701193,0.029396977,-0.024928026,0.67624825,2017-10-04 21:04:14,55.35494266421212
1.0726024,0.062249243,9.581595,-4.6019422E-4,0.0013195963,-5.664544E-4,9.0,0.7469909,0.09382278,9.77762,0.32561144,-0.031573534,-0.19602527,0.029325962,-0.024821315,0.6762355,2017-10-04 21:04:15,58.671010365922115
1.0941502,-0.007182605,9.622296,-4.546016E-4,2.4421187E-4,4.982774E-4,9.0,0.99778354,0.047884032,9.755624,0.09636662,-0.055066638,-0.13332711,0.03628132,-0.035840698,0.67597324,2017-10-04 21:04:16,41.42986591066795
1.1180922,0.04309563,9.605537,6.077334E-4,0.0013145363,-5.667207E-4,9.0,1.0724527,0.02873042,9.747693,0.04563947,0.01436521,-0.14215572,0.03815169,-0.03932312,0.67583495,2017-10-04 21:04:17,38.15725968976483
1.0845734,0.088585466,9.583989,-0.0015203987,-8.205199E-4,-5.66987E-4,9.0,1.0974422,0.031124622,9.745,-0.012868834,0.05746084,-0.16101007,0.039103188,-0.040177494,0.67576045,2017-10-04 21:04:18,38.64577358564573
1.1204864,0.047884032,9.574412,-3.9947417E-4,-0.0017643442,-2.9960563E-4,9.0,1.1068693,0.028580783,9.743802,0.013617022,0.019303251,-0.16938977,0.03934353,-0.040613554,0.6758477,2017-10-04 21:04:19,39.82104271659373
1.1061212,0.0023942017,9.579201,-0.0014647386,3.6618466E-4,-0.00136487,9.0,1.1115081,0.029628245,9.743354,-0.0053869537,-0.027234044,-0.16415246,0.03954692,-0.040753365,0.67593795,2017-10-04 21:04:20,37.88585655186964
1.055843,-0.016759412,9.600749,-4.993427E-4,0.00136487,-7.9894834E-4,9.0,1.1098621,0.030526072,9.743503,-0.054019175,-0.047285482,-0.14275427,0.039525878,-0.040654495,0.67595655,2017-10-04 21:04:21,39.227454978846986
1.1085154,0.031124622,9.615114,5.659217E-4,2.9960563E-4,-0.0018642128,9.0,1.0995371,0.02873042,9.7447,0.008978256,0.0023942017,-0.12958616,0.03909482,-0.04033731,0.675878,2017-10-04 21:04:22,40.345238640694916
1.1085154,0.079008654,9.574412,-4.660532E-4,-3.3289514E-5,-4.660532E-4,9.0,1.1076176,0.023343466,9.743802,8.9782564E-4,0.05566519,-0.16938977,0.039172143,-0.04082249,0.6758378,2017-10-04 21:04:23,40.65302528854833
1.0821792,0.007182605,9.607931,-4.660532E-4,0.0010319749,5.9921126E-4,9.0,1.1097125,0.016011223,9.743503,-0.027533319,-0.008828619,-0.13557167,0.038971823,-0.041153245,0.67588586,2017-10-04 21:04:24,38.88185117667135
1.0749966,0.009576807,9.615114,-6.657903E-5,0.003561978,6.9907977E-4,9.0,1.1109096,0.022595279,9.743354,-0.035913024,-0.013018472,-0.12823942,0.039260034,-0.04097329,0.6758912,2017-10-04 21:04:25,39.92447173871688
1.0510546,0.023942016,9.581595,-6.657903E-5,3.6618466E-4,6.9907977E-4,9.0,1.1050737,0.0338181,9.744102,-0.054019175,-0.009876082,-0.16250645,0.039483584,-0.04036711,0.67596763,2017-10-04 21:04:26,41.32702564467215
1.0319009,-0.007182605,9.598354,9.986854E-4,0.0015978967,4.3276369E-4,9.0,1.103727,0.027832596,9.744251,-0.07182605,-0.0350152,-0.14589667,0.039215658,-0.040510878,0.6760575,2017-10-04 21:04:27,41.22812495158243
1.103727,0.074220255,9.603143,-6.657903E-5,-0.0037284256,4.3276369E-4,9.0,1.1019313,0.03007716,9.744401,0.0017956513,0.044143096,-0.1412579,0.0392361,-0.04037326,0.67602354,2017-10-04 21:04:28,44.741159448567515
1.1085154,0.009576807,9.588778,9.986854E-4,5.326322E-4,4.3276369E-4,9.0,1.1083658,0.027084406,9.743652,1.496376E-4,-0.0175076,-0.15487492,0.039349124,-0.040719807,0.6760228,2017-10-04 21:04:29,38.411663754434144
1.0726024,-0.04070143,9.619903,-4.993427E-4,0.0032956619,3.3289514E-4,9.0,1.1213843,0.0011971008,9.742306,-0.04878186,-0.04189853,-0.12240356,0.03882514,-0.042105883,0.67597777,2017-10-04 21:04:30,39.154525501618444
1.0702082,0.033518825,9.56723,5.659217E-4,9.986854E-5,3.3289514E-4,9.0,1.1113585,0.01062427,9.743354,-0.041150343,0.022894554,-0.17612346,0.038826615,-0.041401297,0.6759253,2017-10-04 21:04:31,63.46674673697294
1.0726024,0.01436521,9.588778,9.986854E-4,2.9960563E-4,-5.659217E-4,9.0,1.1242273,0.020949265,9.741858,-0.051624972,-0.006584055,-0.15307927,0.03966122,-0.0415364,0.6758701,2017-10-04 21:04:32,41.22156930191599
1.1180922,0.074220255,9.610326,9.986854E-4,-7.656588E-4,4.993427E-4,9.0,1.1134534,0.031573534,9.743054,0.004638766,0.042646717,-0.13272856,0.03968856,-0.04075645,0.67589515,2017-10-04 21:04:33,40.87496501569322
1.0630256,0.04070143,9.61272,-3.3289514E-4,2.9960563E-4,4.660532E-4,9.0,1.101632,0.029628245,9.744401,-0.038606502,0.011073183,-0.1316811,0.039204568,-0.040383562,0.6759246,2017-10-04 21:04:34,40.699614468678234
1.0845734,0.045489833,9.576807,7.323693E-4,2.9960563E-4,4.660532E-4,9.0,1.1070191,0.027084406,9.743802,-0.022445641,0.018405426,-0.16699557,0.039296575,-0.04066634,0.6759463,2017-10-04 21:04:35,40.78385370983587
1.0726024,0.019153614,9.543288,-0.0014647386,0.0016977652,-7.323693E-4,9.0,1.105373,0.029478608,9.744102,-0.032770637,-0.010324995,-0.20081367,0.03933033,-0.040521152,0.6759327,2017-10-04 21:04:36,37.20597980945626
1.0941502,0.090979666,9.610326,-0.0014647386,-0.001498028,3.3289514E-4,9.0,1.1068693,0.019303251,9.743952,-0.012719196,0.07167641,-0.13362639,0.03899736,-0.040935457,0.6759066,2017-10-04 21:04:37,44.784767386454625
1.1061212,0.007182605,9.557653,3.3289514E-5,-0.002130529,4.660532E-4,9.0,1.102081,0.032621,9.744401,0.004040215,-0.025438393,-0.18674773,0.039332278,-0.040293567,0.6758718,2017-10-04 21:04:39,43.857192168057175
1.1563994,-0.15801731,9.579201,0.001098554,0.0,-5.9921126E-4,9.0,1.0989386,0.03546411,9.7447,0.05746084,-0.19348143,-0.1654992,0.039323635,-0.040079184,0.67588335,2017-10-04 21:04:40,39.577233305607876
1.1061212,0.02873042,9.569624,-5.9921126E-4,-0.0019973707,-4.993427E-4,9.0,1.1073183,0.015113398,9.743802,-0.0011971008,0.013617022,-0.17417817,0.038858235,-0.041098833,0.6758793,2017-10-04 21:04:41,45.33529762173109
1.0749966,0.050278235,9.576807,-5.9921126E-4,1.3315806E-4,-0.0015646071,9.0,1.1094133,0.022894554,9.743652,-0.03441665,0.027383681,-0.16684593,0.03922022,-0.040902674,0.6759028,2017-10-04 21:04:42,45.20839375441273
1.0749966,0.045489833,9.593566,-2.330266E-4,-0.0014314491,6.657903E-4,9.0,1.108665,0.030974984,9.743652,-0.033668462,0.014514848,-0.15008652,0.039498385,-0.040598847,0.67591745,2017-10-04 21:04:43,41.60987067062902
1.1061212,0.031124622,9.572019,-2.330266E-4,0.0017643442,-3.9947417E-4,9.0,1.1158476,0.015263036,9.742905,-0.009726444,0.015861586,-0.17088614,0.039162714,-0.04140892,0.676019,2017-10-04 21:04:44,38.487967413002615
1.067814,-0.0047884034,9.588778,8.322378E-4,6.9907977E-4,6.657903E-4,9.0,1.0995371,0.018704701,9.7447,-0.03172317,-0.023493104,-0.15592238,0.038730852,-0.04066976,0.67614347,2017-10-04 21:04:45,41.83981413271991
1.1109096,0.035913024,9.619903,-2.9960563E-4,3.6618466E-4,-6.657903E-4,9.0,1.1026795,0.024241293,9.744401,0.008230069,0.011671733,-0.12449849,0.039048668,-0.040593818,0.67609364,2017-10-04 21:04:46,40.320981006082455
1.1204864,0.0047884034,9.61272,7.656588E-4,-6.9907977E-4,-6.657903E-4,9.0,1.1064205,0.021697452,9.743952,0.014065935,-0.01690905,-0.13123219,0.039081752,-0.040823393,0.67610353,2017-10-04 21:04:47,39.68972640021653
1.079785,0.04070143,9.56723,-5.9921126E-4,-7.323693E-4,4.993427E-4,9.0,1.1074679,0.021996727,9.743802,-0.027682956,0.018704701,-0.17657238,0.039130285,-0.04085608,0.6761016,2017-10-04 21:04:48,40.294568026843436
1.127669,0.019153614,9.593566,-5.9921126E-4,-7.323693E-4,0.0015646071,9.0,1.1040263,0.02558803,9.744251,0.023642741,-0.006434417,-0.15068507,0.039146017,-0.04060197,0.6760879,2017-10-04 21:04:49,40.58894393710294
1.0941502,0.011971008,9.581595,-6.657903E-4,0.0014314491,-5.326322E-4,9.0,1.1097125,0.029478608,9.743503,-0.015562311,-0.0175076,-0.1619079,0.039485443,-0.040678598,0.67608553,2017-10-04 21:04:50,38.27426165206427
1.079785,0.021547815,9.572019,0.0014647386,-6.9907977E-4,5.326322E-4,9.0,1.1071687,0.026934769,9.743802,-0.027383681,-0.0053869537,-0.17178397,0.039303802,-0.04067391,0.67611235,2017-10-04 21:04:51,39.45448292500422
1.1085154,0.050278235,9.607931,8.322378E-4,-7.656588E-4,3.9947417E-4,9.0,1.1133038,0.030226797,9.743054,-0.0047884034,0.020051438,-0.13512276,0.03964012,-0.040788434,0.6760941,2017-10-04 21:04:52,40.81492840208688
1.0869676,0.021547815,9.607931,-2.330266E-4,2.9960563E-4,-6.657903E-4,9.0,1.1034278,0.029777884,9.744251,-0.016460137,-0.008230069,-0.13631986,0.039284654,-0.040432297,0.6760834,2017-10-04 21:04:53,40.12415910573974
1.0941502,0.06464344,9.576807,-0.001165133,-0.0016644757,-6.9907977E-4,9.0,1.1070191,0.027533319,9.743802,-0.012868834,0.037110128,-0.16699557,0.039320398,-0.040646292,0.67606956,2017-10-04 21:04:54,39.095831101693676
1.079785,0.033518825,9.579201,-9.986854E-5,-5.9921126E-4,-6.9907977E-4,9.0,1.1071687,0.025288755,9.743802,-0.027383681,0.008230069,-0.16460137,0.039237097,-0.04073371,0.67601186,2017-10-04 21:04:55,40.27839791978526
1.0414777,0.035913024,9.617508,6.9907977E-4,5.326322E-4,-2.9960563E-4,9.0,1.1059716,0.02064999,9.743952,-0.064493805,0.015263036,-0.12644377,0.03902653,-0.04085017,0.67603105,2017-10-04 21:04:56,39.87237727248486
1.1085154,0.038307227,9.598354,-0.0014314491,-5.326322E-4,-2.9960563E-4,9.0,1.0960954,0.023044191,9.745149,0.012419921,0.015263036,-0.1467945,0.038776565,-0.040386744,0.6761753,2017-10-04 21:04:57,40.861219826526316
1.0654198,-0.0047884034,9.610326,-3.6618466E-4,5.326322E-4,7.656588E-4,9.0,1.1028291,0.022146367,9.744401,-0.037409402,-0.026934769,-0.1340753,0.038980607,-0.040664934,0.6762683,2017-10-04 21:04:58,42.31776144747147
1.0773908,-0.0023942017,9.591172,-0.0024967135,0.0014314491,-5.326322E-4,9.0,1.1034278,0.01690905,9.744251,-0.026036944,-0.019303251,-0.15307927,0.038808,-0.040864907,0.67632884,2017-10-04 21:04:59,44.71660814229563
1.1109096,0.023942016,9.629479,-0.0014314491,-6.9907977E-4,5.326322E-4,9.0,1.1004349,0.020051438,9.744551,0.0104746325,0.0038905777,-0.11507132,0.038826447,-0.040648222,0.6763094,2017-10-04 21:05:00,43.12282948826021
1.067814,0.04070143,9.617508,-9.986854E-5,-0.0016644757,-5.9921126E-4,9.0,1.1088147,0.027832596,9.743652,-0.041000705,0.012868834,-0.1261445,0.039413504,-0.04069165,0.67630786,2017-10-04 21:05:01,43.00727082039308
1.0702082,-0.007182605,9.636662,-9.986854E-5,-5.9921126E-4,4.660532E-4,9.0,1.1017817,0.031423897,9.744401,-0.031573534,-0.038606502,-0.107739076,0.03930004,-0.040304147,0.67633504,2017-10-04 21:05:02,42.88114894212868
1.0821792,0.023942016,9.579201,7.656588E-4,5.326322E-4,-5.659217E-4,9.0,1.0974422,0.026785132,9.745,-0.015263036,-0.0028431145,-0.16579847,0.038969323,-0.040299967,0.6763149,2017-10-04 21:05:03,44.808318224900646
1.1013328,0.04070143,9.646238,7.656588E-4,-5.326322E-4,4.993427E-4,9.0,1.0959458,0.023493104,9.745149,0.0053869537,0.017208325,-0.09891046,0.03879918,-0.040360086,0.67631847,2017-10-04 21:05:04,43.5263821276071
1.0510546,0.02873042,9.591172,-0.0015646071,2.330266E-4,4.993427E-4,9.0,1.0969933,0.02633622,9.745,-0.045938745,0.0023942017,-0.15382746,0.03894121,-0.040300667,0.676302,2017-10-04 21:05:05,45.67395058101607
1.1109096,0.021547815,9.603143,5.659217E-4,2.330266E-4,-5.659217E-4,9.0,1.103278,0.027533319,9.744251,0.007631518,-0.005985504,-0.14110826,0.039203826,-0.04049716,0.6762634,2017-10-04 21:05:07,44.905629792835676
1.0630256,0.031124622,9.564836,-3.9947417E-4,-0.0016644757,-5.659217E-4,9.0,1.112406,0.026485857,9.743204,-0.04938041,0.004638766,-0.17836803,0.03948233,-0.04087738,0.676256,2017-10-04 21:05:08,41.79647585307912
1.0989386,0.035913024,9.593566,0.0017310547,0.008988169,-5.659217E-4,9.0,1.0920552,0.029628245,9.745598,0.0068833297,0.0062847794,-0.15203181,0.038891092,-0.03999672,0.67632073,2017-10-04 21:05:09,42.120373425791996
1.0773908,0.007182605,9.574412,0.0025632926,8.322378E-4,0.0018309233,9.0,1.1011832,0.029029695,9.744551,-0.023792379,-0.02184709,-0.17013796,0.03919223,-0.040363215,0.67633027,2017-10-04 21:05:10,46.21950368706213
1.0702082,0.045489833,9.598354,-6.3250074E-4,-0.001298291,-2.9960563E-4,9.0,1.1034278,0.023044191,9.744251,-0.03321955,0.022445641,-0.14589667,0.039044306,-0.040647812,0.676434,2017-10-04 21:05:11,43.4131678028169
1.0749966,0.055066638,9.586384,4.3276369E-4,-0.0034288198,7.656588E-4,9.0,1.1122563,0.020350715,9.743204,-0.037259765,0.034715924,-0.15682021,0.039256454,-0.0410671,0.6765112,2017-10-04 21:05:12,46.05820724502523
1.127669,-0.009576807,9.600749,-0.0015313176,-0.001298291,0.001498028,9.0,1.1025299,0.025288755,9.744401,0.025139118,-0.034865562,-0.1436521,0.039109487,-0.04052949,0.67657644,2017-10-04 21:05:13,45.044517934620046
1.0654198,0.04309563,9.605537,5.9921126E-4,-0.001298291,4.3276369E-4,9.0,1.1140519,0.019602526,9.743054,-0.048632223,0.023493104,-0.13751696,0.039292566,-0.041162804,0.67654735,2017-10-04 21:05:14,45.14004590433793
1.067814,0.021547815,9.607931,-1.6644757E-4,0.0022636869,-5.9921126E-4,9.0,1.0981904,0.028281508,9.74485,-0.030376434,-0.0067336923,-0.13691841,0.039068617,-0.04025945,0.6765744,2017-10-04 21:05:15,45.52868454724127
1.1013328,0.021547815,9.631873,-1.6644757E-4,-0.0019973707,-5.9921126E-4,9.0,1.0887632,0.03546411,9.745897,0.012569559,-0.013916298,-0.11402386,0.03901583,-0.039655417,0.6766246,2017-10-04 21:05:16,44.701283494830705
1.0319009,-0.007182605,9.600749,-0.0010652645,-1.3315806E-4,3.6618466E-4,9.0,1.0895114,0.019303251,9.745897,-0.05761048,-0.026485857,-0.14514847,0.038433485,-0.040241756,0.6766364,2017-10-04 21:05:17,46.05396395055291
1.1085154,0.035913024,9.598354,-0.0010652645,-0.0011984225,3.6618466E-4,9.0,1.1089643,0.010175358,9.743652,-4.4891282E-4,0.025737667,-0.14529811,0.038764138,-0.041295797,0.6765855,2017-10-04 21:05:18,42.72621652704502
1.103727,0.0023942017,9.603143,0.0016644757,1.3315806E-4,-6.9907977E-4,9.0,1.0981904,0.016759412,9.74485,0.0055365916,-0.01436521,-0.14170681,0.03863716,-0.040665805,0.67657334,2017-10-04 21:05:19,44.9109518532875
1.1444284,0.038307227,9.576807,5.9921126E-4,1.3315806E-4,-0.0017643442,9.0,1.0999861,0.024540568,9.7447,0.04444237,0.013766659,-0.1678934,0.03899111,-0.040464744,0.6765174,2017-10-04 21:05:20,42.65402547527229
1.0773908,0.016759412,9.617508,3.3289514E-4,-5.9921126E-4,-3.9947417E-4,9.0,1.1159973,0.025139118,9.742755,-0.038606502,-0.008379706,-0.12524667,0.039563455,-0.041049875,0.6763975,2017-10-04 21:05:21,44.228657079239326
1.0749966,0.10295067,9.569624,-0.0017976337,0.0036618465,6.657903E-4,9.0,1.1059716,0.024690205,9.743952,-0.030974984,0.07826047,-0.1743278,0.039200787,-0.040689163,0.676449,2017-10-04 21:05:22,44.18163585668562
1.0845734,0.023942016,9.627085,6.9907977E-4,3.9947417E-4,-6.3250074E-4,9.0,1.1061212,0.02439093,9.743952,-0.021547815,-4.4891282E-4,-0.11686697,0.03919846,-0.040697798,0.6765092,2017-10-04 21:05:23,45.33269957972689
1.0893618,0.05267244,9.61272,6.9907977E-4,3.9947417E-4,-6.3250074E-4,9.0,1.1026795,0.023792379,9.744401,-0.013317747,0.028880058,-0.1316811,0.03905431,-0.04058881,0.67650825,2017-10-04 21:05:24,43.745046168958254
1.091756,0.045489833,9.605537,6.9907977E-4,-6.657903E-4,-6.3250074E-4,9.0,1.1050737,0.018854339,9.744102,-0.013317747,0.026635494,-0.13856442,0.038955174,-0.040850095,0.6765087,2017-10-04 21:05:25,45.695952450318785
1.0606314,0.035913024,9.610326,2.663161E-4,5.326322E-4,-5.659217E-4,9.0,1.1082162,0.0163105,9.743802,-0.047584757,0.019602526,-0.13347675,0.03896063,-0.04105688,0.67649025,2017-10-04 21:05:26,45.924741873344416
1.0726024,-0.009576807,9.586384,0.0013315806,5.326322E-4,0.0015646071,9.0,1.1077672,0.01436521,9.743802,-0.035164837,-0.023942016,-0.15741876,0.038875066,-0.041109033,0.6764867,2017-10-04 21:05:27,47.92592017437179
1.0965444,0.050278235,9.610326,6.657903E-4,-5.659217E-4,3.9947417E-4,9.0,1.1061212,0.010773907,9.743952,-0.009576807,0.039504327,-0.13362639,0.03868858,-0.041171603,0.67650646,2017-10-04 21:05:28,46.55109304028969
1.1133038,0.023942016,9.619903,-3.9947417E-4,4.993427E-4,-6.657903E-4,9.0,1.1002853,0.017956512,9.7447,0.013018472,0.005985504,-0.12479776,0.038745105,-0.0407053,0.67645043,2017-10-04 21:05:29,46.46636769357614
1.0773908,0.055066638,9.631873,6.3250074E-4,-6.657903E-4,-4.3276369E-4,9.0,1.1035774,0.016609775,9.744251,-0.026186582,0.038456865,-0.112377845,0.03881446,-0.04087671,0.6764615,2017-10-04 21:05:31,43.95953239168971
1.0821792,0.047884032,9.605537,6.3250074E-4,-6.657903E-4,-4.3276369E-4,9.0,1.1007342,0.021098902,9.744551,-0.018555064,0.026785132,-0.13901334,0.038886078,-0.040606447,0.67651004,2017-10-04 21:05:32,43.33271954356451
1.1061212,0.009576807,9.586384,7.656588E-4,-4.3276369E-4,4.993427E-4,9.0,1.1031284,0.019752163,9.744251,0.002992752,-0.010175358,-0.15786767,0.038915817,-0.04074861,0.67649907,2017-10-04 21:05:33,47.661225176913895
1.1348516,0.11252748,9.591172,-0.00136487,6.3250074E-4,-5.659217E-4,9.0,1.103727,0.0070329676,9.744251,0.031124622,0.105494514,-0.15307927,0.038462467,-0.041207694,0.67655593,2017-10-04 21:05:34,45.51913656716288
1.0989386,0.055066638,9.595961,-0.0013664679,6.351639E-4,-5.659217E-4,9.0,1.105822,0.018555064,9.743952,-0.0068833297,0.036511578,-0.1479916,0.03896595,-0.040887207,0.67655474,2017-10-04 21:05:35,46.49674161337397
1.0773908,0.0047884034,9.617508,-3.0360036E-4,-4.2557315E-4,-5.659217E-4,9.0,1.103727,0.023044191,9.744251,-0.02633622,-0.018255789,-0.12674305,0.039069016,-0.040646426,0.6766102,2017-10-04 21:05:36,45.849583135544876
1.0989386,-0.0023942017,9.619903,-2.663161E-4,-0.0014647386,6.3250074E-4,9.0,1.103278,0.015263036,9.744251,-0.0043394906,-0.017657237,-0.12434885,0.038761728,-0.040901214,0.6766656,2017-10-04 21:05:37,45.05041987686906
1.103727,0.01436521,9.576807,7.9894834E-4,-0.002530003,-4.3276369E-4,9.0,1.1022305,0.023044191,9.744401,0.001496376,-0.008678981,-0.16759412,0.039024767,-0.040583774,0.67676204,2017-10-04 21:05:38,44.95220805129275
1.0893618,0.019153614,9.572019,-0.0017310547,4.993427E-4,4.3276369E-4,9.0,1.1040263,0.026036944,9.744251,-0.014664485,-0.0068833297,-0.17223288,0.0391995,-0.04054527,0.6768436,2017-10-04 21:05:39,44.934072494463535
1.0893618,0.011971008,9.569624,-6.657903E-4,0.0015646071,4.3276369E-4,9.0,1.1010334,0.020799628,9.744551,-0.011671733,-0.008828619,-0.17492636,0.03891078,-0.04061103,0.67690796,2017-10-04 21:05:40,45.23222698354796
1.091756,0.033518825,9.610326,0.0019973707,-9.653959E-4,-8.322378E-4,9.0,1.1098621,0.017208325,9.743503,-0.01810615,0.0163105,-0.13317747,0.039081927,-0.041064523,0.676909,2017-10-04 21:05:41,41.9544682823296
1.0582372,0.04309563,9.593566,9.321064E-4,-9.653959E-4,2.330266E-4,9.0,1.0998363,0.023343466,9.7447,-0.041599255,0.019752163,-0.15113398,0.038955078,-0.040478602,0.67685014,2017-10-04 21:05:42,42.64881493322237
1.0654198,0.04070143,9.581595,-1.3315806E-4,-0.0020306604,-8.322378E-4,9.0,1.1047745,0.02498948,9.744102,-0.03935469,0.015711948,-0.16250645,0.03918639,-0.04061041,0.6767997,2017-10-04 21:05:43,43.04267431061148
1.0869676,0.04309563,9.562442,-4.660532E-4,-5.326322E-4,-0.0016977652,9.0,1.1100118,0.029927522,9.743503,-0.023044191,0.01316811,-0.1810615,0.039555278,-0.040638283,0.67680734,2017-10-04 21:05:44,40.606953509716874
1.103727,0.007182605,9.617508,-4.660532E-4,-0.0026631611,4.3276369E-4,9.0,1.1038766,0.030974984,9.744251,-1.496376E-4,-0.023792379,-0.12674305,0.03938616,-0.040371247,0.6768245,2017-10-04 21:05:45,43.290817733169646
1.0773908,0.038307227,9.598354,5.326322E-4,0.001498028,5.326322E-4,9.0,1.1067197,0.025887307,9.743952,-0.02932897,0.012419921,-0.1455974,0.03928766,-0.04065098,0.67685276,2017-10-04 21:05:46,60.94779386478071
1.0726024,0.04309563,9.588778,0.0015978967,0.005759086,-5.326322E-4,9.0,1.1022305,0.028431145,9.744401,-0.029628245,0.014664485,-0.15562311,0.03922948,-0.04039111,0.67690307,2017-10-04 21:05:47,63.66696962795195
1.1109096,0.04309563,9.576807,2.330266E-4,-0.0020639498,1.6644757E-4,9.0,1.1089643,0.014963761,9.743652,0.0019452889,0.02813187,-0.16684593,0.038961187,-0.041115865,0.6768262,2017-10-04 21:05:48,42.20439780783381
1.091756,0.02873042,9.576807,-8.322378E-4,-0.0020639498,1.6644757E-4,9.0,1.1100118,0.018405426,9.743503,-0.018255789,0.010324995,-0.1666963,0.03911321,-0.041044317,0.67668015,2017-10-04 21:05:49,43.77190795839979
1.103727,0.055066638,9.603143,-4.993427E-4,0.0026298715,-0.0015646071,9.0,1.1097125,0.028880058,9.743503,-0.005985504,0.026186582,-0.14036007,0.03949742,-0.040673465,0.67657644,2017-10-04 21:05:50,43.74475466214244
1.1300632,-0.007182605,9.562442,-4.993427E-4,-0.0026964506,-4.993427E-4,9.0,1.1004349,0.02124854,9.744551,0.029628245,-0.028431145,-0.18210897,0.03888628,-0.04058992,0.67662805,2017-10-04 21:05:51,43.15764416126849
1.0893618,0.0,9.557653,8.6552737E-4,0.0013981595,-4.993427E-4,9.0,1.0990882,0.025737667,9.7447,-0.009726444,-0.025737667,-0.187047,0.03901518,-0.040379986,0.67667764,2017-10-04 21:05:52,44.755466095196454
1.0726024,0.02873042,9.600749,-0.0012650015,3.3289514E-4,-4.993427E-4,9.0,1.0980407,0.013766659,9.74485,-0.025438393,0.014963761,-0.14410101,0.03852687,-0.04075347,0.6767463,2017-10-04 21:05:53,42.56287475824054
1.067814,-0.031124622,9.615114,0.0030626352,0.0021638183,5.326322E-4,9.0,1.1005846,0.012419921,9.744551,-0.032770637,-0.043544542,-0.12943652,0.038568854,-0.040893808,0.6767773,2017-10-04 21:05:54,44.01673260830059
1.0654198,0.01436521,9.605537,9.321064E-4,-0.0010319749,0.0015978967,9.0,1.105373,0.022146367,9.744102,-0.03995324,-0.0077811554,-0.13856442,0.03910444,-0.04072614,0.67683655,2017-10-04 21:05:56,43.03873638939423
1.0462662,0.035913024,9.622296,-0.0011984225,3.3289514E-5,5.326322E-4,9.0,1.1121067,0.026036944,9.743204,-0.06584055,0.009876082,-0.12090719,0.03948907,-0.040843844,0.67690414,2017-10-04 21:05:57,43.88881591329361
1.0821792,-0.016759412,9.593566,5.659217E-4,1.3315806E-4,4.660532E-4,9.0,1.1115081,0.021098902,9.743354,-0.02932897,-0.037858315,-0.14978725,0.039279826,-0.040991165,0.67688304,2017-10-04 21:05:58,43.679570846732716
1.0821792,0.050278235,9.622296,5.659217E-4,1.3315806E-4,4.660532E-4,9.0,1.1094133,0.023193829,9.743652,-0.027234044,0.027084406,-0.1213561,0.039280348,-0.040848322,0.67680544,2017-10-04 21:05:59,43.43804533484501
1.0821792,0.02633622,9.598354,0.0016977652,3.9947417E-4,8.6552737E-4,9.0,1.1035774,0.025887307,9.744251,-0.021398177,4.4891282E-4,-0.14589667,0.03918737,-0.04053221,0.67694324,2017-10-04 21:06:00,43.90682141525194
1.1013328,-0.0047884034,9.574412,-4.3276369E-4,3.9947417E-4,8.6552737E-4,9.0,1.1068693,0.023343466,9.743802,-0.0055365916,-0.02813187,-0.16938977,0.039216537,-0.040732794,0.677074,2017-10-04 21:06:01,43.30163383733671
1.091756,0.009576807,9.593566,3.6618466E-4,5.659217E-4,2.9960563E-4,9.0,1.1083658,0.0175076,9.743652,-0.016609775,-0.007930793,-0.15008652,0.039049014,-0.040990263,0.67707545,2017-10-04 21:06:02,44.760063231573426
1.091756,0.047884032,9.586384,3.6618466E-4,0.0016311861,2.9960563E-4,9.0,1.1023803,0.020500353,9.744401,-0.01062427,0.027383681,-0.15801731,0.03894834,-0.0406662,0.67700547,2017-10-04 21:06:03,43.828743174866645
1.0606314,-0.0047884034,9.603143,-7.656588E-4,-8.9881686E-4,3.3289514E-4,9.0,1.0977415,0.013617022,9.74485,-0.037110128,-0.018405426,-0.14170681,0.03852724,-0.040733315,0.6770162,2017-10-04 21:06:04,44.60451168982861
1.0845734,0.047884032,9.636662,-7.656588E-4,0.0012317119,3.3289514E-4,9.0,1.1068693,0.014664485,9.743952,-0.022296004,0.03321955,-0.10729016,0.038880877,-0.0410399,0.6769586,2017-10-04 21:06:05,43.973028165520105
1.1061212,0.047884032,9.579201,-5.659217E-4,3.3289514E-4,3.6618466E-4,9.0,1.1002853,0.014215573,9.7447,0.0058358666,0.033668462,-0.1654992,0.038630188,-0.040811345,0.6769195,2017-10-04 21:06:06,44.64431267638952
1.0702082,0.02633622,9.593566,-0.0016311861,3.3289514E-4,0.0014314491,9.0,1.1089643,0.022146367,9.743652,-0.03875614,0.004189853,-0.15008652,0.03923163,-0.040864132,0.67687255,2017-10-04 21:06:07,42.65164076834505
1.0845734,0.019153614,9.581595,-0.0013981595,3.9947417E-4,-7.323693E-4,9.0,1.1059716,0.022744916,9.743952,-0.021398177,-0.0035913025,-0.16235681,0.039150655,-0.040726334,0.67691034,2017-10-04 21:06:08,45.58581938304542
1.0869676,0.007182605,9.605537,-3.3289514E-4,-6.657903E-4,3.3289514E-4,9.0,1.1074679,0.026485857,9.743802,-0.020500353,-0.019303251,-0.13826515,0.03934199,-0.040654175,0.6768604,2017-10-04 21:06:09,44.008386533106105
1.1085154,0.02873042,9.569624,6.657903E-4,-7.9894834E-4,3.9947417E-4,9.0,1.1025299,0.029478608,9.744401,0.005985504,-7.48188E-4,-0.17477672,0.039284535,-0.040371634,0.676825,2017-10-04 21:06:10,44.07251031662518
1.0702082,0.009576807,9.572019,6.657903E-4,-0.0018642128,3.9947417E-4,9.0,1.1029788,0.024091655,9.744251,-0.032770637,-0.014514848,-0.17223288,0.039097168,-0.040571406,0.67689973,2017-10-04 21:06:11,43.40296724149279
1.1013328,0.035913024,9.583989,-3.9947417E-4,-7.9894834E-4,3.9947417E-4,9.0,1.1062708,0.027383681,9.743952,-0.004938041,0.008529344,-0.1599626,0.039332524,-0.040584505,0.67687136,2017-10-04 21:06:12,42.720649356095436
1.0821792,0.059855044,9.603143,5.659217E-4,3.6618466E-4,-5.659217E-4,9.0,1.1011832,0.018854339,9.744551,-0.019003976,0.041000705,-0.14140753,0.038842913,-0.04068455,0.6769318,2017-10-04 21:06:13,43.896452524386724
1.1061212,0.038307227,9.64145,5.659217E-4,-6.9907977E-4,-5.659217E-4,9.0,1.1094133,0.021547815,9.743652,-0.0032920274,0.016759412,-0.10220248,0.039231367,-0.040896386,0.6769404,2017-10-04 21:06:14,44.0031919007578
1.0845734,0.050278235,9.598354,0.0015646071,1.9973709E-4,4.993427E-4,9.0,1.1148002,0.020350715,9.742905,-0.030226797,0.029927522,-0.14454992,0.039372746,-0.041137733,0.676997,2017-10-04 21:06:15,44.97363393615352
1.1252748,0.01436521,9.583989,-5.659217E-4,-0.0019307918,4.993427E-4,9.0,1.1052234,0.020949265,9.744102,0.020051438,-0.006584055,-0.16011223,0.039070934,-0.040755816,0.6770577,2017-10-04 21:06:16,41.59997249141182
1.055843,0.062249243,9.622296,-7.656588E-4,-6.9907977E-4,-8.322378E-4,9.0,1.1055226,0.018854339,9.744102,-0.049679685,0.043394905,-0.12180501,0.038998716,-0.04083783,0.67703146,2017-10-04 21:06:17,43.95965807767552
1.0654198,0.01436521,9.595961,2.9960563E-4,-6.9907977E-4,-0.0018975022,9.0,1.1035774,0.025139118,9.744251,-0.03815759,-0.010773907,-0.14829087,0.039161384,-0.040556602,0.67690057,2017-10-04 21:06:18,44.013277365651504
1.1013328,0.02633622,9.595961,6.9907977E-4,3.9947417E-4,5.659217E-4,9.0,1.1082162,0.029628245,9.743652,-0.0068833297,-0.0032920274,-0.14769232,0.039482847,-0.04057754,0.6768243,2017-10-04 21:06:19,46.78199579562487
1.1109096,0.055066638,9.603143,6.9907977E-4,-0.0017310547,-4.993427E-4,9.0,1.0945991,0.044143096,9.745149,0.0163105,0.010923545,-0.14200608,0.03955586,-0.039562233,0.67687947,2017-10-04 21:06:21,44.78238111554689
1.103727,0.0,9.619903,2.330266E-4,0.0015646071,-5.659217E-4,9.0,1.1186907,0.022445641,9.7424555,-0.014963761,-0.022445641,-0.1225532,0.039585464,-0.041214317,0.67692536,2017-10-04 21:06:22,44.59986895711087
1.0965444,0.023942016,9.569624,0.0023635554,4.993427E-4,4.993427E-4,9.0,1.1055226,0.017657237,9.744102,-0.008978256,0.0062847794,-0.17447744,0.03894964,-0.040886186,0.6770088,2017-10-04 21:06:23,43.92199792358568
1.0726024,-0.02873042,9.607931,6.3250074E-4,3.3289514E-5,4.3276369E-4,9.0,1.1005846,0.033518825,9.744551,-0.027982233,-0.062249243,-0.13661914,0.039371144,-0.040148765,0.67701477,2017-10-04 21:06:24,43.821194342085825
1.127669,0.088585466,9.572019,-4.3276369E-4,-0.0010319749,4.3276369E-4,9.0,1.1043255,0.027084406,9.744102,0.023343466,0.061501056,-0.17208324,0.03926573,-0.040508196,0.6770665,2017-10-04 21:06:25,44.08271623732628
1.0773908,0.04070143,9.591172,0.0016977652,0.0032290828,4.3276369E-4,9.0,1.1067197,0.02124854,9.743952,-0.02932897,0.019452889,-0.15278,0.039131425,-0.040802278,0.6770868,2017-10-04 21:06:26,44.56882057652278
1.0941502,0.0,9.617508,-3.9947417E-4,0.0023635554,1.9973709E-4,9.0,1.1025299,0.021697452,9.744401,-0.008379706,-0.021697452,-0.12689269,0.039003562,-0.040629275,0.6770429,2017-10-04 21:06:27,44.23295596656166
1.0893618,0.02633622,9.588778,6.657903E-4,2.330266E-4,-8.6552737E-4,9.0,1.1031284,0.026785132,9.744251,-0.013766659,-4.4891282E-4,-0.15547347,0.03920926,-0.04047662,0.67699116,2017-10-04 21:06:28,43.895619068230175
1.0845734,0.045489833,9.610326,-0.0013981595,-5.9921126E-4,0.0015646071,9.0,1.0990882,0.026036944,9.7447,-0.014514848,0.019452889,-0.13437457,0.039038643,-0.040349416,0.6770145,2017-10-04 21:06:29,44.42219717481193
1.0965444,0.016759412,9.600749,-3.3289514E-4,-5.9921126E-4,-5.659217E-4,9.0,1.108665,0.027533319,9.743652,-0.012120646,-0.010773907,-0.14290391,0.039432902,-0.04065445,0.67703444,2017-10-04 21:06:30,44.37931339337024
1.115698,0.045489833,9.595961,6.9907977E-4,5.9921126E-4,-7.323693E-4,9.0,1.1146505,0.030526072,9.742905,0.0010474633,0.014963761,-0.14694414,0.03975263,-0.04078109,0.6769987,2017-10-04 21:06:31,44.65444714194453
1.0582372,-0.0023942017,9.598354,-3.6618466E-4,-0.0015313176,3.3289514E-4,9.0,1.1073183,0.027982233,9.743802,-0.049081136,-0.030376434,-0.14544775,0.039400578,-0.040592447,0.6769927,2017-10-04 21:06:32,42.43603680766883
1.0941502,0.009576807,9.622296,-4.993427E-4,-5.326322E-4,0.0016311861,9.0,1.1061212,0.016609775,9.743952,-0.011971008,-0.0070329676,-0.121655375,0.038935184,-0.040942937,0.6770349,2017-10-04 21:06:33,42.20897362550743
1.3144168,-0.021547815,9.564836,-0.0047604004,-0.006924219,-4.993427E-4,9.0,1.1248258,0.01616086,9.741858,0.18959084,-0.037708677,-0.1770213,0.039571192,-0.041659348,0.67706865,2017-10-04 21:06:34,42.94999369599881
1.1133038,0.059855044,9.579201,5.635249E-4,-0.0015936355,-4.993427E-4,9.0,1.1201872,0.0055365916,9.7424555,-0.0068833297,0.05431845,-0.16325463,0.039013915,-0.04184234,0.6771855,2017-10-04 21:06:35,43.98544978356303
1.0941502,0.011971008,9.595961,-5.0520163E-4,-5.217132E-4,0.0016314525,9.0,1.1142017,0.007930793,9.743054,-0.020051438,0.004040215,-0.14709377,0.038900405,-0.04153353,0.677237,2017-10-04 21:06:36,42.93039675111797
1.079785,0.02633622,9.586384,5.9921126E-4,7.323693E-4,-6.657903E-4,9.0,1.1068693,0.010773907,9.743952,-0.027084406,0.015562311,-0.1575684,0.038756832,-0.04115414,0.67731017,2017-10-04 21:06:37,43.33612559602906
1.0749966,0.02873042,9.605537,-4.660532E-4,-3.3289514E-4,3.9947417E-4,9.0,1.1022305,0.020350715,9.744401,-0.027234044,0.008379706,-0.1388637,0.038951617,-0.040650785,0.67727786,2017-10-04 21:06:38,40.624254187591006
1.1061212,-0.009576807,9.588778,5.659217E-4,-5.9921126E-4,4.993427E-4,9.0,1.1050737,0.019752163,9.744102,0.0010474633,-0.02932897,-0.15532383,0.039024096,-0.040781938,0.6772508,2017-10-04 21:06:39,42.52707693724358
1.1133038,-0.01436521,9.648633,0.0016311861,4.660532E-4,0.0015646071,9.0,1.1049241,0.015711948,9.744102,0.008379706,-0.03007716,-0.09546879,0.038869724,-0.040914007,0.67729026,2017-10-04 21:06:40,43.86827839829063
1.1013328,0.011971008,9.588778,-0.003695136,-0.006990798,4.993427E-4,9.0,1.1031284,0.018704701,9.744251,-0.0017956513,-0.0067336923,-0.15547347,0.038928077,-0.040741116,0.67732304,2017-10-04 21:06:41,44.75157846897673
1.1228806,0.031124622,9.610326,5.326322E-4,-7.656588E-4,2.663161E-4,9.0,1.1061212,0.024690205,9.743952,0.016759412,0.006434417,-0.13362639,0.03925099,-0.040648572,0.677259,2017-10-04 21:06:42,43.55220112442733
1.103727,0.02873042,9.591172,-5.326322E-4,0.00136487,-7.9894834E-4,9.0,1.1073183,0.015711948,9.743802,-0.0035913025,0.013018472,-0.15263036,0.038953323,-0.041009225,0.67721015,2017-10-04 21:06:43,44.562656277009964
1.0821792,0.031124622,9.593566,-0.0014647386,0.0018642128,-6.657903E-4,9.0,1.1065701,0.022744916,9.743952,-0.02439093,0.008379706,-0.1503858,0.03918963,-0.040737674,0.677162,2017-10-04 21:06:44,44.85138645774188
1.0414777,0.031124622,9.605537,6.657903E-4,7.9894834E-4,3.9947417E-4,9.0,1.09834,0.0199018,9.74485,-0.05686229,0.011222821,-0.13931261,0.038793877,-0.040527962,0.67716676,2017-10-04 21:06:45,42.099297691439965
1.0893618,0.016759412,9.607931,5.659217E-4,0.0014314491,-6.657903E-4,9.0,1.0998363,0.017806875,9.7447,-0.0104746325,-0.0010474633,-0.13676877,0.03876727,-0.040654913,0.67721385,2017-10-04 21:06:46,43.964847989568966
1.0845734,0.0047884034,9.55047,-4.993427E-4,3.6618466E-4,-6.657903E-4,9.0,1.1011832,0.014664485,9.744551,-0.016609775,-0.009876082,-0.19407998,0.038700406,-0.040814877,0.67718107,2017-10-04 21:06:48,43.21419423627985
1.0630256,0.031124622,9.627085,-0.0015313176,-0.0016977652,4.993427E-4,9.0,1.1040263,0.019752163,9.744251,-0.041000705,0.011372458,-0.11716624,0.038981542,-0.040752172,0.67711717,2017-10-04 21:06:49,43.94421222094011
1.0654198,0.045489833,9.622296,-4.660532E-4,0.001498028,-5.659217E-4,9.0,1.105822,0.01616086,9.743952,-0.040402155,0.02932897,-0.121655375,0.03891227,-0.040936634,0.67716783,2017-10-04 21:06:50,45.07598599626975
1.055843,0.02873042,9.600749,-5.9921126E-4,3.6618466E-4,5.659217E-4,9.0,1.1073183,0.014065935,9.743802,-0.051475335,0.014664485,-0.14305355,0.03888884,-0.04106819,0.67718273,2017-10-04 21:06:51,44.52044177915491
1.0845734,0.045489833,9.624691,-0.0016644757,3.6618466E-4,-4.993427E-4,9.0,1.1052234,0.018704701,9.744102,-0.02064999,0.026785132,-0.11941081,0.038990565,-0.040819876,0.67728835,2017-10-04 21:06:52,43.877089604135676
1.0486604,0.033518825,9.624691,-0.0016644757,3.6618466E-4,-4.993427E-4,9.0,1.1061212,0.013018472,9.743952,-0.05746084,0.020500353,-0.119261175,0.03881706,-0.041051388,0.67736083,2017-10-04 21:06:53,45.192032809584276
1.055843,0.016759412,9.588778,0.0,0.0015646071,3.3289514E-4,9.0,1.0984896,0.01062427,9.74485,-0.042646717,0.006135142,-0.15607202,0.03846315,-0.040846325,0.6773872,2017-10-04 21:06:54,43.93477465732524
1.0869676,0.011971008,9.619903,0.0010652645,-5.659217E-4,-7.323693E-4,9.0,1.089661,0.024839843,9.745748,-0.0026934769,-0.012868834,-0.12584522,0.0386884,-0.04002291,0.67735463,2017-10-04 21:06:55,43.77830199892549
1.091756,0.02633622,9.605537,7.656588E-4,5.659217E-4,-0.0015978967,9.0,1.0996867,0.02498948,9.7447,-0.007930793,0.0013467384,-0.13916297,0.039049078,-0.04038781,0.6774146,2017-10-04 21:06:56,45.97086126237221
1.0965444,0.02633622,9.543288,-2.9960563E-4,5.659217E-4,5.326322E-4,9.0,1.0944494,0.021697452,9.745298,0.0020949265,0.004638766,-0.20201077,0.038742814,-0.04029849,0.6774774,2017-10-04 21:06:57,44.22742861597872
1.1085154,0.023942016,9.600749,-3.9947417E-4,-9.321064E-4,-5.326322E-4,9.0,1.0978911,0.015861586,9.74485,0.01062427,0.00808043,-0.14410101,0.03864383,-0.040635653,0.6775169,2017-10-04 21:06:58,44.88262966094225
1.0702082,-0.01436521,9.572019,6.657903E-4,1.3315806E-4,5.326322E-4,9.0,1.1077672,0.01690905,9.743802,-0.03755904,-0.03127426,-0.17178397,0.039028957,-0.04096242,0.6775139,2017-10-04 21:06:59,44.315035427653065
1.055843,0.033518825,9.605537,0.0020306604,0.0015313176,1.6644757E-4,9.0,1.1064205,0.019602526,9.743952,-0.05057751,0.013916298,-0.13841479,0.039080866,-0.040824562,0.6774635,2017-10-04 21:07:00,44.10717614264065
1.1109096,0.04070143,9.610326,0.0020306604,-5.9921126E-4,1.6644757E-4,9.0,1.103278,0.02558803,9.744251,0.007631518,0.015113398,-0.13392566,0.039191715,-0.040504552,0.6773705,2017-10-04 21:07:01,44.949156019810125
1.0773908,0.031124622,9.598354,0.0016644757,-7.9894834E-4,-8.6552737E-4,9.0,1.105822,0.022445641,9.743952,-0.028431145,0.008678981,-0.1455974,0.039157446,-0.04071574,0.6772775,2017-10-04 21:07:02,43.61288977298875
1.043872,0.04070143,9.557653,-4.660532E-4,-7.9894834E-4,1.9973709E-4,9.0,1.1038766,0.024091655,9.744251,-0.06000468,0.016609775,-0.18659809,0.03914709,-0.04058832,0.6771794,2017-10-04 21:07:03,42.733296509459215
1.0726024,0.019153614,9.617508,0.001298291,7.656588E-4,-6.3250074E-4,9.0,1.1083658,0.02873042,9.743652,-0.035763387,-0.009576807,-0.1261445,0.039471366,-0.040601708,0.67710453,2017-10-04 21:07:04,45.47119625636479
1.0486604,0.009576807,9.639056,-0.0018975022,7.656588E-4,0.001498028,9.0,1.09834,0.014814123,9.74485,-0.049679685,-0.0052373162,-0.10579379,0.038603563,-0.04070399,0.67712325,2017-10-04 21:07:05,44.685968955048374
1.0702082,0.038307227,9.581595,0.0015978967,-0.0018642128,4.660532E-4,9.0,1.0954969,0.011372458,9.745149,-0.025288755,0.026934769,-0.16355391,0.03836812,-0.040718883,0.6771235,2017-10-04 21:07:06,45.192413057631796
1.0869676,-0.031124622,9.591172,5.326322E-4,-7.9894834E-4,-5.9921126E-4,9.0,1.0963948,0.023942016,9.745,-0.009427169,-0.055066638,-0.15382746,0.038873374,-0.040319227,0.6770689,2017-10-04 21:07:07,46.19393416227281
1.1204864,0.01436521,9.617508,-5.326322E-4,2.663161E-4,-5.9921126E-4,9.0,1.101632,0.022445641,9.744401,0.018854339,-0.00808043,-0.12689269,0.03899546,-0.04056806,0.67708355,2017-10-04 21:07:08,43.60076207766131
1.0869676,0.0023942017,9.639056,-0.0016644757,-4.993427E-4,4.3276369E-4,9.0,1.1010334,0.017956512,9.744551,-0.014065935,-0.015562311,-0.105494514,0.038811356,-0.04069352,0.6771098,2017-10-04 21:07:09,44.49055916138403
1.0606314,-0.093373865,9.787497,-0.004860269,-0.049501505,4.3276369E-4,9.0,1.1130046,0.027832596,9.743204,-0.052373163,-0.12120646,0.044292733,0.03958986,-0.04081028,0.67702025,2017-10-04 21:07:10,59.01084123706952
1.0366893,-0.079008654,9.562442,0.003658917,0.0048320396,-6.3250074E-4,9.0,1.0636241,0.040402155,9.74859,-0.026934769,-0.11941081,-0.18614918,0.038344834,-0.038519956,0.6770759,2017-10-04 21:07:11,53.777470195952176
1.13964,-0.23702596,9.636662,0.0025944514,0.005895706,-0.0016977652,9.0,1.086369,0.025737667,9.746197,0.05327099,-0.26276365,-0.109534726,0.038588382,-0.039882988,0.6770212,2017-10-04 21:07:12,54.07583023733573
1.1324574,0.0047884034,9.576807,0.0025925874,5.731123E-4,-6.3250074E-4,9.0,1.0872668,0.017806875,9.746047,0.045190558,-0.013018472,-0.16924013,0.038318627,-0.040190212,0.67704195,2017-10-04 21:07:13,46.20605715028164
1.0821792,0.019153614,9.605537,0.0015318502,0.0026948527,-6.3276704E-4,9.0,1.0920552,0.0062847794,9.745598,-0.009876082,0.012868834,-0.1400608,0.0380531,-0.040769406,0.6770386,2017-10-04 21:07:14,45.097726820048024
1.0582372,0.021547815,9.619903,4.6232477E-4,-4.9295113E-4,4.3276369E-4,9.0,1.0778397,0.012120646,9.747094,-0.019602526,0.009427169,-0.12719196,0.03777803,-0.04003024,0.6770759,2017-10-04 21:07:16,53.31982250631149
1.079785,0.031124622,9.636662,-0.0016682041,0.0037681067,4.3276369E-4,9.0,1.0911574,0.017357962,9.745598,-0.011372458,0.013766659,-0.108936176,0.038444664,-0.04034818,0.6770763,2017-10-04 21:07:17,55.05684753729558
1.0606314,0.016759412,9.603143,-6.9907977E-4,-0.0016311861,2.9960563E-4,9.0,1.0942998,0.014814123,9.745298,-0.033668462,0.0019452889,-0.14215572,0.038452923,-0.04055827,0.67705125,2017-10-04 21:07:18,53.30303827255349
1.0366893,0.033518825,9.603143,3.6618466E-4,-5.659217E-4,2.9960563E-4,9.0,1.0974422,0.018854339,9.745,-0.06075287,0.014664485,-0.14185645,0.038715858,-0.040537134,0.6769945,2017-10-04 21:07:19,45.866067575225
1.091756,0.076614454,9.56723,4.3276369E-4,-5.326322E-4,2.663161E-4,9.0,1.1014824,0.011073183,9.744551,-0.009726444,0.065541275,-0.17732057,0.038557332,-0.04096145,0.6769151,2017-10-04 21:07:20,48.80640097097731
1.079785,0.05267244,9.648633,-0.0016977652,5.326322E-4,2.663161E-4,9.0,1.0947487,0.022744916,9.745298,-0.014963761,0.029927522,-0.0966659,0.03875715,-0.04031095,0.6768343,2017-10-04 21:07:21,47.83841994422172
1.079785,0.08619126,9.593566,4.3276369E-4,5.326322E-4,-0.0018642128,9.0,1.0960954,0.023942016,9.745149,-0.0163105,0.062249243,-0.1515829,0.038844377,-0.040326342,0.67674416,2017-10-04 21:07:22,45.809447895531505
1.0941502,-0.0047884034,9.61272,5.659217E-4,0.0017310547,-7.9894834E-4,9.0,1.096694,0.023193829,9.745,-0.0025438394,-0.027982233,-0.13227965,0.03883252,-0.04037752,0.67666703,2017-10-04 21:07:23,48.425352537583294
1.0893618,0.02633622,9.643845,-4.993427E-4,-3.9947417E-4,-7.9894834E-4,9.0,1.0992378,0.023642741,9.7447,-0.009876082,0.0026934769,-0.100855745,0.03893274,-0.040464826,0.6765613,2017-10-04 21:07:24,47.26375241377849
1.0510546,-0.019153614,9.610326,-0.0028296087,0.007789746,0.0017310547,9.0,1.1043255,0.023493104,9.744102,-0.05327099,-0.042646717,-0.13377602,0.039101362,-0.040664084,0.67655116,2017-10-04 21:07:25,47.24521891041135
1.0869676,0.01436521,9.617508,-6.9907977E-4,-0.0017976337,-3.9947417E-4,9.0,1.1071687,0.010324995,9.743802,-0.020201078,0.004040215,-0.12629414,0.038711805,-0.041213237,0.6766599,2017-10-04 21:07:26,46.291312711167734
1.0726024,0.035913024,9.603143,5.326322E-4,-9.653959E-4,-5.326322E-4,9.0,1.1011832,0.020350715,9.744551,-0.028580783,0.015562311,-0.14140753,0.03888292,-0.04064163,0.6767152,2017-10-04 21:07:27,46.38729600668952
1.0702082,0.019153614,9.605537,-5.326322E-4,0.001165133,-5.326322E-4,9.0,1.1031284,0.02498948,9.744251,-0.032920275,-0.0058358666,-0.13871406,0.039126843,-0.04055354,0.67671436,2017-10-04 21:07:28,45.31345368670746
1.0845734,0.011971008,9.572019,5.326322E-4,3.9947417E-4,2.663161E-4,9.0,1.0999861,0.025737667,9.7447,-0.015412673,-0.013766659,-0.1726818,0.039044343,-0.040407814,0.6766934,2017-10-04 21:07:29,45.19664300395373
1.1085154,0.06943185,9.624691,5.326322E-4,-6.657903E-4,2.663161E-4,9.0,1.0944494,0.018255789,9.745298,0.014065935,0.05117606,-0.12060791,0.038568206,-0.040466405,0.6766806,2017-10-04 21:07:30,45.23899851515175
1.0606314,0.038307227,9.586384,-5.326322E-4,0.0016644757,-6.9907977E-4,9.0,1.098789,0.019452889,9.74485,-0.03815759,0.018854339,-0.15846622,0.03875842,-0.040586457,0.6766028,2017-10-04 21:07:31,42.54667530557026
1.0534488,0.0,9.629479,-0.0015978967,5.9921126E-4,0.0014314491,9.0,1.095048,0.015861586,9.745298,-0.041599255,-0.015861586,-0.11581951,0.03849286,-0.040574573,0.6765762,2017-10-04 21:07:32,41.94204966000388
1.0869676,0.009576807,9.610326,-3.9947417E-4,2.9960563E-4,4.660532E-4,9.0,1.0977415,0.019452889,9.74485,-0.010773907,-0.009876082,-0.13452421,0.03872381,-0.040553115,0.67654854,2017-10-04 21:07:33,43.41192479326514
1.0869676,0.0,9.576807,-3.9947417E-4,2.9960563E-4,-5.9921126E-4,9.0,1.0998363,0.022894554,9.7447,-0.012868834,-0.022894554,-0.1678934,0.03892418,-0.04050667,0.67657465,2017-10-04 21:07:34,41.16382803904797
1.0821792,0.016759412,9.564836,-3.9947417E-4,2.9960563E-4,0.0015313176,9.0,1.0919056,0.022445641,9.745598,-0.009726444,-0.005686229,-0.18076223,0.03863071,-0.040224753,0.67660016,2017-10-04 21:07:35,41.433228308827445
1.067814,-0.016759412,9.607931,-4.660532E-4,3.6618466E-4,4.993427E-4,9.0,1.0931027,0.024091655,9.745448,-0.025288755,-0.040851068,-0.13751696,0.038741175,-0.040214635,0.67661935,2017-10-04 21:07:36,42.35429088904738
1.043872,-0.023942016,9.600749,5.9921126E-4,-6.9907977E-4,0.0015646071,9.0,1.1056722,0.016609775,9.743952,-0.06180033,-0.040551793,-0.14320318,0.038898554,-0.040943682,0.6766277,2017-10-04 21:07:37,43.61523428690969
1.0366893,-0.0023942017,9.600749,0.0020639498,3.9947417E-4,-8.9881686E-4,9.0,1.0969933,0.018255789,9.745,-0.060303956,-0.02064999,-0.14425065,0.038650982,-0.04056441,0.67653435,2017-10-04 21:07:38,42.88523427416071
1.0893618,0.038307227,9.607931,9.986854E-4,-6.657903E-4,1.6644757E-4,9.0,1.1059716,0.014215573,9.743952,-0.016609775,0.024091655,-0.13602059,0.038804375,-0.04104861,0.67644435,2017-10-04 21:07:39,46.58225629434162
1.0845734,0.019153614,9.591172,4.660532E-4,-0.0015646071,-5.9921126E-4,9.0,1.0931027,0.024540568,9.745448,-0.008529344,-0.0053869537,-0.15427637,0.038745873,-0.04021216,0.6764206,2017-10-04 21:07:40,46.31348610013959
1.0702082,0.023942016,9.595961,-0.0016644757,-4.993427E-4,-5.9921126E-4,9.0,1.0923545,0.021547815,9.745448,-0.022146367,0.0023942017,-0.14948797,0.03860071,-0.040287837,0.6763963,2017-10-04 21:07:41,42.13152124335821
1.055843,0.02633622,9.595961,0.0017976337,-3.9947417E-4,5.659217E-4,9.0,1.0986392,0.026785132,9.74485,-0.042796355,-4.4891282E-4,-0.14888942,0.039019693,-0.04033649,0.6764117,2017-10-04 21:07:43,39.65418322789598
1.0845734,0.019153614,9.56723,-3.3289514E-4,-3.9947417E-4,0.0016311861,9.0,1.091307,0.022445641,9.745598,-0.0067336923,-0.0032920274,-0.17836803,0.038609654,-0.040212415,0.676531,2017-10-04 21:07:44,42.15556527317772
1.0893618,0.035913024,9.572019,-6.657903E-4,6.3250074E-4,0.0014647386,9.0,1.0883143,0.018255789,9.746047,0.0010474633,0.017657237,-0.17402853,0.038347572,-0.040240407,0.67655,2017-10-04 21:07:45,40.16914876598964
1.0702082,-0.016759412,9.595961,3.9947417E-4,-0.001498028,-6.657903E-4,9.0,1.0898107,0.010773907,9.745748,-0.019602526,-0.027533319,-0.14978725,0.03811999,-0.040558077,0.6765407,2017-10-04 21:07:46,42.31936662915328
1.0726024,0.016759412,9.569624,-3.9947417E-4,-3.9947417E-4,-5.9921126E-4,9.0,1.0959458,0.020949265,9.745149,-0.023343466,-0.004189853,-0.1755249,0.0387148,-0.040436864,0.67647296,2017-10-04 21:07:47,53.55123346316083
1.0869676,-0.0047884034,9.622296,-3.9947417E-4,-3.9947417E-4,0.0015313176,9.0,1.0947487,0.022445641,9.745298,-0.0077811554,-0.027234044,-0.12300211,0.038728714,-0.040334694,0.67651564,2017-10-04 21:07:48,53.30723945808419
1.091756,0.019153614,9.617508,-0.0017310547,-5.326322E-4,2.663161E-4,9.0,1.0960954,0.013916298,9.745149,-0.0043394906,0.0052373162,-0.12764087,0.038456388,-0.040678337,0.676539,2017-10-04 21:07:49,42.98542113871995
1.0606314,0.033518825,9.622296,0.0014647386,-5.326322E-4,-7.9894834E-4,9.0,1.0869676,0.012868834,9.746197,-0.02633622,0.02064999,-0.12389994,0.03809655,-0.040377893,0.67650956,2017-10-04 21:07:50,44.198217846728085
1.0845734,0.016759412,9.591172,-6.657903E-4,5.326322E-4,2.663161E-4,9.0,1.0942998,0.009427169,9.745298,-0.009726444,0.0073322426,-0.15412673,0.038220163,-0.04077775,0.6764582,2017-10-04 21:07:51,44.387182091770015
1.0893618,0.047884032,9.607931,-0.0016311861,-5.9921126E-4,-6.9907977E-4,9.0,1.0980407,0.015562311,9.74485,-0.008678981,0.03232172,-0.13691841,0.03857808,-0.04070592,0.676436,2017-10-04 21:07:52,42.93425940814594
1.103727,-0.0047884034,9.610326,-0.0016311861,4.660532E-4,-6.9907977E-4,9.0,1.0953473,0.016609775,9.745149,0.008379706,-0.021398177,-0.13482349,0.038524635,-0.04056444,0.67641014,2017-10-04 21:07:53,42.42607636738722
1.0893618,0.009576807,9.581595,-0.0014314491,-3.9947417E-4,-5.326322E-4,9.0,1.0941502,0.017956512,9.745298,-0.0047884034,-0.008379706,-0.16370355,0.038534343,-0.040476464,0.6764274,2017-10-04 21:07:54,42.8441122408388
1.103727,0.011971008,9.605537,-3.6618466E-4,-3.9947417E-4,-5.326322E-4,9.0,1.0971429,0.020201078,9.745,0.006584055,-0.008230069,-0.13946225,0.038724992,-0.040506847,0.67645985,2017-10-04 21:07:55,40.5989640776837
1.0630256,-0.0023942017,9.61272,-2.663161E-4,-4.993427E-4,4.993427E-4,9.0,1.0992378,0.021697452,9.7447,-0.0362123,-0.024091655,-0.13198037,0.038853653,-0.04053933,0.67647976,2017-10-04 21:07:56,41.888548680551835
1.0654198,0.011971008,9.622296,-2.663161E-4,-4.993427E-4,-5.659217E-4,9.0,1.0940006,0.025737667,9.745298,-0.028580783,-0.013766659,-0.12300211,0.038825363,-0.04019326,0.67650515,2017-10-04 21:07:57,40.29445329555874
1.0989386,0.016759412,9.605537,0.0016311861,-5.9921126E-4,4.660532E-4,9.0,1.0945991,0.021547815,9.745298,0.0043394906,-0.0047884034,-0.13976152,0.038690954,-0.040366247,0.67655116,2017-10-04 21:07:58,40.35455223468074
1.0726024,0.059855044,9.569624,5.659217E-4,-0.0016644757,4.660532E-4,9.0,1.1031284,0.0199018,9.744251,-0.030526072,0.03995324,-0.17462708,0.038925655,-0.04074455,0.67653376,2017-10-04 21:07:59,42.283097860178756
1.0702082,-0.016759412,9.629479,2.9960563E-4,0.0015646071,4.3276369E-4,9.0,1.0960954,0.02064999,9.745149,-0.025887307,-0.037409402,-0.11566987,0.038713306,-0.0404479,0.6765922,2017-10-04 21:08:00,40.87453921387674
1.103727,0.0,9.579201,-7.656588E-4,4.993427E-4,0.001498028,9.0,1.086369,0.015562311,9.746197,0.017357962,-0.015562311,-0.16699557,0.03818664,-0.04025685,0.67663497,2017-10-04 21:08:01,45.14595822931352
1.1492168,-0.04309563,9.636662,-0.0028961876,-0.0058922437,4.3276369E-4,9.0,1.078139,0.023343466,9.747094,0.07107786,-0.0664391,-0.11043255,0.038190007,-0.039676473,0.67660624,2017-10-04 21:08:02,54.37909382908845
1.067814,0.02873042,9.593566,-3.6618466E-4,-9.321064E-4,1.6644757E-4,9.0,1.0980407,0.009876082,9.74485,-0.030226797,0.018854339,-0.15128362,0.038372107,-0.040900305,0.6764664,2017-10-04 21:08:03,52.31753040664748
1.3670892,-0.110133275,9.392453,-0.0014314491,-0.0062584286,1.6644757E-4,9.0,1.1137527,0.025139118,9.743054,0.25333646,-0.1352724,-0.3506009,0.03948215,-0.04097063,0.676346,2017-10-04 21:08:04,49.69343510860571
1.0965444,0.04070143,9.636662,6.9508504E-4,-0.0019901802,-8.9881686E-4,9.0,1.1168951,0.014514848,9.742755,-0.020350715,0.026186582,-0.106093064,0.03919172,-0.04145793,0.6762684,2017-10-04 21:08:05,51.49230387670155
0.9983821,-0.2896984,9.603143,6.916229E-4,-0.012636167,-0.001963815,9.0,1.1888708,0.041599255,9.734225,-0.19048867,-0.33129767,-0.13108255,0.042692553,-0.043243207,0.67594784,2017-10-04 21:08:06,46.42230744462072
1.1133038,0.021547815,9.569624,-3.771036E-4,1.5339808E-4,-8.9828426E-4,9.0,1.1338041,0.023493104,9.740809,-0.020500353,-0.0019452889,-0.17118542,0.04010094,-0.041799515,0.67604166,2017-10-04 21:08:07,45.936156215866184
1.0151415,-0.02633622,9.593566,-3.7284254E-4,0.006536995,1.6671389E-4,9.0,1.1025299,0.020500353,9.744401,-0.08738836,-0.04683657,-0.15083471,0.038899027,-0.040721983,0.67603785,2017-10-04 21:08:08,43.60427673614727
1.103727,0.045489833,9.598354,7.656588E-4,9.986854E-4,-6.657903E-4,9.0,1.0947487,0.012719196,9.745298,0.008978256,0.032770637,-0.14694414,0.03833739,-0.040703475,0.6760103,2017-10-04 21:08:09,42.96822384500261
1.0702082,0.01436521,9.576807,-2.9960563E-4,-6.657903E-5,3.9947417E-4,9.0,1.0972925,0.018255789,9.745,-0.027084406,-0.0038905777,-0.16819267,0.038632546,-0.04060383,0.6760034,2017-10-04 21:08:10,41.52890141672092
1.0606314,0.045489833,9.651027,-3.6618466E-4,0.0015646071,-7.656588E-4,9.0,1.1062708,0.019752163,9.743952,-0.04563947,0.025737667,-0.09292495,0.03900475,-0.04089141,0.67605394,2017-10-04 21:08:11,42.9652203833085
1.0749966,0.06464344,9.617508,0.0017643442,-5.659217E-4,2.9960563E-4,9.0,1.1017817,0.018704701,9.744401,-0.026785132,0.045938745,-0.12689269,0.03880792,-0.040751845,0.6760742,2017-10-04 21:08:12,42.312398501141075
1.115698,0.04070143,9.615114,6.9907977E-4,-5.659217E-4,2.9960563E-4,9.0,1.0969933,0.02184709,9.745,0.018704701,0.018854339,-0.12988544,0.038760267,-0.04047031,0.6760319,2017-10-04 21:08:13,39.24773150439101
1.0893618,0.04070143,9.588778,-0.0014647386,-5.659217E-4,3.9947417E-4,9.0,1.0998363,0.026485857,9.7447,-0.0104746325,0.014215573,-0.15592238,0.039024286,-0.04041761,0.6759911,2017-10-04 21:08:14,42.6466385785499
1.115698,0.02633622,9.643845,0.0017310547,4.993427E-4,-6.657903E-4,9.0,1.0957962,0.022296004,9.745149,0.0199018,0.004040215,-0.10130466,0.03873185,-0.0404102,0.6759922,2017-10-04 21:08:16,42.96243579602233
1.0845734,0.045489833,9.581595,-3.6618466E-4,-4.3276369E-4,1.6644757E-4,9.0,1.0990882,0.012868834,9.7447,-0.014514848,0.032621,-0.163105,0.038487475,-0.040867366,0.67594343,2017-10-04 21:08:17,41.210101496084725
1.0845734,0.055066638,9.624691,0.0017643442,6.3250074E-4,-8.9881686E-4,9.0,1.0980407,0.017357962,9.74485,-0.0134673845,0.037708677,-0.120159,0.03861177,-0.040673725,0.6758627,2017-10-04 21:08:18,42.880395303256236
1.079785,0.04309563,9.574412,5.9921126E-4,-4.993427E-4,4.3276369E-4,9.0,1.0981904,0.019003976,9.74485,-0.018405426,0.024091655,-0.17043723,0.03868269,-0.04062081,0.67586786,2017-10-04 21:08:19,42.658719798902936
1.0630256,0.074220255,9.600749,5.9921126E-4,-4.993427E-4,4.3276369E-4,9.0,1.1019313,0.024839843,9.744401,-0.038905777,0.04938041,-0.1436521,0.039026678,-0.04056268,0.67580086,2017-10-04 21:08:20,44.102845927953496
1.0606314,-0.0023942017,9.593566,3.9947417E-4,0.0017976337,-0.0018975022,9.0,1.0978911,0.023792379,9.74485,-0.037259765,-0.026186582,-0.15128362,0.03884439,-0.040451117,0.67574793,2017-10-04 21:08:21,43.65193682346324
1.0654198,0.0047884034,9.617508,-6.657903E-4,-3.3289514E-4,2.330266E-4,9.0,1.0957962,0.025288755,9.745149,-0.030376434,-0.020500353,-0.12764087,0.03882268,-0.040323228,0.6756658,2017-10-04 21:08:22,42.721575145122884
1.0941502,-0.0023942017,9.583989,-6.3250074E-4,2.9960563E-4,-6.657903E-4,9.0,1.0938509,0.013317747,9.745298,2.992752E-4,-0.015711948,-0.16130935,0.038300596,-0.04066658,0.67562574,2017-10-04 21:08:23,43.73664084883984
1.079785,0.01436521,9.61272,4.3276369E-4,-0.0018309233,-6.657903E-4,9.0,1.1014824,0.010175358,9.744551,-0.021697452,0.004189853,-0.13183074,0.03844437,-0.04106625,0.6755659,2017-10-04 21:08:24,44.3242886454386
1.103727,0.02633622,9.574412,5.9921126E-4,7.323693E-4,-0.0014647386,9.0,1.1056722,0.021547815,9.743952,-0.0019452889,0.0047884034,-0.1695394,0.03902298,-0.040827155,0.6755884,2017-10-04 21:08:25,45.771504264729714
1.1133038,0.0023942017,9.610326,5.9921126E-4,-3.3289514E-4,-3.9947417E-4,9.0,1.0978911,0.013916298,9.74485,0.015412673,-0.011522096,-0.13452421,0.038475867,-0.040794827,0.6757137,2017-10-04 21:08:26,44.078682908981506
1.0845734,0.019153614,9.619903,-4.993427E-4,-1.9973709E-4,4.993427E-4,9.0,1.1029788,0.017058687,9.744251,-0.018405426,0.0020949265,-0.12434885,0.03876668,-0.04088094,0.6756999,2017-10-04 21:08:27,44.47779567206149
1.067814,0.031124622,9.603143,-0.0015646071,-1.9973709E-4,4.993427E-4,9.0,1.1019313,0.015412673,9.744401,-0.034117375,0.015711948,-0.1412579,0.03866847,-0.040894747,0.6757172,2017-10-04 21:08:28,43.66832760574826
1.091756,0.0047884034,9.579201,-0.0015646071,-1.9973709E-4,-5.659217E-4,9.0,1.1035774,0.009576807,9.744251,-0.011821371,-0.0047884034,-0.16505028,0.03850678,-0.041157655,0.6757304,2017-10-04 21:08:29,41.79278722925481
1.1109096,0.0047884034,9.598354,-2.9960563E-4,0.0015313176,-4.993427E-4,9.0,1.103727,0.011073183,9.744251,0.007182605,-0.0062847794,-0.14589667,0.038573496,-0.04111126,0.67573005,2017-10-04 21:08:30,41.39610488944734
1.0965444,-0.007182605,9.624691,0.0018309233,0.0015313176,-4.993427E-4,9.0,1.1073183,0.025737667,9.743802,-0.010773907,-0.032920275,-0.11911154,0.039247323,-0.040733255,0.67575353,2017-10-04 21:08:31,40.36104710494655
1.0726024,0.05746084,9.55047,0.0028628982,-3.6618466E-4,5.659217E-4,9.0,1.0992378,0.020201078,9.7447,-0.026635494,0.037259765,-0.19422962,0.038762912,-0.040623076,0.67585605,2017-10-04 21:08:32,39.502187666418635
1.0965444,0.36631286,9.545682,0.0017976337,-0.003561978,5.659217E-4,9.0,1.0826281,0.013617022,9.746646,0.013916298,0.35269585,-0.2009633,0.037951805,-0.040211327,0.6760946,2017-10-04 21:08:33,46.091890072106466
1.0606314,0.08140286,9.660604,-0.0067300745,0.0028397287,-0.0036948696,9.0,1.1185411,0.019752163,9.742605,-0.057909753,0.061650693,-0.08200141,0.039401315,-0.041371867,0.675646,2017-10-04 21:08:34,46.19335055173107
1.0534488,0.007182605,9.581595,7.310377E-4,-3.640541E-4,0.0016311861,9.0,1.1088147,0.018405426,9.743652,-0.055365913,-0.011222821,-0.16205753,0.03902862,-0.04104624,0.67578954,2017-10-04 21:08:35,45.55167132855941
1.0726024,0.12210429,9.560047,-0.0013994911,-0.002494583,-4.993427E-4,9.0,1.1013328,0.021697452,9.744551,-0.02873042,0.10040683,-0.18450317,0.038892873,-0.040644504,0.6758619,2017-10-04 21:08:36,41.30703502791373
1.127669,0.009576807,9.61272,-0.0024682176,-0.001422927,-4.990764E-4,9.0,1.0989386,0.0031423897,9.74485,0.02873042,0.006434417,-0.13213001,0.03811982,-0.04119446,0.67597336,2017-10-04 21:08:37,42.72907798213575
1.1228806,0.05746084,9.576807,-5.9921126E-4,1.9973709E-4,-0.001498028,9.0,1.1065701,0.0062847794,9.743952,0.0163105,0.05117606,-0.16714521,0.038501028,-0.04137028,0.67596155,2017-10-04 21:08:38,40.822227899026814
1.0989386,0.06703765,9.600749,-5.9921126E-4,1.9973709E-4,-0.001498028,9.0,1.1043255,0.02124854,9.744102,-0.0053869537,0.045789108,-0.14335282,0.038987152,-0.040763877,0.67598647,2017-10-04 21:08:39,41.364560644151226
1.1180922,-0.016759412,9.617508,5.659217E-4,-7.656588E-4,-5.659217E-4,9.0,1.1062708,0.012120646,9.743952,0.011821371,-0.028880058,-0.12644377,0.038713202,-0.041156016,0.676009,2017-10-04 21:08:41,41.337832207208834
1.0869676,0.031124622,9.591172,-0.0015646071,2.9960563E-4,-5.659217E-4,9.0,1.1118075,0.012719196,9.743354,-0.024839843,0.018405426,-0.15218145,0.038923413,-0.041342944,0.6759954,2017-10-04 21:08:42,40.00719086294863
1.0749966,0.009576807,9.598354,9.986854E-5,-0.003495399,-0.0013981595,9.0,1.1049241,0.016609775,9.744102,-0.029927522,-0.0070329676,-0.14574704,0.038833432,-0.040953137,0.67594427,2017-10-04 21:08:43,38.66180806618863
1.1133038,0.050278235,9.624691,0.0022303974,-2.9960563E-4,-3.3289514E-4,9.0,1.1064205,0.017956512,9.743952,0.0068833297,0.03232172,-0.119261175,0.038939256,-0.04095287,0.67610353,2017-10-04 21:08:44,40.96336450536555
1.0654198,-0.0047884034,9.586384,0.001165133,7.656588E-4,-3.3289514E-4,9.0,1.1035774,0.020949265,9.744251,-0.03815759,-0.025737667,-0.15786767,0.038962066,-0.040736616,0.67622954,2017-10-04 21:08:45,46.6731962784467
1.0749966,0.007182605,9.576807,-0.0018642128,-4.993427E-4,-3.6618466E-4,9.0,1.1028291,0.024241293,9.744251,-0.027832596,-0.017058687,-0.16744448,0.039065436,-0.040593326,0.6762844,2017-10-04 21:08:46,42.99355150069297
1.0773908,-0.009576807,9.581595,0.002396845,5.659217E-4,6.9907977E-4,9.0,1.0986392,0.016011223,9.74485,-0.02124854,-0.02558803,-0.16325463,0.03861311,-0.04071503,0.6763918,2017-10-04 21:08:47,42.20692093429098
1.091756,0.055066638,9.572019,-0.0015313176,5.659217E-4,6.9907977E-4,9.0,1.0996867,0.015113398,9.7447,-0.007930793,0.03995324,-0.1726818,0.038618043,-0.04078091,0.6764448,2017-10-04 21:08:48,40.99397153007709
1.0749966,0.06703765,9.610326,-4.660532E-4,5.659217E-4,6.9907977E-4,9.0,1.1007342,0.015113398,9.744551,-0.025737667,0.05192425,-0.13422494,0.038658284,-0.04081466,0.67652184,2017-10-04 21:08:49,41.891548668480105
1.0941502,0.05267244,9.622296,-0.002396845,0.0022969765,4.3276369E-4,9.0,1.1065701,0.023792379,9.743952,-0.012419921,0.028880058,-0.121655375,0.039191637,-0.04073666,0.6765539,2017-10-04 21:08:50,43.10296577818109
