ACC_X,ACC_Y,ACC_Z,GYRO_X,GYRO_Y,GYRO_Z,LIGH_1,GRAV_X,GRAV_Y,GRAV_Z,LINACC_X,LINACC_Y,LINACC_Z,ROTVEC_X,ROTVEC_Y,ROTVEC_Z,TIME,VOICE
-0.038307227,-1.091756,10.141838,0.029321533,0.002443461,0.0061086523,9.0,-0.0235,-0.9323,9.762199,-0.0049,-0.12799999,0.0,-0.009318,0.046682,-0.974295,2017-04-08 21:33:12,30.30523825105844
-0.009576807,-1.1300632,10.132261,0.02687807,0.002443461,0.007330383,9.0,-0.033999998,-1.0404999,9.7512,0.0158,-0.0154,-0.0179,-0.01006,0.052194,-0.973832,2017-04-08 21:33:13,64.09139248172535
-0.02873042,-1.1204864,10.1226845,0.028099801,0.002443461,0.0061086523,9.0,-0.024899999,-1.0691999,9.748099,0.0063,-0.0050999997,-0.0049,-0.010871,0.053521,-0.973617,2017-04-08 21:33:14,65.34105018998085
-0.02873042,-1.1587936,10.132261,0.028099801,0.002443461,0.007330383,9.0,-0.027999999,-1.0697,9.748,0.029099999,0.0526,-0.0104,-0.01077,0.053569,-0.97343,2017-04-08 21:33:15,66.05991269800343
-0.038307227,-1.1109096,10.1226845,0.028099801,0.002443461,0.007330383,9.0,-0.021399999,-1.0697,9.748099,0.012499999,-0.0356,-0.0104,-0.011108,0.05349,-0.973376,2017-04-08 21:33:16,72.23071200741319
-0.038307227,-1.1109096,10.141838,0.028099801,0.0012217305,0.0061086523,9.0,-0.0201,-1.073,9.7477,-0.0084,-0.011399999,-0.0011999999,-0.011211,0.05364,-0.973366,2017-04-08 21:33:17,65.11132243159511
-0.019153614,-1.1204864,10.141838,0.028099801,0.0036651916,0.0061086523,9.0,-0.0196,-1.0711,9.7479,8.0E-4,0.017099999,-0.0209,-0.011214,0.053544,-0.97337,2017-04-08 21:33:18,51.27145011955914
-0.019153614,-1.1013328,10.1226845,0.028099801,0.002443461,0.0061086523,9.0,-0.021599999,-1.0659,9.7485,0.0029,-0.0177,-0.021499999,-0.011093,0.053298,-0.973233,2017-04-08 21:33:19,61.635961626442736
-0.038307227,-1.1109096,10.132261,0.02687807,0.0012217305,0.0061086523,9.0,-0.020399999,-1.0702,9.748,-0.0082,0.0041,-5.9999997E-4,-0.011244,0.05349,-0.973054,2017-04-08 21:33:20,57.17956191285759
-0.02873042,-1.1204864,10.132261,0.02565634,0.0012217305,0.0061086523,9.0,-0.019199999,-1.0691,9.748099,4.0E-4,-0.009099999,0.0196,-0.01132,0.053412,-0.972915,2017-04-08 21:33:21,59.07991597748614
-0.02873042,-1.1204864,10.141838,0.028099801,0.0036651916,0.007330383,9.0,-0.0233,-1.072,9.7478,-0.0050999997,-0.0137,-0.009099999,-0.011192,0.053597,-0.972734,2017-04-08 21:33:22,42.09576110831766
-0.009576807,-1.1109096,10.1226845,0.029321533,0.0012217305,0.0061086523,9.0,0.0265,-1.0868,9.7462,-0.0276,0.0221,-0.015999999,-0.013622,0.053817,-0.973624,2017-04-08 21:33:23,60.948670685749036
0.1436521,-0.9672575,10.160992,0.029321533,0.0036651916,0.009773844,9.0,-0.0016,-1.0381,9.7515,0.1389,0.1187,0.0175,-0.011723,0.051694,-0.973518,2017-04-08 21:33:24,71.88363251998524
-0.02873042,-1.1109096,10.103531,0.028099801,0.002443461,0.0061086523,9.0,-0.0753,-1.1618999,9.7372,0.029299999,0.0316,-0.0166,-0.009897,0.058641,-0.971498,2017-04-08 21:33:25,83.02575288399852
-0.019153614,-1.1109096,10.141838,0.02687807,0.0,0.0061086523,9.0,-0.0083,-1.0741999,9.7476,-0.0207,0.009099999,-0.0077,-0.011982,0.053532,-0.972656,2017-04-08 21:33:26,70.51649484193929
-0.019153614,-1.1109096,10.1226845,0.028099801,0.012217305,0.004886922,9.0,-0.022799999,-1.0850999,9.7463,-0.0154,0.0106999995,0.0131,-0.011104,0.054303,-0.973797,2017-04-08 21:33:27,55.080867428134766
1.7717092,-0.08619126,9.662998,0.08307768,0.010995574,0.0036651916,14.0,1.1768,-0.4085,9.7272,-0.41,0.6504,-1.0162,-0.062187,0.01354,-0.990824,2017-04-08 21:33:29,63.61272853291883
1.5610195,-0.6703765,11.789049,0.33353242,2.5986207,-0.312763,24.0,3.6216998,-1.0346999,9.0543995,-0.7561,-0.5811,-0.16939999,-0.195763,0.005358,-0.949926,2017-04-08 21:33:30,65.61063972111897
1.1683705,-0.39264908,10.113108,0.028099801,0.002443461,0.004886922,9.0,1.0677,-0.0095999995,9.7483,0.017199999,-0.3822,-0.028099999,-0.041343,-0.035542,-0.751272,2017-04-08 21:33:31,62.25923570884085
1.1300632,-0.4309563,10.103531,0.02687807,0.002443461,0.0061086523,9.0,1.0957,-0.1891,9.7434,-0.012499999,-0.2509,0.0042999997,-0.041728,-0.038456,-0.638887,2017-04-08 21:33:32,36.444353068062874
1.0821792,-0.41180268,10.093954,0.029321533,0.0036651916,0.008552114,9.0,1.0653,-0.359,9.742,-0.0143,-0.030299999,-0.0039,-0.048101,-0.031344,-0.618538,2017-04-08 21:33:33,53.45418959042863
1.1109096,-0.4213795,10.084377,0.02565634,0.002443461,0.007330383,9.0,1.0488,-0.4107,9.7417,5.9999997E-4,-0.0064999997,0.0106,-0.05003,-0.028518,-0.627992,2017-04-08 21:33:34,69.08612416808067
1.091756,-0.4309563,10.103531,0.02687807,0.002443461,0.0061086523,9.0,1.0454999,-0.39859998,9.7425995,0.0349,-0.028299998,0.019,-0.049176,-0.029104,-0.621648,2017-04-08 21:33:35,56.42890540999922
1.0821792,-0.4213795,10.093954,0.02687807,0.002443461,0.0061086523,9.0,1.0461,-0.40989998,9.742,0.0037999998,-0.025999999,1.0E-4,-0.049689,-0.028702,-0.622689,2017-04-08 21:33:36,65.94643054566126
1.0726024,-0.45968673,10.093954,0.028099801,0.0036651916,0.007330383,9.0,1.0416,-0.4139,9.7423,-4.9999997E-4,0.0268,-0.0028,-0.049705,-0.028397,-0.62267,2017-04-08 21:33:37,61.34337170358609
1.091756,-0.4405331,10.093954,0.02687807,0.0036651916,0.007330383,9.0,1.0327,-0.41849998,9.7431,0.0072,0.0026999998,0.0018,-0.0496,-0.027895,-0.622658,2017-04-08 21:33:38,63.5686740560576
1.0726024,-0.4309563,10.113108,0.028099801,0.0036651916,0.0061086523,9.0,1.0284,-0.41939998,9.7435,-0.006,0.0028,0.0297,-0.049499,-0.027699,-0.622652,2017-04-08 21:33:39,65.87669936326759
1.0726024,-0.45968673,10.132261,0.028099801,0.0036651916,0.0061086523,9.0,1.0209,-0.41799998,9.7443,-0.009699999,0.0,-0.0098,-0.049155,-0.027524,-0.622661,2017-04-08 21:33:40,68.87766568917253
1.043872,-0.4213795,10.113108,0.029321533,0.002443461,0.007330383,9.0,0.9909,-0.49929997,9.7436,0.033299997,0.094799995,0.012399999,-0.051638998,-0.023814,-0.615739,2017-04-08 21:33:41,46.54207536012839
1.043872,-0.4309563,10.103531,0.030543262,0.0036651916,0.0061086523,9.0,0.9921,-0.43739998,9.7465,-0.0063,-0.027999999,0.0,-0.048969,-0.02584,-0.620033,2017-04-08 21:33:42,48.58970448790063
1.0151415,-0.45010993,10.093954,0.028099801,0.002443461,0.0061086523,9.0,0.99249995,-0.4127,9.747499,-9.0E-4,-0.0021,-0.0241,-0.048,-0.02672,-0.618588,2017-04-08 21:33:43,66.16692878924566
1.0534488,-0.4309563,10.113108,0.028099801,0.0036651916,0.0061086523,9.0,0.97919995,-0.4526,9.7471,-0.0061,0.0676,-0.023699999,-0.049534,-0.02411,-0.631559,2017-04-08 21:33:44,58.789511228215886
1.0247183,-0.41180268,10.093954,0.028099801,0.002443461,0.0061086523,9.0,0.98279995,-0.4091,9.7486,0.012999999,-0.018099999,0.0268,-0.047779,-0.025923,-0.627261,2017-04-08 21:33:45,59.93785450938425
1.043872,-0.4213795,10.093954,0.02687807,0.002443461,0.0061086523,9.0,0.98469996,-0.40989998,9.7484,-0.0014,-0.0063,-0.0289,-0.047876,-0.025971,-0.627284,2017-04-08 21:33:46,54.112834219120614
1.0247183,-0.4405331,10.1226845,0.028099801,0.0036651916,0.007330383,9.0,0.9831,-0.4091,9.7486,0.0099,0.0026999998,-8.0E-4,-0.047794,-0.025934,-0.627284,2017-04-08 21:33:47,55.89596647169855
1.0055647,-0.45010993,10.113108,0.02687807,0.002443461,0.0061086523,9.0,0.96029997,-0.45389998,9.748899,0.0041,0.0393,-0.011,-0.048692,-0.023892,-0.622474,2017-04-08 21:33:48,66.48517952605859
1.0151415,-0.4213795,10.1226845,0.028099801,0.002443461,0.0061086523,9.0,0.9673,-0.4048,9.7504,0.0069999998,-0.0018999999,-0.0095999995,-0.046945,-0.025745999,-0.62230897,2017-04-08 21:33:49,64.41728240498088
0.9864111,-0.40222588,10.093954,0.029321533,0.0036651916,0.007330383,14.0,0.94189996,-0.36839998,9.7543,0.022499999,-0.0196,-0.023699999,-0.044609,-0.026005,-0.620289,2017-04-08 21:33:50,52.46611002106236
0.9768343,-0.4213795,10.103531,0.028099801,0.002443461,0.0061086523,9.0,0.9368,-0.3974,9.753699,0.006,0.0016,-0.0365,-0.045693,-0.024732,-0.622856,2017-04-08 21:33:51,58.2824613710282
0.9864111,-0.4309563,10.1226845,0.028099801,0.0036651916,0.0061086523,9.0,0.937,-0.3947,9.753699,-0.010199999,0.0071,-0.010199999,-0.045642998,-0.024727,-0.624476,2017-04-08 21:33:52,58.66101175445121
0.9768343,-0.4213795,10.113108,0.028099801,0.002443461,0.004886922,9.0,0.9177,-0.4321,9.754,0.037699997,0.038599998,-9.0E-4,-0.046399,-0.022802,-0.6285,2017-04-08 21:33:53,57.404254832784716
0.9768343,-0.45968673,10.1226845,0.028099801,0.002443461,0.0061086523,9.0,0.9249,-0.4006,9.7547,-0.0074,-0.016099999,0.0195,-0.045759,-0.023542,-0.633229,2017-04-08 21:33:54,53.86193912222354
0.9768343,-0.41180268,10.093954,0.029321533,0.002443461,0.0061086523,9.0,0.9341,-0.39659998,9.7539,-0.0072,-7.0E-4,-0.019299999,-0.045815,-0.024199,-0.630547,2017-04-08 21:33:55,53.734714292342375
0.9576807,-0.41180268,10.093954,0.028099801,0.0036651916,0.007330383,9.0,0.9316,-0.39209998,9.754399,-0.014699999,0.0045,-0.0039,-0.045555,-0.024241,-0.630559,2017-04-08 21:33:56,54.82431069549793
0.9672575,-0.4405331,10.113108,0.028099801,0.0036651916,0.007330383,14.0,0.9228,-0.3919,9.755199,0.0050999997,0.0037999998,-0.0033999998,-0.045038,-0.024325,-0.623303,2017-04-08 21:33:57,55.194285506027825
0.94810385,-0.39264908,10.113108,0.028099801,0.0036651916,0.007330383,9.0,0.9184,-0.389,9.7557,-0.0184,-0.026099999,0.0088,-0.044846,-0.024132,-0.623206,2017-04-08 21:33:58,50.74555773558835
0.93852705,-0.41180268,10.113108,0.02687807,0.002443461,0.0061086523,9.0,0.91889995,-0.3964,9.7554,-0.010799999,-0.010799999,0.0309,-0.045105,-0.024007,-0.623608,2017-04-08 21:33:59,60.27152559728045
0.9576807,-0.41180268,10.113108,0.02687807,0.0036651916,0.007330383,14.0,0.92109996,-0.391,9.7554,-0.0229,-0.0066,-0.0084,-0.044958,-0.024267,-0.623619,2017-04-08 21:34:00,55.58094182825832
0.9672575,-0.38307226,10.113108,0.028099801,0.002443461,0.0061086523,14.0,0.9008,-0.44329998,9.755099,0.0273,0.077,0.0,-0.046461,-0.021657,-0.62581,2017-04-08 21:34:01,53.45400791425383
0.94810385,-0.39264908,10.103531,0.029321533,0.0036651916,0.007330383,9.0,0.90739995,-0.3992,9.7564,0.0022,0.0042,-0.018299999,-0.044934,-0.023291,-0.624509,2017-04-08 21:34:02,52.63363607328141
0.94810385,-0.41180268,10.103531,0.02687807,0.0036651916,0.007330383,9.0,0.90709996,-0.3927,9.7567,-0.0084,-0.0047999998,-0.0101,-0.044618,-0.023574,-0.624992,2017-04-08 21:34:03,53.515467001909904
0.93852705,-0.4213795,10.093954,0.028099801,0.0036651916,0.007330383,14.0,0.9062,-0.38619998,9.757,-0.0084,-0.0111,-0.0309,-0.04433,-0.023745,-0.625007,2017-04-08 21:34:04,62.60297743264233
0.94810385,-0.41180268,10.103531,0.029321533,0.002443461,0.007330383,14.0,0.90459996,-0.3892,9.757,-0.0049,-0.0088,0.0191,-0.0444,-0.023586,-0.624995,2017-04-08 21:34:05,53.04297339377952
0.9672575,-0.41180268,10.103531,0.02687807,0.002443461,0.0061086523,9.0,0.90209997,-0.3858,9.7574,-0.0016999999,0.0074,0.0094,-0.04422,-0.023587,-0.624998,2017-04-08 21:34:06,70.10457616182185
0.94810385,-0.34476504,10.103531,0.028099801,0.002443461,0.007330383,9.0,0.903,-0.38689998,9.757299,-0.0212,-0.018,0.0028,-0.044297,-0.023426,-0.624985,2017-04-08 21:34:07,51.62684040065459
0.91937345,-0.40222588,10.1226845,0.028099801,0.002443461,0.007330383,14.0,0.89699996,-0.39119998,9.7576,0.0029,0.0029,0.0095999995,-0.04418,-0.02333,-0.623075,2017-04-08 21:34:08,51.840259432569134
0.92895025,-0.40222588,10.103531,0.029321533,0.0036651916,0.007330383,14.0,0.88769996,-0.3884,9.758599,0.0044,0.0011999999,0.018299999,-0.043908,-0.022676,-0.627894,2017-04-08 21:34:09,61.83963525733436
0.90021986,-0.45010993,10.103531,0.028099801,0.0036651916,0.007330383,9.0,0.8875,-0.3807,9.7589,0.0128,-0.0079,0.0083,-0.04354,-0.023122,-0.626,2017-04-08 21:34:10,53.27484980711042
0.80445176,-0.40222588,10.1226845,0.02687807,0.002443461,0.0061086523,9.0,0.79789996,-0.3558,9.7676,0.0173,0.0545,-5.9999997E-4,-0.039747,-0.020213,-0.628808,2017-04-08 21:34:11,62.09680604655831
0.82360536,-0.36391866,10.1226845,0.02687807,0.0036651916,0.0061086523,14.0,0.7791,-0.35689998,9.7691,0.017199999,-0.0030999999,0.0174,-0.039177,-0.019441,-0.628637,2017-04-08 21:34:12,60.66342333803519
0.79487497,-0.38307226,10.132261,0.028099801,0.002443461,0.0061086523,14.0,0.7757,-0.3717,9.7688,0.021,0.015199999,-0.0084999995,-0.039921,-0.018209,-0.637984,2017-04-08 21:34:13,68.73858862679975
0.81402856,-0.37349546,10.113108,0.028099801,0.002443461,0.007330383,14.0,0.7762,-0.34809998,9.7696,-0.0098,0.0075999997,-0.011,-0.038906,-0.019268,-0.635437,2017-04-08 21:34:14,61.07701124576596
0.79487497,-0.34476504,10.132261,0.028099801,0.002443461,0.007330383,14.0,0.7768,-0.3551,9.7692995,-4.9999997E-4,-0.014599999,0.01,-0.039192,-0.019081,-0.635129,2017-04-08 21:34:15,42.82243374920675
0.8331822,-0.37349546,10.132261,0.028099801,0.0036651916,0.007330383,14.0,0.7509,-0.4728,9.766399,0.0459,0.1117,0.0122,-0.043453,-0.014013,-0.631164,2017-04-08 21:34:16,59.593416486752055
0.81402856,-0.36391866,10.141838,0.028099801,0.002443461,0.007330383,14.0,0.76839995,-0.35889998,9.769899,0.0064999997,0.009699999,-0.0104,-0.038977,-0.018817,-0.631337,2017-04-08 21:34:17,46.417061514719734
0.79487497,-0.35434186,10.141838,0.028099801,0.002443461,0.0061086523,14.0,0.77269995,-0.34899998,9.769899,0.0019999999,-4.9999997E-4,-0.0099,-0.038701,-0.019361,-0.630319,2017-04-08 21:34:18,61.279074159659714
0.81402856,-0.37349546,10.132261,0.02687807,0.002443461,0.007330383,12.0,0.7576,-0.38549998,9.7697,-0.0018,0.037299998,0.0,-0.039575,-0.017779,-0.626489,2017-04-08 21:34:19,41.554191047906414
0.79487497,-0.35434186,10.1226845,0.028099801,0.002443461,0.0061086523,12.0,0.76699996,-0.36139998,9.769899,0.0094,0.0116,0.0185,-0.039016,-0.018721,-0.63057,2017-04-08 21:34:20,45.125168017085755
0.78529817,-0.35434186,10.1226845,0.02687807,0.002443461,0.0061086523,14.0,0.7665,-0.3489,9.7704,-0.010199999,-9.999999E-4,-2.9999999E-4,-0.038548,-0.019011,-0.632454,2017-04-08 21:34:21,51.32897331428488
0.78529817,-0.34476504,10.1226845,0.028099801,0.002443461,0.0061086523,14.0,0.7664,-0.3505,9.7703,-9.0E-4,9.0E-4,-0.0082,-0.038608998,-0.018954,-0.632444,2017-04-08 21:34:22,66.5333544152496
0.79487497,-0.37349546,10.141838,0.028099801,0.0036651916,0.0061086523,12.0,0.76299995,-0.3495,9.770599,0.0137,0.009,0.009099999,-0.038459,-0.018851,-0.632445,2017-04-08 21:34:23,56.110022104522066
0.78529817,-0.35434186,10.132261,0.028099801,0.0036651916,0.007330383,12.0,0.7611,-0.3496,9.7708,-0.013499999,-7.0E-4,0.0206,-0.038402,-0.018773999,-0.632438,2017-04-08 21:34:24,55.94417871970802
0.79487497,-0.36391866,10.132261,0.028099801,0.0036651916,0.007330383,12.0,0.76,-0.34849998,9.7709,-0.0041,-0.0011,-0.0186,-0.038323,-0.018764,-0.632434,2017-04-08 21:34:25,64.40163629588989
0.78529817,-0.35434186,10.132261,0.028099801,0.002443461,0.0061086523,12.0,0.7581,-0.34669998,9.7711,-0.0022,0.0067999996,-0.020299999,-0.038188,-0.018748,-0.632433,2017-04-08 21:34:26,65.71151712199735
0.7757214,-0.36391866,10.141838,0.028099801,0.002443461,0.007330383,12.0,0.7558,-0.3486,9.7712,0.0106,-0.0013,-1.0E-4,-0.038190998,-0.018598,-0.632426,2017-04-08 21:34:27,64.44515552644087
0.78529817,-0.34476504,10.1226845,0.028099801,0.002443461,0.007330383,12.0,0.7517,-0.3432,9.7717,0.014099999,-0.0066,-0.0013,-0.037843,-0.018613,-0.632434,2017-04-08 21:34:28,62.64714329889304
0.7757214,-0.35434186,10.141838,0.028099801,0.0036651916,0.007330383,12.0,0.7557,-0.3428,9.7713995,-0.010199999,-0.0067,4.9999997E-4,-0.037958,-0.01878,-0.632427,2017-04-08 21:34:29,60.62015625357258
0.78529817,-0.37349546,10.132261,0.02565634,0.0036651916,0.0061086523,14.0,0.75339997,-0.34149998,9.7716,-0.0072,0.0014,-0.0011999999,-0.037831,-0.018734,-0.632426,2017-04-08 21:34:30,57.00529097320854
0.7661445,-0.36391866,10.132261,0.028099801,0.0012217305,0.007330383,12.0,0.7475,-0.3446,9.771999,0.0186,-0.0052,0.01,-0.037761,-0.018407,-0.632292,2017-04-08 21:34:31,64.5139829143071
0.78529817,-0.37349546,10.132261,0.02687807,0.0012217305,0.007330383,12.0,0.7486,-0.3427,9.771999,0.0084999995,-0.0229,0.0199,-0.037483,-0.018821,-0.629847,2017-04-08 21:34:32,48.77735145477017
0.79487497,-0.38307226,10.141838,0.028099801,0.002443461,0.0061086523,12.0,0.75,-0.3451,9.7718,-0.0126,0.0145,7.0E-4,-0.037845,-0.018522,-0.631589,2017-04-08 21:34:33,66.89521592436253
0.7661445,-0.37349546,10.132261,0.02687807,0.0036651916,0.007330383,12.0,0.74869996,-0.3434,9.7719,0.009099999,0.0123,0.0011999999,-0.037733,-0.018528,-0.631589,2017-04-08 21:34:34,67.39325535176694
0.7374141,-0.33518824,10.0748005,0.030543262,0.0012217305,0.009773844,12.0,0.74289995,-0.34489998,9.7723,-0.0354,0.0244,-0.0683,-0.037606,-0.018251,-0.631583,2017-04-08 21:34:35,49.0739942378304
0.6991069,-0.32561144,10.036493,-0.018325957,-0.04642576,0.0061086523,12.0,0.6834,-0.295,9.778299,0.1061,-0.018,0.081099994,-0.033742,-0.017435,-0.633219,2017-04-08 21:34:36,53.21257340698456
0.7469909,-0.33518824,10.141838,0.028099801,0.002443461,0.007330383,12.0,0.7102,-0.3263,9.7754,0.0095999995,-0.024699999,0.0056,-0.035813,-0.01756,-0.63152,2017-04-08 21:34:37,63.3646018582143
0.46926352,-0.4405331,9.931149,-0.042760566,-0.089186326,-0.118507855,12.0,0.6236,-0.3118,9.781799,-0.18599999,-0.107999995,-0.2228,-0.032444,-0.014586,-0.631996,2017-04-08 21:34:38,46.082459963037536
2.27928,1.3120226,7.28795,-0.3115413,-2.2149973,0.8417723,4.0,3.2345998,1.1831,9.1819,-0.405,-0.56189996,-0.58809996,-0.017121,-0.134908,-0.630422,2017-04-08 21:34:39,66.1953332780361
5.9663506,-0.5650316,7.9583263,-0.25778514,0.12339478,-0.0061086523,22.0,5.269,0.6881,8.2422,0.52599996,-1.2335,-0.685,-0.228929,-0.165396,-0.843781,2017-04-08 21:34:40,51.930345982018636
6.0238113,-0.4405331,8.1402855,0.036651913,0.33964106,-0.19425514,24.0,5.8062,-0.29119998,7.8975997,0.0334,-0.20189999,-0.5038,-0.273862,-0.110569,-0.846566,2017-04-08 21:34:41,65.1046274952141
5.2385135,-0.5746084,8.475474,0.04153884,0.004886922,0.012217305,22.0,5.161,-0.56589997,8.3195,-0.091,-0.022699999,-0.2103,-0.260268,-0.088786,-0.870781,2017-04-08 21:34:42,74.7013142406904
5.305551,-0.45010993,8.418014,0.056199603,-0.10262536,-0.02321288,22.0,4.9872,-0.514,8.4281,-0.074,-0.035499997,-0.1718,-0.252574,-0.080565,-0.883735,2017-04-08 21:34:43,54.79466033051338
5.48751,-0.34476504,8.274361,0.07696902,0.02321288,0.14294247,22.0,5.4291997,-0.3372,8.1596,-0.0814,0.0163,-0.2562,-0.272856,-0.097587,-0.879475,2017-04-08 21:34:44,65.58780019294647
5.353435,-0.2777274,8.408437,0.02321288,-0.0012217305,-0.0012217305,19.0,5.2869997,-0.32909998,8.2528,-0.1398,0.0668,-0.1567,-0.262934,-0.100437,-0.873392,2017-04-08 21:34:45,66.90326365447167
5.3247046,-0.24899697,8.446744,0.037873644,0.0012217305,0.0061086523,19.0,5.2107,-0.2951,8.3024,-0.1294,0.0021,-0.169,-0.257757,-0.101255,-0.873057,2017-04-08 21:34:46,49.14003318359477
5.3725886,-0.12449849,8.42759,0.04520403,-0.018325957,-0.019547688,17.0,5.2448,-0.084199995,8.2858,0.1282,-0.061199997,-0.1065,-0.255909,-0.109772,-0.876477,2017-04-08 21:34:47,51.720415014003294
5.2480903,-0.22026655,8.475474,0.052534413,-0.057421334,-0.017104227,17.0,5.1252,-0.2312,8.3575,0.0138,0.0212,-0.0042,-0.248616,-0.100284,-0.873653,2017-04-08 21:34:48,49.92206654336525
5.2480903,-0.11492168,8.494628,0.032986723,0.0012217305,-0.0012217305,17.0,5.1749997,-0.121,8.3291,-0.018099999,-0.0341,0.016999999,-0.251906,-0.109224,-0.87307197,2017-04-08 21:34:49,45.67498287216481
5.21936,-0.047884032,8.532935,0.029321533,-0.004886922,-0.007330383,17.0,5.1363,-0.0951,8.3533,0.1038,0.0178,-0.0256,-0.248803,-0.110423,-0.872129,2017-04-08 21:34:50,60.87948400435535
5.353435,-0.06703765,8.350976,-0.004886922,-0.02321288,0.08674286,17.0,5.2746997,0.054399997,8.267,0.0752,0.032899998,-0.1004,-0.252689,-0.121018,-0.870013,2017-04-08 21:34:51,61.48783921295273
5.2289367,-0.18195933,8.542512,0.052534413,-0.021991149,-0.036651913,17.0,5.1231,-0.2004,8.3596,0.0233,0.026999999,0.0506,-0.249241,-0.107965,-0.867477,2017-04-08 21:34:53,50.31914913069345
5.267244,-0.047884032,8.485051,0.02565634,0.03176499,0.010995574,14.0,5.1769,0.0223,8.3288,0.0251,-0.030499998,0.0736,-0.250176,-0.113293,-0.878206,2017-04-08 21:34:54,31.949898859558594
5.267244,0.05746084,8.465898,0.037873644,-0.0061086523,-0.0012217305,14.0,5.1983,0.057299998,8.3152,-0.0334,-0.0288,0.0074,-0.250236,-0.115846,-0.876689,2017-04-08 21:34:55,43.84371823017838
5.267244,0.10534488,8.465898,0.029321533,0.02321288,0.02321288,14.0,5.1731,0.1012,8.3306,-0.0323,0.0539,0.0526,-0.248069,-0.117127,-0.877446,2017-04-08 21:34:56,42.762828218855205
5.161899,0.10534488,8.580819,0.030543262,0.0,0.0,14.0,5.4926,0.3338,8.1172,-0.3453,-0.1425,0.24769999,-0.258335,-0.139277,-0.867431,2017-04-08 21:34:57,45.880310036493924
5.209783,0.21068975,8.494628,0.04153884,-0.014660766,-0.009773844,12.0,5.1756997,0.2554,8.3256,-0.067999996,-0.1417,0.0381,-0.243646,-0.12706,-0.873424,2017-04-08 21:34:58,43.276574305279745
5.315128,0.17238252,8.446744,0.02687807,0.0036651916,0.0036651916,14.0,5.2222,0.1266,8.2994995,-0.0368,-0.0501,0.0156,-0.247854,-0.124132,-0.869272,2017-04-08 21:34:59,64.80535801276235
5.2002063,0.05746084,8.532935,0.030543262,-0.004886922,0.007330383,14.0,5.1749997,0.0609,8.3298,0.0503,0.0067999996,-0.0052,-0.245867,-0.121845,-0.866579,2017-04-08 21:35:00,51.499125059660294
5.2768207,0.11492168,8.465898,0.036651913,-0.0012217305,-0.017104227,14.0,5.1637,0.0414,8.3369,0.042099997,0.046099998,-0.012399999,-0.245079,-0.12195,-0.864504,2017-04-08 21:35:01,63.60952940857237
5.209783,0.05746084,8.475474,0.02687807,0.0061086523,0.010995574,14.0,5.1412,0.0655,8.3506,0.0201,-0.0077,-0.0026,-0.243552,-0.122689,-0.865452,2017-04-08 21:35:02,47.18401165326324
5.142745,0.0,8.542512,0.017104227,-0.0012217305,0.008552114,14.0,5.0807,0.0179,8.3878,0.046699997,0.0307,0.0156,-0.240702,-0.120002,-0.863485,2017-04-08 21:35:03,43.78655403015728
5.0661306,-0.047884032,8.552089,0.021991149,0.012217305,0.013439035,14.0,4.9997,0.0138,8.436399,0.050699998,4.9999997E-4,-0.0142,-0.23893599,-0.113011,-0.872582,2017-04-08 21:35:04,51.60278110375365
5.161899,0.047884032,8.552089,0.02565634,0.008552114,0.014660766,14.0,5.1514,-0.024699999,8.3445,-0.0817,0.064399995,0.0633,-0.246668,-0.117042996,-0.867134,2017-04-08 21:35:05,44.96718385275094
5.046977,0.047884032,8.63828,0.032986723,0.030543262,0.018325957,14.0,5.0450997,-0.0167,8.4093,-0.0677,-0.0025,-0.0025,-0.239454,-0.117923,-0.863151,2017-04-08 21:35:06,57.79660183411763
5.056554,-0.02873042,8.580819,0.017104227,0.008552114,-0.004886922,14.0,3.8730998,1.8533,8.8166,1.0807999,-1.8999,-0.3911,-0.104012,-0.199137,-0.77976,2017-04-08 21:35:07,52.77886003138367
5.056554,0.05746084,8.628703,0.04153884,0.004886922,0.0036651916,12.0,4.7002,0.4371,8.595699,0.2756,-0.41939998,-0.1418,-0.204498,-0.140263,-0.847453,2017-04-08 21:35:08,47.64065878485511
5.046977,0.047884032,8.580819,0.02443461,-0.010995574,0.0061086523,12.0,4.9165998,0.1502,8.4837,0.0607,-0.124,-0.0797,-0.226481,-0.127095,-0.856192,2017-04-08 21:35:09,50.363292166157905
5.650316,0.7661445,8.283937,-0.064751714,-0.080634214,-0.09773844,12.0,5.2079997,0.4538,8.297,0.2732,0.2722,-0.0753,-0.236335,-0.145312,-0.859011,2017-04-08 21:35:10,51.86781203429089
5.0661306,0.12449849,8.456321,-0.014660766,0.04642576,0.05497787,15.0,5.1563997,0.2254,8.3385,-0.1643,-0.0242,0.048899997,-0.240861,-0.129765,-0.865894,2017-04-08 21:35:11,49.47392024428992
5.0182467,0.29688102,8.63828,0.013439035,0.02076942,0.015882496,15.0,4.9161997,0.3358,8.4786,0.0023,-0.0486,-0.0647,-0.228677,-0.12415,-0.87799,2017-04-08 21:35:12,62.138682192517194
4.960786,0.38307226,8.66701,0.029321533,0.008552114,0.0012217305,12.0,4.843,0.3651,8.5194,-0.021,-0.0197,-0.0769,-0.22348,-0.125232,-0.876395,2017-04-08 21:35:13,64.08218251812104
4.9895163,0.41180268,8.628703,0.029321533,0.010995574,-0.0036651916,12.0,4.8038,0.39049998,8.5405,0.0288,-0.0162,-0.069,-0.222277,-0.123064,-0.881333,2017-04-08 21:35:14,57.22788543870948
5.00867,0.2777274,8.63828,0.04153884,0.0061086523,0.0012217305,12.0,4.9748,0.3302,8.4446,0.0207,0.0668,-0.049,-0.231613,-0.125692,-0.876468,2017-04-08 21:35:15,67.48947934384746
4.8937483,0.5650316,8.66701,0.037873644,0.009773844,-0.004886922,12.0,4.8462,0.4782,8.512,-0.064399995,0.044099998,0.0492,-0.220136,-0.132455,-0.873019,2017-04-08 21:35:16,67.05033359000046
4.9416323,0.63206923,8.63828,0.03176499,-0.012217305,0.004886922,9.0,4.8374,0.69839996,8.5018,0.0552,-0.0106999995,0.0425,-0.218124,-0.137645,-0.882376,2017-04-08 21:35:17,60.286165452525886
4.9799395,0.79487497,8.590396,0.03176499,-0.008552114,-0.0012217305,9.0,4.8773,0.755,8.4742,-0.0323,-0.0361,-0.109299995,-0.218895,-0.141493,-0.881431,2017-04-08 21:35:18,57.60368355032249
4.9320555,0.7661445,8.599973,0.02565634,0.008552114,0.008552114,7.0,4.8785996,0.7791,8.4712,0.0028,0.0234,-0.0037999998,-0.218498,-0.142631,-0.881476,2017-04-08 21:35:19,52.835453282151775
5.0278234,0.90021986,8.599973,0.047647487,-0.0061086523,-0.014660766,7.0,4.8798,0.81439996,8.467199,-0.0082,0.036599997,-0.029099999,-0.21654,-0.146292,-0.877871,2017-04-08 21:35:20,55.41409710175597
5.0182467,0.9959879,8.504205,0.04153884,-0.007330383,0.017104227,7.0,4.9058,0.86469996,8.4472,0.055099998,-0.0139999995,-0.045399997,-0.216407,-0.14993,-0.87633,2017-04-08 21:35:21,54.75580128843812
4.9416323,0.79487497,8.628703,0.02076942,0.004886922,0.0012217305,7.0,4.8368,0.7582,8.497,0.0168,0.0267,0.0578,-0.214876,-0.143521,-0.876733,2017-04-08 21:35:22,54.544946260424865
4.912902,0.7278373,8.676587,0.081855945,-0.04153884,-0.056199603,9.0,4.7381997,0.6202,8.563499,0.096999995,0.048699997,0.0591,-0.212359,-0.135214,-0.87692,2017-04-08 21:35:23,58.30802812228987
4.8841715,0.89064306,8.63828,0.036651913,-0.0036651916,0.0036651916,7.0,4.8169,0.8343,8.5012,0.027199998,0.0084999995,0.0143,-0.214912,-0.142721,-0.884255,2017-04-08 21:35:24,63.34889703332592
4.8937483,0.91937345,8.6574335,0.032986723,0.009773844,-0.0012217305,12.0,5.0259,0.8681,8.375899,-0.1909,0.030399999,0.094299994,-0.222969,-0.15241499,-0.875755,2017-04-08 21:35:25,60.00324361059612
4.912902,0.9768343,8.590396,0.040317107,0.002443461,-0.0012217305,9.0,4.8824997,0.9424,8.4524,0.0052,0.055099998,0.0264,-0.21217,-0.155018,-0.87283,2017-04-08 21:35:26,47.45102113131027
4.8362875,1.0247183,8.619126,0.03176499,-0.018325957,-0.012217305,9.0,4.8194,1.0357,8.4776,-0.0484,-0.0295,0.020399999,-0.207353,-0.157366,-0.874586,2017-04-08 21:35:27,59.83016264431693
4.8745947,1.043872,8.647857,0.037873644,-0.012217305,-0.007330383,9.0,4.8331,1.0205,8.4716,0.019199999,0.067,0.010199999,-0.207134,-0.158622,-0.871171,2017-04-08 21:35:28,67.56500815408602
4.807557,1.0821792,8.6095495,-0.0012217305,0.010995574,0.0061086523,9.0,4.8025,1.0429,8.4862995,-0.044099998,-0.0438,-0.045599997,-0.205336,-0.158595,-0.872187,2017-04-08 21:35:29,52.7288174742729
4.7309427,0.8810662,8.829816,-0.021991149,0.07086037,0.02321288,12.0,4.6347,0.91749996,8.5934,0.0053,0.034199998,-0.0347,-0.199572,-0.148409,-0.874675,2017-04-08 21:35:30,64.51374416820114
4.7022123,0.90021986,8.810662,0.04642576,-0.02076942,-0.004886922,7.0,4.6482,0.8153,8.596399,0.0629,0.088199995,-0.0685,-0.19844499,-0.145862,-0.875256,2017-04-08 21:35:31,56.745609981697314
4.7405195,0.9576807,8.743625,0.036651913,-0.008552114,0.0,7.0,4.6109,0.88659996,8.6095,-0.058599997,-0.0029,-0.0609,-0.199395,-0.145872,-0.876031,2017-04-08 21:35:32,61.798286948568375
4.9799395,0.009576807,8.580819,-0.54244834,-0.23823744,-0.002443461,7.0,4.818,-0.036399998,8.5413,0.0535,0.0372,-0.1384,-0.232527,-0.102184,-0.882506,2017-04-08 21:35:33,58.06690450535932
5.4683566,-0.23942018,8.408437,0.06719518,-0.008552114,0.0036651916,24.0,5.3132,-0.1705,8.2408,0.0188,-0.0906,-0.057099998,-0.267993,-0.089527,-0.899604,2017-04-08 21:35:34,67.50606622619492
4.865018,0.1340753,8.303091,-0.12217305,-0.0012217305,-0.080634214,22.0,4.4863997,-0.2179,8.7175,0.1077,0.0165,-0.0632,-0.226022,-0.066664,-0.917701,2017-04-08 21:35:35,62.95876751459214
5.1140146,-0.12449849,8.561666,-0.04520403,0.12583824,0.017104227,24.0,5.0945,-0.029099999,8.3794,-0.022699999,-0.048699997,-0.090799995,-0.256705,-0.082882,-0.914643,2017-04-08 21:35:36,66.38283613516916
5.00867,-0.12449849,8.6095495,0.036651913,-0.0036651916,0.010995574,24.0,4.9031997,-0.1258,8.4918995,-0.0145,-0.012399999,0.0104,-0.247997,-0.074489,-0.91785,2017-04-08 21:35:37,58.56268252753981
4.951209,-0.076614454,8.686164,0.04642576,0.017104227,0.02076942,24.0,4.8599,-0.0525,8.5175,-0.043899998,0.024999999,0.0026,-0.245175,-0.077859,-0.917166,2017-04-08 21:35:38,74.13602630588582
4.9320555,0.009576807,8.66701,0.03176499,-0.004886922,-0.0012217305,22.0,4.8375998,-0.0208,8.5303,0.009699999,-0.0277,-0.0411,-0.242155,-0.080214,-0.916548,2017-04-08 21:35:39,56.25380083373051
4.7788267,0.05746084,8.839393,0.05009095,0.05009095,0.02687807,22.0,4.7678,0.059899997,8.5693,-0.026999999,-0.011899999,0.017099999,-0.236396,-0.084849,-0.915077,2017-04-08 21:35:40,59.570088491634095
4.7884035,0.1340753,8.743625,0.056199603,-0.052534413,0.012217305,19.0,4.7138,0.145,8.5982,0.0083,0.0191,-0.0023,-0.23103599,-0.090745,-0.912113,2017-04-08 21:35:41,55.00005316906555
5.3247046,0.47884035,8.437167,0.035430185,0.0012217305,-0.002443461,22.0,5.2402,0.4622,8.276199,-0.0075999997,0.0297,-0.0179,-0.253009,-0.118379,-0.902098,2017-04-08 21:35:42,61.49964064854782
5.0278234,0.39264908,8.628703,0.0061086523,0.02443461,0.017104227,17.0,4.922,0.46109998,8.469399,0.0481,0.003,-0.033999998,-0.237974,-0.110625,-0.909536,2017-04-08 21:35:43,53.043822413499264
4.807557,0.047884032,8.7532015,-0.0061086523,-0.019547688,0.009773844,22.0,4.7307997,0.0464,8.5899,0.1674,0.119399995,0.0648,-0.23484,-0.082967,-0.916298,2017-04-08 21:35:44,60.365398693411834
4.7884035,-0.02873042,8.772355,0.05009095,-0.0012217305,0.002443461,22.0,4.729,-0.0211,8.591,0.0123,-0.0274,0.0049,-0.237037,-0.076112,-0.920807,2017-04-08 21:35:45,62.99816335717162
4.7788267,0.019153614,8.66701,-0.0061086523,-0.03176499,0.010995574,22.0,4.7455,0.058799997,8.581699,-0.053299997,-0.049999997,-0.0738,-0.235952,-0.082323,-0.918109,2017-04-08 21:35:46,57.10234919475401
4.8841715,0.4405331,8.686164,-0.062308256,0.04153884,-0.06719518,14.0,4.85,0.752,8.49,-0.022499999,-0.2357,0.097799994,-0.222628,-0.132525,-0.895835,2017-04-08 21:35:47,73.80310455621367
4.673482,0.34476504,8.781932,0.04520403,-0.017104227,0.05009095,17.0,4.6573,0.355,8.6228,-0.0028,0.0407,-0.0274,-0.218152,-0.112988,-0.892152,2017-04-08 21:35:48,59.090206411247756
4.759673,0.4405331,8.7532015,0.019547688,0.007330383,0.009773844,14.0,4.6326,0.422,8.6331,-0.0071,-0.0273,0.0307,-0.214936,-0.11677,-0.890484,2017-04-08 21:35:49,61.98300051987079
4.6926355,0.45010993,8.829816,0.042760566,0.0036651916,-0.0036651916,14.0,4.6120996,0.4777,8.6412,0.051999997,-0.0295,0.0109,-0.213109,-0.118048,-0.892809,2017-04-08 21:35:50,58.211581715517084
4.759673,0.61291564,8.820239,0.02687807,-0.002443461,-0.010995574,14.0,4.6159997,0.4782,8.639,-0.099,-0.1043,-0.0651,-0.212864,-0.119245,-0.890409,2017-04-08 21:35:51,63.72121828596998
4.644751,0.49799395,8.801085,0.014660766,0.0012217305,0.0036651916,14.0,4.5457,0.50909996,8.6744995,0.0221,-0.0231,-0.0128999995,-0.21036,-0.116068,-0.897244,2017-04-08 21:35:52,56.016584792285755
4.711789,0.5267244,8.762778,0.034208454,-0.010995574,-0.0012217305,14.0,4.5634,0.5721,8.6613,0.042799998,0.064899996,-0.0191,-0.211572,-0.116762,-0.901297,2017-04-08 21:35:53,56.06569596972908
4.644751,0.5746084,8.810662,0.040317107,0.007330383,0.0061086523,14.0,4.5413,0.55759996,8.6737995,0.0154,0.030499998,0.0255,-0.21087,-0.115286,-0.902117,2017-04-08 21:35:54,75.87475528707857
4.5872903,0.59376204,8.8777,0.014660766,-0.002443461,0.004886922,14.0,4.5043,0.5374,8.6943,2.0E-4,-0.0278,-0.0323,-0.209019,-0.114105,-0.901609,2017-04-08 21:35:55,60.775138880373696
4.5681367,0.5650316,8.858546,0.03176499,0.004886922,-0.0012217305,14.0,4.4883,0.5262,8.7032995,-0.003,0.062,-0.0022,-0.207648,-0.114602,-0.899403,2017-04-08 21:35:56,42.98485643925004
4.367024,0.17238252,8.868123,-0.13072516,-0.06352998,-0.04520403,14.0,4.2525997,0.0791,8.8362,-0.0126,-0.0413,-0.0187,-0.203133,-0.095898,-0.902412,2017-04-08 21:35:57,40.04948086321462
4.3766007,0.18195933,9.212888,0.112399206,0.1160644,0.06352998,22.0,4.469,0.2662,8.724999,-0.0563,0.0036,0.1041,-0.212027,-0.100943,-0.900944,2017-04-08 21:35:58,43.1835898432539
4.4819455,0.45968673,8.935161,0.02687807,0.0,0.019547688,17.0,4.3786,0.3848,8.766399,-0.057699997,-0.0514,0.0938,-0.204251,-0.104614,-0.901363,2017-04-08 21:35:59,68.26408707937728
4.510676,0.2777274,8.925584,0.030543262,0.004886922,-0.008552114,19.0,4.4511,0.2749,8.7339,0.0403,-0.0052,0.0067999996,-0.210959,-0.100937,-0.901252,2017-04-08 21:36:00,54.376132754046424
4.4436383,0.2873042,8.983045,0.029321533,0.0061086523,-0.007330383,19.0,4.3756,0.34669998,8.7694,0.0387,-0.0095999995,0.0197,-0.206586,-0.101006,-0.905331,2017-04-08 21:36:01,54.17584929929153
4.6255975,0.22026655,9.002198,-0.04153884,-0.061086524,0.019547688,19.0,4.3704,0.24059999,8.7755995,-0.020499999,-0.028299998,0.0805,-0.207557,-0.097407,-0.902554,2017-04-08 21:36:02,66.25104347124538
4.654328,0.076614454,8.887277,0.04642576,0.012217305,0.0012217305,24.0,4.5415998,0.12789999,8.690599,0.0705,0.0074,0.0196,-0.221301,-0.089033,-0.910805,2017-04-08 21:36:03,67.574772963895
4.6830587,0.25857377,8.935161,0.06963864,0.002443461,-0.018325957,22.0,4.5227,0.20699999,8.6989,0.0504,-0.0433,0.0112,-0.218282,-0.09396,-0.908834,2017-04-08 21:36:04,51.805216884533316
4.711789,0.17238252,9.002198,0.061086524,-0.03176499,-0.037873644,22.0,4.5046997,0.1042,8.7101,0.0491,0.0021,-0.0099,-0.220743,-0.084718,-0.914945,2017-04-08 21:36:05,56.756190788007515
4.6926355,0.2873042,8.848969,0.035430185,0.015882496,0.0036651916,22.0,4.5488,0.264,8.6837,0.023899999,-0.0423,0.065799996,-0.221385,-0.090764,-0.918218,2017-04-08 21:36:06,52.15034361785925
4.5298295,0.40222588,8.992621,0.02687807,0.056199603,-0.029321533,22.0,4.4014997,0.2934,8.7584,-0.1109,-0.17019999,-0.0392,-0.21308,-0.089668,-0.919863,2017-04-08 21:36:07,54.75726506510504
4.405331,0.49799395,9.011775,0.059864793,0.02321288,-0.10140363,19.0,4.2994,0.2595,8.8101,0.1397,0.07,0.0848,-0.203825,-0.096252,-0.904447,2017-04-08 21:36:08,59.159810120397836
4.4436383,0.59376204,8.925584,0.03176499,-0.0036651916,0.008552114,17.0,4.3493,0.4759,8.7764,8.0E-4,-0.0611,0.11889999,-0.201602,-0.108995,-0.901535,2017-04-08 21:36:09,51.5665142866083
4.606444,0.545878,8.887277,0.02565634,0.013439035,0.013439035,17.0,4.4823,0.508,8.7074995,-0.026099999,-0.0262,-0.011899999,-0.209296,-0.111769,-0.903003,2017-04-08 21:36:10,57.38572711460519
4.55856,0.58418524,8.858546,0.043982297,-0.02687807,-0.018325957,17.0,4.4121,0.54399997,8.741099,0.0951,0.0448,-0.0473,-0.204637,-0.110214,-0.905772,2017-04-08 21:36:11,54.403467382039636
4.4819455,0.58418524,8.896853,0.029321533,0.0061086523,0.002443461,14.0,4.371,0.5493,8.7614,0.0254,-9.999999E-4,0.0213,-0.202686,-0.110497996,-0.90569097,2017-04-08 21:36:12,57.02441296733539
4.4436383,0.5650316,8.944737,0.039095376,-0.004886922,0.0,14.0,4.3192997,0.5247,8.7885,-0.0030999999,-0.0449,0.0075,-0.201818,-0.105727,-0.910708,2017-04-08 21:36:13,69.13622206353043
4.4244847,0.63206923,8.973468,0.008552114,0.004886922,0.015882496,17.0,4.3297,0.529,8.7831,0.0082,-0.038,0.0084999995,-0.202713,-0.105319,-0.911976,2017-04-08 21:36:14,69.49194297031272
4.3861775,0.49799395,8.954314,0.034208454,0.004886922,0.0,17.0,4.3215,0.522,8.7876,-0.0067,-0.0018999999,-0.0313,-0.202565,-0.104602,-0.912277,2017-04-08 21:36:15,55.60631110740295
4.1659107,0.46926352,8.954314,0.0036651916,0.010995574,0.07819075,14.0,4.2985,0.4989,8.8001995,0.0449,0.1107,0.0859,-0.202315,-0.10488,-0.912159,2017-04-08 21:36:16,46.342179764009906
4.213795,0.5363012,9.107543,0.02565634,-0.019547688,-0.040317107,14.0,4.1431,0.48659998,8.8751,0.13759999,0.1692,-0.100999996,-0.192278,-0.102589,-0.908785,2017-04-08 21:36:17,57.56050042918959
4.261679,0.641646,9.050082,0.03176499,-0.0036651916,0.004886922,14.0,4.1794,0.59209996,8.8516,-0.017099999,0.0123,-0.0378,-0.19176699,-0.109164,-0.906943,2017-04-08 21:36:19,66.8350240148326
4.31914,0.6607997,8.973468,0.012217305,0.007330383,0.012217305,14.0,4.2062,0.7123,8.8301,0.0143,-0.0712,-0.055,-0.191167,-0.115086,-0.907355,2017-04-08 21:36:20,59.8409273774942
4.3287168,0.80445176,8.973468,0.028099801,0.0061086523,0.009773844,12.0,4.2335997,0.7718,8.8119,-0.042799998,0.0191,-0.0173,-0.19197,-0.117639,-0.908262,2017-04-08 21:36:21,54.73491294740188
4.280833,0.80445176,8.973468,0.035430185,0.0036651916,0.0012217305,12.0,4.2243,0.80689996,8.8132,-0.0335,-0.030599998,-0.027999999,-0.190801,-0.119337,-0.908347,2017-04-08 21:36:22,56.61754708715907
4.3287168,0.90021986,8.983045,0.02565634,-0.012217305,0.004886922,9.0,4.2257,0.8635,8.8071995,0.0231,-0.0199,-0.0128999995,-0.189358,-0.121962,-0.907843,2017-04-08 21:36:23,58.94319988766362
3.4859576,0.06703765,9.356541,-0.11484267,0.15882497,0.20769419,9.0,4.1429,0.77599996,8.8545,0.20639999,0.22029999,-0.1854,-0.186878,-0.116693,-0.908343,2017-04-08 21:36:24,64.99002198357584
4.2521024,0.79487497,9.040505,-0.002443461,0.037873644,0.032986723,9.0,4.2104,0.8178,8.8189,-0.0387,0.030599998,0.0862,-0.188982,-0.121021,-0.905794,2017-04-08 21:36:25,74.71267356750579
4.31914,1.0726024,9.059659,0.13072516,0.07819075,0.06352998,9.0,4.3717,1.0462999,8.7157,-0.0557,0.1707,0.3187,-0.19342,-0.134946,-0.904527,2017-04-08 21:36:26,60.213126685716745
4.3861775,1.1971009,8.887277,0.007330383,0.04520403,0.017104227,7.0,4.3571997,1.1995,8.703199,-0.0312,0.005,0.0176,-0.189986,-0.142001,-0.904591,2017-04-08 21:36:27,86.78242089141413
4.453215,1.2641385,8.820239,0.02321288,0.008552114,-0.0036651916,12.0,4.3596,1.2378,8.6966,0.0037999998,0.080299996,0.0326,-0.188963,-0.14256,-0.905118,2017-04-08 21:36:28,56.9991175080274
4.4244847,1.3215994,8.839393,0.021991149,0.008552114,0.007330383,12.0,4.3231,1.2725999,8.7098,0.0426,0.0385,-0.057699997,-0.187291,-0.144378,-0.905725,2017-04-08 21:36:29,71.85680386273334
4.3861775,1.388637,8.858546,0.030543262,0.004886922,-0.0012217305,9.0,4.3009,1.3406999,8.7105,-0.0328,-0.0111,0.0101,-0.184947,-0.147236,-0.905839,2017-04-08 21:36:30,56.91288182435823
4.405331,1.3694834,8.858546,0.030543262,0.007330383,0.0012217305,9.0,4.2805,1.3486999,8.719399,-0.0656,-0.0372,0.0018,-0.18375,-0.147202,-0.906055,2017-04-08 21:36:31,58.81400858097002
4.4340615,1.2545617,8.887277,-0.02321288,0.02076942,0.058643065,9.0,4.2802997,1.3539,8.718699,-0.0752,-0.023,-0.016999999,-0.183584,-0.147531,-0.905898,2017-04-08 21:36:32,55.38136669542628
4.7979803,1.6950948,8.66701,0.004886922,0.14538592,0.0012217305,7.0,4.7573,1.7213999,8.4008,-0.0797,0.015199999,0.2472,-0.207018,-0.169764,-0.908453,2017-04-08 21:36:33,44.03662085896828
5.0278234,1.8579005,7.747637,0.064751714,-0.17104226,-0.009773844,7.0,4.9270997,1.7121999,8.304299,0.012499999,0.1129,-0.6942,-0.212433,-0.169289,-0.909705,2017-04-08 21:36:34,47.57694724957843
4.9320555,1.7812861,8.37013,0.036651913,-0.04642576,0.009773844,7.0,4.8869,1.7665,8.3166,0.0061999997,-0.0223,-0.0779,-0.213926,-0.172543,-0.908807,2017-04-08 21:36:35,48.596736646154916
4.855441,1.733402,8.523358,0.02443461,0.02076942,0.0061086523,7.0,4.7778997,1.7428,8.3847,-0.0123,-0.0162,-0.0404,-0.208323,-0.170582,-0.909102,2017-04-08 21:36:36,48.48211844987912
4.8937483,1.8195933,8.494628,0.04520403,-0.047647487,0.010995574,7.0,4.7977,1.7572,8.370399,0.0165,0.027999999,-0.015999999,-0.208915,-0.171991,-0.908323,2017-04-08 21:36:37,49.765578376092996
4.8362875,0.9576807,7.479486,-0.14660765,-0.012217305,0.3371976,9.0,5.2242,1.3637999,8.186399,-0.6131,0.035499997,-0.5546,-0.231067,-0.17093,-0.888931,2017-04-08 21:36:38,74.79060228805045
4.865018,0.12449849,8.485051,0.05497787,0.02321288,0.036651913,22.0,4.7468,-0.0212,8.5812,0.048699997,0.0412,-0.22049999,-0.231795,-0.093536,-0.896274,2017-04-08 21:36:39,63.69893058604558
4.5777135,-0.15322891,8.935161,-0.002443461,0.0012217305,0.04886922,19.0,4.5334997,0.0155,8.6957,-0.0137,-0.105399996,0.023799999,-0.217273,-0.099095,-0.889194,2017-04-08 21:36:40,66.27561920017109
4.7405195,0.095768064,8.896853,0.014660766,0.017104227,-0.04520403,17.0,4.5189,0.0317,8.7032995,0.0547,0.0657,-0.0897,-0.214846,-0.100464,-0.882877,2017-04-08 21:36:41,66.50605042260133
4.453215,0.22026655,8.916007,0.030543262,0.0036651916,0.019547688,12.0,4.3841,0.2395,8.7688,0.0545,0.0016,0.0202,-0.203257,-0.107708,-0.883486,2017-04-08 21:36:42,60.55437865971036
4.453215,0.30645782,8.801085,0.047647487,-0.015882496,-0.0036651916,12.0,4.4144,0.3231,8.750899,0.013499999,-0.027099999,0.0824,-0.20254,-0.112035,-0.882804,2017-04-08 21:36:43,65.42130910720007
4.462792,0.45010993,9.069236,0.05497787,0.04886922,0.007330383,9.0,4.3996,0.38509998,8.7558,0.048499998,0.0694,-0.0056999996,-0.202842,-0.111494,-0.890156,2017-04-08 21:36:44,67.29272743388412
4.4436383,0.34476504,8.791509,0.16249016,-0.040317107,0.0720821,9.0,4.5302997,0.343,8.6907,0.20009999,-0.0545,0.1977,-0.207262,-0.118061,-0.877723,2017-04-08 21:36:45,46.075869893664596
4.76925,2.9496565,7.9583263,0.27122417,-0.56321776,-0.60231316,7.0,4.1124997,1.8618,8.7057,0.6443,1.2651,-0.4353,-0.169981,-0.165032,-0.914117,2017-04-08 21:36:46,66.36393076115783
4.711789,1.6472107,7.881712,-0.10995574,-0.14294247,-0.3921755,7.0,5.0006,2.1074998,8.1683,-0.18599999,-0.2944,0.52739996,-0.210654,-0.190893,-0.907057,2017-04-08 21:36:47,63.009288683734084
5.2959743,1.5514427,8.197746,-0.028099801,-0.10140363,0.04153884,9.0,5.2295,1.4789,8.1629,-0.0497,-0.0716,0.0771,-0.238351,-0.164292,-0.906187,2017-04-08 21:36:48,61.99934028141652
4.855441,-0.41180268,8.647857,0.07696902,-0.16249016,0.06352998,12.0,4.8511,-0.47039998,8.5097,-0.0769,0.0074,0.1463,-0.244332,-0.080157,-0.88486,2017-04-08 21:36:49,68.19644788038887
4.7884035,0.16280572,8.801085,0.09896017,-0.0036651916,-0.010995574,22.0,4.6745,0.1081,8.6201,-0.024899999,-0.0019999999,0.0438,-0.220418,-0.109129,-0.878364,2017-04-08 21:36:50,45.34436079498711
4.9703627,0.45010993,8.63828,0.057421334,-0.017104227,-0.004886922,22.0,4.8273997,0.3434,8.5292,-0.0037999998,-0.054899998,-0.0106999995,-0.223158,-0.123815,-0.87663,2017-04-08 21:36:51,72.08669291698185
4.711789,-0.24899697,8.887277,0.007330383,-0.056199603,-0.029321533,22.0,4.5193,-0.34329998,8.6964,0.0348,0.0646,-0.023799999,-0.221881,-0.085867,-0.876657,2017-04-08 21:36:52,66.76799818590783
4.807557,0.0,8.781932,0.018325957,-0.052534413,-0.035430185,19.0,4.6763,0.0766,8.6195,0.041899998,-0.0778,0.0739,-0.222703,-0.104542,-0.884032,2017-04-08 21:36:53,65.54683866434054
4.76925,-0.019153614,8.820239,0.047647487,-0.009773844,-0.002443461,22.0,4.6337,-0.0308,8.642799,0.0263,-0.0176,0.030599998,-0.224144,-0.095388,-0.889878,2017-04-08 21:36:54,52.49779469377684
4.7022123,0.2681506,8.772355,0.019547688,0.030543262,0.014660766,22.0,4.6422997,0.2749,8.6338,-0.023599999,-0.014699999,-0.0128999995,-0.216557,-0.113576,-0.883828,2017-04-08 21:36:55,56.83968003884354
4.6255975,0.15322891,8.839393,0.002443461,0.017104227,0.019547688,22.0,4.5508,0.12619999,8.6858,-0.053099997,-0.022699999,0.0349,-0.21261,-0.1099,-0.875632,2017-04-08 21:36:56,58.14725808412497
4.6255975,0.22026655,8.858546,0.039095376,0.0,-0.0012217305,22.0,4.5432997,0.20799999,8.6881,0.0083,0.0139,0.0101,-0.210147,-0.113415,-0.87476,2017-04-08 21:36:57,54.65641334036691
4.759673,0.5650316,8.7532015,0.04153884,-0.009773844,0.0012217305,19.0,4.7281,0.60499996,8.5702,-0.051999997,-0.056199998,0.031999998,-0.211042,-0.136018,-0.873598,2017-04-08 21:36:58,73.63685297988864
4.711789,0.5363012,8.676587,0.09407325,-0.047647487,-0.010995574,19.0,4.6772,0.5409,8.6024,0.019299999,0.0383,0.0287,-0.209968,-0.131576,-0.87461,2017-04-08 21:36:59,54.88174814525257
4.5202527,0.2873042,8.944737,-0.16249016,0.08552113,0.056199603,17.0,4.5849,0.5748,8.6497,0.122999996,0.013599999,-0.058599997,-0.205795,-0.128967,-0.879686,2017-04-08 21:37:00,71.79495985442392
4.663905,0.45010993,8.839393,-0.009773844,0.021991149,0.018325957,17.0,4.5875998,0.4637,8.6549,0.0613,0.0285,0.0341,-0.208318,-0.123786,-0.879674,2017-04-08 21:37:01,63.9076249187119
4.6351743,0.37349546,8.839393,0.032986723,-0.007330383,0.0036651916,19.0,4.5291,0.3829,8.6896,0.022799999,-0.0168,-0.0011,-0.207127,-0.119079,-0.878582,2017-04-08 21:37:02,63.63292975143756
4.596867,0.4309563,8.858546,0.009773844,0.0012217305,0.009773844,19.0,4.501,0.4362,8.7017,0.0404,-0.0167,0.0023,-0.206753,-0.117831,-0.886608,2017-04-08 21:37:03,50.5524331017796
4.644751,0.4309563,8.8777,0.1001819,0.002443461,0.012217305,19.0,4.5193,0.3915,8.6943,-0.0358,0.0039,0.1706,-0.208876,-0.11437,-0.888968,2017-04-08 21:37:04,70.46749379319425
4.5681367,0.39264908,8.858546,0.043982297,-0.008552114,0.0012217305,19.0,4.4948997,0.3611,8.7083,-0.011,0.024899999,-4.0E-4,-0.207624,-0.113537,-0.887061,2017-04-08 21:37:05,53.68358765384673
4.5298295,0.37349546,8.887277,-0.014660766,0.021991149,0.021991149,19.0,4.4858,0.385,8.712,0.0276,0.020299999,0.0545,-0.20584,-0.115928,-0.884327,2017-04-08 21:37:06,73.18630423498011
4.5872903,0.41180268,8.858546,0.042760566,-0.010995574,-0.002443461,19.0,4.4737,0.3561,8.719399,0.0105,5.9999997E-4,-0.0019999999,-0.205725,-0.114484,-0.884071,2017-04-08 21:37:07,63.702372398962495
4.5202527,0.36391866,8.868123,0.008552114,0.018325957,0.017104227,19.0,4.4546,0.36519998,8.7288,0.0603,0.0167,0.0131,-0.204889,-0.115011,-0.884804,2017-04-08 21:37:08,66.4172877378933
4.4723687,0.2873042,8.896853,0.20891592,0.20647246,0.08307768,19.0,4.3947,0.31739998,8.761,-0.1836,-0.2443,0.14199999,-0.201453,-0.112816,-0.88097197,2017-04-08 21:37:09,73.58499408319207
4.367024,0.2873042,9.040505,0.05009095,0.05009095,0.032986723,22.0,4.3682,0.34129998,8.7733,0.0197,-0.033299997,0.099999994,-0.200399,-0.111907,-0.884172,2017-04-08 21:37:10,56.603042901607495
4.5872903,0.6991069,8.8777,0.04886922,0.021991149,0.0036651916,17.0,4.4667997,0.65959996,8.705299,0.0371,0.0254,0.0221,-0.197443,-0.131026,-0.879288,2017-04-08 21:37:11,63.01518735689443
5.0757074,0.9672575,8.389283,0.032986723,-0.017104227,-0.034208454,17.0,4.4811,0.7258,8.6926,-0.0067999996,-0.012399999,0.0448,-0.196742,-0.134497,-0.879065,2017-04-08 21:37:12,72.03264871962713
4.5298295,0.7374141,8.8777,0.018325957,-0.0012217305,0.009773844,14.0,4.4156,0.724,8.7262,0.0402,-0.020399999,8.0E-4,-0.19548,-0.129885,-0.886017,2017-04-08 21:37:13,69.41847609794434
5.046977,1.6472107,8.532935,0.344528,-0.14049901,-0.05009095,14.0,4.7584,1.3748,8.463799,0.0446,0.1513,0.0323,-0.197155,-0.172021,-0.874807,2017-04-08 21:37:14,68.16958815911113
4.759673,1.4269443,8.686164,0.036651913,-0.019547688,-0.0012217305,12.0,4.6603,1.3513,8.521999,-0.041899998,0.0672,-0.0169,-0.191715,-0.169534,-0.873861,2017-04-08 21:37:15,70.38052312336586
4.8745947,1.541866,8.762778,0.0061086523,0.16249016,-0.018325957,12.0,4.7202997,1.3636,8.486899,-0.1471,-0.2082,-0.074499995,-0.198362,-0.17503,-0.870324,2017-04-08 21:37:16,57.38160977976996
4.6160207,1.3311762,8.676587,0.02565634,0.036651913,0.013439035,7.0,4.5931997,1.3248,8.5625,-0.0357,-0.0352,0.0667,-0.188502,-0.168117,-0.872163,2017-04-08 21:37:17,63.93701210446905
4.6830587,1.388637,8.695741,0.02687807,-0.009773844,0.004886922,7.0,4.5727997,1.3464999,8.57,-0.0313,0.032899998,0.0126,-0.18592,-0.168762,-0.87130797,2017-04-08 21:37:18,58.86423867347247
4.5777135,1.4556746,8.762778,0.014660766,0.0720821,0.0061086523,9.0,4.4916997,1.4202,8.6009,0.0018999999,0.0069999998,0.0106,-0.180813,-0.169641,-0.873474,2017-04-08 21:37:19,76.23982503346262
4.4819455,1.436521,8.801085,0.030543262,0.014660766,0.007330383,7.0,4.3824,1.4011999,8.6603,0.0053,-0.0324,0.009099999,-0.175967,-0.165779,-0.875364,2017-04-08 21:37:20,71.93610292562047
4.4723687,1.436521,8.801085,0.028099801,0.0036651916,0.007330383,7.0,4.4014,1.3878,8.6528,0.0154,-0.009,0.046099998,-0.1774,-0.1654,-0.875677,2017-04-08 21:37:21,71.6629256091227
4.9703627,1.3599066,8.494628,-0.0012217305,0.10751228,0.008552114,9.0,4.8803,1.3139,8.4039,0.0481,-0.0221,0.0345,-0.208769,-0.167139,-0.882906,2017-04-08 21:37:22,65.81439550705645
3.3518825,0.8619126,9.998186,-0.23335053,0.0720821,-0.12583824,7.0,3.4462,0.9601,9.130799,-0.16049999,-0.1232,0.70739996,-0.145307,-0.125029,-0.904624,2017-04-08 21:37:23,64.79003168181335
5.554548,1.2066777,8.169016,0.18570304,0.38606682,-0.04520403,12.0,5.2823,1.0975,8.1891,0.0797,-0.0041,0.021699999,-0.249907,-0.164658,-0.876202,2017-04-08 21:37:24,66.33413985028767
5.3438582,0.91937345,8.456321,0.019547688,-0.02076942,-0.002443461,14.0,5.3417997,0.88269997,8.176499,-0.0681,-0.17199999,-0.0382,-0.241507,-0.157439,-0.876673,2017-04-08 21:37:25,70.36419934102133
5.401319,0.8810662,8.293514,0.034208454,0.034208454,0.0061086523,14.0,5.3135,0.8373,8.199699,-0.0098,0.0212,-0.051999997,-0.240405,-0.157863,-0.871724,2017-04-08 21:37:26,70.177455335307
5.3247046,0.8714894,8.341399,0.017104227,-0.037873644,0.0061086523,14.0,5.2339997,0.8418,8.250199,-0.027099999,0.0166,-0.0543,-0.233408,-0.157723,-0.87023,2017-04-08 21:37:27,67.99643489406076
5.3438582,0.8810662,8.341399,0.03176499,0.0061086523,0.009773844,14.0,5.2713,0.8361,8.227,0.0309,-0.0139,-0.0328,-0.235213,-0.15878,-0.868987,2017-04-08 21:37:28,70.60855331110936
4.999093,1.13964,9.270349,-0.6401868,0.376293,0.037873644,14.0,5.0836,1.5246999,8.2463,0.32909998,0.30789998,0.8204,-0.214541,-0.183097,-0.877928,2017-04-08 21:37:29,70.57555614295795
2.6623523,1.1109096,9.442732,-0.3726278,0.49113566,0.38240165,12.0,2.529,0.5815,9.457,0.1161,0.3263,-0.3522,-0.116488,-0.094724,-0.914283,2017-04-08 21:37:30,72.27375136628721
3.169923,-0.05746084,9.471462,-0.019547688,0.172264,0.30909783,24.0,3.1868,-0.0713,9.274099,-0.0893,-0.3899,0.26209998,-0.158224,-0.057053,-0.92607397,2017-04-08 21:37:31,55.991406066990656
2.432509,0.61291564,9.232041,0.41905355,0.07819075,0.09896017,24.0,3.2180998,0.042099997,9.2634,-0.5651,0.3299,0.0345,-0.14321999,-0.084743,-0.855129,2017-04-08 21:37:32,62.94690310405236
6.1100025,0.9672575,7.374141,-0.35308012,-0.84665924,-0.16126843,7.0,6.0933,1.5685999,7.522,-0.0323,0.0742,-0.8091,-0.235253,-0.225308,-0.841231,2017-04-08 21:37:33,51.60258592644891
5.2863975,0.6991069,8.39886,0.02321288,-0.002443461,0.0012217305,17.0,5.1807,0.7127,8.295899,0.0639,-0.0064999997,-0.0339,-0.237074,-0.144294,-0.881077,2017-04-08 21:37:34,66.68968262758645
5.094861,0.7469909,8.580819,0.018325957,-0.009773844,0.002443461,14.0,5.0197997,0.7068,8.3947,0.0014,0.038599998,-0.0066,-0.226717,-0.143475,-0.877901,2017-04-08 21:37:35,56.01924413740817
4.999093,0.7469909,8.580819,0.029321533,0.014660766,0.004886922,14.0,4.9591,0.72139996,8.4295,-0.0154,-0.0252,0.0071,-0.223073,-0.14301,-0.878227,2017-04-08 21:37:36,72.82661588384371
4.960786,0.7374141,8.619126,0.030543262,0.013439035,0.0061086523,14.0,4.8714,0.7301,8.4797,0.0089,-0.0047,0.018199999,-0.218501,-0.141677,-0.878963,2017-04-08 21:37:37,48.986592601525
4.903325,0.7469909,8.714894,0.032986723,0.015882496,0.010995574,14.0,4.8410997,0.7466,8.4956,0.036,-0.0046,-0.0651,-0.216305,-0.141988,-0.878877,2017-04-08 21:37:39,60.2571376962043
4.8745947,0.78529817,8.6574335,0.02687807,0.0,0.0036651916,14.0,4.7851996,0.75439996,8.5265,-0.0011,-5.9999997E-4,-0.0021,-0.212958,-0.141114,-0.879277,2017-04-08 21:37:40,44.07716397091059
4.8267107,0.7757214,8.714894,0.02565634,-0.002443461,0.007330383,14.0,4.7427,0.7665,8.5492,0.0015,-0.0047999998,0.0138,-0.210317,-0.140987,-0.87922,2017-04-08 21:37:41,68.49341715536455
4.7788267,0.7469909,8.801085,0.03176499,0.019547688,0.007330383,14.0,4.7349997,0.76479995,8.553599,0.0128,-9.0E-4,-0.0451,-0.209902,-0.140805,-0.87916,2017-04-08 21:37:42,54.920378639473
4.76925,0.7661445,8.714894,0.03176499,0.008552114,0.007330383,14.0,4.6828,0.77489996,8.5814,0.0167,0.018099999,0.005,-0.206856,-0.14028,-0.879346,2017-04-08 21:37:43,65.38492255631726
4.721366,0.842759,8.7532015,0.02321288,-0.015882496,0.0061086523,14.0,4.6242,0.7804,8.612599,0.0042999997,0.0235,-0.0139999995,-0.202388,-0.141129,-0.876068,2017-04-08 21:37:44,65.06003474670192
4.8362875,0.641646,8.734048,0.029321533,0.0061086523,0.0,14.0,4.7476,0.6044,8.5594,0.0264,0.0252,0.059299998,-0.213065,-0.134877,-0.876454,2017-04-08 21:37:45,57.6067433040254
4.6926355,0.6799533,8.801085,0.030543262,0.008552114,0.004886922,17.0,4.5806,0.65,8.6466,0.0345,0.031799998,0.061199997,-0.203959,-0.132815,-0.878722,2017-04-08 21:37:46,63.61214226645396
4.510676,0.7182605,8.858546,0.02565634,-0.018325957,0.007330383,14.0,4.3847,0.7058,8.7432995,0.0605,9.999999E-4,5.9999997E-4,-0.192448,-0.131065,-0.880597,2017-04-08 21:37:47,67.74540410459
4.4915223,0.7086837,8.916007,0.028099801,0.0012217305,0.0061086523,14.0,4.4254,0.69799995,8.7234,0.0163,0.0067999996,-0.0242,-0.194496,-0.131902,-0.879629,2017-04-08 21:37:48,77.1323619258501
4.501099,0.6991069,8.887277,0.02321288,-0.0012217305,0.0036651916,14.0,4.4129,0.695,8.73,0.0358,0.0275,0.0026,-0.193808,-0.131647,-0.87938,2017-04-08 21:37:49,70.07946438991256
4.4819455,0.7565677,8.887277,0.034208454,0.018325957,0.010995574,14.0,4.4312997,0.71419996,8.7191,0.017099999,-0.0016999999,0.0037999998,-0.194333,-0.132972,-0.879194,2017-04-08 21:37:50,66.37371930756395
4.4244847,0.78529817,8.944737,0.03176499,0.013439035,0.008552114,12.0,4.3473,0.73789996,8.7593,-0.0265,0.034199998,0.038,-0.189669,-0.131996,-0.880329,2017-04-08 21:37:51,42.1494010819595
4.4436383,0.78529817,8.963891,0.029321533,0.009773844,0.004886922,14.0,4.3624997,0.73969996,8.751599,-0.0185,0.027999999,0.0139999995,-0.190402,-0.132423,-0.880197,2017-04-08 21:37:52,72.12843161098264
4.7309427,0.7278373,8.7532015,0.010995574,-0.019547688,-0.0012217305,14.0,4.6245,0.68299997,8.6207,-0.037499998,-0.0296,-0.0405,-0.204834,-0.135635,-0.87763,2017-04-08 21:37:53,57.57171259308515
4.5298295,0.5267244,8.762778,0.10873401,0.37751472,0.030543262,14.0,4.8048997,0.65459996,8.5237,-0.4219,-0.32619998,0.2471,-0.21430899,-0.139576,-0.873893,2017-04-08 21:37:54,74.3702097482625
5.0661306,0.6703765,8.571242,0.043982297,0.04886922,0.012217305,17.0,4.9748,0.6666,8.4247,-0.026899999,-0.0148,-0.043899998,-0.222784,-0.144301,-0.871652,2017-04-08 21:37:55,71.19166681510899
4.9799395,0.6991069,8.647857,0.034208454,0.040317107,0.007330383,17.0,4.8915,0.69009995,8.471499,-0.059299998,-0.0094,-0.0525,-0.218218,-0.143011,-0.873428,2017-04-08 21:37:56,60.39870589097444
5.085284,0.79487497,8.379706,0.040317107,0.002443461,0.015882496,17.0,4.9003,0.6746,8.4677,0.0198,-0.072,-0.0682,-0.21906699,-0.142394,-0.873505,2017-04-08 21:37:57,56.36126048808884
4.951209,0.6799533,8.6574335,0.03176499,0.009773844,0.008552114,17.0,4.8666997,0.705,8.4845,-0.0242,0.0145,-0.0854,-0.216456,-0.14337,-0.87325597,2017-04-08 21:37:58,61.64319243139815
4.865018,0.7374141,8.6574335,0.032986723,0.021991149,0.0061086523,17.0,4.8164,0.7169,8.512199,-0.0295,0.0069999998,7.0E-4,-0.213573,-0.142768,-0.873776,2017-04-08 21:37:59,67.24749372374497
4.960786,0.6991069,8.6095495,0.028099801,0.0061086523,0.004886922,17.0,4.8508997,0.7026,8.4938,0.0093,0.042799998,0.027099999,-0.215436,-0.142987,-0.873275,2017-04-08 21:38:00,66.92542807606338
4.9320555,0.7086837,8.66701,0.02443461,-0.017104227,0.0061086523,17.0,4.8426,0.6987,8.498799,-0.0185,0.0337,-0.0253,-0.215267,-0.142607,-0.873328,2017-04-08 21:38:01,67.79662877960565
4.999093,0.6703765,8.6095495,0.03176499,0.028099801,0.013439035,17.0,4.874,0.6903,8.4816,0.0594,-0.0316,0.0178,-0.217029,-0.143027,-0.872832,2017-04-08 21:38:02,50.80120665338255
4.7979803,0.7086837,8.734048,0.021991149,0.017104227,0.0,17.0,4.7454,0.6792,8.554999,0.012999999,-0.0106,0.0121,-0.210647,-0.139428,-0.874363,2017-04-08 21:38:03,72.37515563379776
4.7500963,0.7278373,8.810662,0.02565634,0.008552114,0.004886922,14.0,4.6879,0.6872,8.5861,0.031999998,-0.0285,0.098299995,-0.208908,-0.136335,-0.879156,2017-04-08 21:38:04,71.09445148816249
4.855441,0.7182605,8.772355,0.014660766,-0.032986723,0.002443461,14.0,4.716,0.69879997,8.5697,0.0526,0.057699997,-0.0321,-0.209006,-0.139211,-0.875561,2017-04-08 21:38:05,64.51572783883873
4.865018,0.6512229,8.734048,0.02076942,-0.0061086523,0.0061086523,17.0,4.875,0.67039996,8.4826,-0.069,-0.0312,0.1442,-0.217563,-0.142032,-0.872982,2017-04-08 21:38:06,70.0973466430456
4.7405195,0.7757214,9.136273,0.080634214,-0.030543262,-0.010995574,14.0,4.4842,0.8497,8.6798,-0.0525,-0.038399998,0.0134,-0.195272,-0.140777,-0.875561,2017-04-08 21:38:07,49.75047485124384
4.759673,0.7757214,8.772355,0.02565634,0.013439035,0.018325957,14.0,4.6886997,0.74469995,8.5808,0.060599998,0.0014,0.0938,-0.209437,-0.136506,-0.884059,2017-04-08 21:38:08,75.66818283229074
4.663905,0.78529817,8.781932,0.035430185,0.0012217305,0.008552114,12.0,4.5979,0.7678,8.6278,0.0053999997,0.0075,0.046299998,-0.204137,-0.135759,-0.88467,2017-04-08 21:38:09,69.09666481722064
4.6160207,0.7469909,8.848969,0.02565634,-0.029321533,0.012217305,12.0,4.4899,0.77639997,8.6837,0.0559,0.047799997,0.0191,-0.198164,-0.134091,-0.885111,2017-04-08 21:38:10,47.872723487261055
4.663905,0.79487497,8.810662,0.032986723,0.009773844,0.010995574,12.0,4.5566998,0.7603,8.6503,0.0066,-0.021,-0.0139999995,-0.201597,-0.135329,-0.883431,2017-04-08 21:38:11,66.17020376950039
4.644751,0.7565677,8.868123,0.02321288,0.004886922,0.0061086523,12.0,4.5388,0.7701,8.6588,-0.0278,0.0074,-0.0888,-0.200457,-0.135411,-0.883574,2017-04-08 21:38:12,47.726687926652325
4.5777135,0.78529817,8.8777,0.030543262,0.009773844,0.007330383,12.0,4.5229,0.77559996,8.666699,-0.035,-0.0050999997,0.051099997,-0.199548,-0.135281,-0.883797,2017-04-08 21:38:13,73.77183066375939
4.55856,0.79487497,8.848969,0.032986723,0.02076942,0.0061086523,12.0,4.5084,0.77269995,8.6744995,-0.0301,-0.0218,-0.0156,-0.198873,-0.134803,-0.883977,2017-04-08 21:38:14,73.83052394280811
4.6255975,0.7661445,8.820239,0.030543262,0.0,0.002443461,12.0,4.5882998,0.7794,8.6319,0.005,-0.0207,-0.032199997,-0.204125,-0.135011,-0.886865,2017-04-08 21:38:15,73.51845121189353
4.855441,0.90021986,8.695741,0.04153884,0.032986723,0.009773844,9.0,4.7697997,0.92289996,8.5185995,-0.0134,-0.049399998,-0.0047999998,-0.210758,-0.145777,-0.88495,2017-04-08 21:38:16,71.56149569269166
4.7884035,0.91937345,8.676587,0.028099801,-0.021991149,0.0036651916,12.0,4.7728,0.89669997,8.5197,0.003,0.085099995,-0.1138,-0.214061,-0.140678,-0.891942,2017-04-08 21:38:17,67.60455544026055
4.8362875,0.8523358,8.695741,0.02321288,-0.007330383,0.008552114,12.0,4.7258,0.8394,8.5517,0.0019999999,0.0061999997,-0.058199998,-0.213242,-0.136052,-0.894055,2017-04-08 21:38:18,69.15748299590489
4.7979803,0.8523358,8.714894,0.028099801,0.0,0.008552114,12.0,4.7123,0.8304,8.559999,0.0016,-0.0014,-0.029199999,-0.212497,-0.135659,-0.893652,2017-04-08 21:38:19,72.36520851646756
4.807557,0.842759,8.686164,0.02687807,0.012217305,0.0036651916,12.0,4.731,0.8117,8.551499,-0.0075999997,0.0078,-0.020499999,-0.213308,-0.135986,-0.891994,2017-04-08 21:38:20,50.5410683273924
4.7884035,0.8619126,8.724471,0.030543262,0.017104227,0.008552114,12.0,4.6963,0.8199,8.569799,0.035099998,-0.0018,-0.057299998,-0.211388,-0.135809,-0.892253,2017-04-08 21:38:21,73.96029569669432
4.7884035,0.79487497,8.724471,0.029321533,0.010995574,0.010995574,9.0,4.7037997,0.8303,8.5647,-0.0128999995,-0.0232,-0.029,-0.211308,-0.136628,-0.891705,2017-04-08 21:38:22,72.14150588536242
4.7309427,0.8714894,8.762778,0.032986723,0.008552114,0.0061086523,9.0,4.6344,0.8533,8.6002,-0.0089,-0.0089,-0.0307,-0.209122,-0.133335,-0.897654,2017-04-08 21:38:23,69.04544229396187
4.721366,0.8810662,8.772355,0.030543262,0.02076942,0.004886922,9.0,4.6499,0.8498,8.592199,-0.0050999997,-0.0053999997,-0.0422,-0.209373,-0.134468,-0.895769,2017-04-08 21:38:24,70.07827545355764
4.721366,0.8810662,8.781932,0.02687807,-0.004886922,0.008552114,9.0,4.6164,0.8519,8.61,0.0127,0.0144,0.0128,-0.207477,-0.134021,-0.895869,2017-04-08 21:38:25,66.591284048457
4.7500963,0.8331822,8.695741,0.029321533,-0.0012217305,0.004886922,9.0,4.6275,0.8483,8.6044,-0.0137,-0.0025,-0.011,-0.207924,-0.134398,-0.895187,2017-04-08 21:38:26,61.54363763968347
4.721366,0.842759,8.743625,0.03176499,-0.012217305,0.013439035,9.0,4.6344,0.8494,8.6006,-0.038,-0.0036,0.0104,-0.207066,-0.134245,-0.895164,2017-04-08 21:38:27,68.69750452486439
4.7022123,0.8810662,8.772355,0.02443461,0.0036651916,0.0061086523,9.0,4.6204,0.84239995,8.6088,0.0088,0.0251,0.0037,-0.207532,-0.134533,-0.894318,2017-04-08 21:38:28,70.91577795654862
4.663905,0.8810662,8.781932,0.02565634,0.0,0.004886922,9.0,4.6145,0.8513,8.6111,0.0206,0.016099999,0.0033,-0.206847,-0.134795,-0.894382,2017-04-08 21:38:29,51.49183369159352
4.6830587,0.89064306,8.762778,0.029321533,-0.0036651916,0.009773844,9.0,4.5896,0.8534,8.6242,0.0037999998,0.0134,-0.0253,-0.205528,-0.134332,-0.894723,2017-04-08 21:38:30,75.24337216108565
4.6830587,0.842759,8.801085,0.02565634,-0.0012217305,0.007330383,9.0,4.5931997,0.8523,8.6223,0.0158,0.023599999,-0.0013,-0.205633,-0.134517,-0.89439,2017-04-08 21:38:31,55.45490902610645
4.7022123,0.8714894,8.762778,0.030543262,0.004886922,0.009773844,9.0,4.5947,0.8505,8.621699,-0.0022,-0.0033,-0.0242,-0.20571099,-0.134518,-0.894276,2017-04-08 21:38:32,66.85495622958695
4.644751,0.90021986,8.781932,0.03176499,0.007330383,0.009773844,9.0,4.575,0.84889996,8.6324,0.0099,-0.022699999,-0.0109,-0.205567,-0.132707,-0.896875,2017-04-08 21:38:33,67.95300361027665
4.6926355,0.8810662,8.781932,0.02687807,0.0012217305,0.0061086523,9.0,4.5854,0.8495,8.6268,0.0219,0.0083,-7.0E-4,-0.206026,-0.133067,-0.896558,2017-04-08 21:38:34,70.61997211841997
4.654328,0.90021986,8.810662,0.029321533,0.007330383,0.008552114,9.0,4.581,0.8512,8.6289,-4.0E-4,0.0117999995,0.0315,-0.205853,-0.132937,-0.896605,2017-04-08 21:38:35,60.94498028094967
4.6351743,0.8810662,8.801085,0.021991149,-0.007330383,0.0061086523,9.0,4.5547,0.84959996,8.643,-0.038799997,-0.0175,-0.0409,-0.204447,-0.132389,-0.896973,2017-04-08 21:38:36,72.20774267597636
4.606444,0.8714894,8.839393,0.02687807,-0.009773844,0.007330383,9.0,4.5476,0.85539997,8.6462,-0.0082,0.061499998,-0.035099998,-0.204082,-0.132547,-0.897052,2017-04-08 21:38:37,52.308180478307435
4.654328,0.8523358,8.772355,0.030543262,0.0036651916,0.008552114,9.0,4.5643997,0.8436,8.6385,0.0083,-0.0061999997,-0.0133,-0.205037,-0.132351,-0.89678,2017-04-08 21:38:38,55.93128846860065
4.6160207,0.8619126,8.820239,0.02687807,-0.017104227,0.0061086523,9.0,4.5381,0.847,8.651999,-0.0023999999,0.018099999,-0.0523,-0.202401,-0.1338,-0.893698,2017-04-08 21:38:39,68.2197738983614
4.6160207,0.89064306,8.762778,0.029321533,0.012217305,0.0061086523,9.0,4.5327997,0.85639995,8.6539,0.0244,0.0144,0.0543,-0.201847,-0.134276,-0.89348197,2017-04-08 21:38:40,73.84084782797463
4.596867,0.8810662,8.829816,0.02687807,0.009773844,0.007330383,9.0,4.5189,0.85709995,8.661099,0.017199999,0.0055,0.0626,-0.201126,-0.133995,-0.89366597,2017-04-08 21:38:41,72.22543269220802
4.596867,0.8714894,8.820239,0.028099801,0.0012217305,0.0061086523,9.0,4.5214,0.85859996,8.6596,0.0150999995,-4.0E-4,-0.0288,-0.201258,-0.13419,-0.893622,2017-04-08 21:38:42,76.34025890237933
4.5777135,0.8619126,8.810662,0.028099801,0.004886922,0.008552114,9.0,4.5162,0.8612,8.662,0.0084,-0.0143,-0.0273,-0.200912,-0.134128,-0.893705,2017-04-08 21:38:43,73.95567625797258
4.596867,0.8714894,8.868123,0.028099801,0.0036651916,0.009773844,9.0,4.4972,0.856,8.6723995,-0.0177,0.0345,-0.029299999,-0.200141,-0.133071,-0.895043,2017-04-08 21:38:44,56.56919719902018
4.6255975,0.90979666,8.839393,0.028099801,0.015882496,0.0061086523,9.0,4.5018,0.85639995,8.67,-0.0242,-0.030599998,-0.0022,-0.200527,-0.13317999,-0.894629,2017-04-08 21:38:45,71.38146321963156
4.5872903,0.8619126,8.839393,0.02687807,-0.0012217305,0.0036651916,9.0,4.4969,0.85649997,8.6726,-0.013599999,0.0273,-0.0523,-0.200242,-0.133123,-0.894601,2017-04-08 21:38:46,72.79469992049914
4.6351743,0.8619126,8.829816,0.02443461,-0.004886922,0.0061086523,9.0,4.5123997,0.8541,8.6648,0.0069,0.0133,-0.0117999995,-0.201074,-0.133366,-0.894385,2017-04-08 21:38:47,70.64100819182877
4.596867,0.8619126,8.839393,0.030543262,0.007330383,0.007330383,9.0,4.5046997,0.8578,8.6684,-0.0069,-0.0221,-0.009099999,-0.200617,-0.133366,-0.894492,2017-04-08 21:38:48,62.39008316112638
4.55856,0.8523358,8.868123,0.028099801,0.007330383,0.007330383,9.0,4.4881997,0.8581,8.6769,-0.0089,0.0071,0.0245,-0.199752,-0.133208,-0.894707,2017-04-08 21:38:49,73.5844311425535
4.55856,0.90021986,8.839393,0.02687807,0.0036651916,0.0061086523,9.0,4.4874997,0.8612,8.677,-0.0072,-0.0116,0.0137,-0.19967599,-0.133137,-0.894725,2017-04-08 21:38:50,75.30498346274081
4.5777135,0.8810662,8.858546,0.02687807,-0.0061086523,0.0061086523,9.0,4.4874,0.8638,8.6768,0.0042999997,-0.006,0.0274,-0.19962,-0.133255,-0.894728,2017-04-08 21:38:51,57.903666628549274
4.606444,0.8714894,8.839393,0.03176499,0.015882496,0.0061086523,12.0,4.5283,0.84599996,8.6572,9.999999E-4,-0.0095,-0.0219,-0.20203,-0.133362,-0.894135,2017-04-08 21:38:52,66.45384606548495
4.5872903,0.8619126,8.820239,0.028099801,0.0036651916,0.008552114,9.0,4.5037,0.84849995,8.6698,-0.028099999,0.0279,0.012999999,-0.200726,-0.13292,-0.894469,2017-04-08 21:38:53,44.184848331173015
4.4915223,0.8714894,8.925584,0.028099801,0.07086037,-0.017104227,9.0,4.5031,0.85289997,8.6697,-0.0046,0.0123,-0.067999996,-0.200614,-0.133115,-0.894485,2017-04-08 21:38:54,58.55972598611635
4.8362875,0.8523358,9.011775,0.028099801,0.07574729,0.021991149,12.0,4.5144,0.8269,8.6664,-0.055299997,0.62729996,-0.8491,-0.202125,-0.131458,-0.895586,2017-04-08 21:38:56,64.41910390844477
4.6351743,0.8331822,8.810662,0.02687807,-0.008552114,0.009773844,12.0,4.5601,0.8081,8.644199,-0.005,0.020299999,-0.0262,-0.204137,-0.131924,-0.894839,2017-04-08 21:38:56,70.87714582676425
4.7884035,0.81402856,8.772355,-0.035430185,-0.29810223,0.014660766,12.0,4.6837,0.8129,8.5774,0.1739,0.0139,-0.111099996,-0.210598,-0.135359,-0.891957,2017-04-08 21:38:58,72.66264700453881
4.711789,0.80445176,8.7532015,0.028099801,-0.002443461,0.007330383,12.0,4.6295,0.7967,8.6082,-0.0169,0.0093,-0.0046,-0.207962,-0.13373,-0.892176,2017-04-08 21:38:59,59.52338543909663
4.6830587,0.81402856,8.762778,0.029321533,0.0061086523,0.007330383,12.0,4.625,0.77419996,8.6126995,-0.007999999,0.0262,0.0144,-0.20819,-0.132389,-0.892383,2017-04-08 21:39:00,50.76535110845562
4.606444,0.81402856,8.801085,0.029321533,0.008552114,0.007330383,12.0,4.5383997,0.81589997,8.654799,-0.0069,0.033,0.0132,-0.2028,-0.132646,-0.893097,2017-04-08 21:39:01,48.30313686177934
4.6255975,0.8619126,8.810662,0.02687807,-0.004886922,0.007330383,12.0,4.5344,0.81689996,8.656799,0.028299998,0.0029,0.014699999,-0.202541,-0.132662,-0.893041,2017-04-08 21:39:02,47.78878054977653
4.6255975,0.8331822,8.820239,0.02687807,0.0,0.0061086523,12.0,4.5326,0.8182,8.6577,0.006,-0.0089,0.024699999,-0.202423,-0.132681,-0.893066,2017-04-08 21:39:03,52.046770602793124
4.596867,0.82360536,8.820239,0.02687807,0.002443461,0.007330383,12.0,4.5411,0.8168,8.653399,-0.0072,-0.0196,-0.0265,-0.202909,-0.132814,-0.892937,2017-04-08 21:39:04,58.77369471506809
4.7405195,0.82360536,8.791509,0.02687807,-0.02687807,0.014660766,12.0,4.5625,0.8081,8.6428995,0.0288,0.021699999,0.028099999,-0.20413099,-0.132901,-0.892629,2017-04-08 21:39:05,67.4271926328299
4.7405195,0.7182605,8.762778,0.02565634,0.028099801,0.002443461,12.0,4.6925,0.8121,8.572599,0.0316,0.064399995,-0.0696,-0.21056099,-0.1363,-0.890441,2017-04-08 21:39:06,49.05274132721867
4.7788267,0.80445176,8.762778,0.02687807,0.0036651916,0.0036651916,12.0,4.6693,0.79389995,8.587,0.029399998,0.0069,0.0189,-0.209069,-0.135917,-0.888904,2017-04-08 21:39:07,57.09016359413602
4.9416323,0.80445176,8.619126,0.037873644,0.015882496,0.019547688,9.0,4.8684,0.77379996,8.4775,-0.015999999,0.0175,-0.0069999998,-0.221239,-0.139538,-0.88636297,2017-04-08 21:39:08,45.82661124726429
4.7884035,0.81402856,8.734048,0.028099801,0.0036651916,0.007330383,12.0,4.6779,0.8064,8.5810995,0.0011,0.0137,-0.0045,-0.209029,-0.137072,-0.88812697,2017-04-08 21:39:09,49.524582619992835
4.9416323,0.7757214,8.619126,0.018325957,-0.030543262,0.010995574,12.0,4.8568,0.7385,8.4873,-0.0336,0.024,-0.0072,-0.220081,-0.137213,-0.887046,2017-04-08 21:39:10,43.512077609259336
4.865018,0.7661445,8.628703,0.028099801,0.008552114,0.009773844,9.0,4.8016,0.77449995,8.5155,0.0323,0.0069,0.0131,-0.21642,-0.138176,-0.887141,2017-04-08 21:39:11,50.36366621201678
4.855441,0.80445176,8.695741,0.028099801,0.0,0.007330383,9.0,4.7599,0.7933,8.5371,0.0019999999,0.0166,0.033,-0.213611,-0.138182,-0.887315,2017-04-08 21:39:12,51.58284108439855
4.8458643,0.81402856,8.66701,0.028099801,0.010995574,0.0061086523,9.0,4.7609997,0.7951,8.5364,0.0221,-0.0126,0.0052,-0.213492,-0.138509,-0.886909,2017-04-08 21:39:13,69.99305560671813
4.8362875,0.842759,8.676587,0.02565634,-0.004886922,0.008552114,9.0,4.7557,0.7974,8.5391,0.021399999,0.0052,-0.0104,-0.213174,-0.138494,-0.886987,2017-04-08 21:39:14,53.544821006926256
4.855441,0.80445176,8.686164,0.028099801,-0.0012217305,0.008552114,9.0,4.7805,0.8013,8.5248995,0.038799997,0.0018,0.029399998,-0.214374,-0.13926099,-0.886637,2017-04-08 21:39:15,58.11204960727043
4.7979803,0.80445176,8.686164,0.02565634,0.0061086523,0.004886922,9.0,4.7695,0.80039996,8.531099,-0.0354,0.0184,-0.01,-0.213925,-0.138999,-0.886761,2017-04-08 21:39:16,52.35969687021925
4.8267107,0.81402856,8.66701,0.02687807,-0.002443461,0.007330383,9.0,4.7567,0.8077,8.5376,-0.017199999,-1.0E-4,-0.0491,-0.213029,-0.138997,-0.886988,2017-04-08 21:39:17,77.12308898359863
4.855441,0.82360536,8.66701,0.02687807,0.008552114,0.012217305,9.0,4.7527,0.8154,8.5391,-0.071899995,-0.0178,0.0178,-0.212677,-0.139257,-0.887065,2017-04-08 21:39:18,81.33716753868084
4.912902,0.78529817,8.619126,0.029321533,-0.019547688,0.008552114,12.0,4.8259997,0.7809,8.5011,-0.019299999,0.0174,-0.0708,-0.217179,-0.139266,-0.886157,2017-04-08 21:39:19,65.20241429616065
5.094861,0.7374141,8.523358,0.021991149,0.0,0.0061086523,12.0,5.0207996,0.7267,8.3924,0.035,9.999999E-4,0.0404,-0.228572,-0.140924,-0.883918,2017-04-08 21:39:20,70.95417783069036
5.046977,0.7469909,8.571242,0.02687807,0.004886922,0.004886922,12.0,4.9589,0.7428,8.4278,0.0224,0.0018999999,0.015999999,-0.224815,-0.140568,-0.884257,2017-04-08 21:39:21,65.38063259636768
5.00867,0.7757214,8.580819,0.028099801,0.0,0.0061086523,12.0,4.9326997,0.7525,8.4422,-0.0099,-0.019199999,0.0039999997,-0.2232,-0.140519,-0.884464,2017-04-08 21:39:22,63.9426330013293
4.9895163,0.78529817,8.599973,0.028099801,0.002443461,0.007330383,12.0,4.9045997,0.76339996,8.4576,0.009099999,0.0211,0.0157,-0.221554,-0.140322,-0.884894,2017-04-08 21:39:23,60.870664287594266
4.951209,0.7661445,8.619126,0.029321533,0.015882496,0.007330383,9.0,4.8912997,0.76659995,8.465,0.0075,0.0177,0.025799999,-0.220786,-0.140192,-0.885098,2017-04-08 21:39:24,53.747257755486416
4.9895163,0.78529817,8.532935,0.02443461,-0.019547688,0.009773844,9.0,4.8805,0.7687,8.4711,0.075399995,0.0334,0.0093,-0.22019,-0.140035,-0.88526,2017-04-08 21:39:25,59.639123652630786
5.046977,0.7374141,8.571242,0.029321533,0.007330383,0.010995574,12.0,4.9293,0.7639,8.4432,0.0651,-0.030299999,-0.0015,-0.223383,-0.140055,-0.886097,2017-04-08 21:39:26,57.15887782613724
4.912902,0.79487497,8.628703,0.02687807,0.015882496,0.007330383,9.0,4.8519998,0.7833,8.4861,0.0050999997,0.008599999,-0.0177,-0.218511,-0.139931,-0.885892,2017-04-08 21:39:27,54.64027596925162
4.960786,0.78529817,8.599973,0.029321533,0.0012217305,0.010995574,9.0,4.8573,0.77959996,8.483399,-0.0252,0.011399999,-0.014699999,-0.218806,-0.139961,-0.885675,2017-04-08 21:39:28,52.81826759603197
4.9224787,0.78529817,8.628703,0.028099801,0.004886922,0.007330383,9.0,4.8431997,0.78749996,8.4907,0.019,0.0050999997,-0.0137,-0.217931,-0.139994,-0.885899,2017-04-08 21:39:29,53.1630569270375
4.9320555,0.79487497,8.619126,0.028099801,-0.004886922,0.007330383,9.0,4.8387,0.783,8.4937,-0.0098,0.0067999996,0.0156,-0.217743,-0.139781,-0.885955,2017-04-08 21:39:30,50.821020679945775
4.9224787,0.79487497,8.63828,0.028099801,0.004886922,0.007330383,9.0,4.837,0.7831,8.494599,-0.0028,-0.0098,0.023599999,-0.217691,-0.139649,-0.88597,2017-04-08 21:39:31,52.248695029253724
4.912902,0.8331822,8.619126,0.02687807,-0.009773844,0.0061086523,9.0,4.8303,0.7899,8.4978,0.0018999999,0.020499999,-0.039499998,-0.217219,-0.139804,-0.886084,2017-04-08 21:39:32,61.46495806833056
4.8937483,0.81402856,8.647857,0.02565634,-0.0061086523,0.009773844,9.0,4.8135,0.7938,8.507,4.0E-4,0.0265,0.0018,-0.216279,-0.139587,-0.886337,2017-04-08 21:39:33,66.75268710519246
4.8841715,0.82360536,8.647857,0.029321533,0.007330383,0.007330383,9.0,4.8115,0.7955,8.5079,-0.0058999998,0.0071,0.0109,-0.216145,-0.139621,-0.886365,2017-04-08 21:39:34,62.44920495890479
4.8841715,0.81402856,8.6574335,0.030543262,0.015882496,0.007330383,9.0,4.8325996,0.7689,8.4984,-0.0252,0.023,0.0069999998,-0.219783,-0.135618,-0.891657,2017-04-08 21:39:35,59.21645548235125
4.8937483,0.81402856,8.6574335,0.02443461,-0.002443461,0.004886922,9.0,4.7955,0.7909,8.5174,-0.0163,-0.0105,-0.0284,-0.21671,-0.136993,-0.890174,2017-04-08 21:39:36,67.01545824571443
4.8362875,0.80445176,8.686164,0.030543262,0.019547688,0.008552114,9.0,4.7847,0.7924,8.5233,-0.0021,0.0275,-0.0191,-0.216159,-0.136758,-0.890434,2017-04-08 21:39:37,62.491834106752286
4.8458643,0.82360536,8.686164,0.02687807,0.008552114,0.0061086523,9.0,4.7658997,0.7935,8.5338,-0.0026,-0.0029,-2.9999999E-4,-0.215169,-0.136377,-0.890705,2017-04-08 21:39:38,62.835570331961776
4.8458643,0.80445176,8.686164,0.028099801,-0.008552114,0.007330383,9.0,4.752,0.79649997,8.5413,0.0026,-0.0254,0.0034999999,-0.214394,-0.13619299,-0.890909,2017-04-08 21:39:39,69.00126951125391
4.7884035,0.81402856,8.714894,0.028099801,0.012217305,0.0061086523,9.0,4.7208,0.7917,8.559,-0.0099,-0.0099,0.013599999,-0.212813,-0.135352,-0.891169,2017-04-08 21:39:40,46.3736911015357
4.7788267,0.80445176,8.714894,0.029321533,0.013439035,0.0061086523,9.0,4.717,0.78999996,8.561299,0.0232,0.011299999,0.0209,-0.211665,-0.136719,-0.888466,2017-04-08 21:39:41,68.16745976476768
4.7788267,0.79487497,8.743625,0.02687807,-0.0061086523,0.0061086523,9.0,4.7064,0.79459995,8.5666,-2.0E-4,0.0157,-0.003,-0.211,-0.136746,-0.888514,2017-04-08 21:39:42,44.20573964609579
4.76925,0.82360536,8.743625,0.028099801,0.008552114,0.007330383,9.0,4.6998997,0.78929996,8.5707,0.0029,0.020399999,-0.0034999999,-0.210759,-0.136355,-0.888588,2017-04-08 21:39:43,68.25862276859802
4.807557,0.81402856,8.686164,0.029321533,0.0012217305,0.007330383,9.0,4.7123,0.7881,8.564,0.005,-0.0064,-0.0245,-0.211284,-0.136474,-0.888451,2017-04-08 21:39:44,62.047800771567346
4.7979803,0.82360536,8.695741,0.028099801,0.007330383,0.007330383,9.0,4.7142997,0.7858,8.5631,-0.0188,-0.0049,0.0089,-0.211562,-0.136534,-0.888371,2017-04-08 21:39:45,60.652511638384574
4.76925,0.82360536,8.724471,0.02565634,-0.014660766,0.009773844,9.0,4.7049,0.7883,8.5681,-0.0127,-0.0064,0.0253,-0.211031,-0.13643,-0.888506,2017-04-08 21:39:46,57.83947940997823
4.7788267,0.8331822,8.714894,0.029321533,0.008552114,0.008552114,9.0,4.6933,0.7805,8.5751,-0.0206,0.0015,0.018199999,-0.210827,-0.135425,-0.889326,2017-04-08 21:39:47,40.488245074190765
4.7788267,0.80445176,8.743625,0.029321533,0.014660766,0.0061086523,9.0,4.6761,0.7952,8.5831995,0.0235,0.0072999997,0.0326,-0.20954,-0.135903,-0.889243,2017-04-08 21:39:48,67.44184343747682
4.76925,0.8331822,8.734048,0.02565634,-0.012217305,0.0036651916,9.0,4.6688,0.8009,8.586599,-0.0167,-0.0095,0.0233,-0.209061,-0.135993,-0.889357,2017-04-08 21:39:49,46.81808747923459
4.7405195,0.8331822,8.7532015,0.028099801,0.0,0.004886922,9.0,4.6617,0.80429995,8.590199,-0.0099,0.0167,-0.0058999998,-0.208735,-0.135928,-0.88944,2017-04-08 21:39:50,66.82144972352316
4.721366,0.8331822,8.7532015,0.03176499,0.018325957,0.0061086523,9.0,4.6594996,0.8092,8.590899,-0.0156,-0.0015,-0.0242,-0.20842999,-0.136163,-0.889502,2017-04-08 21:39:51,52.96811219161715
4.721366,0.842759,8.762778,0.029321533,0.019547688,0.007330383,9.0,4.6465,0.8109,8.5977,-0.0047999998,0.020299999,-0.012399999,-0.20788799,-0.135887,-0.889648,2017-04-08 21:39:52,45.44414876091829
4.7405195,0.80445176,8.762778,0.028099801,0.008552114,0.0061086523,9.0,4.6486,0.81259996,8.596399,0.023,0.015899999,-0.0050999997,-0.20781,-0.136073,-0.889656,2017-04-08 21:39:53,54.68591826119209
4.759673,0.7757214,8.734048,-0.0012217305,-0.07819075,0.007330383,9.0,4.6787,0.7811,8.583099,0.013599999,-0.0301,0.0112,-0.20901,-0.136738,-0.886539,2017-04-08 21:39:54,52.86562494794314
4.7788267,0.7565677,8.743625,0.028099801,-0.008552114,0.008552114,12.0,4.7132,0.78059995,8.564199,0.0275,0.0095,-0.0676,-0.212197,-0.135342,-0.890037,2017-04-08 21:39:55,71.09786095703357
4.711789,0.80445176,8.772355,0.029321533,0.0061086523,0.004886922,9.0,4.6291,0.7884,8.6092,0.0052,-0.0278,0.0042,-0.207334,-0.13439,-0.890077,2017-04-08 21:39:56,60.10269208929918
4.76925,0.81402856,8.7532015,0.02076942,-0.021991149,0.007330383,9.0,4.6194,0.8034,8.6131,1.0E-4,0.0246,-0.038799997,-0.206383,-0.135126,-0.889745,2017-04-08 21:39:57,61.57872923081414
4.6926355,0.78529817,8.772355,0.028099801,0.002443461,0.008552114,9.0,4.6102,0.80249995,8.6181,-0.0273,0.0162,-0.0099,-0.205479,-0.13556,-0.888575,2017-04-08 21:39:58,58.76501590169564
4.6926355,0.81402856,8.791509,0.030543262,0.0036651916,0.009773844,9.0,4.5931997,0.8042,8.627,-0.018199999,0.0148,-0.015999999,-0.204579,-0.135245,-0.888801,2017-04-08 21:39:59,56.842284056739715
4.6830587,0.80445176,8.781932,0.028099801,0.012217305,0.008552114,9.0,4.5936,0.80469996,8.626699,0.0156,-0.0045,0.0128999995,-0.204586,-0.135282,-0.888792,2017-04-08 21:40:00,65.13200412235064
4.6926355,0.80445176,8.791509,0.03176499,0.009773844,0.008552114,9.0,4.5889,0.80509996,8.6292,-0.026899999,-0.0063,-0.005,-0.204337,-0.135191,-0.888854,2017-04-08 21:40:01,59.92925837687615
4.5777135,0.7565677,8.858546,0.008552114,-0.017104227,0.004886922,9.0,4.4532,0.81079996,8.6994,0.1475,0.0559,0.006,-0.197218,-0.132492,-0.89029497,2017-04-08 21:40:02,60.318022749080114
4.76925,0.7757214,8.714894,0.034208454,0.02565634,0.0061086523,12.0,4.6878,0.7547,8.5803995,-0.0061999997,-0.0106,-0.0229,-0.21547,-0.128146,-0.899697,2017-04-08 21:40:03,53.389130140011865
4.7022123,0.82360536,8.7532015,0.028099801,0.009773844,0.0061086523,9.0,4.6503997,0.7759,8.5989,-0.0036,0.005,0.0104,-0.211799,-0.129293,-0.898631,2017-04-08 21:40:04,62.80252287173114
4.7309427,0.81402856,8.762778,0.029321533,0.009773844,0.007330383,9.0,4.6266,0.7845,8.6109,0.0015,-0.0034999999,0.0092,-0.210097,-0.1297,-0.898068,2017-04-08 21:40:05,57.16965556347688
4.6830587,0.78529817,8.772355,0.02687807,0.0061086523,0.008552114,9.0,4.6232,0.792,8.6121,-0.022799999,-0.0207,0.0109,-0.209787,-0.129975,-0.898127,2017-04-08 21:40:06,49.29536882383793
4.654328,0.79487497,8.791509,0.02687807,0.0036651916,0.008552114,9.0,4.6108,0.7952,8.6184,-0.008599999,0.0138,0.0185,-0.20909,-0.129851,-0.898303,2017-04-08 21:40:07,56.60481420679547
4.673482,0.81402856,8.801085,0.030543262,0.014660766,0.004886922,9.0,4.5815,0.79789996,8.6338,0.0025,0.0030999999,0.0034999999,-0.207533,-0.129332,-0.89871,2017-04-08 21:40:08,70.04759512600792
4.6255975,0.80445176,8.791509,0.02687807,0.008552114,0.008552114,9.0,4.5734,0.7995,8.637899,-0.0069999998,0.0,0.033099998,-0.207084,-0.129231,-0.898821,2017-04-08 21:40:09,49.29581851380639
4.654328,0.80445176,8.810662,0.02687807,0.002443461,0.007330383,9.0,4.5678997,0.7994,8.6409,-0.0145,-0.011899999,-0.014099999,-0.206802,-0.129108,-0.898893,2017-04-08 21:40:10,50.16700931601637
4.644751,0.8331822,8.820239,0.02565634,-0.009773844,0.008552114,9.0,4.5548,0.80469996,8.6473,-0.0197,0.0301,-0.0275,-0.206037,-0.129068,-0.89908,2017-04-08 21:40:11,54.45636355830301
4.6255975,0.82360536,8.810662,0.029321533,0.007330383,0.007330383,9.0,4.56,0.7951,8.6454,-0.0297,0.0149,0.011299999,-0.20647,-0.128734,-0.898984,2017-04-08 21:40:12,68.2574099273465
4.6255975,0.81402856,8.820239,0.02687807,-0.0012217305,0.0061086523,9.0,4.5519,0.7981,8.6494,0.023,0.0029,0.0371,-0.206004,-0.1287,-0.899097,2017-04-08 21:40:13,50.673180922383835
4.6160207,0.80445176,8.829816,0.028099801,0.0061086523,0.007330383,9.0,4.5347,0.80039996,8.658199,-0.025999999,-0.0030999999,-0.027099999,-0.205207,-0.128552,-0.899294,2017-04-08 21:40:14,62.98754098549007
4.606444,0.82360536,8.829816,0.02687807,-0.0061086523,0.007330383,9.0,4.5234,0.8081,8.6634,0.0126,0.020399999,-0.0056999996,-0.204362,-0.128541,-0.899498,2017-04-08 21:40:15,50.548828808451766
4.596867,0.8331822,8.820239,0.028099801,0.0012217305,0.007330383,9.0,4.5186,0.8049,8.6662,-0.0175,-0.0067,0.009699999,-0.204168,-0.128288,-0.899553,2017-04-08 21:40:16,56.742744317563364
4.7405195,0.80445176,8.724471,-0.0036651916,-0.08674286,0.009773844,9.0,4.6421,0.7797,8.603,0.024799999,0.019199999,-0.0503,-0.211176,-0.129496,-0.898396,2017-04-08 21:40:18,67.59883179015557
4.7979803,0.79487497,8.676587,0.02687807,0.0036651916,0.018325957,12.0,4.7023,0.7723,8.571,-0.0168,-0.012399999,-0.0176,-0.211282,-0.135498,-0.888738,2017-04-08 21:40:19,61.243449747082785
5.056554,0.7182605,8.619126,0.008552114,-0.037873644,0.0012217305,12.0,4.9354,0.6953,8.445499,-0.0681,-0.0026,0.0219,-0.224979,-0.13703799,-0.88583,2017-04-08 21:40:20,52.18624639343859
5.2289367,0.5650316,8.456321,0.030543262,0.0012217305,0.013439035,14.0,5.1991997,0.542,8.2972,-0.0722,0.0064,-0.0033999998,-0.242218,-0.13523,-0.882914,2017-04-08 21:40:21,49.95547275795337
5.2002063,0.62249243,8.456321,0.019547688,0.0012217305,0.004886922,14.0,5.1222997,0.5772,8.3425,0.0178,-0.0015,-0.0605,-0.238101,-0.133795,-0.886268,2017-04-08 21:40:22,61.71468808568528
5.2959743,0.5363012,8.42759,0.032986723,0.014660766,0.010995574,14.0,5.151,0.5628,8.3258,-0.0415,0.0191,0.071899995,-0.240065,-0.133664,-0.885911,2017-04-08 21:40:23,56.18432272997176
5.142745,0.641646,8.504205,0.029321533,0.013439035,0.004886922,14.0,5.0667,0.5945,8.375199,0.0241,0.0361,0.031799998,-0.237306,-0.129099,-0.893624,2017-04-08 21:40:24,52.985976669008764
5.4300494,0.5267244,8.360553,-0.004886922,-0.010995574,-0.009773844,12.0,5.4157,0.477,8.1616,0.068399996,-0.0523,-0.0486,-0.25776,-0.132022,-0.88690597,2017-04-08 21:40:25,68.11650160210274
5.353435,0.5650316,8.37013,0.036651913,0.02565634,0.009773844,14.0,5.2588997,0.54289997,8.259399,0.0018999999,-0.0014,-7.0E-4,-0.247361,-0.134097,-0.885849,2017-04-08 21:40:26,59.45000630492777
5.257667,0.61291564,8.446744,0.02443461,-0.004886922,0.007330383,12.0,5.1779,0.569,8.3087,0.0198,-0.0142,-0.0323,-0.24161,-0.13419,-0.885879,2017-04-08 21:40:27,55.44705265702264
5.1906295,0.58418524,8.475474,0.029321533,0.013439035,0.0061086523,12.0,5.1322,0.5819,8.3361,0.007999999,-0.012,-0.0075,-0.238797,-0.133981,-0.886461,2017-04-08 21:40:28,54.02512355067537
5.171476,0.63206923,8.475474,0.035430185,0.010995574,0.009773844,12.0,5.1106997,0.5873,8.3489,-0.0393,0.020499999,-0.0179,-0.237563,-0.133732,-0.886808,2017-04-08 21:40:29,54.57504994750927
5.133168,0.641646,8.494628,0.030543262,0.017104227,0.008552114,12.0,5.0835,0.59889996,8.364699,-0.0268,-0.0016999999,0.025799999,-0.235917,-0.133638,-0.887266,2017-04-08 21:40:30,65.52325697309539
5.1523223,0.59376204,8.494628,0.028099801,0.0,0.007330383,12.0,5.0697,0.6051,8.3726,-0.003,-0.0363,0.0142,-0.23508,-0.133604,-0.887498,2017-04-08 21:40:31,55.45718869429499
5.133168,0.60333884,8.532935,0.028099801,0.008552114,0.0061086523,12.0,5.0625997,0.6059,8.3769,-0.0056,-0.0163,0.0357,-0.234688,-0.133476,-0.887607,2017-04-08 21:40:32,61.928262734113595
5.094861,0.641646,8.504205,0.028099801,-0.0061086523,0.010995574,12.0,5.0411,0.6143,8.3892,0.003,0.0036,-0.040599998,-0.233568,-0.133419,-0.88791597,2017-04-08 21:40:33,52.96548549349406
5.0757074,0.6607997,8.561666,0.029321533,0.0,0.008552114,9.0,4.9927,0.61219996,8.4182,-0.020299999,-0.0039999997,0.0212,-0.232542,-0.129269,-0.893273,2017-04-08 21:40:34,65.88210706832552
5.0661306,0.6607997,8.532935,0.02687807,-0.002443461,0.008552114,9.0,4.9993,0.6051,8.4149,-0.016999999,0.0072999997,0.0050999997,-0.231643,-0.131478,-0.889065,2017-04-08 21:40:35,58.74930534349046
5.1235914,0.62249243,8.504205,0.02321288,-0.014660766,0.007330383,12.0,5.0049996,0.6071,8.4113,0.0416,0.0117,-0.030499998,-0.232349,-0.130972,-0.890455,2017-04-08 21:40:36,67.39561397131274
5.1235914,0.61291564,8.552089,0.028099801,0.0036651916,0.009773844,12.0,5.0239,0.6064,8.4001,-0.0127,-0.0079,0.02,-0.233357,-0.131362,-0.890182,2017-04-08 21:40:37,73.47999465824915
5.094861,0.61291564,8.523358,0.02687807,-0.0036651916,0.0061086523,9.0,5.0113997,0.6096,8.4073,0.0289,-0.0504,-0.0173,-0.232644,-0.131226,-0.890379,2017-04-08 21:40:38,60.770772789864296
5.1140146,0.62249243,8.532935,0.02076942,-0.012217305,0.004886922,9.0,5.0078998,0.60789996,8.4095,-0.013499999,-0.0298,0.007999999,-0.232489,-0.131067,-0.890424,2017-04-08 21:40:39,70.90295099636921
5.133168,0.62249243,8.532935,0.02687807,0.0061086523,0.0061086523,12.0,5.0449,0.597,8.3882,7.0E-4,-0.0173,0.021399999,-0.234626,-0.131414,-0.889822,2017-04-08 21:40:40,57.24493650203016
5.1235914,0.62249243,8.504205,0.029321533,0.002443461,0.007330383,12.0,5.0255,0.6019,8.3995,9.0E-4,0.0255,-0.015899999,-0.233516,-0.13119599,-0.890132,2017-04-08 21:40:41,67.39736877465545
5.094861,0.58418524,8.532935,0.02443461,-0.009773844,0.007330383,9.0,5.0165997,0.60679996,8.4045,0.0087,-0.0089,0.0063,-0.232961,-0.131219,-0.89028,2017-04-08 21:40:42,54.72911708647051
5.0661306,0.63206923,8.561666,0.032986723,0.012217305,0.008552114,9.0,5.0014,0.6135,8.413,0.0063,0.0242,-0.0144,-0.232153,-0.131213,-0.890499,2017-04-08 21:40:43,61.78974327617119
5.056554,0.641646,8.552089,0.032986723,0.017104227,0.007330383,12.0,5.0076,0.60969996,8.4096,0.008599999,-0.0106,0.008599999,-0.232435,-0.131151,-0.890421,2017-04-08 21:40:44,56.92569564243893
5.1235914,0.6512229,8.523358,0.02443461,-0.014660766,0.007330383,9.0,5.025,0.60539997,8.3995,0.0328,0.0148,0.03,-0.233427,-0.131353,-0.890138,2017-04-08 21:40:45,66.81790268185333
5.104438,0.60333884,8.552089,0.019547688,-0.02565634,0.007330383,9.0,5.0148997,0.6081,8.405399,0.020299999,0.0104,-0.0369,-0.232843,-0.131249,-0.8903,2017-04-08 21:40:46,66.6916621473594
5.439626,0.5554548,8.350976,0.02443461,0.034208454,0.009773844,12.0,5.3563,0.5584,8.1956,-0.025899999,-0.009099999,-0.031,-0.251777,-0.136926,-0.884564,2017-04-08 21:40:47,51.34369380617396
5.3247046,0.5554548,8.39886,0.02443461,-0.013439035,0.007330383,9.0,5.2391,0.5717,8.2701,0.0148,-0.0128,-0.048,-0.245077,-0.13520099,-0.885949,2017-04-08 21:40:48,46.52281382189113
5.3247046,0.5650316,8.379706,0.02565634,-0.015882496,0.007330383,9.0,5.2412,0.5633,8.2692995,-0.0015,-0.0321,-0.0037999998,-0.244438,-0.13648699,-0.883415,2017-04-08 21:40:49,51.592298499283736
5.2959743,0.5554548,8.408437,0.029321533,0.015882496,0.007330383,9.0,5.2387,0.5712,8.2703,9.999999E-4,0.0099,0.0106999995,-0.24476899,-0.135702,-0.885145,2017-04-08 21:40:50,66.48586798241195
5.305551,0.58418524,8.379706,0.029321533,-0.0012217305,0.008552114,9.0,5.2307,0.5724,8.2753,0.0075,0.027099999,-0.022,-0.244321,-0.135576,-0.885271,2017-04-08 21:40:51,51.38351027188775
5.315128,0.59376204,8.408437,0.029321533,0.007330383,0.009773844,9.0,5.219,0.5724,8.2827,-0.0061999997,-0.0029,-0.0491,-0.243698,-0.135303,-0.885455,2017-04-08 21:40:52,60.88925988258248
5.2863975,0.58418524,8.39886,0.02687807,-0.009773844,0.008552114,9.0,5.2237997,0.573,8.279699,0.0104,-0.0022,-0.0274,-0.24394,-0.135443,-0.88537997,2017-04-08 21:40:53,47.825164276505845
5.3438582,0.5650316,8.389283,0.021991149,-0.009773844,0.007330383,9.0,5.2702,0.53319997,8.2529,-0.0359,0.0184,0.039899997,-0.248881,-0.131438,-0.889316,2017-04-08 21:40:54,66.94668615006455
5.3247046,0.50757074,8.379706,0.02687807,0.029321533,0.0,12.0,5.2760997,0.5477,8.248099,0.018099999,0.0137,-0.0021,-0.248028,-0.133949,-0.886769,2017-04-08 21:40:55,53.72811491732463
5.3247046,0.545878,8.37013,0.021991149,0.012217305,0.0,12.0,5.238,0.55799997,8.2717,-0.0314,-0.0064,0.0033,-0.245698,-0.133751,-0.887112,2017-04-08 21:40:56,51.650109872522386
5.391742,0.5363012,8.350976,0.030543262,-0.004886922,0.008552114,12.0,5.2991,0.5049,8.2361,0.0047,-0.0016,0.0394,-0.2485,-0.135352,-0.882008,2017-04-08 21:40:57,55.54412752989136
5.3342814,0.5267244,8.408437,0.028099801,-0.002443461,0.007330383,12.0,5.2472997,0.5279,8.267799,0.019399999,0.0045,-0.0197,-0.245426,-0.134996,-0.883216,2017-04-08 21:40:58,60.879702392677615
5.3342814,0.5746084,8.389283,0.03176499,0.017104227,0.012217305,12.0,5.2472,0.525,8.268,-0.0187,-0.012999999,-0.0143,-0.24518,-0.135392,-0.882389,2017-04-08 21:40:59,56.89892623402032
5.3342814,0.5650316,8.39886,0.028099801,0.0,0.008552114,12.0,5.2379,0.5315,8.2734995,-0.0061999997,0.0101,0.0045,-0.244567,-0.13547,-0.882556,2017-04-08 21:41:00,60.42085070347382
5.3247046,0.545878,8.389283,0.02687807,0.0036651916,0.008552114,12.0,5.2332,0.5298,8.2766,-0.0014,-0.0273,0.021,-0.24435,-0.135285,-0.882621,2017-04-08 21:41:01,53.86553260114043
5.3247046,0.5363012,8.389283,0.02565634,-0.008552114,0.007330383,12.0,5.2418,0.5326,8.271,0.0224,-0.010199999,0.0023999999,-0.244753,-0.135617,-0.882491,2017-04-08 21:41:02,64.5347182608125
5.3342814,0.5267244,8.418014,0.029321533,0.008552114,0.007330383,12.0,5.2419,0.532,8.271,0.0087,0.0095,0.0061999997,-0.244764,-0.135594,-0.882486,2017-04-08 21:41:03,58.93688785348425
5.3438582,0.545878,8.389283,0.029321533,0.013439035,0.008552114,12.0,5.2427998,0.52919996,8.2705,-0.0368,-0.028299998,-7.0E-4,-0.244798,-0.135453,-0.882477,2017-04-08 21:41:04,58.78921889010822
5.3438582,0.5363012,8.39886,0.02443461,-0.010995574,0.0061086523,12.0,5.2486997,0.5297,8.2668,0.015199999,-0.0072999997,0.025799999,-0.245166,-0.135653,-0.882362,2017-04-08 21:41:05,77.61097037198533
5.3342814,0.5267244,8.389283,0.02687807,-0.004886922,0.007330383,12.0,5.2461,0.5279,8.2685995,-0.0053999997,-0.0179,-0.0016,-0.245013,-0.135608,-0.882406,2017-04-08 21:41:06,66.29698856124256
5.3247046,0.545878,8.389283,0.028099801,0.0036651916,0.007330383,12.0,5.2379,0.528,8.2738,0.0117999995,-0.005,0.0075,-0.244624,-0.135322,-0.882524,2017-04-08 21:41:07,62.683736555687815
5.305551,0.5554548,8.408437,0.028099801,0.0061086523,0.0061086523,12.0,5.2328997,0.5331,8.2766,-0.0039,0.0082,-0.0029,-0.244265,-0.13544,-0.88262,2017-04-08 21:41:08,63.167631455096256
5.2959743,0.5554548,8.408437,0.02687807,0.007330383,0.007330383,12.0,5.2223,0.5385,8.2829,-0.0189,0.0021,5.9999997E-4,-0.243606,-0.13544,-0.882807,2017-04-08 21:41:09,61.913239680084345
5.2768207,0.5554548,8.42759,0.029321533,0.010995574,0.007330383,12.0,5.1941,0.5293,8.3012,0.0,0.0115,-0.0081,-0.241828,-0.13517,-0.881935,2017-04-08 21:41:10,58.865470740458655
5.257667,0.5650316,8.418014,0.028099801,-0.0012217305,0.007330383,12.0,5.1832,0.5437,8.307099,0.0201,-0.005,-0.0184,-0.241388,-0.134395,-0.884102,2017-04-08 21:41:11,66.2568183735202
5.2385135,0.5650316,8.408437,0.030543262,0.013439035,0.007330383,12.0,5.1884,0.5385,8.3042,-0.005,-0.0067,0.0029,-0.241871,-0.134538,-0.883502,2017-04-08 21:41:12,68.69339271325332
5.3247046,0.545878,8.408437,0.010995574,-0.05497787,0.0061086523,12.0,5.1875997,0.5417,8.3045,0.0642,-0.0089,-0.0016,-0.242738,-0.132911,-0.886238,2017-04-08 21:41:13,66.4951869161934
5.209783,0.51714754,8.446744,0.030543262,0.019547688,0.008552114,12.0,5.1345,0.5193,8.338799,0.01,-0.0058999998,0.100899994,-0.24141,-0.128675,-0.890025,2017-04-08 21:41:14,44.64304826190386
5.209783,0.51714754,8.446744,0.02687807,-0.0061086523,0.007330383,12.0,5.1282997,0.4933,8.3442,0.0071,0.0095999995,0.0018999999,-0.240338,-0.129603,-0.886563,2017-04-08 21:41:15,47.57698076020393
5.1810527,0.51714754,8.504205,0.02565634,-0.004886922,0.007330383,12.0,5.1131997,0.4998,8.3531,-0.0061999997,-0.0075,-0.0317,-0.239015,-0.130297,-0.885651,2017-04-08 21:41:16,62.89917320239606
5.2002063,0.51714754,8.485051,0.028099801,0.002443461,0.007330383,12.0,5.1105,0.5018,8.3546,-0.0042,0.0098,-0.0175,-0.238776,-0.130301,-0.885712,2017-04-08 21:41:17,63.30087165294514
5.1906295,0.51714754,8.494628,0.03176499,0.010995574,0.007330383,12.0,5.1082,0.5018,8.3561,0.025899999,-0.0058999998,0.094299994,-0.238714,-0.130278,-0.885727,2017-04-08 21:41:18,47.07093876454344
5.171476,0.50757074,8.494628,0.028099801,0.0,0.007330383,12.0,5.0947,0.5027,8.3642,-0.0319,0.0075,9.999999E-4,-0.237988,-0.13001,-0.885935,2017-04-08 21:41:19,56.42442586497879
5.161899,0.5363012,8.485051,0.02687807,0.002443461,0.009773844,12.0,5.0761,0.5022,8.3756,-0.0083,-0.048299998,0.0391,-0.237018,-0.129555,-0.886215,2017-04-08 21:41:20,46.766781423705226
5.1810527,0.51714754,8.532935,0.028099801,-0.002443461,0.009773844,12.0,5.0738,0.49839997,8.3772,0.0033,-0.0061999997,0.010799999,-0.236968,-0.129329,-0.886235,2017-04-08 21:41:21,64.16294210816983
5.161899,0.50757074,8.542512,0.02687807,-0.007330383,0.008552114,12.0,5.0580997,0.4939,8.3869,0.021,-0.019199999,0.046099998,-0.236224,-0.128763,-0.886452,2017-04-08 21:41:22,61.10232975933704
5.161899,0.5267244,8.532935,0.02565634,-0.008552114,0.007330383,12.0,5.0617,0.49519998,8.3847,0.0138,-0.021399999,-0.0356,-0.236276,-0.128771,-0.886434,2017-04-08 21:41:23,48.41604343911895
5.133168,0.51714754,8.532935,0.02565634,-0.0036651916,0.007330383,12.0,5.0515,0.49109998,8.3911,-0.058399998,-0.0307,-0.036,-0.235926,-0.128486,-0.886539,2017-04-08 21:41:24,62.63294053272575
5.1235914,0.48841715,8.523358,0.028099801,0.008552114,0.0061086523,12.0,5.0432997,0.4931,8.3959,0.0037999998,-0.0018999999,-0.0067,-0.235459,-0.128389,-0.886667,2017-04-08 21:41:25,62.8890733257559
5.104438,0.50757074,8.542512,0.028099801,-0.002443461,0.007330383,12.0,5.0186,0.4906,8.4108,-0.0011,0.0014,0.003,-0.23421,-0.127706,-0.887028,2017-04-08 21:41:26,56.85543225511814
5.0757074,0.51714754,8.590396,0.02443461,0.004886922,0.007330383,12.0,5.0092,0.4951,8.4162,0.0013,-0.0019999999,-0.0191,-0.23377,-0.127677,-0.887146,2017-04-08 21:41:27,64.06172099720965
5.0661306,0.51714754,8.571242,0.028099801,0.004886922,0.008552114,12.0,4.999,0.4912,8.4223995,-0.0198,0.0106999995,0.012,-0.233175,-0.127284,-0.887318,2017-04-08 21:41:28,45.804496466918096
5.1140146,0.49799395,8.552089,0.03176499,-0.0012217305,0.010995574,12.0,5.0172,0.47869998,8.4123,-0.0084,-0.0166,-0.022699999,-0.23436,-0.127133,-0.886999,2017-04-08 21:41:29,45.95919333357599
5.085284,0.48841715,8.561666,0.028099801,0.0012217305,0.008552114,12.0,5.0025997,0.47959998,8.421,-0.018299999,0.0122,0.0055,-0.233575,-0.12684,-0.887218,2017-04-08 21:41:30,66.50873716106689
5.085284,0.49799395,8.571242,0.02687807,-0.008552114,0.0061086523,12.0,4.9934,0.4804,8.4264,0.0175,0.0055,0.0014,-0.233128,-0.126518,-0.887345,2017-04-08 21:41:31,56.59802063982204
5.0757074,0.49799395,8.580819,0.028099801,0.004886922,0.007330383,12.0,4.9884,0.48459998,8.4291,0.0158,0.0275,0.0253,-0.232761,-0.126773,-0.887433,2017-04-08 21:41:32,65.75450348424972
5.056554,0.49799395,8.571242,0.028099801,0.018325957,0.0061086523,12.0,4.9790998,0.4892,8.4344,-0.0093,0.003,0.0,-0.23216599,-0.126742,-0.887593,2017-04-08 21:41:33,50.669998478687674
5.0661306,0.49799395,8.580819,0.02687807,0.0012217305,0.007330383,12.0,4.9811997,0.48619998,8.4333,-0.0044,-0.0039999997,0.0061999997,-0.23233,-0.126656,-0.887547,2017-04-08 21:41:34,56.06921635070505
5.0661306,0.46926352,8.561666,0.02687807,0.019547688,0.0061086523,12.0,4.9765997,0.4861,8.436,-0.0011999999,-0.0218,0.014599999,-0.232092,-0.12655,-0.887612,2017-04-08 21:41:35,66.3577397952899
5.056554,0.48841715,8.561666,0.02687807,0.0036651916,0.007330383,12.0,4.9743,0.48079997,8.4376,-0.0116,0.009099999,-0.0098,-0.231937,-0.126457,-0.887476,2017-04-08 21:41:36,66.91465738307741
5.056554,0.49799395,8.590396,0.02565634,-0.002443461,0.008552114,12.0,4.9818997,0.4716,8.4337,-0.0050999997,0.019299999,-0.0015,-0.231732,-0.127803,-0.884661,2017-04-08 21:41:38,53.450151589132304
5.046977,0.50757074,8.599973,0.028099801,0.010995574,0.008552114,12.0,4.9765997,0.4795,8.436399,-0.023,0.0023,-0.0032,-0.230468,-0.129403,-0.88235897,2017-04-08 21:41:39,58.73027444960591
5.046977,0.49799395,8.571242,0.028099801,-0.004886922,0.007330383,12.0,4.9628997,0.48659998,8.444,0.0018,-0.0052,-0.0198,-0.229581,-0.129421,-0.882578,2017-04-08 21:41:40,71.53783106415307
5.0374002,0.5267244,8.6095495,0.028099801,-0.007330383,0.013439035,12.0,4.9462,0.49139997,8.4536,0.0056999996,-0.0481,0.0121,-0.228656,-0.129235,-0.88283,2017-04-08 21:41:41,52.73430437248908
5.0278234,0.545878,8.619126,0.02321288,0.02687807,-0.002443461,12.0,4.9428997,0.4895,8.4556,-0.0313,0.0016,-0.048,-0.22852,-0.129073,-0.882868,2017-04-08 21:41:42,48.75356784664347
4.9895163,0.47884035,8.599973,0.029321533,0.02443461,0.007330383,12.0,4.9224997,0.4667,8.4688,-0.0105,-0.0142,0.0072,-0.227972,-0.127428,-0.883289,2017-04-08 21:41:43,55.104955544524046
4.999093,0.48841715,8.6095495,0.029321533,0.004886922,0.008552114,12.0,4.895,0.4569,8.4853,0.0028,-0.0137,-9.0E-4,-0.229445,-0.121345,-0.891962,2017-04-08 21:41:44,69.25245485008139
5.0278234,0.47884035,8.599973,0.029321533,0.008552114,0.007330383,12.0,4.9379,0.4504,8.4607,2.9999999E-4,0.0029,-0.0019999999,-0.230997,-0.123538,-0.888847,2017-04-08 21:41:45,68.96134474164427
4.999093,0.46926352,8.599973,0.028099801,0.015882496,0.004886922,12.0,4.933,0.44529998,8.463799,-0.018099999,0.008599999,-0.0047999998,-0.230354,-0.124096,-0.887422,2017-04-08 21:41:46,59.847096609252944
4.9703627,0.49799395,8.619126,0.02687807,0.008552114,0.007330383,12.0,4.902,0.456,8.4812,-0.0072,0.0199,-0.0019999999,-0.227645,-0.125613,-0.884813,2017-04-08 21:41:47,56.83892023707813
4.9799395,0.45968673,8.647857,0.02687807,0.004886922,0.0061086523,12.0,4.8929,0.4632,8.4861,0.0112,-0.0095999995,0.0093,-0.226923,-0.125832,-0.884973,2017-04-08 21:41:48,65.28056249200819
4.9895163,0.47884035,8.628703,0.02687807,-0.002443461,0.007330383,12.0,4.8922997,0.46499997,8.4864,0.0202,-8.0E-4,0.013599999,-0.226854,-0.125898,-0.884987,2017-04-08 21:41:49,63.77956205775342
4.960786,0.48841715,8.619126,0.028099801,-0.0036651916,0.008552114,12.0,4.8862,0.4667,8.4897995,-0.0058,-0.013599999,-0.0019999999,-0.226505,-0.125837,-0.88508,2017-04-08 21:41:50,55.388914477794614
4.9320555,0.49799395,8.628703,0.02687807,-0.0012217305,0.0061086523,12.0,4.8677,0.4694,8.500299,-0.009099999,-0.0058,-0.0098,-0.225495,-0.125526,-0.885354,2017-04-08 21:41:51,52.80975400603657
4.9416323,0.49799395,8.628703,0.02687807,0.002443461,0.007330383,12.0,4.8647,0.46829998,8.502,-0.012399999,0.0053,0.023899999,-0.22536,-0.125411,-0.885389,2017-04-08 21:41:52,53.86125098879249
4.9320555,0.46926352,8.647857,0.029321533,0.004886922,0.008552114,12.0,4.8666,0.46249998,8.5013,-0.011399999,-0.0276,0.0199,-0.225566,-0.125189,-0.885337,2017-04-08 21:41:53,59.180254238444746
4.9224787,0.48841715,8.647857,0.028099801,0.0061086523,0.0061086523,12.0,4.8726997,0.46409997,8.4977,0.021499999,0.0,0.0137,-0.22585,-0.125409,-0.885254,2017-04-08 21:41:54,66.21344412577758
4.9799395,0.48841715,8.628703,0.02443461,-0.0036651916,0.007330383,12.0,4.8697,0.4667,8.4993,0.023699999,0.0061999997,-0.016099999,-0.225647,-0.125457,-0.885302,2017-04-08 21:41:55,59.44017252746516
4.9703627,0.49799395,8.63828,0.029321533,0.008552114,0.0061086523,12.0,4.8803997,0.4619,8.4934,0.0026,-0.018299999,0.0087,-0.22629,-0.125492,-0.885126,2017-04-08 21:41:56,55.81751966656496
4.951209,0.49799395,8.63828,0.029321533,0.002443461,0.007330383,12.0,4.8926997,0.4633,8.486199,-0.0345,-0.0095,0.0436,-0.226938,-0.125775,-0.885075,2017-04-08 21:41:57,58.044675120637436
4.9416323,0.46926352,8.628703,0.02565634,-0.002443461,0.008552114,12.0,4.8735,0.4651,8.4972,-0.011,-0.0109,2.0E-4,-0.225501,-0.126137,-0.884101,2017-04-08 21:41:58,57.87993692813944
4.951209,0.47884035,8.6574335,0.028099801,0.0012217305,0.007330383,12.0,4.8656,0.464,8.501699,0.0021,0.045599997,-0.0425,-0.224972,-0.126372,-0.883537,2017-04-08 21:41:59,55.394407159227974
4.960786,0.49799395,8.6574335,0.02687807,0.012217305,0.0061086523,12.0,4.869,0.45679998,8.500199,-0.029,-0.0144,-0.0224,-0.22554,-0.125458,-0.884469,2017-04-08 21:42:00,56.68495796689119
4.8937483,0.46926352,8.686164,0.021991149,0.009773844,0.009773844,12.0,4.8164,0.47669998,8.528999,0.0095999995,-0.0037999998,-0.0163,-0.222492,-0.125043,-0.88545,2017-04-08 21:42:01,48.63203970607425
4.9320555,0.47884035,8.6574335,0.028099801,0.002443461,0.0061086523,12.0,4.8659997,0.4243,8.5036,-0.027199998,0.043199997,0.0195,-0.226516,-0.12314,-0.885484,2017-04-08 21:42:02,49.0794702296268
4.9224787,0.47884035,8.63828,0.02687807,0.002443461,0.0061086523,12.0,4.83,0.45909998,8.5223,0.0039999997,0.0334,0.046499997,-0.223972,-0.123769,-0.886558,2017-04-08 21:42:03,60.517345750171245
4.8937483,0.47884035,8.66701,0.02687807,0.009773844,0.007330383,12.0,4.8141,0.46879998,8.5308,0.022,0.0042,-0.0275,-0.2254,-0.119347,-0.894363,2017-04-08 21:42:04,52.99984195945228
4.912902,0.46926352,8.66701,0.028099801,0.002443461,0.008552114,12.0,4.8254,0.47169998,8.5241995,-0.0089,-0.018299999,0.0479,-0.225939,-0.11973,-0.894217,2017-04-08 21:42:05,59.674127109952586
4.903325,0.47884035,8.695741,0.02687807,0.012217305,0.007330383,12.0,4.8241997,0.4655,8.5252,9.999999E-4,0.026999999,-0.0429,-0.22599,-0.119421,-0.894209,2017-04-08 21:42:06,72.81617634334383
4.8937483,0.48841715,8.66701,0.029321533,0.013439035,0.0061086523,12.0,4.8185997,0.4527,8.529099,-0.0127,0.030199999,-0.0174,-0.226198,-0.118195,-0.895079,2017-04-08 21:42:07,36.922912160738456
4.912902,0.45968673,8.676587,0.02443461,-0.008552114,0.0061086523,12.0,4.8178997,0.45949998,8.529099,-0.0165,0.0327,-0.0252,-0.223187,-0.123782,-0.886258,2017-04-08 21:42:08,69.27521165098916
4.912902,0.47884035,8.676587,0.028099801,-0.002443461,0.007330383,12.0,4.8268,0.4621,8.524,0.0112,0.012,0.0101,-0.22369,-0.123933,-0.886442,2017-04-08 21:42:09,58.85903221993965
4.8745947,0.47884035,8.714894,0.028099801,0.0036651916,0.008552114,12.0,4.8196,0.46429998,8.5279,0.0067,-0.0206,0.014699999,-0.223276,-0.123864,-0.88654697,2017-04-08 21:42:10,64.79437291426424
4.8745947,0.51714754,8.676587,0.02565634,-0.0061086523,0.008552114,12.0,4.7927,0.46649998,8.5429,-0.0142,-0.022799999,8.0E-4,-0.221846,-0.123346,-0.886932,2017-04-08 21:42:11,38.23922719572988
5.21936,0.49799395,8.465898,0.02321288,0.07696902,0.019547688,12.0,5.2293997,0.4425,8.2841,-0.0095999995,0.0315,-0.117599994,-0.245353,-0.132009,-0.881119,2017-04-08 21:42:12,68.52360803756011
5.2289367,0.4213795,8.465898,0.02321288,0.002443461,0.007330383,12.0,5.1421,0.4179,8.3398,0.049399998,-0.0317,-0.0074,-0.24346,-0.124545,-0.889006,2017-04-08 21:42:13,40.00404429324887
5.2002063,0.40222588,8.485051,0.035430185,0.018325957,0.007330383,14.0,5.1556997,0.382,8.3331995,0.0021,0.0094,-0.0391,-0.245848,-0.122469,-0.889592,2017-04-08 21:42:14,39.34838031839653
5.142745,0.4213795,8.523358,0.028099801,0.0012217305,0.009773844,12.0,5.0583997,0.3902,8.3921995,-0.0414,0.013599999,-0.061499998,-0.238499,-0.123483,-0.887004,2017-04-08 21:42:15,61.07936884092336
5.142745,0.40222588,8.542512,0.030543262,-0.0012217305,0.009773844,12.0,5.0460997,0.4021,8.399099,0.014699999,-0.0063,0.0032,-0.237275,-0.124357,-0.886187,2017-04-08 21:42:16,43.36427252276608
5.094861,0.4309563,8.542512,0.028099801,0.007330383,0.0061086523,12.0,5.036,0.4039,8.405,-0.0266,0.011299999,0.0026,-0.236335,-0.124924,-0.885191,2017-04-08 21:42:17,69.46577428122507
5.142745,0.4213795,8.504205,0.036651913,-0.010995574,0.02076942,12.0,5.0285997,0.41439998,8.408999,0.0208,0.0105,0.0095,-0.235347,-0.125978,-0.884129,2017-04-08 21:42:18,50.701070710014974
5.133168,0.45010993,8.523358,0.028099801,-0.012217305,0.008552114,12.0,5.0464997,0.41959998,8.398,0.0201,-0.0055,-0.0285,-0.235881,-0.127198,-0.882964,2017-04-08 21:42:19,48.78848853276632
5.1523223,0.4309563,8.523358,0.02565634,0.0036651916,0.004886922,12.0,5.0604997,0.4191,8.3896,0.0011999999,-0.0046,-0.0309,-0.236625,-0.127504,-0.88275397,2017-04-08 21:42:20,67.64830374256906
5.142745,0.4309563,8.532935,0.028099801,0.004886922,0.007330383,12.0,5.0477,0.42339998,8.396999,-0.0042,8.0E-4,-0.0072999997,-0.235874,-0.127399,-0.882961,2017-04-08 21:42:21,62.81960509400059
5.133168,0.4309563,8.523358,0.029321533,0.0012217305,0.010995574,12.0,5.0406,0.4222,8.4014,-0.0093,9.999999E-4,-0.0028,-0.235522,-0.127182,-0.883054,2017-04-08 21:42:22,51.80283991672241
5.1140146,0.4309563,8.552089,0.02687807,-0.008552114,0.008552114,12.0,5.0309997,0.4294,8.406799,-0.0177,0.0044,0.0201,-0.234881,-0.127286,-0.883226,2017-04-08 21:42:23,44.136734626149746
5.1235914,0.4309563,8.552089,0.028099801,0.002443461,0.007330383,12.0,5.0238,0.42639998,8.4112,0.003,0.0078,-0.0075,-0.234564,-0.126983,-0.883317,2017-04-08 21:42:24,47.32801289309344
5.1140146,0.45968673,8.561666,0.02687807,-0.0012217305,0.007330383,12.0,5.0207,0.4292,8.4129,0.0083,-0.015199999,0.0074,-0.23435,-0.127038,-0.88337,2017-04-08 21:42:25,60.182052938914545
5.1140146,0.47884035,8.542512,0.029321533,-0.010995574,0.009773844,9.0,5.015,0.42569998,8.4165,-0.0188,-0.0307,-0.0053,-0.234118,-0.126747,-0.883439,2017-04-08 21:42:26,55.89402662855578
5.104438,0.45968673,8.580819,0.028099801,-0.002443461,0.004886922,9.0,5.014,0.4251,8.4171,-0.0224,-0.0117,-0.030199999,-0.234076,-0.126699,-0.883449,2017-04-08 21:42:27,61.383696085790305
5.104438,0.4405331,8.552089,0.030543262,-0.0012217305,0.008552114,12.0,5.0134,0.4274,8.417399,-0.0134,-0.0026999998,0.0,-0.233998,-0.126791,-0.883465,2017-04-08 21:42:28,50.13444846856032
5.085284,0.4213795,8.571242,0.028099801,0.012217305,0.0061086523,12.0,5.0076,0.42949998,8.4207,0.0123,-0.0245,-0.0126,-0.233656,-0.126754,-0.883555,2017-04-08 21:42:29,55.828296889309485
5.0757074,0.4309563,8.580819,0.028099801,0.002443461,0.007330383,9.0,4.9951997,0.42909998,8.4281,-0.03,0.0047999998,-0.020499999,-0.233013,-0.126444,-0.883735,2017-04-08 21:42:30,51.09013510901248
5.085284,0.4213795,8.580819,0.029321533,0.004886922,0.010995574,9.0,4.9842997,0.4385,8.4341,-0.0061,-0.0052,0.0206,-0.23226699,-0.126613,-0.883934,2017-04-08 21:42:31,49.77547204003191
5.056554,0.46926352,8.561666,0.028099801,-0.004886922,0.004886922,12.0,4.9797,0.43039998,8.4372,-0.012999999,0.0232,-0.0178,-0.232182,-0.126142,-0.883965,2017-04-08 21:42:32,65.95090182364405
5.046977,0.45010993,8.590396,0.028099801,0.0012217305,0.008552114,9.0,4.9762,0.42999998,8.4393,0.0121,0.0148,0.0099,-0.232008,-0.126043,-0.884012,2017-04-08 21:42:33,53.71426673027347
5.0374002,0.45010993,8.590396,0.028099801,0.015882496,0.010995574,9.0,4.992,0.4006,8.431399,-0.0307,0.0539,0.0154,-0.235503,-0.121059,-0.890144,2017-04-08 21:42:34,48.16242819467274
5.0374002,0.45968673,8.599973,0.028099801,0.012217305,0.007330383,12.0,4.9618998,0.4252,8.448,-0.0099,0.0092,-0.0014,-0.232934,-0.122527,-0.889055,2017-04-08 21:42:35,48.34170088085188
5.0278234,0.4213795,8.6095495,0.02565634,0.018325957,0.004886922,12.0,4.9593,0.4333,8.4491,-0.0175,0.0084999995,-0.0218,-0.232355,-0.123657,-0.887908,2017-04-08 21:42:36,53.58973969112953
5.0374002,0.47884035,8.63828,0.028099801,0.014660766,0.0036651916,9.0,4.9586,0.4341,8.4494,-0.022,0.029099999,-0.0418,-0.232209,-0.123599,-0.887947,2017-04-08 21:42:37,48.52610023611038
5.1140146,0.40222588,8.552089,0.015882496,-0.012217305,0.010995574,9.0,4.9898,0.4201,8.4317,0.035499997,-0.0251,-0.0221,-0.234101,-0.123673,-0.887434,2017-04-08 21:42:38,54.9794174958512
5.0278234,0.4213795,8.590396,0.032986723,-0.002443461,0.014660766,12.0,4.8926997,0.3997,8.4895,-0.022499999,-0.0338,0.026999999,-0.228831,-0.121618,-0.88695,2017-04-08 21:42:39,53.46292358100334
4.999093,0.45010993,8.619126,0.028099801,0.019547688,0.007330383,12.0,4.9049997,0.40899998,8.4819,-0.015,-0.0128999995,0.033,-0.22833,-0.124125,-0.883776,2017-04-08 21:42:40,55.259048680445716
4.9895163,0.4213795,8.628703,0.028099801,-0.0012217305,0.007330383,12.0,4.9054,0.40649998,8.4818,-0.0030999999,-0.0011999999,-0.009,-0.22839,-0.124032,-0.883741,2017-04-08 21:42:41,66.21859331526775
4.9799395,0.4405331,8.619126,0.028099801,-0.0012217305,0.007330383,12.0,4.9009,0.4104,8.4842,-0.0019999999,0.0149,-4.9999997E-4,-0.228083,-0.124102,-0.883819,2017-04-08 21:42:42,54.362160556145724
4.9895163,0.4309563,8.63828,0.028099801,0.0012217305,0.007330383,12.0,4.8966,0.4123,8.4866,0.0109,-0.0064999997,-0.015199999,-0.227816,-0.124077,-0.883888,2017-04-08 21:42:43,53.118061365490746
4.9895163,0.4213795,8.628703,0.02687807,0.0036651916,0.007330383,12.0,4.9005,0.4132,8.4843,9.0E-4,0.0023999999,0.0137,-0.228003,-0.124226,-0.883832,2017-04-08 21:42:44,47.96441269673352
4.951209,0.4213795,8.63828,0.028099801,0.0,0.007330383,12.0,4.897,0.41439998,8.486199,-0.0053,0.011,0.021499999,-0.228374,-0.123144,-0.885675,2017-04-08 21:42:45,50.62283123792122
4.9416323,0.4213795,8.647857,0.02687807,0.0012217305,0.0061086523,12.0,4.8796997,0.40359998,8.496699,-0.0144,-0.0087,-0.0184,-0.226433,-0.124547,-0.881933,2017-04-08 21:42:46,42.53006664792202
4.960786,0.41180268,8.63828,0.02687807,0.007330383,0.008552114,12.0,4.8624997,0.4139,8.5061,0.0061999997,-0.0075,0.0705,-0.225179,-0.124901,-0.881705,2017-04-08 21:42:47,44.34640681764431
4.960786,0.4309563,8.647857,0.02687807,0.004886922,0.0061086523,12.0,4.8698,0.41239998,8.502,0.0064999997,0.012499999,0.0049,-0.225583,-0.125009,-0.881594,2017-04-08 21:42:48,57.75291629970502
4.951209,0.45010993,8.6574335,0.029321533,0.004886922,0.007330383,12.0,4.8631,0.4154,8.5057,0.0030999999,0.0201,0.0177,-0.225182,-0.124988,-0.8817,2017-04-08 21:42:49,41.79317394645566
4.951209,0.4213795,8.6574335,0.02687807,-0.004886922,0.0061086523,12.0,4.8575,0.41579998,8.5089,0.0075999997,0.0187,0.0049,-0.22488,-0.124873,-0.881778,2017-04-08 21:42:50,36.30920245437775
4.951209,0.4213795,8.628703,0.028099801,0.0012217305,0.0061086523,12.0,4.8663,0.41439998,8.5039,0.009,-1.0E-4,-0.015899999,-0.225361,-0.12502,-0.881644,2017-04-08 21:42:51,37.508823595943085
4.9224787,0.4405331,8.6574335,0.029321533,0.007330383,0.0061086523,12.0,4.845,0.4157,8.516,-0.007999999,2.0E-4,0.0167,-0.224238,-0.124572,-0.881951,2017-04-08 21:42:53,59.937907577425364
4.903325,0.45010993,8.676587,0.02687807,0.002443461,0.007330383,12.0,4.8346,0.4183,8.5218,0.008599999,-0.0026,0.0143,-0.223655,-0.124445,-0.882104,2017-04-08 21:42:54,50.86973349793147
4.9224787,0.4405331,8.695741,0.02687807,0.007330383,0.007330383,12.0,4.8317,0.41759998,8.523399,-0.0168,-0.0134,-0.0299,-0.223518,-0.124349,-0.882139,2017-04-08 21:42:55,49.887321125141185
4.903325,0.45968673,8.6574335,0.02565634,0.0,0.004886922,12.0,4.8276,0.4217,8.5255995,0.0056999996,0.0026999998,-0.0169,-0.223227,-0.124436,-0.882212,2017-04-08 21:42:56,47.40665734448071
4.9320555,0.4405331,8.676587,0.029321533,0.009773844,0.007330383,12.0,4.8329,0.4199,8.522699,0.0018999999,-0.0246,0.0084,-0.223531,-0.124481,-0.882128,2017-04-08 21:42:57,64.4045340527523
4.9320555,0.4309563,8.676587,0.02687807,0.0036651916,0.008552114,12.0,4.8306,0.4235,8.5238,0.0106,0.011399999,-9.999999E-4,-0.223343,-0.124588996,-0.882173,2017-04-08 21:42:58,64.30880076561407
4.903325,0.4309563,8.695741,0.02687807,0.009773844,0.007330383,12.0,4.8294,0.42479998,8.5244,-0.0063,-0.010199999,-0.0066,-0.223254,-0.124626,-0.882192,2017-04-08 21:42:59,70.26559267961039
4.912902,0.45010993,8.676587,0.028099801,-0.008552114,0.008552114,12.0,4.8136997,0.4247,8.533299,0.0077,-0.0103,-0.0189,-0.22245,-0.12425,-0.882409,2017-04-08 21:43:00,64.14052258138354
4.8841715,0.4309563,8.676587,0.02687807,0.008552114,0.0061086523,12.0,4.817,0.4222,8.5316,0.0053,0.012399999,-0.012399999,-0.222743,-0.124228,-0.882332,2017-04-08 21:43:01,52.08376639678701
4.8841715,0.45010993,8.676587,0.02687807,0.021991149,0.0061086523,12.0,4.8125997,0.4287,8.5337,-0.0053,-0.0138,0.0095999995,-0.222312,-0.124406,-0.882437,2017-04-08 21:43:02,40.51736978903931
4.8937483,0.45968673,8.714894,0.028099801,0.010995574,0.0061086523,12.0,4.81,0.427,8.5353,-0.0053999997,-0.0025,0.0030999999,-0.222211,-0.124266,-0.882464,2017-04-08 21:43:03,35.73821307983772
4.8841715,0.4405331,8.695741,0.02687807,-0.0061086523,0.007330383,12.0,4.8052,0.42299998,8.538199,-0.026099999,-0.02,0.0018999999,-0.222067,-0.124066,-0.882503,2017-04-08 21:43:04,34.91921712586151
5.2768207,0.8619126,8.504205,0.032986723,-0.08552113,0.009773844,9.0,5.0424,0.42409998,8.4002,-0.0212,0.029299999,-0.0937,-0.236234,-0.126089,-0.885017,2017-04-08 21:43:05,37.07903574901531
5.161899,0.4309563,8.523358,0.03176499,0.02076942,0.014660766,9.0,5.0733,0.39029998,8.3832,-0.0232,0.0047999998,0.0117999995,-0.238708,-0.124859,-0.885072,2017-04-08 21:43:06,66.14853942985292
5.085284,0.41180268,8.561666,0.029321533,0.0061086523,0.007330383,9.0,4.9972,0.4041,8.4282,0.0296,9.999999E-4,0.0234,-0.233588,-0.125368,-0.88357997,2017-04-08 21:43:07,43.44082040290569
5.056554,0.4405331,8.580819,0.02687807,-0.0036651916,0.007330383,9.0,4.996,0.3626,8.430699,-0.018199999,0.043199997,0.0208,-0.234177,-0.123735,-0.882962,2017-04-08 21:43:08,67.79140129638998
5.056554,0.4213795,8.599973,0.02687807,0.004886922,0.0061086523,9.0,4.9641,0.40879998,8.4474,0.008599999,-0.0033,0.0111,-0.231702,-0.124946,-0.883853,2017-04-08 21:43:09,61.01042568832422
5.0278234,0.41180268,8.580819,0.029321533,0.002443461,0.007330383,9.0,4.9537,0.41369998,8.4534,0.0072,0.0016,-0.0042999997,-0.231009,-0.125242,-0.883521,2017-04-08 21:43:10,36.074512253553706
5.046977,0.4309563,8.590396,0.028099801,0.002443461,0.008552114,9.0,4.9611,0.41459998,8.448999,8.0E-4,-2.9999999E-4,-0.0188,-0.231273,-0.125428,-0.883439,2017-04-08 21:43:11,59.68010873538844
5.0278234,0.4405331,8.590396,0.02687807,-0.002443461,0.0061086523,9.0,4.9584,0.41529998,8.4505,0.0082,0.0188,-0.0026,-0.231121,-0.125399,-0.883479,2017-04-08 21:43:12,34.378489547727604
4.9895163,0.39264908,8.714894,0.014660766,-0.002443461,0.010995574,9.0,4.9467,0.40399998,8.4579,-0.0155,-0.028099999,-0.0041,-0.230732,-0.124609,-0.883605,2017-04-08 21:43:13,62.495580173246125
5.1810527,0.4309563,8.504205,0.029321533,-0.0012217305,0.002443461,9.0,5.1356,0.3863,8.3454,-0.0407,0.029099999,0.0219,-0.244601,-0.121122,-0.891714,2017-04-08 21:43:14,46.5267230566418
5.861006,0.30645782,7.9966335,-0.12095132,-0.17348573,-0.007330383,12.0,5.6689,0.32889998,7.9953,0.0449,-7.0E-4,0.053999998,-0.27547,-0.12832,-0.885457,2017-04-08 21:43:15,44.260917084139344
5.4300494,0.34476504,8.350976,0.034208454,0.012217305,0.010995574,9.0,5.3784,0.2714,8.1956,-0.062,0.0968,0.0074,-0.257841,-0.125125,-0.881908,2017-04-08 21:43:16,58.672694554533706
5.2480903,0.40222588,8.456321,0.02687807,-0.0012217305,0.009773844,9.0,5.4304,0.1733,8.163899,-0.2717,0.21609999,0.1573,-0.261888,-0.123159,-0.878756,2017-04-08 21:43:17,51.97548457005531
5.2480903,0.40222588,8.446744,0.02443461,-0.004886922,0.007330383,9.0,5.2061,0.35979998,8.3028,-0.0378,0.026899999,0.0354,-0.245535,-0.128006,-0.880663,2017-04-08 21:43:18,38.73475973344679
5.2385135,0.39264908,8.465898,0.029321533,0.004886922,0.008552114,9.0,5.1703,0.3838,8.323999,-0.0069,-0.0067999996,0.0209,-0.242579,-0.129403,-0.879484,2017-04-08 21:43:19,49.76464957806342
5.2385135,0.37349546,8.485051,0.02443461,0.007330383,0.008552114,9.0,5.1916,0.3904,8.3105,-0.0274,0.025799999,0.0266,-0.242873,-0.131505,-0.877101,2017-04-08 21:43:20,42.87564463482795
5.2385135,0.40222588,8.456321,0.029321533,0.010995574,0.009773844,9.0,5.2314,0.4121,8.2844,-0.0906,-0.011399999,0.0713,-0.246036,-0.132298,-0.879099,2017-04-08 21:43:21,62.0167043953622
5.21936,0.38307226,8.475474,0.028099801,-0.007330383,0.0061086523,9.0,4.8719997,0.1149,8.51,0.2738,0.2658,-0.15169999,-0.232336,-0.110131,-0.882759,2017-04-08 21:43:22,38.79268554196558
5.209783,0.39264908,8.475474,0.028099801,0.0036651916,0.007330383,9.0,4.7763,0.0376,8.5647,0.37759998,0.36389998,-0.23439999,-0.229851,-0.102398,-0.88714,2017-04-08 21:43:23,54.16493696677168
5.2002063,0.4405331,8.494628,0.02687807,-0.009773844,0.0061086523,9.0,5.0601,0.3277,8.3939,0.1004,0.098799996,-0.0962,-0.24048,-0.11916,-0.888995,2017-04-08 21:43:24,35.65490677081547
5.209783,0.4213795,8.504205,0.02687807,0.0061086523,0.007330383,9.0,5.1226997,0.3724,8.354,-0.0016999999,0.013499999,-0.0022,-0.24185,-0.124791,-0.884873,2017-04-08 21:43:25,39.704382164850486
5.1906295,0.4309563,8.456321,0.028099801,0.009773844,0.0061086523,9.0,5.1177998,0.3931,8.356,-0.0144,-0.0072999997,-0.0109,-0.2412,-0.125631,-0.885015,2017-04-08 21:43:26,40.223579077544265
5.171476,0.39264908,8.542512,0.02687807,-0.0061086523,0.007330383,9.0,5.1148,0.3963,8.357699,-0.0201,0.0188,-0.0404,-0.240976,-0.12571199,-0.885072,2017-04-08 21:43:27,61.174231664942596
5.1906295,0.37349546,8.494628,0.028099801,0.004886922,0.007330383,9.0,5.1088,0.3951,8.3614,-0.015,0.0298,-0.0262,-0.240684,-0.125516,-0.885156,2017-04-08 21:43:28,37.84559941531678
5.1523223,0.38307226,8.532935,0.029321533,0.0,0.007330383,9.0,5.0943,0.39519998,8.3702,-0.0053,-8.0E-4,-0.049599998,-0.239921,-0.125192,-0.885375,2017-04-08 21:43:29,42.35737758383033
5.171476,0.4213795,8.475474,0.028099801,0.008552114,0.007330383,9.0,5.1502,0.39609998,8.335899,-0.067,-0.019399999,0.0645,-0.242905,-0.126418,-0.884691,2017-04-08 21:43:30,39.93202853932718
5.161899,0.40222588,8.523358,0.028099801,0.002443461,0.008552114,9.0,5.1042,0.35619998,8.366,-0.020299999,0.0308,0.0144,-0.23898199,-0.127825,-0.878333,2017-04-08 21:43:31,58.89421578089081
5.0661306,0.47884035,8.590396,0.010995574,-0.04642576,-0.007330383,9.0,4.9975,0.37919998,8.4292,0.0389,-0.0023,-5.9999997E-4,-0.233435,-0.125451,-0.881467,2017-04-08 21:43:32,40.10216274083797
4.817134,0.37349546,8.772355,0.017104227,0.04153884,0.013439035,4.0,4.7275,0.35099998,8.5847,0.0088,-0.0325,0.1161,-0.219799,-0.118273,-0.884367,2017-04-08 21:43:33,61.23340479615044
4.6255975,0.2681506,8.6574335,0.035430185,0.004886922,0.013439035,7.0,4.526,0.29749998,8.6946,0.036599997,0.011899999,0.1223,-0.210483,-0.11133,-0.88648,2017-04-08 21:43:34,63.089059335731974
4.7405195,0.32561144,8.791509,0.037873644,-0.04153884,0.013439035,7.0,4.6078,0.32259998,8.6505995,0.012499999,0.035499997,0.059,-0.213393,-0.11577,-0.882907,2017-04-08 21:43:35,43.88449239552333
4.7022123,0.35434186,8.772355,0.030543262,0.030543262,0.004886922,7.0,4.5894,0.3127,8.6608,0.0116,0.0455,0.048699997,-0.212547,-0.115088,-0.882726,2017-04-08 21:43:36,66.65664637803249
4.5872903,0.36391866,8.916007,0.021991149,-0.017104227,0.008552114,7.0,4.5109997,0.30609998,8.7021,-0.0067999996,0.0032,0.046,-0.207864,-0.114484,-0.88069,2017-04-08 21:43:37,58.84922718740143
4.6255975,0.35434186,8.829816,0.03176499,0.009773844,0.009773844,2.0,4.5281997,0.3545,8.691299,0.0246,0.003,0.0569,-0.207777,-0.117017,-0.880803,2017-04-08 21:43:38,41.59205255705156
4.6830587,0.37349546,8.820239,0.03176499,-0.010995574,0.010995574,7.0,4.5868998,0.3681,8.6599,0.023899999,0.0285,0.0201,-0.209616,-0.120521,-0.877197,2017-04-08 21:43:39,51.09635290559617
4.7022123,0.39264908,8.829816,0.02687807,0.007330383,0.004886922,2.0,4.5673,0.3997,8.668799,0.0262,-0.0276,-0.0186,-0.208942,-0.119489,-0.881543,2017-04-08 21:43:40,64.85695036258141
4.6830587,0.38307226,8.848969,0.02687807,0.008552114,0.0061086523,2.0,4.5678,0.3938,8.668799,0.0235,-0.0187,0.0127,-0.208938,-0.119809,-0.880317,2017-04-08 21:43:41,48.47437190882409
4.6351743,0.39264908,8.829816,0.028099801,0.0036651916,0.0061086523,2.0,4.568,0.3874,8.6691,-0.006,0.0072,-0.0069999998,-0.20885,-0.119916,-0.879523,2017-04-08 21:43:42,62.55296233320371
4.6351743,0.39264908,8.858546,0.02687807,0.002443461,0.008552114,4.0,4.5144997,0.4114,8.6959,0.0053,-0.0166,0.025999999,-0.207528,-0.11645,-0.886676,2017-04-08 21:43:43,58.40666432413653
4.6830587,0.37349546,8.868123,0.021991149,-0.043982297,0.0012217305,9.0,4.8209,-0.0894,8.5393,-0.22119999,0.4635,0.1874,-0.233324,-0.100861,-0.880487,2017-04-08 21:43:44,33.53903013479025
5.1523223,0.35434186,8.475474,0.029321533,0.02076942,0.012217305,15.0,4.5744,1.7292,8.500199,0.5685,-1.4433999,-0.1453,-0.16455,-0.198824,-0.839364,2017-04-08 21:43:45,64.84904322157173
5.085284,0.36391866,8.599973,0.037873644,0.019547688,0.010995574,15.0,4.901,0.55579996,8.4759,0.0699,-0.19209999,-0.0324,-0.219078,-0.140903,-0.865706,2017-04-08 21:43:46,50.449720839566055
4.9895163,0.38307226,8.695741,0.02565634,0.0,0.0036651916,9.0,4.8742,0.43989998,8.498099,0.0497,-0.0391,-0.030399999,-0.225302,-0.127288,-0.880564,2017-04-08 21:43:47,58.48653243151146
4.9895163,0.39264908,8.63828,0.030543262,0.013439035,0.0061086523,9.0,4.9318,0.3918,8.4671,-0.0298,-0.0169,-0.0336,-0.229308,-0.125387,-0.880834,2017-04-08 21:43:48,43.64033066400988
5.0661306,0.39264908,8.599973,0.028099801,0.0,0.007330383,9.0,4.9786997,0.3698,8.4407,-0.0046,0.0265,0.0106,-0.232135,-0.12551899,-0.880116,2017-04-08 21:43:49,57.43393705449178
5.0374002,0.41180268,8.580819,0.02687807,0.0036651916,0.0061086523,9.0,4.9992,0.34019998,8.4298,-0.0314,0.0659,0.021499999,-0.234222,-0.12385,-0.881067,2017-04-08 21:43:50,37.97911664686263
5.0374002,0.4309563,8.590396,0.029321533,-0.007330383,0.007330383,9.0,4.9384,0.3962,8.4630995,0.0033999998,0.018299999,-0.0345,-0.231557,-0.121989,-0.887137,2017-04-08 21:43:51,60.631899843263994
5.00867,0.4213795,8.628703,0.029321533,0.0,0.007330383,9.0,4.9318,0.3931,8.4671,-0.019299999,-0.0178,2.0E-4,-0.230912,-0.122367,-0.886114,2017-04-08 21:43:52,61.34259391597121
