ACC_X,ACC_Y,ACC_Z,GYRO_X,GYRO_Y,GYRO_Z,LIGH_1,GRAV_X,GRAV_Y,GRAV_Z,LINACC_X,LINACC_Y,LINACC_Z,ROTVEC_X,ROTVEC_Y,ROTVEC_Z,TIME,VOICE
0.0,0.0,0.0,0.0,0.0,0.0,216.0,0.0,0.0,0.0,0.0,0.0,0.0,-0.0024184918,0.0025398384,-0.061414555,2017-08-30 17:12:50,52.13201045956767
-0.04547119,-0.055603027,9.793823,6.1035156E-5,2.1362305E-4,0.0022888184,216.0,-0.050092697,-0.052598745,9.806381,0.0016309917,0.0044071265,0.009184837,-0.0025277864,0.0027065626,-0.05850615,2017-08-30 17:12:51,52.49353702023909
-0.03742981,-0.044952393,9.801346,6.1035156E-5,2.1362305E-4,0.0012817383,216.0,-0.044943694,-0.04955846,9.806422,0.0069416016,0.004029859,9.6035004E-4,-0.0024122929,0.0024117453,-0.048660584,2017-08-30 17:12:52,50.17539329827103
-0.040100098,-0.052612305,9.776398,-3.6621094E-4,-1.6784668E-4,-0.0010681152,216.0,-0.042735618,-0.05128963,9.806423,0.0040096045,-4.0553138E-4,-0.0073108673,-0.0025154513,0.002293194,-0.04452347,2017-08-30 17:12:53,57.91738029729137
-0.037094116,-0.05404663,9.771088,2.593994E-4,-1.6784668E-4,-7.4768066E-4,216.0,-0.040846605,-0.048677295,9.806444,0.0018054508,-0.0011341311,-0.0010700226,-0.0023868298,0.0021908788,-0.044454087,2017-08-30 17:12:54,52.53351395058381
-0.043136597,-0.04510498,9.763306,2.593994E-4,-1.6784668E-4,-4.7302246E-4,216.0,-0.038501058,-0.04542425,9.806469,0.012820493,0.007826902,0.0024471283,-0.0022266267,0.0020638404,-0.044367973,2017-08-30 17:12:55,55.01002345817659
-0.041641235,-0.04611206,9.754944,2.593994E-4,-1.6784668E-4,-0.0012969971,216.0,-0.03862861,-0.046927463,9.806461,0.0035639405,0.004288897,0.0030031204,-0.002302888,0.0020737585,-0.044376634,2017-08-30 17:12:56,65.94192072049889
-0.03642273,-0.045425415,9.766312,2.593994E-4,-1.6784668E-4,-4.5776367E-4,216.0,-0.03943636,-0.046666488,9.806459,0.002835106,0.0010298193,0.0042448044,-0.0023084679,0.002098962,-0.04439292,2017-08-30 17:12:57,60.24565388789398
-0.040924072,-0.03993225,9.762314,2.593994E-4,-1.6784668E-4,-4.5776367E-4,216.0,-0.03942939,-0.045293182,9.806466,5.4751337E-4,0.0075738914,-0.0015506744,-0.0022177878,0.0021108957,-0.044397783,2017-08-30 17:12:58,57.82750419271193
-0.048324585,-0.050369263,9.745239,2.593994E-4,-1.6784668E-4,-0.0015411377,216.0,-0.039661195,-0.044170626,9.806471,-0.0019058101,-0.0017224103,-0.0019054413,-0.0021600756,0.0021201703,-0.044401947,2017-08-30 17:12:59,60.52513519816927
-0.0382843,-0.044509888,9.769897,2.593994E-4,-1.6784668E-4,-4.5776367E-4,216.0,-0.03799039,-0.04365533,9.806479,-4.677996E-4,-0.0010543801,0.008304596,-0.0021757404,0.0020565721,-0.044361778,2017-08-30 17:13:00,57.51169066208809
-0.042556763,-0.045074463,9.77124,-1.8310547E-4,-1.6784668E-4,-4.5776367E-4,216.0,-0.03896415,-0.049386762,9.806448,-0.0019718967,-0.0019346774,0.0033140182,-0.0024273577,0.002096459,-0.044394948,2017-08-30 17:13:01,61.52219107252024
-0.04096985,-0.04824829,9.765869,2.593994E-4,-1.6784668E-4,-4.5776367E-4,216.0,-0.04036358,-0.048662733,9.806446,-0.005339183,-0.0063432306,-0.008261681,-0.002387217,0.002166205,-0.04443832,2017-08-30 17:13:02,61.286776006987516
-0.037597656,-0.04144287,9.765427,2.593994E-4,-1.6784668E-4,-6.5612793E-4,216.0,-0.038144533,-0.046706904,9.806465,0.0034336373,0.0025900789,0.0031957626,-0.0022927823,0.0020485644,-0.04436022,2017-08-30 17:13:03,50.62791678090037
-0.042404175,-0.044952393,9.757263,-4.272461E-4,-1.6784668E-4,-0.0011291504,216.0,-0.03658741,-0.043721862,9.806484,-0.0059777424,-0.001422897,-0.0060749054,-0.0021597757,0.0019750292,-0.044309173,2017-08-30 17:13:05,59.449879035158546
-0.03831482,-0.044265747,9.76358,2.593994E-4,6.866455E-4,-4.5776367E-4,216.0,-0.038704637,-0.04440969,9.806473,-5.374178E-4,1.2753531E-4,8.4114075E-4,-0.002185539,0.0020336732,-0.04434744,2017-08-30 17:13:06,59.5854683639104
-0.051696777,-0.055038452,9.747742,2.593994E-4,-1.6784668E-4,-4.5776367E-4,216.0,-0.042564776,-0.046777047,9.806446,-0.010565907,-0.009916794,-0.009712219,-0.0022161375,0.0022083467,-0.04446002,2017-08-30 17:13:07,59.341544775547696
-0.031707764,-0.041275024,9.763321,-9.460449E-4,-1.6784668E-4,-0.0013580322,216.0,-0.04057828,-0.04698717,9.806454,0.0086734705,0.0054839775,0.0044870377,-0.0022690096,0.0021125502,-0.0444004,2017-08-30 17:13:08,56.942764327772764
-0.03744507,-0.040649414,9.7552185,-9.460449E-4,-1.6784668E-4,-0.001663208,216.0,-0.037818797,-0.044870052,9.806475,0.003161531,0.0040590204,-2.1457672E-4,-0.0021999897,0.0020277824,-0.044344112,2017-08-30 17:13:09,56.44591583206173
-0.04815674,-0.049057007,9.750046,2.593994E-4,-1.6784668E-4,-0.0014038086,216.0,-0.041707035,-0.04862834,9.806441,-0.0059685,-6.534755E-4,-0.0025911331,-0.002382802,0.0022711777,-0.044505306,2017-08-30 17:13:10,57.60336124880139
-0.03703308,-0.051193237,9.763519,2.593994E-4,-1.6784668E-4,-0.001663208,216.0,-0.039590806,-0.046972234,9.8064575,0.0022737272,-0.004891537,0.00863266,-0.0022814197,0.0021180892,-0.04440432,2017-08-30 17:13:11,56.65498941397576
-0.043563843,-0.044921875,9.757126,2.593994E-4,-1.6784668E-4,-8.392334E-4,216.0,-0.03792904,-0.04595798,9.806469,-0.009295635,-0.0012778975,-0.007481575,-0.0022551413,0.0020358732,-0.044350963,2017-08-30 17:13:12,62.47991892676857
-0.032287598,-0.038482666,9.760788,2.593994E-4,-6.713867E-4,-0.001663208,216.0,-0.03395431,-0.041681767,9.806502,0.0025137365,0.0039765313,0.0015935898,-0.0020942993,0.0018774822,-0.04424485,2017-08-30 17:13:13,60.75185612978596
-0.053741455,-0.052597046,9.749649,2.593994E-4,-1.6784668E-4,-0.001663208,216.0,-0.03905231,-0.04515465,9.806468,0.0012153052,3.2616034E-4,0.006831169,-0.0022116117,0.0020913472,-0.044385098,2017-08-30 17:13:14,62.238808946063095
-0.03186035,-0.042297363,9.763046,-7.9345703E-4,-1.6784668E-4,-0.001663208,216.0,-0.03810088,-0.04452739,9.806475,0.009109266,0.0065606795,0.007528305,-0.0021818816,0.0020413937,-0.044352263,2017-08-30 17:13:15,58.027126775494295
-0.037399292,-0.037841797,9.7612915,2.593994E-4,-1.6784668E-4,-0.001663208,216.0,-0.040679075,-0.04596135,9.806458,-0.0035884678,0.001909975,0.005299568,-0.0022489,0.0021761584,-0.04444045,2017-08-30 17:13:16,60.93655339419256
-0.0443573,-0.047409058,9.753311,-1.5258789E-4,-1.6784668E-4,-0.001663208,216.0,-0.037402745,-0.0469167,9.806467,-0.0018158667,0.002039265,-0.0023651123,-0.0023051936,0.002011201,-0.04433671,2017-08-30 17:13:17,60.43011055130832
-0.04698181,-0.05378723,9.749954,2.593994E-4,-1.6784668E-4,-0.0014190674,216.0,-0.036936495,-0.044010848,9.806482,-3.4261122E-4,4.8598647E-4,0.0036640167,-0.0021582816,0.001980831,-0.044312835,2017-08-30 17:13:18,62.71874800539553
-0.030395508,-0.040802002,9.7612915,2.593994E-4,-1.6784668E-4,-4.5776367E-4,216.0,-0.038025714,-0.044916105,9.806474,0.004082892,0.0012189336,0.007883072,-0.0022018536,0.0020384411,-0.04435098,2017-08-30 17:13:19,59.8590724029216
-0.03527832,-0.04421997,9.765411,2.593994E-4,-1.6784668E-4,-0.001663208,216.0,-0.036012784,-0.04621094,9.806475,0.0016014352,-0.002439402,0.006878853,-0.0022724788,0.0019386987,-0.044289365,2017-08-30 17:13:21,54.9898414121149
-0.04576111,-0.045776367,9.757355,2.593994E-4,-1.6784668E-4,-0.001663208,216.0,-0.038719736,-0.04718327,9.80646,-0.0036555752,2.351813E-4,0.0016498566,-0.002315704,0.0020789874,-0.04438037,2017-08-30 17:13:22,61.376297819959845
-0.033950806,-0.054031372,9.773056,2.593994E-4,-1.6784668E-4,-4.7302246E-4,216.0,-0.03701624,-0.044672083,9.8064785,0.00670588,-0.010497209,0.01239109,-0.0021917734,0.001986397,-0.04431741,2017-08-30 17:13:23,67.72412802876546
-0.037963867,-0.044281006,9.76358,2.593994E-4,-1.6784668E-4,-0.001663208,216.0,-0.03559575,-0.045836657,9.8064785,-0.0029021353,0.0018970855,0.0012817383,-0.002283287,0.0018986777,-0.044264108,2017-08-30 17:13:24,59.42681615436406
-0.03845215,-0.044677734,9.7586975,2.593994E-4,-1.6784668E-4,-0.0011138916,216.0,-0.03880162,-0.045865394,9.806466,-0.006677393,-0.002364654,-0.0069084167,-0.0022483938,0.002080173,-0.044379074,2017-08-30 17:13:25,61.55916793087193
-0.0362854,-0.045394897,9.770584,3.0517578E-5,-1.6784668E-4,-4.5776367E-4,216.0,-0.03437121,-0.042245217,9.806499,0.002252236,-4.5235455E-4,0.006924629,-0.0020743068,0.0018459916,-0.04422412,2017-08-30 17:13:26,58.82542139900732
-0.04168701,-0.0473938,9.760361,-8.392334E-4,-1.6784668E-4,-0.001663208,216.0,-0.036102705,-0.043281198,9.806488,-1.7293543E-4,0.0016488098,0.0074481964,-0.0021230567,0.00193665,-0.04428353,2017-08-30 17:13:27,57.04292317085579
-0.037857056,-0.041870117,9.755646,2.593994E-4,-6.2561035E-4,-0.001663208,216.0,-0.03383404,-0.042141642,9.806501,-0.0038284324,6.888993E-4,-0.0044956207,-0.0021010025,0.001837928,-0.044219773,2017-08-30 17:13:28,61.995949616303534
-0.03274536,-0.039627075,9.761795,-5.0354004E-4,-1.6784668E-4,-0.001663208,216.0,-0.032333042,-0.040849343,9.806512,-5.858056E-4,8.57912E-4,0.003001213,-0.001999487,0.0017376821,-0.044152662,2017-08-30 17:13:29,58.25933101814999
-0.04273987,-0.050933838,9.746643,2.593994E-4,-1.6784668E-4,-0.001663208,216.0,-0.035106003,-0.04464799,9.806486,-0.0052021667,-0.0065421797,-0.0023097992,-0.0021949797,0.0018889058,-0.04425519,2017-08-30 17:13:30,57.75627472404672
-0.037094116,-0.048858643,9.761719,-7.4768066E-4,-1.6784668E-4,-4.5776367E-4,216.0,-0.036281914,-0.044317987,9.806483,-0.0010583214,-0.0054547004,0.005300522,-0.0021403783,0.0019434518,-0.044288404,2017-08-30 17:13:31,58.93131465816087
-0.048553467,-0.04800415,9.753845,2.593994E-4,-1.6784668E-4,-0.001663208,216.0,-0.039062083,-0.04804113,9.806455,-0.0044323504,0.0013021864,-0.001449585,-0.0023585965,0.002098399,-0.04439409,2017-08-30 17:13:32,58.49079176633818
-0.0382843,-0.042892456,9.757751,2.593994E-4,-1.6784668E-4,-0.001663208,216.0,-0.04159921,-0.04721484,9.806448,-0.0019784905,0.003043916,-0.0094566345,-0.002310588,0.002225945,-0.044474166,2017-08-30 17:13:33,62.857086312685595
-0.032943726,-0.044647217,9.759125,4.5776367E-5,-1.6784668E-4,-6.5612793E-4,216.0,-0.039933145,-0.044745296,9.806467,-0.0069230087,-0.0027465224,-0.0057115555,-0.0021887089,0.0021353466,-0.044412524,2017-08-30 17:13:34,58.430614565732355
-0.04512024,-0.048736572,9.752319,2.593994E-4,-1.6784668E-4,-4.5776367E-4,216.0,-0.039984062,-0.045994416,9.80646,-0.00592516,-0.0039085597,-0.0031147003,-0.0022061085,0.002108879,-0.044396136,2017-08-30 17:13:35,61.63002043544601
-0.032714844,-0.039474487,9.755173,2.593994E-4,-1.6784668E-4,-0.001663208,216.0,-0.03605397,-0.044516318,9.806483,-1.00482255E-4,-6.9697574E-4,7.791519E-4,-0.0021860749,0.0019369611,-0.04428564,2017-08-30 17:13:37,63.5852685171226
-0.04057312,-0.05015564,9.757233,-6.866455E-4,-1.6784668E-4,-0.001663208,216.0,-0.036207195,-0.046850286,9.806472,-8.825995E-4,3.245473E-4,0.006296158,-0.0023045894,0.001950064,-0.044297606,2017-08-30 17:13:38,57.5471950966603
-0.04576111,-0.044937134,9.739929,-9.0026855E-4,-1.6784668E-4,-0.001663208,216.0,-0.03669118,-0.044719115,9.806479,-0.009258218,-4.4750795E-4,-0.016225815,-0.0021819966,0.0019464782,-0.044291597,2017-08-30 17:13:39,61.14740597233276
-0.042160034,-0.0493927,9.754822,-1.373291E-4,-5.645752E-4,-0.001663208,216.0,-0.038760602,-0.046632845,9.806462,-0.0035998784,-0.003001012,-9.279251E-4,-0.0022557485,0.002035591,-0.0443508,2017-08-30 17:13:40,58.23971213783508
-0.033493042,-0.04118347,9.762451,2.593994E-4,-1.6784668E-4,-0.001663208,216.0,-0.037146166,-0.04327177,9.806484,0.004010074,0.0023393482,0.0066843033,-0.0021431786,0.0020190824,-0.044336826,2017-08-30 17:13:41,57.42894009307163
-0.039474487,-0.049072266,9.766312,2.593994E-4,-1.6784668E-4,-0.001663208,216.0,-0.038740568,-0.043819495,9.806476,0.004196573,0.0017119013,0.008543968,-0.0021443388,0.0020724158,-0.044370946,2017-08-30 17:13:42,58.320515251024226
-0.04888916,-0.053527832,9.750473,1.0681152E-4,-1.6784668E-4,-0.001663208,216.0,-0.036212783,-0.044059016,9.806484,-0.009917244,-0.0064322017,-0.0076026917,-0.0021624158,0.0019440261,-0.044289436,2017-08-30 17:13:43,53.62549177531109
-0.040664673,-0.044815063,9.758133,2.593994E-4,-1.6784668E-4,-0.001663208,216.0,-0.036266293,-0.04396844,9.806484,-0.0056219697,-0.0067451447,-0.0014982224,-0.0021576786,0.0019465503,-0.044290908,2017-08-30 17:13:44,59.293210696340125
-0.03895569,-0.043777466,9.762604,2.593994E-4,-1.6784668E-4,-0.001663208,216.0,-0.037653416,-0.043921825,9.806479,3.7009642E-4,-1.6789511E-4,0.0035543442,-0.002152081,0.0020171967,-0.04433589,2017-08-30 17:13:45,54.04914038709977
-0.03187561,-0.039230347,9.758133,2.593994E-4,-4.272461E-4,-0.001663208,216.0,-0.034306493,-0.042317823,9.806499,0.004075121,0.0042442717,-5.2928925E-4,-0.0021437027,0.0019388053,-0.044285536,2017-08-30 17:13:46,53.221207271378574
-0.048797607,-0.04949951,9.753174,2.593994E-4,-0.001159668,-0.001663208,216.0,-0.04008378,-0.04571158,9.806461,-0.009240981,-0.0046643727,-0.0024223328,-0.0022055886,0.0021273976,-0.044407956,2017-08-30 17:13:47,54.67762682960863
-0.044815063,-0.048324585,9.759979,2.593994E-4,-8.239746E-4,-0.001663208,216.0,-0.038459446,-0.04356846,9.806478,-0.0038903914,-0.0022550784,0.0014705658,-0.0021322083,0.0020575076,-0.04436105,2017-08-30 17:13:48,54.60014204566856
-0.048431396,-0.05369568,9.750977,2.593994E-4,-1.6784668E-4,-0.001663208,216.0,-0.038995933,-0.044818964,9.80647,-0.0019731075,-0.0021610223,0.0040283203,-0.0021946465,0.0020877095,-0.044382256,2017-08-30 17:13:49,57.64091772523366
-0.04385376,-0.050842285,9.751373,2.593994E-4,-1.6784668E-4,-4.5776367E-4,216.0,-0.035439894,-0.045399323,9.806481,5.7306513E-4,0.0044121854,0.0017127991,-0.0022324715,0.0019076377,-0.0442683,2017-08-30 17:13:50,57.696851069111325
-0.038864136,-0.04534912,9.767944,-6.2561035E-4,-1.6784668E-4,-0.001663208,216.0,-0.038613323,-0.046476558,9.806464,0.0023888424,0.0020513162,0.012223244,-0.002279959,0.002071955,-0.044374783,2017-08-30 17:13:51,64.82524467231413
-0.035476685,-0.04449463,9.76651,2.593994E-4,-8.544922E-4,-0.0011138916,216.0,-0.037615135,-0.044091474,9.8064785,0.0025152154,-1.8602237E-4,0.00592041,-0.0021811854,0.002044921,-0.044354495,2017-08-30 17:13:53,64.00760384606475
-0.03942871,-0.044174194,9.758774,9.1552734E-5,3.5095215E-4,-2.1362305E-4,216.0,-0.03724959,-0.04491775,9.806477,-0.0063252114,-0.005438246,-0.008075714,-0.002203743,0.0019988567,-0.04432574,2017-08-30 17:13:54,66.50785165061366
-0.043670654,-0.050201416,9.75293,9.1552734E-5,3.5095215E-4,-1.0681152E-4,216.0,-0.040129226,-0.044996932,9.806465,0.0065285116,0.0029034242,0.0028705597,-0.0022010668,0.00214592,-0.044419657,2017-08-30 17:13:55,65.0888929860304
-0.038986206,-0.045059204,9.755356,9.1552734E-5,3.5095215E-4,-2.1362305E-4,216.0,-0.040251136,-0.045421746,9.806462,0.0010637119,1.3547763E-4,-0.0020837784,-0.0022373414,0.0021817207,-0.044443652,2017-08-30 17:13:56,60.29020260800582
-0.04548645,-0.050704956,9.749542,-6.713867E-4,3.5095215E-4,9.918213E-4,216.0,-0.039081607,-0.044442046,9.806472,-0.0066016912,-0.006486755,-0.0075359344,-0.0022110448,0.0021577147,-0.044427503,2017-08-30 17:13:57,61.17505558785144
-0.03375244,-0.03730774,9.762558,9.1552734E-5,3.5095215E-4,-2.1362305E-4,216.0,-0.03930545,-0.042760067,9.8064785,0.0047107786,0.0048517995,-9.059906E-5,-0.002089066,0.0020988234,-0.044386137,2017-08-30 17:13:58,60.7674885056132
-0.039993286,-0.041412354,9.756592,9.1552734E-5,1.373291E-4,-2.1362305E-4,216.0,-0.038537778,-0.04294321,9.80648,-0.0016408823,0.0013242923,-0.0027179718,-0.0020888175,0.0020500303,-0.04435495,2017-08-30 17:13:59,60.04342000489051
-0.03453064,-0.044784546,9.770767,9.1552734E-5,3.5095215E-4,9.918213E-4,216.0,-0.037626773,-0.043810446,9.80648,0.0024034046,-1.5427545E-4,0.0070238113,-0.0021464706,0.002015585,-0.04433469,2017-08-30 17:14:00,56.14937898490336
-0.038482666,-0.048690796,9.777145,9.1552734E-5,3.5095215E-4,0.001373291,216.0,-0.040556956,-0.04789712,9.806449,0.0021343976,-0.005519334,0.0052547455,-0.002347773,0.0021743292,-0.044442307,2017-08-30 17:14:01,59.18635540656082
-0.03816223,-0.050933838,9.769363,9.1552734E-5,3.5095215E-4,9.918213E-4,216.0,-0.040261853,-0.046927832,9.806456,4.9430877E-5,-0.0018836781,0.0030097961,-0.002299097,0.0021570723,-0.044429783,2017-08-30 17:14:02,64.22684502503097
-0.033493042,-0.039718628,9.762436,9.1552734E-5,3.5095215E-4,7.6293945E-5,216.0,-0.039329134,-0.046658248,9.80646,0.0039104857,0.0058826283,-0.0019454956,-0.0022875438,0.0021088813,-0.04439862,2017-08-30 17:14:03,56.61941498061144
-0.041793823,-0.047821045,9.755707,-5.340576E-4,3.5095215E-4,9.918213E-4,216.0,-0.041723084,-0.046767905,9.80645,-0.005003739,-0.003876865,-0.011914253,-0.0022875362,0.002231247,-0.044476848,2017-08-30 17:14:04,57.68950001198788
-0.045272827,-0.051956177,9.747269,9.1552734E-5,3.5095215E-4,9.918213E-4,216.0,-0.039941885,-0.044742864,9.806467,-0.0013501421,-0.0034854487,-0.005795479,-0.0021885645,0.002135787,-0.0444128,2017-08-30 17:14:05,61.90062201390019
-0.03314209,-0.04510498,9.766617,3.0517578E-5,3.5095215E-4,9.918213E-4,216.0,-0.039391577,-0.046353746,9.806461,0.011913095,0.0070913956,0.0043592453,-0.0022718902,0.002111375,-0.04439974,2017-08-30 17:14:06,58.62647587542527
-0.046218872,-0.048614502,9.745972,-7.4768066E-4,3.5095215E-4,9.918213E-4,216.0,-0.041610338,-0.045499332,9.806457,-0.00226558,-2.3244694E-4,0.0030927658,-0.0022231925,0.0022226104,-0.044469353,2017-08-30 17:14:07,60.408548544498174
-0.03251648,-0.03730774,9.757523,9.1552734E-5,3.5095215E-4,-2.1362305E-4,216.0,-0.03846085,-0.04243568,9.806483,0.006151207,0.0046285056,2.6607513E-4,-0.0020745127,0.0020550096,-0.0443577,2017-08-30 17:14:09,60.04049866525921
-0.032226563,-0.04826355,9.764191,9.1552734E-5,-8.8500977E-4,-2.1362305E-4,216.0,-0.037112176,-0.04636643,9.80647,0.0042055957,-0.003483098,0.008244514,-0.0022100245,0.0019670008,-0.044305567,2017-08-30 17:14:10,58.05430238501739
-0.031982422,-0.03465271,9.759415,9.1552734E-5,1.9836426E-4,-2.1362305E-4,216.0,-0.03397163,-0.04290841,9.806498,-5.858578E-4,0.0026335977,-8.34465E-4,-0.0021090084,0.0018271107,-0.0442131,2017-08-30 17:14:11,62.866195975438906
-0.032943726,-0.041870117,9.762161,9.1552734E-5,-1.373291E-4,5.340576E-4,216.0,-0.037965015,-0.04449899,9.806476,-0.0027203187,-3.9969385E-4,-1.8501282E-4,-0.0021807514,0.002034399,-0.044347756,2017-08-30 17:14:12,58.55596964839414
-0.0382843,-0.046905518,9.757935,9.1552734E-5,3.5095215E-4,1.9836426E-4,216.0,-0.040043823,-0.04464806,9.806467,0.004307572,0.0032737479,0.0016431808,-0.0021834983,0.0021407714,-0.044415828,2017-08-30 17:14:13,59.692522289133564
-0.035873413,-0.052642822,9.768402,9.1552734E-5,3.5095215E-4,9.918213E-4,216.0,-0.040298074,-0.046892658,9.806456,3.3599883E-4,0.0017934516,0.0056066513,-0.002265344,0.0020817171,-0.04438058,2017-08-30 17:14:14,56.697879321732415
-0.03627014,-0.04664612,9.76474,9.1552734E-5,3.5095215E-4,-2.1362305E-4,216.0,-0.039194103,-0.045758806,9.806465,0.0064632595,0.0024533495,0.005173683,-0.0022420506,0.0020999513,-0.044391524,2017-08-30 17:14:15,59.06470103582829
-0.041305542,-0.045059204,9.75325,9.1552734E-5,3.5095215E-4,3.5095215E-4,216.0,-0.0432788,-0.0467175,9.806443,0.007853791,0.0044788085,0.008118629,-0.0022813245,0.0023104898,-0.044527315,2017-08-30 17:14:16,61.29055583711677
-0.030654907,-0.045181274,9.761688,9.1552734E-5,3.5095215E-4,6.866455E-4,216.0,-0.039370295,-0.04373233,9.806474,0.011889119,0.00682975,0.0021762848,-0.0021384319,0.0021043378,-0.044391166,2017-08-30 17:14:17,64.66010264648864
-0.03919983,-0.04736328,9.75499,9.1552734E-5,-8.8500977E-4,9.918213E-4,216.0,-0.039369307,-0.04381551,9.806473,-0.012132566,-0.0077701956,-0.011266708,-0.0021426706,0.0021044763,-0.044391386,2017-08-30 17:14:18,53.68029079732424
-0.042892456,-0.046401978,9.752335,9.1552734E-5,3.5095215E-4,6.713867E-4,216.0,-0.040632468,-0.045117754,9.806462,0.002900064,0.007026363,4.529953E-4,-0.0022060452,0.0021718638,-0.04443639,2017-08-30 17:14:19,64.5409857205143
-0.040481567,-0.04850769,9.7565,-5.645752E-4,3.5095215E-4,-2.1362305E-4,216.0,-0.04044149,-0.045865506,9.806459,-8.900054E-4,-0.003497921,-6.761551E-4,-0.0022140886,0.002129242,-0.044409394,2017-08-30 17:14:20,58.55151956273082
-0.03778076,-0.05101013,9.7651825,9.1552734E-5,1.0681152E-4,7.7819824E-4,216.0,-0.038572285,-0.045124814,9.806471,6.012507E-4,-0.0065081567,0.005373955,-0.0021903417,0.0020655186,-0.04436794,2017-08-30 17:14:21,60.87478478410415
-0.037094116,-0.041259766,9.765396,-1.5258789E-5,3.5095215E-4,-2.1362305E-4,216.0,-0.040033624,-0.044970084,9.806465,0.002658058,0.0038246028,3.0517578E-5,-0.0022156732,0.0021358507,-0.044413667,2017-08-30 17:14:22,63.02047247910014
-0.03704834,-0.04182434,9.760803,9.1552734E-5,3.5095215E-4,-2.1362305E-4,216.0,-0.039788835,-0.044739638,9.806467,0.0026450045,0.002723053,-6.017685E-4,-0.0021892353,0.0021324793,-0.044410706,2017-08-30 17:14:23,59.048379054734056
-0.04660034,-0.047805786,9.754303,9.1552734E-5,-4.272461E-4,-2.1362305E-4,216.0,-0.040532622,-0.045417994,9.806461,-9.422712E-4,0.0026361383,0.0056905746,-0.0022215694,0.002167453,-0.04443405,2017-08-30 17:14:25,62.110205426343434
-0.034118652,-0.03652954,9.764191,9.1552734E-5,3.0517578E-5,-2.1362305E-4,216.0,-0.037893053,-0.045054097,9.806474,-0.0026515014,0.002578158,-0.0017633438,-0.0022302293,0.0020530683,-0.044361196,2017-08-30 17:14:26,57.54730682287629
-0.0385437,-0.042495728,9.760071,9.1552734E-5,3.5095215E-4,-2.1362305E-4,216.0,-0.037796866,-0.042955074,9.806483,0.0044828393,0.0046411343,0.006459236,-0.0021025108,0.0020223216,-0.04433766,2017-08-30 17:14:27,59.84872083346649
-0.041366577,-0.046340942,9.756714,9.1552734E-5,3.5095215E-4,-2.1362305E-4,216.0,-0.040150646,-0.046159633,9.806459,-0.0015825555,-3.43021E-4,1.6117096E-4,-0.002264361,0.0021415006,-0.044418767,2017-08-30 17:14:28,53.81424559479807
-0.03805542,-0.050048828,9.753174,9.1552734E-5,3.5095215E-4,-2.1362305E-4,216.0,-0.044657268,-0.0500354,9.806421,-6.219931E-4,-0.0026287772,-0.0011978149,-0.0024470636,0.0023883712,-0.044582225,2017-08-30 17:14:29,50.36665991427996
-0.035888672,-0.0471344,9.766983,9.1552734E-5,3.5095215E-4,-2.1362305E-4,216.0,-0.03742615,-0.044612676,9.806478,0.0020103604,-9.848885E-4,0.0073890686,-0.0022758304,0.0020445643,-0.044357147,2017-08-30 17:14:30,56.93389417209157
-0.03425598,-0.04067993,9.75943,9.1552734E-5,3.5095215E-4,-2.1362305E-4,216.0,-0.03570751,-0.04256786,9.806493,0.0066231005,0.0016864538,0.003288269,-0.002087643,0.0019148781,-0.04426855,2017-08-30 17:14:31,54.14715137443592
-0.036758423,-0.048294067,9.775024,9.1552734E-5,3.5095215E-4,-2.1362305E-4,216.0,-0.037718803,-0.045635045,9.806472,0.0016726181,5.836338E-4,0.007963181,-0.0022391833,0.0020244166,-0.04434315,2017-08-30 17:14:32,52.2805466143503
-0.03678894,-0.042404175,9.758881,9.1552734E-5,3.5095215E-4,-2.1362305E-4,216.0,-0.039072193,-0.04510748,9.806469,0.0073123574,0.005780548,0.0017795563,-0.0022091628,0.002092254,-0.0443856,2017-08-30 17:14:33,48.64801848276141
-0.036453247,-0.03970337,9.754883,9.1552734E-5,2.89917E-4,-1.5258789E-4,216.0,-0.03679809,-0.043608688,9.806484,0.0031228475,0.0028501637,0.0046901703,-0.0021381213,0.0019728602,-0.04430713,2017-08-30 17:14:34,54.482416164787324
-0.04260254,-0.04878235,9.751678,9.1552734E-5,3.5095215E-4,9.918213E-4,216.0,-0.04155419,-0.0460837,9.806454,-0.0019983277,-0.0034021437,-0.0039596558,-0.0022310233,0.0021823454,-0.044443857,2017-08-30 17:14:35,56.98409323065068
-0.043304443,-0.05029297,9.752884,9.1552734E-5,3.5095215E-4,3.0517578E-4,216.0,-0.040977865,-0.04414763,9.806465,-0.010041572,-0.0073456354,-0.005455017,-0.0021558302,0.0021872765,-0.044444706,2017-08-30 17:14:36,55.92875187921351
-0.04298401,-0.051376343,9.7556305,9.1552734E-5,-7.019043E-4,-2.1362305E-4,216.0,-0.0380862,-0.04532305,9.806472,0.0029302016,0.0017552376,0.0022211075,-0.0022224386,0.0020424493,-0.04435417,2017-08-30 17:14:37,52.52782492835591
-0.03314209,-0.046661377,9.765076,9.1552734E-5,3.5095215E-4,8.544922E-4,216.0,-0.035700593,-0.045401163,9.80648,0.0030064508,-7.1073696E-4,0.0047798157,-0.0022695814,0.0019542505,-0.04429922,2017-08-30 17:14:38,62.00526761864447
-0.03427124,-0.038848877,9.761597,9.1552734E-5,-8.8500977E-4,9.918213E-4,216.0,-0.03682868,-0.043027144,9.806487,-0.0013760142,0.0012979247,0.0018091202,-0.002108432,0.0019731028,-0.044306386,2017-08-30 17:14:39,59.01027620986001
-0.03427124,-0.03691101,9.757446,9.1552734E-5,3.5095215E-4,-2.1362305E-4,216.0,-0.03442391,-0.04142266,9.806502,0.004285183,0.005740855,0.0023431778,-0.0020322911,0.0018468195,-0.044223383,2017-08-30 17:14:41,56.30490476215389
-0.041488647,-0.041793823,9.757278,9.1552734E-5,-8.8500977E-4,-2.1362305E-4,216.0,-0.04113889,-0.04649804,9.806454,-0.004327785,-0.0056506917,-0.005610466,-0.0022751587,0.0022008335,-0.044457026,2017-08-30 17:14:42,56.980505477482296
-0.04826355,-0.054244995,9.749161,9.1552734E-5,-8.8500977E-4,-2.1362305E-4,216.0,-0.03874235,-0.043988142,9.806475,-0.009238515,-0.0073754266,-0.007411957,-0.002152924,0.0020728894,-0.04437151,2017-08-30 17:14:43,60.31975468556318
-0.037643433,-0.03930664,9.752502,9.1552734E-5,-2.2888184E-4,-2.1362305E-4,216.0,-0.039307673,-0.048526708,9.806451,0.006032694,0.008603118,0.0013742447,-0.0023827543,0.0021120303,-0.04440354,2017-08-30 17:14:44,63.46102193178889
-0.043304443,-0.051254272,9.752609,9.1552734E-5,3.5095215E-4,1.2207031E-4,216.0,-0.036389653,-0.044031046,9.806484,-0.0032274872,-4.5727193E-4,-0.0027313232,-0.0021605806,0.0019529841,-0.044295106,2017-08-30 17:14:45,63.48980532954108
-0.034500122,-0.042877197,9.762756,9.1552734E-5,1.6784668E-4,8.239746E-4,216.0,-0.040240243,-0.04551394,9.806462,0.0024221241,-7.081479E-4,0.007293701,-0.0022271385,0.0021527573,-0.044424824,2017-08-30 17:14:46,73.27774232780968
-0.035186768,-0.042373657,9.763153,9.1552734E-5,3.5095215E-4,-2.1362305E-4,216.0,-0.040518887,-0.045578986,9.80646,0.0015231483,-0.0012704767,-3.004074E-4,-0.0022298007,0.0021671185,-0.044434085,2017-08-30 17:14:47,53.54320714345475
-0.038848877,-0.047302246,9.75383,9.1552734E-5,3.5095215E-4,3.5095215E-4,216.0,-0.038500678,-0.043992344,9.806476,0.001646515,-0.0023489818,-0.0015993118,-0.002153701,0.0020605722,-0.044363663,2017-08-30 17:14:48,62.15876342675203
-0.03791809,-0.05278015,9.766129,9.1552734E-5,1.0681152E-4,-2.1362305E-4,216.0,-0.04106268,-0.046446793,9.806455,-0.0010611415,-0.004508611,0.002998352,-0.0022727267,0.0021968293,-0.044454392,2017-08-30 17:14:49,74.38818216992968
-0.058380127,-0.06201172,9.749878,9.1552734E-5,3.5095215E-4,-1.2207031E-4,216.0,-0.041278385,-0.045622073,9.8064575,-0.014826164,-0.0065205954,0.0035705566,-0.00223022,0.002205957,-0.044458926,2017-08-30 17:14:50,57.15664681164071
-0.04067993,-0.04550171,9.766418,-7.019043E-4,3.5095215E-4,9.918213E-4,216.0,-0.041069493,-0.044765744,9.806462,-0.0027031824,-0.0017875656,0.0015964508,-0.0021870963,0.002193355,-0.04444955,2017-08-30 17:14:51,66.31063152995308
-0.034301758,-0.045425415,9.7651825,9.1552734E-5,3.5095215E-4,9.918213E-4,216.0,-0.038884968,-0.046962447,9.80646,0.0026612282,0.0014724024,0.0022058487,-0.0023040725,0.0020869148,-0.044385083,2017-08-30 17:14:52,55.26522989686583
-0.037857056,-0.051498413,9.762848,1.6784668E-4,1.2207031E-4,-6.2561035E-4,216.0,-0.040200613,-0.048076123,9.80645,0.0019937754,-0.0029676892,0.0022945404,-0.0023928753,0.0021498252,-0.04442802,2017-08-30 17:14:53,61.32801511562811
-0.0368042,-0.04257202,9.757462,1.6784668E-4,1.2207031E-4,-6.2561035E-4,216.0,-0.03648951,-0.04212726,9.806492,-0.005029876,-0.0019991882,-0.01099205,-0.0020633882,0.0019537655,-0.044292662,2017-08-30 17:14:54,72.52188851692462
-0.04396057,-0.046218872,9.750397,1.6784668E-4,1.2207031E-4,-6.2561035E-4,216.0,-0.040743135,-0.045908798,9.806458,-0.0026797056,-0.00426979,-0.0022935867,-0.002246074,0.0021793065,-0.044442374,2017-08-30 17:14:55,66.11003006385724
-0.042877197,-0.051239014,9.753281,1.6784668E-4,1.2207031E-4,-2.4414063E-4,216.0,-0.03832417,-0.046265766,9.806466,-6.334707E-4,-8.575171E-4,0.001581192,-0.002269897,0.002056727,-0.044364743,2017-08-30 17:14:57,62.540471644642196
-0.041107178,-0.056533813,9.751877,1.6784668E-4,1.2207031E-4,5.79834E-4,216.0,-0.040405966,-0.047603484,9.806452,-7.157214E-4,-0.008428693,-0.004705429,-0.002370792,0.0021774492,-0.044445008,2017-08-30 17:14:58,61.16780080788793
-0.0476532,-0.048080444,9.750977,1.6784668E-4,1.2207031E-4,-6.2561035E-4,216.0,-0.040456083,-0.04651204,9.806457,-0.008599203,-0.002667874,-0.0067691803,-0.0022358368,0.0021024796,-0.04439295,2017-08-30 17:14:59,55.71157910447502
-0.029907227,-0.0382843,9.765152,1.6784668E-4,-5.0354004E-4,5.79834E-4,216.0,-0.03688218,-0.04444537,9.80648,0.0040303767,0.0032626614,0.00814724,-0.0021805381,0.001979045,-0.04431237,2017-08-30 17:15:00,54.012600760799
-0.04067993,-0.04220581,9.753479,1.6784668E-4,-0.0011138916,5.79834E-4,216.0,-0.03720787,-0.04711881,9.806466,-0.0045566037,-0.004135877,-0.0023536682,-0.0023159403,0.0020017186,-0.044330973,2017-08-30 17:15:01,57.1402790893718
-0.043426514,-0.04927063,9.756882,1.6784668E-4,-0.001083374,-6.2561035E-4,216.0,-0.03376273,-0.045234296,9.806488,-0.0056021325,-0.0049947537,0.0013666153,-0.0022279513,0.001821714,-0.04421323,2017-08-30 17:15:02,54.858782917611045
-0.039901733,-0.042160034,9.760193,1.6784668E-4,-7.4768066E-4,5.79834E-4,216.0,-0.03950893,-0.048228536,9.806452,-0.0052566715,0.0018059015,-0.0034646988,-0.0023670988,0.0021216196,-0.044409197,2017-08-30 17:15:03,55.7830609449631
-0.050949097,-0.055221558,9.755539,1.6784668E-4,-5.950928E-4,7.6293945E-5,216.0,-0.046541955,-0.048839446,9.806418,-0.00840098,-0.0038723052,-0.0012960434,-0.00238172,0.0024817877,-0.044639934,2017-08-30 17:15:04,58.1219759967209
-0.037261963,-0.038589478,9.758972,1.6784668E-4,-9.3078613E-4,5.79834E-4,216.0,-0.041603044,-0.046048716,9.806454,-0.009797376,4.702732E-4,0.0025291443,-0.0022511892,0.002223488,-0.044470772,2017-08-30 17:15:05,58.939921656566874
-0.047546387,-0.055603027,9.753769,1.6784668E-4,-1.5258789E-5,4.5776367E-4,216.0,-0.042995352,-0.045024306,9.806453,1.11706555E-4,-7.9869106E-4,1.9454956E-4,-0.0021957566,0.002292176,-0.044512976,2017-08-30 17:15:06,61.00071889409687
-0.045791626,-0.046401978,9.758713,1.6784668E-4,1.2207031E-4,1.2207031E-4,216.0,-0.043349475,-0.04673743,9.806443,-0.009516049,-0.007335689,-0.005590439,-0.0022821736,0.00231414,-0.044529676,2017-08-30 17:15:07,59.973017254961775
-0.054626465,-0.048706055,9.745087,1.6784668E-4,-6.866455E-4,-6.2561035E-4,216.0,-0.047465753,-0.047308378,9.806421,-0.007594146,-0.001877062,-0.0092048645,-0.0022903292,0.0025156045,-0.044658713,2017-08-30 17:15:08,55.971986691247025
-0.040802002,-0.044540405,9.76619,1.6784668E-4,1.2207031E-4,5.79834E-4,216.0,-0.041821398,-0.04472612,9.806459,0.0057254583,-5.061291E-4,0.011133194,-0.0021964489,0.0023119838,-0.044525657,2017-08-30 17:15:09,59.505794756466116
-0.04711914,-0.048538208,9.744766,-6.1035156E-5,-1.2207031E-4,5.79834E-4,216.0,-0.04286958,-0.04532342,9.806452,-0.0050849207,-0.0028680488,-0.008268356,-0.0022431007,0.002256933,-0.044491906,2017-08-30 17:15:10,62.67495648967946
-0.037124634,-0.042617798,9.764618,1.6784668E-4,-5.645752E-4,-6.1035156E-5,216.0,-0.04022709,-0.04319231,9.806473,0.006617591,0.004684668,0.009768486,-0.00210893,0.0021468124,-0.04441741,2017-08-30 17:15:11,65.27910519983939
-0.051635742,-0.047958374,9.753052,1.6784668E-4,-2.2888184E-4,-2.89917E-4,216.0,-0.042666238,-0.044651717,9.806456,-0.008476056,-0.003291525,-0.006173134,-0.002187685,0.0023108898,-0.04452469,2017-08-30 17:15:13,52.31910107450411
-0.053985596,-0.053985596,9.748337,1.6784668E-4,-0.0011138916,-4.4250488E-4,216.0,-0.043970864,-0.048819676,9.80643,-0.005095642,-0.0014687404,-1.3065338E-4,-0.0023867614,0.0023505827,-0.0445562,2017-08-30 17:15:14,61.463940409978704
-0.047851563,-0.05076599,9.748886,1.6784668E-4,-0.0011138916,-6.2561035E-4,216.0,-0.04243899,-0.047378253,9.806444,-0.0040689595,-0.003825426,0.0016059875,-0.0023169443,0.0022691549,-0.044501986,2017-08-30 17:15:15,57.21712455215502
-0.044326782,-0.04798889,9.755417,1.6784668E-4,-4.5776367E-4,-6.2561035E-4,216.0,-0.043848824,-0.046173103,9.806443,0.0033170134,0.0010055117,-2.2888184E-4,-0.0022522616,0.0023383263,-0.044544213,2017-08-30 17:15:16,60.897952748928304
-0.04547119,-0.04307556,9.754761,1.6784668E-4,-8.69751E-4,-6.2561035E-4,216.0,-0.04341754,-0.046415344,9.806444,-0.0013139956,2.1892041E-4,8.506775E-4,-0.0022656105,0.0023168786,-0.044530917,2017-08-30 17:15:17,55.7465936771638
-0.050445557,-0.053009033,9.751526,1.6784668E-4,1.2207031E-4,-6.2561035E-4,216.0,-0.046588976,-0.047329318,9.806425,2.4974346E-4,0.0019320361,0.002087593,-0.0023047016,0.0024807383,-0.04463687,2017-08-30 17:15:18,47.87617963316723
-0.04852295,-0.049194336,9.755234,-6.4086914E-4,-0.0011138916,-6.2561035E-4,216.0,-0.04280627,-0.045974206,9.806449,-0.0044910945,2.6243553E-4,0.003107071,-0.002244577,0.0022846938,-0.044509694,2017-08-30 17:15:19,60.751443110870426
-0.038757324,-0.03994751,9.755493,1.6784668E-4,-0.0011138916,-6.2561035E-4,216.0,-0.04305791,-0.04644312,9.806446,-2.3209676E-4,0.0018801987,6.9236755E-4,-0.0022678685,0.0022985972,-0.044519298,2017-08-30 17:15:20,59.636549075848535
-0.052337646,-0.050048828,9.748566,1.6784668E-4,-0.0011138916,-3.0517578E-4,216.0,-0.04397456,-0.045687757,9.806445,-0.0083392225,-0.0046057813,-0.0035848618,-0.0022272484,0.0023436341,-0.044546835,2017-08-30 17:15:21,55.734849388678064
-0.047698975,-0.043258667,9.760147,1.6784668E-4,1.2207031E-4,-4.4250488E-4,216.0,-0.04316184,-0.045528043,9.80645,-0.0053592958,-0.0015237629,-0.002943039,-0.0022210209,0.002301815,-0.044519912,2017-08-30 17:15:22,60.55305204485376
-0.04510498,-0.04748535,9.750732,1.6784668E-4,1.2207031E-4,5.79834E-4,216.0,-0.046004348,-0.046096627,9.806434,-0.005192384,-0.003696762,-0.011919975,-0.0022433,0.002448103,-0.044614106,2017-08-30 17:15:23,56.54053703106869
-0.036819458,-0.040725708,9.779587,1.6784668E-4,-2.746582E-4,5.79834E-4,216.0,-0.04233979,-0.046651896,9.806448,0.0020999312,0.0045178644,0.006672859,-0.002280184,0.0022624414,-0.044496566,2017-08-30 17:15:24,56.44091357734608
-0.04701233,-0.050994873,9.777191,1.6784668E-4,1.2207031E-4,0.0018157959,216.0,-0.04240585,-0.04416368,9.806459,7.729344E-4,0.003196802,0.0065174103,-0.002153307,0.0022601488,-0.0444912,2017-08-30 17:15:25,60.42477166548534
-0.039352417,-0.052642822,9.774567,1.6784668E-4,1.2207031E-4,8.69751E-4,216.0,-0.03836005,-0.04555266,9.806469,-0.0014891922,-0.0073499978,-0.0042352676,-0.0022276957,0.0020367627,-0.044350695,2017-08-30 17:15:26,58.495668078020145
-0.04069519,-0.043685913,9.766861,1.6784668E-4,-0.0011138916,-1.5258789E-5,216.0,-0.03694897,-0.04499755,9.806478,-0.008248247,-0.0023087785,-0.008215904,-0.0022085058,0.0019837033,-0.044316195,2017-08-30 17:15:27,62.318152678749186
-0.037322998,-0.044052124,9.769897,1.6784668E-4,-0.0011138916,5.79834E-4,216.0,-0.03892945,-0.045939032,9.806465,0.001799576,0.002383206,0.0088300705,-0.0022872463,0.0021076095,-0.0443978,2017-08-30 17:15:29,56.379722366491116
-0.04525757,-0.04899597,9.77002,1.6784668E-4,-0.0011138916,5.79834E-4,216.0,-0.035481308,-0.045124833,9.806482,-0.009710897,-0.004198458,0.0014209747,-0.0022101018,0.0019191469,-0.04427498,2017-08-30 17:15:30,62.00055693322453
-0.04547119,-0.048461914,9.759857,1.6784668E-4,-0.0011138916,-6.2561035E-4,216.0,-0.04003899,-0.04762573,9.806453,-0.005615007,-0.0010536313,-0.001821518,-0.0023151163,0.0021361997,-0.04441693,2017-08-30 17:15:31,54.15979310216245
-0.039657593,-0.04953003,9.763412,1.6784668E-4,-0.0011138916,5.79834E-4,216.0,-0.041470453,-0.045675814,9.806457,-8.287653E-5,0.0016621388,0.0024757385,-0.0022325078,0.0022158765,-0.044465337,2017-08-30 17:15:32,56.81102629326368
-0.036453247,-0.041275024,9.763992,1.6784668E-4,1.2207031E-4,5.79834E-4,216.0,-0.03975911,-0.042718258,9.806477,0.0022963919,0.0011265986,0.0026454926,-0.0020816731,0.0020792447,-0.0443734,2017-08-30 17:15:33,61.14968424706613
-0.044708252,-0.04508972,9.763153,1.6784668E-4,-1.5258789E-5,5.79834E-4,216.0,-0.040754117,-0.044652466,9.806464,-0.0019404106,0.0021633692,0.0056295395,-0.0021820639,0.0021770112,-0.044438947,2017-08-30 17:15:34,58.987993272498315
-0.0382843,-0.04307556,9.762238,1.6784668E-4,-6.5612793E-4,5.79834E-4,216.0,-0.04077718,-0.045534126,9.806459,-4.3768436E-4,-4.81762E-4,0.0048446655,-0.0022269126,0.0021801917,-0.044442356,2017-08-30 17:15:35,53.75981123328164
-0.04698181,-0.043548584,9.7491,1.6784668E-4,1.2207031E-4,-1.8310547E-4,216.0,-0.04199433,-0.044123907,9.806461,-0.0041420795,0.0014974326,-0.0053157806,-0.0022089297,0.0022964915,-0.04451614,2017-08-30 17:15:36,50.08191373601568
-0.050476074,-0.04676819,9.748962,1.6784668E-4,-1.6784668E-4,5.79834E-4,216.0,-0.04289634,-0.044996697,9.806453,-0.0077039897,-0.0023719445,-0.003083229,-0.0021763488,0.0022920938,-0.044512324,2017-08-30 17:15:37,58.7658398260796
-0.038604736,-0.03982544,9.758301,1.6784668E-4,-0.0011138916,-6.2561035E-4,216.0,-0.040788822,-0.043755207,9.806468,-0.0032359287,-6.3626096E-4,0.006511688,-0.002136286,0.0021767423,-0.044437375,2017-08-30 17:15:38,56.68809892361403
-0.034439087,-0.036834717,9.7565155,1.6784668E-4,-4.4250488E-4,5.79834E-4,216.0,-0.040411353,-0.042888973,9.806473,0.0015927851,0.0027450398,9.5558167E-4,-0.002093051,0.002155522,-0.044422492,2017-08-30 17:15:39,53.23685258744917
-0.045410156,-0.04408264,9.747299,-7.171631E-4,1.2207031E-4,-6.2561035E-4,216.0,-0.042767912,-0.043862496,9.806458,-0.0038005598,-9.331852E-4,-0.0075159073,-0.0021146373,0.0022289855,-0.044470098,2017-08-30 17:15:40,54.71304888248608
-0.035888672,-0.04324341,9.763443,1.6784668E-4,1.2207031E-4,4.119873E-4,216.0,-0.04068618,-0.04229356,9.806475,-0.0076237544,-0.010327816,-0.008729935,-0.002062085,0.0021681862,-0.044429637,2017-08-30 17:15:41,55.26095063504168
-0.040237427,-0.038330078,9.753128,-7.324219E-4,1.2207031E-4,-6.2561035E-4,216.0,-0.041729458,-0.044725154,9.806459,-0.007203836,-0.0033394434,-0.007086754,-0.0021834855,0.0022269257,-0.044470895,2017-08-30 17:15:42,51.2743760965772
-0.043777466,-0.042800903,9.756256,1.6784668E-4,-5.340576E-4,-6.2561035E-4,216.0,-0.043216024,-0.04574582,9.806448,-7.9578906E-4,0.0026968531,0.0029850006,-0.0022216162,0.002324355,-0.04453434,2017-08-30 17:15:43,63.65280655342637
-0.057159424,-0.04989624,9.749847,1.6784668E-4,-1.373291E-4,-6.2561035E-4,216.0,-0.041631546,-0.04320617,9.806467,-0.011261333,-0.008245427,-0.009010315,-0.002106354,0.0022184774,-0.044463128,2017-08-30 17:15:45,53.581374308187065
-0.037963867,-0.037261963,9.758713,1.6784668E-4,1.2207031E-4,5.79834E-4,216.0,-0.043840643,-0.0442586,9.806453,-0.006007679,-0.0070416145,-0.008256912,-0.0021547775,0.0023335477,-0.044538155,2017-08-30 17:15:46,63.15309235418492
-0.044540405,-0.050354004,9.760376,1.6784668E-4,1.2207031E-4,5.79834E-4,216.0,-0.04132659,-0.043136813,9.806468,-0.005072117,-0.0029194877,5.683899E-4,-0.002103535,0.0022027658,-0.044453003,2017-08-30 17:15:47,59.08748139707245
-0.044265747,-0.041412354,9.761017,1.6784668E-4,1.2207031E-4,-6.2561035E-4,216.0,-0.04414627,-0.04380673,9.806453,5.717166E-4,0.0024941564,0.0038785934,-0.0021310474,0.0023481073,-0.044546727,2017-08-30 17:15:48,57.60465419088899
-0.04319763,-0.04319763,9.755371,1.6784668E-4,-2.1362305E-4,-6.2561035E-4,216.0,-0.042477123,-0.04441521,9.8064575,0.0016472824,-0.0034280382,0.006310463,-0.0021659501,0.0022643567,-0.04449428,2017-08-30 17:15:49,56.18819128315415
-0.04272461,-0.04324341,9.745132,-8.69751E-4,1.2207031E-4,4.119873E-4,216.0,-0.040922925,-0.044972368,9.806461,0.0022299513,0.0029903613,0.002374649,-0.002197962,0.002186349,-0.044445403,2017-08-30 17:15:50,54.371608337101975
-0.034973145,-0.035232544,9.761795,1.6784668E-4,1.2207031E-4,5.79834E-4,216.0,-0.043434333,-0.04621271,9.806445,-3.1251088E-4,0.002374936,-1.077652E-4,-0.0022552512,0.0023172738,-0.04453085,2017-08-30 17:15:51,62.16084016086355
-0.039474487,-0.04901123,9.763107,1.6784668E-4,1.2207031E-4,5.79834E-4,216.0,-0.042564955,-0.04463221,9.806457,0.0011400282,-0.005407326,1.4305115E-4,-0.002176796,0.0022693302,-0.04449779,2017-08-30 17:15:52,57.49337472171479
-0.037872314,-0.04449463,9.763596,1.6784668E-4,1.2207031E-4,3.5095215E-4,216.0,-0.042930037,-0.04502245,9.806453,-0.008570828,-0.006717827,-0.008377075,-0.0021958153,0.0022888402,-0.044510845,2017-08-30 17:15:53,63.03893706624534
-0.040039063,-0.04083252,9.752594,-8.239746E-4,1.5258789E-4,2.89917E-4,216.0,-0.042663217,-0.044574227,9.806456,0.002400469,0.0035080016,-0.0024461746,-0.0021759933,0.0022798816,-0.04450451,2017-08-30 17:15:54,59.62566111851591
-0.03930664,-0.04522705,9.759628,1.2207031E-4,-4.5776367E-4,2.89917E-4,216.0,-0.04368225,-0.04702448,9.80644,0.00459015,0.00844783,0.011467934,-0.002296012,0.002331769,-0.04454137,2017-08-30 17:15:55,59.76080088183729
-0.041763306,-0.049301147,9.757462,1.2207031E-4,-7.9345703E-4,-9.1552734E-4,216.0,-0.0383567,-0.043588955,9.8064785,-8.774921E-5,-0.0014427789,0.0017280579,-0.0021334914,0.0020523134,-0.04435777,2017-08-30 17:15:56,57.86807850446657
-0.053741455,-0.057052612,9.748627,1.2207031E-4,1.5258789E-4,-8.69751E-4,216.0,-0.044390284,-0.04666719,9.806438,-0.009587936,-0.010634333,-0.005507469,-0.0023274878,0.0024179749,-0.044597454,2017-08-30 17:15:57,57.717027171325626
-0.039001465,-0.046081543,9.762863,-7.324219E-4,1.5258789E-4,-5.493164E-4,216.0,-0.046595678,-0.048571408,9.806419,0.0072522126,0.006096933,0.010305405,-0.0023679428,0.0024839162,-0.044640865,2017-08-30 17:15:58,56.41958649414494
-0.044326782,-0.040374756,9.751907,1.2207031E-4,1.5258789E-4,-9.1552734E-4,216.0,-0.047314174,-0.045946077,9.806428,-0.0023080595,-5.393177E-4,-0.006843567,-0.0022325465,0.0025145714,-0.044656254,2017-08-30 17:15:59,59.04639974348699
-0.043060303,-0.049240112,9.783112,1.2207031E-4,-6.1035156E-5,2.89917E-4,216.0,-0.04455536,-0.04539312,9.806444,0.006296154,0.0041551962,0.014741898,-0.002210879,0.002372588,-0.044564836,2017-08-30 17:16:01,59.574474696890235
-0.04006958,-0.048736572,9.775558,1.2207031E-4,1.5258789E-4,2.89917E-4,216.0,-0.04101999,-0.046961132,9.806452,-4.907027E-4,-0.0045169555,0.0027656555,-0.0022990215,0.0021958214,-0.044454556,2017-08-30 17:16:02,62.99385721994831
-0.040786743,-0.043701172,9.759644,1.2207031E-4,-0.001083374,-4.5776367E-4,216.0,-0.04030883,-0.04499548,9.806464,-0.0010002479,9.979643E-4,-0.0086250305,-0.0022005737,0.0021550779,-0.044425495,2017-08-30 17:16:03,57.87072791417966
-0.037963867,-0.0393219,9.759903,1.2207031E-4,-0.001083374,-4.7302246E-4,216.0,-0.03691315,-0.042820238,9.806487,8.048117E-5,-0.001042746,0.002070427,-0.002097698,0.0019769424,-0.044308513,2017-08-30 17:16:04,71.70227118524463
-0.04484558,-0.046157837,9.743011,1.2207031E-4,1.5258789E-4,1.5258789E-5,216.0,-0.03974951,-0.04433184,9.806469,0.004479043,0.005398333,-0.0016937256,-0.0021680803,0.0021250413,-0.044405304,2017-08-30 17:16:05,62.10468172441455
-0.032608032,-0.041412354,9.762772,1.2207031E-4,1.5258789E-4,7.6293945E-5,216.0,-0.040683433,-0.044741236,9.806463,6.6434965E-4,-7.4607134E-4,0.0016422272,-0.0021867503,0.0021736077,-0.044436917,2017-08-30 17:16:06,57.42959249185317
-0.04562378,-0.049606323,9.75473,1.2207031E-4,-0.001083374,-9.1552734E-4,216.0,-0.03700346,-0.04275481,9.806487,-3.9728358E-4,-3.6615133E-4,0.002632141,-0.0020941559,0.0019814007,-0.044311255,2017-08-30 17:16:07,59.24490923964126
-0.047195435,-0.053009033,9.75621,1.2207031E-4,1.5258789E-4,-9.1552734E-4,216.0,-0.039815538,-0.04563669,9.806463,3.5201386E-4,-0.0041408837,0.0041475296,-0.0022343816,0.0021313725,-0.044411376,2017-08-30 17:16:08,60.97943853633456
-0.052749634,-0.054992676,9.7473755,1.2207031E-4,-0.001083374,-9.1552734E-4,216.0,-0.041893825,-0.04551693,9.806455,0.006327629,0.005689174,0.009460449,-0.0022234255,0.0022371106,-0.04447863,2017-08-30 17:16:09,59.54497461960518
-0.041397095,-0.046905518,9.75795,1.2207031E-4,-1.6784668E-4,-9.1552734E-4,216.0,-0.043702025,-0.04736288,9.806438,-0.0056182295,-0.0019463524,-0.0025367737,-0.0023131997,0.0023335489,-0.04454304,2017-08-30 17:16:10,58.46238651349281
-0.05026245,-0.05065918,9.742783,1.2207031E-4,1.5258789E-4,-3.3569336E-4,216.0,-0.040674515,-0.046848353,9.806454,-0.0047075823,-4.5863166E-4,-0.004357338,-0.0022940852,0.002177942,-0.044442974,2017-08-30 17:16:11,59.18983300313442
-0.04949951,-0.05090332,9.748932,1.2207031E-4,-0.001083374,-9.1552734E-4,216.0,-0.04265714,-0.047898926,9.80644,-0.006277345,-0.0021767244,-0.0047721863,-0.002396645,0.0023246966,-0.044539955,2017-08-30 17:16:12,57.10132109427272
-0.039779663,-0.047409058,9.763107,1.2207031E-4,-0.001083374,-0.0020599365,216.0,-0.041327506,-0.047106937,9.80645,-0.004373241,-0.003020443,-0.0012931824,-0.0023057282,0.0022118394,-0.044465,2017-08-30 17:16:13,57.323393774544556
-0.045928955,-0.045288086,9.749451,1.2207031E-4,-0.001083374,-9.1552734E-4,216.0,-0.03895502,-0.046172872,9.806464,-0.00593663,8.4485486E-4,0.0021476746,-0.0022636962,0.0020886958,-0.04438499,2017-08-30 17:16:14,56.28192188413446
-0.04574585,-0.05000305,9.754013,1.2207031E-4,-5.950928E-4,-9.1552734E-4,216.0,-0.04103639,-0.048056345,9.806447,-0.004408624,0.004984934,0.0062294006,-0.0023547616,0.0021991483,-0.04445839,2017-08-30 17:16:15,63.55817238525123
-0.047927856,-0.0526886,9.744888,1.2207031E-4,1.5258789E-4,-9.1552734E-4,216.0,-0.04013775,-0.043872446,9.80647,0.0021177158,0.0016978569,0.004664421,-0.0021437774,0.0021438005,-0.04441655,2017-08-30 17:16:16,57.41850757615098
-0.050109863,-0.05180359,9.751602,1.2207031E-4,-3.0517578E-5,-9.1552734E-4,216.0,-0.04257927,-0.047207043,9.806444,-0.008920718,-0.005576577,-0.005587578,-0.0022726383,0.0022139193,-0.044465315,2017-08-30 17:16:18,60.11320184371479
-0.046951294,-0.048446655,9.74411,1.2207031E-4,-0.001083374,-9.1552734E-4,216.0,-0.03964637,-0.045249134,9.806466,-0.005819265,0.0014478229,-0.0055351257,-0.0022150383,0.0021218632,-0.044404708,2017-08-30 17:16:19,56.26013693766922
-0.041549683,-0.042312622,9.756226,1.2207031E-4,1.5258789E-4,-9.1552734E-4,216.0,-0.038488146,-0.04539164,9.80647,-0.0035441443,0.0032467432,-8.4781647E-4,-0.0022459605,0.0020492086,-0.044359207,2017-08-30 17:16:20,61.263209961580706
-0.04286194,-0.04612732,9.75946,1.2207031E-4,1.5258789E-4,-9.1552734E-4,216.0,-0.041642282,-0.04760874,9.806446,7.387176E-4,-0.0010478124,0.002199173,-0.0023305481,0.0022290382,-0.04447676,2017-08-30 17:16:21,62.85003188936133
-0.039474487,-0.044265747,9.766739,-1.5258789E-4,1.5258789E-4,-9.1552734E-4,216.0,-0.03837707,-0.048208397,9.806457,-0.0010238662,0.0013785064,0.0056886673,-0.0023687119,0.002063834,-0.044372298,2017-08-30 17:16:22,61.90326623783213
-0.042037964,-0.04925537,9.758392,1.2207031E-4,-0.001083374,-9.1552734E-4,216.0,-0.04270136,-0.04948118,9.806433,7.252805E-4,-2.4738535E-4,0.0010194778,-0.0024112302,0.0023009365,-0.04452521,2017-08-30 17:16:23,62.9726008411864
-0.02960205,-0.03677368,9.763657,1.2207031E-4,-0.001083374,-9.1552734E-4,216.0,-0.03725865,-0.04543394,9.806474,0.00871798,0.009200122,0.008457184,-0.002266873,0.0020666742,-0.04437101,2017-08-30 17:16:24,56.45882159704867
-0.048461914,-0.053237915,9.75235,9.1552734E-5,-0.001083374,-9.1552734E-4,216.0,-0.04274929,-0.048589822,9.806437,-0.01457772,-0.0017188638,-0.0051670074,-0.002377921,0.0022877424,-0.044515748,2017-08-30 17:16:25,56.5618149172321
-0.04624939,-0.045318604,9.763153,1.2207031E-4,1.5258789E-4,-5.493164E-4,216.0,-0.043098964,-0.04685971,9.806443,-0.004143413,0.0013474859,0.0039520264,-0.0022924826,0.002261459,-0.044496316,2017-08-30 17:16:26,54.02676526445171
-0.039215088,-0.04512024,9.760254,1.2207031E-4,1.5258789E-4,2.89917E-4,216.0,-0.04349987,-0.04862908,9.806433,-0.0032275766,-0.0038138777,-0.003911972,-0.0023781601,0.0023261213,-0.044540294,2017-08-30 17:16:27,56.08601275352675
-0.053024292,-0.051864624,9.74678,1.2207031E-4,1.5258789E-4,2.89917E-4,216.0,-0.045187905,-0.048692144,9.806425,-0.007963445,-0.004014332,-0.00803566,-0.0023471636,0.0024167146,-0.044597257,2017-08-30 17:16:28,53.69242160970415
-0.038253784,-0.040618896,9.755936,1.2207031E-4,-9.613037E-4,2.89917E-4,216.0,-0.045624796,-0.047758516,9.806428,0.0025343858,-1.1929497E-4,-0.007214546,-0.0023288303,0.002432534,-0.044606805,2017-08-30 17:16:29,57.45706764746876
-0.050094604,-0.047225952,9.752548,1.2207031E-4,1.5258789E-4,2.89917E-4,216.0,-0.043100487,-0.04513831,9.806452,2.5139004E-4,0.0025231391,-4.7588348E-4,-0.0022013162,0.0022977982,-0.04451674,2017-08-30 17:16:30,60.26280898837972
-0.03919983,-0.047195435,9.766495,1.2207031E-4,-3.0517578E-4,2.89917E-4,216.0,-0.04644371,-0.047924895,9.806423,0.0045122616,0.0033001043,0.015849113,-0.0023353754,0.0024746878,-0.044633955,2017-08-30 17:16:31,64.80270011987012
-0.052703857,-0.055099487,9.75058,1.2207031E-4,-8.087158E-4,2.89917E-4,216.0,-0.042071503,-0.047024958,9.806447,-0.0018928237,-0.003020905,-2.565384E-4,-0.002299812,0.002249605,-0.044488963,2017-08-30 17:16:32,56.3291290835454
-0.043655396,-0.049209595,9.752411,-8.69751E-4,-0.001083374,-6.866455E-4,216.0,-0.043575957,-0.045888063,9.806446,0.0054664873,0.0025025383,0.008367538,-0.0022383851,0.0023237583,-0.044534475,2017-08-30 17:16:34,64.29266871087906
-0.039352417,-0.04272461,9.757797,-4.272461E-4,1.5258789E-4,2.89917E-4,216.0,-0.04472879,-0.048312526,9.806429,0.0028786287,0.0035287514,0.0025520325,-0.0023591525,0.0023880906,-0.044579327,2017-08-30 17:16:35,55.58906067624402
-0.035888672,-0.03829956,9.757935,-2.2888184E-4,1.5258789E-4,2.89917E-4,216.0,-0.04235814,-0.04534479,9.806454,0.0010883324,0.0011600368,-0.0044431686,-0.0022135715,0.002260403,-0.044493213,2017-08-30 17:16:36,58.59158348412112
-0.042175293,-0.04144287,9.765411,3.0517578E-4,1.5258789E-4,2.89917E-4,216.0,-0.041654605,-0.04701987,9.806449,0.0035089552,0.0031228624,0.003227234,-0.0023005286,0.002228327,-0.04447538,2017-08-30 17:16:37,59.109132526937394
-0.042785645,-0.047088623,9.756546,1.2207031E-4,1.5258789E-4,-5.950928E-4,216.0,-0.044941574,-0.047066614,9.806435,-0.0070535056,-0.0057941787,-0.0039138794,-0.0022951998,0.0023961037,-0.044582475,2017-08-30 17:16:38,58.70620107328817
-0.044677734,-0.047592163,9.753876,1.2207031E-4,-4.4250488E-4,-3.3569336E-4,216.0,-0.038994193,-0.044356108,9.806473,-0.0058755167,-0.0034544282,-0.0043172836,-0.0022205494,0.002137801,-0.044415064,2017-08-30 17:16:39,61.98453963841934
-0.036209106,-0.040115356,9.759537,-1.373291E-4,1.5258789E-4,-6.5612793E-4,216.0,-0.041184925,-0.045810338,9.806457,0.004138522,0.0013566203,0.0060768127,-0.0022400268,0.002201618,-0.044456452,2017-08-30 17:16:40,65.06040207593445
-0.047180176,-0.047180176,9.752182,1.2207031E-4,-0.0010223389,2.89917E-4,216.0,-0.040735528,-0.048061382,9.806448,-0.012217399,-0.0054316446,-0.008271217,-0.0023557213,0.002183812,-0.044448614,2017-08-30 17:16:41,59.615719802406595
-0.03904724,-0.04701233,9.763199,1.2207031E-4,-6.866455E-4,-5.0354004E-4,216.0,-0.039705902,-0.04607574,9.806461,8.093491E-4,-8.933656E-4,0.0028877258,-0.0022695137,0.00214467,-0.04442095,2017-08-30 17:16:42,58.79740455403345
-0.04046631,-0.04347229,9.752533,1.2207031E-4,-5.950928E-4,2.89917E-4,216.0,-0.040437542,-0.04417947,9.806467,-0.005230725,-0.0024697483,-0.008285522,-0.0021587142,0.0021597892,-0.044427227,2017-08-30 17:16:43,64.80423697092284
-0.054855347,-0.053726196,9.748413,1.2207031E-4,-1.9836426E-4,-5.79834E-4,216.0,-0.039897826,-0.04328935,9.806474,0.0060790703,0.0034718364,0.0019569397,-0.0021146405,0.0021302388,-0.044406995,2017-08-30 17:16:44,63.18606535710228
-0.05480957,-0.05368042,9.749847,1.2207031E-4,1.5258789E-4,-7.4768066E-4,216.0,-0.045510817,-0.04708515,9.806432,-0.010518011,-0.0068988353,-0.004190445,-0.002294451,0.0023750064,-0.044568963,2017-08-30 17:16:45,61.380884236396234
-0.043777466,-0.04486084,9.754959,1.2207031E-4,1.5258789E-4,-4.119873E-4,216.0,-0.045388058,-0.045020275,9.806442,-0.003157664,-0.0020586886,0.0015001297,-0.0021899333,0.0024142119,-0.04459079,2017-08-30 17:16:46,61.716028729555326
-0.041992188,-0.042648315,9.75032,1.2207031E-4,-6.866455E-4,-9.1552734E-4,216.0,-0.042302895,-0.0483165,9.80644,-0.008281399,-0.0031092428,-0.0022621155,-0.002365047,0.002264348,-0.044500392,2017-08-30 17:16:47,61.50722173876034
-0.050064087,-0.05029297,9.750977,-1.2207031E-4,1.5258789E-4,-9.1552734E-4,216.0,-0.042396404,-0.04821688,9.80644,-0.0043228455,-0.0010029078,-0.008343697,-0.0023833746,0.0022793317,-0.044510536,2017-08-30 17:16:48,62.3425327215684
-0.044036865,-0.05291748,9.751007,1.2207031E-4,1.5258789E-4,4.5776367E-5,216.0,-0.043882586,-0.048896346,9.80643,0.0062990375,-1.7283484E-4,0.0041913986,-0.0023908734,0.0023462542,-0.04455356,2017-08-30 17:16:50,61.8230168765085
-0.04762268,-0.047164917,9.754593,1.2207031E-4,-4.8828125E-4,-2.89917E-4,216.0,-0.045739695,-0.046891183,9.806432,-0.0021243058,-5.2113086E-4,-1.001358E-4,-0.0022619367,0.0023819061,-0.04457237,2017-08-30 17:16:51,58.431447653541824
-0.046463013,-0.04534912,9.755051,1.2207031E-4,1.5258789E-4,2.89917E-4,216.0,-0.042897426,-0.046488073,9.806446,-0.011462197,-0.0037079006,-0.0034685135,-0.0022705342,0.0022905134,-0.044514213,2017-08-30 17:16:52,57.39846854337038
-0.043304443,-0.041488647,9.751541,1.2207031E-4,1.5258789E-4,2.89917E-4,216.0,-0.044530638,-0.046481043,9.806438,0.0058928058,0.0066893324,-0.003074646,-0.0022663437,0.0023738071,-0.044567328,2017-08-30 17:16:53,51.63710004909339
-0.049057007,-0.055038452,9.747009,9.1552734E-5,-5.493164E-4,-4.5776367E-4,216.0,-0.04177354,-0.047471195,9.806446,-0.004037529,-0.0060905255,-0.0024318695,-0.002323236,0.002235421,-0.044480614,2017-08-30 17:16:54,55.2558753843893
-0.04585266,-0.04849243,9.751953,9.1552734E-5,-3.6621094E-4,-8.087158E-4,216.0,-0.044217907,-0.04732248,9.806437,-0.001869034,-0.0014206842,-0.0025253296,-0.0023253458,0.0023637454,-0.04456272,2017-08-30 17:16:55,61.448928405321084
-0.03765869,-0.039871216,9.758743,9.1552734E-5,-9.0026855E-4,3.9672852E-4,216.0,-0.044583857,-0.048455104,9.806429,-6.903596E-4,-0.002211526,-0.0022249222,-0.0023667545,0.0023810223,-0.044575043,2017-08-30 17:16:56,58.605188188829075
-0.03730774,-0.043518066,9.764206,9.1552734E-5,2.1362305E-4,-8.087158E-4,216.0,-0.043590356,-0.048002288,9.806436,0.0059009567,0.0036596805,0.0091228485,-0.0023170442,0.0023201313,-0.04453458,2017-08-30 17:16:57,65.62334586699728
-0.044952393,-0.049804688,9.757217,9.1552734E-5,3.3569336E-4,-8.087158E-4,216.0,-0.0447054,-0.048650615,9.806428,-0.005900983,-0.007270146,-0.007013321,-0.0023764258,0.0023876682,-0.04457959,2017-08-30 17:16:58,60.27962770296899
-0.049331665,-0.048919678,9.747955,9.1552734E-5,-9.0026855E-4,-3.0517578E-5,216.0,-0.042403318,-0.049457155,9.806434,-1.3324618E-4,0.0035111457,0.0015668869,-0.0024229044,0.002272068,-0.04450711,2017-08-30 17:16:59,63.53309934422455
-0.054260254,-0.04888916,9.751541,9.1552734E-5,3.3569336E-4,3.9672852E-4,216.0,-0.04307829,-0.048072558,9.8064375,0.002837684,0.0017295331,0.008255959,-0.0023508063,0.0023033477,-0.04452489,2017-08-30 17:17:00,63.0916953604065
-0.048233032,-0.05316162,9.755814,9.1552734E-5,-9.0026855E-4,3.9672852E-4,216.0,-0.042821206,-0.04793429,9.806439,-0.00621197,-0.006109625,-0.003255844,-0.0023124625,0.0022580193,-0.04449473,2017-08-30 17:17:01,62.33518360774313
-0.04333496,-0.05050659,9.756622,9.1552734E-5,-2.1362305E-4,3.9672852E-4,216.0,-0.042545173,-0.047048155,9.806445,0.0045989715,0.0029996708,0.0022773743,-0.0022998839,0.0022738199,-0.044504445,2017-08-30 17:17:02,61.33088008700571
-0.035720825,-0.044265747,9.763245,9.1552734E-5,-9.0026855E-4,-8.087158E-4,216.0,-0.04139602,-0.04734118,9.806449,0.0061788335,0.0077909976,0.0087070465,-0.0023174975,0.0022158672,-0.044467937,2017-08-30 17:17:03,61.955802853453775
-0.047546387,-0.053985596,9.752441,9.1552734E-5,-7.171631E-4,-6.1035156E-4,216.0,-0.039686564,-0.045221943,9.806465,-2.8805062E-4,-0.0030196086,0.0015945435,-0.0022135598,0.002123852,-0.044405933,2017-08-30 17:17:04,56.59045305088783
-0.04081726,-0.044189453,9.75708,9.1552734E-5,1.5258789E-5,3.9672852E-4,216.0,-0.04368276,-0.046680667,9.806441,-0.00710937,-0.0047382712,-0.00365448,-0.002278501,0.002331012,-0.04454035,2017-08-30 17:17:06,57.021957094441134
-0.03630066,-0.04147339,9.7642975,9.1552734E-5,-2.593994E-4,3.9672852E-4,216.0,-0.044560205,-0.0463073,9.806439,0.009052072,0.004808709,0.011744499,-0.0022574256,0.0023749191,-0.044567764,2017-08-30 17:17:07,54.68514070311937
-0.04498291,-0.053970337,9.7491,9.1552734E-5,6.1035156E-5,-5.493164E-4,216.0,-0.041983336,-0.043614935,9.806463,-0.0065376535,-0.004105564,-0.006778717,-0.0021263491,0.0022373502,-0.0444758,2017-08-30 17:17:08,61.72860486113491
-0.035888672,-0.043930054,9.764069,9.1552734E-5,2.593994E-4,-8.087158E-4,216.0,-0.037272584,-0.042268295,9.806488,0.00123569,0.0016735233,0.0011816025,-0.0020687522,0.0019940245,-0.044318553,2017-08-30 17:17:09,60.64963848031671
-0.04182434,-0.045822144,9.754456,9.1552734E-5,-9.0026855E-4,3.9672852E-4,216.0,-0.042221792,-0.04568778,9.806453,1.6635284E-4,-3.8443133E-4,0.0016775131,-0.0022096669,0.0022125992,-0.04446254,2017-08-30 17:17:10,61.36492952004873
-0.040039063,-0.042404175,9.751663,9.1552734E-5,-4.119873E-4,-7.6293945E-5,216.0,-0.040137712,-0.04355088,9.806471,-0.010555759,-0.007893022,-0.007938385,-0.0021274004,0.0021430682,-0.044415582,2017-08-30 17:17:11,59.18249473227786
-0.051330566,-0.0549469,9.753235,9.1552734E-5,-1.5258789E-5,-4.7302246E-4,216.0,-0.04451972,-0.047227163,9.806436,-0.0034190193,-0.0044340417,0.0037021637,-0.002304368,0.0023749508,-0.044569235,2017-08-30 17:17:12,57.41505734157106
-0.03656006,-0.046066284,9.766769,9.1552734E-5,3.3569336E-4,-8.087158E-4,216.0,-0.0424619,-0.0473961,9.806444,0.0023423657,-0.0057187118,0.012212753,-0.0023177995,0.002270364,-0.044502787,2017-08-30 17:17:13,61.13933325834837
-0.043762207,-0.045928955,9.757477,9.1552734E-5,-4.119873E-4,3.9672852E-4,216.0,-0.044019632,-0.046260323,9.806442,1.1976436E-4,-5.532019E-4,0.0018062592,-0.002223067,0.002350388,-0.044551022,2017-08-30 17:17:14,60.88297856898276
-0.050567627,-0.047424316,9.74646,9.1552734E-5,-7.6293945E-5,3.9672852E-4,216.0,-0.04175027,-0.046008166,9.806454,-0.005097203,-0.0061104223,-0.004734993,-0.0022487794,0.0022309055,-0.04447544,2017-08-30 17:17:15,70.68964715733985
-0.038208008,-0.041793823,9.756439,9.1552734E-5,-9.0026855E-4,1.6784668E-4,216.0,-0.039794497,-0.045489654,9.806464,0.001775872,0.0019329339,0.004488945,-0.0022269422,0.0021299652,-0.04441025,2017-08-30 17:17:16,67.28030575270411
-0.048309326,-0.051071167,9.751083,9.1552734E-5,-6.4086914E-4,-5.493164E-4,216.0,-0.044302516,-0.04691969,9.8064375,-0.0042336322,-0.0043917,-0.0051469803,-0.002300293,0.0023765496,-0.04457013,2017-08-30 17:17:17,70.03962031464255
-0.035614014,-0.040267944,9.76767,9.1552734E-5,-3.2043457E-4,-2.2888184E-4,216.0,-0.041464955,-0.043995395,9.806464,-9.1167167E-4,0.0038037486,0.004014969,-0.0021469384,0.002211775,-0.04446009,2017-08-30 17:17:18,50.731228488708155
-0.04626465,-0.041992188,9.759811,9.1552734E-5,-9.0026855E-4,-8.087158E-4,216.0,-0.038476095,-0.044120897,9.806476,-0.0044999607,-0.0039490126,-0.001200676,-0.0021603052,0.0020596099,-0.04436325,2017-08-30 17:17:19,54.943820431619635
-0.039657593,-0.04449463,9.757706,9.1552734E-5,3.3569336E-4,3.9672852E-4,216.0,-0.04441224,-0.046749543,9.806438,0.0047713257,0.0021077655,0.0016202927,-0.002284473,0.0023811397,-0.044572577,2017-08-30 17:17:20,59.498199760378235
-0.041534424,-0.04701233,9.766144,9.1552734E-5,-5.493164E-4,3.9672852E-4,216.0,-0.04519535,-0.048209272,9.806428,0.008558031,0.0030127242,0.0076351166,-0.0023527967,0.0024116554,-0.0445942,2017-08-30 17:17:22,59.74631864114116
-0.04840088,-0.049987793,9.753296,9.1552734E-5,3.3569336E-4,3.9672852E-4,216.0,-0.044720285,-0.04844461,9.806429,-0.0046112426,-0.0022761822,-0.006354332,-0.0023419096,0.0023500416,-0.04455447,2017-08-30 17:17:23,56.016307868406344
-0.033843994,-0.036209106,9.757751,9.1552734E-5,1.0681152E-4,3.9672852E-4,216.0,-0.04195448,-0.044390067,9.80646,3.3496693E-4,0.002331283,-0.0010957718,-0.0021658933,0.0022376413,-0.044477202,2017-08-30 17:17:24,53.49476319045296
-0.0438385,-0.046798706,9.755203,9.1552734E-5,3.3569336E-4,3.9672852E-4,216.0,-0.038825635,-0.043590385,9.806477,0.0035848431,0.0034433007,2.4700165E-4,-0.0021324721,0.002076235,-0.044373028,2017-08-30 17:17:25,59.22003322247737
-0.039505005,-0.047912598,9.761536,-6.866455E-4,-9.0026855E-4,3.9672852E-4,216.0,-0.04043549,-0.045037758,9.806463,0.0012785234,-0.0014375523,0.00833416,-0.002202431,0.0021616346,-0.04442974,2017-08-30 17:17:26,63.51692488271186
-0.042816162,-0.047561646,9.761948,8.69751E-4,3.3569336E-4,-3.6621094E-4,216.0,-0.039507348,-0.043147597,9.806476,-0.009838227,-0.0095883235,-0.0055732727,-0.002108332,0.0021100007,-0.044393867,2017-08-30 17:17:27,54.30107968540306
-0.04084778,-0.045425415,9.762192,9.1552734E-5,3.3569336E-4,3.9672852E-4,216.0,-0.042073052,-0.046812374,9.806448,3.0023232E-4,-0.0031795502,0.001786232,-0.0022889818,0.0022492004,-0.04448837,2017-08-30 17:17:28,55.238042794998925
-0.047790527,-0.04525757,9.753296,9.1552734E-5,1.2207031E-4,-8.087158E-4,216.0,-0.044111807,-0.047746923,9.806435,-0.0067845546,-0.0049542636,-0.0045309067,-0.0023317966,0.0023553276,-0.044557538,2017-08-30 17:17:29,56.73128985134945
-0.036392212,-0.046066284,9.76741,-4.4250488E-4,-2.1362305E-4,-2.746582E-4,216.0,-0.040900707,-0.04762056,9.806449,-0.0010230653,-0.0022283979,0.005493164,-0.0023328848,0.002191236,-0.04445266,2017-08-30 17:17:30,51.864324825491266
-0.035079956,-0.03744507,9.76442,9.1552734E-5,-5.493164E-4,3.9672852E-4,216.0,-0.038201977,-0.04287226,9.806482,0.0025055185,0.0058125556,0.004181862,-0.0021284353,0.002021773,-0.044338096,2017-08-30 17:17:31,53.31291828326968
-0.036193848,-0.04800415,9.769608,9.1552734E-5,-9.0026855E-4,3.9672852E-4,216.0,-0.038221084,-0.04366482,9.8064785,-0.0012362823,-0.0035829097,-0.0013942719,-0.002137671,0.0020455683,-0.044353586,2017-08-30 17:17:32,57.971579360441304
-0.048187256,-0.049316406,9.751053,9.1552734E-5,3.3569336E-4,3.9672852E-4,216.0,-0.040064216,-0.04662817,9.8064575,-0.004107956,-0.0020469949,1.6117096E-4,-0.0022842968,0.00214631,-0.04442245,2017-08-30 17:17:33,54.05332519629319
-0.036361694,-0.04310608,9.764603,9.1552734E-5,-3.0517578E-4,3.9672852E-4,216.0,-0.04181814,-0.04784356,9.806444,6.73376E-4,-4.7411397E-4,0.0034561157,-0.0023420958,0.0022385432,-0.04448319,2017-08-30 17:17:34,60.3582891880545
-0.03778076,-0.041778564,9.757767,9.1552734E-5,6.1035156E-5,1.5258789E-4,216.0,-0.041086953,-0.04284844,9.806471,0.004209377,-0.006216597,0.005558014,-0.0020894085,0.002189888,-0.04444434,2017-08-30 17:17:35,59.573356733236345
-0.039718628,-0.038513184,9.756958,9.1552734E-5,-9.0026855E-4,-7.324219E-4,216.0,-0.039450698,-0.043213136,9.806476,-0.0011729412,-0.0010156892,0.006661415,-0.002111802,0.00210726,-0.044392224,2017-08-30 17:17:36,58.6816971059104
-0.0423584,-0.050338745,9.757706,-3.0517578E-4,-9.0026855E-4,-4.119873E-4,216.0,-0.04252063,-0.047372308,9.806443,-0.0050864816,-0.0031142794,-0.0017747879,-0.0023164502,0.002273306,-0.044504628,2017-08-30 17:17:38,60.25775493472323
-0.03741455,-0.040924072,9.763428,9.1552734E-5,-9.0026855E-4,3.9672852E-4,216.0,-0.04149301,-0.04571192,9.806456,-0.005765531,-0.002804514,-0.0010538101,-0.002234294,0.0022171093,-0.04446618,2017-08-30 17:17:39,63.84466340142413
-0.04347229,-0.047851563,9.760071,9.1552734E-5,-9.0026855E-4,3.9672852E-4,216.0,-0.041569203,-0.044292927,9.806462,-1.8129125E-4,-0.0010240935,0.0010566711,-0.0021618474,0.0022177687,-0.04446438,2017-08-30 17:17:40,62.680693968959574
-0.045898438,-0.046661377,9.755676,9.1552734E-5,-9.0026855E-4,3.9672852E-4,216.0,-0.040920157,-0.0462239,9.806456,-5.827211E-4,-3.3797696E-4,0.0052452087,-0.0022617083,0.0021890528,-0.044449084,2017-08-30 17:17:41,60.33141232292385
-0.047973633,-0.04676819,9.758453,9.1552734E-5,-9.0026855E-4,-3.2043457E-4,216.0,-0.037017662,-0.044530142,9.806479,-0.007879429,0.0012793876,0.0013008118,-0.002184541,0.0019861478,-0.044317033,2017-08-30 17:17:42,53.75224716738473
-0.04711914,-0.052719116,9.748215,9.1552734E-5,-5.0354004E-4,3.9672852E-4,216.0,-0.042289864,-0.047414925,9.806444,-0.010205213,-0.0074546337,-0.013763428,-0.0023191613,0.0022616314,-0.044497244,2017-08-30 17:17:43,59.4049612171338
-0.033493042,-0.043563843,9.77211,9.1552734E-5,-9.0026855E-4,1.6784668E-4,216.0,-0.041920103,-0.04573915,9.806454,-0.004199911,-0.0045042746,-0.0016584396,-0.0022346815,0.0022389565,-0.044480156,2017-08-30 17:17:44,59.915008277436144
-0.04307556,-0.051620483,9.766373,9.1552734E-5,7.6293945E-5,3.9672852E-4,216.0,-0.03879342,-0.046954107,9.806461,-0.0044457093,0.0029176325,0.003578186,-0.0023038608,0.0020822256,-0.04438208,2017-08-30 17:17:45,48.818401250661395
-0.038909912,-0.04499817,9.766937,9.1552734E-5,-2.593994E-4,3.9672852E-4,216.0,-0.03825988,-0.04584715,9.806468,-7.9661235E-4,6.7333505E-4,-0.0019607544,-0.0022532695,0.0020521022,-0.04436128,2017-08-30 17:17:46,59.43644207522168
-0.047729492,-0.04866028,9.75209,-2.1362305E-4,3.3569336E-4,3.9672852E-4,216.0,-0.038373914,-0.044944495,9.806472,-0.0036803968,-0.0016222112,-0.0069007874,-0.002202489,0.0020562666,-0.044362396,2017-08-30 17:17:47,57.03895191870782
-0.035858154,-0.04536438,9.763794,-0.0010986328,-9.0026855E-4,3.9672852E-4,216.0,-0.035919297,-0.046063665,9.806477,-0.0011710227,-6.069839E-4,2.4318695E-4,-0.002211193,0.0018760136,-0.04424744,2017-08-30 17:17:48,60.82446474221064
-0.038635254,-0.046844482,9.770935,9.1552734E-5,3.3569336E-4,7.6293945E-4,216.0,-0.036747474,-0.046566855,9.806471,-0.001350604,2.1960959E-4,0.0023069382,-0.0022888992,0.001976982,-0.04431434,2017-08-30 17:17:49,56.00253551067392
-0.03869629,-0.044418335,9.772827,9.1552734E-5,-9.0026855E-4,3.9672852E-4,216.0,-0.036329463,-0.04591981,9.806476,-0.0024777912,0.0011129864,0.0031232834,-0.0022457992,0.0019549944,-0.044298977,2017-08-30 17:17:50,62.171428836761606
-0.039520264,-0.048980713,9.774643,9.1552734E-5,-9.0026855E-4,0.0014190674,216.0,-0.035941128,-0.04752483,9.806469,-0.0046630017,-7.024184E-4,-3.080368E-4,-0.002339562,0.0019380198,-0.044290964,2017-08-30 17:17:51,53.04367395589415
-0.036117554,-0.043930054,9.770248,9.1552734E-5,2.1362305E-4,3.9672852E-4,216.0,-0.03635358,-0.047437545,9.806468,-0.0042441525,4.0099025E-5,-0.0028429031,-0.0023341589,0.0019588622,-0.044304125,2017-08-30 17:17:52,57.574188865450665
-0.041275024,-0.047912598,9.772293,3.0517578E-5,-3.5095215E-4,3.6621094E-4,216.0,-0.03656984,-0.045588445,9.806476,-8.747019E-4,-0.00333393,0.0029449463,-0.0022394813,0.0019657037,-0.04430563,2017-08-30 17:17:54,55.11523326423276
-0.03779602,-0.038986206,9.767761,3.0517578E-5,-3.5095215E-4,8.087158E-4,216.0,-0.03691115,-0.04492427,9.806478,-0.0048401654,4.1734427E-4,0.0011491776,-0.0022048617,0.001981608,-0.044314746,2017-08-30 17:17:55,56.16721043601055
-0.03857422,-0.045135498,9.774445,3.0517578E-5,-3.5095215E-4,5.187988E-4,216.0,-0.038375493,-0.04735844,9.80646,-4.5485795E-6,0.0017411336,0.0033845901,-0.0023087605,0.00207815,-0.04437962,2017-08-30 17:17:56,61.98132076843811
-0.04385376,-0.052215576,9.761765,3.0517578E-5,-3.5095215E-4,-4.272461E-4,216.0,-0.03881561,-0.04636023,9.806464,-0.004048422,-2.3294985E-4,-0.006128311,-0.002273563,0.0020820096,-0.04438102,2017-08-30 17:17:57,62.38567986709214
-0.034179688,-0.04801941,9.770142,3.0517578E-5,-3.5095215E-4,-4.272461E-4,216.0,-0.035399966,-0.043877717,9.806488,0.0010873675,-0.004306432,4.720688E-4,-0.002161795,0.0019031325,-0.04426328,2017-08-30 17:17:58,54.72923448154559
-0.043533325,-0.049362183,9.760925,3.0517578E-5,-3.5095215E-4,-4.272461E-4,216.0,-0.038560066,-0.045463055,9.806469,-0.0051409826,-0.004096877,-0.0028886795,-0.0022237962,0.0020449609,-0.044355817,2017-08-30 17:17:59,57.88175995394444
-0.04586792,-0.054855347,9.755157,3.0517578E-5,-3.5095215E-4,-4.272461E-4,216.0,-0.040190767,-0.047291275,9.806454,-0.0062545612,-0.008183222,-0.006670952,-0.0022980322,0.0021331343,-0.04441445,2017-08-30 17:18:00,53.77161951854266
-0.040878296,-0.048538208,9.777542,3.0517578E-5,5.79834E-4,5.187988E-4,216.0,-0.039199874,-0.04708962,9.806458,-0.003431715,-0.0030613802,0.0040340424,-0.0023098153,0.0021032672,-0.04439571,2017-08-30 17:18:01,60.8470254827106
-0.03866577,-0.04710388,9.775879,3.0517578E-5,-3.5095215E-4,8.087158E-4,216.0,-0.037053198,-0.04664365,9.806469,-0.0050240792,-2.0903349E-4,-0.0049533844,-0.0022920999,0.0019927511,-0.044324517,2017-08-30 17:18:02,60.755953172996925
-0.038711548,-0.048294067,9.768021,3.0517578E-5,-3.5095215E-4,-4.272461E-4,216.0,-0.035537478,-0.04696913,9.806474,-0.0031977706,-0.0012982301,-0.0036945343,-0.002321832,0.0019218437,-0.044280082,2017-08-30 17:18:03,65.80233102990404
-0.035461426,-0.044540405,9.76561,3.0517578E-5,-3.5095215E-4,-4.272461E-4,216.0,-0.036479,-0.04383866,9.806484,0.0071454123,0.0026932545,-6.313324E-4,-0.002150575,0.0019571057,-0.044297438,2017-08-30 17:18:04,64.44636476271202
-0.04374695,-0.047424316,9.760452,3.0517578E-5,-3.5095215E-4,-4.272461E-4,216.0,-0.037985023,-0.044748705,9.806475,-5.575605E-4,0.0014232658,0.003312111,-0.0021934225,0.002035986,-0.044349156,2017-08-30 17:18:05,58.95515407306006
-0.042160034,-0.046142578,9.7548065,3.0517578E-5,8.8500977E-4,7.6293945E-5,216.0,-0.03683539,-0.042047445,9.806491,8.905977E-4,8.305721E-4,-0.0033483505,-0.00205852,0.0019712257,-0.044303674,2017-08-30 17:18:06,60.76999630852789
-0.03665161,-0.042297363,9.753738,3.0517578E-5,-3.5095215E-4,-4.272461E-4,216.0,-0.036467947,-0.042307544,9.806491,0.0040306672,-0.0021129288,0.010539055,-0.0020726204,0.001953074,-0.044292502,2017-08-30 17:18:07,60.05901932032532
-0.03831482,-0.045043945,9.756729,3.0517578E-5,-3.5095215E-4,-4.272461E-4,216.0,-0.038212918,-0.04321726,9.80648,-0.00746534,-0.0053547695,-0.008188248,-0.0021148957,0.0020441366,-0.044351976,2017-08-30 17:18:08,62.492856545510065
-0.033309937,-0.03894043,9.757294,3.0517578E-5,-3.5095215E-4,-4.272461E-4,216.0,-0.037407,-0.044053417,9.806479,-1.5627593E-4,0.0014479868,-0.0014743805,-0.0021593564,0.0020049263,-0.04432827,2017-08-30 17:18:10,56.39308914763886
-0.03538513,-0.038223267,9.750534,3.0517578E-5,-3.5095215E-4,-0.0016326904,216.0,-0.03430511,-0.0423556,9.806499,0.0018113852,0.0034236535,0.0012369156,-0.0020800817,0.0018428698,-0.044222303,2017-08-30 17:18:11,61.75141433681138
-0.043548584,-0.045211792,9.742142,3.0517578E-5,-3.5095215E-4,-6.5612793E-4,216.0,-0.037935812,-0.04386261,9.8064785,0.0011369064,0.0061215423,0.0038452148,-0.0021484084,0.0020314665,-0.0443449,2017-08-30 17:18:12,52.45691201816959
-0.044662476,-0.0501709,9.728897,3.0517578E-5,-3.5095215E-4,-0.0016326904,216.0,-0.041927777,-0.046963654,9.806448,-0.0053694993,-0.0014209002,-0.013991356,-0.0022970263,0.002242134,-0.0444841,2017-08-30 17:18:13,46.856853587433235
-0.03881836,-0.046661377,9.737808,3.0517578E-5,-3.5095215E-4,-0.0022125244,216.0,-0.044194277,-0.047957562,9.806434,0.0056887455,9.5008686E-4,0.006295204,-0.002341831,0.0023934976,-0.04458225,2017-08-30 17:18:14,61.263523819957975
-0.046661377,-0.047729492,9.720978,3.0517578E-5,-3.5095215E-4,-0.0028686523,216.0,-0.044548277,-0.048134502,9.806431,-0.0015708879,-0.001598075,-0.0047283173,-0.00235051,0.0023784763,-0.044572916,2017-08-30 17:18:15,57.45903178359573
-0.05366516,-0.05378723,9.715103,3.0517578E-5,8.544922E-4,-0.0016326904,216.0,-0.045639362,-0.051113844,9.806411,-0.008392915,-0.0030845404,-0.012426376,-0.0024998984,0.0024365517,-0.044614673,2017-08-30 17:18:16,60.04279602283751
-0.044952393,-0.05281067,9.723404,3.0517578E-5,5.187988E-4,-0.0019836426,216.0,-0.04395201,-0.0488785,9.80643,0.0016347393,-0.0059749335,0.001496315,-0.0023898014,0.002349755,-0.044555765,2017-08-30 17:18:17,60.51944434883811
-0.046813965,-0.05052185,9.726807,3.0517578E-5,8.8500977E-4,-0.0021820068,216.0,-0.049402107,-0.048474416,9.806406,0.001555454,-0.0028150752,-0.004178047,-0.0023376702,0.0025923934,-0.044709276,2017-08-30 17:18:18,63.51304930202215
-0.04777527,-0.04324341,9.732605,3.0517578E-5,8.8500977E-4,-0.0028686523,216.0,-0.048220057,-0.048750523,9.806411,0.0068730935,0.0013415031,0.010141373,-0.0023732323,0.0025671895,-0.04469427,2017-08-30 17:18:19,65.3569013554719
-0.048934937,-0.056732178,9.719788,3.0517578E-5,8.8500977E-4,-0.0028686523,216.0,-0.04863776,-0.04798977,9.806412,0.0070113204,7.2266906E-4,-0.0019283295,-0.0023335023,0.002586758,-0.044705544,2017-08-30 17:18:20,62.25341887594362
-0.04248047,-0.0448761,9.738205,3.0517578E-5,4.272461E-4,-0.0024108887,216.0,-0.046478417,-0.047522772,9.806425,0.0038163029,-4.5266002E-5,0.00480175,-0.0023148144,0.0024755402,-0.04463386,2017-08-30 17:18:21,56.46325248345277
-0.0413208,-0.048233032,9.738556,3.0517578E-5,8.8500977E-4,-0.0028686523,216.0,-0.049194135,-0.048577655,9.806406,0.0091539845,0.005968895,0.009930611,-0.0023621263,0.0026164846,-0.04472544,2017-08-30 17:18:22,62.11786509485472
-0.050048828,-0.05255127,9.718796,3.0517578E-5,8.8500977E-4,-0.0028686523,216.0,-0.047285978,-0.049320053,9.806412,0.009640068,0.005968068,0.0068683624,-0.0024044423,0.002520841,-0.04466561,2017-08-30 17:18:23,55.86606557779497
-0.048461914,-0.047851563,9.723038,3.0517578E-5,8.8500977E-4,-0.0028686523,216.0,-0.048988383,-0.046666373,9.8064165,0.001570113,-0.0021289587,-0.0051841736,-0.002265276,0.002601617,-0.044712912,2017-08-30 17:18:24,56.90660707452055
-0.047561646,-0.047302246,9.729599,3.0517578E-5,8.8500977E-4,-0.0028686523,216.0,-0.04850225,-0.046656843,9.806419,0.0011687614,0.0020381212,-0.0011358261,-0.0022659395,0.002576798,-0.04469707,2017-08-30 17:18:26,56.645929462371704
-0.04547119,-0.0544281,9.734848,3.0517578E-5,0.0,-0.0028686523,216.0,-0.05198277,-0.051136907,9.806379,0.0052326582,-0.0021370612,-0.0020990372,-0.0024858515,0.0027646073,-0.044824027,2017-08-30 17:18:27,64.66860960441632
-0.050048828,-0.04940796,9.722397,3.0517578E-5,-1.5258789E-4,-0.0028686523,216.0,-0.05326321,-0.050742116,9.806375,0.0053702556,-0.0027155392,-0.0034837723,-0.002462702,0.002829024,-0.044864487,2017-08-30 17:18:28,64.69714772486094
-0.05114746,-0.046081543,9.743301,3.0517578E-5,8.8500977E-4,-0.0016326904,216.0,-0.05123074,-0.048173063,9.806398,0.0071728006,0.006854303,0.008991241,-0.0023366972,0.002719449,-0.04479047,2017-08-30 17:18:29,71.39978864127032
-0.051864624,-0.0491333,9.747833,-5.950928E-4,8.8500977E-4,-0.0022583008,216.0,-0.05307104,-0.049043514,9.806384,3.2577664E-5,-0.0034801178,0.0040826797,-0.0023766556,0.0028153225,-0.044853017,2017-08-30 17:18:30,68.40963219221331
-0.038909912,-0.042053223,9.743881,3.0517578E-5,0.0018157959,-0.0028686523,216.0,-0.050936915,-0.04578401,9.806411,0.00855495,-1.4896691E-4,-0.0028944016,-0.002215727,0.0026989891,-0.044773597,2017-08-30 17:18:31,65.04854261383484
-0.04145813,-0.044815063,9.745895,3.0517578E-5,8.8500977E-4,-0.0027923584,216.0,-0.052674484,-0.047164932,9.806396,0.016895562,0.009086221,0.010420799,-0.0022819287,0.0027907845,-0.044834346,2017-08-30 17:18:32,65.13850421079766
-0.049057007,-0.04953003,9.731247,3.0517578E-5,8.8500977E-4,-0.0020141602,216.0,-0.047277723,-0.045476492,9.806431,-1.755096E-4,-0.0035978667,-0.0108270645,-0.0022087174,0.0025116396,-0.044653643,2017-08-30 17:18:33,62.505517503392255
-0.043258667,-0.05255127,9.739487,3.0517578E-5,8.8500977E-4,-0.0023498535,216.0,-0.05086864,-0.048728917,9.806397,0.0041816905,-0.0033444501,-0.0049562454,-0.0023658639,0.0027022513,-0.04478039,2017-08-30 17:18:34,69.45311960166606
-0.04083252,-0.04940796,9.746002,3.0517578E-5,8.8500977E-4,-0.0028686523,216.0,-0.04995847,-0.048488814,9.806403,-1.8917024E-5,-0.004907094,-0.005426407,-0.002251609,0.0026183333,-0.04472317,2017-08-30 17:18:35,69.21287147041038
-0.039352417,-0.045211792,9.744171,3.0517578E-5,8.8500977E-4,-0.0028686523,216.0,-0.05184421,-0.04992927,9.806386,0.012629662,0.0047486313,0.0073947906,-0.0024432444,0.0027816503,-0.044833586,2017-08-30 17:18:36,66.91876915630833
-0.04850769,-0.047958374,9.734375,3.0517578E-5,8.8500977E-4,-0.0021209717,216.0,-0.054960422,-0.04910182,9.806374,0.0012331381,-0.0012719035,-9.2601776E-4,-0.0023751254,0.0029118387,-0.044914667,2017-08-30 17:18:37,64.69308214761806
-0.0526886,-0.046905518,9.737595,3.0517578E-5,8.8500977E-4,-0.0016326904,216.0,-0.05425608,-0.050014272,9.806373,2.7995557E-5,5.930774E-4,-0.0037183762,-0.002423272,0.0028780042,-0.04489456,2017-08-30 17:18:38,58.297390688677865
-0.043441772,-0.048797607,9.736389,-2.2888184E-4,8.8500977E-4,-0.0028686523,216.0,-0.053784482,-0.048167843,9.806384,0.009323273,-0.0023878664,0.004734993,-0.0023303635,0.002849707,-0.044873536,2017-08-30 17:18:39,46.41464628800178
-0.052627563,-0.05316162,9.732361,3.0517578E-5,8.8500977E-4,-0.0016326904,216.0,-0.05220105,-0.049316417,9.806387,-0.001038082,-0.004893437,-0.0032978058,-0.00235766,0.002757891,-0.0448157,2017-08-30 17:18:40,55.22674445825736
-0.05230713,-0.048431396,9.731155,-5.493164E-4,8.8500977E-4,-0.0028686523,216.0,-0.054089095,-0.050292898,9.806372,0.006312974,0.006206788,7.1048737E-4,-0.002437859,0.0028701255,-0.044889983,2017-08-30 17:18:42,55.22938578795049
-0.049209595,-0.045898438,9.741043,-2.89917E-4,8.8500977E-4,-0.002532959,216.0,-0.054619707,-0.049938075,9.806371,-0.0036871098,-0.0029799528,0.0038337708,-0.002418525,0.0028963792,-0.044906158,2017-08-30 17:18:43,58.215979158618566
-0.04815674,-0.047027588,9.732803,3.0517578E-5,-3.5095215E-4,-0.0028686523,216.0,-0.051527657,-0.049378723,9.806391,0.008000802,-6.816164E-5,-0.0022659302,-0.0023973933,0.0027373587,-0.044803824,2017-08-30 17:18:44,60.53289795935594
-0.052978516,-0.046661377,9.733017,3.0517578E-5,8.8500977E-4,-0.0028686523,216.0,-0.05443095,-0.049584918,9.806374,5.8423728E-5,0.0021996908,-0.0014181137,-0.0023849036,0.0028339894,-0.04486521,2017-08-30 17:18:45,59.033231292289194
-0.044433594,-0.04473877,9.73497,3.0517578E-5,8.8500977E-4,-0.0028686523,216.0,-0.051861048,-0.04703147,9.8064,0.012037519,0.0071197934,0.0052375793,-0.002277064,0.0027489855,-0.044807475,2017-08-30 17:18:46,59.00637091454577
-0.051452637,-0.054489136,9.742584,-1.9836426E-4,8.8500977E-4,-0.0028686523,216.0,-0.05039168,-0.046305027,9.806412,-0.004326254,-0.006127391,-0.0016441345,-0.0022435526,0.0026723705,-0.044757456,2017-08-30 17:18:47,60.98119708624553
-0.045791626,-0.057922363,9.7413025,3.0517578E-5,8.8500977E-4,-0.0028686523,216.0,-0.054223064,-0.051131904,9.806367,-8.119643E-5,-8.369237E-5,-3.0136108E-4,-0.0024802673,0.002878887,-0.044896927,2017-08-30 17:18:48,60.13436641457198
-0.04966736,-0.0496521,9.734589,3.0517578E-5,8.8500977E-4,-0.0028686523,216.0,-0.05343026,-0.04944492,9.80638,0.0039135963,1.0944158E-4,-6.980896E-4,-0.0023962432,0.0028345685,-0.044865936,2017-08-30 17:18:49,59.01339873266924
-0.047790527,-0.051742554,9.724579,3.0517578E-5,8.8500977E-4,-0.0028686523,216.0,-0.05351741,-0.04846432,9.806384,-0.0039774105,-0.0033334978,-2.861023E-5,-0.0023460975,0.0028367636,-0.044865757,2017-08-30 17:18:50,58.77225546193701
-0.04576111,-0.046585083,9.73378,3.0517578E-5,8.8500977E-4,-0.0028686523,216.0,-0.053784132,-0.048130598,9.806384,0.0058215894,0.0025905669,7.1907043E-4,-0.0023284676,0.0028496038,-0.04487341,2017-08-30 17:18:51,57.32687790895665
-0.04396057,-0.04396057,9.74353,3.0517578E-5,8.8500977E-4,-0.0026550293,216.0,-0.055729013,-0.051836543,9.8063545,0.0040855967,7.9907477E-4,-0.0045871735,-0.00251256,0.002957335,-0.044948112,2017-08-30 17:18:52,62.903294927642825
-0.05281067,-0.051437378,9.734848,2.1362305E-4,-7.6293945E-5,-5.0354004E-4,216.0,-0.054894783,-0.04848932,9.806376,0.0063171797,-0.0017840154,-0.0065374374,-0.0023440898,0.0029070831,-0.044910647,2017-08-30 17:18:53,60.36077270442638
-0.03767395,-0.03704834,9.748413,-1.5258789E-4,0.0011291504,7.324219E-4,216.0,-0.052175518,-0.048769563,9.80639,0.0055335276,0.005019862,0.0028743744,-0.0023648327,0.0027690115,-0.044823036,2017-08-30 17:18:54,59.362461561481375
-0.048934937,-0.04612732,9.728561,2.1362305E-4,1.2207031E-4,-2.746582E-4,216.0,-0.051644918,-0.05035092,9.806385,0.0024003536,-0.0014779717,-0.008191109,-0.0024466258,0.0027455692,-0.04481062,2017-08-30 17:18:55,61.326974018310175
-0.049194336,-0.049972534,9.728806,2.1362305E-4,0.0011291504,4.4250488E-4,216.0,-0.050798595,-0.0483807,9.806399,0.0038300864,-0.0022934303,1.0108948E-4,-0.0023482963,0.0026978804,-0.044777043,2017-08-30 17:18:56,67.39038088548087
-0.056732178,-0.051940918,9.741333,-9.918213E-4,0.0011291504,-5.0354004E-4,216.0,-0.051534254,-0.048110135,9.8063965,-0.003791269,-6.539002E-5,0.0014715195,-0.0023327726,0.0027347878,-0.04480015,2017-08-30 17:18:58,66.05410989262309
-0.053146362,-0.05076599,9.73082,2.1362305E-4,-7.6293945E-5,-5.0354004E-4,216.0,-0.051474746,-0.050726328,9.806384,-0.0036718324,0.002619397,-0.005959511,-0.0024661482,0.0027377484,-0.044806235,2017-08-30 17:18:59,64.45472741844922
-0.047546387,-0.044937134,9.733887,-9.918213E-4,-7.6293945E-5,-5.0354004E-4,216.0,-0.04872277,-0.04984137,9.806402,-0.0030007511,0.0016190484,-0.005320549,-0.0024275987,0.0025953297,-0.04471396,2017-08-30 17:19:00,63.858397338547384
-0.04536438,-0.04298401,9.742691,2.1362305E-4,-7.6293945E-5,3.5095215E-4,216.0,-0.049915444,-0.04750663,9.806408,0.0048617907,0.007093057,0.0116176605,-0.0023058748,0.0026508286,-0.04474564,2017-08-30 17:19:01,64.932113608171
-0.051727295,-0.04837036,9.746826,2.1362305E-4,6.1035156E-4,2.2888184E-4,216.0,-0.05011376,-0.046240553,9.806413,-0.0020846985,-0.0029662885,0.0020828247,-0.002213334,0.0026487827,-0.044741433,2017-08-30 17:19:02,60.22432899358935
-0.046417236,-0.046051025,9.732468,2.1362305E-4,-7.6293945E-5,-5.0354004E-4,216.0,-0.04963673,-0.0462574,9.806416,0.004310958,0.0012928732,-0.009871483,-0.0023107259,0.0027096432,-0.044783384,2017-08-30 17:19:03,61.379409585756235
-0.048797607,-0.046447754,9.733032,2.1362305E-4,-7.6293945E-5,-5.0354004E-4,216.0,-0.050746933,-0.047901217,9.806402,6.722286E-5,-0.0038113706,-0.0086221695,-0.0023240002,0.0026941467,-0.044773895,2017-08-30 17:19:04,58.773836130276685
-0.042160034,-0.04273987,9.741531,2.1362305E-4,-7.6293945E-5,-5.0354004E-4,216.0,-0.049354516,-0.047460027,9.806411,0.00865946,0.006320674,0.0030555725,-0.002304829,0.002622109,-0.044727247,2017-08-30 17:19:05,61.53141352272399
-0.050964355,-0.046691895,9.729721,2.1362305E-4,-7.6293945E-5,-5.0354004E-4,216.0,-0.048999727,-0.045902137,9.80642,-0.002424486,5.1220506E-4,-0.003022194,-0.0022263285,0.0026004477,-0.04471095,2017-08-30 17:19:06,60.292735597845464
-0.044692993,-0.044174194,9.73822,2.1362305E-4,-7.6293945E-5,-5.0354004E-4,216.0,-0.049556557,-0.047349103,9.806411,0.0057341605,0.004295267,-4.0245056E-4,-0.002370044,0.0026978108,-0.04477768,2017-08-30 17:19:07,57.17089599395608
-0.047607422,-0.048095703,9.737595,2.1362305E-4,-7.6293945E-5,-5.0354004E-4,216.0,-0.04975864,-0.047292482,9.80641,0.004497595,-0.003045123,0.0032262802,-0.00229534,0.0026423398,-0.04473988,2017-08-30 17:19:08,64.45407040653453
-0.04850769,-0.051437378,9.734741,2.1362305E-4,-7.6293945E-5,-5.0354004E-4,216.0,-0.049872994,-0.048468057,9.806403,0.005973559,0.002381239,-0.0016527176,-0.002354938,0.002650864,-0.044747196,2017-08-30 17:19:09,58.65500183848461
-0.047409058,-0.043807983,9.737228,2.1362305E-4,-7.6293945E-5,-5.0354004E-4,216.0,-0.048802897,-0.045277037,9.806424,6.195381E-4,7.0605427E-4,-1.9359589E-4,-0.002173192,0.0025658223,-0.044687163,2017-08-30 17:19:10,59.08910405667829
-0.053833008,-0.052642822,9.731613,2.1362305E-4,-7.6293945E-5,-5.0354004E-4,216.0,-0.047550503,-0.04531742,9.80643,-0.005989518,-0.0070601925,-0.003733635,-0.002228912,0.0025593182,-0.04468474,2017-08-30 17:19:11,61.82037675274107
-0.04194641,-0.04222107,9.738113,2.1362305E-4,-7.6293945E-5,-5.0354004E-4,216.0,-0.04949193,-0.047309738,9.806411,1.3266876E-4,-0.0015306398,-0.0074100494,-0.00229685,0.0026287746,-0.044731256,2017-08-30 17:19:12,61.22010679606254
-0.05456543,-0.049057007,9.745926,2.1362305E-4,-7.6293945E-5,-5.0354004E-4,216.0,-0.04976836,-0.046487495,9.806414,0.0012853369,9.719357E-4,0.008229256,-0.0022543212,0.0026409936,-0.044737738,2017-08-30 17:19:14,56.76102031151259
-0.041122437,-0.041000366,9.750778,2.1362305E-4,-7.6293945E-5,-5.0354004E-4,216.0,-0.050792083,-0.048409104,9.806399,1.1217594E-4,-3.169328E-4,-1.5926361E-4,-0.0023497583,0.0026976133,-0.04477692,2017-08-30 17:19:15,65.63793502113563
-0.049057007,-0.046920776,9.740982,2.1362305E-4,-1.8310547E-4,-5.0354004E-4,216.0,-0.048956677,-0.048962764,9.806406,-3.75472E-4,5.7661906E-4,-0.0046567917,-0.0023823003,0.0026052522,-0.044718888,2017-08-30 17:19:16,63.150016231370856
-0.05381775,-0.048309326,9.738785,2.1362305E-4,-7.6293945E-5,-5.0354004E-4,216.0,-0.048199173,-0.047449514,9.8064165,-0.0059536397,-0.004668668,-0.001917839,-0.0023070243,0.0025631501,-0.044689626,2017-08-30 17:19:17,68.1208349417029
-0.052001953,-0.050247192,9.737717,2.1362305E-4,-7.6293945E-5,-5.0354004E-4,216.0,-0.050328545,-0.048450895,9.806401,0.0019338168,-0.0036083385,0.0019626617,-0.002352985,0.0026740632,-0.044761963,2017-08-30 17:19:18,58.490891445859496
-0.048950195,-0.050201416,9.731796,2.1362305E-4,-7.6293945E-5,-5.0354004E-4,216.0,-0.049268786,-0.048585158,9.806406,0.0073059388,0.0030411705,0.0056390762,-0.0023623316,0.0026203098,-0.04472789,2017-08-30 17:19:19,63.072769594545235
-0.045318604,-0.045669556,9.73465,-8.239746E-4,-7.6293945E-5,-5.0354004E-4,216.0,-0.045955572,-0.045969114,9.806435,-0.0011422224,-0.0026851706,-0.00713253,-0.0022369209,0.0024453239,-0.044612132,2017-08-30 17:19:20,57.80197321414909
-0.040771484,-0.038375854,9.741699,2.1362305E-4,-7.6293945E-5,-5.0354004E-4,216.0,-0.0481258,-0.04644024,9.806422,0.0041621476,0.005891163,0.0041399,-0.0022557976,0.0025571003,-0.044684164,2017-08-30 17:19:21,61.97503403160056
-0.05227661,-0.043121338,9.758911,-1.6784668E-4,-7.6293945E-5,3.5095215E-4,216.0,-0.048296466,-0.046896588,9.806419,0.005599059,0.009213004,0.009957314,-0.0022786353,0.0025668489,-0.044691104,2017-08-30 17:19:22,61.52179894214214
-0.048080444,-0.05014038,9.729584,2.1362305E-4,-7.6293945E-5,-5.0354004E-4,216.0,-0.049506612,-0.046865236,9.806414,0.0023192354,-0.00239506,-0.0075502396,-0.0023333312,0.002695143,-0.044774823,2017-08-30 17:19:23,53.3344649777062
-0.046661377,-0.044158936,9.733749,-7.324219E-4,-7.6293945E-5,-5.0354004E-4,216.0,-0.04981831,-0.051236518,9.80639,0.003088925,0.0067286976,1.1444092E-4,-0.0024969408,0.0026699859,-0.044763867,2017-08-30 17:19:24,61.75562700340726
-0.055374146,-0.057647705,9.738358,2.1362305E-4,-7.6293945E-5,-0.0011138916,216.0,-0.05095457,-0.05039322,9.806388,-2.8085336E-4,-0.0032947026,-7.8487396E-4,-0.0024504182,0.002710448,-0.044788282,2017-08-30 17:19:25,60.44932621441124
-0.052368164,-0.050476074,9.73999,-7.6293945E-5,-7.6293945E-5,4.4250488E-4,216.0,-0.04947784,-0.05036675,9.806396,-0.0023218468,-0.0029803105,0.004210472,-0.0024525688,0.002635052,-0.04474014,2017-08-30 17:19:26,60.54061996364648
-0.057739258,-0.05041504,9.748047,2.1362305E-4,-7.6293945E-5,-5.0354004E-4,216.0,-0.051663294,-0.04834225,9.806395,0.0032901391,0.0024484992,-0.0040044785,-0.0023442872,0.0027419024,-0.04480506,2017-08-30 17:19:27,59.609211432915956
-0.054229736,-0.051437378,9.735184,2.1362305E-4,-7.6293945E-5,-5.0354004E-4,216.0,-0.04900313,-0.046332195,9.806418,-0.008149866,-0.006026022,0.008255005,-0.0022482222,0.002601605,-0.044712372,2017-08-30 17:19:28,57.616209218586675
-0.053466797,-0.048538208,9.734192,2.1362305E-4,-7.6293945E-5,-5.0354004E-4,216.0,-0.049464535,-0.04573841,9.806418,-0.0047407784,-0.0028095134,-0.0028305054,-0.0022168914,0.0026237823,-0.044725567,2017-08-30 17:19:30,55.08277075764832
-0.047943115,-0.043167114,9.733917,2.1362305E-4,1.0681152E-4,-5.0354004E-4,216.0,-0.050899684,-0.047869932,9.806401,0.00365993,0.0054440573,0.004834175,-0.002322045,0.0027018674,-0.044778768,2017-08-30 17:19:31,56.96378594420199
-0.051467896,-0.048461914,9.742981,2.1362305E-4,-7.6293945E-5,-3.6621094E-4,216.0,-0.052603748,-0.04835367,9.80639,0.009374216,0.0036572404,0.010604858,-0.002342635,0.0027899025,-0.044835694,2017-08-30 17:19:32,52.43011514550957
-0.047729492,-0.04360962,9.735077,2.1362305E-4,6.713867E-4,-5.0354004E-4,216.0,-0.050732356,-0.047694653,9.806403,0.0029728115,0.003693588,-0.0072755814,-0.0023135152,0.0026929302,-0.04477279,2017-08-30 17:19:33,58.6181877962877
-0.050949097,-0.047607422,9.7323,-9.918213E-4,-7.6293945E-5,-5.0354004E-4,216.0,-0.052467592,-0.05170931,9.806374,-0.0024416633,-3.7166104E-4,-0.002825737,-0.00251385,0.0027906543,-0.044841565,2017-08-30 17:19:34,53.900501254660966
-0.0513916,-0.049057007,9.733475,2.1362305E-4,-7.6293945E-5,-7.7819824E-4,216.0,-0.04949338,-0.049042687,9.806402,-0.002057612,5.619675E-4,-0.0055379868,-0.002385101,0.002632814,-0.044736598,2017-08-30 17:19:35,59.35977698161562
-0.047027588,-0.04736328,9.730408,-7.7819824E-4,-7.6293945E-5,-0.0017242432,216.0,-0.050681535,-0.049565982,9.806394,2.710335E-4,-0.005505413,-0.0030536652,-0.0024089369,0.002694624,-0.044776864,2017-08-30 17:19:36,58.79182359268013
-0.05003357,-0.045028687,9.732071,2.1362305E-4,-7.6293945E-5,-0.0017242432,216.0,-0.049852915,-0.048452213,9.806404,4.3445826E-4,0.0044760406,-7.457733E-4,-0.0023541786,0.0026498032,-0.044746492,2017-08-30 17:19:37,40.268170327431875
-0.056137085,-0.049926758,9.737106,-6.5612793E-4,-7.6293945E-5,-5.0354004E-4,216.0,-0.052983616,-0.0496493,9.806381,-5.382113E-4,7.6021627E-4,0.0026750565,-0.002407714,0.0028122528,-0.044852033,2017-08-30 17:19:38,34.5642708568118
-0.061416626,-0.05329895,9.741119,2.1362305E-4,-7.6293945E-5,-5.0354004E-4,216.0,-0.053878758,-0.050375205,9.806373,0.0024722405,0.0023443773,-0.0072402954,-0.0024425515,0.0028595843,-0.044883393,2017-08-30 17:19:39,56.70083097480558
-0.057525635,-0.04963684,9.736313,2.1362305E-4,-7.6293945E-5,-0.0017242432,216.0,-0.05265225,-0.047848623,9.806392,-0.0052580424,-0.002137784,0.0015630722,-0.0023337738,0.0027808205,-0.044829607,2017-08-30 17:19:40,50.292927912403215
-0.04862976,-0.045059204,9.7348175,-3.6621094E-4,-6.713867E-4,-5.0354004E-4,216.0,-0.051683817,-0.046879802,9.806402,0.0050800815,8.749962E-4,-0.004920006,-0.0022697607,0.0027395973,-0.044801246,2017-08-30 17:19:41,41.58393278662598
-0.046081543,-0.046295166,9.739014,-4.5776367E-5,-7.6293945E-5,-5.0354004E-4,216.0,-0.05050265,-0.049442012,9.806396,0.0056291446,-1.8491969E-4,0.004793167,-0.0024030474,0.0026852144,-0.04477066,2017-08-30 17:19:42,49.136851007366076
-0.054504395,-0.054504395,9.744873,2.1362305E-4,-7.6293945E-5,-5.0354004E-4,216.0,-0.04986638,-0.04773688,9.806407,0.0017364025,-3.7794933E-4,-0.009281158,-0.0023177168,0.0026488528,-0.044744745,2017-08-30 17:19:43,42.32511067941341
-0.05545044,-0.05065918,9.731613,-5.950928E-4,-7.6293945E-5,-9.0026855E-4,216.0,-0.051116858,-0.04839296,9.806397,-0.0042182654,-0.0025427826,-0.0039787292,-0.002350745,0.0027392008,-0.044803537,2017-08-30 17:19:44,44.05689386477598
-0.04762268,-0.045928955,9.743622,2.1362305E-4,-7.6293945E-5,-5.0354004E-4,216.0,-0.05092338,-0.04773639,9.806402,1.90638E-4,-0.0041240603,-0.0056829453,-0.0023151878,0.00270277,-0.044779133,2017-08-30 17:19:46,47.62407326272374
-0.04084778,-0.038375854,9.74469,-6.713867E-4,-7.6293945E-5,-5.0354004E-4,216.0,-0.05183176,-0.04846033,9.806394,-6.5571815E-4,0.003504809,0.0011129379,-0.0023499008,0.0027507665,-0.044810902,2017-08-30 17:19:47,54.7757768147175
-0.047195435,-0.04750061,9.724426,2.1362305E-4,9.1552734E-5,-5.0354004E-4,216.0,-0.05200283,-0.04952294,9.806387,0.00497818,-0.0026563853,-0.009237289,-0.00240361,0.0027619295,-0.044819728,2017-08-30 17:19:48,50.48976193244766
-0.048110962,-0.04649353,9.728485,2.1362305E-4,6.2561035E-4,-5.0354004E-4,216.0,-0.052619513,-0.04850611,9.806389,0.0034437962,0.0013142675,-0.008088112,-0.002350361,0.0027910564,-0.044836674,2017-08-30 17:19:49,50.323188880643066
-0.05340576,-0.050704956,9.736923,2.1362305E-4,-7.6293945E-5,-0.0013275146,216.0,-0.052301876,-0.05124667,9.806376,-3.20822E-4,-9.866506E-4,-1.3160706E-4,-0.0024906832,0.0027811388,-0.04483475,2017-08-30 17:19:50,47.87707071480499
-0.051452637,-0.04547119,9.735107,-7.6293945E-4,-7.6293945E-5,-5.0354004E-4,216.0,-0.05395006,-0.04959315,9.806376,-4.9705803E-4,-0.0017474368,-0.010551453,-0.002416661,0.0028782154,-0.044894487,2017-08-30 17:19:51,45.151752497587935
-0.058380127,-0.04727173,9.75145,2.1362305E-4,-7.6293945E-5,-5.0354004E-4,216.0,-0.053131633,-0.04984416,9.806379,0.001324229,0.00532189,0.005665779,-0.0024172857,0.002820251,-0.044857446,2017-08-30 17:19:52,52.15689693926863
-0.05114746,-0.047714233,9.732803,9.1552734E-5,-6.1035156E-5,-4.5776367E-4,216.0,-0.053386115,-0.050943535,9.806373,-0.0012919195,-0.0013676248,-1.8119812E-5,-0.0024726673,0.0028357566,-0.044869106,2017-08-30 17:19:53,47.4024235351206
-0.05152893,-0.045410156,9.731171,9.1552734E-5,-6.1035156E-5,1.6784668E-4,216.0,-0.05227518,-0.049620606,9.806385,0.0025331005,0.0013779216,-0.004712105,-0.0024079368,0.0027760472,-0.04482889,2017-08-30 17:19:54,48.83466254464058
-0.046218872,-0.04284668,9.73645,6.1035156E-5,-6.1035156E-5,-0.0010223389,216.0,-0.05182815,-0.0489668,9.806391,-0.0044784583,7.829182E-4,-0.012127876,-0.0023757021,0.0027517437,-0.04481234,2017-08-30 17:19:55,51.57856890742465
-0.04309082,-0.044296265,9.736725,9.1552734E-5,7.9345703E-4,1.6784668E-4,216.0,-0.048106804,-0.049328502,9.806408,-0.0011484995,-0.0018278025,-5.2165985E-4,-0.002402935,0.0025627338,-0.04469235,2017-08-30 17:19:56,51.80418372033035
-0.05067444,-0.04522705,9.736511,9.1552734E-5,-6.1035156E-5,1.6784668E-4,216.0,-0.052667096,-0.04880345,9.806387,0.002307929,0.0038349442,0.0014429092,-0.002395187,0.002831465,-0.04486392,2017-08-30 17:19:57,51.867778665029206
-0.052322388,-0.048233032,9.733002,9.1552734E-5,-6.1035156E-5,1.6784668E-4,216.0,-0.054281317,-0.048754927,9.806378,-0.007672306,-0.004401017,0.005774498,-0.0023590783,0.0028763993,-0.044891506,2017-08-30 17:19:58,61.441033493685204
-0.046951294,-0.055145264,9.742157,9.1552734E-5,-6.1035156E-5,1.6784668E-4,216.0,-0.04543683,-0.05067837,9.806414,-0.0025023036,0.0021076351,-2.7656555E-4,-0.0024779758,0.0024296083,-0.044609554,2017-08-30 17:19:59,67.36277936150873
-0.045547485,-0.05088806,9.76506,-3.5095215E-4,-6.1035156E-5,0.0014038086,216.0,-0.046422366,-0.051371425,9.806406,-0.005747445,-0.0014685392,0.010207176,-0.0025109507,0.0024814697,-0.044643745,2017-08-30 17:20:00,64.19773212878306
-0.042312622,-0.04710388,9.7586975,9.1552734E-5,-6.1035156E-5,0.0014038086,216.0,-0.042521346,-0.047977112,9.80644,-4.6524778E-4,9.257719E-5,-0.0030822754,-0.0023472507,0.0022747193,-0.044506475,2017-08-30 17:20:02,63.883870890660276
-0.045578003,-0.05393982,9.74556,-1.9836426E-4,-6.1035156E-5,-1.2207031E-4,216.0,-0.04392544,-0.04731501,9.8064375,3.7486106E-4,8.1574544E-4,-0.0050725937,-0.0023102374,0.0023448365,-0.044550166,2017-08-30 17:20:03,58.28597491753101
-0.04232788,-0.0410614,9.743057,9.1552734E-5,-2.746582E-4,-0.0010528564,216.0,-0.043360565,-0.048511777,9.806435,0.0013474189,0.004662972,0.0039072037,-0.0023725128,0.0023187476,-0.044535406,2017-08-30 17:20:04,53.89448708489452
-0.045074463,-0.04727173,9.738693,9.1552734E-5,-6.1035156E-5,-5.0354004E-4,216.0,-0.044655338,-0.048037894,9.806431,1.9702315E-4,0.0018467605,0.0012207031,-0.0023453385,0.0023837173,-0.044576105,2017-08-30 17:20:05,58.03465460600442
-0.044403076,-0.051574707,9.734009,9.1552734E-5,-6.1035156E-5,1.6784668E-4,216.0,-0.046785697,-0.050631523,9.806408,-0.0032767467,-6.955974E-4,-0.00511837,-0.0024724125,0.0024983154,-0.04465332,2017-08-30 17:20:06,55.55454346476001
-0.041397095,-0.04878235,9.73851,9.1552734E-5,-6.1035156E-5,-3.0517578E-5,216.0,-0.045776863,-0.048989836,9.806421,-0.007240087,9.5365196E-4,-0.0064325333,-0.0023911812,0.002443101,-0.044615492,2017-08-30 17:20:07,64.88500957203298
-0.0471344,-0.052322388,9.730698,9.1552734E-5,-6.1035156E-5,-7.4768066E-4,216.0,-0.04507594,-0.048410628,9.806427,-0.002237115,-0.007029351,-0.004550934,-0.0023633325,0.0024060234,-0.044590924,2017-08-30 17:20:08,58.996054191663916
-0.04536438,-0.047790527,9.735245,9.1552734E-5,-6.1035156E-5,-4.5776367E-4,216.0,-0.044211548,-0.05284335,9.806408,-0.0021321736,0.004607223,-3.709793E-4,-0.0025893892,0.0023379624,-0.044554383,2017-08-30 17:20:09,54.52568902178143
-0.04333496,-0.04650879,9.735626,9.1552734E-5,-6.1035156E-5,-9.1552734E-5,216.0,-0.04299107,-0.051419973,9.806421,-8.464642E-4,0.004738353,-7.534027E-5,-0.0025321017,0.0022970834,-0.04452647,2017-08-30 17:20:10,60.233880217123136
-0.048858643,-0.05368042,9.718826,9.1552734E-5,-0.0012359619,-9.765625E-4,216.0,-0.04495935,-0.04913868,9.806424,0.0012786537,0.005105406,0.0036830902,-0.002400685,0.0024017366,-0.044589337,2017-08-30 17:20:11,54.76704014031504
-0.043411255,-0.04953003,9.734131,9.1552734E-5,-6.1035156E-5,-0.0010528564,216.0,-0.042032465,-0.048068188,9.806442,-0.003018491,-0.0033590794,0.0035324097,-0.0023530342,0.0022499876,-0.044490844,2017-08-30 17:20:12,53.11929975007612
-0.05128479,-0.047851563,9.734558,9.1552734E-5,-6.1035156E-5,-5.493164E-4,216.0,-0.04714533,-0.05109834,9.806404,-0.0042313263,7.298291E-4,0.0011577606,-0.0024953382,0.0025177293,-0.044666447,2017-08-30 17:20:13,60.356408858887384
-0.046676636,-0.050247192,9.731628,9.1552734E-5,-6.1035156E-5,-0.0010528564,216.0,-0.046645653,-0.048651736,9.806418,-0.0015533231,-0.0026749745,-0.0029888153,-0.002371916,0.002486649,-0.04464274,2017-08-30 17:20:14,54.630868438826916
-0.041427612,-0.044143677,9.740677,9.1552734E-5,-2.2888184E-4,-0.0010528564,216.0,-0.04387472,-0.050816767,9.80642,-0.0037332736,1.9777939E-4,-0.0037002563,-0.0024886962,0.0023502302,-0.04455912,2017-08-30 17:20:15,57.31458526139378
-0.045684814,-0.04208374,9.746002,9.1552734E-5,-6.1035156E-5,-3.0517578E-4,216.0,-0.045337997,-0.049697775,9.806419,7.838905E-4,0.0033808574,0.008114815,-0.0024282683,0.0024223286,-0.04460336,2017-08-30 17:20:16,55.30277803867271
-0.046173096,-0.049560547,9.729645,9.1552734E-5,-6.1035156E-5,-2.2888184E-4,216.0,-0.049508337,-0.052181806,9.806386,-0.0018982142,-0.005622674,0.002081871,-0.0025449325,0.0026407628,-0.044746682,2017-08-30 17:20:18,57.756217951514266
-0.05291748,-0.0546875,9.719818,9.1552734E-5,8.8500977E-4,1.6784668E-4,216.0,-0.047405317,-0.051341288,9.806401,-0.0034917295,-2.4050474E-4,-0.002494812,-0.0025070978,0.0025315485,-0.044675652,2017-08-30 17:20:19,52.926487022854076
-0.0501709,-0.049423218,9.732361,9.1552734E-5,-6.1035156E-5,-0.0010528564,216.0,-0.04864522,-0.05015879,9.806401,0.0040186644,0.003628917,-0.002494812,-0.0024439474,0.0025920996,-0.044712406,2017-08-30 17:20:20,52.108733034282366
-0.04307556,-0.058258057,9.738785,9.1552734E-5,-7.171631E-4,-0.0010528564,216.0,-0.044554602,-0.05293608,9.806406,0.0016920939,-0.0061020963,0.0028657913,-0.0025732694,0.002416238,-0.044603955,2017-08-30 17:20:21,52.77791955770088
-0.049697876,-0.052093506,9.74231,9.1552734E-5,2.4414063E-4,-1.373291E-4,216.0,-0.04589924,-0.050940093,9.806411,-0.007324271,6.1266124E-4,-0.001616478,-0.0024902162,0.002453796,-0.0446254,2017-08-30 17:20:22,45.26977163425044
-0.04475403,-0.0471344,9.733261,9.1552734E-5,-6.1035156E-5,-0.0010528564,216.0,-0.046966318,-0.048981145,9.806416,0.0057650767,0.0054314546,0.0033855438,-0.0023879362,0.0025037595,-0.044654176,2017-08-30 17:20:23,54.79028210989115
-0.043273926,-0.04824829,9.734207,9.1552734E-5,-6.1035156E-5,1.6784668E-4,216.0,-0.04436268,-0.048665125,9.806429,0.0034970194,0.0031599812,0.0011281967,-0.0023779701,0.0023702183,-0.044568483,2017-08-30 17:20:24,52.02299572056801
-0.04536438,-0.048187256,9.734665,9.1552734E-5,-6.1035156E-5,-3.8146973E-4,216.0,-0.04399249,-0.047003683,9.806438,-0.0019211471,-0.0019148439,-0.0033416748,-0.002274116,0.0023341777,-0.044542234,2017-08-30 17:20:25,55.131034967410415
-0.045532227,-0.04573059,9.733963,9.1552734E-5,-6.1035156E-5,-4.5776367E-5,216.0,-0.046083216,-0.049280807,9.806418,-0.004620772,-0.004377153,-0.0106134415,-0.0024052786,0.0024593936,-0.044626348,2017-08-30 17:20:26,58.84747673399459
-0.041915894,-0.043899536,9.741562,9.1552734E-5,-6.1035156E-5,1.6784668E-4,216.0,-0.0478618,-0.04908917,9.806411,-0.00274143,0.0016506426,0.004925728,-0.0023913248,0.0025496879,-0.044683646,2017-08-30 17:20:27,55.464827999189346
-0.049072266,-0.04788208,9.729813,9.1552734E-5,-6.1035156E-5,1.6784668E-4,216.0,-0.04679565,-0.04800987,9.806421,-1.3494492E-4,0.0017569512,-0.0019750595,-0.0023388735,0.0024928348,-0.044645667,2017-08-30 17:20:28,48.48530001878189
-0.048843384,-0.04814148,9.735062,9.1552734E-5,-6.1035156E-5,1.6784668E-4,216.0,-0.049021054,-0.049557354,9.806402,0.0013883263,0.0035686232,1.1253357E-4,-0.002412429,0.0026098967,-0.0447228,2017-08-30 17:20:29,55.94515343684661
-0.051452637,-0.05357361,9.722244,9.1552734E-5,-6.1035156E-5,1.6784668E-4,216.0,-0.048312936,-0.049705196,9.806405,0.0027810335,0.0029730052,-3.71933E-5,-0.0024216322,0.0025741106,-0.044700205,2017-08-30 17:20:30,60.76059593048689
-0.04248047,-0.041641235,9.751221,-0.0011138916,9.460449E-4,0.0012207031,216.0,-0.0476986,-0.04887751,9.806413,0.0010592192,0.002046518,0.004207611,-0.0023809308,0.0025408787,-0.04467769,2017-08-30 17:20:31,51.95851477396954
-0.050231934,-0.05041504,9.751633,-0.0011138916,-6.1035156E-5,1.6784668E-4,216.0,-0.0468168,-0.048935372,9.8064165,-0.0027071424,-2.6572123E-4,0.005675316,-0.0023859576,0.0024960276,-0.04464917,2017-08-30 17:20:32,46.9801754813719
-0.04650879,-0.048294067,9.805023,9.1552734E-5,-6.1035156E-5,0.0038452148,216.0,-0.045064494,-0.050651662,9.806416,-0.007073585,-2.025105E-4,0.031384468,-0.0024774917,0.0024105522,-0.044597354,2017-08-30 17:20:34,54.762670929895464
-0.048034668,-0.05307007,9.797775,9.1552734E-5,-6.1035156E-5,0.002609253,216.0,-0.042492565,-0.047046725,9.806445,-0.0028880313,-0.0015655681,-0.0105781555,-0.0022999344,0.0022711332,-0.044502728,2017-08-30 17:20:35,55.74295810006956
-0.04096985,-0.049346924,9.772903,9.1552734E-5,-0.0012969971,0.0023345947,216.0,-0.03842496,-0.047217526,9.806461,-5.741678E-4,1.1431426E-4,-0.012256622,-0.0023181352,0.0020640283,-0.04437088,2017-08-30 17:20:36,60.95437324219592
-0.039413452,-0.046585083,9.780746,9.1552734E-5,-6.1035156E-5,0.002609253,216.0,-0.03624656,-0.047412902,9.806469,-0.001530502,0.004232984,0.0075302124,-0.002333152,0.001953347,-0.044300567,2017-08-30 17:20:37,59.64546250706264
-0.039276123,-0.050048828,9.805115,9.1552734E-5,-0.0012969971,0.0038452148,216.0,-0.034577485,-0.046638098,9.8064785,-0.0040235855,-0.00644299,0.013752937,-0.002297562,0.0018664501,-0.04424393,2017-08-30 17:20:38,58.428589846126826
-0.037857056,-0.04437256,9.813004,9.1552734E-5,-1.2207031E-4,0.0038452148,216.0,-0.033070616,-0.04589373,9.806487,-0.002711244,0.0061810166,0.012581825,-0.0022631371,0.0017879005,-0.044192676,2017-08-30 17:20:39,58.2660687224857
-0.041229248,-0.045791626,9.78241,9.1552734E-5,-0.0012969971,0.0017852783,216.0,-0.035075214,-0.048035543,9.80647,-0.0049804263,-0.0033081025,-0.0126571655,-0.0023675815,0.0018950036,-0.044264305,2017-08-30 17:20:40,55.526588209963066
-0.04685974,-0.051315308,9.74411,9.1552734E-5,-0.0012969971,0.0014038086,216.0,-0.03465991,-0.046140395,9.80648,-0.011969827,-0.009496424,-0.018157005,-0.0022720227,0.0018695284,-0.04424513,2017-08-30 17:20:41,58.03375060268911
-0.035980225,-0.038726807,9.750153,9.1552734E-5,-0.0012969971,0.0014038086,216.0,-0.031851914,-0.042226803,9.806507,-0.010886006,-0.005267974,-0.008702278,-0.00207919,0.0017174559,-0.044142127,2017-08-30 17:20:42,61.84535353624396
-0.041046143,-0.044265747,9.736664,9.1552734E-5,-2.1362305E-4,1.6784668E-4,216.0,-0.03696255,-0.046719916,9.806469,-0.009488989,0.0018315911,-0.004466057,-0.002296195,0.0019883001,-0.044321794,2017-08-30 17:20:43,54.62529944720749
-0.046035767,-0.04800415,9.731689,9.1552734E-5,-0.0012969971,1.6784668E-4,216.0,-0.03783975,-0.047003865,9.806464,-0.0074493363,-0.0035857446,-0.0031375885,-0.0023086162,0.0020336912,-0.044351194,2017-08-30 17:20:44,59.097205800281465
-0.036636353,-0.041656494,9.740906,9.1552734E-5,-0.0012969971,1.6784668E-4,216.0,-0.03881656,-0.046590526,9.806462,-0.00204283,0.0036138669,0.0074977875,-0.00228529,0.002082581,-0.04438174,2017-08-30 17:20:45,57.44823367306634
-0.044830322,-0.050338745,9.732178,9.1552734E-5,-0.0012969971,1.6784668E-4,216.0,-0.039130185,-0.046501033,9.806462,-0.008190725,0.0012458414,0.0042304993,-0.0022800008,0.0020983757,-0.044391677,2017-08-30 17:20:46,62.574632933128164
-0.037887573,-0.04071045,9.747543,9.1552734E-5,-0.0012969971,1.6784668E-4,216.0,-0.041298013,-0.04869773,9.806442,0.002272386,0.002874177,0.00454998,-0.002386815,0.0022139533,-0.04446884,2017-08-30 17:20:47,57.08686162271819
-0.04283142,-0.04423523,9.739044,-5.645752E-4,-0.0012969971,1.6784668E-4,216.0,-0.041285187,-0.047393925,9.806449,-0.0031094924,0.0024060197,0.0018224716,-0.0023204433,0.0022103335,-0.044464488,2017-08-30 17:20:48,56.78703625986219
-0.04284668,-0.049468994,9.736496,9.1552734E-5,-3.9672852E-4,5.0354004E-4,216.0,-0.041755322,-0.048351485,9.806442,-0.001240626,-0.001928512,-0.0019073486,-0.0023433927,0.0022426194,-0.044485833,2017-08-30 17:20:50,57.84456795982728
-0.04786682,-0.049072266,9.728043,9.1552734E-5,-6.1035156E-5,1.6784668E-4,216.0,-0.046091065,-0.04708168,9.806429,-0.0015632771,-0.0021755137,-0.007866859,-0.002299853,0.0024830736,-0.044638213,2017-08-30 17:20:51,54.478145055089826
-0.051254272,-0.04660034,9.745056,9.1552734E-5,-6.1035156E-5,1.6784668E-4,216.0,-0.0449309,-0.044618256,9.806446,0.0036077872,0.0021986477,0.0071868896,-0.002170534,0.0023899772,-0.044574704,2017-08-30 17:20:52,55.27560192301542
-0.037857056,-0.03579712,9.751617,9.1552734E-5,-6.1035156E-5,1.6784668E-4,216.0,-0.04526089,-0.046500247,9.806436,7.6897815E-4,0.0049602576,0.0019407272,-0.002265605,0.0024111005,-0.044591144,2017-08-30 17:20:53,59.08663213956599
-0.053833008,-0.047973633,9.743225,6.1035156E-5,1.0681152E-4,-1.2207031E-4,216.0,-0.046091527,-0.04667747,9.806431,0.0016065314,4.3376535E-4,0.0023097992,-0.002272676,0.0024538753,-0.044618707,2017-08-30 17:20:54,55.819375447165214
-0.047592163,-0.04475403,9.734283,6.1035156E-5,1.0681152E-4,-1.2207031E-4,216.0,-0.04765486,-0.04747782,9.806419,6.653145E-4,-0.0071551614,-0.003689766,-0.002309751,0.0025354489,-0.044672,2017-08-30 17:20:55,59.38155142788955
-0.052001953,-0.050323486,9.729904,6.1035156E-5,1.0681152E-4,-1.2207031E-4,216.0,-0.048450347,-0.047490954,9.806416,-0.00326512,5.279891E-4,-0.004966736,-0.0023085414,0.0025760573,-0.044697925,2017-08-30 17:20:56,63.383526364959536
-0.050872803,-0.047851563,9.727097,6.1035156E-5,1.0681152E-4,-1.2207031E-4,216.0,-0.050329812,-0.047936074,9.806404,-2.2832304E-5,-0.003223192,-0.008951187,-0.0023267637,0.0026729489,-0.044760432,2017-08-30 17:20:57,60.897325856173566
-0.038589478,-0.040802002,9.741013,6.1035156E-5,1.0681152E-4,-1.2207031E-4,216.0,-0.05076183,-0.048502583,9.806398,0.0018944927,0.0017735809,-0.0014410019,-0.002354591,0.0026962843,-0.04477622,2017-08-30 17:20:58,67.04254340469932
-0.058135986,-0.048843384,9.740341,6.1035156E-5,1.0681152E-4,-1.2207031E-4,216.0,-0.051948536,-0.047737755,9.8063965,0.0033598617,0.0010101981,0.0040826797,-0.002312825,0.002755067,-0.044812486,2017-08-30 17:20:59,63.856447459023656
-0.051742554,-0.045394897,9.752106,6.1035156E-5,1.0681152E-4,0.0011138916,216.0,-0.050892964,-0.04710487,9.806405,-0.0018043108,-0.0017814599,0.006649971,-0.0022830984,0.0026997721,-0.04477621,2017-08-30 17:21:00,64.16350996645343
-0.051452637,-0.049453735,9.751175,-7.7819824E-4,1.0681152E-4,0.0011138916,216.0,-0.050072424,-0.04730025,9.806408,4.7362223E-4,0.002216734,0.0011758804,-0.0022949928,0.002658364,-0.044750113,2017-08-30 17:21:01,55.98840291888321
-0.05038452,-0.04597473,9.743088,6.1035156E-5,1.0681152E-4,-1.2207031E-4,216.0,-0.04956893,-0.04698561,9.806413,-5.5284426E-4,-2.2750348E-5,-0.013020515,-0.0022612084,0.002613561,-0.04472042,2017-08-30 17:21:02,52.858168096130086
-0.051071167,-0.05329895,9.733902,6.1035156E-5,1.0681152E-4,-3.9672852E-4,216.0,-0.051985435,-0.050013363,9.806385,0.0011406131,-0.0039185584,-0.0072050095,-0.0024118745,0.0027908694,-0.04483849,2017-08-30 17:21:03,63.70835129735188
-0.050689697,-0.05091858,9.7276,6.1035156E-5,-5.187988E-4,-7.171631E-4,216.0,-0.048829984,-0.04753819,9.806414,0.0035763122,4.7790632E-4,-0.0045375824,-0.00231005,0.0025955308,-0.04471042,2017-08-30 17:21:04,59.22170287125998
-0.050598145,-0.048080444,9.731903,6.1035156E-5,-8.392334E-4,-0.0013427734,216.0,-0.050679687,-0.04827785,9.8064,-0.0015040487,-6.41264E-4,-0.003127098,-0.0023212458,0.0026279348,-0.044731483,2017-08-30 17:21:06,62.657094913458124
-0.052368164,-0.046035767,9.728363,6.1035156E-5,1.0681152E-4,-1.2207031E-4,216.0,-0.050643258,-0.048192702,9.806401,0.004677575,0.0045185983,0.006299019,-0.0023390905,0.0026895257,-0.044771414,2017-08-30 17:21:07,63.35232728422515
-0.051452637,-0.049423218,9.73587,6.1035156E-5,1.0681152E-4,-1.2207031E-4,216.0,-0.05274438,-0.04960382,9.806383,0.0014439896,7.0653483E-4,-0.0032873154,-0.0024059666,0.0027999443,-0.044844106,2017-08-30 17:21:08,62.160304336433455
-0.050430298,-0.048034668,9.728027,6.1035156E-5,1.0681152E-4,-1.2207031E-4,216.0,-0.050450277,-0.047599923,9.806405,0.0016899966,0.0015777387,-5.264282E-4,-0.0023093591,0.0026783242,-0.044763323,2017-08-30 17:21:09,52.23945605030568
-0.050231934,-0.04425049,9.727051,6.1035156E-5,1.0681152E-4,-3.0517578E-4,216.0,-0.053893052,-0.05125179,9.806368,0.0072239637,-0.004475709,-0.0031776428,-0.0024871589,0.0028623266,-0.044886556,2017-08-30 17:21:10,67.6186289461185
-0.0496521,-0.044570923,9.729523,6.1035156E-5,1.0681152E-4,-2.4414063E-4,216.0,-0.05459309,-0.049619798,9.806373,0.004607577,0.0028468259,-0.0015220642,-0.0024023799,0.00289429,-0.04490431,2017-08-30 17:21:11,62.180599755448085
-0.046661377,-0.04777527,9.728897,6.1035156E-5,1.0681152E-4,-1.2207031E-4,216.0,-0.054408003,-0.048223328,9.80638,0.0055336654,0.0028426237,0.0035762787,-0.0023317041,0.0028816408,-0.04489399,2017-08-30 17:21:12,57.03744271925963
-0.056365967,-0.04864502,9.741806,6.1035156E-5,1.0681152E-4,-1.2207031E-4,216.0,-0.05542698,-0.049077228,9.806371,0.0037315786,2.829805E-4,-1.5544891E-4,-0.00237276,0.0029355825,-0.044929773,2017-08-30 17:21:13,59.071014313099994
-0.045272827,-0.049972534,9.732101,6.1035156E-5,1.0681152E-4,-0.0013427734,216.0,-0.048173286,-0.05067451,9.806401,0.008717574,1.9916892E-4,0.0043153763,-0.0024713269,0.002569203,-0.04469862,2017-08-30 17:21:14,59.463788897405635
-0.043884277,-0.051071167,9.735565,6.1035156E-5,1.0681152E-4,-0.0013427734,216.0,-0.044867355,-0.048070114,9.80643,0.0025645085,-0.001214005,0.0035896301,-0.002346481,0.0023946064,-0.0445831,2017-08-30 17:21:15,60.05143005421603
-0.042877197,-0.047409058,9.736343,6.1035156E-5,-5.79834E-4,-0.0013427734,216.0,-0.046917293,-0.05143472,9.806403,0.00489752,-4.0091202E-4,0.005306244,-0.0025130075,0.0025068643,-0.04466005,2017-08-30 17:21:16,60.33447067192589
-0.042755127,-0.051239014,9.737213,6.1035156E-5,1.0681152E-4,-0.0013427734,216.0,-0.04687784,-0.048664663,9.806417,-8.645952E-4,-0.0045384467,-0.003993988,-0.0023720271,0.002498523,-0.04465033,2017-08-30 17:21:17,63.004827788514845
-0.05001831,-0.050567627,9.725632,6.1035156E-5,1.0681152E-4,-0.0013427734,216.0,-0.04823585,-0.05093659,9.806399,-0.0032959841,-6.6589564E-5,-0.0057268143,-0.0024845263,0.0025729942,-0.044701453,2017-08-30 17:21:18,64.68972736950194
-0.04714966,-0.04548645,9.732803,6.1035156E-5,1.0681152E-4,-4.272461E-4,216.0,-0.048811153,-0.05009593,9.8064,0.0035423972,0.0015671179,0.0022239685,-0.0024403539,0.002600421,-0.044717614,2017-08-30 17:21:19,62.11480986045838
-0.050628662,-0.04824829,9.731583,6.1035156E-5,1.0681152E-4,-0.0013427734,216.0,-0.045407534,-0.048330773,9.806426,9.89031E-4,0.002502095,-0.0013780594,-0.0023584855,0.0024227565,-0.04460147,2017-08-30 17:21:20,63.57385703965346
-0.049057007,-0.051315308,9.746643,6.1035156E-5,1.0681152E-4,-3.6621094E-4,216.0,-0.047052994,-0.048563458,9.806417,0.0024286807,0.0043863766,0.011982918,-0.00236646,0.002507227,-0.044655725,2017-08-30 17:21:22,64.1444103549689
-0.055252075,-0.049057007,9.740936,-3.0517578E-5,1.0681152E-4,-1.2207031E-4,216.0,-0.04762309,-0.048192896,9.8064165,-0.003215924,-9.5618516E-4,-8.72612E-4,-0.002346243,0.0025354621,-0.04467315,2017-08-30 17:21:23,65.66123567363039
-0.04347229,-0.042678833,9.7388,6.1035156E-5,1.0681152E-4,-5.187988E-4,216.0,-0.045972873,-0.046067674,9.806435,0.0021822825,0.003069885,2.6226044E-4,-0.0022256037,0.0024380013,-0.0446071,2017-08-30 17:21:24,65.39469687780203
-0.044891357,-0.04310608,9.735199,6.1035156E-5,1.0681152E-4,-1.2207031E-4,216.0,-0.04524276,-0.048102815,9.806428,6.437823E-4,-6.218441E-4,-0.0033187866,-0.0023472637,0.0024138312,-0.044595417,2017-08-30 17:21:25,63.09309285270004
-0.04421997,-0.044311523,9.734039,6.1035156E-5,1.0681152E-4,-0.0013427734,216.0,-0.049047377,-0.049608584,9.806402,-0.00422075,-9.1714785E-4,-0.0015239716,-0.0024149758,0.0026113566,-0.044723812,2017-08-30 17:21:26,62.701901274669666
-0.048202515,-0.051116943,9.730759,6.1035156E-5,1.0681152E-4,-2.89917E-4,216.0,-0.04529249,-0.049000494,9.806423,-0.00309287,-0.0011048019,-0.0039777756,-0.002392864,0.0024184159,-0.04459976,2017-08-30 17:21:27,59.70609887079259
-0.045684814,-0.045532227,9.734558,6.1035156E-5,5.950928E-4,-1.2207031E-4,216.0,-0.047259163,-0.04919431,9.806413,0.0052087195,0.006516885,0.0013017654,-0.0023981016,0.0025191857,-0.044664353,2017-08-30 17:21:28,64.65526485095076
-0.04032898,-0.05255127,9.74762,6.1035156E-5,1.0681152E-4,-1.2207031E-4,216.0,-0.048146974,-0.049214195,9.806409,0.003416989,6.924458E-4,0.007972717,-0.0023970185,0.0025645215,-0.044693306,2017-08-30 17:21:29,59.99070954977823
-0.054840088,-0.048965454,9.74646,6.1035156E-5,1.0681152E-4,-0.0013427734,216.0,-0.047161076,-0.048567317,9.8064165,-0.010617573,-5.842224E-4,0.0020799637,-0.0023664017,0.0025127493,-0.044659253,2017-08-30 17:21:30,63.886447389493675
-0.040771484,-0.049331665,9.73999,6.1035156E-5,1.0681152E-4,-0.0013427734,216.0,-0.04794734,-0.05109761,9.8064,0.0032073595,-0.00524693,0.0030069351,-0.0024934078,0.0025586435,-0.044692554,2017-08-30 17:21:31,60.86754221726207
-0.049957275,-0.05055237,9.7331085,6.1035156E-5,1.0681152E-4,-1.2207031E-4,216.0,-0.043649912,-0.045643233,9.806447,-0.0023251437,0.002127543,-0.0045261383,-0.0022257427,0.002326973,-0.04453614,2017-08-30 17:21:32,61.450753773325545
-0.03918457,-0.04170227,9.743637,6.1035156E-5,1.0681152E-4,-0.0013427734,216.0,-0.04491222,-0.050981183,9.806415,9.28171E-4,-0.0035391375,0.0010318756,-0.0024946318,0.0024035354,-0.044593398,2017-08-30 17:21:33,60.66943556451265
-0.042297363,-0.05126953,9.737183,6.1035156E-5,1.0681152E-4,-0.0013427734,216.0,-0.045627244,-0.050395098,9.806415,0.006861098,-1.5472248E-4,0.005393982,-0.002463101,0.0024386758,-0.044614892,2017-08-30 17:21:34,66.37007336871962
-0.046188354,-0.050811768,9.730911,6.1035156E-5,4.4250488E-4,-1.2207031E-4,216.0,-0.04713045,-0.05246934,9.8063965,-0.002777636,-0.0020710118,-0.006911278,-0.0025651956,0.0025201037,-0.044670142,2017-08-30 17:21:35,55.423585272741065
-0.047027588,-0.05001831,9.724075,-4.7302246E-4,1.0681152E-4,-7.9345703E-4,216.0,-0.048364498,-0.0509217,9.806398,-0.005348921,-6.5972283E-4,-0.0047750473,-0.002483464,0.0025795235,-0.044705596,2017-08-30 17:21:36,52.589851545367836
-0.061401367,-0.05456543,9.735657,-1.5258789E-4,1.0681152E-4,-0.0013427734,216.0,-0.04365813,-0.051981773,9.806416,0.0028922334,-0.011350863,0.0054397583,-0.002548537,0.0023418362,-0.0445556,2017-08-30 17:21:38,66.19928267529761
-0.054397583,-0.0526886,9.722916,6.1035156E-5,1.0681152E-4,-2.2888184E-4,216.0,-0.047005128,-0.049042933,9.806415,0.0012801066,-5.7124346E-4,-0.0022287369,-0.0023909917,0.0025058805,-0.044655625,2017-08-30 17:21:39,58.32881185904927
-0.049682617,-0.05088806,9.7322235,6.1035156E-5,1.0681152E-4,-1.2207031E-4,216.0,-0.048676487,-0.05119944,9.806396,-0.0018325597,-0.0014039092,-0.0010604858,-0.0024968712,0.0025960754,-0.0447166,2017-08-30 17:21:40,57.91006650834392
-0.046279907,-0.044158936,9.729202,6.1035156E-5,5.340576E-4,-0.0013427734,216.0,-0.047562994,-0.050714016,9.806404,0.005518861,0.008768298,0.007170677,-0.00247478,0.0025381586,-0.044678874,2017-08-30 17:21:41,62.099795270368865
-0.04650879,-0.051513672,9.73407,6.1035156E-5,1.0681152E-4,-0.0010375977,216.0,-0.04704491,-0.053205974,9.806393,-0.0027657598,-0.0044029057,-0.0031547546,-0.0026029127,0.0025174234,-0.0446696,2017-08-30 17:21:42,59.53197257928093
-0.049591064,-0.052124023,9.725632,6.1035156E-5,0.0010986328,-0.0013427734,216.0,-0.04543302,-0.049016926,9.806422,-1.6845018E-4,0.0047628246,0.0020771027,-0.0023933703,0.0024256224,-0.044604383,2017-08-30 17:21:43,56.812448772155626
-0.04736328,-0.05076599,9.732895,6.1035156E-5,6.2561035E-4,-7.9345703E-4,216.0,-0.051023353,-0.049687423,9.806392,0.0038311183,0.0022151768,0.004804611,-0.0024143108,0.0027123396,-0.04478836,2017-08-30 17:21:44,62.59130474871711
-0.046844482,-0.050964355,9.736832,-8.087158E-4,9.613037E-4,-4.7302246E-4,216.0,-0.05172758,-0.053814024,9.806366,0.003820803,0.0014511719,-0.0019578934,-0.0026227946,0.0027577283,-0.044823937,2017-08-30 17:21:45,63.59232186744777
-0.048431396,-0.0491333,9.732925,-9.460449E-4,1.0681152E-4,-0.0013427734,216.0,-0.049800463,-0.052499358,9.806383,-0.0012079217,0.0024783015,-0.0065727234,-0.002560413,0.002656394,-0.04475716,2017-08-30 17:21:46,64.78548337689011
-0.04815674,-0.05055237,9.732834,6.1035156E-5,1.0681152E-4,-1.2207031E-4,216.0,-0.047729492,-0.049285125,9.80641,-7.273443E-4,-0.0014856271,-0.0010299683,-0.0024089927,0.0025464466,-0.044682123,2017-08-30 17:21:47,67.00253124278107
-0.044158936,-0.04611206,9.737717,6.1035156E-5,6.866455E-4,-1.2207031E-4,216.0,-0.04408888,-0.04966524,9.806425,0.0039255805,9.334013E-4,0.005785942,-0.0024295477,0.0023585309,-0.044562604,2017-08-30 17:21:48,71.63223907376472
-0.0418396,-0.04914856,9.731262,6.1035156E-5,1.0681152E-4,-0.0010681152,216.0,-0.04920264,-0.050203536,9.806398,-0.0077818744,-0.002042804,0.008056641,-0.0024449078,0.0026206386,-0.044730682,2017-08-30 17:21:49,57.7820772007453
-0.043273926,-0.046203613,9.732346,6.1035156E-5,1.0681152E-4,-1.8310547E-4,216.0,-0.048029926,-0.048469182,9.806413,-0.0011365414,0.0034651272,-0.0036716461,-0.0023593532,0.0025568474,-0.044687226,2017-08-30 17:21:50,62.86490479541659
-0.052261353,-0.045928955,9.753418,6.1035156E-5,1.0681152E-4,-0.0013427734,216.0,-0.046662044,-0.049875956,9.806413,0.009807773,0.002760671,0.010626793,-0.0024342244,0.0024902811,-0.044646997,2017-08-30 17:21:51,64.80564639051367
-0.053207397,-0.05154419,9.738388,-6.5612793E-4,1.0681152E-4,-1.2207031E-4,216.0,-0.048403062,-0.047830887,9.806414,-0.0022442155,-6.3055754E-4,-0.007156372,-0.0023259653,0.0025744226,-0.044697423,2017-08-30 17:21:52,65.33478373029988
-0.061019897,-0.056228638,9.7400055,1.373291E-4,-1.8310547E-4,5.0354004E-4,216.0,-0.04767866,-0.05013849,9.806406,-0.0023804866,-0.0023646578,-0.0024356842,-0.0024451967,0.002542744,-0.044680882,2017-08-30 17:21:54,67.51494273650881
-0.046661377,-0.044921875,9.736313,1.373291E-4,8.69751E-4,3.5095215E-4,216.0,-0.0503172,-0.04905697,9.806398,0.0032824166,0.0023214556,-0.002026558,-0.0023838778,0.0026748723,-0.04476345,2017-08-30 17:21:55,67.28125223970066
-0.044921875,-0.050628662,9.733719,1.373291E-4,-1.8310547E-4,-7.171631E-4,216.0,-0.046587322,-0.04977587,9.806414,-0.0011219382,1.2032315E-4,0.0011701584,-0.0024293032,0.0024862406,-0.04464426,2017-08-30 17:21:56,57.95507639869423
-0.0370636,-0.037521362,9.749832,1.373291E-4,2.1362305E-4,-7.171631E-4,216.0,-0.04716532,-0.04926946,9.806413,0.0045412183,-5.11691E-4,0.003522873,-0.0024021503,0.00251457,-0.04466153,2017-08-30 17:21:57,63.85485776653999
-0.0501709,-0.048980713,9.725327,1.373291E-4,7.6293945E-4,-7.171631E-4,216.0,-0.04520434,-0.04835865,9.806427,-3.995113E-4,-0.0027004331,-1.02996826E-4,-0.0023603833,0.002412455,-0.044594944,2017-08-30 17:21:58,59.957456094372354
-0.042633057,-0.04547119,9.732849,1.373291E-4,-1.8310547E-4,5.0354004E-4,216.0,-0.04602507,-0.04856662,9.806422,0.0069225654,0.0034483485,0.005223274,-0.0023690432,0.002454797,-0.044622283,2017-08-30 17:21:59,69.85223708653875
-0.045013428,-0.04953003,9.734482,-5.0354004E-4,0.0010223389,5.0354004E-4,216.0,-0.04727964,-0.04867894,9.806416,0.004268661,0.001507286,0.00584507,-0.0023718064,0.0025190527,-0.04466345,2017-08-30 17:22:00,70.66996397806928
-0.04144287,-0.049819946,9.764206,1.373291E-4,7.019043E-4,0.0014190674,216.0,-0.046619017,-0.049901217,9.806413,0.0053956658,-0.005894717,0.0070638657,-0.0024356125,0.0024881437,-0.04464567,2017-08-30 17:22:01,64.8145705875977
-0.0501709,-0.053741455,9.744858,-0.0010681152,0.0010223389,5.0354004E-4,216.0,-0.046491403,-0.048393063,9.80642,-2.5745854E-4,-0.0047340244,-0.0104084015,-0.002359106,0.0024781898,-0.04463693,2017-08-30 17:22:02,68.42572424547016
-0.024047852,-0.05343628,9.732742,1.373291E-4,1.373291E-4,8.544922E-4,216.0,-0.04348997,-0.048443235,9.806434,0.006990019,0.0015969574,0.0023498535,-0.0023687186,0.002325193,-0.04453941,2017-08-30 17:22:03,64.3728092058329
