ACC_X,ACC_Y,ACC_Z,GYRO_X,GYRO_Y,GYRO_Z,LIGH_1,GRAV_X,GRAV_Y,GRAV_Z,LINACC_X,LINACC_Y,LINACC_Z,ROTVEC_X,ROTVEC_Y,ROTVEC_Z,TIME,VOICE
5.7269306,-0.1340753,7.479486,-0.0061086523,0.004886922,0.030543262,19.0,5.8989,-0.36769998,7.8254,0.0519,0.2447,-0.039499998,0.107312,-0.299163,0.375047,2017-06-05 06:54:17,31.974205610595124
5.6120086,-0.16280572,7.517793,-0.004886922,0.0,0.039095376,19.0,5.9305997,-0.1704,7.8082,-0.0764,0.0064,0.025899999,0.116059,-0.297357,0.369784,2017-06-05 06:54:18,41.76593980514383
5.717354,-0.11492168,7.4986396,-0.0061086523,-0.002443461,0.028099801,19.0,5.9495997,-0.14909999,7.7942,0.0132,0.035099998,0.0197,0.11629,-0.298464,0.365931,2017-06-05 06:54:19,39.30213022047922
5.6982,-0.1340753,7.517793,-0.004886922,-0.0036651916,0.029321533,19.0,5.9421997,-0.1311,7.8001,0.0041,0.0105,-0.012399999,0.117215,-0.297643,0.366893,2017-06-05 06:54:20,41.45445812883573
5.707777,-0.11492168,7.4986396,0.009773844,-0.004886922,0.03176499,19.0,5.9419,-0.1244,7.8005,0.0013,0.0018,-0.018199999,0.117587,-0.297416,0.366731,2017-06-05 06:54:21,40.77552077955748
5.707777,-0.12449849,7.4986396,-0.009773844,0.002443461,0.032986723,17.0,5.9399,-0.117599994,7.8020997,-0.0033999998,-0.0058999998,-0.0093,0.117905,-0.29714,0.36663,2017-06-05 06:54:22,40.1169233394546
5.707777,-0.1340753,7.489063,0.0061086523,-0.0012217305,0.03176499,19.0,5.9417,-0.123799995,7.8005996,2.9999999E-4,-0.0084999995,-0.01,0.117614,-0.297395,0.366741,2017-06-05 06:54:23,40.92474025732399
5.707777,-0.15322891,7.5082164,0.0012217305,-0.002443461,0.02443461,19.0,5.9421997,-0.121599995,7.8002996,0.015,0.0087,0.0011,0.117776,-0.297486,0.366696,2017-06-05 06:54:24,42.574940429960606
5.6886234,-0.11492168,7.4986396,0.010995574,0.0012217305,0.028099801,19.0,5.9414997,-0.1206,7.8008,-0.009099999,-0.0016999999,0.019199999,0.11776,-0.297321,0.366714,2017-06-05 06:54:25,43.71940050620559
5.707777,-0.12449849,7.489063,0.0012217305,-0.0012217305,0.03176499,20.0,5.9399,-0.1179,7.8020997,9.999999E-4,-0.0029,-0.0128,0.117782,-0.297208,0.366719,2017-06-05 06:54:26,42.437889999537866
5.707777,-0.16280572,7.4986396,0.0,-0.0012217305,0.028099801,20.0,5.9424,-0.1206,7.8001,-0.0018999999,0.0138,-0.0087,0.117965996,-0.297294,0.366671,2017-06-05 06:54:27,40.4591203118177
5.707777,-0.12449849,7.5082164,-0.018325957,0.0012217305,0.039095376,19.0,5.9433,-0.121999994,7.7995,-0.014599999,-0.010199999,-0.0137,0.117751,-0.29744,0.366752,2017-06-05 06:54:28,43.59590915416735
5.6790466,-0.10534488,7.4986396,-0.0061086523,-0.007330383,0.034208454,17.0,5.9421997,-0.1182,7.8002996,-0.0233,0.0167,0.0078,0.117828,-0.297325,0.366731,2017-06-05 06:54:29,51.1104130265613
5.717354,-0.11492168,7.489063,0.008552114,-0.002443461,0.02565634,17.0,5.9449997,-0.1232,7.7981,0.0115,0.0103,-0.0016,0.117740996,-0.297559,0.366765,2017-06-05 06:54:30,54.042447329791656
5.7269306,-0.1436521,7.489063,-0.007330383,0.0,0.029321533,19.0,5.942,-0.1227,7.8004,7.0E-4,-0.0016999999,-0.007999999,0.117754,-0.297284,0.366775,2017-06-05 06:54:31,57.0823029408066
5.7269306,-0.12449849,7.4986396,0.004886922,-0.0012217305,0.02321288,17.0,5.9421997,-0.1261,7.8002,0.036599997,-0.0162,0.048899997,0.11755,-0.297455,0.366851,2017-06-05 06:54:32,40.8266887359303
5.707777,-0.095768064,7.469909,0.008552114,0.0036651916,0.03176499,17.0,5.9407997,-0.11669999,7.8015,-0.0078,0.0244,-0.042799998,0.117915,-0.297195,0.36673298,2017-06-05 06:54:33,42.729871934560904
5.707777,-0.1340753,7.5465236,-0.004886922,0.0,0.028099801,17.0,5.9389997,-0.1218,7.8026996,0.0207,-0.0106,-0.012999999,0.117655,-0.297147,0.366828,2017-06-05 06:54:34,41.839429676854266
5.6886234,-0.1340753,7.5082164,-0.009773844,-0.002443461,0.03176499,17.0,5.9456997,-0.12459999,7.7974997,-0.0295,0.021499999,-0.012499999,0.117705,-0.297622,0.366813,2017-06-05 06:54:35,41.80043531765146
5.6886234,-0.12449849,7.479486,-0.007330383,-0.0012217305,0.032986723,17.0,5.9428,-0.1277,7.7997,-0.0232,0.0055,-0.0242,0.117465,-0.297484,0.366905,2017-06-05 06:54:36,40.9685349676143
5.7365074,-0.12449849,7.4986396,-0.0012217305,0.004886922,0.028099801,17.0,5.9449997,-0.1252,7.7981,0.0167,0.0026,0.0018999999,0.117667,-0.297587,0.366844,2017-06-05 06:54:37,45.54055292441021
5.717354,-0.1340753,7.479486,-0.0012217305,-0.004886922,0.032986723,17.0,5.9428,-0.1245,7.7998,-0.0222,0.0117999995,-0.015199999,0.117568,-0.297277,0.366886,2017-06-05 06:54:38,45.34503353375957
5.7269306,-0.12449849,7.517793,0.007330383,-0.0061086523,0.029321533,19.0,5.9445996,-0.1255,7.7984,-0.0084999995,0.0224,0.0163,0.117649,-0.29757,0.366864,2017-06-05 06:54:40,44.80208561763064
5.707777,-0.12449849,7.489063,0.008552114,-0.0036651916,0.02565634,19.0,5.9431996,-0.1255,7.7994,0.0174,0.0026999998,0.0137,0.117589,-0.297453,0.366893,2017-06-05 06:54:41,46.33436497778586
5.707777,-0.12449849,7.479486,-0.0061086523,-0.004886922,0.030543262,17.0,5.9462,-0.12879999,7.7970996,0.0011,0.0162,0.028199999,0.117508,-0.2977,0.366928,2017-06-05 06:54:42,51.02250615270699
5.66947,-0.1340753,7.479486,0.0061086523,0.0012217305,0.028099801,19.0,5.9361997,-0.1269,7.8048,0.0212,-0.0252,-0.0064999997,0.117399,-0.297122,0.36698,2017-06-05 06:54:43,41.28731365680135
5.7365074,-0.1340753,7.5082164,-0.0036651916,0.0012217305,0.030543262,19.0,5.9427,-0.13,7.7998,0.0061,-0.0025,-0.0064999997,0.117428,-0.297542,0.366982,2017-06-05 06:54:44,43.00574222394047
5.707777,-0.1436521,7.4986396,-0.0036651916,0.0,0.029321533,17.0,5.9426,-0.1222,7.7999997,0.009099999,-0.02,0.0128999995,0.11776,-0.29739,0.366873,2017-06-05 06:54:45,40.29261805493263
5.6790466,-0.12449849,7.489063,-0.010995574,0.0012217305,0.032986723,17.0,5.9417996,-0.1292,7.8005,0.014599999,-0.0323,-0.021,0.11744,-0.29756,0.366993,2017-06-05 06:54:46,37.62484672472831
5.6982,-0.15322891,7.489063,-0.002443461,0.0012217305,0.030543262,17.0,5.9483,-0.13,7.7955,-0.0074,0.0069999998,0.0056999996,0.117555,-0.297856,0.366961,2017-06-05 06:54:47,40.86633625758793
5.717354,-0.11492168,7.4986396,-0.0012217305,-0.0036651916,0.029321533,19.0,5.9435997,-0.121199995,7.7991996,0.015199999,0.01,0.0106,0.117768,-0.297474,0.366894,2017-06-05 06:54:48,42.39938990089836
5.6886234,-0.12449849,7.479486,0.002443461,-0.0012217305,0.029321533,19.0,5.9467998,-0.1241,7.7967,-0.025999999,1.0E-4,-0.0343,0.117833,-0.297548,0.366882,2017-06-05 06:54:49,42.29471577989472
5.6982,-0.10534488,7.479486,0.008552114,-0.0012217305,0.029321533,17.0,5.943,-0.1232,7.7997,0.012499999,5.9999997E-4,0.024899999,0.117742,-0.297426,0.366924,2017-06-05 06:54:50,40.65632924679042
5.6886234,-0.1436521,7.5082164,-0.004886922,-0.0061086523,0.02687807,17.0,5.9393997,-0.124,7.8023,-0.0055,-0.0173,0.024,0.117586,-0.297291,0.36698,2017-06-05 06:54:51,41.136696919003384
5.707777,-0.10534488,7.489063,-0.0061086523,-0.0036651916,0.029321533,19.0,5.9431996,-0.1245,7.7995,0.0037999998,0.021399999,-0.0025,0.117691,-0.297462,0.366948,2017-06-05 06:54:52,46.566196354378704
5.707777,-0.11492168,7.489063,0.0,0.007330383,0.034208454,17.0,5.9382,-0.121999994,7.8034,0.0462,-9.999999E-4,0.0243,0.117657,-0.297049,0.366968,2017-06-05 06:54:53,42.80150879026738
5.707777,-0.15322891,7.4986396,-0.0012217305,-0.0012217305,0.029321533,17.0,5.9396,-0.1227,7.8022,-0.0184,0.01,-0.0426,0.117691,-0.297225,0.366962,2017-06-05 06:54:54,46.10278823807459
5.717354,-0.12449849,7.4986396,-0.002443461,0.0036651916,0.02687807,17.0,5.9474998,-0.1252,7.7962,-0.0178,0.0023999999,-0.0255,0.117792,-0.2977,0.366927,2017-06-05 06:54:55,46.714427460031786
5.707777,-0.1436521,7.5082164,-0.004886922,-0.0036651916,0.030543262,19.0,5.9389,-0.1278,7.8026996,-0.018199999,0.0133,0.008599999,0.11752,-0.297263,0.367033,2017-06-05 06:54:56,45.71440735239071
5.717354,-0.1436521,7.5082164,-0.0036651916,0.0,0.032986723,17.0,5.937,-0.129,7.8041,0.0301,-0.013599999,0.0067999996,0.117357,-0.297193,0.367101,2017-06-05 06:54:57,43.64153276731862
5.66947,-0.11492168,7.469909,-0.010995574,-0.007330383,0.037873644,17.0,5.9406,-0.125,7.8015,-0.0563,0.0127,-0.052899998,0.117637,-0.297379,0.367007,2017-06-05 06:54:58,45.46407021662386
5.6886234,-0.1340753,7.517793,0.0012217305,0.0012217305,0.035430185,19.0,5.9409,-0.121199995,7.8012996,-0.0231,-0.010799999,0.012499999,0.117798,-0.297265,0.366967,2017-06-05 06:54:59,43.815757944751724
5.6982,-0.11492168,7.489063,-0.008552114,0.0012217305,0.034208454,19.0,5.9431,-0.1308,7.7995,-0.0058,-0.0197,-0.0050999997,0.117358,-0.297611,0.36711898,2017-06-05 06:55:00,40.48766650256282
5.717354,-0.11492168,7.479486,0.0036651916,0.002443461,0.028099801,17.0,5.94,-0.1237,7.8019,0.0128,0.0207,0.0095999995,0.117672,-0.29726,0.367028,2017-06-05 06:55:01,39.2537462643414
5.6982,-0.12449849,7.4986396,0.004886922,-0.0036651916,0.02443461,17.0,5.9398,-0.12629999,7.8019996,0.0056999996,0.0037,0.0150999995,0.117532,-0.297284,0.36709,2017-06-05 06:55:02,41.02482586787937
5.707777,-0.12449849,7.489063,-0.012217305,0.0,0.030543262,19.0,5.9426,-0.12719999,7.7998996,0.0121,0.0039,0.0058,0.117632,-0.297504,0.367067,2017-06-05 06:55:03,40.19167067724483
5.717354,-0.11492168,7.489063,-0.004886922,-0.002443461,0.03176499,19.0,5.9433,-0.1275,7.7992997,0.0033999998,-0.005,-0.0026999998,0.117593996,-0.297513,0.367094,2017-06-05 06:55:04,40.18825148044125
5.6982,-0.1436521,7.4986396,-0.002443461,0.004886922,0.03176499,19.0,5.9364,-0.12,7.8047,5.9999997E-4,-0.0185,-5.9999997E-4,0.117572,-0.296968,0.367103,2017-06-05 06:55:05,39.77272719359226
5.6886234,-0.12449849,7.4986396,-0.0061086523,-0.0012217305,0.030543262,19.0,5.9381,-0.12539999,7.8034,-0.014699999,0.0026999998,-0.0016,0.117574,-0.297174,0.367129,2017-06-05 06:55:06,41.21871635199561
5.6790466,-0.12449849,7.489063,-0.0012217305,-0.002443461,0.030543262,19.0,5.9417996,-0.1383,7.8002996,-0.0121,0.022499999,0.0314,0.115741,-0.298129,0.363052,2017-06-05 06:55:07,41.98110955118486
5.6886234,-0.12449849,7.479486,-0.0036651916,0.0036651916,0.030543262,19.0,5.9358,-0.1475,7.8047,-0.0674,0.034199998,-0.0528,0.115828,-0.297746,0.365386,2017-06-05 06:55:08,46.062735507551196
5.707777,-0.12449849,7.469909,-0.002443461,0.002443461,0.03176499,20.0,5.9323997,-0.1417,7.8073997,0.0066,0.0179,-0.037,0.116802,-0.297218,0.367487,2017-06-05 06:55:09,44.04211029241941
5.717354,-0.10534488,7.479486,0.008552114,-0.008552114,0.02565634,19.0,5.941,-0.1461,7.8008,-0.0209,0.0162,0.013599999,0.115894,-0.297982,0.365575,2017-06-05 06:55:10,41.89942278446229
5.717354,-0.12449849,7.489063,0.010995574,-0.004886922,0.030543262,20.0,5.9413,-0.1301,7.8008,-0.0177,0.017099999,0.020399999,0.116758,-0.297713,0.365177,2017-06-05 06:55:11,40.71969064502299
5.6790466,-0.12449849,7.489063,0.004886922,-0.002443461,0.029321533,19.0,5.9416,-0.1275,7.8005996,-0.023,0.0061,-0.0023999999,0.116817,-0.297705,0.365162,2017-06-05 06:55:12,40.75534758093569
5.6982,-0.1436521,7.489063,0.007330383,-0.002443461,0.02687807,19.0,5.9393997,-0.12799999,7.8023,0.0071,-0.0145,0.0069999998,0.116809,-0.297563,0.365168,2017-06-05 06:55:13,41.726006054078304
5.717354,-0.12449849,7.4986396,-0.004886922,-0.002443461,0.030543262,17.0,5.9449,-0.12709999,7.7981997,0.0075,-0.0245,-0.0275,0.116954,-0.297842,0.365129,2017-06-05 06:55:14,42.597303209946126
5.7269306,-0.1436521,7.479486,0.0,0.0,0.034208454,19.0,5.9460998,-0.1418,7.797,0.0422,0.0279,0.015199999,0.114759,-0.298817,0.360649,2017-06-05 06:55:15,45.98321893551193
5.707777,-0.1340753,7.479486,-0.007330383,0.0,0.029321533,17.0,5.9363,-0.1343,7.8044996,0.022,0.0016,8.0E-4,0.116483,-0.297594,0.365331,2017-06-05 06:55:16,45.411293118163336
5.707777,-0.1436521,7.517793,-0.007330383,-0.008552114,0.030543262,17.0,5.9427,-0.1414,7.7995,-0.0409,0.0093,-0.0157,0.116276,-0.297842,0.36563098,2017-06-05 06:55:17,45.979425420021585
5.6886234,-0.1340753,7.5082164,0.007330383,-0.008552114,0.02321288,17.0,5.9374,-0.13769999,7.8037,-0.0481,0.014599999,-0.0276,0.116372,-0.297618,0.36544,2017-06-05 06:55:18,47.2779433111196
5.6790466,-0.11492168,7.4603324,0.004886922,-0.0036651916,0.02687807,17.0,5.9399,-0.1463,7.8016,0.0033999998,0.033299997,-0.0049,0.116032,-0.297771,0.365903,2017-06-05 06:55:19,50.42387873576316
5.707777,-0.12449849,7.5082164,0.0061086523,-0.0012217305,0.030543262,17.0,5.9400997,-0.1472,7.8015,-0.018199999,0.0243,-0.0178,0.116163,-0.297891,0.366012,2017-06-05 06:55:20,50.91565377732495
5.717354,-0.15322891,7.489063,-0.004886922,0.002443461,0.02687807,17.0,5.9379,-0.1335,7.8034,0.0,0.0186,0.0122,0.116658,-0.297759,0.365037,2017-06-05 06:55:21,49.99518005049286
5.7269306,-0.1340753,7.479486,0.004886922,0.0012217305,0.03176499,17.0,5.9386997,-0.1428,7.8026,0.0268,-0.0202,0.0287,0.116677,-0.297592,0.366982,2017-06-05 06:55:22,45.346404456541826
5.755661,-0.12449849,7.536947,0.0,0.0012217305,0.028099801,17.0,5.9386,-0.1495,7.8026,0.065299995,0.030399999,0.0718,0.115771,-0.298115,0.365896,2017-06-05 06:55:23,45.35613966003909
5.746084,-0.1340753,7.5082164,-0.007330383,0.002443461,0.03176499,17.0,5.9398,-0.1382,7.8018,0.022599999,-0.0049,-0.0115,0.116059996,-0.297857,0.3644,2017-06-05 06:55:24,47.077802072749364
5.659893,-0.10534488,7.4603324,0.004886922,-0.0012217305,0.035430185,17.0,5.9322,-0.1314,7.8076997,0.0383,-0.021,-0.0046,0.116983,-0.297035,0.366718,2017-06-05 06:55:25,51.17092112222855
5.707777,-0.1340753,7.441179,0.007330383,-0.0036651916,0.028099801,17.0,5.9451,-0.1312,7.7978997,-0.0075,-0.0023,-0.0609,0.117342,-0.297785,0.366541,2017-06-05 06:55:26,51.01855719872775
5.7269306,-0.10534488,7.4986396,0.0,-0.004886922,0.02687807,17.0,5.9412,-0.1317,7.8009,0.024799999,0.028099999,0.0179,0.117152,-0.297552,0.366574,2017-06-05 06:55:27,44.79332283073081
5.7365074,-0.1340753,7.517793,-0.008552114,-0.002443461,0.032986723,17.0,5.9379997,-0.129,7.8034,-0.006,-0.0036,-0.037,0.1172,-0.297276,0.366565,2017-06-05 06:55:28,45.62774838547199
5.717354,-0.10534488,7.489063,0.007330383,0.0012217305,0.029321533,19.0,5.9405,-0.1275,7.8015,0.0277,-0.0242,-0.018199999,0.117327,-0.297433,0.366533,2017-06-05 06:55:29,50.07577698467657
5.6982,-0.12449849,7.489063,-0.004886922,-0.0061086523,0.030543262,19.0,5.9403,-0.1237,7.8016996,0.023699999,0.0015,0.0315,0.117458,-0.29739,0.366501,2017-06-05 06:55:30,53.350581821733925
5.7365074,-0.16280572,7.5465236,-0.0036651916,-0.007330383,0.03176499,19.0,5.937,-0.1251,7.8041997,0.0148,0.015,0.0105,0.117236,-0.297278,0.366587,2017-06-05 06:55:31,52.038814241633
5.7748146,-0.095768064,7.52737,-0.0036651916,-0.0036651916,0.032986723,19.0,5.9426,-0.1309,7.7998,0.0492,-0.0313,0.0436,0.117319,-0.297579,0.366838,2017-06-05 06:55:32,49.569608035589695
5.746084,-0.1436521,7.4986396,-0.010995574,-0.002443461,0.036651913,19.0,5.9435997,-0.13409999,7.799,0.0379,-0.012499999,0.015299999,0.117448,-0.297628,0.366973,2017-06-05 06:55:33,48.379256568030875
5.765238,-0.11492168,7.52737,0.007330383,0.0012217305,0.02565634,19.0,5.943,-0.145,7.7992997,0.058599997,0.0312,0.0442,0.116001,-0.298143,0.364992,2017-06-05 06:55:34,47.18346741412529
5.6886234,-0.11492168,7.5082164,0.0012217305,-0.004886922,0.032986723,19.0,5.9438996,-0.1338,7.7988,-0.0289,0.020299999,-0.0055,0.116243,-0.297988,0.364108,2017-06-05 06:55:35,48.4233767192145
5.7269306,-0.12449849,7.5082164,-0.004886922,0.0,0.030543262,19.0,5.9347997,-0.13,7.8058,-0.021699999,0.0069999998,0.028099999,0.116707,-0.297308,0.365505,2017-06-05 06:55:36,46.52607231552392
5.717354,-0.1436521,7.5082164,-0.0012217305,-0.002443461,0.021991149,19.0,5.9400997,-0.1372,7.8016,0.0188,-0.0032,0.020299999,0.116341,-0.297891,0.365348,2017-06-05 06:55:37,47.67918308897522
5.6886234,-0.15322891,7.489063,0.0036651916,-0.002443461,0.02687807,17.0,5.9427,-0.1374,7.7997,0.0123,-0.0061999997,-0.0042999997,0.116817,-0.297815,0.36613,2017-06-05 06:55:38,44.88662734694765
5.7269306,-0.12449849,7.536947,0.0036651916,-0.0012217305,0.02687807,20.0,5.9433,-0.1295,7.7992997,0.0206,0.0064999997,0.0167,0.116849,-0.297806,0.365207,2017-06-05 06:55:39,44.98690761205055
5.6886234,-0.12449849,7.5082164,0.0012217305,0.002443461,0.029321533,19.0,5.9444,-0.1266,7.7985997,-0.0067999996,0.0032,0.024999999,0.116956,-0.29763,0.365177,2017-06-05 06:55:40,47.12777864289066
5.7269306,-0.15322891,7.489063,-0.002443461,0.0012217305,0.02687807,19.0,5.9403996,-0.1305,7.8015,0.0234,-0.022,0.0047,0.117685,-0.297286,0.36801898,2017-06-05 06:55:41,45.89114855128244
5.6790466,-0.11492168,7.489063,-0.002443461,0.0012217305,0.02687807,19.0,5.941,-0.145,7.8008,-0.0061999997,0.022599999,0.0169,0.115878,-0.2982,0.364782,2017-06-05 06:55:42,45.66023532982151
5.717354,-0.12449849,7.479486,-0.002443461,0.0,0.028099801,19.0,5.9453998,-0.139,7.7976,0.0198,0.035099998,0.0198,0.116471,-0.298104,0.365309,2017-06-05 06:55:43,46.26289109516158
5.6982,-0.12449849,7.4986396,-0.004886922,0.0012217305,0.032986723,19.0,5.944,-0.12799999,7.7988,-0.0150999995,0.0067,-0.0058,0.116604,-0.297861,0.364514,2017-06-05 06:55:44,44.447930112090724
5.7269306,-0.11492168,7.479486,0.004886922,0.0,0.02565634,19.0,5.9484,-0.1241,7.7955,-0.028299998,-0.0082,0.0022,0.116945,-0.298034,0.364403,2017-06-05 06:55:45,47.08850254790492
5.707777,-0.11492168,7.489063,0.0061086523,-0.0036651916,0.029321533,19.0,5.9426,-0.1223,7.7999997,-0.0201,-0.0099,0.01,0.11692,-0.297722,0.36442,2017-06-05 06:55:46,47.003705284316595
5.6790466,-0.10534488,7.4986396,0.0012217305,0.0,0.02321288,20.0,5.9414,-0.1237,7.8009,-0.028299998,0.0218,9.999999E-4,0.116798,-0.297728,0.364469,2017-06-05 06:55:47,41.46044125368541
5.707777,-0.12449849,7.489063,0.007330383,0.0,0.028099801,20.0,5.942,-0.1213,7.8005,0.0022,-0.0011,-0.0071,0.116956,-0.297667,0.36442,2017-06-05 06:55:48,38.69516815289175
5.707777,-0.11492168,7.4986396,0.002443461,-0.002443461,0.032986723,20.0,5.9414,-0.129,7.8008,-0.0262,0.0158,-0.031799998,0.116594,-0.297709,0.36455,2017-06-05 06:55:49,40.740166535377384
5.717354,-0.1340753,7.479486,0.0012217305,0.002443461,0.029321533,19.0,5.9424,-0.129,7.7999997,-0.0142,-0.0032,-0.0081,0.116627,-0.297837,0.364542,2017-06-05 06:55:50,39.927526986686686
5.717354,-0.12449849,7.479486,-0.0061086523,-0.012217305,0.034208454,19.0,5.9385,-0.1354,7.8029,0.0039,0.0112,-0.037299998,0.116431,-0.297565,0.365093,2017-06-05 06:55:51,39.38548962768093
5.707777,-0.1340753,7.479486,0.0036651916,0.0012217305,0.02687807,17.0,5.9449997,-0.13229999,7.798,-0.022699999,0.018,-0.0613,0.117475,-0.297635,0.367143,2017-06-05 06:55:52,40.36852995157552
5.707777,-0.12449849,7.4986396,0.0036651916,-0.002443461,0.030543262,8.0,5.9445,-0.1379,7.7983,-0.0023,-0.0047,-0.037299998,0.117343,-0.297701,0.367786,2017-06-05 06:55:53,40.77254546899943
5.6790466,-0.11492168,7.4986396,0.007330383,0.0012217305,0.021991149,19.0,5.9451,-0.1276,7.798,-0.0088,0.0176,0.0334,0.116843,-0.297943,0.365272,2017-06-05 06:55:54,39.9148510715799
5.717354,-0.1436521,7.5082164,-0.0036651916,0.0012217305,0.03176499,16.0,5.9456,-0.1265,7.7976,0.01,-0.0157,0.017099999,0.117209,-0.297813,0.365645,2017-06-05 06:55:55,42.11715377233122
5.6982,-0.095768064,7.4603324,0.0036651916,0.0,0.029321533,17.0,5.949,-0.124,7.7950997,0.0083,-0.0253,0.0037,0.117252,-0.297974,0.365632,2017-06-05 06:55:56,42.54636355950812
5.7269306,-0.1436521,7.489063,0.004886922,-0.0061086523,0.021991149,17.0,5.9488,-0.12329999,7.7952,-0.0019999999,0.0103,0.033099998,0.117424,-0.297929,0.365572,2017-06-05 06:55:58,40.0665607136028
5.6982,-0.11492168,7.5082164,0.0036651916,-0.004886922,0.02443461,16.0,5.9459996,-0.120299995,7.7974,-0.0277,0.007999999,-0.006,0.117496,-0.297716,0.365558,2017-06-05 06:55:59,41.820497039021454
5.707777,-0.10534488,7.479486,-0.004886922,0.0,0.02443461,7.0,5.9498997,-0.116799995,7.7945,-0.0018999999,-0.0042,-0.018099999,0.117667,-0.297846,0.365511,2017-06-05 06:56:00,41.41902058547644
5.7365074,-0.10534488,7.517793,0.0036651916,0.0,0.03176499,10.0,5.9474998,-0.1191,7.7963,0.028199999,-0.0037,0.015199999,0.117591,-0.297774,0.365546,2017-06-05 06:56:01,43.77837692862816
5.717354,-0.1340753,7.4986396,-0.0036651916,-0.004886922,0.02443461,10.0,5.9526997,-0.1264,7.7921996,0.0014,-0.0064999997,0.009,0.117401,-0.298162,0.365612,2017-06-05 06:56:02,59.40158097847533
5.717354,-0.11492168,7.517793,0.0061086523,0.0036651916,0.028099801,11.0,5.9459996,-0.121999994,7.7974,0.0095,0.0092,0.026899999,0.117431,-0.297743,0.36561,2017-06-05 06:56:03,61.082259132627534
5.707777,-0.095768064,7.479486,0.002443461,-0.0061086523,0.032986723,13.0,5.9487,-0.1204,7.7953,0.0143,-0.0033,-0.0011,0.117611,-0.297827,0.365553,2017-06-05 06:56:04,42.26302071363389
5.707777,-0.12449849,7.4986396,0.008552114,-0.004886922,0.034208454,13.0,5.9448,-0.118999995,7.7984,0.0186,-0.0037,0.0199,0.117538996,-0.297616,0.365587,2017-06-05 06:56:05,42.45300018125207
5.717354,-0.12449849,7.4986396,-0.0036651916,-0.002443461,0.028099801,11.0,5.9442,-0.1226,7.7987,0.0162,0.0,0.0121,0.117361,-0.297638,0.365653,2017-06-05 06:56:06,43.32005812165455
5.6982,-0.12449849,7.469909,0.0061086523,0.002443461,0.02687807,7.0,5.9452,-0.1265,7.7978997,-0.0084999995,-0.0056,-0.0029,0.117189,-0.29776,0.365711,2017-06-05 06:56:07,39.64226252251595
5.717354,-0.12449849,7.489063,-0.009773844,0.002443461,0.035430185,16.0,5.9447,-0.12019999,7.7984,0.0168,-0.0023,0.0045,0.117491,-0.297635,0.36562,2017-06-05 06:56:08,42.00550543658341
5.6982,-0.12449849,7.5082164,-0.004886922,0.0,0.028099801,17.0,5.9435997,-0.1283,7.7991,-0.0067,0.005,0.0164,0.117122,-0.297706,0.36574998,2017-06-05 06:56:09,39.141158832259485
5.707777,-0.11492168,7.517793,0.008552114,0.0012217305,0.02076942,14.0,5.9452,-0.1312,7.7978997,-0.0050999997,0.018199999,0.019,0.117014,-0.297867,0.365793,2017-06-05 06:56:10,41.182196570159505
5.707777,-0.12449849,7.479486,0.0036651916,-0.004886922,0.036651913,19.0,5.9462,-0.125,7.7971997,-0.010199999,0.021699999,0.0517,0.117297,-0.297776,0.365711,2017-06-05 06:56:11,41.4048000507756
5.707777,-0.11492168,7.517793,0.002443461,-0.002443461,0.03176499,17.0,5.9448,-0.122999996,7.7983,-0.0254,0.0105,-0.0347,0.11738,-0.297685,0.365692,2017-06-05 06:56:12,42.4622094151918
5.717354,-0.1436521,7.469909,0.0,0.0012217305,0.02565634,16.0,5.9491997,-0.1266,7.7949,0.012499999,-0.0158,-0.0117,0.11732,-0.298,0.365716,2017-06-05 06:56:13,44.055398592543646
5.7269306,-0.12449849,7.489063,-0.002443461,-0.008552114,0.030543262,16.0,5.9431,-0.12459999,7.7995,0.0089,0.0019999999,-0.0167,0.117248,-0.297596,0.36574098,2017-06-05 06:56:14,41.74237303499125
5.707777,-0.1340753,7.479486,0.0,-0.008552114,0.036651913,17.0,5.943,-0.1218,7.7997,-0.023699999,-2.9999999E-4,-0.0067,0.117391,-0.297564,0.365697,2017-06-05 06:56:15,39.7456717054408
5.6982,-0.11492168,7.5082164,0.0,-0.002443461,0.028099801,17.0,5.9441,-0.124699995,7.7988,0.0023,0.0109,0.0278,0.117301,-0.297612,0.365728,2017-06-05 06:56:16,43.1329729624417
5.707777,-0.1340753,7.517793,0.0036651916,-0.007330383,0.034208454,7.0,5.9426,-0.12619999,7.7998996,-2.9999999E-4,-0.0061999997,0.0201,0.117192,-0.297622,0.365779,2017-06-05 06:56:17,45.341089172926985
5.746084,-0.11492168,7.1634517,0.0012217305,0.004886922,0.032986723,11.0,5.8854,-0.1339,7.843,-0.0349,0.0105,0.39389998,0.116527,-0.295923,0.367172,2017-06-05 06:56:18,41.034899089223174
5.717354,-0.12449849,7.4986396,-0.0036651916,-0.007330383,0.034208454,17.0,5.9337997,-0.13849999,7.8064,0.012999999,0.0155,-0.0218,0.116627,-0.297288,0.366587,2017-06-05 06:56:19,40.21684642127948
5.6982,-0.1436521,7.4986396,-0.002443461,-0.002443461,0.029321533,13.0,5.942,-0.13229999,7.8002996,-0.0123,-0.0137,-0.0078,0.117246,-0.297421,0.366481,2017-06-05 06:56:20,41.65169782045264
5.707777,-0.12449849,7.489063,0.009773844,-0.002443461,0.028099801,20.0,5.9433,-0.1374,7.7991996,0.0178,0.014699999,-4.9999997E-4,0.116399,-0.297869,0.365268,2017-06-05 06:56:21,45.95645949760828
5.717354,-0.10534488,7.4986396,0.0061086523,-0.002443461,0.02687807,20.0,5.9424996,-0.121999994,7.7999997,7.0E-4,-4.0E-4,0.0016999999,0.116995,-0.297689,0.364601,2017-06-05 06:56:22,43.37207690753906
5.707777,-0.1436521,7.4986396,0.004886922,-0.0036651916,0.03176499,21.0,5.9442,-0.1195,7.7988,0.0018999999,-0.022799999,0.0082,0.117179,-0.297777,0.364543,2017-06-05 06:56:23,47.29550487702889
5.7269306,-0.11492168,7.4986396,-0.0061086523,-0.0061086523,0.032986723,21.0,5.9466,-0.118099995,7.797,0.0128,0.0053999997,0.0128,0.11727,-0.297839,0.364525,2017-06-05 06:56:24,44.1967929834233
5.707777,-0.12449849,7.52737,0.0012217305,0.0012217305,0.030543262,21.0,5.9466996,-0.1215,7.7969,0.012999999,-0.0207,-0.012399999,0.117166,-0.298011,0.36456,2017-06-05 06:56:25,45.9325670683475
5.707777,-0.11492168,7.479486,0.002443461,-0.0012217305,0.029321533,21.0,5.9462,-0.120699994,7.7971997,-0.0314,0.0084999995,-0.0104,0.117147,-0.297867,0.364578,2017-06-05 06:56:26,43.521132365838014
5.746084,-0.12449849,7.4986396,0.004886922,-0.004886922,0.03176499,21.0,5.949,-0.114999995,7.7952,0.0112,-0.0056999996,-0.011,0.117406,-0.297914,0.364502,2017-06-05 06:56:27,43.38981985647148
5.717354,-0.10534488,7.469909,-0.007330383,0.002443461,0.02565634,21.0,5.9460998,-0.119399995,7.7973,1.0E-4,0.0164,-0.014599999,0.117227,-0.297821,0.364579,2017-06-05 06:56:28,41.1701226826808
5.707777,-0.11492168,7.4986396,0.0036651916,0.0,0.035430185,20.0,5.9399,-0.116299994,7.8020997,-0.0064999997,-0.0157,-1.0E-4,0.117207,-0.297428,0.364592,2017-06-05 06:56:29,42.29480059327638
5.7365074,-0.12449849,7.4603324,-0.002443461,-0.0061086523,0.034208454,20.0,5.9399,-0.1284,7.8019,0.0313,0.0041,-0.0308,0.116704,-0.297551,0.36477,2017-06-05 06:56:30,42.2392421587372
5.6982,-0.12449849,7.479486,-0.010995574,-0.0061086523,0.029321533,21.0,5.9451,-0.1204,7.7981,-0.0078,-0.0019999999,-0.0111,0.117153,-0.29779398,0.364629,2017-06-05 06:56:31,42.932961069929725
5.717354,-0.12449849,7.5082164,0.0061086523,0.0,0.032986723,21.0,5.9451,-0.1223,7.7981,-0.031,-1.0E-4,0.0132,0.117068,-0.297817,0.364671,2017-06-05 06:56:32,42.97963458055286
5.6886234,-0.076614454,7.479486,0.0,-0.002443461,0.036651913,21.0,5.9424,-0.1206,7.8001,0.0242,-0.0116,0.0458,0.117088,-0.297643,0.364673,2017-06-05 06:56:33,42.1180388863433
5.6982,-0.1340753,7.5082164,0.0,-0.0036651916,0.035430185,21.0,5.9423,-0.124699995,7.8002,0.0069,-0.009699999,0.0321,0.116985,-0.297678,0.364716,2017-06-05 06:56:34,41.05019676689948
5.7365074,-0.11492168,7.5082164,-0.012217305,-0.002443461,0.032986723,20.0,5.9406,-0.120299995,7.8015,-0.0111,-0.011,-0.0359,0.11701,-0.297498,0.364718,2017-06-05 06:56:35,43.0931744000376
5.6886234,-0.1340753,7.489063,0.012217305,-0.002443461,0.02443461,21.0,5.9438,-0.1264,7.799,0.0046,-0.0157,-0.0033999998,0.116869,-0.297824,0.364769,2017-06-05 06:56:36,45.64851978965946
5.6982,-0.10534488,7.5082164,-0.0036651916,0.0,0.037873644,21.0,5.9448,-0.1191,7.7984,0.006,0.0156,0.0323,0.117196,-0.297639,0.364669,2017-06-05 06:56:37,43.570464806332
5.6886234,-0.12449849,7.479486,-0.004886922,-0.002443461,0.030543262,21.0,5.9396,-0.1201,7.8023,-0.014699999,-0.0022,-0.018199999,0.117056,-0.297473,0.364724,2017-06-05 06:56:38,42.186399471755706
5.707777,-0.10534488,7.5082164,0.0036651916,-0.007330383,0.034208454,21.0,5.9384,-0.1204,7.8032,0.023899999,-4.9999997E-4,0.011299999,0.116944,-0.297447,0.36477,2017-06-05 06:56:39,41.76552497168318
5.6886234,-0.1340753,7.489063,0.0,-0.0036651916,0.02687807,21.0,5.9393,-0.1149,7.8026,-0.0392,-0.0074,-0.0026,0.11729,-0.297354,0.364667,2017-06-05 06:56:40,44.40555040899401
5.6407394,-0.11492168,7.4603324,0.0061086523,-0.004886922,0.034208454,23.0,5.9392,-0.120699994,7.8026,-0.0622,0.0084999995,-0.0345,0.117266,-0.297432,0.365455,2017-06-05 06:56:41,41.242149146954205
5.717354,-0.11492168,7.4986396,0.0012217305,0.0,0.032986723,20.0,5.9452996,-0.1406,7.7976,0.0084,0.0346,0.0032,0.117031,-0.297728,0.367041,2017-06-05 06:56:42,46.78128764748805
5.717354,-0.12449849,7.489063,0.0036651916,-0.004886922,0.037873644,21.0,5.9463997,-0.1281,7.797,-0.0104,0.024899999,-0.0018999999,0.117255,-0.297848,0.365956,2017-06-05 06:56:43,39.929419255489556
5.707777,-0.12449849,7.479486,-0.0012217305,-0.002443461,0.029321533,21.0,5.9445996,-0.1259,7.7984,-0.0139999995,0.0018999999,-0.0286,0.117436,-0.297796,0.365902,2017-06-05 06:56:44,39.92680242199739
5.6982,-0.1436521,7.517793,-0.002443461,0.004886922,0.029321533,23.0,5.9393997,-0.120799996,7.8025,-0.006,-0.0212,0.019,0.117424,-0.29731,0.365917,2017-06-05 06:56:45,43.79040916460962
5.717354,-0.12449849,7.4986396,0.0036651916,0.0,0.034208454,21.0,5.9438,-0.1231,7.7991,0.005,-0.0021,0.0058999998,0.117503,-0.29744,0.365899,2017-06-05 06:56:46,41.70242503674856
5.707777,-0.12449849,7.469909,-0.0012217305,-0.009773844,0.032986723,21.0,5.9428,-0.1248,7.7998,0.010199999,-0.0075,-0.037299998,0.117328,-0.297577,0.365963,2017-06-05 06:56:47,45.89339667712594
5.6790466,-0.12449849,7.479486,-0.009773844,-0.0036651916,0.039095376,21.0,5.9441,-0.1204,7.7988,-0.031799998,-0.0022,-0.020299999,0.117557,-0.297522,0.365905,2017-06-05 06:56:48,45.59684130464632
5.707777,-0.11492168,7.479486,-0.004886922,0.002443461,0.030543262,21.0,5.9459996,-0.116399996,7.7974997,0.0103,0.0042,0.0071,0.117758,-0.297569,0.365848,2017-06-05 06:56:49,40.876834997999566
5.707777,-0.1436521,7.52737,-0.007330383,-0.002443461,0.034208454,21.0,5.9395,-0.1166,7.8023996,0.034199998,0.023699999,0.010799999,0.11763,-0.297235,0.365901,2017-06-05 06:56:50,45.31069257642554
5.717354,-0.11492168,7.517793,0.0036651916,-0.0012217305,0.03176499,21.0,5.9391,-0.1195,7.8026996,0.014099999,0.0075,0.0186,0.117459,-0.297259,0.365973,2017-06-05 06:56:51,43.20510004744861
5.6982,-0.11492168,7.4986396,0.0,-0.0012217305,0.02565634,21.0,5.9452996,-0.12719999,7.7978997,-0.0022,0.014099999,0.0162,0.1173,-0.297755,0.366036,2017-06-05 06:56:52,45.05497380949428
5.6886234,-0.12449849,7.4986396,0.0012217305,0.002443461,0.028099801,21.0,5.9445,-0.12329999,7.7984996,-0.0115,-0.009099999,-0.0013,0.117489,-0.297721,0.365981,2017-06-05 06:56:53,45.104227848540326
5.6982,-0.11492168,7.489063,-0.009773844,-0.0012217305,0.02687807,20.0,5.9465,-0.1218,7.797,-0.0103,-7.0E-4,-0.0016,0.117575,-0.297721,0.365964,2017-06-05 06:56:54,44.54509747798208
5.6886234,-0.11492168,7.4986396,0.013439035,-0.002443461,0.029321533,21.0,5.9449997,-0.1201,7.7981997,-0.0253,0.0082,-0.0030999999,0.117573,-0.297578,0.36598,2017-06-05 06:56:55,38.370637961013
5.6886234,-0.1340753,7.517793,-0.0036651916,0.0,0.029321533,20.0,5.9493,-0.1214,7.7949,0.0095999995,-0.0101,-0.016999999,0.117608,-0.297834,0.365977,2017-06-05 06:56:56,40.93700800396607
5.717354,-0.11492168,7.517793,0.002443461,-0.002443461,0.02687807,20.0,5.9442997,-0.118999995,7.7987,-0.0115,0.0262,-0.010799999,0.117657,-0.297541,0.365965,2017-06-05 06:56:57,43.592716241117216
5.717354,-0.1340753,7.469909,-0.0012217305,-0.002443461,0.032986723,20.0,5.9445996,-0.1219,7.7984,0.0286,-0.0099,4.9999997E-4,0.117501,-0.297634,0.366027,2017-06-05 06:56:58,46.27614541242788
5.6886234,-0.10534488,7.469909,-0.0036651916,-0.0061086523,0.03176499,20.0,5.9434,-0.1215,7.7994,-0.023,0.0187,-0.0315,0.117528,-0.297532,0.366022,2017-06-05 06:56:59,43.87330446080742
5.707777,-0.11492168,7.5082164,0.004886922,-0.002443461,0.030543262,20.0,5.9392,-0.121599995,7.8026,-9.999999E-4,1.0E-4,-0.0166,0.117394,-0.297325,0.366083,2017-06-05 06:57:00,46.521215329287166
5.7269306,-0.12449849,7.489063,0.0061086523,-0.0061086523,0.02565634,19.0,5.9438996,-0.122499995,7.799,0.0039999997,-0.0098,0.0186,0.117499,-0.297579,0.366049,2017-06-05 06:57:01,42.08020774405239
5.707777,-0.11492168,7.4986396,0.0,0.0,0.034208454,20.0,5.9451,-0.1187,7.7981,0.0018999999,0.0056999996,0.0083,0.117716,-0.297563,0.365984,2017-06-05 06:57:02,42.557536945790346
5.6886234,-0.12449849,7.479486,-0.010995574,0.0012217305,0.037873644,20.0,5.9445996,-0.1232,7.7984,0.0079,-0.0287,-0.0061999997,0.117502,-0.297659,0.366062,2017-06-05 06:57:03,41.828808959102275
5.7269306,-0.12449849,7.5082164,0.0036651916,-0.002443461,0.028099801,20.0,5.948,-0.12529999,7.7957997,0.0122,-0.0074,0.037499998,0.117478,-0.29786,0.366077,2017-06-05 06:57:04,38.77553103846128
5.717354,-0.11492168,7.5082164,-0.008552114,0.0061086523,0.032986723,20.0,5.942,-0.1241,7.8004,0.010799999,0.0095999995,0.011299999,0.117474,-0.297476,0.366078,2017-06-05 06:57:05,43.02304136261701
5.707777,-0.1340753,7.489063,-0.002443461,-0.002443461,0.028099801,20.0,5.944,-0.12709999,7.7988,0.0077,-0.0055,0.0041,0.117306,-0.297667,0.36614,2017-06-05 06:57:06,43.165614266848216
5.717354,-0.11492168,7.52737,-0.0036651916,-0.0012217305,0.029321533,20.0,5.9414,-0.1227,7.8009,-0.0067,-0.018099999,-0.0021,0.117416,-0.297497,0.366103,2017-06-05 06:57:07,45.16366676064834
5.707777,-0.12449849,7.4986396,-0.004886922,-0.0036651916,0.034208454,20.0,5.94,-0.12619999,7.8019,0.0079,0.0231,0.035499997,0.117253,-0.297425,0.366168,2017-06-05 06:57:08,45.45338647296794
5.707777,-0.12449849,7.4986396,-0.002443461,0.0012217305,0.030543262,21.0,5.943,-0.1228,7.7997,-0.0011999999,0.0011999999,4.0E-4,0.11744,-0.29756,0.36611,2017-06-05 06:57:09,41.40477255197612
5.717354,-0.12449849,7.4986396,0.0036651916,-0.0061086523,0.030543262,21.0,5.9419,-0.118,7.8005996,0.0098,-0.0332,0.011899999,0.117675,-0.29746,0.366037,2017-06-05 06:57:10,40.84735423061063
5.6982,-0.12449849,7.5082164,0.002443461,-0.004886922,0.030543262,21.0,5.9423,-0.1232,7.8002,-0.0195,8.0E-4,-0.0123,0.117452,-0.297495,0.366126,2017-06-05 06:57:11,42.45816845007695
5.7269306,-0.10534488,7.5082164,-0.008552114,0.0,0.03176499,20.0,5.9463,-0.122499995,7.7971997,0.01,0.020399999,0.019199999,0.117547,-0.297743,0.366103,2017-06-05 06:57:12,42.816865557842846
5.6790466,-0.08619126,7.5465236,0.0061086523,-0.0012217305,0.02687807,21.0,5.9374,-0.116,7.804,-0.0201,0.032899998,0.0517,0.117665,-0.297083,0.366083,2017-06-05 06:57:13,44.45256550746804
5.717354,-0.1340753,7.52737,-0.0012217305,0.002443461,0.028099801,21.0,5.9421997,-0.12019999,7.8002996,0.010199999,-0.0131,-1.0E-4,0.117637,-0.297383,0.366103,2017-06-05 06:57:14,42.6898358070885
5.7269306,-0.12449849,7.479486,0.0036651916,-0.004886922,0.03176499,21.0,5.9456,-0.1191,7.7977996,0.0049,0.025999999,0.0132,0.117723,-0.297595,0.366083,2017-06-05 06:57:15,44.22701076635792
5.6886234,-0.12449849,7.469909,0.004886922,-0.0036651916,0.02321288,21.0,5.9463,-0.12239999,7.7970996,-0.0016,-0.0013,0.0011999999,0.117622,-0.297645,0.366124,2017-06-05 06:57:16,43.4791006967166
5.717354,-0.10534488,7.4986396,-0.007330383,0.0012217305,0.034208454,21.0,5.9469,-0.1178,7.7967997,0.046499997,-0.0132,0.0316,0.117746,-0.297664,0.366084,2017-06-05 06:57:17,45.134253306477746
5.7269306,-0.12449849,7.5082164,0.0012217305,0.0012217305,0.028099801,20.0,5.9441,-0.1228,7.7988,-4.9999997E-4,-0.0191,-0.0195,0.117532,-0.29758,0.366163,2017-06-05 06:57:19,46.25980166869699
5.7269306,-0.1340753,7.4986396,0.0012217305,0.0,0.032986723,20.0,5.9476,-0.12019999,7.7962,0.0052,-0.0112,0.0030999999,0.117677,-0.297693,0.366124,2017-06-05 06:57:20,45.56969264047198
5.717354,-0.11492168,7.5082164,0.0012217305,-0.002443461,0.030543262,21.0,5.9455,-0.12979999,7.7976,-4.0E-4,0.0169,0.0032,0.117256,-0.297793,0.366265,2017-06-05 06:57:21,46.770983291613305
5.707777,-0.11492168,7.4986396,0.013439035,-0.002443461,0.02687807,21.0,5.9462,-0.1214,7.7971997,-0.0188,0.029299999,-0.0128,0.11762,-0.297707,0.366161,2017-06-05 06:57:22,43.87829877139775
5.7365074,-0.1340753,7.4986396,0.002443461,0.0036651916,0.035430185,21.0,5.9427,-0.121599995,7.7998996,-0.0033999998,-2.9999999E-4,-0.0094,0.117561996,-0.297478,0.366182,2017-06-05 06:57:23,44.888940153572385
5.717354,-0.12449849,7.479486,-0.0061086523,0.0012217305,0.034208454,21.0,5.943,-0.1244,7.7995996,0.0044,0.0021,-0.0231,0.117455,-0.297597,0.366226,2017-06-05 06:57:24,41.4079897119087
5.707777,-0.10534488,7.479486,-0.0036651916,-0.0012217305,0.032986723,21.0,5.9437,-0.1269,7.7991,0.011399999,0.0132,0.0185,0.117381,-0.297627,0.366258,2017-06-05 06:57:25,44.377467488580315
5.6886234,-0.12449849,7.479486,-0.0061086523,-0.0012217305,0.032986723,21.0,5.9447,-0.124199994,7.7983,0.0211,-0.008599999,0.0328,0.1175,-0.297634,0.366231,2017-06-05 06:57:26,39.83846155050786
5.602432,-0.1436521,8.025364,-0.002443461,0.35308012,0.029321533,20.0,5.9546,-0.1252,7.7907996,-0.1929,-0.018199999,0.5876,0.119279,-0.302316,0.365093,2017-06-05 06:57:27,40.77568368140544
5.6886234,-0.12449849,7.479486,-0.009773844,0.021991149,0.029321533,20.0,5.9322,-0.14119999,7.8076,-0.013599999,0.018099999,-0.0313,0.1156,-0.297588,0.364082,2017-06-05 06:57:28,41.38969272555066
5.717354,-0.12449849,7.4986396,-0.0012217305,-0.007330383,0.02565634,21.0,5.9379997,-0.1241,7.8034,-0.0021,-0.018299999,-0.0032,0.11755,-0.29701,0.367039,2017-06-05 06:57:29,40.38751513184994
5.6982,-0.1340753,7.4986396,-0.009773844,0.004886922,0.030543262,21.0,5.9444,-0.1442,7.7981997,0.018299999,0.0106999995,-0.0133,0.116295,-0.298116,0.36562,2017-06-05 06:57:30,40.68935254382477
5.6982,-0.1436521,7.5082164,0.0012217305,-0.0036651916,0.030543262,21.0,5.9424996,-0.1322,7.7998996,0.0039,-0.0098,0.0265,0.117462,-0.297444,0.367652,2017-06-05 06:57:31,40.32958298343699
5.6886234,-0.1340753,7.479486,0.0012217305,-0.009773844,0.029321533,21.0,5.942,-0.12109999,7.8004,0.022699999,0.0071,0.0074,0.118056,-0.29725,0.367436,2017-06-05 06:57:32,39.731316074586516
5.717354,-0.1340753,7.489063,-0.008552114,0.0,0.028099801,21.0,5.9381,-0.122099996,7.8034,0.0042,-1.0E-4,0.0042999997,0.117867,-0.297057,0.367512,2017-06-05 06:57:33,39.80602103160821
5.6886234,-0.12449849,7.5082164,-0.010995574,-0.0036651916,0.035430185,21.0,5.9423,-0.12719999,7.8001,-0.0042999997,0.0046,0.0297,0.117716,-0.297378,0.36757,2017-06-05 06:57:34,41.65846286407092
5.6982,-0.11492168,7.469909,-0.007330383,-0.0012217305,0.035430185,21.0,5.9435997,-0.1274,7.7991,-0.0122,0.0145,-0.0296,0.117766,-0.29746,0.367566,2017-06-05 06:57:35,42.04746754876674
5.66947,-0.095768064,7.4986396,-0.002443461,-0.002443461,0.029321533,21.0,5.9442997,-0.1248,7.7985997,-0.0089,-0.0268,-0.0202,0.1179,-0.297451,0.367529,2017-06-05 06:57:36,43.98467274837374
5.717354,-0.11492168,7.479486,0.009773844,-0.0012217305,0.02565634,19.0,5.942,-0.1204,7.8005,0.0087,0.0078,-0.0213,0.118043,-0.297238,0.367481,2017-06-05 06:57:37,42.921936439624616
5.6886234,-0.10534488,7.5082164,0.004886922,0.0036651916,0.029321533,19.0,5.9451,-0.1226,7.7981,-0.0164,0.0196,0.0197,0.11802,-0.297449,0.367499,2017-06-05 06:57:38,46.40883851770682
5.6886234,-0.12449849,7.4603324,-0.015882496,-0.0012217305,0.028099801,17.0,5.9465,-0.121599995,7.797,-0.0111,-0.0098,0.0087,0.118083,-0.297577,0.367486,2017-06-05 06:57:39,45.617529887866
5.707777,-0.1340753,7.52737,0.002443461,-0.0012217305,0.028099801,20.0,5.9452,-0.1257,7.7978997,-0.0127,-0.0165,0.0022,0.11789,-0.297514,0.367557,2017-06-05 06:57:40,42.53070692314325
5.7269306,-0.1340753,7.4986396,0.0,-0.0061086523,0.02687807,21.0,5.9347997,-0.116,7.8059998,0.011399999,-0.0117999995,-0.0111,0.117907,-0.296864,0.367563,2017-06-05 06:57:41,44.45361401379347
5.6982,-0.1340753,7.4603324,0.007330383,-0.0061086523,0.028099801,21.0,5.9428,-0.121199995,7.7998,0.0023999999,-0.0112,-0.021599999,0.11804,-0.297295,0.367525,2017-06-05 06:57:42,45.847056277887994
5.717354,-0.12449849,7.4603324,-0.013439035,0.002443461,0.035430185,21.0,5.9452,-0.1248,7.7978997,0.0106,0.0022,-0.0301,0.117952,-0.29755,0.36756,2017-06-05 06:57:43,43.90770615609401
5.7269306,-0.12449849,7.5082164,0.007330383,-0.0036651916,0.035430185,19.0,5.9427,-0.11889999,7.7998996,0.0039,-0.0033999998,0.0358,0.118143,-0.297244,0.367506,2017-06-05 06:57:44,40.957625582126624
5.7269306,-0.11492168,7.517793,0.008552114,-0.0036651916,0.030543262,19.0,5.9434,-0.121999994,7.7992997,0.0139,0.0092,0.0285,0.118034996,-0.297365,0.367553,2017-06-05 06:57:45,40.87463797032911
5.7269306,-0.10534488,7.4986396,0.004886922,-0.0012217305,0.03176499,21.0,5.9419,-0.118499994,7.8005996,0.0053999997,-0.0023,0.0348,0.118064,-0.297181,0.367559,2017-06-05 06:57:46,41.6539332954402
5.7269306,-0.11492168,7.479486,0.002443461,-0.0012217305,0.032986723,21.0,5.9428997,-0.1135,7.7998996,0.022,9.0E-4,0.0175,0.118401,-0.297147,0.367458,2017-06-05 06:57:47,54.1460927542674
5.6982,-0.1340753,7.479486,0.002443461,0.0012217305,0.035430185,20.0,5.9426,-0.1162,7.8001,-8.0E-4,-0.014699999,-0.009099999,0.118192,-0.297143,0.367534,2017-06-05 06:57:48,42.27045529083473
5.707777,-0.12449849,7.489063,0.009773844,-0.002443461,0.029321533,20.0,5.9395,-0.1241,7.8023,-0.0245,0.0021,-0.0473,0.117854,-0.297154,0.367658,2017-06-05 06:57:49,48.225883432470866
5.6982,-0.10534488,7.489063,-0.0012217305,0.0036651916,0.036651913,20.0,5.9407997,-0.1236,7.8012996,-0.0075,0.0127,0.010199999,0.117823,-0.297256,0.367677,2017-06-05 06:57:50,45.83044390562115
5.707777,-0.1340753,7.489063,-0.0061086523,-0.002443461,0.029321533,20.0,5.9473,-0.118599996,7.7963996,0.0143,0.0156,0.0162,0.118291,-0.297483,0.367535,2017-06-05 06:57:51,42.86514184243622
5.7269306,-0.12449849,7.489063,-0.004886922,-0.0036651916,0.03176499,20.0,5.9424996,-0.1213,7.8001,9.999999E-4,-9.0E-4,-0.020499999,0.11806,-0.297264,0.367628,2017-06-05 06:57:52,44.587473765551366
5.7269306,-0.12449849,7.4986396,-0.0012217305,0.002443461,0.039095376,21.0,5.9393,-0.12109999,7.8025,0.0039999997,-2.9999999E-4,-0.024799999,0.117936,-0.297045,0.367671,2017-06-05 06:57:53,40.636351863041725
5.707777,-0.11492168,7.4986396,0.0061086523,0.0,0.02687807,21.0,5.9414,-0.1183,7.8009,0.0117,0.0254,-0.008599999,0.118171,-0.297147,0.367602,2017-06-05 06:57:54,42.15712643235972
5.707777,-0.1340753,7.5082164,-0.002443461,0.0,0.034208454,21.0,5.9423,-0.118499994,7.8002996,-0.0011,-0.0148,0.0106,0.118269,-0.297233,0.367576,2017-06-05 06:57:55,41.64494591875407
5.6886234,-0.12449849,7.469909,-0.0061086523,-0.0012217305,0.032986723,20.0,5.9407,-0.119899996,7.8015,-0.0145,-0.0025,-0.0256,0.11809,-0.297132,0.367645,2017-06-05 06:57:56,42.229893635296854
5.6886234,-0.12449849,7.4986396,0.010995574,-0.002443461,0.02565634,20.0,5.9427,-0.118099995,7.7998996,0.0267,-0.0049,0.0436,0.118247,-0.297223,0.367602,2017-06-05 06:57:57,40.69015668281661
5.6886234,-0.10534488,7.5082164,0.0,0.0012217305,0.029321533,11.0,5.9473,-0.1331,7.7962,0.022699999,-0.009699999,0.0077,0.116623,-0.298159,0.364764,2017-06-05 06:57:58,41.929716722840254
5.995081,-0.12449849,7.1347213,-0.0061086523,-0.04520403,0.034208454,20.0,6.2167,-0.1261,7.5832996,0.055499997,0.0033999998,-0.14479999,0.12279,-0.312372,0.362425,2017-06-05 06:57:59,39.13190265147335
5.707777,-0.10534488,7.5082164,0.008552114,0.004886922,0.030543262,27.0,5.9452996,-0.148,7.7974997,0.0058,0.023,0.054899998,0.116343,-0.298102,0.366168,2017-06-05 06:58:00,38.79542422412796
5.707777,-0.1436521,7.5082164,0.004886922,0.0,0.035430185,19.0,5.9413,-0.14029999,7.8005996,-0.0039999997,-0.0023999999,0.0032,0.117162,-0.297571,0.367832,2017-06-05 06:58:01,39.474970569865334
5.6982,-0.12449849,7.489063,-0.004886922,0.0012217305,0.03176499,19.0,5.9444,-0.1423,7.7981997,-0.0028,0.0095,-0.021499999,0.117414996,-0.297677,0.368634,2017-06-05 06:58:02,41.774451405890616
5.717354,-0.12449849,7.5082164,0.0036651916,-0.002443461,0.02443461,17.0,5.9388,-0.12969999,7.8027997,0.0163,-0.0128999995,-0.0047,0.117776,-0.297146,0.368294,2017-06-05 06:58:03,41.43834869416303
5.707777,-0.12449849,7.4986396,-0.0036651916,0.0012217305,0.032986723,17.0,5.9399,-0.12879999,7.8019,-0.0023,-0.0128,-0.0178,0.117809996,-0.297183,0.368298,2017-06-05 06:58:04,40.581500539761464
5.6790466,-0.12449849,7.4986396,0.0036651916,-0.004886922,0.029321533,17.0,5.9398,-0.125,7.8019996,0.0023999999,0.0026,-0.014099999,0.118013,-0.29711398,0.368237,2017-06-05 06:58:05,39.54237457720658
5.6886234,-0.1340753,7.536947,0.002443461,-0.004886922,0.032986723,19.0,5.9356,-0.120299995,7.8052998,0.0,-0.011899999,-1.0E-4,0.118127,-0.296786,0.368213,2017-06-05 06:58:06,40.226729280658155
5.6982,-0.1340753,7.4986396,0.0012217305,-0.004886922,0.029321533,19.0,5.9368,-0.1235,7.8044,0.0067999996,-0.0089,0.0144,0.118052,-0.29700398,0.368249,2017-06-05 06:58:07,40.396611902065175
5.6982,-0.12449849,7.489063,0.009773844,-0.0061086523,0.029321533,17.0,5.9315,-0.1213,7.8083997,0.0264,-0.0077,0.2348,0.117359,-0.296465,0.367317,2017-06-05 06:58:08,42.06075539173153
5.257667,0.22984336,6.1770406,-0.015882496,-0.1600467,0.02565634,19.0,5.94,-0.1434,7.8016,0.0422,0.0769,-0.456,0.118333,-0.29568,0.371619,2017-06-05 06:58:09,40.014579331613724
5.7269306,-0.1436521,7.5082164,0.0,-0.0012217305,0.032986723,19.0,5.9347,-0.1592,7.8054,0.0279,0.0058,0.025999999,0.115919,-0.297653,0.367446,2017-06-05 06:58:10,40.62102538701512
5.7269306,-0.11492168,7.5082164,0.0,-0.004886922,0.028099801,20.0,5.9291997,-0.1299,7.8100996,0.0087,0.009099999,-0.023899999,0.117864996,-0.296389,0.369766,2017-06-05 06:58:11,41.73296740771314
5.707777,-0.1436521,7.4986396,-0.0012217305,-0.0012217305,0.034208454,20.0,5.9375997,-0.13949999,7.8034997,-0.0213,-0.0026999998,0.021499999,0.117061,-0.29737,0.367792,2017-06-05 06:58:12,40.95418203678118
5.7269306,-0.12449849,7.52737,0.0,0.0061086523,0.02443461,20.0,5.9388,-0.124299996,7.8027997,0.009099999,-0.0081,-0.0042999997,0.117774,-0.297143,0.367507,2017-06-05 06:58:13,39.086865370337165
5.707777,-0.12449849,7.489063,0.0012217305,-0.0036651916,0.02321288,19.0,5.9361997,-0.122499995,7.8048,-0.0128,2.0E-4,-0.0252,0.117801,-0.296972,0.367511,2017-06-05 06:58:14,42.81049461141302
5.6982,-0.1436521,7.517793,0.0012217305,-0.0012217305,0.030543262,19.0,5.9351997,-0.1281,7.8055,0.026999999,-0.0242,0.038399998,0.117528,-0.297009,0.367613,2017-06-05 06:58:15,41.779524694766806
5.707777,-0.11492168,7.469909,0.002443461,-0.008552114,0.035430185,19.0,5.9371,-0.12019999,7.8041997,-0.0224,0.0361,-0.0347,0.117961,-0.296906,0.367478,2017-06-05 06:58:16,40.97622377129386
5.707777,-0.11492168,7.4986396,-0.0036651916,0.0,0.030543262,19.0,5.9337,-0.1205,7.8066998,0.0,-0.0011999999,0.0095,0.117845,-0.296895,0.367521,2017-06-05 06:58:17,40.528007353279094
5.717354,-0.095768064,7.489063,-0.002443461,0.0036651916,0.03176499,19.0,5.9336,-0.1285,7.8066998,0.023599999,-0.023699999,0.0209,0.117482,-0.296924,0.36765,2017-06-05 06:58:18,40.38499452633641
5.2002063,0.21068975,6.5122285,0.002443461,0.06963864,0.021991149,20.0,5.8901997,-0.1436,7.8392997,0.061699998,0.0314,-0.1375,0.116444,-0.295435,0.36928698,2017-06-05 06:58:19,41.822635272604785
5.717354,-0.15322891,7.4986396,-0.0061086523,-0.0012217305,0.030543262,10.0,5.9287996,-0.1372,7.8101997,0.029299999,-0.0150999995,-0.0028,0.117155,-0.296677,0.368461,2017-06-05 06:58:20,38.557724391713386
5.707777,-0.10534488,7.489063,0.0012217305,-0.010995574,0.030543262,17.0,5.9289,-0.1451,7.81,-0.0206,0.033,-0.079799995,0.11636,-0.297072,0.367288,2017-06-05 06:58:21,41.049609021064754
5.717354,-0.12449849,7.479486,-0.007330383,-0.0012217305,0.030543262,5.0,5.9322996,-0.1284,7.8076997,0.0117999995,0.0154,-0.0037999998,0.117217,-0.296943,0.366968,2017-06-05 06:58:22,40.73519825986523
5.6886234,-0.11492168,7.517793,0.007330383,-0.007330383,0.03176499,16.0,5.9335,-0.129,7.8068,-0.0045,-0.0018999999,0.0082,0.117137,-0.297014,0.366999,2017-06-05 06:58:23,39.811872553639404
5.7269306,-0.1436521,7.469909,0.002443461,-0.042760566,0.03176499,17.0,5.9181,-0.124199994,7.8185997,-0.009,-0.018099999,0.0506,0.117805,-0.295775,0.369173,2017-06-05 06:58:24,39.88870896444744
5.6886234,-0.10534488,7.5082164,-0.008552114,-0.0036651916,0.034208454,17.0,5.9343,-0.14209999,7.8059998,-0.0022,0.0155,-0.0179,0.116981,-0.297093,0.3677,2017-06-05 06:58:25,39.52378816065495
5.6982,-0.1436521,7.5082164,-0.002443461,-0.002443461,0.036651913,19.0,5.9249997,-0.1322,7.8132,0.0138,-0.0095999995,0.0069999998,0.116973,-0.296574,0.367467,2017-06-05 06:58:26,40.697011000960714
5.6982,-0.12449849,7.517793,-0.0012217305,-0.0036651916,0.035430185,16.0,5.9322,-0.1213,7.8079,-0.0058999998,0.0087,-0.005,0.117656,-0.296749,0.367226,2017-06-05 06:58:27,41.15203273721379
5.717354,-0.1340753,7.4603324,0.007330383,0.0061086523,0.02687807,17.0,5.9298997,-0.1143,7.8097997,0.0018999999,-0.0050999997,-0.042799998,0.117779,-0.296827,0.366806,2017-06-05 06:58:28,41.892702331877146
5.6982,-0.12449849,7.517793,0.008552114,-0.0061086523,0.029321533,17.0,5.9270997,-0.1313,7.8115997,-0.0121,0.008599999,-0.0298,0.117747,-0.296398,0.369345,2017-06-05 06:58:30,41.2820286884238
5.6886234,-0.11492168,7.5082164,0.0,0.0012217305,0.028099801,16.0,5.9287996,-0.1264,7.8104,0.0049,-0.0084999995,-0.0139,0.118758,-0.296193,0.370993,2017-06-05 06:58:31,42.09977671984733
5.6886234,-0.12449849,7.517793,0.0012217305,-0.004886922,0.037873644,17.0,5.9298,-0.121599995,7.8097997,-0.0132,0.0092,-0.029199999,0.118089,-0.296421,0.368731,2017-06-05 06:58:32,42.98076374158961
5.6790466,-0.12449849,7.4986396,0.0036651916,0.0012217305,0.035430185,17.0,5.9248,-0.13669999,7.8132997,-0.0309,0.0176,-0.030299999,0.116416,-0.296983,0.366698,2017-06-05 06:58:33,40.28427315423771
5.6886234,-0.12449849,7.489063,-0.0012217305,-0.010995574,0.032986723,19.0,5.9289,-0.13239999,7.8101997,-0.0030999999,-0.0106,0.019199999,0.117157,-0.296566,0.36776,2017-06-05 06:58:34,41.26368923227572
5.6886234,-0.12449849,7.489063,-0.004886922,-0.0012217305,0.032986723,19.0,5.9242997,-0.1375,7.8135996,0.0036,0.025799999,-0.032199997,0.116426,-0.296907,0.366624,2017-06-05 06:58:35,41.10608226335928
5.6886234,-0.1340753,7.517793,0.015882496,-0.0012217305,0.02565634,19.0,5.9294996,-0.1255,7.8099,-2.0E-4,-0.0069999998,0.0198,0.117511,-0.296639,0.36762,2017-06-05 06:58:36,39.45304832137626
5.707777,-0.1436521,7.4603324,-0.0061086523,-0.004886922,0.028099801,19.0,5.9298997,-0.12109999,7.8096,-0.0044,-0.0011999999,0.0104,0.117701,-0.296534,0.367553,2017-06-05 06:58:37,39.25875225912695
5.6886234,-0.12449849,7.517793,-0.0012217305,0.0036651916,0.030543262,4.0,5.9265,-0.1284,7.8121,0.015,-0.023599999,-0.0307,0.117312,-0.29653,0.367689,2017-06-05 06:58:38,39.88662752671296
5.6982,-0.10534488,7.517793,-0.009773844,-0.0036651916,0.02687807,4.0,5.9276,-0.12019999,7.8114,0.0112,-0.0121,0.018299999,0.117705,-0.296433,0.36756,2017-06-05 06:58:39,39.272936745448455
5.6886234,-0.12449849,7.5082164,-0.004886922,0.0012217305,0.032986723,7.0,5.9287,-0.127,7.8104,-0.0132,0.0053,0.0148,0.117344,-0.296578,0.367696,2017-06-05 06:58:40,41.70331539859277
5.6790466,-0.11492168,7.5082164,0.0,0.008552114,0.029321533,2.0,5.9282,-0.1273,7.8107996,-0.011299999,0.014699999,-0.0064999997,0.11736,-0.296534,0.3677,2017-06-05 06:58:41,41.012705682753364
5.707777,-0.1340753,7.4986396,0.0,-0.0036651916,0.02687807,2.0,5.9301,-0.12789999,7.8093996,0.014599999,-0.006,-0.0036,0.117502,-0.296717,0.367653,2017-06-05 06:58:42,39.51078607709761
5.6982,-0.1436521,7.536947,-0.0036651916,-0.009773844,0.032986723,16.0,5.9358,-0.12619999,7.8051,-0.0241,0.0037,-0.0381,0.117672,-0.296986,0.367709,2017-06-05 06:58:43,41.31784620372758
5.717354,-0.1340753,7.4986396,-0.007330383,-0.0061086523,0.035430185,17.0,5.9361997,-0.14379999,7.8044996,-7.0E-4,0.0084,-0.011399999,0.116843,-0.297299,0.367544,2017-06-05 06:58:44,39.394928103931576
5.66947,-0.12449849,7.4986396,0.002443461,-0.002443461,0.03176499,13.0,5.9245996,-0.1266,7.8135996,-0.0013,0.0142,-0.0088,0.118194,-0.296114,0.370174,2017-06-05 06:58:45,42.69743200797518
5.765238,-0.1340753,7.5082164,0.0012217305,0.0061086523,0.030543262,21.0,5.9266,-0.1362,7.8118997,0.0449,0.0022,-0.0185,0.117845,-0.296586,0.369855,2017-06-05 06:58:46,41.643684722572935
5.6982,-0.1340753,7.4986396,-0.010995574,-0.002443461,0.032986723,19.0,5.9291,-0.1415,7.8099,-0.0026,-0.0034999999,-0.0391,0.117532,-0.296622,0.36966,2017-06-05 06:58:47,46.20144614500374
5.707777,-0.1436521,7.4986396,-0.018325957,-0.0012217305,0.032986723,20.0,5.9287996,-0.1542,7.8099,-0.0121,0.0251,0.0015,0.116604,-0.296928,0.36842299,2017-06-05 06:58:48,46.45215881309136
5.6886234,-0.1340753,7.536947,0.004886922,-0.002443461,0.035430185,19.0,5.9212,-0.1329,7.816,-5.9999997E-4,-0.019299999,0.0128,0.116888,-0.296356,0.367505,2017-06-05 06:58:49,50.39172413651503
5.717354,-0.15322891,7.52737,-0.004886922,0.0036651916,0.034208454,20.0,5.9284997,-0.1239,7.8106,0.0352,4.9999997E-4,0.0105,0.117468,-0.29650798,0.36731198,2017-06-05 06:58:50,52.5927080000012
5.6886234,-0.12449849,7.5082164,-0.002443461,-0.008552114,0.032986723,20.0,5.9261,-0.12629999,7.8125,-0.0013,0.0307,0.0014,0.117448,-0.29653,0.367328,2017-06-05 06:58:51,46.74053059616506
5.707777,-0.1436521,7.5082164,-0.009773844,0.0012217305,0.02687807,20.0,5.9302998,-0.124199994,7.8093,-0.029,0.0036,-2.9999999E-4,0.117405,-0.296733,0.367351,2017-06-05 06:58:52,45.52152622664009
5.707777,-0.1340753,7.52737,-0.007330383,0.0,0.028099801,20.0,5.9259996,-0.1274,7.8125,0.0029,-0.0149,0.017199999,0.117254,-0.296515,0.367414,2017-06-05 06:58:53,45.381383257802845
5.6982,-0.12449849,7.52737,-0.0036651916,-0.0061086523,0.030543262,19.0,5.9254,-0.13329999,7.8128996,-0.0023999999,0.026999999,0.021499999,0.117105,-0.29652599,0.367481,2017-06-05 06:58:54,42.36593189990945
5.6982,-0.11492168,7.5082164,0.007330383,-0.007330383,0.036651913,20.0,5.9247,-0.1301,7.8134,-0.046499997,0.0174,-0.021499999,0.117115,-0.296492,0.367489,2017-06-05 06:58:55,45.19784570357156
5.6982,-0.1340753,7.469909,0.002443461,-0.0012217305,0.03176499,20.0,5.9282,-0.1232,7.8108997,-0.0030999999,-0.018,-0.0052,0.117471,-0.296595,0.36738,2017-06-05 06:58:56,45.70952816128069
5.707777,-0.11492168,7.5082164,-0.004886922,-0.0036651916,0.036651913,20.0,5.9219,-0.12879999,7.8156,0.0022,-0.0332,0.0178,0.117114,-0.296304,0.367508,2017-06-05 06:58:57,49.27262505946668
5.6886234,-0.12449849,7.52737,0.0012217305,0.0036651916,0.02076942,20.0,5.9193,-0.13679999,7.8174,0.0047,0.0082,-0.0132,0.116414,-0.296423,0.367485,2017-06-05 06:58:58,51.84092954516045
5.707777,-0.1340753,7.52737,-0.007330383,-0.004886922,0.03176499,20.0,5.9245996,-0.1425,7.8132997,0.0106,0.0112,0.012,0.11687,-0.296703,0.368728,2017-06-05 06:58:59,56.60984049752883
5.6886234,-0.1340753,7.4986396,0.0061086523,-0.002443461,0.03176499,19.0,5.9265,-0.12879999,7.8121,0.0022,-0.0037,-0.0016999999,0.117509,-0.296347,0.368399,2017-06-05 06:59:00,41.31295890737206
5.6982,-0.10534488,7.5082164,0.0012217305,-0.0036651916,0.03176499,19.0,5.9256,-0.1256,7.8128996,-0.0011999999,-0.0166,-0.0087,0.117654,-0.296328,0.368358,2017-06-05 06:59:01,40.66834828041975
5.650316,-0.11492168,7.4986396,-0.007330383,-0.002443461,0.036651913,19.0,5.9276,-0.1265,7.8113,-0.029399998,-0.0081,-0.029299999,0.117777,-0.296397,0.368332,2017-06-05 06:59:02,44.72808608132663
5.7269306,-0.1340753,7.489063,0.0,-0.002443461,0.032986723,17.0,5.9263,-0.1282,7.8122997,0.0093,0.0056,0.02,0.117563,-0.296414,0.368415,2017-06-05 06:59:03,44.54618415461094
5.6790466,-0.1340753,7.4603324,0.0036651916,0.008552114,0.03176499,19.0,5.9212,-0.125,7.8162,5.9999997E-4,-0.0067,-0.0273,0.117626,-0.296174,0.36841,2017-06-05 06:59:04,41.81247542086528
5.6886234,-0.12449849,7.489063,-0.012217305,-0.002443461,0.036651913,19.0,5.9283,-0.1261,7.8107996,-0.0029,0.0018,-0.0173,0.117763,-0.296398,0.368371,2017-06-05 06:59:05,40.51929876957076
5.6886234,-0.1436521,7.536947,0.014660766,0.0,0.02565634,19.0,5.9283,-0.12889999,7.8107,-0.023799999,0.0071,-0.021,0.117588,-0.296611,0.36844,2017-06-05 06:59:06,40.629483243964216
5.6982,-0.1436521,7.479486,-0.007330383,-0.0036651916,0.028099801,19.0,5.9294996,-0.1252,7.8099,-0.008599999,0.0229,0.0359,0.117747,-0.296586,0.368395,2017-06-05 06:59:07,48.20636357426781
5.717354,-0.1340753,7.4986396,0.008552114,0.0012217305,0.028099801,20.0,5.9270997,-0.1249,7.8117,0.0167,0.0023,-0.0177,0.117742,-0.296391,0.368403,2017-06-05 06:59:08,39.51562061789
5.6790466,-0.1340753,7.489063,0.0012217305,-0.0036651916,0.03176499,19.0,5.9266996,-0.1294,7.8118997,0.031,-0.0115,0.0033999998,0.117423,-0.296377,0.368519,2017-06-05 06:59:09,44.76313213364008
5.6982,-0.11492168,7.5082164,0.007330383,-0.0036651916,0.028099801,19.0,5.9259996,-0.12979999,7.8124,0.019199999,0.0069,0.02,0.11752,-0.296428,0.368492,2017-06-05 06:59:10,45.9588571687431
5.659893,-0.12449849,7.4986396,-0.002443461,-0.0036651916,0.03176499,20.0,5.9263997,-0.1223,7.8122997,0.034199998,-0.019199999,0.0235,0.117803,-0.296314,0.36840498,2017-06-05 06:59:11,41.70269418184857
5.6982,-0.12449849,7.52737,-0.007330383,0.0012217305,0.035430185,19.0,5.9312,-0.1278,7.8085,0.0033,0.0052,-0.017099999,0.117722,-0.296672,0.368435,2017-06-05 06:59:12,39.50609061134844
5.6790466,-0.1340753,7.4986396,-0.0012217305,0.0,0.034208454,17.0,5.9296,-0.12529999,7.8097997,0.0289,1.0E-4,0.027099999,0.11788,-0.296414,0.368389,2017-06-05 06:59:13,39.33002754634296
5.6982,-0.12449849,7.52737,-0.0012217305,-0.0036651916,0.037873644,19.0,5.9304,-0.1322,7.8090997,0.0014,0.0287,0.0044,0.11751,-0.296706,0.36852,2017-06-05 06:59:14,40.66041117479247
5.707777,-0.11492168,7.517793,-0.002443461,0.0036651916,0.030543262,21.0,5.9263,-0.13059999,7.8121996,0.0045,0.0084999995,0.0063,0.117443,-0.296441,0.368548,2017-06-05 06:59:15,38.90112183351091