ACC_X,ACC_Y,ACC_Z,GYRO_X,GYRO_Y,GYRO_Z,LIGH_1,GRAV_X,GRAV_Y,GRAV_Z,LINACC_X,LINACC_Y,LINACC_Z,ROTVEC_X,ROTVEC_Y,ROTVEC_Z,TIME,VOICE
8.159134,-4.0795593,3.870346,-0.17948362,0.22638702,-0.2830298,14.0,7.614028,-5.399262,3.0074823,-0.6263714,-1.5096974,-0.71608454,0.12457676,-0.5774866,0.6016113,2017-01-30 14:44:04,29.83641789311838
8.420639,-3.71344,4.3410797,-0.07687663,0.09023611,-0.13320628,18.0,8.022989,-4.431666,3.4874604,0.037726134,-0.8458124,-0.52839786,0.10359158,-0.55922925,0.5258323,2017-01-30 14:44:05,22.040139407845878
5.648636,-2.3012848,7.6361084,0.12621093,0.13287212,0.08671798,30.0,7.7434664,-4.1950912,4.31397,2.37705,-1.4710217,-2.7549899,0.09073895,-0.5213591,0.5261152,2017-01-30 14:44:06,38.90325989020027
1.6213684,-1.0983429,9.414383,0.19596899,0.3485308,0.044075646,27.0,6.0308995,-3.8037646,6.7327576,3.9989407,-1.9457523,-2.6161525,0.05900127,-0.39146367,0.6001726,2017-01-30 14:44:07,21.480287556820592
0.83683777,0.26150513,9.728195,0.21608695,0.29273865,0.02530106,27.0,3.1702302,-1.9294001,9.077305,2.3620105,-2.378533,-0.8865554,0.03472029,-0.20130591,0.6464219,2017-01-30 14:44:08,39.13272136144616
0.7322235,0.47071838,9.728195,0.12368325,0.11107508,0.0067473324,27.0,1.5757363,-0.41207767,9.670451,0.73312795,-0.7472952,-0.04106804,0.03835175,-0.073982015,0.66754436,2017-01-30 14:44:09,32.22888724464423
0.78453064,0.41841125,9.728195,0.031049069,0.034673236,-7.277931E-4,27.0,0.9866077,0.24029778,9.753936,0.20315425,-0.16383737,-0.010243526,0.042929843,-0.029064579,0.67097986,2017-01-30 14:44:10,30.87754805812726
0.78453064,0.36611938,9.728195,0.0058887713,0.007611013,0.002262918,27.0,0.81926244,0.3736468,9.765223,0.002041618,-0.089444995,0.04029491,0.04225827,-0.018067237,0.67274684,2017-01-30 14:44:11,37.1157578962005
0.78453064,0.36611938,9.675888,8.618575E-4,3.2114843E-4,8.6453336E-4,29.0,0.79369056,0.39967865,9.766305,-0.023530252,0.031929236,-0.026724445,0.042395372,-0.016115163,0.6743672,2017-01-30 14:44:12,36.71394013821117
0.83683777,0.47071838,9.728195,0.0,0.0,0.0,29.0,0.79585004,0.39468455,9.766332,0.020221964,0.06804656,0.041334063,0.042322766,-0.016371075,0.6746522,2017-01-30 14:44:13,28.08753080406386
0.94143677,0.41841125,9.780502,0.0,0.0,0.0,28.0,0.78704727,0.3962897,9.766981,0.052237608,0.0012187671,0.0011389084,0.04207006,-0.015980925,0.6748917,2017-01-30 14:44:14,20.382972017617945
0.823761,0.31381226,9.688965,0.0,0.0,0.0,29.0,0.78728783,0.3985369,9.766869,-0.029933028,0.003546827,0.0010798847,0.04215105,-0.015860464,0.67529833,2017-01-30 14:44:15,24.991240934878206
0.83683777,0.36611938,9.728195,0.0,0.0,0.0,28.0,0.80849576,0.38106498,9.765835,0.032135922,-0.05478612,-0.081676364,0.042182002,-0.017380973,0.67577326,2017-01-30 14:44:16,30.95607893819215
0.83683777,0.41841125,9.623596,0.0,0.0,0.0,29.0,0.8181528,0.358523,9.765884,0.015879253,0.0050546597,0.06806017,0.04179697,-0.018397272,0.6758456,2017-01-30 14:44:17,38.55781992363098
0.83683777,0.41841125,9.885101,0.0,0.0,0.0,29.0,0.7938781,0.37448934,9.767287,-0.092849925,-0.019821346,-0.06651558,0.041464087,-0.016960934,0.67489487,2017-01-30 14:44:18,32.58899809071954
0.94143677,0.41841125,9.728195,0.0,0.0,0.0,29.0,0.7964809,0.38731417,9.766576,-0.047805633,0.06149534,0.041590944,0.04200833,-0.01668979,0.67360556,2017-01-30 14:44:19,29.869696681142905
0.7322235,0.36611938,9.728195,0.0,0.0,0.0,29.0,0.79585165,0.41006017,9.7656975,0.020808408,-0.013322916,0.10881231,0.042789053,-0.016127158,0.67092794,2017-01-30 14:44:20,12.634511286364553
0.823761,0.31381226,9.610519,0.0,0.0,0.0,29.0,0.78121823,0.39987242,9.7673025,-0.02190388,0.062097475,0.12394566,0.042048175,-0.015678905,0.6723371,2017-01-30 14:44:21,17.27426873686891
0.78453064,0.41841125,9.675888,0.0,0.0,0.0,29.0,0.797967,0.36508316,9.767312,0.021607254,-0.016286599,0.04238319,0.041235227,-0.017476575,0.67422575,2017-01-30 14:44:22,-1.8813187727179446
0.88912964,0.47071838,9.728195,0.0,0.0,0.0,29.0,0.8023997,0.3739565,9.766612,0.027667109,-0.064098075,-0.026467567,0.041727796,-0.017399216,0.67555785,2017-01-30 14:44:23,23.361844600313134
0.78453064,0.47071838,9.728195,0.0,0.0,0.0,29.0,0.7848699,0.3948531,9.767214,0.008005664,0.027650483,0.042304214,0.041944932,-0.015853602,0.6760566,2017-01-30 14:44:24,15.953756442790059
0.78453064,0.47071838,9.728195,0.0,0.0,0.0,29.0,0.7814881,0.40062353,9.767251,0.005105448,-0.034834363,0.042307537,0.042065766,-0.01549422,0.67638147,2017-01-30 14:44:25,-1.617413845160486
0.83683777,0.31381226,9.728195,0.0,0.0,0.0,29.0,0.7821013,0.4034194,9.767086,-0.021201154,0.021590421,0.12387501,0.04214597,-0.015530861,0.6751808,2017-01-30 14:44:26,0.4015713814591812
0.78453064,0.41841125,9.675888,0.0,0.0,0.0,29.0,0.77910316,0.41065207,9.767023,0.030061051,-0.05272159,0.042102203,0.042286977,-0.015228652,0.67388254,2017-01-30 14:44:27,-2.2983862377809428
0.78453064,0.41841125,9.728195,0.0,0.0,0.0,29.0,0.7799454,0.40439305,9.767218,-0.02365516,0.050263997,0.04229008,0.04206244,-0.015495059,0.67378384,2017-01-30 14:44:28,10.769702256993906
0.7322235,0.36611938,9.728195,0.0,0.0,0.0,28.0,0.7896264,0.40355915,9.766475,0.012564364,-0.033471905,0.04165163,0.042331062,-0.01584649,0.67430305,2017-01-30 14:44:29,16.23491574633977
0.83683777,0.47071838,9.675888,0.0,0.0,0.0,29.0,0.8006441,0.39817974,9.765798,-0.031496223,0.087478064,0.1498338,0.042650342,-0.016240634,0.6752373,2017-01-30 14:44:30,15.034289039750153
0.78453064,0.47071838,9.623596,0.0,0.0,0.0,29.0,0.8020563,0.38058543,9.766383,0.026721535,-0.08341715,0.13674966,0.04199455,-0.017087158,0.67561,2017-01-30 14:44:31,6.21630598692103
0.78453064,0.36611938,9.728195,0.0,0.0,0.0,29.0,0.7811695,0.40365693,9.767151,0.0058791996,0.007699089,0.069417715,0.042098884,-0.015618884,0.67369866,2017-01-30 14:44:32,2.1830569371527977
0.78453064,0.31381226,9.728195,0.0,0.0,0.0,28.0,0.7803067,0.39404106,9.7676115,0.072048634,-9.490298E-4,0.042683296,0.041697595,-0.015865443,0.67331934,2017-01-30 14:44:33,-0.20138763741332927
0.78453064,0.36611938,9.675888,0.0,0.0,0.0,28.0,0.77828413,0.40334493,9.767394,0.070098355,-0.060519684,-0.039230824,0.0419419,-0.015526826,0.6728182,2017-01-30 14:44:34,-1.617413845160486
0.78453064,0.36611938,9.675888,0.0,0.0,0.0,28.0,0.7817142,0.40336737,9.767118,0.005354428,-0.0052430835,0.09667171,0.0421153,-0.0155515745,0.6741223,2017-01-30 14:44:35,-0.17304858208470436
0.88912964,0.41841125,9.728195,0.0,0.0,0.0,28.0,0.78552943,0.38728938,9.767464,-0.08617281,-0.07580244,0.04253532,0.04166058,-0.01619795,0.6750289,2017-01-30 14:44:36,-2.1511536695738798
0.83683777,0.31381226,9.675888,0.0,0.0,0.0,28.0,0.8039312,0.39274195,9.765749,0.027571352,0.024992572,0.09530253,0.0424893,-0.016735718,0.6744319,2017-01-30 14:44:37,2.0581314067536973
0.78453064,0.41841125,9.675888,0.0,0.0,0.0,28.0,0.8099974,0.3974764,9.765056,0.10343419,0.08527676,0.039943267,0.04298092,-0.016816251,0.67462426,2017-01-30 14:44:38,-1.5587245085195067
0.78453064,0.47071838,9.675888,0.0,0.0,0.0,28.0,0.7916908,0.3919161,9.766781,0.016071184,0.037722394,0.041796274,0.04207671,-0.016285902,0.6752734,2017-01-30 14:44:39,-1.6470586347978766
0.83683777,0.31381226,9.728195,0.0,0.0,0.0,28.0,0.7941376,0.39679196,9.766387,-0.022447616,0.043101683,0.0413881,0.042340416,-0.016130917,0.6761169,2017-01-30 14:44:40,-2.942966130050128
0.7322235,0.47071838,9.780502,0.0,0.0,0.0,28.0,0.7918637,0.39437768,9.766668,0.015503911,-0.04147341,0.02812023,0.042077128,-0.0161289,0.6754329,2017-01-30 14:44:41,-2.241166110721784
0.83683777,0.47071838,9.675888,0.0,0.0,0.0,29.0,0.7752186,0.39435905,9.768004,-0.0011411426,0.08109103,0.056696028,0.041566905,-0.015575376,0.6748724,2017-01-30 14:44:42,-1.8500369220885202
0.86299133,0.31381226,9.688965,0.0,0.0,0.0,29.0,0.78210557,0.40685812,9.766942,-0.03511527,-0.015372666,0.04201408,0.042271763,-0.015415201,0.6746593,2017-01-30 14:44:43,-1.9128275795075256
0.7322235,0.41841125,9.832794,0.0,0.0,0.0,29.0,0.8092159,0.39833286,9.765086,0.031193828,-0.06282507,0.09469733,0.04292701,-0.016538238,0.6757055,2017-01-30 14:44:44,-0.6345484267918894
0.7322235,0.31381226,9.832794,0.0,0.0,0.0,29.0,0.8135669,0.38931966,9.765087,0.03720713,0.06243133,0.040159408,0.042681452,-0.016939314,0.67755675,2017-01-30 14:44:45,1.8901631761329227
0.78453064,0.36611938,9.675888,0.0,0.0,0.0,30.0,0.77874875,0.39124352,9.767849,0.0033152003,-0.0308878,0.029222563,0.04167359,-0.015671995,0.67796075,2017-01-30 14:44:46,0.9961590638398133
0.78453064,0.36611938,9.832794,0.0,0.0,0.0,30.0,0.7798375,0.39137015,9.767757,0.0039323517,0.079449855,-0.052604266,0.041686337,-0.015660938,0.6782457,2017-01-30 14:44:47,-1.7372268179916295
0.88912964,0.41841125,9.675888,0.0,0.0,0.0,30.0,0.784564,0.3989524,9.767072,-0.0055099893,0.045588605,0.04212049,0.042171024,-0.015516782,0.6787342,2017-01-30 14:44:48,0.7634456397099327
0.78453064,0.47071838,9.675888,0.0,0.0,0.0,30.0,0.7861406,0.3875879,9.767403,0.051096253,-0.006977997,-0.025681138,0.041781735,-0.016065441,0.6776283,2017-01-30 14:44:49,0.8591462870659323
0.78453064,0.47071838,9.728195,0.0,0.0,0.0,29.0,0.7781935,0.3913826,9.767887,0.00256748,-0.04523867,0.070172556,0.04156682,-0.015810357,0.67546904,2017-01-30 14:44:50,3.8387144377531883
0.83683777,0.47071838,9.728195,0.0,0.0,0.0,29.0,0.78853714,0.38036165,9.767493,-0.07136212,0.11073742,0.12432557,0.041563317,-0.016340684,0.6758267,2017-01-30 14:44:51,33.92806282364055
0.83683777,0.36611938,9.675888,0.0,0.0,0.0,29.0,0.8084857,0.3621112,9.766556,-0.06321654,0.0079821795,0.09610974,0.041598015,-0.01771566,0.678809,2017-01-30 14:44:52,33.03305427519155
0.83683777,0.36611938,9.728195,0.0,0.0,0.0,29.0,0.79888517,0.38418847,9.766502,0.11786783,0.057300113,0.027953966,0.04208519,-0.016607333,0.67851573,2017-01-30 14:44:53,26.648328774599833
0.83683777,0.47071838,9.728195,0.0,0.0,0.0,29.0,0.78895044,0.39174408,9.767011,0.0129208965,0.023394955,0.06931962,0.042011976,-0.016006967,0.6785114,2017-01-30 14:44:54,27.585724672287594
0.83683777,0.36611938,9.780502,0.0,0.0,0.0,30.0,0.7782832,0.39289162,9.76782,-0.039472893,-0.001776427,-0.07966124,0.04168567,-0.015560025,0.67806965,2017-01-30 14:44:55,33.45022807793768
0.78453064,0.36611938,9.780502,0.0,0.0,0.0,30.0,0.7768774,0.399196,9.767676,6.806433E-6,-0.05084239,0.04281215,0.041789632,-0.015411432,0.67592543,2017-01-30 14:44:57,24.815657865562358
0.78453064,0.36611938,9.780502,0.0,0.0,0.0,29.0,0.78301877,0.4065666,9.766882,0.00688385,0.07896969,0.01472434,0.042297296,-0.015446029,0.67489535,2017-01-30 14:44:58,15.615671949663199
0.78453064,0.31381226,9.728195,0.0,0.0,0.0,30.0,0.77948767,0.3987648,9.767486,0.09953785,0.044979297,0.04245884,0.041957825,-0.015538503,0.67616373,2017-01-30 14:44:59,-1.9765394040669304
0.83683777,0.36611938,9.728195,0.0,0.0,0.0,30.0,0.7630637,0.3908546,9.769102,-0.06777747,0.07758663,0.030553505,0.04106251,-0.014992134,0.6786368,2017-01-30 14:45:00,-1.8708664335714442
0.78453064,0.41841125,9.728195,0.0,0.0,0.0,30.0,0.7720676,0.38856643,9.768487,-0.058773596,0.034437407,0.043558676,0.041306138,-0.015480394,0.6780143,2017-01-30 14:45:01,-1.9872495076921861
0.78453064,0.36611938,9.780502,0.0,0.0,0.0,29.0,0.78251487,0.38918105,9.767631,-0.033163123,-0.07394786,0.04257938,0.04173651,-0.015930189,0.6776461,2017-01-30 14:45:02,-2.5108552540556808
0.7322235,0.36611938,9.675888,0.0,0.0,0.0,29.0,0.7740197,0.39898208,9.767913,0.038283117,0.004550594,-0.011502144,0.04174575,-0.01524521,0.6770868,2017-01-30 14:45:03,-1.6272729749769974
0.83683777,0.41841125,9.623596,0.0,0.0,0.0,29.0,0.778366,0.40505478,9.767317,0.042578135,0.010340218,0.042399816,0.042103555,-0.015237325,0.6760432,2017-01-30 14:45:04,-1.9128275795075256
0.88912964,0.41841125,9.728195,0.0,0.0,0.0,29.0,0.7741536,0.4029998,9.767736,-0.001297119,0.04940743,0.083574265,0.041928817,-0.0151938945,0.6759082,2017-01-30 14:45:05,-1.8189787814821883
0.78453064,0.47071838,9.885101,0.0,0.0,0.0,29.0,0.77949035,0.39798415,9.767516,0.003992103,-0.06541213,-0.10729016,0.041881878,-0.015528614,0.676318,2017-01-30 14:45:06,-2.241166110721784
0.83683777,0.41841125,9.675888,0.0,0.0,0.0,30.0,0.7901447,0.40097645,9.766538,0.0137848975,0.08770844,7.490194E-4,0.042357467,-0.01584185,0.6760228,2017-01-30 14:45:07,-2.1734824838967994
0.78453064,0.3530426,9.610519,0.0,0.0,0.0,30.0,0.78254837,0.40821388,9.766851,0.032846335,-0.01357104,0.11005264,0.042349786,-0.015353112,0.6752153,2017-01-30 14:45:08,-1.5781996300295558
0.78453064,0.41841125,9.780502,0.0,0.0,0.0,30.0,0.7911519,0.39983287,9.766504,0.015608709,-0.06511665,0.09606735,0.042343125,-0.015935678,0.6757362,2017-01-30 14:45:09,-1.9551981089400725
0.78453064,0.31381226,9.885101,0.0,0.0,0.0,30.0,0.79647946,0.37752163,9.766959,0.02011966,-0.085570164,0.16461466,0.04173063,-0.016800229,0.67760783,2017-01-30 14:45:10,-2.426988885894765
0.67993164,0.36611938,9.728195,0.0,0.0,0.0,30.0,0.79105884,0.3932212,9.76678,0.01498153,-0.029331854,9.81789E-4,0.04212234,-0.016094388,0.6772716,2017-01-30 14:45:11,-2.7984069659404307
0.78453064,0.36611938,9.728195,0.0,0.0,0.0,30.0,0.7838428,0.3956297,9.767264,0.006442003,-0.06736609,0.042416442,0.04193348,-0.015801735,0.67581946,2017-01-30 14:45:12,0.8702677907596085
0.6276245,0.36611938,9.675888,0.0,0.0,0.0,30.0,0.7755784,0.39672437,9.76788,0.06700019,-0.025594342,0.04298091,0.041681558,-0.015472151,0.6754934,2017-01-30 14:45:13,-1.7372268179916295
0.78453064,0.47071838,9.728195,0.0,0.0,0.0,30.0,0.7700537,0.4074394,9.767877,0.12989734,-0.0011709922,0.111050226,0.04190562,-0.01486138,0.6760775,2017-01-30 14:45:14,-2.391536078248268
0.78453064,0.36611938,9.728195,0.0,0.0,0.0,30.0,0.76967883,0.41872886,9.767428,-0.0066810073,-0.044362977,-0.011980984,0.04232049,-0.014475017,0.67607754,2017-01-30 14:45:15,-2.019539208994171
0.7322235,0.36611938,9.728195,0.0,0.0,0.0,30.0,0.7854335,0.40920722,9.766578,0.021682281,0.042029437,0.041706495,0.042499144,-0.015298652,0.6764414,2017-01-30 14:45:16,3.640817414110702
0.9022064,0.23536682,9.806656,0.0,0.0,0.0,30.0,0.7848332,0.39841068,9.767072,-0.018767308,0.098763034,0.1374862,0.04197845,-0.015792785,0.6757832,2017-01-30 14:45:17,5.769169559652071
0.83683777,0.47071838,9.728195,0.0,0.0,0.0,30.0,0.790399,0.37159076,9.76768,-0.025728889,-0.06497467,0.015450914,0.041284297,-0.01680834,0.6770667,2017-01-30 14:45:18,15.656633813828094
0.78453064,0.41841125,9.728195,0.0,0.0,0.0,30.0,0.8039689,0.37950072,9.766269,0.028726472,0.06518541,0.15025195,0.042064477,-0.017090699,0.67760146,2017-01-30 14:45:19,17.82483821796317
0.88912964,0.36611938,9.675888,0.0,0.0,0.0,30.0,0.7957782,0.38835466,9.766591,-0.021442601,-0.074737154,0.041663267,0.04208766,-0.01646403,0.676468,2017-01-30 14:45:20,-2.5351175787169393
0.78453064,0.41841125,9.728195,0.0,0.0,0.0,30.0,0.7955651,0.3897366,9.766554,0.06076451,0.0213324,0.09607649,0.0421451,-0.016423054,0.6770613,2017-01-30 14:45:21,15.220772757473494
0.78453064,0.36611938,9.728195,0.0,0.0,0.0,29.0,0.7771016,0.4029578,9.767504,0.0018573247,0.034044504,0.09701671,0.04197774,-0.015358207,0.67615885,2017-01-30 14:45:22,16.110923796434292
0.7453003,0.3530426,9.688965,0.0,0.0,0.0,29.0,0.7784635,0.40961826,9.767118,-0.095031984,0.06913894,0.069572344,0.042200632,-0.015082022,0.67522883,2017-01-30 14:45:23,10.862485729613427
0.78453064,0.47071838,9.780502,0.0,0.0,0.0,29.0,0.81469405,0.38293007,9.765246,0.038334247,-0.03930068,0.04031819,0.042560954,-0.017553013,0.6761629,2017-01-30 14:45:24,-0.33125280619624586
0.78453064,0.31381226,9.780502,0.0,0.0,0.0,29.0,0.8224541,0.3684369,9.765153,0.046094306,-0.09465491,-6.3595985E-4,0.042271864,-0.01813451,0.67679745,2017-01-30 14:45:25,-1.6969207763052176
0.7453003,0.31381226,9.688965,0.0,0.0,0.0,29.0,0.7908747,0.37464944,9.767526,-0.04034318,0.10424486,0.16513424,0.041478895,-0.016634507,0.6771088,2017-01-30 14:45:26,-1.7575209895886328
0.67993164,0.47071838,9.728195,0.0,0.0,0.0,29.0,0.8006485,0.3610067,9.767243,0.10671551,-0.10087006,0.04221194,0.041288264,-0.017450439,0.6789941,2017-01-30 14:45:27,12.353706077337588
0.78453064,0.31381226,9.623596,0.0,0.0,0.0,29.0,0.7895737,0.39420265,9.766861,0.013793989,-0.05748188,0.04197501,0.04204431,-0.016088244,0.6771516,2017-01-30 14:45:28,13.75063186983522
0.7322235,0.47071838,9.728195,0.0,0.0,0.0,29.0,0.78645825,0.39892367,9.76692,0.037339102,-0.06416814,0.041992467,0.042172924,-0.015719641,0.67697847,2017-01-30 14:45:29,8.862262608497433
0.67993164,0.41841125,9.728195,0.0,0.0,0.0,29.0,0.780014,0.41152704,9.766915,0.030894814,-0.051564757,0.04198665,0.04244796,-0.015035655,0.67545617,2017-01-30 14:45:30,18.00577473462748
0.78453064,0.47071838,9.728195,0.0,0.0,0.0,29.0,0.79528165,0.4102225,9.7657385,-0.09403248,0.08573874,0.13637473,0.042807307,-0.015560371,0.6746782,2017-01-30 14:45:31,19.942827751627597
0.7322235,0.31381226,9.780502,0.0,0.0,0.0,29.0,0.8318469,0.38643423,9.763661,0.11088853,0.07230253,-0.002171408,0.043278232,-0.017855074,0.6769479,2017-01-30 14:45:32,12.528909391090933
0.78453064,0.41841125,9.728195,0.0,0.0,0.0,29.0,0.7912581,0.39803326,9.766569,-0.0016890863,-0.022874342,0.028206687,0.0422916,-0.015968638,0.6763136,2017-01-30 14:45:33,12.205575202548607
0.7322235,0.41841125,9.728195,0.0,0.0,0.0,29.0,0.77671015,0.40591323,9.767412,-0.026890295,-0.029937888,0.1786881,0.04205617,-0.015226695,0.67497927,2017-01-30 14:45:34,-2.195926693121322
0.78453064,0.36611938,9.675888,0.0,0.0,0.0,29.0,0.78491205,0.4005914,9.766977,0.049784794,-0.021003326,0.069233164,0.042210564,-0.015618061,0.6765923,2017-01-30 14:45:35,2.914243548905237
0.94143677,0.3530426,9.571289,0.0,0.0,0.0,29.0,0.7748622,0.3915036,9.7681465,-0.0014102305,0.011718443,0.1657328,0.04156898,-0.01545055,0.67767906,2017-01-30 14:45:36,15.207291049734607
0.83683777,0.31381226,9.728195,0.0,0.0,0.0,30.0,0.80177885,0.36703202,9.766926,-0.0040495675,-0.054355912,0.042147927,0.041487258,-0.017219976,0.678129,2017-01-30 14:45:37,17.46123135354467
0.78453064,0.36611938,9.885101,0.0,0.0,0.0,30.0,0.8150974,0.3811988,9.765281,0.081064455,-0.0157949,0.040307384,0.042458907,-0.017572835,0.67625326,2017-01-30 14:45:38,20.431780076774118
0.83683777,0.36611938,9.728195,0.0,0.0,0.0,30.0,0.79376924,0.40795928,9.765956,0.018676436,0.08037522,0.013712623,0.04280345,-0.015699938,0.67788035,2017-01-30 14:45:39,-1.7881411739115456
0.86299133,0.31381226,9.728195,0.0,0.0,0.0,30.0,0.78322494,0.3985585,9.767195,-0.06083314,0.0871975,0.11025881,0.042175513,-0.015443734,0.67900556,2017-01-30 14:45:40,-1.276615949437732
0.83683777,0.31381226,9.675888,0.0,0.0,0.0,30.0,0.7977532,0.36784863,9.767225,-0.019467644,-0.09524317,-0.03942535,0.041484594,-0.01713829,0.67971045,2017-01-30 14:45:41,10.057300064362117
0.7322235,0.47071838,9.623596,0.0,0.0,0.0,30.0,0.8126757,0.3714244,9.765859,0.104417644,-0.09166743,0.081791915,0.042139605,-0.017347302,0.6803267,2017-01-30 14:45:42,8.52880098257051
0.83683777,0.41841125,9.675888,0.0,0.0,0.0,30.0,0.79009783,0.38819906,9.767059,-0.013502664,-0.0067910273,0.0421313,0.041943055,-0.016105467,0.6791097,2017-01-30 14:45:43,6.629053251392333
0.83683777,0.41841125,9.728195,0.0,0.0,0.0,30.0,0.78690517,0.39831445,9.766909,-0.04393599,0.04418549,0.041981664,0.042202383,-0.015658543,0.67869955,2017-01-30 14:45:44,17.321926510062685
0.86299133,0.2745819,9.610519,0.0,0.0,0.0,29.0,0.7877906,0.37921828,9.767598,-0.13839306,0.011468918,0.19249383,0.041511618,-0.016367715,0.6784616,2017-01-30 14:45:45,17.7536010138337
0.7322235,0.47071838,9.728195,0.0,0.0,0.0,29.0,0.80821306,0.34536,9.767185,0.03185322,-0.063250415,0.04225683,0.04100631,-0.01841377,0.6785231,2017-01-30 14:45:46,13.477263111549806
0.83683777,0.36611938,9.675888,0.0,0.0,0.0,29.0,0.8143109,0.37198567,9.765701,0.012057725,-0.09408953,0.095255144,0.042060327,-0.01785297,0.6769229,2017-01-30 14:45:47,-2.26396377367077
0.78453064,0.31381226,9.728195,0.0,0.0,0.0,29.0,0.7984876,0.39435428,9.76613,0.021493675,0.08043045,0.041280027,0.042401772,-0.016372444,0.67622024,2017-01-30 14:45:48,-0.8190410438309813
0.823761,0.39227295,9.688965,0.0,0.0,0.0,29.0,0.7988829,0.36693892,9.767166,-0.006213026,0.096659034,0.11038185,0.041476753,-0.01704912,0.6789879,2017-01-30 14:45:49,5.984827268898351
0.78453064,0.47071838,9.832794,0.0,0.0,0.0,29.0,0.8082555,0.35200858,9.766944,0.03225849,-0.11208122,0.042022396,0.04126226,-0.017932158,0.6818903,2017-01-30 14:45:50,9.767224319907577
0.7322235,0.36611938,9.780502,0.0,0.0,0.0,29.0,0.79076046,0.3776193,9.76742,-0.053701095,0.06435131,0.04249209,0.04163769,-0.016317515,0.68046856,2017-01-30 14:45:51,3.0508253967517804
0.88912964,0.47071838,9.728195,0.0,0.0,0.0,29.0,0.7928928,0.39709762,9.766474,0.084634714,-0.025133144,0.04154605,0.0423818,-0.015880097,0.6794709,2017-01-30 14:45:52,1.4515754481203054
0.83683777,0.47071838,9.780502,0.0,0.0,0.0,29.0,0.77961487,0.40671587,9.767148,0.03049573,0.06620716,0.06946094,0.042269535,-0.015078518,0.6789742,2017-01-30 14:45:53,2.560258348358255
0.83683777,0.47071838,9.675888,0.0,0.0,0.0,29.0,0.78024125,0.40218034,9.767286,0.0038813814,0.007190295,0.04235825,0.042079423,-0.015367521,0.67786133,2017-01-30 14:45:54,-2.1400321658802035
0.7322235,0.41841125,9.675888,0.0,0.0,0.0,29.0,0.7852733,0.40097836,9.7669325,-0.031947527,0.06046965,0.13734654,0.042216744,-0.015583251,0.67734134,2017-01-30 14:45:55,-2.426988885894765
0.83683777,0.36611938,9.675888,0.0,0.0,0.0,28.0,0.784173,0.3978627,9.767147,-0.03304788,-0.06522909,0.08308046,0.042027477,-0.01574099,0.67574924,2017-01-30 14:45:56,8.628578269012689
0.7322235,0.36611938,9.675888,0.0,0.0,0.0,28.0,0.7795533,0.39901915,9.76747,0.017329333,-0.06413694,0.04250373,0.041892465,-0.015640466,0.674145,2017-01-30 14:45:57,27.150862861625882