ACC_X,ACC_Y,ACC_Z,GYRO_X,GYRO_Y,GYRO_Z,LIGH_1,GRAV_X,GRAV_Y,GRAV_Z,LINACC_X,LINACC_Y,LINACC_Z,ROTVEC_X,ROTVEC_Y,ROTVEC_Z,TIME,VOICE
2.7868507,1.3359646,7.8290396,0.006544985,-0.09817477,0.9173887,0.64,3.2680852,1.4867992,9.126697,-0.48123455,-0.15083471,-1.2976574,0.12830703,-0.20342495,0.2264491,2017-04-23 22:13:45,60.920999575579785
3.7110126,1.0055647,8.623915,0.02617994,-0.0109083075,-0.006544985,0.64,4.074931,0.6943185,8.89446,-0.36391866,0.31124622,-0.2705448,-0.027823582,-0.21505941,-0.36093327,2017-04-23 22:13:46,78.99466484279175
4.223372,0.62249243,9.246407,-0.0109083075,-0.018544123,-0.0109083075,0.0,4.158728,0.5291186,8.868123,0.06464344,0.093373865,0.37828386,-0.12824458,-0.1978276,-0.68511486,2017-04-23 22:13:47,84.17481523473234
3.8019924,0.6895301,9.030929,-0.021816615,0.0021816615,0.0054541538,0.0,4.1299977,0.5386954,8.880095,-0.32800564,0.15083471,0.15083471,-0.15084173,-0.19177501,-0.7242483,2017-04-23 22:13:48,83.5654207253009
4.43885,0.4357447,9.749189,-0.19634955,-0.09490228,-0.06435902,0.0,3.916914,0.07182605,8.992621,0.521936,0.36391866,0.7565677,-0.16744594,-0.16291933,-0.7378776,2017-04-23 22:13:49,75.22346101904586
5.0182467,0.110133275,9.021352,0.0021816615,0.073085666,-0.032724924,0.0,4.8578353,-0.074220255,8.520964,0.1604115,0.18435353,0.50038815,-0.20696966,-0.20034249,-0.6876565,2017-04-23 22:13:50,75.34946031330102
4.9943047,-0.7422025,7.690176,-0.09162979,0.0109083075,0.09162979,0.0,5.389348,-1.2617443,8.09719,-0.39504328,0.51954174,-0.40701428,-0.27638483,-0.17514488,-0.68375486,2017-04-23 22:13:51,70.01840827508221
5.142745,-1.0582372,7.991845,-0.046905722,-0.008726646,0.26616272,0.0,5.4420204,-1.7118542,7.97748,-0.29927522,0.6536171,0.01436521,-0.29355747,-0.16699237,-0.66198957,2017-04-23 22:13:52,55.58136399589586
4.5537715,-2.1930888,8.456321,-0.22580197,0.062177356,-0.011999139,0.0,4.584896,-2.492364,8.305486,-0.031124622,0.29927522,0.15083471,-0.28675863,-0.11532644,-0.63786685,2017-04-23 22:13:53,67.8383408123796
4.2425256,-2.2936451,8.403648,-0.070904,-0.061086524,0.0010908308,1.92,4.345476,-2.870648,8.310274,-0.10295067,0.5770026,0.093373865,-0.29449815,-0.08824654,-0.6528808,2017-04-23 22:13:54,78.60077046083991
5.7843914,-1.4413095,8.710106,-0.03926991,0.06544985,0.2018037,0.0,5.0374002,-2.0446482,8.1642275,0.7469909,0.60333884,0.545878,-0.27188823,-0.17791058,-0.5402066,2017-04-23 22:13:55,77.39558067056247
4.817134,-2.1021092,8.231265,-0.14398967,0.08181231,-0.6097744,0.0,5.0134583,-2.255338,8.121132,-0.19632454,0.15322891,0.110133275,-0.2849284,-0.16422245,-0.56236166,2017-04-23 22:13:56,79.69420415551144
4.405331,1.7717092,10.984597,-0.20071286,0.5988661,-0.038179077,0.64,5.185841,0.7230489,8.293514,-0.78050977,1.0486604,2.6910827,-0.20620845,-0.23679884,-0.715662,2017-04-23 22:13:57,77.34290671489406
5.650316,1.4939818,7.1634517,-0.011999139,0.086175635,-0.0032724924,0.0,6.019023,1.0055647,7.678205,-0.36870706,0.48841715,-0.51475334,-0.24519585,-0.27173653,-0.731528,2017-04-23 22:13:58,83.16081500147895
5.9567738,1.1875241,7.8146744,-0.05235988,-0.020725785,0.0032724924,0.0,6.143522,1.0127473,7.577648,-0.18674773,0.17477672,0.23702596,-0.2521712,-0.27675065,-0.7298151,2017-04-23 22:13:59,82.8623243666704
5.913678,0.5650316,7.680599,-0.17671458,0.12544554,0.14835298,0.64,6.131551,0.2777274,7.6494746,-0.21787235,0.2873042,0.031124622,-0.28011474,-0.23960947,-0.74628127,2017-04-23 22:14:00,76.782238097082
5.5880666,1.0726024,6.7803793,0.004363323,-0.16253379,-0.06435902,0.0,6.289568,0.19153613,7.524976,-0.7015011,0.8810662,-0.7445967,-0.29006222,-0.24232194,-0.74226755,2017-04-23 22:14:01,80.35552759525305
6.7085533,1.0821792,7.699753,0.0076358155,-0.36760998,0.39488074,0.64,6.232107,0.090979666,7.57286,0.47644615,0.9911995,0.12689269,-0.28717357,-0.24034782,-0.7334865,2017-04-23 22:14:02,83.04567052545107
5.0278234,1.13964,9.255983,0.015271631,0.27598017,-0.050178215,0.0,4.3478703,0.61052144,8.76996,0.6799533,0.5291186,0.48602295,-0.16181529,-0.21489921,-0.656967,2017-04-23 22:14:03,78.13252755874099
4.6926355,0.8283938,8.6813755,-0.031634092,-0.022907447,0.0032724924,0.64,4.405331,0.39743748,8.7532015,0.2873042,0.4309563,-0.07182605,-0.17292544,-0.2095837,-0.6545664,2017-04-23 22:14:04,71.40741639699306
4.486734,0.60812724,7.9631147,-0.02727077,0.17235127,-0.004363323,0.0,4.6232033,0.023942016,8.65025,-0.1364695,0.58418524,-0.6871359,-0.19606969,-0.20531303,-0.65281236,2017-04-23 22:14:05,46.24870921138651
5.2145715,0.3878607,8.12592,-0.1592613,0.10908308,0.051269047,0.0,5.3247046,0.02633622,8.238448,-0.110133275,0.36152446,-0.11252748,-0.22454791,-0.23319365,-0.65025836,2017-04-23 22:14:06,45.84671285005739
5.415684,0.32561144,8.159439,0.01308997,-0.029452432,0.016362462,0.0,5.473145,-0.25617957,8.135497,-0.05746084,0.581791,0.023942016,-0.24101242,-0.22965601,-0.64794695,2017-04-23 22:14:07,47.431100240139976
5.48751,0.46926352,7.9966335,-0.033815753,-0.006544985,0.025089107,0.0,5.521029,-0.34237084,8.099585,-0.033518825,0.81163436,-0.10295067,-0.24552585,-0.2294661,-0.64589435,2017-04-23 22:14:08,43.58218450584194
5.353435,0.5363012,8.049306,-0.15380713,0.086175635,0.011999139,0.0,5.377377,-0.32800564,8.195353,-0.023942016,0.8643068,-0.14604631,-0.23911966,-0.22399546,-0.65032554,2017-04-23 22:14:09,38.45026588817013
5.2289367,0.59855044,8.240842,0.011999139,-0.09490228,0.02727077,0.0,5.233725,-0.15801731,8.293514,-0.0047884034,0.7565677,-0.05267244,-0.2317106,-0.21921803,-0.67528254,2017-04-23 22:14:10,36.74150987065723
5.0613422,0.4309563,8.389283,-0.020725785,0.016362462,-0.0010908308,0.0,5.255273,-0.24660277,8.276755,-0.19393034,0.6775591,0.11252748,-0.23520112,-0.21725422,-0.6757925,2017-04-23 22:14:11,36.09075573695195
5.2241483,0.2825158,8.331821,-0.016362462,-0.004363323,0.016362462,1.28,5.3342814,-0.34715924,8.224083,-0.110133275,0.62967503,0.107739076,-0.24179874,-0.2166406,-0.6777875,2017-04-23 22:14:12,59.67503391326219
5.3247046,0.48841715,8.054094,-0.07417649,-0.008726646,0.015271631,0.0,5.506664,-0.25139117,8.111555,-0.18195933,0.7398083,-0.05746084,-0.24432704,-0.22826338,-0.6748295,2017-04-23 22:14:13,39.10062666786264
5.401319,0.35913026,8.336611,-0.020725785,0.018544123,-0.0021816615,0.0,5.4539914,-0.36152446,8.145074,-0.05267244,0.7206547,0.19153613,-0.24515328,-0.22274795,-0.6758629,2017-04-23 22:14:14,39.96031677412939
5.3821654,0.2681506,7.297527,-0.33924836,0.34579337,-0.19416788,0.0,5.209783,-0.40462008,8.300697,0.17238252,0.6727707,-1.0031705,-0.23703328,-0.2105223,-0.6860465,2017-04-23 22:14:15,38.323353398579656
1.958457,-1.2162545,9.11712,-1.9504055,0.47232974,0.4145157,1.28,2.1332338,-2.0374656,9.354146,-0.17477672,0.82121116,-0.23702596,-0.174641,-0.037418544,-0.70915794,2017-04-23 22:14:17,45.71869042946009
2.3223755,-1.9919758,9.677363,0.13635385,-0.06981317,-0.0076358155,0.64,2.0039468,-3.0095115,9.11712,0.3184288,1.0175357,0.5602432,-0.20926195,-0.0016401485,-0.6802404,2017-04-23 22:14:18,62.96456507078386
2.0207062,-1.7477672,9.356541,0.0425424,0.0054541538,0.0054541538,1.28,2.1188686,-2.6192567,9.210494,-0.09816227,0.8714894,0.14604631,-0.1996316,-0.019130811,-0.67986584,2017-04-23 22:14:19,36.60478156227009
2.207454,-1.6089035,9.428367,0.04145157,0.017453292,-0.06872234,0.0,2.231396,-2.4420857,9.232041,-0.023942016,0.8331822,0.19632454,-0.19707367,-0.027557924,-0.68624514,2017-04-23 22:14:20,35.1567373913756
2.3319526,-1.4221559,9.351752,0.09162979,0.033815753,0.0,0.0,2.2984335,-2.2625206,9.263166,0.033518825,0.8403648,0.088585466,-0.19289483,-0.034635216,-0.6916546,2017-04-23 22:14:21,36.10111459951695
2.2697031,-1.484405,9.246407,-0.02727077,-0.037088245,0.0,0.0,2.372654,-2.2409728,9.248801,-0.10295067,0.7565677,-0.0023942017,-0.195124,-0.038372703,-0.6885892,2017-04-23 22:14:22,36.34093723865857
4.0892963,-1.283292,8.556877,-0.08399397,-0.09708394,-0.13308136,0.64,4.209007,-2.0853498,8.6095495,-0.11971009,0.80205756,-0.05267244,-0.25997138,-0.107549444,-0.69152576,2017-04-23 22:14:23,36.8679639141582
4.5537715,-1.2114661,8.561666,-0.058904864,-0.09490228,0.017453292,1.28,4.685453,-2.1260512,8.350976,-0.1316811,0.91458505,0.21068975,-0.28111246,-0.12032016,-0.69648546,2017-04-23 22:14:24,36.11937449189861
4.9464207,-1.4460979,8.331821,-0.016362462,-0.0076358155,0.0054541538,0.64,4.9679685,-2.2026656,8.166622,-0.021547815,0.7565677,0.16519992,-0.29555404,-0.12708497,-0.6959106,2017-04-23 22:14:25,35.96339500486026
4.984728,-1.2018893,8.552089,0.022907447,0.0032724924,-0.0032724924,0.64,5.0038815,-2.1547816,8.154651,-0.019153614,0.9528923,0.39743748,-0.2944738,-0.13057694,-0.69616175,2017-04-23 22:14:26,36.27505232255646
5.521029,-0.8762778,8.365341,0.008726646,-0.008726646,-0.0010908308,0.0,5.5138464,-1.7836803,7.9128366,0.007182605,0.90740246,0.45250413,-0.30030295,-0.16782147,-0.68223685,2017-04-23 22:14:27,37.26905794242674
5.410896,-0.8379706,8.082825,-0.01308997,0.0076358155,-0.0109083075,0.64,5.494693,-1.7597382,7.93199,-0.08379706,0.92176765,0.15083471,-0.29785603,-0.16838397,-0.6834328,2017-04-23 22:14:28,36.389643186147914
5.5018754,-0.80445176,8.063671,-0.025089107,0.004363323,0.015271631,0.64,5.494693,-1.7741034,7.9272017,0.007182605,0.9696517,0.1364695,-0.29768756,-0.1679388,-0.6851427,2017-04-23 22:14:29,35.827295349659906
5.329493,-0.866701,8.293514,0.0,0.015271631,-0.017453292,0.0,5.4683566,-1.7741034,7.9463553,-0.1388637,0.90740246,0.34715924,-0.29577285,-0.16744587,-0.6866467,2017-04-23 22:14:30,35.22439546556721
4.4580035,-1.8387469,10.931925,0.9173887,0.15707964,-0.44178647,0.0,1.5682021,-0.6344634,9.660604,2.8898015,-1.2042835,1.271321,-0.098401465,-0.06902873,-0.7186025,2017-04-23 22:14:31,37.449292863694964
-0.18195933,0.23942018,10.290278,0.5443246,-1.0144726,-0.13853551,0.0,-0.545878,-0.37588966,9.785102,0.36391866,0.61530983,0.50517654,-0.011556478,-0.0062153414,-0.74587756,2017-04-23 22:14:32,46.3036164833105
0.9816227,0.58418524,9.595961,-0.03926991,-0.23016529,0.053450707,0.0,1.4748282,-0.48841715,9.6845455,-0.49320555,1.0726024,-0.088585466,-0.09660475,-0.069607586,-0.7395059,2017-04-23 22:14:33,53.810970336385076
1.661576,0.5793968,9.662998,-0.067631505,0.0032724924,0.01308997,0.64,1.9153614,-0.079008654,9.617508,-0.25378537,0.6584055,0.045489833,-0.10287146,-0.09831947,-0.74676543,2017-04-23 22:14:34,44.83485597576595
1.7956513,0.3878607,9.600749,-0.025089107,-0.030543262,0.0010908308,0.64,2.0039468,-0.23223756,9.598354,-0.20829555,0.62009823,0.0023942017,-0.113663495,-0.094914824,-0.7448484,2017-04-23 22:14:35,35.94933872299201
1.7908629,0.32561144,9.619903,-0.020725785,0.006544985,0.0054541538,1.28,1.9536686,-0.30885202,9.605537,-0.16280572,0.6344634,0.01436521,-0.11553847,-0.09043891,-0.74317664,2017-04-23 22:14:36,35.62100587098163
1.6567876,0.40222588,9.509769,-0.033815753,-0.020725785,0.011999139,0.0,1.8507179,-0.272939,9.627085,-0.19393034,0.6751649,-0.11731588,-0.11105985,-0.088607736,-0.74208117,2017-04-23 22:14:37,35.346793974898304
1.7477672,0.320823,9.68694,-0.01308997,0.0010908308,0.018544123,0.0,1.8986019,-0.36870706,9.615114,-0.15083471,0.6895301,0.07182605,-0.11670156,-0.08740197,-0.7410438,2017-04-23 22:14:38,35.10872450669301
1.8052281,0.37349546,9.725247,-0.008726646,0.008726646,0.0021816615,1.92,1.8914193,-0.37349546,9.617508,-0.08619126,0.7469909,0.107739076,-0.116787545,-0.08761833,-0.7412374,2017-04-23 22:14:39,36.24810780178981
1.7429788,0.30645782,9.667787,0.0,0.021816615,-0.0010908308,1.92,1.8698715,-0.28491,9.624691,-0.12689269,0.59136784,0.04309563,-0.11289491,-0.09096393,-0.74186254,2017-04-23 22:14:40,35.04077763676548
2.8203697,0.4261679,9.730036,0.13417219,-0.25307274,-0.14835298,0.0,2.834735,-0.14844051,9.387665,-0.01436521,0.5746084,0.34237084,-0.14667292,-0.12812896,-0.7492075,2017-04-23 22:14:41,34.63798769696994
3.2082303,0.35434186,9.433155,-0.035997417,-0.044724062,0.0054541538,1.28,3.1387985,-0.023942016,9.291897,0.06943185,0.37828386,0.1412579,-0.15415807,-0.14391051,-0.74490255,2017-04-23 22:14:42,37.55048100179012
2.7485435,0.095768064,9.524135,-0.016362462,0.020725785,0.017453292,1.28,2.7964275,-0.2753332,9.397242,-0.047884032,0.37110126,0.12689269,-0.1483817,-0.123281054,-0.7428635,2017-04-23 22:14:43,34.00234071205739
-6.3542113,-0.21068975,8.039729,0.40578905,0.4330598,0.10799225,0.0,-6.277597,-0.6967127,7.501034,-0.076614454,0.48602295,0.5386954,0.1968522,0.21763879,-0.70916975,2017-04-23 22:14:44,49.90668065798119
-0.9959879,-0.009576807,9.849746,0.017453292,-0.017453292,-0.015271631,1.28,-0.8882488,-0.2801216,9.763555,-0.107739076,0.2705448,0.08619126,-0.007167192,0.0043810187,-0.7414341,2017-04-23 22:14:45,55.16848230426136
0.23942018,-0.01436521,9.753978,0.004363323,0.0141808,-0.0054541538,0.64,-0.0047884034,-0.25378537,9.8042555,0.24420857,0.23942018,-0.050278235,-0.039828077,-0.02425792,-0.7399137,2017-04-23 22:14:46,59.79558440266849
0.2681506,-0.1436521,9.797073,0.0141808,0.0,0.004363323,0.64,0.02873042,-0.20590134,9.80665,0.23942018,0.062249243,-0.009576807,-0.040433317,-0.026930826,-0.73970836,2017-04-23 22:14:47,36.83756438785315
0.11971009,-0.06703765,9.89763,0.0,-0.009817477,0.0021816615,0.64,0.05746084,-0.18195933,9.80665,0.062249243,0.11492168,0.090979666,-0.041604698,-0.029151514,-0.7395324,2017-04-23 22:14:48,39.288652466266726
0.17717093,-0.009576807,9.773131,0.0021816615,0.0,0.004363323,0.0,0.055066638,-0.17477672,9.80665,0.12210429,0.16519992,-0.033518825,-0.04216923,-0.029916145,-0.7392031,2017-04-23 22:14:49,34.597003337522096
0.20590134,0.01436521,9.854534,-0.018544123,0.0054541538,-0.009817477,0.0,0.06943185,-0.15083471,9.80665,0.1364695,0.16519992,0.047884032,-0.04251973,-0.032001685,-0.73935634,2017-04-23 22:14:50,33.859764054915836
0.095768064,0.019153614,9.782708,0.0,-0.011999139,-0.006544985,0.64,0.095768064,-0.1388637,9.80665,0.0,0.15801731,-0.023942016,-0.043631718,-0.033867598,-0.73965526,2017-04-23 22:14:51,33.82418939365654
0.08619126,-0.05267244,9.888053,0.0054541538,0.0032724924,-0.015271631,0.0,0.110133275,-0.1340753,9.80665,-0.023942016,0.08140286,0.08140286,-0.044381894,-0.034988776,-0.73912233,2017-04-23 22:14:52,34.164485891446304
0.06703765,-0.0047884034,9.797073,-0.004363323,-0.023998277,-0.0021816615,0.0,0.11492168,-0.1364695,9.80665,-0.047884032,0.1316811,-0.009576807,-0.043907054,-0.034341373,-0.7388834,2017-04-23 22:14:53,34.75215911918411
0.19153613,0.07182605,9.868899,-0.016362462,-0.0032724924,0.0021816615,0.0,0.1412579,-0.1340753,9.80665,0.050278235,0.20590134,0.062249243,-0.043565013,-0.034232095,-0.7395016,2017-04-23 22:14:54,35.547035664703145
0.08619126,0.023942016,9.782708,0.0010908308,0.0021816615,0.0076358155,0.0,0.14604631,-0.1412579,9.80665,-0.059855044,0.16519992,-0.023942016,-0.044533882,-0.034819584,-0.7386638,2017-04-23 22:14:55,35.14303850078856
0.22026655,0.01436521,9.821015,-0.011999139,0.022907447,-0.004363323,0.64,0.14844051,-0.12689269,9.80665,0.07182605,0.1412579,0.01436521,-0.044669036,-0.036186878,-0.7383013,2017-04-23 22:14:56,35.288478324806725
0.18674773,-0.0047884034,9.859323,-0.0032724924,-0.006544985,-0.0109083075,0.0,0.15322891,-0.11492168,9.80665,0.033518825,0.110133275,0.05267244,-0.04478625,-0.037439678,-0.7384581,2017-04-23 22:14:57,36.011765935187725
0.18195933,-0.05746084,9.730036,0.0054541538,-0.019634955,0.0021816615,0.64,0.16759412,-0.11252748,9.80665,0.01436521,0.055066638,-0.076614454,-0.045554858,-0.03867584,-0.7383819,2017-04-23 22:14:58,36.090066270263414
0.15322891,-0.01436521,9.873688,-0.004363323,-0.004363323,0.0021816615,0.0,0.1604115,-0.090979666,9.80665,-0.007182605,0.076614454,0.06703765,-0.044730827,-0.03970617,-0.73849326,2017-04-23 22:14:59,40.9754546358738
0.2873042,-0.07182605,9.739613,0.0021816615,-0.0032724924,0.004363323,0.0,0.16998832,-0.110133275,9.80665,0.11731588,0.038307227,-0.06703765,-0.045959193,-0.039818946,-0.7381151,2017-04-23 22:15:00,34.9540729809991
0.1436521,-0.038307227,9.888053,0.011999139,-0.009817477,-0.0021816615,0.0,0.18674773,-0.09816227,9.80665,-0.04309563,0.059855044,0.08140286,-0.046423722,-0.04119831,-0.7384393,2017-04-23 22:15:01,34.21722920003986
0.15322891,0.038307227,9.792285,-0.011999139,-0.020725785,0.009817477,0.0,0.20829555,-0.10055647,9.8042555,-0.055066638,0.1388637,-0.011971008,-0.04729429,-0.04204295,-0.73847795,2017-04-23 22:15:02,34.496068653975655
0.19153613,0.033518825,9.768343,-0.0032724924,0.0010908308,-0.004363323,0.0,0.21308395,-0.10295067,9.8042555,-0.021547815,0.1364695,-0.035913024,-0.047563393,-0.042431023,-0.7386906,2017-04-23 22:15:03,34.21369957620246
0.25378537,0.038307227,9.931149,0.0010908308,0.0141808,-0.0010908308,0.64,0.20590134,-0.09816227,9.8042555,0.047884032,0.1364695,0.12689269,-0.0472409,-0.042441133,-0.7381682,2017-04-23 22:15:05,35.953174105622374
0.19632454,-0.21068975,9.782708,0.018544123,0.0,-0.01308997,0.0,0.20350714,-0.107739076,9.8042555,-0.007182605,-0.10295067,-0.021547815,-0.04752342,-0.042220328,-0.7381307,2017-04-23 22:15:06,34.971351199870774
0.14844051,-0.02873042,9.811439,0.0,-0.008726646,-0.0109083075,0.0,0.22505496,-0.10534488,9.8042555,-0.076614454,0.076614454,0.007182605,-0.048206687,-0.043248095,-0.7384497,2017-04-23 22:15:07,34.379154722715604