ACC_X,ACC_Y,ACC_Z,GYRO_X,GYRO_Y,GYRO_Z,LIGH_1,GRAV_X,GRAV_Y,GRAV_Z,LINACC_X,LINACC_Y,LINACC_Z,ROTVEC_X,ROTVEC_Y,ROTVEC_Z,TIME,VOICE
0.0,0.0,0.0,0.0,0.0,0.0,1.0,0.0,0.0,0.0,0.0,0.0,0.0,0.0,0.0,0.0,2016-11-30 08:09:19,25.19436930859638
-3.5990448,6.2762604,6.4331665,0.31514704,0.26600835,0.15709698,1.0,-3.0781267,4.765689,7.9989843,0.5176451,-1.4724299,1.5838002,-0.16798607,0.27690732,0.94592786,2016-11-30 08:09:20,30.476698697089198
-3.585968,6.2631836,6.4331665,0.004298087,0.010143792,0.01197361,1.0,-3.6358256,6.3140793,6.563808,-0.05367418,0.062339857,0.13500388,0.2124606,-0.3468883,-0.91318446,2016-11-30 08:09:21,26.790700013766553
-3.697113,6.0408936,6.2468414,-0.018516095,0.01747986,0.023833593,1.0,-3.6274729,6.3395486,6.5438485,-0.031701144,0.21039215,0.019701868,0.21313845,-0.34722012,-0.9128063,2016-11-30 08:09:22,35.86411000836954
0.17979431,2.510498,9.532059,-0.18720737,-0.20583297,-0.08473107,1.0,-2.0978289,4.0891185,8.663059,-2.2748933,1.5829748,-0.8167021,0.1306542,-0.19448934,-0.96466595,2016-11-30 08:09:23,54.98238524442864
0.16671753,2.4189758,9.532059,-0.017943406,-0.031465765,-0.022809723,1.0,-0.03272093,2.5511336,9.46895,-0.2234058,0.1675727,-0.092533395,-6.442411E-4,-0.12867793,-0.9916237,2016-11-30 08:09:24,51.50072969148327
0.10787964,2.4614716,9.512451,0.0017518193,-0.0019641188,-0.0042607025,1.0,0.17798425,2.4299214,9.499167,0.04357334,-0.018758113,-0.022252774,0.009315878,0.12507732,0.99210304,2016-11-30 08:09:25,46.40676800694102
0.15690613,2.4516602,9.600708,-0.0014389408,9.2884334E-4,0.0016248316,1.0,0.15999988,2.445145,9.495582,0.037416756,-0.020137897,-0.03866137,-0.0078676585,-0.12560529,-0.9920457,2016-11-30 08:09:26,62.02019443546267
0.22555542,2.4614716,9.5811,8.200551E-4,-8.448065E-4,-8.459218E-5,1.0,0.15887512,2.461038,9.491494,-0.045430083,-0.004244928,-0.0699905,-0.007300305,-0.12657703,-0.9919047,2016-11-30 08:09:27,39.08294079465261
0.17651367,2.471283,9.50264,-5.593576E-4,9.443678E-4,0.0039389622,1.0,0.17875314,2.4561336,9.492411,-0.011931742,0.004471047,-0.041832857,0.009321641,0.12621313,0.9919588,2016-11-30 08:09:28,49.271899470548554
0.16671753,2.4614716,9.5516815,-2.475837E-4,-0.0016059221,-0.009988534,1.0,0.16525604,2.452938,9.493481,1.5848337E-4,-0.0125614535,-0.04067815,-0.007931718,-0.12608753,-0.99198097,2016-11-30 08:09:29,52.216010171163774
0.18632507,2.481079,9.561478,-2.3303823E-4,-0.00333297,-0.010688239,1.0,0.15952666,2.4644616,9.490593,-0.017537866,-0.041682385,-0.08451116,-0.007707873,-0.1266825,-0.9919056,2016-11-30 08:09:30,45.920113663394176
0.15690613,2.471283,9.512451,-9.7100704E-4,-0.0024899351,-0.002323246,1.0,0.17862263,2.4567332,9.492257,0.0151784485,0.0050706365,-0.041985817,0.00955099,0.12613223,0.99196625,2016-11-30 08:09:31,56.19720227726877
0.15690613,2.4320526,9.561478,-3.9069873E-4,0.0017694712,0.012500196,1.0,0.16662586,2.4497364,9.494283,-0.010438652,0.011694178,-0.012719197,-0.008351204,-0.12588197,-0.9920063,2016-11-30 08:09:32,21.924454825289747
0.15690613,2.4908905,9.54187,-2.560933E-4,-0.0024711539,-0.009916094,1.0,0.16794507,2.4462733,9.495153,-0.036419522,-0.03283257,-0.07989816,0.008814234,0.1257233,0.9920252,2016-11-30 08:09:33,64.86924996532692
0.16671753,2.510498,9.54187,6.4876897E-4,-3.4698087E-4,-3.9417643E-4,1.0,0.17228918,2.4660652,9.489954,-0.018395683,-0.026458422,-0.057909753,0.009354607,0.12674305,0.9918838,2016-11-30 08:09:34,50.093427070902635
0.13729858,2.471283,9.50264,-0.0012734975,0.0010729637,-1.9393631E-4,1.0,0.17848487,2.469045,9.489065,0.028661057,0.0037621388,-0.03155774,0.009449422,0.12673746,0.99188423,2016-11-30 08:09:35,62.70195395639048
0.17651367,2.4516602,9.571289,-7.44953E-5,-0.002486265,-0.0068381345,1.0,0.17099929,2.4503071,9.494059,0.0075551146,-0.014975815,-0.06742504,-0.008710846,-0.12594432,-0.99199903,2016-11-30 08:09:36,39.56697764468958
0.14709473,2.4614716,9.512451,5.984259E-4,3.7137337E-4,0.0030425938,1.0,0.16655932,2.4543872,9.493084,-0.024125544,-0.038136393,-0.05477983,-0.008314365,-0.12624358,-0.9919616,2016-11-30 08:09:37,53.33094876080814
0.15690613,2.481079,9.5811,-5.323765E-4,-0.0014621761,-0.007853189,1.0,0.1669327,2.4498048,9.494261,-0.010131816,-0.01547814,-0.108084075,-0.0082767075,-0.12591831,-0.9920034,2016-11-30 08:09:38,26.214705602880926
0.20593262,2.4614716,9.590912,6.5072504E-4,0.001515646,0.005848335,1.0,0.15989096,2.4674363,9.489816,0.0100671435,-0.05232806,-0.058048584,0.0085197035,0.1268365,0.99188423,2016-11-30 08:09:39,51.94830957315862
0.19613647,2.481079,9.590912,-0.0014255297,0.0010576638,0.0064371014,1.0,0.17913131,2.4434855,9.4956665,-0.011553557,-0.049038112,-0.038576573,-0.008591111,-0.12561287,-0.99202985,2016-11-30 08:09:41,59.75674551102759
0.21574402,2.4516602,9.532059,-5.6375697E-4,-0.0023139182,-0.013298758,1.0,0.16939506,2.4568956,9.492385,0.019571247,0.018853506,-0.014617932,-0.008513135,-0.12625562,-0.9919607,2016-11-30 08:09:42,14.866370679224675
0.18632507,2.5203094,9.532059,2.1901775E-4,0.003885289,0.012359422,1.0,0.18040301,2.4585855,9.491743,0.0033385032,-0.033938225,-0.042499576,-0.008909642,-0.12639552,-0.99193627,2016-11-30 08:09:43,60.219889602512254
0.16671753,2.4908905,9.5516815,9.860424E-4,0.003644434,0.0062203677,1.0,0.17858952,2.4566915,9.492269,0.015145352,-0.022211833,-0.05559536,-0.0084995115,-0.12634282,-0.99193853,2016-11-30 08:09:44,51.541514137219586
0.18632507,2.4908905,9.532059,-4.2124055E-4,0.0014980588,0.001775318,1.0,0.16631533,2.4666023,9.489921,-0.037989885,-0.012300834,-0.08518287,-0.008107649,-0.12678452,-0.99189246,2016-11-30 08:09:45,60.818067897599335
0.14709473,2.4516602,9.561478,-0.0013896214,7.395254E-4,0.002823498,1.0,0.1868673,2.4563062,9.492209,0.037043467,0.018264102,-0.0011729926,-0.009111865,-0.12625244,-0.99194914,2016-11-30 08:09:46,51.76831799116627
0.16671753,2.4516602,9.522263,-4.4663541E-4,-4.828134E-4,9.801799E-4,1.0,0.16737224,2.4451177,9.495461,0.017548412,-0.006544775,-0.025161562,-0.008033841,-0.12568784,-0.9920266,2016-11-30 08:09:47,47.10347273615443
0.16671753,2.481079,9.50264,-5.8209675E-4,-0.0020642015,-0.0056854095,1.0,0.16282658,2.442835,9.496127,-0.01423794,-0.06330876,-0.07897706,0.008630551,0.12552828,0.9920511,2016-11-30 08:09:48,63.84152400377716
0.18632507,2.4614716,9.532059,-6.806691E-4,-0.0013861672,-0.0049785,1.0,0.17272612,2.4568427,9.492339,-0.017784547,-0.009347155,-0.055294417,0.008990443,0.1262084,0.9919626,2016-11-30 08:09:49,52.53580854734036
0.17651367,2.481079,9.590912,0.0010681343,0.0022746087,0.0056570536,1.0,0.15439692,2.4490771,9.49466,-0.009047243,-0.0298261,-0.09406469,-0.0076159234,-0.12592643,-0.9920075,2016-11-30 08:09:50,54.122425824762786
0.15690613,2.4516602,9.54187,6.9370226E-4,0.0013684045,0.0051871473,1.0,0.17031561,2.4576278,9.492177,-0.02060519,-0.008755878,-0.05539584,-0.0077882926,-0.1264052,-0.99191874,2016-11-30 08:09:51,22.3914300480277
0.18632507,2.4908905,9.54187,0.0010045241,4.7093304E-4,0.004883582,1.0,0.17284942,2.458933,9.491795,-0.0042150915,0.020890865,-0.042448863,0.009109859,0.1264091,0.99193645,2016-11-30 08:09:52,56.3824494960417
0.19613647,2.510498,9.571289,-1.4833332E-4,0.0023582312,0.0020420956,1.0,0.16981596,2.4502716,9.494089,0.0063717957,-0.0286317,-0.04015442,0.008741073,0.12592982,0.9920003,2016-11-30 08:09:53,54.921581240688226
0.17651367,2.4614716,9.532059,-0.0016621111,-0.0020378395,-0.005217429,1.0,0.16396022,2.4372344,9.497547,-0.056674983,0.0012245344,-0.05079116,-0.008259309,-0.12524462,-0.9920897,2016-11-30 08:09:54,61.519044517580845
0.15690613,2.4614716,9.5516815,0.001167123,-0.0010312921,-0.004457329,1.0,0.17464422,2.4646127,9.490289,0.024820397,0.012950096,-0.057574734,0.009015418,0.12670729,0.99189913,2016-11-30 08:09:55,17.01424059791345
0.19613647,2.481079,9.610519,-7.613954E-4,7.173229E-4,0.0026955134,1.0,0.17164128,2.4567423,9.492385,-0.019043595,0.005079781,-0.12358071,-0.008781817,-0.12625733,-0.9919587,2016-11-30 08:09:56,11.954383730436133
0.17651367,2.481079,9.54187,-0.0017838922,7.3330797E-4,0.003303045,1.0,0.17517585,2.4626486,9.490789,0.011731679,-0.02987494,-0.043453928,-0.008690835,-0.12641133,-0.99193686,2016-11-30 08:09:57,16.297068429542954
0.17651367,2.481079,9.5811,-0.001573676,-0.0011245307,-0.0028464722,1.0,0.17068304,2.4559186,9.492614,0.0072388747,-0.009364405,-0.068869874,-0.007966265,-0.1261898,-0.991953,2016-11-30 08:09:58,34.35882837337535
0.17651367,2.4908905,9.600708,6.275734E-5,0.0015621313,0.011398422,1.0,0.1781697,2.4520755,9.493469,0.001105175,-0.026827944,-0.040773753,-0.008617649,-0.12605862,-0.99197364,2016-11-30 08:09:59,63.35643377788526
0.19613647,2.4516602,9.522263,4.880991E-4,0.0026968683,0.009777343,1.0,0.16912574,2.4612825,9.491253,-0.021559129,-0.017620659,-0.056610398,-0.008173901,-0.12653765,-0.9919197,2016-11-30 08:10:00,41.184399961823644
0.22555542,2.471283,9.561478,-5.3373654E-4,7.1255997E-4,0.0033242763,1.0,0.17429776,2.4550884,9.4927635,-0.05724814,-0.05105552,-0.041479547,0.009263743,0.12615271,0.99196494,2016-11-30 08:10:01,41.800943800227294
0.19613647,2.510498,9.5811,-6.60081E-4,-1.4307634E-4,-0.004673044,1.0,0.18136302,2.4518144,9.493477,-0.022942185,-0.013468423,-0.06800696,0.009521754,0.12598631,0.9919847,2016-11-30 08:10:02,57.508905902645246
0.17651367,2.471283,9.5516815,6.770694E-4,1.9556402E-4,0.0028041753,1.0,0.161635,2.4504676,9.494182,-0.0018091731,-0.014815371,-0.05368249,-0.008226392,-0.1259691,-0.9919998,2016-11-30 08:10:03,45.09869502369136
0.20593262,2.4614716,9.5516815,3.1401982E-4,-3.2690034E-4,-0.0057649654,1.0,0.1804448,2.4570322,9.492146,0.0033802772,-0.021871198,-0.0012370043,0.009430632,0.12628846,0.99194753,2016-11-30 08:10:04,62.628829055374375
0.20593262,2.471283,9.571289,2.7160207E-4,7.9910434E-4,-8.2523254E-4,1.0,0.16062321,2.4547083,9.493103,-0.030061651,-0.010574599,-0.06838106,-0.007900442,-0.1261906,-0.9919706,2016-11-30 08:10:05,58.74558841605687
0.16671753,2.471283,9.54187,6.525768E-4,-8.2500174E-4,-0.007003855,1.0,0.16506611,2.4579077,9.492199,-0.03923911,-0.020995611,-0.04204401,-0.008361189,-0.12640134,-0.99194384,2016-11-30 08:10:06,58.560225462290504
0.22555542,2.4516602,9.571289,2.1751544E-4,8.5676287E-4,0.004078658,1.0,0.1743856,2.449835,9.494119,-0.029919611,0.011792898,-0.05374484,0.009178317,0.12590097,0.991999,2016-11-30 08:10:07,55.0943971163846
0.24516296,2.481079,9.532059,6.3077045E-5,7.35105E-4,0.0027956588,1.0,0.16578017,2.4479713,9.494753,-0.011284338,-0.044552103,-0.0122495005,0.008768503,0.12582883,0.9920115,2016-11-30 08:10:08,59.188149211126984
0.15690613,2.510498,9.512451,-9.730208E-4,-0.0010231894,-0.0082264,1.0,0.18094584,2.4635298,9.490451,0.0038813292,-0.015373394,-0.016551582,-0.009141394,-0.12661952,-0.99190867,2016-11-30 08:10:09,47.97977378795296
0.20593262,2.4614716,9.54187,0.0,-0.0,0.0,1.0,0.16488998,2.4637144,9.490697,-0.039415237,0.025671992,-0.057166554,-0.008195793,-0.12665679,-0.9919104,2016-11-30 08:10:10,57.930167942027026
0.17651367,2.4614716,9.5516815,0.0010757496,-0.0034510887,-0.0086839115,1.0,0.17121565,2.4522283,9.493558,0.009128596,-0.0116906455,-0.054682568,-0.008407376,-0.12617888,-0.9919642,2016-11-30 08:10:11,54.433146204381416
0.19613647,2.4614716,9.561478,-9.4317336E-4,-6.775659E-4,-2.1135902E-4,1.0,0.1722668,2.4494886,9.4942465,-0.018418077,-0.01579425,-0.03999647,-0.008496685,-0.12590201,-0.9920019,2016-11-30 08:10:12,50.939872713079566
0.20593262,2.5301208,9.5516815,0.0035319028,-0.0019253156,-0.005458868,1.0,0.189877,2.4582176,9.491653,-8.078612E-4,-0.034305878,-0.04258936,0.010225905,0.12641686,0.99191815,2016-11-30 08:10:13,49.93420936228472
0.14709473,2.471283,9.561478,4.3639823E-4,0.004926579,0.01045466,1.0,0.17093092,2.4786313,9.486705,0.029699493,0.0139796855,-0.061235037,-0.008255355,-0.12747249,-0.9918062,2016-11-30 08:10:14,47.44378627200316
0.19613647,2.471283,9.600708,-0.0013706763,-3.493687E-4,-8.999149E-4,1.0,0.16255905,2.4547262,9.493066,-0.01450547,-0.010556518,-0.054798122,0.008398611,0.12605472,0.9919878,2016-11-30 08:10:15,51.988096988425994
0.15690613,2.4614716,9.571289,-3.0337757E-4,7.151577E-4,0.002522545,1.0,0.15609959,2.4397094,9.497044,-0.007344582,-0.039193828,-0.050819423,-0.007920707,-0.12537278,-0.9920777,2016-11-30 08:10:16,52.21197748521086
0.20593262,2.500702,9.50264,-5.0668474E-5,0.0030459764,0.013109354,1.0,0.1773854,2.4540224,9.492982,0.013941237,-0.038501132,-0.054882087,-0.00867555,-0.12615727,-0.9919663,2016-11-30 08:10:17,6.422171294738805
0.17651367,2.471283,9.50264,-1.5683768E-4,-0.0035083704,-0.008483174,1.0,0.18286535,2.4525542,9.493257,0.01942118,8.915907E-4,-0.027366225,0.009532603,0.12605214,0.99197745,2016-11-30 08:10:18,62.034899277816535
0.17651367,2.4908905,9.600708,-6.05188E-4,-0.0030309975,-0.0052978424,1.0,0.18836428,2.437343,9.4970665,0.038540464,-0.04156039,-0.064417325,0.010158324,0.1252207,0.9920708,2016-11-30 08:10:19,61.076683014053394
0.18632507,2.4614716,9.512451,-8.0705235E-5,4.5105285E-4,-0.0023159047,1.0,0.16331525,2.4550078,9.492979,-0.027369617,-0.010275115,-0.027643885,0.008877973,0.12615052,0.99196416,2016-11-30 08:10:20,37.57735979163479
0.17651367,2.4908905,9.50264,1.664477E-4,0.0021515717,0.0012700728,1.0,0.18307798,2.4651315,9.489994,0.0468745,0.013469047,0.023853065,0.010310931,0.12663206,0.9918678,2016-11-30 08:10:21,48.72800544619196
0.19613647,2.471283,9.54187,8.3392335E-4,-9.121457E-4,-0.0020114519,1.0,0.16764371,2.4385273,9.497151,0.004199543,-0.040375967,-0.050712183,-0.00826243,-0.12538183,-0.9920701,2016-11-30 08:10:22,45.68633431918212
0.21574402,2.481079,9.571289,0.0012431447,0.0021292288,0.005490717,1.0,0.18439424,2.4619036,9.490807,0.020950083,-0.0033793158,-0.084297515,0.009548574,0.12660459,0.9919066,2016-11-30 08:10:23,68.3611425083911
0.20593262,2.4908905,9.610519,-0.0010123171,4.918182E-4,0.0026633427,1.0,0.16311319,2.4364128,9.497772,-0.027481778,-0.04366363,-0.09065295,-0.0074999095,-0.12517767,-0.99208045,2016-11-30 08:10:24,61.06366186599989
0.22555542,2.481079,9.620331,9.2653494E-4,0.0015869705,0.0038388206,1.0,0.17330143,2.4496279,9.494192,-0.0044413144,-0.028323699,-0.013044242,-0.008612689,-0.12594733,-0.99199706,2016-11-30 08:10:25,24.97312713996477
0.19613647,2.481079,9.561478,-3.2408707E-4,-1.5159509E-5,-0.0029919015,1.0,0.16949584,2.4422863,9.496151,0.0051821764,-0.037134442,-0.0651838,-0.007913072,-0.12554394,-0.9920395,2016-11-30 08:10:26,59.592004265359726
0.16671753,2.471283,9.512451,6.038096E-4,-0.0018831829,-0.0024171153,1.0,0.18327612,2.4450343,9.495189,0.019831944,-0.02024867,-0.011813889,-0.008839938,-0.12574641,-0.9920116,2016-11-30 08:10:27,53.888478507835885
0.14709473,2.481079,9.492844,-8.224182E-4,8.5273536E-4,0.0025019718,1.0,0.17975034,2.459003,9.491649,0.002913413,-0.01893664,-0.056469075,-0.008702206,-0.12641013,-0.9919312,2016-11-30 08:10:28,51.61582943524894
0.19613647,2.481079,9.590912,-3.1291333E-4,0.0012123875,0.0021684677,1.0,0.17050104,2.4407895,9.496519,-0.005802354,-0.023916038,-0.0651281,0.009049592,0.12541804,0.9920597,2016-11-30 08:10:29,24.393458540697118
0.17651367,2.4908905,9.512451,0.0018944871,0.0026971127,0.010927701,1.0,0.17216493,2.4608655,9.491306,0.008720769,-0.03165812,-0.056557193,0.008922086,0.1265316,0.9919224,2016-11-30 08:10:30,56.000413365698485
0.18632507,2.481079,9.50264,-0.0021412205,-3.3460202E-4,-0.002398604,1.0,0.1771478,2.4598396,9.491481,-0.01353706,-0.0054432754,-0.05638262,-0.009003809,-0.12628019,-0.9919536,2016-11-30 08:10:31,23.51192163458888
0.19613647,2.481079,9.54187,-7.967731E-5,3.8921817E-7,-0.0014434914,1.0,0.18190686,2.4538105,9.492951,0.0048423484,-0.011472424,-0.014050971,-0.009091228,-0.12614402,-0.9919687,2016-11-30 08:10:32,57.219481320421835
0.19613647,2.5203094,9.54187,-0.0012968491,-0.0032531463,-0.011697165,1.0,0.17547503,2.4605954,9.491316,0.01180264,0.037763335,-0.08419609,-0.008158691,-0.12648822,-0.9919113,2016-11-30 08:10:33,66.1064811005325
0.18632507,2.4614716,9.492844,-5.5133056E-5,2.8012582E-4,-0.0014172177,1.0,0.17278057,2.4629443,9.490755,-0.045144994,0.011281636,-0.0026269713,-0.007828264,-0.1266619,-0.99188447,2016-11-30 08:10:34,51.38031317527597
0.20593262,2.471283,9.532059,0.00111772,-0.0023050543,-0.004863336,1.0,0.18856359,2.4674268,9.489291,0.03873976,0.0021439744,-0.03133162,-0.009528992,-0.12688483,-0.9918706,2016-11-30 08:10:35,37.197920659418806
0.15690613,2.4908905,9.5516815,-0.0018620762,0.0017548325,0.0076772743,1.0,0.19418906,2.4554243,9.4922905,0.017124543,0.0037617234,-0.06919326,-0.009489147,-0.12619045,-0.991953,2016-11-30 08:10:36,59.75620033797944
0.17651367,2.500702,9.561478,-3.490486E-4,-0.0029184402,-0.0068116104,1.0,0.1879247,2.4470916,9.494569,0.03810088,-0.059052195,-0.0532951,-0.0095181195,-0.12577641,-0.99201214,2016-11-30 08:10:37,16.622855157221302
0.16671753,2.500702,9.571289,9.2805683E-4,3.336329E-4,-0.0053837085,1.0,0.18345365,2.4632883,9.490465,0.060870513,0.025245942,-0.030156964,-0.009884167,-0.12664089,-0.9918994,2016-11-30 08:10:38,59.204951937224166
0.21574402,2.471283,9.512451,-0.0012727232,-0.0027980132,-0.0017582382,1.0,0.16366884,2.4751644,9.487738,-0.04063638,0.009881486,-0.08736592,-0.0073937792,-0.1272693,-0.99180424,2016-11-30 08:10:39,29.872723393996775
0.20593262,2.4908905,9.54187,-7.8901806E-4,0.0029952908,0.0026694227,1.0,0.17978643,2.4595857,9.491496,-0.03813913,-0.060178634,-0.056366824,-0.008335767,-0.12646246,-0.99191403,2016-11-30 08:10:40,60.23193753871688
0.18632507,2.481079,9.54187,3.2829068E-4,0.0031552017,0.013290825,1.0,0.18882424,2.4733458,9.487745,-0.0018606371,0.008062974,-0.06011857,-0.008765989,-0.12720774,-0.99180883,2016-11-30 08:10:41,51.09305325631338
0.15690613,2.5203094,9.5516815,-0.0017616277,-2.2275755E-4,-0.0052441056,1.0,0.15898415,2.456669,9.492623,-0.031700715,-0.035854418,-0.09610143,-0.0077750427,-0.12616572,-0.991974,2016-11-30 08:10:42,40.518030745545545
0.19613647,2.4516602,9.54187,-0.0014160188,-1.3443778E-4,2.5852138E-4,1.0,0.17502035,2.449495,9.494195,-0.0154663725,-0.0036891904,-0.026038608,-0.008740892,-0.12580338,-0.99201447,2016-11-30 08:10:43,43.665031931131615
0.24516296,2.4614716,9.600708,-2.6734662E-5,4.4125927E-4,7.0798834E-4,1.0,0.17640974,2.4385428,9.496988,-0.014275128,-0.0131196845,-0.09173617,-0.008463311,-0.12536658,-0.9920629,2016-11-30 08:10:44,14.177829782353058
0.16671753,2.471283,9.590912,-2.1034728E-4,-0.002256723,-0.01083871,1.0,0.18314222,2.433797,9.498078,0.019698037,-0.031486038,-0.09064631,-0.008921375,-0.12511365,-0.99209535,2016-11-30 08:10:45,54.17127131136284
0.16671753,2.4614716,9.54187,5.63609E-4,0.0012719693,0.00738207,1.0,0.17742214,2.434989,9.497881,-0.013262737,-0.030293925,-0.03636277,-0.008530513,-0.12534603,-0.9920616,2016-11-30 08:10:46,55.91479005050681
0.18632507,2.4614716,9.54187,-0.0014111911,-3.620082E-4,-8.149705E-4,1.0,0.17794518,2.4514802,9.493628,0.0011634195,-0.0014986623,-0.04028078,-0.008667893,-0.1259318,-0.9919932,2016-11-30 08:10:47,55.86285561164474
0.17651367,2.4516602,9.522263,-3.787215E-5,-2.6554588E-4,-0.0023455122,1.0,0.18066771,2.4479167,9.494495,0.0036031879,0.009874419,-0.01250721,0.009394821,0.1258055,0.99201,2016-11-30 08:10:48,49.870250920742805
0.16671753,2.4614716,9.50264,0.0014635357,-9.520799E-4,-0.006280816,1.0,0.16373642,2.4414499,9.496469,0.013912596,-0.023832906,0.00308586,0.008630172,0.1256146,0.9920393,2016-11-30 08:10:49,62.590164016453656
0.18632507,2.4418488,9.522263,-6.4059923E-4,-0.0012995502,0.005076189,1.0,0.19319212,2.4407034,9.496107,0.016127609,-0.010959084,-0.024516458,-0.0091355,-0.12549922,-0.99202913,2016-11-30 08:10:50,62.75670651278003
0.16671753,2.4516602,9.54187,0.0013455283,-3.25216E-4,-0.009037955,1.0,0.17671865,2.44471,9.495398,0.029635273,-0.06337464,-0.09287923,-0.008738916,-0.1257138,-0.99202585,2016-11-30 08:10:51,22.011979131919418
0.21574402,2.4614716,9.590912,-0.0010555381,-3.5706053E-5,0.0054986216,1.0,0.17732497,2.4455926,9.495158,-0.025429897,-0.0073999953,-0.079632975,-0.008657077,-0.12563272,-0.9920284,2016-11-30 08:10:52,43.90039739685825
0.20593262,2.4614716,9.5516815,0.0017822768,0.0049615116,0.018440539,1.0,0.19029416,2.4538753,9.492769,-3.9069445E-4,0.002212766,-0.09595512,-0.009192615,-0.12620506,-0.9919509,2016-11-30 08:10:53,14.981956458693897
0.15690613,2.481079,9.590912,0.0010927186,7.2100625E-4,-0.0029557063,1.0,0.18228522,2.4478903,9.4944725,0.046081744,-0.017392462,-0.03977118,-0.008877655,-0.12587938,-0.9919997,2016-11-30 08:10:54,10.066442874731184
0.17979431,2.4451294,9.532059,0.001835852,-0.0015790309,0.0017869099,1.0,0.18858443,2.4585216,9.491602,-0.015720783,-0.006761334,-0.015401035,-0.009146485,-0.12646681,-0.9919175,2016-11-30 08:10:55,44.97446016555883
0.17651367,2.4320526,9.571289,-0.003122895,0.0030035996,0.007224626,1.0,0.19072694,2.4208407,9.50124,0.01366242,-0.003581119,-0.0602441,-0.009370311,-0.12435422,-0.9921889,2016-11-30 08:10:56,55.38595041171334
0.18632507,2.471283,9.512451,0.0011775731,1.7847224E-4,0.003537642,1.0,0.18563788,2.440622,9.496278,0.008573351,-0.024660693,-0.024345208,-0.009392027,-0.12547481,-0.9920514,2016-11-30 08:10:57,23.914717587535783
0.18632507,2.471283,9.5516815,2.9991593E-4,0.0025791875,0.0090407645,1.0,0.1769869,2.4396272,9.496699,0.027163085,-0.025655575,-0.037544075,-0.008447549,-0.12544215,-0.9920521,2016-11-30 08:10:58,58.0681581474365
0.20593262,2.4614716,9.561478,5.288957E-4,-0.0033285469,-0.008661907,1.0,0.18206587,2.460102,9.49132,-0.02347527,0.02130216,-0.0290829,-0.008819677,-0.12651262,-0.99191576,2016-11-30 08:10:59,53.901460513559925
0.20593262,2.4516602,9.5811,-6.429596E-4,0.0017140653,0.0022380017,1.0,0.18401463,2.4544065,9.492757,0.0069501214,-0.010876368,-0.027866678,0.00953532,0.12608068,0.99197334,2016-11-30 08:11:00,47.75481211306083
0.15690613,2.4908905,9.620331,8.591884E-5,-3.1728653E-4,0.0011337069,1.0,0.18905528,2.4485607,9.494166,0.011990766,-0.01672221,-0.09455849,-0.009159838,-0.12589723,-0.9919899,2016-11-30 08:11:01,37.9621718847384
0.18632507,2.5301208,9.5516815,0.0012112069,-0.0017720504,-0.0025572584,1.0,0.17921668,2.4609945,9.491142,-0.052329235,0.022952331,-0.05672097,-0.008776801,-0.12656258,-0.99191284,2016-11-30 08:11:02,58.815764230667796
0.16671753,2.481079,9.532059,-0.0012049464,0.0012804619,0.0017828548,1.0,0.17187251,2.438005,9.497209,-0.0051920093,-0.013657548,-0.037034478,-0.00874423,-0.12526986,-0.992084,2016-11-30 08:11:03,48.573426499567134
0.16671753,2.500702,9.590912,-4.1885083E-4,-0.0016603993,-0.003984694,1.0,0.17847212,2.4448311,9.495332,0.028648289,-0.06131276,-0.07977181,-0.008601185,-0.12568943,-0.99202156,2016-11-30 08:11:04,54.823321251729155
0.18632507,2.510498,9.561478,-0.0010438178,4.2311306E-4,0.0012418043,1.0,0.17930056,2.4536538,9.493041,0.01585639,-0.025249476,-0.054823063,0.009579815,0.12600964,0.9919779,2016-11-30 08:11:05,48.40086377123374
0.17651367,2.471283,9.54187,-0.0011126491,-0.0021841626,-0.0077122464,1.0,0.17696168,2.4411206,9.496316,0.013517511,-0.02416211,-0.024306968,0.009154874,0.12543248,0.9920598,2016-11-30 08:11:06,45.930262112127295
0.17651367,2.500702,9.5516815,0.0013360893,-5.6320252E-5,0.0019455258,1.0,0.17489673,2.4576478,9.492089,0.010774842,-0.022820566,-0.06897712,-0.008592771,-0.12638135,-0.9919393,2016-11-30 08:11:07,30.166468958830627
0.19613647,2.4516602,9.532059,-0.0015502278,8.233637E-4,0.0036931022,1.0,0.18774185,2.4442284,9.495309,0.010677345,-0.034674775,-0.10703577,-0.009229684,-0.12553327,-0.9920416,2016-11-30 08:11:08,64.17797444450399
0.18632507,2.4614716,9.5516815,-3.6615718E-4,-0.0015993365,-0.0033528337,1.0,0.18458332,2.4547853,9.492646,0.006751293,-0.0102986,-0.08249355,0.009536661,0.12616016,0.9919641,2016-11-30 08:11:09,61.882128604816266
0.18632507,2.481079,9.5811,1.735342E-4,5.436808E-4,0.0027088167,1.0,0.18552957,2.4409285,9.496201,-0.005353935,-0.037860185,-0.065308504,-0.009001256,-0.1255065,-0.99204284,2016-11-30 08:11:10,18.020321702073943
0.20593262,2.481079,9.590912,-6.946336E-4,7.7097025E-4,-0.001006531,1.0,0.17906818,2.4643064,9.490285,0.02924436,0.026264101,-0.071198404,-0.008807018,-0.12667054,-0.99190164,2016-11-30 08:11:11,35.69437312761433
0.21574402,2.4222412,9.571289,-5.5042666E-4,-0.002853545,-0.010115607,1.0,0.19102135,2.442606,9.495661,0.013956823,-0.022676956,-0.07944344,-0.009627127,-0.12554502,-0.99204004,2016-11-30 08:11:12,15.491054850418895
0.16671753,2.500702,9.532059,0.0027846803,-3.8661476E-4,-6.753896E-4,1.0,0.19647808,2.4484086,9.494055,-0.008235628,-0.060930353,-0.06659705,-0.009051652,-0.1260006,-0.9919548,2016-11-30 08:11:13,46.8196212552874
0.15690613,2.471283,9.453613,-7.703771E-4,-8.8559656E-4,-1.2482837E-4,1.0,0.17706728,2.447249,9.494736,-0.013617581,-0.0044136858,-0.039506823,-0.008913091,-0.12575088,-0.99201953,2016-11-30 08:11:14,23.66469653046877
0.18632507,2.481079,9.54187,3.2322353E-4,-0.0017473542,-0.002122657,1.0,0.1766544,2.4524229,9.493409,-0.014030473,-0.026480453,-0.04083444,-0.009028661,-0.1260686,-0.99198025,2016-11-30 08:11:15,26.124902556386132
0.16671753,2.4418488,9.5516815,3.7363282E-4,0.0019630683,0.0038492742,1.0,0.18560435,2.4494429,9.494007,0.008539839,-0.015839972,0.027865848,-0.009007131,-0.12594731,-0.991988,2016-11-30 08:11:16,51.97003911765708
0.21574402,2.4418488,9.590912,-0.0024317147,-0.0025782152,-0.0059002824,1.0,0.1823863,2.4467113,9.494774,0.01894212,0.022289352,-0.080330454,-0.009080888,-0.12570365,-0.9920231,2016-11-30 08:11:17,53.71341081524734
0.17651367,2.510498,9.571289,0.0022218036,-7.149609E-4,-0.0056103533,1.0,0.19353114,2.436077,9.497287,0.030086977,-0.07006677,-0.064197026,-0.009558925,-0.125289,-0.9920702,2016-11-30 08:11:18,13.197998206105064
0.19613647,2.4614716,9.5811,-0.0,0.0,0.0,1.0,0.18440793,2.4549716,9.492602,0.0073434133,0.0033090694,-0.05526117,-0.009046549,-0.12620744,-0.99195707,2016-11-30 08:11:19,10.139776815295637
0.17651367,2.500702,9.54187,-4.7320806E-4,-0.0016266264,-0.0036267927,1.0,0.19224618,2.4563458,9.492092,0.001561323,0.0046832417,-0.06939194,-0.009662507,-0.12624143,-0.99195033,2016-11-30 08:11:20,51.024780776647425
0.18632507,2.4418488,9.590912,-4.292595E-5,1.5609973E-4,0.006016708,1.0,0.1801569,2.4649062,9.490109,-0.0105279675,0.040484246,-0.084994994,0.009389482,0.12667838,0.99189913,2016-11-30 08:11:21,41.74317166563904
0.20593262,2.4908905,9.571289,-5.3132357E-5,-0.003835401,-0.015274286,1.0,0.18302248,2.4557912,9.492418,0.019578313,-0.009491596,-0.08268642,-0.008936704,-0.12626144,-0.99195004,2016-11-30 08:11:22,62.18236768147358
0.20593262,2.481079,9.522263,5.878058E-4,-0.0010123303,1.5170952E-4,1.0,0.19165857,2.4555094,9.49232,-0.013950797,-0.023993768,-0.041742243,-0.009550621,-0.12625422,-0.99194837,2016-11-30 08:11:23,54.02833396396976
0.22555542,2.481079,9.561478,-0.0032289089,-0.0023625055,-0.011353462,1.0,0.19689445,2.4368243,9.497026,-0.021031098,0.012402463,-0.06445723,0.010046763,0.12514468,0.99208766,2016-11-30 08:11:24,56.907143850764044
0.20593262,2.481079,9.512451,0.002940679,-5.252183E-4,-0.0014910764,1.0,0.18440327,2.456948,9.492091,-0.0062509426,0.008724911,-0.02942291,0.00952177,0.1265453,0.9919151,2016-11-30 08:11:25,58.78956943044397
0.18632507,2.4222412,9.463425,-0.002312465,0.001271186,5.7550136E-5,1.0,0.18733788,2.467488,9.4893,0.0102733495,0.056686673,0.036778428,0.009736063,0.12672177,0.99188983,2016-11-30 08:11:26,16.25441073643468
0.17651367,2.510498,9.590912,4.0481237E-4,-4.2442366E-4,-0.0021388421,1.0,0.17390352,2.4537294,9.493121,-0.01693304,-0.051824078,-0.09575311,-0.008295744,-0.1262001,-0.9919577,2016-11-30 08:11:27,53.05041972255711
0.21574402,2.4614716,9.483032,-2.8503843E-4,-0.0033121735,-0.0068390137,1.0,0.17547973,2.4509175,9.493819,-0.0015847948,-0.014365418,0.014057621,-0.008923579,-0.1259751,-0.9919918,2016-11-30 08:11:28,21.66251217936899
0.18632507,2.4614716,9.54187,-0.0010446656,-0.0016187751,-0.007859742,1.0,0.18633385,2.450917,9.493613,-0.0043510124,-7.4548624E-4,-0.08149098,-0.0088685695,-0.12599745,-0.9919757,2016-11-30 08:11:29,62.36562270278043
0.17651367,2.481079,9.54187,-0.0010428831,-0.0018021531,-0.006177515,1.0,0.18007886,2.4383652,9.496964,0.0030143536,-0.054158423,-0.06451958,0.009522841,0.12525436,0.9920768,2016-11-30 08:11:30,63.24702085509212
0.16671753,2.4908905,9.54187,-0.0011748503,8.148322E-4,0.0065224865,1.0,0.18270433,2.4578485,9.491891,-0.02160089,-0.03467498,-0.055972777,-0.008440312,-0.12629455,-0.99192417,2016-11-30 08:11:31,12.432448063583276
0.18632507,2.4908905,9.512451,-0.0025392142,-0.0018441976,-0.00687594,1.0,0.18527874,2.4507384,9.493679,0.008214234,0.012696127,-0.06780413,0.010066907,0.12571417,0.99200636,2016-11-30 08:11:32,53.292162496748915
0.16671753,2.471283,9.54187,-0.0016864531,0.0018753095,0.0024857982,1.0,0.18405534,2.4520133,9.493374,0.00699083,3.5081705E-4,-0.040869355,-0.009216796,-0.12589243,-0.9920011,2016-11-30 08:11:33,61.59552247812593
0.18632507,2.4614716,9.600708,-2.4802814E-4,-3.372292E-4,0.004628347,1.0,0.17948829,2.4354913,9.497713,0.0024237784,-0.057032086,-0.06377056,-0.00902313,-0.12517539,-0.9920918,2016-11-30 08:11:34,54.1316698214157
0.18632507,2.4516602,9.522263,-6.713557E-4,4.3727213E-4,0.005478291,1.0,0.20211314,2.430131,9.498632,-0.029432768,-0.021531604,-0.0083705615,-0.010078634,-0.12487638,-0.9921162,2016-11-30 08:11:35,58.17094914217222
0.19613647,2.4908905,9.50264,-7.306743E-4,-0.003757829,-0.01653601,1.0,0.19883437,2.4271212,9.499471,0.0076884245,-0.05196997,-0.0074735666,-0.010163372,-0.1247333,-0.9921382,2016-11-30 08:11:36,58.58921274791905
0.16671753,2.510498,9.54187,2.6125365E-4,0.0025204618,0.0069223926,1.0,0.18475677,2.4442916,9.495352,0.021312604,-0.048232146,-0.052511994,-0.009062622,-0.1256671,-0.9920258,2016-11-30 08:11:37,55.08508545196385
0.20593262,2.510498,9.54187,-0.0024160238,3.103171E-4,0.0038686825,1.0,0.16940027,2.4442356,9.495652,0.005956109,-0.021047361,-0.079451755,-0.008719988,-0.12540582,-0.9920672,2016-11-30 08:11:38,17.6336559044739
0.18632507,2.4908905,9.590912,7.3410636E-5,-9.906772E-4,-6.375845E-4,1.0,0.16952428,2.4424047,9.496121,-0.007540229,-0.036498483,-0.09260323,-0.00828494,-0.12556611,-0.9920438,2016-11-30 08:11:39,59.35035609886082
0.17651367,2.481079,9.5811,-0.0023597225,2.7041542E-4,0.0033500069,1.0,0.17351735,2.439587,9.496774,-0.0035471777,-0.03931624,-0.07833113,-0.0082111,-0.12536243,-0.99206054,2016-11-30 08:11:40,61.14724162208465
0.22555542,2.4908905,9.512451,-0.0011857055,-0.0021201437,-0.007157255,1.0,0.19165108,2.4427235,9.495619,-0.026274493,-0.036179878,-0.011384096,-0.009439642,-0.12555066,-0.99203676,2016-11-30 08:11:41,9.355492489541286
0.15690613,2.481079,9.5516815,3.2249198E-5,0.0011085363,0.0022450294,1.0,0.17495216,2.442585,9.4959755,-0.029353054,-0.022697737,-0.038267322,-0.008824976,-0.12554707,-0.99204755,2016-11-30 08:11:42,61.10400827581696
0.21574402,2.4908905,9.54187,-0.0011390522,0.0034126672,0.005173646,1.0,0.16651662,2.4491103,9.494447,-0.010547905,-0.016172709,-0.08065716,-0.008349328,-0.12585439,-0.99201286,2016-11-30 08:11:43,18.931720414359713
0.20593262,2.4516602,9.590912,-2.2705553E-4,-0.0012167137,0.0011201524,1.0,0.17501515,2.453459,9.493171,-0.015669707,-0.025444213,-0.027451849,-0.008576216,-0.12611559,-0.99196965,2016-11-30 08:11:44,43.18889465593656
0.20593262,2.4908905,9.561478,0.0013358617,0.001033647,0.0018630705,1.0,0.1905349,2.4464483,9.494682,-0.01377031,-0.032454733,-0.053181205,-0.009537483,-0.12579982,-0.992008,2016-11-30 08:11:45,21.138946306417353
0.16671753,2.500702,9.5516815,2.3812756E-4,0.003639971,0.008946967,1.0,0.18254808,2.4548936,9.492659,0.0054835686,-0.024009772,-0.082446165,-0.009107601,-0.126195,-0.9919619,2016-11-30 08:11:46,59.93835035180986
0.18632507,2.481079,9.600708,-3.77712E-4,-0.0042538173,-0.016521916,1.0,0.16781773,2.4440956,9.495716,-0.036487494,-0.034807578,-0.06576822,-0.007936203,-0.12565789,-0.9920265,2016-11-30 08:11:47,39.84708419130279
0.16671753,2.4320526,9.590912,8.5211446E-4,0.003498734,0.012135405,1.0,0.17823449,2.454692,9.492792,-0.02607073,0.030270025,-0.08231232,-0.008254725,-0.1262436,-0.99193984,2016-11-30 08:11:48,55.53322707509441
0.18632507,2.500702,9.54187,0.0022169538,0.0018066878,0.0020883244,1.0,0.18533851,2.4472733,9.494572,0.008273985,-0.031630065,-0.05329177,-0.009204752,-0.12585276,-0.99200356,2016-11-30 08:11:49,55.33453638006093
0.20593262,2.481079,9.571289,-0.0014178199,-0.0010969684,-0.0050348807,1.0,0.17901836,2.4432404,9.495731,-0.011666498,-0.0356628,-0.07937278,-0.009091031,-0.12555261,-0.992045,2016-11-30 08:11:50,63.151784439170704
0.21574402,2.471283,9.571289,-8.2980254E-4,3.1770447E-5,0.0030106197,1.0,0.1904194,2.4562733,9.4921465,-2.654509E-4,0.0046109166,-0.05571673,0.010044542,0.12613352,0.9919611,2016-11-30 08:11:51,53.427785577448994
0.20593262,2.481079,9.610519,-3.5835148E-4,0.0016873629,0.004233741,1.0,0.19492711,2.4558265,9.492172,-0.022998441,0.03140457,-0.08293249,-0.009940311,-0.1262092,-0.99195385,2016-11-30 08:11:52,28.633488872632576
0.21574402,2.471283,9.571289,5.798102E-4,-2.9967783E-4,-0.00281675,1.0,0.18901579,2.4623358,9.490604,-0.01528943,-0.016567377,-0.05725883,0.010007675,0.12654655,0.9919073,2016-11-30 08:11:53,58.51790409338377
0.17651367,2.4222412,9.571289,8.2877773E-4,0.0011597676,0.002778755,1.0,0.1833633,2.4552433,9.492552,0.01991913,0.0035807034,-0.055311877,0.009896286,0.12619916,0.99194694,2016-11-30 08:11:54,16.328367544036258
0.18632507,2.471283,9.532059,0.0015635609,-6.885603E-4,-7.513475E-4,1.0,0.18366775,2.4484873,9.49429,0.0066032405,-0.044036474,-0.039952412,0.010039232,0.12594116,0.9919772,2016-11-30 08:11:56,41.76691738407115
0.16671753,2.4418488,9.54187,-9.583184E-4,-0.0015395518,-0.0032444599,1.0,0.18754794,2.439778,9.496457,-0.0031369212,-0.011884344,-0.010545295,-0.009563884,-0.12535138,-0.9920657,2016-11-30 08:11:57,49.07574750355081
0.19613647,2.510498,9.571289,0.0012208646,-5.0676515E-4,-5.8540126E-4,1.0,0.18271965,2.456872,9.492144,-0.0079652015,-0.049271923,-0.0693404,0.009462838,0.12630923,0.9919457,2016-11-30 08:11:58,55.31887007300618
0.17651367,2.4320526,9.5811,-0.0013218786,0.0020841549,0.0019137259,1.0,0.17792329,2.4607818,9.491221,0.028099474,0.009119373,-0.056641992,-0.008372428,-0.12638453,-0.9919343,2016-11-30 08:11:59,51.52232040468764
0.21574402,2.4418488,9.5811,-0.0012516817,-0.0017796779,-0.0022404124,1.0,0.18346235,2.4361374,9.497473,-0.0072225085,-0.001904762,-0.06401164,0.009697286,0.1251506,0.9920886,2016-11-30 08:12:00,10.663259253620378
0.17651367,2.481079,9.512451,0.0014178024,8.435204E-4,-2.5494563E-4,1.0,0.17563179,2.4510837,9.493773,0.012187619,-0.027819501,-0.026849143,-0.008938501,-0.12601857,-0.9919875,2016-11-30 08:12:01,54.88234792213996
0.18632507,2.500702,9.571289,-6.673573E-4,-0.0015102759,-0.002373556,1.0,0.16796361,2.455095,9.492875,-0.022721248,-0.023808174,-0.09584954,-0.007951047,-0.12621929,-0.9919548,2016-11-30 08:12:02,65.45410679020358
0.19613647,2.4320526,9.600708,-8.4811746E-4,-0.0011930594,-0.003996347,1.0,0.19087346,2.4577146,9.491765,1.8859273E-4,0.033292912,-0.096959345,0.010284126,0.12625678,0.9919374,2016-11-30 08:12:03,55.20878647723183
0.20593262,2.510498,9.5516815,7.140321E-4,-0.0017811414,-0.009469531,1.0,0.18219231,2.4379892,9.497022,-0.022112893,-0.04091404,-0.05084187,0.009830009,0.1252844,0.99206483,2016-11-30 08:12:04,61.08091785813628
0.18632507,2.4418488,9.571289,1.1136902E-6,0.0022892233,0.00793936,1.0,0.18472415,2.443439,9.495571,-0.0059607076,-0.03546411,-0.038671345,-0.008868481,-0.12561147,-0.99202824,2016-11-30 08:12:05,9.569484028152498
0.17651367,2.471283,9.50264,0.00162643,-2.6586268E-4,-0.0012099901,1.0,0.17928842,2.4461977,9.494966,-0.011396449,-0.01908503,-0.012036682,-0.008831057,-0.12580004,-0.99201155,2016-11-30 08:12:06,52.196875814353575
0.18632507,2.4614716,9.561478,-0.0013265063,8.562798E-4,0.0069041764,1.0,0.18416542,2.4377797,9.497036,0.007100902,-0.013883045,-0.050826903,-0.009461634,-0.12525208,-0.9920798,2016-11-30 08:12:07,59.14187762807481
0.21574402,2.4614716,9.50264,9.699343E-4,6.1079825E-4,0.0018875535,1.0,0.18707997,2.438555,9.49678,0.023635793,-0.026727978,-0.051082954,-0.009181374,-0.12544563,-0.992053,2016-11-30 08:12:08,47.343668856659676
0.17651367,2.481079,9.571289,6.170606E-4,0.0011377676,0.0041394294,1.0,0.18540157,2.448416,9.494276,-0.0052832854,-0.0032465127,-0.026347024,-0.008709108,-0.1259446,-0.9919784,2016-11-30 08:12:09,57.0924778976143
0.18632507,2.471283,9.54187,-4.8274174E-4,0.0024997,0.008860734,1.0,0.17937496,2.451171,9.493682,0.002310459,-0.014111866,-0.040561765,-0.00863306,-0.12600437,-0.99198145,2016-11-30 08:12:10,53.78049992906547
0.20593262,2.4516602,9.522263,0.001430964,2.3439253E-4,0.0030073503,1.0,0.17869242,2.449839,9.494039,-0.039233137,0.025417196,-0.05382548,-0.008601473,-0.12599641,-0.99198174,2016-11-30 08:12:11,56.37855177781779
0.20593262,2.471283,9.561478,0.0015212118,-0.0032313715,-0.014376967,1.0,0.17930469,2.4464037,9.494912,0.016386513,-0.04805196,-0.025223913,0.009268146,0.12578629,0.99201393,2016-11-30 08:12:12,51.96744281342434
0.14709473,2.4418488,9.600708,-0.002166064,0.0019485969,0.003898461,1.0,0.17324653,2.4544592,9.492946,0.023422716,0.01641691,-0.095778875,-0.008314314,-0.12613033,-0.99196887,2016-11-30 08:12:13,52.61988649269949
0.16671753,2.4222412,9.571289,-2.502294E-4,-0.0010202959,0.0015426415,1.0,0.17232345,2.4318392,9.498781,0.022499625,-0.033443797,-0.049081966,-0.00833135,-0.12501626,-0.99211174,2016-11-30 08:12:14,46.81432518552263
0.17651367,2.500702,9.532059,0.0015934118,-0.004979625,-0.009689465,1.0,0.17415799,2.4374166,9.497318,-0.016526876,-0.04148661,-0.023304394,-0.00904632,-0.1254281,-0.99206114,2016-11-30 08:12:15,57.35830995279401
0.15690613,2.471283,9.532059,-0.001711358,0.0033516262,0.010397211,1.0,0.17927922,2.4448934,9.495301,0.043075744,-0.0067692315,-0.025321176,-0.009093084,-0.12561601,-0.99203694,2016-11-30 08:12:16,48.66843932932344
0.16671753,2.4908905,9.54187,4.5668797E-4,7.8097836E-4,0.0050650835,1.0,0.17738545,2.453592,9.493093,0.041856404,-0.011267296,-0.041271716,-0.007931457,-0.1262261,-0.9919226,2016-11-30 08:12:17,19.912537721614882
0.17651367,2.481079,9.5811,-9.314718E-5,-0.0028681026,-0.0060292934,1.0,0.18941268,2.4434793,9.495468,0.025968527,-0.035423793,-0.06601595,-0.008777264,-0.12567535,-0.99200237,2016-11-30 08:12:18,55.50631735847681
0.19613647,2.471283,9.571289,-6.7490316E-4,-0.004916528,-0.012142944,1.0,0.17333423,2.442778,9.495956,-0.017350636,0.01835617,-0.02466693,-0.008635651,-0.12551823,-0.99204767,2016-11-30 08:12:19,59.038990473561256
0.17651367,2.481079,9.561478,1.8941247E-4,0.0023890494,0.004703559,1.0,0.18314543,2.4317002,9.498615,0.0073553375,-0.033653703,-0.103736274,0.009508369,0.124964416,0.99211514,2016-11-30 08:12:20,42.855754511120516
0.20593262,2.471283,9.610519,-1.9286372E-4,0.003378638,0.0061653396,1.0,0.17982067,2.4450517,9.49525,0.0027561507,-0.03385156,-0.05261341,-0.008514465,-0.12570332,-0.992017,2016-11-30 08:12:21,57.99729201186692
0.20593262,2.481079,9.522263,9.2741626E-4,-0.0015450473,-0.0025507135,1.0,0.16640876,2.4574513,9.492293,-0.052178945,-0.022576572,-0.028027125,0.0086782435,0.12633462,0.9919495,2016-11-30 08:12:22,53.410348813413336
0.21574402,2.4908905,9.5516815,-0.0011940915,-8.389318E-4,-0.0057187383,1.0,0.16806187,2.4554875,9.492773,-0.07710439,-0.0097952355,-0.08233144,0.008900459,0.1260828,0.9919792,2016-11-30 08:12:23,24.20313384988272
0.14709473,2.4908905,9.590912,-4.0108894E-4,0.0019476194,0.0048183133,1.0,0.200518,2.4460425,9.49458,0.009833126,-0.005619931,-0.080524154,-0.009720025,-0.1257441,-0.9920047,2016-11-30 08:12:24,24.048301544786735
0.21574402,2.481079,9.571289,-9.246081E-4,-0.0026358797,-0.0074093086,1.0,0.1700948,2.4519668,9.493647,0.006650638,3.042631E-4,-0.040596683,0.008790371,0.12600234,0.99199104,2016-11-30 08:12:25,54.335577269925764
0.19613647,2.471283,9.5811,-3.544355E-4,0.002631141,0.00606975,1.0,0.18296733,2.428591,9.4994135,-0.007717533,-0.036691763,-0.07569086,0.009514973,0.124785885,0.9921374,2016-11-30 08:12:26,56.36109692417683
0.17651367,2.4418488,9.590912,7.7362463E-4,0.0020282213,0.0066373884,1.0,0.17108038,2.4346015,9.498096,-0.0059841275,-0.017060973,-0.077007666,0.008865232,0.12512776,0.99210083,2016-11-30 08:12:27,51.055749976752764
0.20593262,2.481079,9.5516815,-2.2001233E-4,-0.0021758673,-0.0063090622,1.0,0.18613254,2.441795,9.495967,-0.0045523215,-0.023487909,-0.051896814,-0.0093980385,-0.1255098,-0.9920467,2016-11-30 08:12:28,57.04941070048363
0.18632507,2.4614716,9.5516815,0.0015297402,-0.0033752194,-0.0151692005,1.0,0.18374598,2.4612982,9.490977,-0.034179583,-0.0039847246,-0.04326605,-0.009246791,-0.12657872,-0.9919124,2016-11-30 08:12:29,58.70353118778968
0.17651367,2.5301208,9.5516815,-0.0021265459,-6.1542325E-4,-0.0020385762,1.0,0.17694442,2.4500778,9.494009,-0.013399788,-0.07154091,-0.06700273,0.0090502,0.12579887,0.9920145,2016-11-30 08:12:30,10.4393506404355
0.18632507,2.4614716,9.561478,-4.975818E-4,-9.895725E-4,-0.0067416793,1.0,0.17739852,2.4476204,9.494635,-5.044684E-4,-0.004458785,-0.053106386,-0.00892483,-0.12577413,-0.9920183,2016-11-30 08:12:31,9.828363528094874
0.18632507,2.471283,9.571289,0.001555,0.0013467069,0.00486161,1.0,0.18556269,2.4616683,9.490845,0.022118516,-0.0036145796,-0.057018578,-0.009287887,-0.1265878,-0.9919101,2016-11-30 08:12:32,36.37864405344558
0.13729858,2.4614716,9.5811,-1.6520955E-4,0.0011328025,0.0018884304,1.0,0.18606676,2.4663126,9.48963,0.063483626,0.028270494,-0.07185348,-0.009258588,-0.1267617,-0.9918878,2016-11-30 08:12:33,53.42457599820305
0.19613647,2.481079,9.5516815,-4.829885E-4,-9.59376E-4,-0.0024110249,1.0,0.16674198,2.4493563,9.494379,-0.010322527,-0.05678747,-0.053484637,0.008554053,0.12588243,0.9920083,2016-11-30 08:12:34,10.785021302221377
0.17651367,2.4418488,9.54187,-7.0606446E-4,-3.7618543E-4,-2.3796939E-4,1.0,0.18242247,2.4581027,9.491831,0.018978296,0.020060377,-0.042412285,0.009502561,0.12631401,0.9919444,2016-11-30 08:12:35,17.181382407770418
0.18632507,2.510498,9.590912,6.427194E-4,0.00276555,0.008691344,1.0,0.18476522,2.4444807,9.495302,0.007700712,-0.061663162,-0.07980173,-0.0093944,-0.12565862,-0.99202895,2016-11-30 08:12:36,43.0505869540201
0.19613647,2.5203094,9.522263,-0.0032565482,-0.0029537997,-0.0098496,1.0,0.18210225,2.4388778,9.496795,-0.022202974,-0.040025357,-0.023828125,-0.009155683,-0.1252795,-0.9920778,2016-11-30 08:12:37,27.20817140219353
0.20593262,2.4222412,9.561478,-0.0019169796,6.3367153E-4,3.2199905E-4,1.0,0.19177496,2.4464755,9.494649,-0.039770935,-0.0051872293,-0.0123534165,0.0098947,0.12568079,0.9920214,2016-11-30 08:12:38,53.43559356121265
0.21574402,2.481079,9.5516815,0.0018193285,0.004578797,0.012299873,1.0,0.18163228,2.4648492,9.490097,-0.036293276,-0.027674437,-0.09862781,-0.008394901,-0.12680246,-0.991867,2016-11-30 08:12:39,63.00683621727466
0.18632507,2.481079,9.561478,-0.0017147198,-0.0018379595,-0.010751728,1.0,0.1784277,2.455302,9.492632,-0.039497875,0.0036393113,-0.055231243,-0.008794533,-0.12618384,-0.9919641,2016-11-30 08:12:40,48.87376505812675
0.17651367,2.481079,9.5516815,0.0014635518,0.0010155466,0.0026975484,1.0,0.18168665,2.4525568,9.493278,0.0046221395,-0.012726055,-0.054585304,-0.009354477,-0.12609918,-0.9919736,2016-11-30 08:12:41,23.9631924116988
0.24516296,2.4614716,9.5811,-5.8206735E-4,-2.9637996E-4,5.196426E-4,1.0,0.18615189,2.4481657,9.494326,0.009087367,-0.030737644,-0.053537842,-0.009182816,-0.12584756,-0.99200225,2016-11-30 08:12:42,11.972231079658817
0.19613647,2.4614716,9.54187,-2.0858037E-4,0.0020498722,0.004329516,1.0,0.21274522,2.4404025,9.495766,0.022060351,-0.011260022,-0.052097995,-0.010614851,-0.12544124,-0.9920418,2016-11-30 08:12:43,48.825640002302066
0.19613647,2.4516602,9.532059,4.529219E-5,0.0034750188,0.013028989,1.0,0.1867119,2.4334993,9.498085,0.023267739,-0.03178365,-0.022537917,-0.00911312,-0.12507555,-0.99209833,2016-11-30 08:12:44,14.650728846363855
0.21574402,2.471283,9.512451,0.0012715893,0.0033035276,0.0069840536,1.0,0.17594141,2.4342422,9.498099,-0.028363794,-0.003799964,-0.022522952,-0.008745557,-0.12521197,-0.9920902,2016-11-30 08:12:45,48.344310363336234
0.18632507,2.481079,9.571289,-5.9495396E-5,-6.646662E-4,0.0022645213,1.0,0.17797662,2.4689646,9.489096,-0.026328582,-0.009938639,-0.058767673,-0.008836797,-0.12691954,-0.99186707,2016-11-30 08:12:46,12.941905711336757
0.19613647,2.4614716,9.532059,-9.357733E-4,-1.1112603E-4,7.1924186E-4,1.0,0.16899633,2.4568858,9.492394,-0.03530888,0.005223184,-0.055469,-0.008156932,-0.1262939,-0.9919499,2016-11-30 08:12:47,56.79711339110313
0.18632507,2.4516602,9.5811,9.3368045E-4,0.0022290745,0.007812818,1.0,0.17578274,2.4610558,9.49119,-0.028522473,0.02301364,-0.08391427,-0.008736343,-0.12654105,-0.9919201,2016-11-30 08:12:48,30.66947565155781
0.16671753,2.4614716,9.571289,-0.0013295668,0.002193124,0.0085348245,1.0,0.1826351,2.4555104,9.4924965,0.019190919,0.0038479725,-0.055366743,0.009748453,0.12613468,0.9919612,2016-11-30 08:12:49,55.562958254489494
0.20593262,2.481079,9.522263,1.3343644E-4,-0.0040009595,-0.008135232,1.0,0.17686985,2.4394152,9.496756,-0.027435366,-0.012247422,-0.0238672,-0.008731148,-0.12541,-0.99206114,2016-11-30 08:12:50,65.48807065975467
0.17651367,2.4614716,9.5516815,-5.7039293E-4,9.156554E-4,0.0027957198,1.0,0.1926909,2.4479291,9.494257,0.029246721,0.009887097,-0.026366146,0.010474354,0.12571375,0.9920004,2016-11-30 08:12:51,17.9084204584777
0.20593262,2.4614716,9.610519,4.955036E-4,-7.0965406E-4,-8.100597E-4,1.0,0.1818371,2.44087,9.496287,0.018392943,-0.010792404,-0.051575925,-0.00900146,-0.12548788,-0.9920503,2016-11-30 08:12:52,64.4897787639776
0.22555542,2.481079,9.54187,8.7264396E-4,-4.3850203E-4,-0.013345107,1.0,0.16570087,2.4352288,9.498032,-0.024984,-0.07091513,-0.03621147,-0.007856332,-0.12523161,-0.99208575,2016-11-30 08:12:53,28.687191161287863
0.24516296,2.4614716,9.600708,-0.0010403211,-5.569383E-4,2.9931174E-5,1.0,0.17827271,2.4491575,9.494221,-0.039652847,-0.01612553,-0.04002224,0.009368974,0.12583311,0.992006,2016-11-30 08:12:54,52.097585220209865
0.18632507,2.4614716,9.522263,2.8980314E-4,7.262879E-4,-2.9187687E-4,1.0,0.18683384,2.440136,9.496379,0.009769322,-0.03876736,-0.037864134,-0.009458817,-0.1254384,-0.9920561,2016-11-30 08:12:55,46.911064419633284
0.14709473,2.4418488,9.5811,-2.1373059E-4,-2.968551E-4,-0.0021778203,1.0,0.18908037,2.4558177,9.492292,0.05287689,0.017775493,-0.05557125,0.0099473,0.1261984,0.9919532,2016-11-30 08:12:56,49.72796991946705
0.20593262,2.4222412,9.54187,1.8387518E-4,0.0017807825,0.0086499965,1.0,0.1788728,2.4379604,9.49709,0.001808277,-8.167719E-5,-0.064393215,-0.009080943,-0.12530342,-0.9920764,2016-11-30 08:12:57,16.092163266924512
0.21574402,2.471283,9.5516815,0.0020239735,8.3958165E-4,-8.786416E-4,1.0,0.1817748,2.4413373,9.496169,-0.008910062,-0.051186245,-0.051694807,-0.009001952,-0.12566276,-0.9920302,2016-11-30 08:12:58,64.53839274853017
0.17651367,2.500702,9.571289,-4.268875E-4,-0.004062496,-0.014434,1.0,0.1943389,2.4508207,9.493477,0.016803354,-7.4548624E-4,-0.040781237,-0.009993911,-0.12596588,-0.99198425,2016-11-30 08:12:59,12.480243808774782
0.17651367,2.4222412,9.5811,3.2129887E-4,-2.5195474E-4,-0.0011075335,1.0,0.18384041,2.462486,9.490666,0.020396242,0.010823371,-0.111678705,-0.009295327,-0.12659565,-0.9919102,2016-11-30 08:13:00,17.299405868066657
0.20593262,2.4614716,9.610519,0.0016894435,4.2224335E-4,0.0019834852,1.0,0.16426876,2.4685385,9.489454,-0.013226003,0.015542359,-0.085296765,-0.008164015,-0.12692845,-0.99187565,2016-11-30 08:13:01,61.59513385556102
0.17651367,2.4614716,9.5811,0.0013331827,0.0019844556,0.00526544,1.0,0.18515256,2.4516382,9.493449,0.0489491,-0.02726501,-0.054414056,-0.009175017,-0.12613387,-0.9919681,2016-11-30 08:13:02,59.9119721039932
0.18632507,2.481079,9.561478,6.3384265E-5,-0.0016356962,-0.006142271,1.0,0.17305231,2.4690008,9.489177,-0.0040122103,-0.009902269,-0.045066692,0.009538736,0.1268685,0.9918609,2016-11-30 08:13:03,66.72686159518011
0.22555542,2.4908905,9.561478,-0.0013088442,-2.1885503E-4,-0.0024294897,1.0,0.1732827,2.4453814,9.495287,-0.044642862,-0.033521734,-0.052576005,-0.008394272,-0.12568498,-0.9920265,2016-11-30 08:13:04,37.736502496426276
0.20593262,2.481079,9.50264,8.8153075E-4,0.0018187496,0.0034552163,1.0,0.17874895,2.4454222,9.495174,-0.011935911,-0.0062403036,-0.052689064,0.009244761,0.12571183,0.99202377,2016-11-30 08:13:05,54.853612485798784
0.14709473,2.471283,9.5516815,-3.7432753E-4,0.0011437394,-0.0011569042,1.0,0.1784156,2.4509199,9.493764,0.001351077,-0.02798348,-0.040478636,-0.008191876,-0.12601027,-0.99197096,2016-11-30 08:13:06,45.12184562223459
0.19613647,2.4908905,9.532059,4.6160305E-4,-0.0028068977,-0.00953079,1.0,0.17358723,2.4623923,9.490884,-0.01709763,-0.0028904998,-0.016118465,-0.008054527,-0.12664217,-0.99189186,2016-11-30 08:13:07,59.719775176491645
0.20593262,2.4418488,9.5516815,-9.3240786E-4,0.0015638289,0.0032769432,1.0,0.17551304,2.4582956,9.491911,-0.04241252,0.0066331024,-0.08319352,-0.008584673,-0.12634541,-0.9919437,2016-11-30 08:13:08,56.180537063129215
0.18632507,2.481079,9.5516815,5.612308E-4,-0.0013417061,-0.0027637393,1.0,0.18075195,2.4455621,9.495102,0.003687424,-0.03334113,-0.066382565,-0.008975853,-0.1257382,-0.9920193,2016-11-30 08:13:09,18.39923007858646
0.16671753,2.4320526,9.54187,-2.1567951E-4,-0.0030336732,-0.008978932,1.0,0.18304361,2.4403827,9.496388,0.019599436,-0.024900112,-0.02423381,0.010211478,0.12535867,0.99203944,2016-11-30 08:13:10,13.433675587509706
0.17651367,2.4418488,9.5516815,5.677805E-4,-3.200123E-4,-0.0051038,1.0,0.17670716,2.4476304,9.494644,0.015082679,0.008923804,-0.09394249,-0.0089214295,-0.12581882,-0.99201274,2016-11-30 08:13:11,13.637686235302368
0.19613647,2.4516602,9.5811,2.7434828E-5,-0.002445826,-0.006953969,1.0,0.17628296,2.4414117,9.496254,0.01283879,0.003369548,-0.0788507,0.009217249,0.12545842,0.9920554,2016-11-30 08:13:12,54.473103179182516
0.18632507,2.481079,9.532059,0.0016550111,0.0017053505,-0.0011486686,1.0,0.16986097,2.4332252,9.49847,-0.007203544,-0.018437432,-0.022152185,0.008827117,0.12508412,0.9921062,2016-11-30 08:13:13,61.79651528135285
0.19613647,2.4516602,9.561478,-7.786822E-4,-0.0040355218,-0.009057368,1.0,0.1723122,2.4605136,9.491395,0.008868028,-0.018389838,-0.07008942,-0.008247314,-0.12648991,-0.9919204,2016-11-30 08:13:14,57.01777118790044
0.18632507,2.510498,9.620331,7.166143E-4,-0.0041466635,-0.018730588,1.0,0.17951468,2.4389627,9.496822,-0.011170187,-0.0126998685,-0.064661734,-0.008783966,-0.12540913,-0.9920606,2016-11-30 08:13:15,60.50449749829036
0.18632507,2.4516602,9.5516815,-0.0010561802,0.0022655407,0.009912261,1.0,0.18191338,2.4286487,9.499419,-0.008771492,-0.050254542,-0.08930539,-0.00918588,-0.12475642,-0.9921438,2016-11-30 08:13:16,31.347825293818556
0.14709473,2.4614716,9.5811,8.927884E-4,7.361509E-4,2.3314121E-4,1.0,0.18339819,2.4529803,9.493137,0.046544738,0.0023659368,-0.08222587,-0.0088491775,-0.12619561,-0.9919575,2016-11-30 08:13:17,63.16506414927241
0.17651367,2.4418488,9.5811,-3.6493313E-4,-4.48407E-4,0.0031805409,1.0,0.16700299,2.452313,9.493611,-0.008742616,0.0136511065,-0.06773513,-0.007982891,-0.1260307,-0.9919789,2016-11-30 08:13:18,29.85126024331976
0.17651367,2.4516602,9.512451,2.8388435E-4,-0.0019481684,-0.0053076353,1.0,0.18594924,2.4402235,9.496375,-0.004735627,0.015801523,-0.010627596,0.009734304,0.12539032,0.99205893,2016-11-30 08:13:19,56.389553283983915
0.18632507,2.471283,9.590912,0.0018112143,-2.36852E-4,-9.183889E-4,1.0,0.19228221,2.4377146,9.496893,0.01521769,-0.027568443,-0.03735038,-0.0093401745,-0.12538181,-0.9920553,2016-11-30 08:13:20,58.1722948501175
0.18632507,2.471283,9.5516815,4.1301953E-4,2.5125986E-4,0.0030854004,1.0,0.16996445,2.4486496,9.494506,-0.007100071,-0.01663326,-0.03973793,-0.008096344,-0.12591216,-0.99199486,2016-11-30 08:13:21,15.408506490786726
0.15690613,2.481079,9.571289,-4.870021E-4,-0.0010563725,-0.010948436,1.0,0.18093677,2.430379,9.498995,0.031112958,-0.03490401,-0.06248866,-0.008783548,-0.1249308,-0.99211985,2016-11-30 08:13:22,46.63421550912063
0.20593262,2.4614716,9.64975,6.2492814E-5,0.0035769413,0.017280532,1.0,0.17693365,2.436131,9.497598,-0.04099191,-0.04277225,-0.06388695,0.0092134625,0.1251854,0.9920902,2016-11-30 08:13:23,59.56184584104094
0.21574402,2.4614716,9.571289,-2.3335259E-4,-2.2126378E-4,-0.0018384642,1.0,0.18043607,2.4433227,9.495684,0.01699191,-0.02196015,-0.09304134,-0.008835306,-0.1255968,-0.9920363,2016-11-30 08:13:24,46.348340603888346
0.19613647,2.4516602,9.532059,0.0017439518,4.0872392E-4,9.857027E-4,1.0,0.17766976,2.447998,9.494532,-0.013219053,0.011895359,-0.026588108,-0.008715446,-0.12598942,-0.9919882,2016-11-30 08:13:25,8.88834467946017
0.17651367,2.471283,9.50264,8.356113E-5,-0.002791472,-0.0068221125,1.0,0.18232244,2.4555051,9.492504,0.019986168,-0.023254307,-0.0145564135,-0.009358451,-0.12623578,-0.9919559,2016-11-30 08:13:26,58.26003361054539
0.19613647,2.481079,9.532059,-6.3822366E-4,-9.989028E-4,-0.0032308346,1.0,0.1827802,2.4543543,9.492794,0.03295637,-0.02454888,-0.055069964,0.010109984,0.12597834,0.99196637,2016-11-30 08:13:27,49.945322848857344
0.17651367,2.4908905,9.532059,0.0013066472,8.591268E-4,0.009123893,1.0,0.18531908,2.445721,9.494971,0.008254566,-0.019561999,-0.02565121,-0.009554568,-0.12572896,-0.99201864,2016-11-30 08:13:28,63.64073875914647
0.18632507,2.471283,9.532059,-5.6323584E-5,-4.645291E-5,-0.0014438442,1.0,0.18642868,2.4441652,9.495351,0.022984518,-0.0074972594,-0.07975352,-0.009065768,-0.12566046,-0.9920239,2016-11-30 08:13:29,60.12288048517624
0.20593262,2.471283,9.5811,-6.4043695E-4,-0.0011697076,-0.0034864119,1.0,0.17748126,2.461597,9.491017,4.1673813E-4,-0.003686073,-0.11132705,-0.008826726,-0.1265212,-0.9919217,2016-11-30 08:13:30,54.18783381985635
0.14709473,2.510498,9.5811,-8.073169E-4,-7.398978E-4,-0.0024015647,1.0,0.1756616,2.4392035,9.496832,0.053078473,-0.03969969,-0.05103141,-0.00875052,-0.1253599,-0.9920704,2016-11-30 08:13:31,53.746337101230225
0.18632507,2.4614716,9.532059,-8.932827E-5,-0.004433703,-0.0147142,1.0,0.17366591,2.4404132,9.496559,-0.0033986052,-0.024869561,-0.02406422,-0.0088912025,-0.12543668,-0.9920618,2016-11-30 08:13:32,47.10731599037196
0.18632507,2.471283,9.512451,-1.9388927E-4,-1.9511105E-4,-0.0016537827,1.0,0.18631989,2.452605,9.493177,0.022875706,-0.026298186,-0.06830624,0.009693049,0.12604609,0.99197656,2016-11-30 08:13:33,59.733431600394155
0.17651367,2.510498,9.571289,3.4530787E-4,3.8155817E-5,-0.003524118,1.0,0.17478864,2.4501638,9.494027,0.011344479,-0.042359706,-0.05383712,-0.008703632,-0.12598093,-0.9919925,2016-11-30 08:13:34,50.157120488128925
0.19613647,2.500702,9.532059,-0.0011333146,-0.0019042217,-0.0011660139,1.0,0.1823913,2.4528425,9.493192,-0.008293561,-0.026060637,-0.027431067,-0.009371753,-0.12604594,-0.99198,2016-11-30 08:13:35,34.690149387009065
0.20593262,2.4516602,9.522263,0.0013898768,0.002433749,0.010777438,1.0,0.18554084,2.4498742,9.4938965,-0.0051440266,0.01183197,-0.026726108,-0.00949386,-0.12595509,-0.99199045,2016-11-30 08:13:36,13.773745596349745
0.19613647,2.4320526,9.571289,9.530767E-4,0.0020226403,0.005860873,1.0,0.18164945,2.4504406,9.493826,0.004584925,-0.028462527,-0.06765781,-0.007902381,-0.12606719,-0.9919272,2016-11-30 08:13:37,60.88862398402135
0.16671753,2.4516602,9.532059,-0.0011031374,-1.1014061E-4,-9.278863E-4,1.0,0.1764848,2.4323862,9.498565,-5.797158E-4,-0.005655886,-0.04929894,0.009146471,0.12493133,0.99212307,2016-11-30 08:13:38,55.06796352812188
0.17651367,2.4320526,9.610519,8.588108E-4,-0.0013904172,-0.0057927696,1.0,0.1837158,2.438266,9.496922,-0.00696906,0.01384418,-0.1190442,-0.008780743,-0.12537353,-0.99205756,2016-11-30 08:13:39,58.00218475906915
0.23536682,2.4908905,9.54187,-2.7833125E-4,-0.0024485814,-0.008482596,1.0,0.17412399,2.438751,9.496978,-0.04380158,-0.053772483,-0.037265584,-0.008768452,-0.12534732,-0.99207276,2016-11-30 08:13:40,59.89050971376499
0.19613647,2.481079,9.54187,-0.0012254708,-0.0011340661,-0.006572102,1.0,0.18513033,2.4502947,9.493796,-0.0055545424,-0.028608631,-0.094928436,0.009563605,0.12590253,0.99199635,2016-11-30 08:13:41,65.459313258319
0.19613647,2.481079,9.571289,-6.5237377E-4,0.0016726295,0.0015330025,1.0,0.17864324,2.4420621,9.496041,-0.012041619,-0.036840986,-0.07906269,-0.008472794,-0.12557623,-0.9920331,2016-11-30 08:13:42,17.265574234651996
0.20593262,2.4418488,9.561478,-4.59906E-4,-0.003510549,-0.00898993,1.0,0.17497197,2.453693,9.493112,-0.029333245,-0.025210405,-0.0547524,-0.008862595,-0.1261088,-0.9919752,2016-11-30 08:13:43,30.434048538244973
0.15690613,2.4516602,9.50264,-6.628795E-4,0.0019626536,0.0050220042,1.0,0.16898245,2.4358206,9.497822,-0.021702416,-0.043082535,-0.036421794,-0.008620978,-0.12514481,-0.9921009,2016-11-30 08:13:44,58.03597783336183
0.20593262,2.481079,9.5516815,6.458253E-4,-3.0197747E-4,0.0012576706,1.0,0.18105572,2.4439507,9.49551,-0.008892851,-0.020736655,-0.05252114,-0.009422024,-0.12566851,-0.9920276,2016-11-30 08:13:45,63.406591076190324
0.19613647,2.510498,9.561478,-8.1689144E-4,-4.7872477E-4,-0.0034122742,1.0,0.18453668,2.4454694,9.495052,-0.0061481833,-0.047054168,-0.05281127,-0.009399621,-0.12567551,-0.9920267,2016-11-30 08:13:46,55.39219783400192
0.14709473,2.471283,9.532059,-4.8335857E-4,4.7847696E-4,-0.0040320666,1.0,0.17371474,2.4434001,9.49579,-0.003349778,-0.035503183,-0.011212844,0.009165844,0.12555224,0.99204224,2016-11-30 08:13:47,48.489070342414905
0.16671753,2.481079,9.571289,1.5760613E-4,-5.038404E-4,0.0025861221,1.0,0.17855231,2.4475276,9.494636,-0.012132544,-0.0041347784,-0.0940888,-0.00909236,-0.12580553,-0.99201286,2016-11-30 08:13:48,58.595734636746315
0.21574402,2.4516602,9.522263,-5.654079E-4,-0.0031212245,-0.009860329,1.0,0.1828104,2.446627,9.494787,-0.007874471,-0.018656068,-0.012214585,-0.009379965,-0.12572104,-0.992021,2016-11-30 08:13:49,39.56609486943445
0.23536682,2.4614716,9.5811,6.0349394E-4,0.002601195,0.010146138,1.0,0.1833353,2.4519246,9.49341,-0.02115399,1.5400203E-4,-0.08166223,-0.009316635,-0.12603173,-0.99198216,2016-11-30 08:13:50,19.331813686489102
0.23536682,2.471283,9.5516815,2.9737444E-4,0.0016192577,0.007266373,1.0,0.19389364,2.4487529,9.4940195,-0.010411569,0.010710727,-0.026603904,-0.009819795,-0.12586942,-0.99199754,2016-11-30 08:13:51,52.989689637411395
0.23536682,2.4614716,9.522263,0.0011929318,0.0035659515,0.012650289,1.0,0.2072648,2.4576998,9.491425,-0.011029279,0.007078067,-0.029458659,-0.010407808,-0.12642013,-0.99192065,2016-11-30 08:13:52,59.6812310756762
0.17651367,2.481079,9.620331,9.277128E-4,0.0020962926,0.0013082923,1.0,0.19778529,2.4507291,9.493429,-0.006519913,-0.028174268,-0.108915396,-0.009774479,-0.12606171,-0.9919723,2016-11-30 08:13:53,44.57489164416295
0.20593262,2.471283,9.512451,-6.8728963E-4,1.955726E-4,0.0019155728,1.0,0.18302028,2.4489496,9.4941845,0.0059557585,-0.01633336,-0.026438473,-0.0092959935,-0.12586139,-0.99200386,2016-11-30 08:13:54,60.543663792598316
0.23536682,2.481079,9.561478,9.379563E-4,0.0021889487,0.010217793,1.0,0.18919909,2.4479246,9.494328,-0.028726472,-0.030978518,-0.08077687,-0.009552139,-0.12584867,-0.99200237,2016-11-30 08:13:55,53.45308058569097
0.15690613,2.500702,9.532059,-7.693695E-4,-0.0029443689,-0.017099718,1.0,0.18615396,2.4509463,9.493608,-0.004530902,-7.1618217E-4,-0.09511631,-0.009172818,-0.12595733,-0.9919913,2016-11-30 08:13:56,8.495985412409333
0.21574402,2.481079,9.54187,9.36597E-5,9.0803124E-4,0.006065232,1.0,0.18326376,2.4429636,9.495722,-0.020345025,-0.04964394,-0.06575326,-0.008585778,-0.12562212,-0.9920162,2016-11-30 08:13:57,59.25493065698955
0.17651367,2.510498,9.483032,-5.04003E-4,6.5735664E-4,0.0020470878,1.0,0.1892988,2.4548097,9.492548,-0.0013840309,-0.050561927,-0.0691359,0.009757175,0.12616514,0.99196124,2016-11-30 08:13:58,40.30851857288156
0.20593262,2.481079,9.5811,-0.0010382026,0.0050112423,0.018577935,1.0,0.17340277,2.4508,9.493888,0.0371993,0.026377993,-0.053975947,-0.007981701,-0.12587497,-0.99198866,2016-11-30 08:13:59,53.54225060060887
0.20593262,2.4418488,9.5811,-0.0012241655,-0.0019248591,-0.004379484,1.0,0.18667263,2.433575,9.498066,-0.01763257,-0.0044673057,-0.06341808,0.009979922,0.12500231,0.99210197,2016-11-30 08:14:00,19.843209932163536
0.19613647,2.4418488,9.561478,0.002913173,-2.641776E-4,-0.0032021531,1.0,0.17750895,2.4552314,9.492667,-0.013370289,0.0063500376,-0.055912092,0.009628214,0.12636203,0.9919295,2016-11-30 08:14:01,61.38259649553376
0.22555542,2.4516602,9.5516815,-4.6669095E-4,-8.039351E-4,0.0028622763,1.0,0.17402431,2.454267,9.492982,-0.03028091,0.029845221,-0.027641391,-0.008579299,-0.12614766,-0.99196833,2016-11-30 08:14:02,54.39892263795681
0.22555542,2.4614716,9.532059,7.99569E-4,0.0021255799,0.0010548221,1.0,0.17882492,2.4503245,9.49391,-0.02548031,0.025902685,-0.01309329,0.009141898,0.12597391,0.9919913,2016-11-30 08:14:03,31.52673024123283
0.19613647,2.510498,9.512451,2.2440527E-4,0.0032554583,0.008541221,1.0,0.18562506,2.4462476,9.494831,-0.032300513,-0.019035358,-0.066652745,-0.009247878,-0.12574704,-0.9920171,2016-11-30 08:14:04,25.20387994915001
0.13729858,2.4614716,9.590912,-0.0017303792,-2.7577186E-4,-0.004765146,1.0,0.18750049,2.4407427,9.49621,0.03767667,0.016320892,-0.010792197,-0.008921956,-0.12544134,-0.9920468,2016-11-30 08:14:05,36.656144060195096
0.20593262,2.4418488,9.5811,-0.0010735148,-0.0025008954,-9.762965E-4,1.0,0.1745315,2.4538372,9.493083,-0.002533019,-0.011445614,-0.09564171,-0.008066518,-0.12615405,-0.9919485,2016-11-30 08:14:06,63.03008089406084
0.17651367,2.4516602,9.620331,0.002675488,0.0037190453,0.010319977,1.0,0.17386185,2.4542258,9.492994,-0.0032026735,-0.02467732,-0.041248437,-0.008762593,-0.12622105,-0.99196273,2016-11-30 08:14:07,65.23870557290158
0.13729858,2.4908905,9.54187,-5.171883E-5,-0.0041677845,-0.011511799,1.0,0.19568647,2.4595592,9.491189,0.032242294,-0.019344194,-0.056674413,-0.009741023,-0.12645471,-0.9919209,2016-11-30 08:14:08,43.15137192757771
0.20593262,2.4614716,9.561478,-0.0015329177,-3.81501E-5,0.004076845,1.0,0.18044095,2.4537776,9.492987,-0.037484623,0.002115086,-0.054876268,0.009597932,0.1260532,0.99197453,2016-11-30 08:14:09,58.573655674005956
0.16671753,2.4908905,9.50264,5.3312702E-5,-3.3174115E-4,-0.0021826157,1.0,0.18893391,2.451623,9.493379,0.01186938,-0.027280182,-0.02724402,0.009884077,0.12600066,0.99197996,2016-11-30 08:14:10,51.87356977637955
0.21574402,2.471283,9.532059,-5.646369E-4,0.0013639587,0.0077795507,1.0,0.18168202,2.4494913,9.494071,-0.009002859,-0.015791755,0.014309512,-0.009075359,-0.12589347,-0.9919984,2016-11-30 08:14:11,16.003147876587796
0.21574402,2.500702,9.600708,2.581945E-4,0.0036848711,0.007296281,1.0,0.17978492,2.4625983,9.490715,-0.010899944,-0.00268454,-0.07076861,0.009266758,0.12657589,0.9919135,2016-11-30 08:14:12,57.39874539691628
0.21574402,2.4614716,9.571289,1.3131835E-4,-0.0023768554,-0.0041621514,1.0,0.17687753,2.4521458,9.493477,-0.027427675,0.027723901,-0.108868,-0.008660725,-0.12606615,-0.99197716,2016-11-30 08:14:13,49.1657974412487
0.16671753,2.500702,9.54187,9.926189E-4,8.1816415E-4,0.001352286,1.0,0.19150558,2.4518094,9.493279,0.028061403,-0.02709376,-0.040964127,0.010388678,0.12600064,0.99196583,2016-11-30 08:14:14,63.07816582151255
0.18632507,2.471283,9.522263,0.0014928037,0.0017935096,0.002237174,1.0,0.16512819,2.4599657,9.491664,-0.025556676,-0.01893747,-0.04257938,0.008776417,0.12646633,0.9919289,2016-11-30 08:14:15,61.41415772586526
0.17651367,2.4418488,9.54187,0.0015968154,0.0032504038,0.013069333,1.0,0.18449052,2.4695675,9.488813,0.03466671,0.058766015,-0.031809628,-0.009241263,-0.12706111,-0.9918505,2016-11-30 08:14:16,13.535075057709019
0.19285583,2.4189758,9.5451355,-0.0015605552,-4.5080337E-4,9.191331E-4,1.0,0.1812614,2.4319713,9.498581,-0.01023242,0.009392669,-0.008877667,-0.00891011,-0.124963254,-0.9921158,2016-11-30 08:14:18,51.27728837184803
0.17651367,2.4516602,9.522263,0.0014346591,0.0050201593,0.011711327,1.0,0.17724529,2.4397216,9.49667,1.8077315E-4,0.0016792665,-0.023953656,-0.009026124,-0.1254203,-0.9920627,2016-11-30 08:14:19,63.410686517658554
0.19613647,2.481079,9.561478,-1.6985634E-4,-0.0040798974,-0.004499915,1.0,0.17092894,2.432679,9.498591,-0.019755919,-0.059844654,-0.090133384,-0.008380821,-0.12506193,-0.99210614,2016-11-30 08:14:20,54.034885320628106
0.18632507,2.4908905,9.5811,-6.172409E-4,-0.0012276549,-0.006846823,1.0,0.17480361,2.4475644,9.494698,-0.015881252,-0.017718546,-0.066786595,0.009025792,0.12577876,0.9920172,2016-11-30 08:14:21,46.53136043065714
0.19613647,2.500702,9.561478,1.2691287E-4,0.0011403541,2.7718258E-4,1.0,0.17518759,2.4372656,9.497338,0.011743421,-0.041637495,-0.050525136,-0.008843828,-0.12527451,-0.99208206,2016-11-30 08:14:22,66.38166968476341
0.16671753,2.4614716,9.561478,-0.0012124887,-1.2560724E-4,0.0016413797,1.0,0.1779751,2.4422863,9.495997,9.105812E-4,-0.009376251,-0.03824571,-0.008471656,-0.1255371,-0.99203783,2016-11-30 08:14:23,48.188208395181235
0.14709473,2.4222412,9.561478,4.2141255E-4,-0.0038608839,-0.008277489,1.0,0.18423137,2.4563994,9.492236,0.005188606,0.031316034,-0.04179711,-0.009099509,-0.12629612,-0.99194556,2016-11-30 08:14:24,10.786531366499121
0.17651367,2.481079,9.532059,-0.001659598,0.0014759407,0.0044886027,1.0,0.18330735,2.4358354,9.497553,0.03348352,-0.015827294,-0.05031066,-0.009021691,-0.12516215,-0.9920907,2016-11-30 08:14:25,15.560511001918716
0.17651367,2.4614716,9.561478,-0.0014641527,0.0010299473,0.008237486,1.0,0.16948904,2.4440446,9.495699,-0.021195816,0.019622894,-0.06578485,-0.008523311,-0.12558052,-0.99204516,2016-11-30 08:14:26,10.160753043567963
0.20593262,2.471283,9.522263,0.0010365484,0.0011677931,0.005111302,1.0,0.17669742,2.454728,9.492812,-0.027607787,-0.010555062,-0.014190633,-0.008572011,-0.12617777,-0.9919626,2016-11-30 08:14:27,62.489409437982516
0.18632507,2.4418488,9.561478,-3.196623E-4,8.4742694E-4,-0.0018329534,1.0,0.17735957,2.454621,9.492827,2.9504066E-4,0.016578808,-0.05503588,-0.008843354,-0.12615879,-0.9919688,2016-11-30 08:14:28,60.240423703410634
0.17651367,2.4418488,9.5516815,7.712274E-4,-0.0019123253,-0.0038155436,1.0,0.18620029,2.44371,9.495472,-0.004484569,-0.03519331,-0.10687284,0.010457588,0.12559564,0.99202645,2016-11-30 08:14:29,23.469638825298556
0.16671753,2.4418488,9.5516815,0.0015591321,0.0016062781,7.4990315E-4,1.0,0.16689298,2.4485679,9.49458,0.0022842856,0.012271116,-0.053713247,-0.007929369,-0.12602253,-0.9919858,2016-11-30 08:14:30,65.64860583674263
0.18632507,2.481079,9.473221,-2.8682826E-4,-7.4555434E-4,0.0014657989,1.0,0.1703089,2.4319537,9.498788,-0.0067556184,-0.046949424,0.04626712,-0.008451047,-0.12500456,-0.9921165,2016-11-30 08:14:31,51.37798808607865
0.18632507,2.4908905,9.50264,-7.2616833E-4,-0.0032884746,-0.013163498,1.0,0.18179385,2.4423766,9.495901,0.004729341,-0.03652654,-0.011101448,-0.009224017,-0.12551239,-0.99204874,2016-11-30 08:14:32,47.93691211207136
0.18632507,2.4614716,9.590912,7.6418114E-4,-0.0025038605,-0.00658082,1.0,0.17750317,2.4521122,9.493473,-6.7131687E-4,0.026929574,-0.054173805,-0.0085153375,-0.12605545,-0.9919762,2016-11-30 08:14:33,57.266815771903616
0.16671753,2.4614716,9.522263,3.327259E-4,-2.9528403E-4,-7.0623844E-4,1.0,0.17757934,2.4537237,9.493055,0.04137586,0.015681397,-0.041188583,0.009178523,0.12611458,0.99197316,2016-11-30 08:14:34,54.074258619281494
0.19613647,2.4418488,9.54187,0.0013581559,9.611725E-4,0.0052806395,1.0,0.18146034,2.4390867,9.496753,-0.009224522,0.014664901,-0.05111039,-0.0090994295,-0.1254044,-0.9920622,2016-11-30 08:14:35,50.569372158632774
0.20593262,2.510498,9.473221,7.186077E-4,1.6728054E-4,-3.9024625E-4,1.0,0.17463787,2.4499156,9.494093,-0.016367406,-0.04144442,0.01403767,-0.008639019,-0.12603553,-0.9919851,2016-11-30 08:14:36,11.052972431222152
0.21574402,2.4614716,9.561478,-4.8070017E-4,0.0017834031,0.002224515,1.0,0.18341821,2.456354,9.492264,-0.020886993,0.004691347,-0.08284021,-0.009308037,-0.12624532,-0.99195516,2016-11-30 08:14:37,53.343571970233285
0.16671753,2.4418488,9.492844,0.0015157108,-6.314746E-4,0.0012181519,1.0,0.18908088,2.4428725,9.495632,0.025636703,-0.022410518,-0.03861149,-0.009661462,-0.12559603,-0.9920342,2016-11-30 08:14:38,48.724069398759646
0.21574402,2.471283,9.571289,-1.9489478E-4,0.0014960412,0.0058267373,1.0,0.18751903,2.448882,9.494114,-0.0031658355,-0.0027803497,-0.040129483,-0.008963298,-0.12589698,-0.9919887,2016-11-30 08:14:39,57.467028335751436
0.15690613,2.4614716,9.590912,8.350706E-4,-0.0022188162,-0.00722519,1.0,0.18130961,2.4514186,9.49358,0.004245097,-2.4399241E-4,-0.054283533,-0.008779876,-0.12612227,-0.99196583,2016-11-30 08:14:40,11.073513185447721
0.20593262,2.481079,9.532059,6.5696E-4,-0.0054649753,-0.017338531,1.0,0.17762813,2.4477022,9.494609,5.63609E-4,-0.017580755,-0.039634846,0.0093892645,0.12583302,0.9920054,2016-11-30 08:14:41,58.1971683751101
0.23536682,2.500702,9.5811,5.462879E-4,0.0017898193,0.0018614077,1.0,0.18805018,2.4424834,9.495751,-0.002634674,-0.036419716,-0.06573247,0.009704087,0.12555522,0.99203897,2016-11-30 08:14:42,58.48027301888034
0.20593262,2.4908905,9.571289,-0.0010537951,0.0033318345,0.011397811,1.0,0.1776876,2.4450428,9.495294,-0.01299726,-0.020240149,-0.07981088,-0.00858851,-0.1256651,-0.9920265,2016-11-30 08:14:43,23.99349177077914
0.18632507,2.471283,9.532059,-0.002186932,8.7924756E-4,0.002642793,1.0,0.16605961,2.4409602,9.496552,-0.038245607,0.0029179335,-0.024070041,-0.008076654,-0.12542221,-0.9920636,2016-11-30 08:14:44,59.69439744697041
0.16671753,2.4418488,9.522263,-5.627286E-4,0.0014768795,0.003862508,1.0,0.17979023,2.457222,9.492109,-0.02451499,0.005559453,-0.042134624,-0.008461593,-0.12629816,-0.9919391,2016-11-30 08:14:45,49.797440059447105
0.15690613,2.4516602,9.512451,0.0012225979,9.2821463E-4,0.0017936135,1.0,0.16572258,2.4542632,9.493131,0.001907373,-0.009967735,-0.054999303,-0.00824725,-0.12623084,-0.9919647,2016-11-30 08:14:46,25.524197740367445
0.18632507,2.481079,9.561478,7.022186E-4,3.0756804E-5,9.483075E-4,1.0,0.17471634,2.4510934,9.493789,-0.0023481804,-0.041430287,-0.08131557,-0.008655423,-0.12602492,-0.99198586,2016-11-30 08:14:47,61.84174762606274
0.18632507,2.471283,9.463425,-6.704362E-5,-4.068571E-4,7.257027E-4,1.0,0.18893056,2.457145,9.491952,0.011866041,-0.008137791,0.03943034,0.0098339515,0.12628683,0.9919445,2016-11-30 08:14:48,36.623278483132296
0.18632507,2.4614716,9.532059,-4.5369557E-4,0.0019877322,0.0049403096,1.0,0.17126577,2.445375,9.495326,0.007821592,-0.033528384,0.015563974,-0.00834667,-0.12567712,-0.9920309,2016-11-30 08:14:49,54.16683227500778
0.15690613,2.4614716,9.532059,0.0011401557,-8.041294E-5,-8.8520884E-4,1.0,0.18088867,2.4358032,9.497606,0.017444484,-0.029479647,-0.050256625,-0.008673768,-0.12534472,-0.9920637,2016-11-30 08:14:50,55.61122088701702
0.15690613,2.471283,9.571289,-0.001143314,-6.3774304E-4,0.0064404854,1.0,0.16835149,2.4376802,9.497355,-0.022333385,-0.041223083,-0.07774837,-0.007724123,-0.12531237,-0.99205565,2016-11-30 08:14:51,59.953742406729646
0.21574402,2.471283,9.600708,3.7447306E-5,-0.0022293702,-0.004637032,1.0,0.18708256,2.4525883,9.493166,-0.030842988,9.2588266E-4,-0.09555858,-0.009628762,-0.12606038,-0.99197584,2016-11-30 08:14:52,50.424283602498996
0.18632507,2.4516602,9.590912,2.1552946E-4,4.8635027E-4,-0.0013442568,1.0,0.19548291,2.4417548,9.495789,0.018418388,-0.009907672,-0.10655611,-0.009510263,-0.12553859,-0.99203503,2016-11-30 08:14:53,63.34891864670226
0.15690613,2.471283,9.54187,7.6479325E-4,0.002761222,0.00792789,1.0,0.17368165,2.446859,9.494899,0.023857832,-0.004803575,-0.025724366,0.009057206,0.12575732,0.99201894,2016-11-30 08:14:54,56.19220903291548
0.21574402,2.471283,9.600708,-1.5907799E-4,7.373502E-4,0.005548088,1.0,0.17491028,2.4431946,9.49582,-0.029394945,-0.02208838,-0.09290417,-0.008584479,-0.12558943,-0.99203956,2016-11-30 08:14:55,55.18094231698565
0.20593262,2.481079,9.54187,-4.7753478E-4,-0.0024155688,-0.008317316,1.0,0.18012261,2.4445732,9.495367,-0.010562246,-0.007089497,-0.06611654,0.009682502,0.12559713,0.9920288,2016-11-30 08:14:56,13.143939572219628
0.18632507,2.5203094,9.54187,3.5708846E-4,0.0036292388,0.007781292,1.0,0.18506345,2.4553173,9.4925,0.007998935,-0.009965657,-0.028122725,-0.008905585,-0.12624414,-0.9919494,2016-11-30 08:14:57,59.208977177961515
0.20593262,2.500702,9.600708,-0.0018021606,-0.002324005,-0.002584185,1.0,0.1893297,2.4578862,9.491752,-0.0129282605,-0.036373574,-0.06932461,-0.009833399,-0.12621255,-0.9919544,2016-11-30 08:14:58,53.01831307393666
0.20593262,2.5203094,9.620331,-3.3909007E-4,-0.001659089,-0.013403784,1.0,0.17671818,2.451509,9.493644,-0.013966683,0.013466969,-0.054220352,-0.008142417,-0.12605901,-0.9919643,2016-11-30 08:14:59,54.50657075168771
0.12748718,2.471283,9.512451,3.7453592E-5,0.0018777725,0.0014303651,1.0,0.18264252,2.4417002,9.496059,0.019198336,-0.037203025,-0.05180454,-0.008894567,-0.12554154,-0.9920447,2016-11-30 08:15:00,67.43030620783506
0.20593262,2.471283,9.571289,0.0017218963,-0.0055546644,-0.013182953,1.0,0.19683917,2.450685,9.493461,0.006154288,-9.774246E-4,7.814408E-5,-0.009787417,-0.12604988,-0.991971,2016-11-30 08:15:01,49.23935850857716
0.19613647,2.4908905,9.532059,0.0012216768,0.0018256853,8.647283E-4,1.0,0.17788836,2.4538884,9.493007,-0.014612671,-0.037409816,-0.04152028,-0.008807295,-0.12624273,-0.99195904,2016-11-30 08:15:02,55.94186303620495
0.18632507,2.4614716,9.561478,-0.002143248,3.358265E-4,0.0020857719,1.0,0.17926925,2.4572017,9.492124,0.0024718002,0.0031602632,-0.05512982,-0.0089554405,-0.12612832,-0.9919711,2016-11-30 08:15:03,55.879566006361316
0.20593262,2.481079,9.630127,7.9414516E-4,0.005923135,0.024244968,1.0,0.1939053,2.4387171,9.496602,0.003220443,-0.026565664,-0.06488203,-0.009502688,-0.12537308,-0.99205744,2016-11-30 08:15:04,56.47606014502007
0.20593262,2.471283,9.610519,-5.27838E-4,5.0172023E-4,-0.005228437,1.0,0.17854406,2.4473913,9.494673,0.017519135,-0.030836154,-0.06703183,-0.00848085,-0.12581152,-0.9920053,2016-11-30 08:15:05,53.372671058773314
0.16671753,2.471283,9.54187,8.1042905E-4,-3.3428008E-4,-0.0021919943,1.0,0.17298615,2.4452589,9.495324,0.010286663,-0.034622192,-0.011440626,-0.008074853,-0.12575535,-0.9920091,2016-11-30 08:15:06,12.001434193949855
0.19613647,2.481079,9.5516815,-2.5823605E-4,-0.0010615467,-9.468096E-4,1.0,0.16864815,2.4536774,9.49323,-0.02203671,-0.011605435,-0.09549457,-0.007918814,-0.12615415,-0.9919594,2016-11-30 08:15:07,60.58166614381416
0.22555542,2.4516602,9.571289,6.9622556E-4,2.899525E-4,0.0049509,1.0,0.19018531,2.4469767,9.494553,-0.015296731,0.022161953,-0.039566677,-0.009389806,-0.125803,-0.9920054,2016-11-30 08:15:08,49.77376726463148
0.18632507,2.471283,9.50264,5.867372E-4,7.5268414E-4,-0.0010859198,1.0,0.18947898,2.4431157,9.49556,-0.014826242,-0.035787497,-0.05230333,0.010086132,0.12555973,0.9920304,2016-11-30 08:15:09,35.3288463718765
0.15690613,2.481079,9.54187,-3.4062014E-4,0.0030800921,0.0074288375,1.0,0.18226871,2.4494417,9.494072,0.01882454,-0.0022208716,-0.053791396,-0.009163505,-0.12589078,-0.992001,2016-11-30 08:15:10,60.98183175696187
0.16671753,2.4418488,9.5516815,0.00111417,-0.003962351,-0.010074376,1.0,0.18820684,2.4656386,9.489762,0.038383022,0.0275965,-0.058100954,0.009770361,0.12676989,0.99188393,2016-11-30 08:15:11,59.95360418258983
0.22555542,2.471283,9.5811,-0.0018278075,0.0037835813,0.008976339,1.0,0.17173603,2.4416893,9.496265,-0.032569185,-0.009973346,-0.024357677,-0.008414699,-0.12546057,-0.99205846,2016-11-30 08:15:12,59.004750435722634
0.20593262,2.4418488,9.5811,1.3692236E-4,0.0014300686,0.0075599854,1.0,0.18587051,2.4310694,9.498724,-0.017840842,-0.006936326,-0.076401636,-0.00883171,-0.12499056,-0.9921,2016-11-30 08:15:13,61.961127357914556
0.14709473,2.510498,9.561478,0.0024577032,4.753197E-4,-8.369523E-4,1.0,0.17978513,2.45073,9.493788,0.0027206247,0.012687814,-0.06769605,-0.009032247,-0.12603721,-0.9919832,2016-11-30 08:15:14,48.60976611139394
0.21574402,2.4222412,9.54187,-9.121698E-4,1.2326024E-4,-0.0013926382,1.0,0.1668812,2.46229,9.491032,-0.07828506,0.010627388,-0.043212015,-0.00834937,-0.12649883,-0.9919304,2016-11-30 08:15:15,61.59239938048324
0.21574402,2.4418488,9.5516815,1.1465001E-4,-5.4408E-5,-0.0030067642,1.0,0.1820278,2.4408123,9.496299,-0.022277417,-0.024470529,-0.065185465,-0.008994051,-0.12547831,-0.99205184,2016-11-30 08:15:16,59.80124765693455
0.17651367,2.4222412,9.571289,-7.977411E-4,6.4411125E-4,-0.0015595164,1.0,0.17624718,2.4404995,9.496488,0.012803017,0.002457382,-0.05137558,-0.008819771,-0.12540716,-0.9920647,2016-11-30 08:15:17,55.814458213556144
0.17651367,2.481079,9.522263,0.0019916813,2.9728348E-5,-0.0020958027,1.0,0.18307263,2.4495428,9.494031,0.006008106,-0.04298091,-0.094694,0.009521815,0.12603651,0.99197906,2016-11-30 08:15:18,37.68676479494339
0.20593262,2.4614716,9.512451,-7.537045E-4,0.0010516518,0.0046169413,1.0,0.18281364,2.4548516,9.492663,-0.02149157,-0.010431197,-0.05519965,-0.0091820955,-0.12617071,-0.9919647,2016-11-30 08:15:19,38.87942290131767
0.21574402,2.481079,9.5516815,6.021767E-4,-0.0010056107,-0.0054750713,1.0,0.17730032,2.4487383,9.494349,-0.027004886,-0.016544515,9.6599385E-4,-0.00885552,-0.1259333,-0.99199766,2016-11-30 08:15:20,62.27590743888137
0.17651367,2.4614716,9.512451,-4.1775487E-4,0.0021296402,0.0057971645,1.0,0.17007394,2.442402,9.496112,0.006629777,-0.036501393,-0.010890292,-0.008594007,-0.12551737,-0.9920538,2016-11-30 08:15:21,65.56356195396988
0.18632507,2.471283,9.5811,7.572906E-4,0.0033018116,0.0077641434,1.0,0.18034172,2.433124,9.498304,0.001891344,-0.03153862,-0.049692154,0.0099513475,0.1249772,0.99209625,2016-11-30 08:15:22,37.24890855197229
0.22555542,2.481079,9.473221,-9.832287E-4,1.5814089E-4,0.0041378425,1.0,0.17036323,2.4447858,9.495494,-0.005781675,-0.008051126,-0.0112236515,-0.007871468,-0.12562156,-0.99201787,2016-11-30 08:15:23,35.653154424237286
0.12748718,2.471283,9.512451,-0.0024710656,0.0018128279,0.0015655407,1.0,0.18071973,2.4511316,9.493667,0.0581366,-0.014151146,-0.013336036,-0.008603484,-0.12596552,-0.9919845,2016-11-30 08:15:24,65.88733580835441
0.16671753,2.471283,9.54187,-2.9666518E-4,-0.0019948257,-0.002251067,1.0,0.17203586,2.4343648,9.498139,-0.020294925,-0.016956642,-0.022541242,-0.0087007955,-0.12511596,-0.99210304,2016-11-30 08:15:25,57.06570559072999
0.16671753,2.4516602,9.522263,0.0016246422,-0.0027726237,-0.0113888,1.0,0.1759603,2.4451573,9.495295,0.012516133,-0.0065052873,-0.025327828,0.0091827605,0.12571621,0.99202305,2016-11-30 08:15:26,56.74759747615176
0.16671753,2.4614716,9.54187,4.6353256E-5,-0.001765406,-0.0032885615,1.0,0.15990497,2.4396288,9.497002,-0.01715955,-0.012033774,-0.09172287,-0.007951626,-0.12540488,-0.992071,2016-11-30 08:15:27,58.803169996462465
0.18632507,2.4516602,9.512451,9.244657E-4,-0.0010761307,-0.0022257646,1.0,0.160701,2.4431016,9.496095,0.011434652,0.019846726,-0.024837349,-0.008163343,-0.12565547,-0.99203974,2016-11-30 08:15:28,27.47381053983167
0.18632507,2.481079,9.5811,0.0014420571,-6.775741E-5,0.00514582,1.0,0.17330855,2.4480164,9.494607,-0.0022059467,-0.0020138728,-0.09456597,-0.008925212,-0.12594458,-0.9919968,2016-11-30 08:15:29,53.91667541292463
0.17651367,2.471283,9.5516815,1.5974042E-4,-0.0023671696,-0.007508322,1.0,0.18101451,2.450079,9.493932,-0.009670356,-0.028824152,-0.013070844,0.009474138,0.1259772,0.99198747,2016-11-30 08:15:30,61.449766294747164
0.20593262,2.500702,9.54187,-7.417337E-4,0.0026952215,0.013530512,1.0,0.18558599,2.4542387,9.492769,0.02214182,-0.024664434,-0.05509407,0.010027041,0.12608102,0.99196243,2016-11-30 08:15:31,54.085937139492955
0.21574402,2.4908905,9.561478,-0.001760335,-7.656227E-4,0.0010916716,1.0,0.19100544,2.449578,9.493865,-0.013299783,-0.002084535,-0.09485943,-0.009206437,-0.12590067,-0.9919873,2016-11-30 08:15:32,13.07496037913213
0.19613647,2.4908905,9.600708,1.9271992E-4,0.0011497292,0.0018755499,1.0,0.19397998,2.439312,9.496447,-0.010325229,-0.02597106,-0.092277355,-0.009701921,-0.12539038,-0.992058,2016-11-30 08:15:33,16.00042175117379
0.16671753,2.471283,9.54187,-7.7944525E-5,-9.255079E-5,-0.008832485,1.0,0.17172724,2.4356375,9.497819,0.008283065,-0.029645495,-0.036424287,-0.008008005,-0.1252343,-0.9920768,2016-11-30 08:15:34,64.02490536667061
0.19613647,2.510498,9.600708,-0.0013972266,-2.1454791E-4,0.006838774,1.0,0.18082657,2.437491,9.497175,-0.0098583,-0.055032555,-0.09154995,-0.008464947,-0.12529513,-0.9920588,2016-11-30 08:15:35,44.479064148851045
0.20593262,2.500702,9.54187,-0.0,-0.0,-0.0,1.0,0.18547398,2.4386191,9.496797,-0.0052108956,-0.040284105,0.030654926,-0.008914664,-0.12538293,-0.9920564,2016-11-30 08:15:36,48.93812671735876
0.18632507,2.500702,9.532059,0.002017899,-2.605699E-4,-2.0055074E-4,1.0,0.19076017,2.4531894,9.492937,-0.013545048,-0.039334323,-0.06854649,0.010363506,0.12610993,0.9919527,2016-11-30 08:15:37,43.95067807481537
0.15690613,2.481079,9.590912,-0.0010726417,0.0019722586,0.0029821263,1.0,0.18559697,2.4500675,9.493847,0.020891866,-0.016557192,-0.040025566,-0.008984652,-0.12586598,-0.992,2016-11-30 08:15:38,61.91360863036364
0.23536682,2.4516602,9.600708,4.1623195E-4,9.0587564E-4,0.0013389653,1.0,0.18572249,2.4592917,9.491459,-0.018582731,0.0076292315,-0.0972661,-0.009079059,-0.12644884,-0.991927,2016-11-30 08:15:39,53.71283608370379
0.21574402,2.510498,9.522263,9.6290855E-4,-0.0013923642,-0.005401951,1.0,0.19357274,2.4493763,9.493865,-0.024352806,-0.015906684,-0.06761874,-0.009261379,-0.12602365,-0.9919688,2016-11-30 08:15:40,65.79084085176775
0.16671753,2.4516602,9.561478,-4.6058669E-4,-5.791536E-4,-9.196658E-4,1.0,0.19524899,2.440527,9.49611,-0.02267658,-0.011135532,-0.051753826,-0.009204988,-0.12548016,-0.99202967,2016-11-30 08:15:41,26.697758090937644
0.17651367,2.471283,9.610519,-1.345228E-4,5.920654E-5,-0.0020392234,1.0,0.18804479,2.4461174,9.494816,0.025428792,0.008154003,-0.039463595,-0.008999736,-0.1257632,-0.99200666,2016-11-30 08:15:42,23.759225895790742
0.19613647,2.471283,9.610519,2.5111533E-4,0.0034845078,0.010238966,1.0,0.17148203,2.4514573,9.4937525,0.021658212,-0.013825684,-0.10859201,-0.007996629,-0.12602766,-0.9919775,2016-11-30 08:15:43,44.19845509569428
0.18632507,2.4516602,9.50264,3.8854132E-4,7.4218883E-4,0.005842245,1.0,0.18193291,2.4393933,9.496666,0.004868405,-0.012269244,0.0032837142,-0.009272401,-0.1253812,-0.99206495,2016-11-30 08:15:44,53.726869534453584
0.21574402,2.481079,9.532059,-8.391577E-5,-0.0014495413,-0.0050061983,1.0,0.18504193,2.4543405,9.492754,-0.005642935,0.0026778898,-0.055109866,-0.009456837,-0.12615149,-0.9919658,2016-11-30 08:15:45,13.981932732581566
0.18632507,2.4908905,9.5811,-5.1793264E-4,0.0020779574,0.0063794665,1.0,0.17408329,2.4532604,9.49324,0.01063913,-0.02564269,-0.054623544,-0.008634814,-0.12609741,-0.9919774,2016-11-30 08:15:46,57.57884867925833
0.18632507,2.510498,9.5811,-7.347909E-4,-0.0025341744,-0.0090671,1.0,0.18718874,2.4470181,9.494602,0.023744578,-0.04550542,-0.09412289,-0.009574672,-0.1257552,-0.9920152,2016-11-30 08:15:47,12.732424797799649
0.19613647,2.4516602,9.561478,-4.3556458E-4,1.6800409E-4,0.0056417193,1.0,0.17342155,2.4477746,9.494668,-0.0036429742,-0.003887876,-0.03957582,-0.008378187,-0.12583324,-0.99200565,2016-11-30 08:15:48,26.09518819045782
0.19613647,2.4614716,9.50264,-1.4741819E-4,9.818132E-4,0.0053173825,1.0,0.18456395,2.4441419,9.495393,-0.0061209183,-0.0075205364,-0.011609385,-0.008635442,-0.12566492,-0.99201185,2016-11-30 08:15:49,56.729003952062925
0.18632507,2.4516602,9.5811,6.507146E-5,0.005672241,0.021985594,1.0,0.18524612,2.4373925,9.497115,-0.0054387297,-6.496766E-4,-0.07798946,0.009605798,0.1252462,0.992079,2016-11-30 08:15:50,47.76033357583012
0.16671753,2.471283,9.561478,9.514436E-4,0.0027972125,0.0061033415,1.0,0.1766388,2.4425597,9.495951,0.013194621,-0.03634365,-0.06553296,-0.009003298,-0.12556332,-0.99204475,2016-11-30 08:15:51,61.85178967221673
0.17651367,2.4908905,9.571289,4.072795E-5,-0.0016524983,-0.001685517,1.0,0.17988999,2.447506,9.494617,0.016445823,-0.045017645,-0.0668664,-0.008855482,-0.12584758,-0.9920047,2016-11-30 08:15:52,26.754116937148634
0.20593262,2.481079,9.50264,-0.0014466988,0.001347369,0.0030542486,1.0,0.17153902,2.4475899,9.494749,-0.04638654,-0.031313334,-0.025874006,-0.008664472,-0.12571849,-0.9920277,2016-11-30 08:15:53,56.22534061156298
0.19613647,2.471283,9.590912,-6.4786326E-4,-0.0017575044,-0.0053421343,1.0,0.16572936,2.4365292,9.497697,-0.011335165,-0.028753696,-0.091027886,0.008724114,0.1251941,0.9920927,2016-11-30 08:15:54,20.871230314655143
0.18632507,2.4908905,9.54187,0.0013971536,-4.054665E-5,0.0030320077,1.0,0.18722844,2.4390702,9.496645,-0.003456434,-0.01259242,-0.023977764,-0.009513148,-0.12540716,-0.99205923,2016-11-30 08:15:55,36.98970728159552
0.18632507,2.481079,9.590912,-6.490054E-4,5.1134895E-4,0.0056003802,1.0,0.19323128,2.4552016,9.492367,0.0016377524,0.0047171176,-0.13750449,0.010237018,0.12613519,0.99195766,2016-11-30 08:15:56,60.085713198476334
0.18632507,2.481079,9.561478,9.885707E-4,0.0026780271,0.0024298555,1.0,0.18518311,2.4489114,9.494153,0.02173894,-0.043612294,-0.05371076,0.009564499,0.12595576,0.99198824,2016-11-30 08:15:57,61.6290729357684
0.19613647,2.4614716,9.571289,-2.5889676E-4,-0.004094315,-0.009692303,1.0,0.17961858,2.4466455,9.4948435,-0.011066286,-0.03225771,-0.025779234,-0.008987186,-0.12580988,-0.9920086,2016-11-30 08:15:58,54.98529794176677
0.16671753,2.4222412,9.620331,2.0539183E-4,0.0041981884,0.014375772,1.0,0.17121933,2.452139,9.493582,0.008369068,4.948433E-4,-0.09515871,0.008806145,0.12602954,0.99198747,2016-11-30 08:15:59,61.49698883485382
0.20593262,2.471283,9.590912,1.6106802E-4,-0.002239776,-0.0037104737,1.0,0.18338528,2.4534605,9.493012,-0.020919936,-0.011822619,-0.09571154,-0.008969,-0.12614024,-0.9919642,2016-11-30 08:16:00,50.739944076065726
0.17651367,2.4614716,9.532059,-2.6195438E-4,0.0012459268,0.0039743995,1.0,0.18275462,2.4446826,9.495288,-0.007930234,-0.034220666,-0.025334477,-0.008748671,-0.12570173,-0.99201655,2016-11-30 08:16:01,55.226028317988714
0.21574402,2.4614716,9.522263,-5.224024E-4,0.001363002,8.0994365E-4,1.0,0.19433895,2.4400704,9.496246,0.030894788,-0.011592134,-0.01075645,0.009988638,0.12538297,0.99205756,2016-11-30 08:16:02,12.344751005704067
0.16671753,2.471283,9.532059,8.7941304E-4,8.893325E-4,0.0016173293,1.0,0.1760443,2.4491522,9.494265,-0.02826092,-0.056991562,8.8286184E-4,-0.008754785,-0.12592477,-0.99199855,2016-11-30 08:16:03,56.93965564003022
0.19613647,2.4320526,9.571289,-6.1983435E-4,-2.1868906E-4,0.0039486,1.0,0.18908073,2.4567904,9.492041,-0.015224483,-0.00849235,-0.05582314,-0.009030122,-0.12631287,-0.99193317,2016-11-30 08:16:04,47.95712361793734
0.15690613,2.471283,9.50264,4.6412938E-4,1.223411E-4,-0.0021555328,1.0,0.18958011,2.4522045,9.493216,0.039756283,-0.013078535,-0.013786611,-0.008946165,-0.12610658,-0.99195796,2016-11-30 08:16:05,58.69945036951974
0.15690613,2.4614716,9.522263,8.0004094E-5,-1.3395763E-4,0.00589994,1.0,0.18606853,2.456829,9.492089,0.009004014,-0.008453693,-0.05577409,-0.009383309,-0.1262926,-0.99194705,2016-11-30 08:16:06,65.7532713370907
0.15690613,2.4516602,9.50264,-0.0029031353,4.3660356E-4,-0.005254348,1.0,0.17116332,2.4451106,9.495396,0.021339493,0.0070682988,-0.052467935,-0.0075863013,-0.1256601,-0.9920018,2016-11-30 08:16:07,58.86217305032005
0.19613647,2.4516602,9.561478,0.0033475496,0.0028589736,0.017944157,1.0,0.1770531,2.4336884,9.498221,-1.1430651E-5,-0.031594526,-0.049642276,-0.009240773,-0.12543398,-0.99205893,2016-11-30 08:16:08,61.3462127888771
0.17651367,2.471283,9.532059,-7.0556486E-4,3.762439E-4,-8.6831045E-4,1.0,0.17265657,2.438794,9.496992,-0.03164864,-0.026488975,-0.023631103,-0.0083705615,-0.12534904,-0.99206996,2016-11-30 08:16:09,13.863131393179163
0.19613647,2.4908905,9.54187,2.541283E-4,2.629605E-4,0.0026139996,1.0,0.17890683,2.4451284,9.495249,-0.011778051,-0.03377487,-0.03899473,0.009414229,0.12566248,0.992027,2016-11-30 08:16:10,64.58349570971939
0.16671753,2.4222412,9.561478,4.6462627E-4,0.0017011227,0.004134465,1.0,0.18271929,2.4551647,9.492585,0.019275116,0.01712249,-0.055278625,0.00932042,0.12619597,0.99196154,2016-11-30 08:16:11,61.65329292936213
0.21574402,2.4516602,9.5516815,-5.62319E-4,-5.7352014E-4,2.2703291E-4,1.0,0.19149621,2.445999,9.494778,0.014431703,-0.0056637838,-0.06670595,-0.009419138,-0.12568964,-0.9920172,2016-11-30 08:16:12,64.95090704673743
0.16671753,2.4418488,9.5516815,-7.715473E-6,0.002114002,0.00483713,1.0,0.18364446,2.443392,9.4956045,0.006579937,-0.008270595,-0.06587962,-0.008953591,-0.1255967,-0.9920343,2016-11-30 08:16:13,65.1995043345369
0.22555542,2.4516602,9.532059,1.978527E-4,0.0017545051,0.005442994,1.0,0.17940517,2.4451938,9.495222,-0.011279701,-0.006468709,-0.05264168,-0.008591464,-0.12568024,-0.99202305,2016-11-30 08:16:14,43.47986653381462
0.16671753,2.4614716,9.590912,0.001185922,-0.00190491,-0.010042877,1.0,0.18443754,2.438083,9.496954,0.02019596,-0.012179878,-0.078494065,0.009404762,0.12541024,0.9920604,2016-11-30 08:16:15,66.3435476895209
0.21574402,2.4418488,9.561478,1.0297008E-4,-0.0018078458,-0.0025445041,1.0,0.17720488,2.4297957,9.499215,-0.013479983,-0.008246487,-0.04864885,-0.008623437,-0.12491284,-0.9921219,2016-11-30 08:16:16,61.214982039723424
0.15690613,2.4516602,9.571289,1.9027179E-4,-5.9638446E-4,-0.0017667621,1.0,0.18598709,2.4442787,9.49533,-0.0046977634,-0.04824503,-0.107015,-0.0091404645,-0.12566175,-0.9920255,2016-11-30 08:16:17,27.404811172953423
0.18632507,2.4222412,9.532059,5.933676E-4,-4.689163E-4,-0.010792096,1.0,0.16409765,2.4466398,9.495126,-0.012966865,0.035838205,-0.025496585,-0.007907293,-0.1257964,-0.9920178,2016-11-30 08:16:18,24.313771681028133
0.20593262,2.4908905,9.590912,0.0014340203,-6.029817E-4,6.0554675E-4,1.0,0.17186868,2.445939,9.495169,0.0074453023,-0.02106856,-0.052231837,-0.008269167,-0.1257935,-0.9920113,2016-11-30 08:16:19,23.62584564680034
0.19613647,2.481079,9.5811,-2.8311278E-4,-0.002595161,-0.0038447138,1.0,0.18942787,2.4594543,9.4913435,5.69753E-4,-0.005965761,-0.07014263,-0.00931065,-0.12644443,-0.9919202,2016-11-30 08:16:20,54.76014511978913
0.19613647,2.4516602,9.483032,-3.7784138E-4,0.0010082398,-0.0031602916,1.0,0.18818857,2.449726,9.493883,0.038364757,-0.0155567,-0.026740242,-0.009132292,-0.12594661,-0.9919877,2016-11-30 08:16:21,12.47768748118374
0.18632507,2.471283,9.522263,-0.0010084301,-0.0021278409,-0.001677924,1.0,0.18327798,2.4515448,9.49351,0.017881084,9.857378E-4,-0.027360406,-0.0087928055,-0.12602645,-0.991974,2016-11-30 08:16:22,65.09044569694457
0.21574402,2.481079,9.532059,8.572579E-4,0.0015247999,0.009051754,1.0,0.1728391,2.446657,9.494966,-0.0314661,-0.03224628,-0.03927738,-0.008316041,-0.12585253,-0.99200016,2016-11-30 08:16:23,63.765164831181416
0.17651367,2.4908905,9.5516815,-0.0010397376,-0.0016005945,-0.009804885,1.0,0.18292844,2.4580312,9.491838,-0.021376759,-0.020871952,-0.06964467,-0.0091126105,-0.12633635,-0.9919434,2016-11-30 08:16:24,57.18502235540991
0.20593262,2.471283,9.5516815,-7.7659584E-4,1.0581043E-4,2.870106E-4,1.0,0.17587213,2.4519503,9.493546,-0.028433083,2.8763674E-4,-0.054317616,-0.008668649,-0.12594439,-0.9919948,2016-11-30 08:16:25,27.877570466661652
0.17651367,2.4614716,9.532059,-6.081834E-4,0.0024104656,0.0037447652,1.0,0.16726072,2.437884,9.497323,-0.03704449,-0.013778507,-0.11864267,-0.008583556,-0.125313,-0.99208003,2016-11-30 08:16:26,43.76846558673863
0.17651367,2.4222412,9.5811,2.5227837E-5,-3.925054E-4,-0.004319196,1.0,0.1919281,2.4453006,9.49495,0.027901191,0.021073755,-0.06657294,-0.009751163,-0.12568972,-0.9920217,2016-11-30 08:16:27,9.692605575027796
0.19613647,2.471283,9.50264,0.0015708745,-5.984815E-4,0.0030029323,1.0,0.19758417,2.449449,9.493764,0.020519653,-0.015833944,-0.01323794,-0.009182073,-0.12601058,-0.9919548,2016-11-30 08:16:28,13.349979536670517
0.20593262,2.481079,9.5516815,-8.8916795E-4,-0.0011427079,-0.0046465537,1.0,0.18710181,2.4395947,9.496512,-0.03082375,-0.025687996,-0.07859133,0.009689988,0.12537278,0.9920623,2016-11-30 08:16:29,16.137317373448205
0.15690613,2.4516602,9.590912,0.0011215982,0.0013164387,0.002600465,1.0,0.17162888,2.4316187,9.498851,0.0074221944,-0.005142961,-0.090187415,-0.008348295,-0.12508354,-0.9921056,2016-11-30 08:16:30,64.22800921359088
0.19613647,2.4614716,9.532059,8.5084507E-4,-0.0010477833,-5.179082E-4,1.0,0.17012712,2.4385278,9.497107,0.006682943,-0.013134857,-0.03713673,-0.00840678,-0.12537435,-0.9920699,2016-11-30 08:16:31,34.46376632770186
0.14709473,2.471283,9.561478,7.9138385E-4,-0.0039004292,-0.012246186,1.0,0.18206133,2.4578264,9.49191,0.018617151,0.0061638225,-0.055953655,0.009567375,0.12637387,0.9919356,2016-11-30 08:16:32,26.415773836318074
0.16671753,2.481079,9.512451,-0.0023539008,-0.0010409601,-0.0027035156,1.0,0.18166251,2.4429338,9.495759,0.018218353,-0.022349,-0.024863118,-0.008895163,-0.1255238,-0.9920444,2016-11-30 08:16:33,60.98812673444663
0.22555542,2.4908905,9.561478,1.0822507E-4,-6.8932667E-4,4.5802628E-4,1.0,0.17573318,2.4445424,9.495459,-0.028572027,-0.04798109,-0.07964628,-0.00860419,-0.12566395,-0.99202895,2016-11-30 08:16:34,67.56404048262402
0.15690613,2.4516602,9.5516815,0.0016189116,0.0033876847,0.0032397548,1.0,0.18422394,2.4593904,9.491463,0.020779766,-0.0058923964,-0.04278056,-0.008922314,-0.12649065,-0.9919207,2016-11-30 08:16:35,50.69948857919446
0.17651367,2.500702,9.571289,9.7521447E-4,-0.0026773254,-0.0056822444,1.0,0.16638523,2.4429524,9.496035,0.0043455046,-0.048657782,-0.06570837,-0.007952943,-0.1256885,-0.9920225,2016-11-30 08:16:36,43.18115748151101
0.20593262,2.4614716,9.64975,-9.048524E-4,0.0017205054,0.005723611,1.0,0.17915426,2.46713,9.489551,0.001964799,0.028146626,-0.09892709,-0.008928312,-0.12675253,-0.9918921,2016-11-30 08:16:37,49.778645090833294
0.17651367,2.4320526,9.54187,1.18427524E-4,-0.0010614138,-5.027127E-4,1.0,0.18674485,2.4415274,9.496023,0.023300692,0.017105656,-0.03821994,-0.009248062,-0.1255071,-0.99204576,2016-11-30 08:16:38,66.47945634680781
0.15690613,2.4516602,9.5811,0.0016719262,0.0019248915,0.006114724,1.0,0.17047128,2.4451797,9.49539,-0.020213585,-0.033723537,-0.07971445,-0.007912161,-0.12577038,-0.99200547,2016-11-30 08:16:40,49.2523430782567
0.23536682,2.4516602,9.571289,8.056966E-5,-0.0018224802,-0.0029181335,1.0,0.17813958,2.4345717,9.497974,-0.026165629,-0.0034703454,-0.06350953,-0.00877579,-0.12515257,-0.9920934,2016-11-30 08:16:41,16.50246795384945
0.17651367,2.4614716,9.590912,0.001067663,0.0025524844,0.007874786,1.0,0.17693205,2.4638236,9.490451,0.013487882,0.012160965,-0.030171929,-0.008469025,-0.12670286,-0.991893,2016-11-30 08:16:42,54.764643189877035
0.20593262,2.4908905,9.561478,-2.8066654E-4,-0.0010988112,-3.2739018E-4,1.0,0.17993082,2.4441915,9.49547,0.0028663005,-0.061952464,-0.052393947,-0.008606759,-0.12564592,-0.9920213,2016-11-30 08:16:43,47.543648221494394
0.17651367,2.4614716,9.5516815,5.769384E-4,-3.3410804E-4,-0.0065913512,1.0,0.17692682,2.4505777,9.49388,-1.3768738E-4,-0.0010846648,-0.08122412,-0.008987238,-0.12597339,-0.9919928,2016-11-30 08:16:44,16.457292129493332
0.18632507,2.471283,9.571289,-5.5749936E-4,0.003581854,0.0075184344,1.0,0.17972526,2.4371622,9.497281,0.016281104,-0.0145003,-0.023341805,0.008874557,0.12526068,0.9920842,2016-11-30 08:16:45,66.95627307814205
0.21574402,2.500702,9.571289,-2.3983655E-4,7.89132E-4,0.002771248,1.0,0.16683474,2.444994,9.4955015,-0.037470464,-0.033909336,-0.06598187,-0.00833975,-0.1256694,-0.99203545,2016-11-30 08:16:46,63.54996283752097
0.20593262,2.4516602,9.5516815,-3.766646E-4,-0.0012326333,-0.0035031673,1.0,0.19402012,2.4403484,9.496181,0.016445784,-0.010927286,-0.079011984,-0.009910067,-0.12541613,-0.99205464,2016-11-30 08:16:47,30.003265028782955
0.19613647,2.4516602,9.50264,5.744833E-6,8.256186E-4,0.003234977,1.0,0.1910149,2.4396822,9.496413,3.3004704E-4,0.0016401944,-0.03783005,-0.009625648,-0.12539549,-0.99205905,2016-11-30 08:16:48,61.605905748795315
0.18632507,2.4614716,9.532059,0.002027066,-0.0034345263,-0.014981609,1.0,0.18052217,2.4376483,9.497141,0.0034576678,-0.02763474,-0.05072299,0.009274308,0.12548152,0.9920527,2016-11-30 08:16:49,63.75417407025648
0.15690613,2.481079,9.5811,-4.314848E-4,0.0035571824,0.012480214,1.0,0.1956254,2.4441853,9.495161,0.045801576,-0.007477308,-0.011841322,-0.009552948,-0.12564063,-0.9920228,2016-11-30 08:16:50,24.369837950966176
0.16671753,2.4418488,9.54187,6.619915E-5,-0.002907059,-0.0077342484,1.0,0.17465356,2.4436872,9.495698,0.01120939,0.0056450786,-0.024924638,-0.008475634,-0.12564202,-0.9920309,2016-11-30 08:16:51,58.90476097439944
0.18632507,2.471283,9.590912,0.0,-0.0,0.0,1.0,0.16730864,2.437318,9.497467,-0.009599655,-6.2827015E-4,-0.03680337,-0.007965062,-0.12529506,-0.9920753,2016-11-30 08:16:52,50.74352409217795
0.18632507,2.4516602,9.54187,-4.7389074E-4,-0.0022657895,-0.0026798744,1.0,0.17773499,2.440906,9.496357,-0.026570221,0.0028638975,-0.010645884,-0.0088292975,-0.12545605,-0.9920561,2016-11-30 08:16:53,16.697816152085366
0.19613647,2.471283,9.532059,-0.0013530194,-3.0904647E-4,-0.003916979,1.0,0.18205498,2.4333963,9.498201,-0.035041373,-0.0031525735,-0.07730196,-0.008564743,-0.12507713,-0.99209106,2016-11-30 08:16:54,13.87760479670013
0.15690613,2.481079,9.512451,9.27001E-4,0.0010666001,0.0032470194,1.0,0.18109433,2.4441438,9.4954605,-0.02321087,-0.021139015,-0.038782742,-0.008993818,-0.12566447,-0.9920291,2016-11-30 08:16:55,66.26703548456166
0.19613647,2.4908905,9.590912,-0.0025954747,0.002696217,0.0081736185,1.0,0.17094494,2.4537706,9.493164,-0.006807238,-0.014526279,-0.081148475,-0.008052048,-0.12592801,-0.99199206,2016-11-30 08:16:56,53.60288197427418
0.18632507,2.4320526,9.590912,0.0017254385,-0.001718282,-0.0077623664,1.0,0.18137375,2.4453824,9.495135,-0.02293147,0.0073401406,-0.079968825,-0.0090385275,-0.12582026,-0.9920095,2016-11-30 08:16:57,52.78018831582004
0.16671753,2.4516602,9.561478,0.0014435195,-0.0013246076,-0.001768725,1.0,0.19706398,2.456331,9.491996,0.047240153,-0.03619256,-0.06948754,-0.009865335,-0.12638524,-0.99192905,2016-11-30 08:16:58,54.604693072145196
0.18632507,2.4222412,9.492844,-8.5549505E-4,0.0014011177,0.010693281,1.0,0.1693091,2.4499357,9.4941845,0.0058649243,-0.015347207,0.028042918,-0.008708901,-0.12591855,-0.99200237,2016-11-30 08:16:59,19.016512680258554
0.17651367,2.4320526,9.50264,-0.0010397125,-2.313049E-4,-5.0876354E-4,1.0,0.1730972,2.4444537,9.495529,0.010363106,0.019025175,0.0023933703,-0.008897225,-0.12555224,-0.9920471,2016-11-30 08:17:00,65.45177482592118
0.13729858,2.471283,9.571289,-0.0,-0.0,0.0,1.0,0.17788048,2.446044,9.49503,0.014436314,-0.032859173,-0.08007358,-0.008603088,-0.12577039,-0.99201375,2016-11-30 08:17:01,63.10464256291436
0.17651367,2.4124298,9.54187,-8.534734E-5,-0.003367526,-0.0062300046,1.0,0.1741098,2.4549406,9.492805,-0.0029547191,0.03051859,-0.04143881,-0.008125426,-0.12623964,-0.9919434,2016-11-30 08:17:02,57.15095619766445
0.20593262,2.4418488,9.5516815,-4.6370763E-4,-0.0015063161,-0.0031711336,1.0,0.18545657,2.4486926,9.494204,-0.0052283015,0.024270805,-0.053660043,-0.008218622,-0.12593338,-0.991949,2016-11-30 08:17:03,56.204032300829134
0.16671753,2.4222412,9.5811,9.920447E-4,0.002295127,0.0071813716,1.0,0.18927906,2.4468575,9.494601,0.025834894,0.022435458,-0.06688302,-0.008478179,-0.12585944,-0.9919642,2016-11-30 08:17:04,59.29113325048108
0.17651367,2.4124298,9.522263,-0.0,0.0,0.0,1.0,0.18973391,2.4432375,9.495524,0.026289744,0.018815681,-0.03871873,-0.0096786395,-0.12554674,-0.99204046,2016-11-30 08:17:05,45.280641124569115
0.18632507,2.4418488,9.5811,-0.0,0.0,-0.0,1.0,0.17091577,2.4409292,9.496475,-0.006148755,0.0028869666,-0.051388048,-0.0083492985,-0.1254972,-0.9920523,2016-11-30 08:17:06,13.980485687230724
0.18632507,2.481079,9.54187,-1.855947E-4,6.100992E-4,0.0042079473,1.0,0.17583002,2.4505513,9.493907,-0.0012344973,-0.02835196,-0.053955995,-0.007802001,-0.12602556,-0.9919476,2016-11-30 08:17:07,66.01888290282388
0.20593262,2.471283,9.561478,-8.6811493E-4,-0.0017250018,-0.005188867,1.0,0.2000508,2.4406788,9.495971,0.036606617,-0.03822451,-0.106374055,-0.009482485,-0.12548131,-0.99203074,2016-11-30 08:17:08,63.86130392371599
0.22555542,2.5301208,9.5516815,0.0012833595,0.0012736524,-0.0015179508,1.0,0.16819777,2.4367127,9.497606,-0.03610745,-0.06943122,-0.036637105,0.0086780945,0.12530401,0.99208033,2016-11-30 08:17:09,61.34546352643147
0.17651367,2.500702,9.561478,-0.0026080396,-0.0010309683,0.0016078926,1.0,0.18426946,2.4542303,9.492796,-0.006415401,-0.038293302,-0.055067472,-0.009066244,-0.12599705,-0.99198043,2016-11-30 08:17:10,65.50265810613108
0.17651367,2.4516602,9.54187,-8.8609755E-4,1.9667117E-4,-0.0011252413,1.0,0.1844357,2.4376204,9.497072,0.02099152,-4.2189492E-4,-0.023550466,-0.008474666,-0.12531947,-0.9920495,2016-11-30 08:17:11,47.59395333834482
0.20593262,2.4908905,9.5811,0.0013271372,-0.0030912485,-0.015362398,1.0,0.1769465,2.4589179,9.491723,-0.027358703,-0.019985557,-0.06976105,-0.008920968,-0.12642989,-0.99193466,2016-11-30 08:17:12,58.87444137539153
0.20593262,2.500702,9.5811,-0.0010645618,-4.0174814E-4,3.140878E-4,1.0,0.19216296,2.4566083,9.492025,0.0014781,0.018566286,-0.028597407,-0.009172198,-0.12611891,-0.99195737,2016-11-30 08:17:13,42.1048221906069
0.19613647,2.4516602,9.620331,-5.299927E-4,0.0031279624,0.0074446136,1.0,0.19542783,2.4419343,9.495744,-0.008877381,0.0038922403,-0.079360306,-0.009389157,-0.12549108,-0.9920402,2016-11-30 08:17:14,60.53488917151679
0.15690613,2.471283,9.54187,0.0010611448,-2.1399003E-4,-0.004441661,1.0,0.1721122,2.445112,9.4953785,0.008668032,0.0070697535,-0.06610574,-0.00839207,-0.1258155,-0.99201816,2016-11-30 08:17:15,59.365146001342495
0.17651367,2.4614716,9.571289,0.0014279536,-5.243595E-5,0.003448426,1.0,0.17681326,2.4515789,9.493624,0.013369081,0.013536801,-0.06785982,-0.008683575,-0.1260659,-0.9919782,2016-11-30 08:17:16,10.615624210935783
0.19613647,2.471283,9.561478,-8.671451E-4,6.464642E-4,-4.852559E-4,1.0,0.17685796,2.4320383,9.498648,-0.013826892,-0.006004001,0.01888593,-0.008811439,-0.12493632,-0.9921241,2016-11-30 08:17:17,58.33209124120806
0.16671753,2.4516602,9.5516815,-0.002107345,-9.5152535E-4,-0.0038545025,1.0,0.18934657,2.4581854,9.491674,-0.014958642,0.020143092,-0.09705079,-0.009391493,-0.12630165,-0.9919438,2016-11-30 08:17:18,64.14167913391948
0.16671753,2.4908905,9.600708,9.5260615E-4,6.031326E-4,9.048691E-4,1.0,0.17331444,2.4621372,9.490955,0.02349061,-0.003145715,-0.056908015,-0.008675148,-0.12660134,-0.9919145,2016-11-30 08:17:19,16.25419639175043
0.21574402,2.471283,9.571289,-4.8152036E-5,0.0038292238,0.015366798,1.0,0.18432325,2.4375215,9.4971,-0.019829607,-0.028168865,-0.06428265,-0.009279605,-0.12527496,-0.9920774,2016-11-30 08:17:20,50.543391884474914
0.20593262,2.481079,9.532059,2.279419E-4,0.003820728,0.011351875,1.0,0.19108576,2.451084,9.493475,4.008781E-4,0.01304175,-0.095249325,-0.00910947,-0.12602386,-0.9919708,2016-11-30 08:17:21,20.565396110610457
0.17651367,2.481079,9.600708,0.0011927931,-2.09258E-4,-0.0042473855,1.0,0.18761578,2.4504097,9.493718,0.037791964,-0.04211405,-0.108626924,-0.008661501,-0.12614262,-0.9919509,2016-11-30 08:17:22,54.66612607473394
0.16671753,2.4516602,9.5516815,-0.0012708798,-0.0013373675,-0.008718778,1.0,0.16477048,2.437954,9.497349,0.014946666,-8.832775E-5,-0.036894813,-0.007891408,-0.12530065,-0.9920778,2016-11-30 08:17:23,63.82388469407216
0.19613647,2.4516602,9.50264,-1.8821475E-4,-0.0015647499,-0.0029432783,1.0,0.17405494,2.4326982,9.498529,0.010610774,0.021896763,0.0051475335,-0.008135956,-0.12504596,-0.9920942,2016-11-30 08:17:24,58.23976434035121
0.16671753,2.4222412,9.561478,0.0014596363,-8.081709E-4,-5.4859323E-5,1.0,0.18603884,2.436793,9.497253,0.048915185,-0.016538072,-0.07740421,-0.00936746,-0.12528011,-0.99207574,2016-11-30 08:17:25,52.31381482241445
0.22555542,2.471283,9.590912,2.3163516E-4,-0.0018105663,-0.0060314634,1.0,0.1765331,2.4417,9.496175,-5.3140835E-4,-0.023582887,-0.024448292,0.009193186,0.12549025,0.9920519,2016-11-30 08:17:26,48.881144221229256
0.18632507,2.4418488,9.600708,-4.2365512E-4,0.0024522506,0.00693884,1.0,0.18765414,2.4474134,9.494492,-0.00303072,0.009371263,-0.05337241,-0.008730968,-0.125822,-0.9919894,2016-11-30 08:17:27,13.45863628503764
0.25497437,2.471283,9.64975,0.0010095737,-0.0013117027,-0.007183363,1.0,0.1726197,2.435742,9.497776,-0.04530585,-0.0023002627,-0.118188776,-0.008220456,-0.12527582,-0.9920743,2016-11-30 08:17:28,64.5198842627578
0.16671753,2.500702,9.571289,8.979277E-4,-5.8637094E-4,0.0019304403,1.0,0.19093427,2.4441109,9.4952755,0.027490105,-0.0347922,-0.09344868,-0.009579,-0.12565643,-0.9920253,2016-11-30 08:17:29,46.668227104396244
0.19613647,2.4516602,9.571289,1.1362883E-4,0.003958427,0.011025556,1.0,0.18148722,2.442772,9.495805,-0.022818007,0.0047297953,-0.07929962,-0.008020861,-0.12562743,-0.99199724,2016-11-30 08:17:30,55.3673569070651
0.16671753,2.5203094,9.561478,7.485212E-4,-9.2843524E-4,0.0011680806,1.0,0.19091816,2.4466434,9.494624,0.027473997,-0.018639443,-0.053239398,-0.009615977,-0.12573986,-0.99201584,2016-11-30 08:17:31,61.554989736230695
0.17651367,2.471283,9.5811,-3.9387276E-4,0.002595146,0.0056677824,1.0,0.17760536,2.4634678,9.49053,0.014161185,-0.0018149795,-0.05733365,-0.0083764475,-0.12662613,-0.9919024,2016-11-30 08:17:32,58.6236648642368
0.20593262,2.4418488,9.54187,-0.0026732713,-1.7120244E-4,0.0037046564,1.0,0.18119748,2.4509504,9.493703,-0.009487388,0.012908323,-0.054160498,-0.008549453,-0.12594637,-0.9919806,2016-11-30 08:17:33,14.679778752797928
0.17651367,2.4908905,9.561478,3.322121E-4,-0.0031067508,-0.0056602214,1.0,0.18898377,2.4569266,9.492006,0.025539594,-0.02197657,-0.08309792,-0.00926554,-0.12632932,-0.9919377,2016-11-30 08:17:34,62.83956969518368
0.20593262,2.4908905,9.512451,-0.0010182692,5.268102E-4,0.0048750187,1.0,0.18498638,2.445804,9.494956,-0.019318812,0.0077618277,-0.012045827,-0.009260166,-0.12569308,-0.9920236,2016-11-30 08:17:35,9.04332281247144
0.19613647,2.500702,9.590912,-0.0020132777,0.0012740991,-0.0011358288,1.0,0.18415552,2.4421806,9.495906,0.0070910044,-0.023102175,-0.0791982,-0.009173944,-0.12547319,-0.9920527,2016-11-30 08:17:36,53.37469731654967
0.19613647,2.481079,9.561478,-4.989256E-4,-0.0037353528,-0.01334469,1.0,0.1811039,2.4411898,9.49622,0.031280078,0.0031475856,-0.010783052,-0.008976773,-0.12547822,-0.99205214,2016-11-30 08:17:37,52.3470277655485
0.16671753,2.481079,9.571289,4.6045706E-4,-3.7602015E-4,5.858841E-4,1.0,0.17682979,2.4471602,9.494763,0.014163992,-0.031083263,-0.053285122,-0.008902908,-0.12584057,-0.99200875,2016-11-30 08:17:38,55.401139715314415
0.18632507,2.500702,9.561478,-8.7310956E-4,5.785117E-4,0.001755858,1.0,0.17680629,2.4528008,9.493308,-0.0138785755,0.014758632,-0.05455538,0.009158023,0.12603347,0.9919837,2016-11-30 08:17:39,46.69812637899717
0.21574402,2.481079,9.630127,-8.6915767E-4,-4.84026E-4,0.0086973775,1.0,0.18220986,2.4515417,9.493531,-0.022095356,0.013499389,-0.0679521,-0.009151972,-0.12594563,-0.9919889,2016-11-30 08:17:40,12.710182992152333
0.17651367,2.510498,9.522263,-2.513501E-4,0.0020706216,0.0058875317,1.0,0.1829596,2.4371374,9.497226,0.01951542,-0.06900663,-0.009777155,-0.008771682,-0.12529092,-0.99206936,2016-11-30 08:17:41,54.77153186253905
0.18632507,2.4516602,9.532059,-0.0012140559,-0.0036456578,-0.0061791902,1.0,0.18190104,2.440906,9.496277,-0.008783818,-0.01075645,-0.051586732,-0.008737686,-0.1254688,-0.99204504,2016-11-30 08:17:42,62.43973059803218
0.14709473,2.4418488,9.54187,3.1559594E-4,8.47933E-4,0.004481247,1.0,0.18018483,2.4530396,9.493184,0.0031203078,0.014997429,-1.9868548E-4,-0.008940828,-0.12612657,-0.9919701,2016-11-30 08:17:43,67.32006937673636
0.16671753,2.4418488,9.5516815,-5.807915E-4,9.876898E-4,0.007217323,1.0,0.17542848,2.4378793,9.497177,-0.015256385,-0.027403632,-0.09154746,-0.007817393,-0.12534845,-0.9920349,2016-11-30 08:17:44,31.944287695769823
0.18632507,2.471283,9.571289,1.6021031E-4,9.407664E-4,0.0035108498,1.0,0.17260219,2.4346263,9.498063,-0.017775064,-0.03070335,-0.06341475,-0.00850723,-0.12515016,-0.9920971,2016-11-30 08:17:45,19.715271038691533
0.18632507,2.4908905,9.5811,-0.0011602371,-0.0021263063,-0.006052249,1.0,0.17075835,2.4337022,9.498332,-0.019926507,-0.045200948,-0.07677157,0.009015218,0.12502915,0.99211067,2016-11-30 08:17:46,24.15446359914451
0.18632507,2.471283,9.5516815,7.8445714E-4,-1.3964962E-4,-0.0018828593,1.0,0.17727767,2.4458163,9.495102,-0.013407192,-0.019466605,-0.03914187,-0.009049307,-0.1257316,-0.99202293,2016-11-30 08:17:47,38.37748191975538
0.18632507,2.4614716,9.5516815,-0.0020122563,-4.5708017E-5,-0.0020757653,1.0,0.17634648,2.4493258,9.494215,-0.028545868,-0.031832907,-0.093918376,-0.00855945,-0.12574942,-0.99201846,2016-11-30 08:17:48,33.35833023898272
0.19613647,2.4614716,9.54187,2.6948247E-4,-0.0016441342,-0.005902926,1.0,0.18228224,2.4446294,9.495312,0.018838076,-0.020653524,-0.06617224,0.009644401,0.12562783,0.99202824,2016-11-30 08:17:49,23.781214575343128
0.16671753,2.4614716,9.571289,0.001992312,-0.0017509313,-0.0055930256,1.0,0.1887855,2.454431,9.492656,0.02534131,-0.024472192,-0.068828315,0.010082964,0.12618868,0.9919508,2016-11-30 08:17:50,61.60842384523672
0.19613647,2.4516602,9.600708,0.0013351052,0.0020856666,0.011471282,1.0,0.17901003,2.453915,9.492979,0.0019455097,0.0022524616,-0.054884583,-0.008572641,-0.12620346,-0.991954,2016-11-30 08:17:51,64.01998315629689
0.20593262,2.4516602,9.571289,-0.0018239017,7.8052597E-4,0.0032702112,1.0,0.18960592,2.4400392,9.49635,0.0125413975,0.029237734,-0.07875427,-0.00889792,-0.12539805,-0.9920439,2016-11-30 08:17:52,44.01779270245165
0.17651367,2.4418488,9.5516815,0.0021070607,-0.0024486932,-0.0065200725,1.0,0.18177277,2.4457161,9.495041,-0.009773219,0.005582937,-0.065887935,-0.009111366,-0.12576616,-0.9920161,2016-11-30 08:17:53,35.85946219245478
0.21574402,2.4320526,9.610519,7.3772775E-5,0.0032642423,0.009723018,1.0,0.17351677,2.4448848,9.495411,-0.0035477492,-0.0203981,-0.052452967,-0.008270023,-0.12570122,-0.9920213,2016-11-30 08:17:54,66.90463073167972
0.18632507,2.4614716,9.561478,0.0016159063,0.0013314782,0.0030902193,1.0,0.18055606,2.4411364,9.4962435,0.017111892,-0.024146523,-0.051619984,-0.009086227,-0.1256075,-0.9920377,2016-11-30 08:17:55,31.327285075326714
0.15690613,2.5301208,9.610519,2.8313103E-4,0.0045389137,0.010233256,1.0,0.16670997,2.4509144,9.493978,0.016886149,-0.06884992,-0.10836756,-0.0073187137,-0.12605438,-0.991951,2016-11-30 08:17:56,28.6740978434053
0.20593262,2.4614716,9.512451,-9.125668E-4,-0.0023902284,-0.0049099517,1.0,0.18281701,2.4499283,9.493936,-0.007867847,-0.05621573,-0.094788775,-0.008589814,-0.12595874,-0.99197674,2016-11-30 08:17:57,24.49063577188817
0.17651367,2.4614716,9.5811,-8.200735E-4,-0.0015824568,-0.0022767028,1.0,0.18006665,2.4416084,9.496131,0.031443473,-0.010924169,-0.065151386,-0.008825166,-0.12545428,-0.9920518,2016-11-30 08:17:58,59.88662615222131
0.20593262,2.4908905,9.5811,2.0848993E-4,1.723425E-4,7.896214E-4,1.0,0.18329525,2.4411354,9.496192,-0.0073896036,-0.024147354,-0.065291874,-0.008972216,-0.12548722,-0.99204814,2016-11-30 08:17:59,65.0093882327434
0.18632507,2.471283,9.532059,-7.458746E-6,-0.0018231665,-0.008959735,1.0,0.1898045,2.444282,9.4952545,0.027351703,-0.021076249,-0.03898974,0.010107594,0.12559368,0.99202573,2016-11-30 08:18:00,66.90604970725717
0.21574402,2.481079,9.54187,-3.1906213E-5,0.0013858569,0.008398361,1.0,0.19202027,2.452841,9.493003,-0.05314599,-0.039682645,-0.05486047,-0.009514229,-0.12608562,-0.99196815,2016-11-30 08:18:01,66.51508101848296
0.19613647,2.4614716,9.561478,-7.32165E-4,0.0012119254,2.9186832E-4,1.0,0.18502975,2.4472387,9.494586,-0.005655119,-0.00442387,-0.03965729,-0.008449276,-0.12583338,-0.9919819,2016-11-30 08:18:02,26.002602788385882
0.16671753,2.471283,9.561478,3.8128777E-4,-0.0038092523,-0.015547394,1.0,0.16854492,2.4513276,9.493839,0.005100746,-0.01395537,-0.040404648,-0.008494013,-0.1260225,-0.99199003,2016-11-30 08:18:03,57.21953203699384
0.21574402,2.4418488,9.561478,-6.366487E-5,-0.0018563191,-0.012687216,1.0,0.16623138,2.4371617,9.497527,-0.010833139,-8.8057574E-4,0.0041449615,-0.007523398,-0.12532884,-0.99205965,2016-11-30 08:18:04,58.30713248533543
0.21574402,2.4516602,9.532059,8.1505906E-4,-1.3243615E-4,8.4349496E-4,1.0,0.18658789,2.444183,9.495344,-0.017717328,0.0197611,-0.052519474,-0.009572885,-0.12564412,-0.9920292,2016-11-30 08:18:05,14.072846550556687
0.16671753,2.4516602,9.620331,0.0011753717,0.002359753,0.0059034256,1.0,0.18753494,2.4662948,9.489606,-0.0022282493,0.026911492,-0.044306863,-0.009252985,-0.12682648,-0.9918778,2016-11-30 08:18:06,24.259890893490052
0.17651367,2.4614716,9.54187,8.957692E-4,-0.001053082,-0.0025394256,1.0,0.18783364,2.4477396,9.494403,0.010769128,-0.003922791,-0.03984018,-0.008972801,-0.12588187,-0.9919896,2016-11-30 08:18:07,48.68886286487729
0.20593262,2.4320526,9.5516815,-7.919217E-4,-0.0013344418,-0.0073024635,1.0,0.17472938,2.4327507,9.498505,-0.04319618,-0.005291352,-0.049358796,-0.008811547,-0.12500079,-0.99211687,2016-11-30 08:18:08,21.199085454072968
0.19613647,2.481079,9.54187,0.0014039172,-1.7940237E-4,2.9469814E-4,1.0,0.18652508,2.4517672,9.49339,0.009460552,-0.013515809,-0.027233213,0.009670974,0.12604156,0.9919777,2016-11-30 08:18:09,26.52780014631899
0.22555542,2.471283,9.522263,-2.3592838E-4,3.739724E-4,7.079226E-4,1.0,0.18719548,2.461266,9.490918,-0.0034893749,0.009603617,-0.08418612,-0.00968529,-0.12648305,-0.9919215,2016-11-30 08:18:10,66.90390147645658
0.17651367,2.471283,9.571289,4.184611E-4,0.0019483139,4.5716212E-4,1.0,0.17179285,2.4354768,9.497859,-0.005271673,-0.016185801,-0.10448612,-0.008142919,-0.12522179,-0.9920822,2016-11-30 08:18:11,58.380635087741254
0.18632507,2.4614716,9.571289,-4.189445E-4,-0.0014859987,-0.0013402712,1.0,0.18038096,2.450057,9.49395,0.0033164213,-0.0016054868,-0.06753394,-0.008849388,-0.12594825,-0.991991,2016-11-30 08:18:12,67.02478991362702
0.18632507,2.471283,9.5516815,0.0020311794,-8.65609E-4,-4.166923E-5,1.0,0.18423608,2.4410667,9.49619,-0.02006913,-0.024216145,-0.07891388,-0.008802166,-0.12567404,-0.9920138,2016-11-30 08:18:13,61.41511793122429
0.18632507,2.4908905,9.571289,-0.0017238496,8.4189366E-4,0.0013758398,1.0,0.18161207,2.4521334,9.493391,0.0045475676,-0.026769958,-0.054473076,-0.008812092,-0.12602621,-0.99197966,2016-11-30 08:18:14,64.41433681508093
0.25497437,2.4418488,9.5516815,-0.0022313695,5.1964505E-4,0.0042120246,1.0,0.180665,2.438257,9.496982,0.003600486,-0.013405452,-0.13260385,-0.008674409,-0.12528859,-0.9920697,2016-11-30 08:18:15,66.18352570357708
0.20593262,2.481079,9.561478,0.0030298494,0.00228144,0.005431891,1.0,0.18298434,2.4442449,9.495398,-0.008743565,-0.017678436,-0.039690547,-0.008276213,-0.12594801,-0.9919675,2016-11-30 08:18:16,58.27377674502717
0.18632507,2.500702,9.620331,-4.45091E-4,-0.0015375019,-0.00938113,1.0,0.17576264,2.4555013,9.49263,-0.0013018862,-0.023401868,-0.10971512,-0.008513451,-0.12625413,-0.99195343,2016-11-30 08:18:17,53.931974953249494
0.16671753,2.4418488,9.512451,-0.0016426201,-0.0043637627,-0.01391159,1.0,0.1858358,2.430717,9.498814,0.02239162,-0.0073251766,-0.02180885,0.009995983,0.12484571,0.9921199,2016-11-30 08:18:18,65.77993710564986
0.17651367,2.4614716,9.5516815,-4.4158963E-4,9.794566E-4,0.005682073,1.0,0.17476755,2.4346972,9.498004,0.011323384,-0.044206064,-0.022618556,0.0090384185,0.12510991,0.9921017,2016-11-30 08:18:19,17.12263771214374
0.19613647,2.4320526,9.54187,0.0014680055,0.0031396,0.0060625887,1.0,0.17652558,2.4394445,9.496755,-0.027779637,-0.012218119,-0.119211294,-0.008769369,-0.12542298,-0.9920624,2016-11-30 08:18:20,41.43401210274122
0.17651367,2.471283,9.532059,7.0467155E-4,-0.0025333865,-0.007833223,1.0,0.1821117,2.4374452,9.497162,0.0050471774,-0.014217235,-0.06432173,-0.009278314,-0.12533332,-0.99207085,2016-11-30 08:18:21,60.40368741838222
0.19613647,2.4908905,9.571289,0.0012199852,-9.195515E-4,-0.004144019,1.0,0.17847499,2.4568508,9.49223,-0.025830206,-0.022052428,-0.06925395,-0.009000138,-0.12632433,-0.9919473,2016-11-30 08:18:22,52.22075923920194
0.16671753,2.4614716,9.512451,-3.1410638E-4,0.0019169874,0.006603048,1.0,0.1797422,2.454771,9.4927435,0.01629803,0.0031085133,-0.014258801,-0.008728954,-0.12619545,-0.99195904,2016-11-30 08:18:23,13.022948442274052
0.19613647,2.4516602,9.532059,6.2709366E-4,-7.6745666E-4,-0.0017882389,1.0,0.17843673,2.4541364,9.492932,0.028422663,-0.025411166,-0.054761544,-0.008804244,-0.12616514,-0.99196607,2016-11-30 08:18:24,57.31933077970814
0.17651367,2.4614716,9.512451,-0.0015817437,9.3537767E-4,0.009337598,1.0,0.19129117,2.4497242,9.493822,0.027847001,-0.0019384305,-0.013180579,0.009971751,0.12584975,0.9919988,2016-11-30 08:18:25,65.5993618292424
0.19613647,2.471283,9.5516815,5.8084563E-4,-0.0017752995,-0.0034405997,1.0,0.19896446,2.4622824,9.490414,-0.005340751,-0.016620789,-0.057449203,0.0103362,0.12657316,0.9919032,2016-11-30 08:18:26,26.242219162630892
0.15690613,2.4418488,9.532059,-0.0012134631,8.410476E-4,0.0024860033,1.0,0.17125879,2.4468143,9.494954,0.007814629,0.008772089,-0.066529706,-0.008487204,-0.12564537,-0.99203575,2016-11-30 08:18:27,18.67283300875544
0.15690613,2.471283,9.54187,0.0011976453,0.0024536306,0.012830596,1.0,0.16826212,2.4521236,9.493639,-0.008802393,4.611748E-4,-0.095085554,-0.0075990255,-0.12612265,-0.9919496,2016-11-30 08:18:28,57.69939289368938
0.20593262,2.481079,9.54187,6.583222E-4,0.0010458906,0.003101529,1.0,0.17399253,2.4520159,9.493563,0.01054836,-0.026887385,-0.08154169,-0.007995209,-0.12610863,-0.99195653,2016-11-30 08:18:29,65.61909533324123
0.20593262,2.4516602,9.600708,-7.313404E-4,-7.7596644E-4,0.004286006,1.0,0.17674832,2.450657,9.493863,-0.013936548,0.012614866,-0.0948611,-0.008586996,-0.12596564,-0.99198794,2016-11-30 08:18:30,49.83436674092091
0.19613647,2.4614716,9.5811,0.0013435661,0.0026915015,0.010290867,1.0,0.1911187,2.4410527,9.496058,0.027674539,-0.010609722,-0.06542572,-0.008720034,-0.125561,-0.9920109,2016-11-30 08:18:31,57.04551004905657
0.19613647,2.471283,9.492844,2.3155008E-4,-0.0025851217,-0.01050261,1.0,0.16989759,2.448634,9.494511,-0.020787274,-0.016649054,0.0011281013,-0.007871275,-0.12591168,-0.9919868,2016-11-30 08:18:32,19.889582142366727
0.16671753,2.4614716,9.571289,0.0011414605,-0.0016790024,-0.0064698085,1.0,0.18198937,2.4454632,9.495103,0.018545203,-0.019819709,-0.02551986,-0.0088572,-0.12576222,-0.9920133,2016-11-30 08:18:33,60.85829122182621
0.18632507,2.471283,9.5516815,8.296812E-4,-0.002037526,-0.011686964,1.0,0.16878282,2.4643292,9.490468,-0.021902049,0.012666617,-0.04377565,-0.008431249,-0.12674937,-0.991898,2016-11-30 08:18:34,37.80345369922331
0.20593262,2.471283,9.5811,-0.0015376419,-0.0017577087,-0.0039301766,1.0,0.18330258,2.4468486,9.49472,-0.022155095,0.024620168,-0.09454686,0.0096291015,0.1256833,0.9920228,2016-11-30 08:18:35,58.844152465989865
0.19613647,2.471283,9.571289,0.0018866321,0.0066443086,0.021693906,1.0,0.1921468,2.4468236,9.494553,-0.012158432,-0.045699947,-0.06693124,-0.0095374305,-0.12593925,-0.99198973,2016-11-30 08:18:36,62.30476323644019
0.20593262,2.4418488,9.532059,8.216632E-4,-2.2462408E-4,-0.0038383664,1.0,0.18956873,2.4378178,9.496921,0.01250421,-2.2445642E-4,-0.05094329,-0.008979381,-0.12536442,-0.9920528,2016-11-30 08:18:37,56.881216966076295
0.19613647,2.4516602,9.5516815,-7.310155E-4,0.0018722313,-9.1491634E-4,1.0,0.18187918,2.4426641,9.495825,-0.010896957,-0.009936352,-0.038135976,-0.008869039,-0.1254854,-0.9920525,2016-11-30 08:18:38,63.56671508043586
0.19613647,2.500702,9.532059,-2.035971E-4,-3.823139E-4,-0.0010926554,1.0,0.17491111,2.4347901,9.497978,0.02508729,-0.044113167,-0.036264673,-0.008492289,-0.12518941,-0.9920889,2016-11-30 08:18:39,49.89682847274503
0.18632507,2.481079,9.5811,-7.460412E-4,4.6208926E-4,-0.002191637,1.0,0.18132678,2.4482186,9.494407,0.003363326,-0.031566676,-0.06683397,-0.00881893,-0.12579684,-0.9920113,2016-11-30 08:18:40,57.84824739332574
0.14709473,2.471283,9.561478,-4.910068E-4,-0.002933627,-0.008317463,1.0,0.17710488,2.451084,9.493747,-0.01357999,-0.06868033,-0.05411727,-0.0090511,-0.1259776,-0.99199164,2016-11-30 08:18:41,63.209890714444754
0.19613647,2.4908905,9.5516815,1.9691378E-4,-8.117478E-4,0.0038247989,1.0,0.18080862,2.446321,9.4949045,0.0037441095,-0.005341439,-0.09382029,-0.008936099,-0.12576495,-0.99201465,2016-11-30 08:18:42,63.24134385296168
0.19613647,2.471283,9.5811,-6.657649E-4,-4.272853E-5,-0.0033761458,1.0,0.19688104,2.4382467,9.496662,-0.0074241683,-0.040656332,-0.037581485,-0.009773634,-0.1253215,-0.9920649,2016-11-30 08:18:43,45.49568585999863
0.18632507,2.4516602,9.522263,-0.0025177312,3.336208E-4,-0.0024677576,1.0,0.17658602,2.4365966,9.497484,0.013141845,0.012174889,-0.064,-0.008554103,-0.12504409,-0.99210817,2016-11-30 08:18:44,66.08606430115942
