ACC_X,ACC_Y,ACC_Z,GYRO_X,GYRO_Y,GYRO_Z,LIGH_1,GRAV_X,GRAV_Y,GRAV_Z,LINACC_X,LINACC_Y,LINACC_Z,ROTVEC_X,ROTVEC_Y,ROTVEC_Z,TIME,VOICE
0.0,0.0,0.0,0.0,0.0,0.0,81.0,0.0,0.0,0.0,0.0,0.0,0.0,0.0,0.0,0.0,2016-12-07 18:11:26,7.70545198148703
4.2724304,6.809082,6.4168243,0.061021842,0.26262814,0.53311044,29.0,0.365959,5.1723003,8.3236885,-3.2025719,-1.7332158,2.5759015,0.21583691,0.17690574,0.67279714,2016-12-07 18:11:27,9.742813588778304
7.292877,-0.82702637,7.188278,-0.32715315,-0.15633988,0.17135441,31.0,6.830075,1.8937814,6.7774673,-0.48405188,2.7518632,-0.45493698,0.38133672,-0.10176329,0.80529803,2016-12-07 18:11:28,25.300288506470224
7.371338,-0.9708557,6.5214233,-0.07702215,-0.014590555,0.0010609303,19.0,7.3590875,-0.5297186,6.4601564,0.008462006,0.42713636,-0.1336164,0.35227275,-0.22005364,0.8108444,2016-12-07 18:11:29,36.64014050908891
7.2798004,-1.2454376,6.416809,-0.028187063,0.0066189403,0.0053904764,17.0,7.3718147,-1.2255938,6.3501697,0.09854884,0.013857794,-0.06501421,0.33211294,-0.25663546,0.80020845,2016-12-07 18:11:30,16.21349410930967
7.188278,-0.33015442,6.5083466,0.06471301,0.008749505,-0.010008559,19.0,7.305147,-0.7822173,6.495641,0.11360404,-0.49619,0.025976675,0.3472486,-0.21884707,0.8172804,2016-12-07 18:11:31,35.78844229158453
6.9136963,-0.17324829,6.586792,-0.022130836,0.014304657,-0.018725445,23.0,7.216097,-0.33532426,6.632186,0.18799803,0.032425143,0.03993786,0.34564155,-0.20324928,0.81063676,2016-12-07 18:11:32,13.866475693098117
6.5606537,0.41514587,6.704483,0.05209578,0.030025236,0.025027351,24.0,6.770696,-2.883372E-4,7.0942273,0.26017034,-0.4225191,0.42025724,0.33637604,-0.15719287,0.84075844,2016-12-07 18:11:33,19.704340518649055
6.756775,-0.21247864,7.0182953,0.034286343,0.0042175776,0.0631331,21.0,6.728124,0.101076804,7.1338997,0.081394546,0.34624305,0.13304114,0.33932698,-0.14484856,0.8505023,2016-12-07 18:11:34,45.53457925805282
7.253647,-1.1931458,6.5868073,-0.05231132,-0.010032877,-0.04281684,23.0,6.761676,-0.266782,7.097815,0.046844885,-0.048856445,0.96865827,0.33234394,-0.17563055,0.8367089,2016-12-07 18:11:35,25.59410332609573
4.285507,-0.16017151,9.463425,0.15601045,0.31877252,0.24042822,39.0,5.8616047,-1.072151,7.7886124,2.619962,-0.66354054,-1.1054745,0.23643437,-0.1860965,0.8497513,2016-12-07 18:11:36,23.45206222019737
8.835785,-0.3432312,3.7363281,-0.10527069,-0.37723133,-0.11967644,9.0,7.2993016,-0.48271754,6.5312777,-1.4994429,-0.14220889,2.8129227,0.3414189,-0.2427469,0.77188253,2016-12-07 18:11:37,43.26630241473857
8.861938,-0.39553833,3.7886353,-0.0070808344,-0.014276356,-5.784447E-4,26.0,8.978327,-0.37052825,3.9271784,0.1251012,0.010841479,0.14072171,0.45963603,-0.2980987,0.7201091,2016-12-07 18:11:38,48.53439550111123
8.963272,-0.4020691,3.7951813,0.016302826,-7.3545607E-4,0.008080593,29.0,9.006018,-0.37948567,3.8623865,0.0846899,0.029124776,0.062309515,0.45760372,-0.30606842,0.71289855,2016-12-07 18:11:39,39.97592960107633
8.943665,-0.38246155,3.8932343,0.052650854,-0.0038113114,0.02414106,29.0,9.004572,-0.4172892,3.8618605,0.083244234,-0.06316014,-0.01993838,0.46564868,-0.29376742,0.72591734,2016-12-07 18:11:40,42.40569475368247
8.927322,-0.35630798,3.801712,-3.4021275E-4,-0.0011835726,-7.572497E-4,30.0,9.009287,-0.39700118,3.8529897,0.08795948,-0.042872135,0.05291269,0.4682849,-0.29033107,0.7279146,2016-12-07 18:11:41,20.118170517055734
8.924057,-0.38246155,3.8736267,-0.009401502,1.5124894E-4,-0.0031336749,30.0,9.013403,-0.3844482,3.8446264,0.119316034,0.010541866,0.017308915,0.4646651,-0.29674158,0.7216619,2016-12-07 18:11:42,37.88759465058776
8.933853,-0.4216919,3.7755585,0.010373305,-0.0011510069,0.005120999,30.0,9.008417,-0.40666568,3.854015,0.07346957,0.029185465,0.01307708,0.45661083,-0.3082509,0.71206856,2016-12-07 18:11:43,12.93822758719649
8.924057,-0.4216919,3.8540192,-0.035776336,-1.2815876E-4,-0.015204713,30.0,9.009945,-0.40889642,3.8502069,0.10223823,-2.8600008E-4,0.11823158,0.4496766,-0.3188441,0.70179856,2016-12-07 18:11:44,37.21069161690026
8.943665,-0.39227295,3.8736267,0.052894805,4.4158878E-5,0.021899551,30.0,9.011587,-0.3910872,3.848212,0.090259746,-0.009717481,0.034514744,0.46663016,-0.29296273,0.7253158,2016-12-07 18:11:45,29.858379680886294
8.943665,-0.4020691,3.8638153,0.015503083,-4.8434644E-4,0.0067642005,26.0,9.004076,-0.388116,3.866054,0.05541829,0.020369887,-0.0019278311,0.4575562,-0.30579832,0.713527,2016-12-07 18:11:46,23.235528730131247
8.933853,-0.44129944,3.8540192,0.013803167,3.1109608E-4,0.006952403,31.0,8.998242,-0.4059637,3.877786,0.09053491,0.002646741,0.00960715,0.46513775,-0.29296637,0.72626626,2016-12-07 18:11:47,18.53622173172828
8.943665,-0.39227295,3.8540192,-0.0024598865,-0.001514036,-0.0011874608,30.0,9.001543,-0.4014464,3.8705878,0.08021574,-0.020076664,0.029649861,0.4618768,-0.29899046,0.7204898,2016-12-07 18:11:48,33.2582769185148
8.914246,-0.43148804,3.7853699,-0.0670651,0.0016948943,-0.028243504,24.0,9.002791,-0.41001573,3.866784,0.081463546,0.03945572,0.08032755,0.46125126,-0.3002217,0.71977365,2016-12-07 18:11:49,44.13897520507891
8.953476,-0.39227295,3.8343964,0.041375767,-0.0024598707,0.015993048,26.0,9.013028,-0.40291163,3.8436153,0.050839376,-0.007921571,-0.010943081,0.4653699,-0.29573804,0.72335327,2016-12-07 18:11:50,43.81741579193687
8.943665,-0.38246155,3.8540192,-0.021085765,0.0016692841,-0.009655557,26.0,9.006884,-0.40623572,3.857645,0.07193579,-0.05210667,0.016707039,0.46096686,-0.30134064,0.7184869,2016-12-07 18:11:51,35.305489256723945
8.933853,-0.39227295,3.8246002,0.023798998,-0.0011241194,0.011869022,26.0,9.006189,-0.41286686,3.8585613,0.11210184,0.009363911,0.004002806,0.4638252,-0.2968437,0.7230104,2016-12-07 18:11:52,40.868792493989226
8.933853,-0.39227295,3.8540192,0.011031687,-7.176144E-4,0.006388188,26.0,9.00105,-0.41570273,3.870232,0.093342274,-0.007092303,0.042914405,0.4685127,-0.28839716,0.73060805,2016-12-07 18:11:53,41.56068418066834
8.914246,-0.4020691,3.8736267,-0.006178123,-9.879644E-4,-0.003620114,29.0,9.001762,-0.3998183,3.8702466,0.09405555,-0.0048282025,0.029308602,0.46004385,-0.3018405,0.71775126,2016-12-07 18:11:54,23.245996556992985
8.914246,-0.4216919,3.8147888,-0.011218789,-6.512598E-4,-0.004150861,29.0,9.008175,-0.39538604,3.8557563,0.059606478,-3.9594216E-4,0.0011979322,0.45736578,-0.3070456,0.71268463,2016-12-07 18:11:55,24.561128739951457
8.924057,-0.38246155,3.8442078,-0.03315688,0.0027960227,-0.015735088,29.0,8.998687,-0.40731812,3.8766117,0.07735932,-0.01232806,0.035673603,0.45749864,-0.30490735,0.71524,2016-12-07 18:11:56,15.356105459087928
8.894638,-0.4118805,3.8147888,0.077075906,-0.0053268913,0.03336667,17.0,9.001854,-0.39121628,3.8709123,0.109008506,0.002269062,0.08141408,0.45942456,-0.30295298,0.7164465,2016-12-07 18:11:57,33.63467426018144
8.943665,-0.4020691,3.8147888,0.020503424,2.6454695E-4,0.00789557,21.0,9.006811,-0.39344347,3.8591413,0.058242284,0.001546593,0.04544411,0.45076045,-0.3163662,0.7035125,2016-12-07 18:11:58,25.497591431974058
8.953476,-0.38246155,3.9226532,0.010332165,-4.0097753E-4,0.005248216,19.0,9.002752,-0.40206927,3.867708,0.05418461,0.006541164,0.13573295,0.46203336,-0.29889816,0.7206373,2016-12-07 18:11:59,13.06603712795711
8.982895,-0.39227295,3.8246002,0.018915014,-7.6387473E-4,0.008738854,19.0,9.001665,-0.4104751,3.8693566,0.025856547,-0.015485024,0.04203902,0.43645096,-0.33500457,0.68488884,2016-12-07 18:12:01,16.44356515484432
8.914246,-0.4086151,3.7886353,-0.022278523,-1.5817616E-4,-0.009753304,19.0,9.007168,-0.38858637,3.8587985,0.099460796,0.006403684,0.07234189,0.44777527,-0.3206152,0.6989678,2016-12-07 18:12:02,41.33442299036777
8.924057,-0.4020691,3.8246002,0.10082119,-0.0039067436,0.043421905,21.0,9.012666,-0.38334146,3.8464663,0.09133879,-0.0019717612,0.032768972,0.4546321,-0.31169185,0.7076227,2016-12-07 18:12:03,37.262203722999146
8.943665,-0.39227295,3.8147888,0.021403667,-0.0021465975,0.009834206,18.0,9.009079,-0.41002655,3.8521135,0.06051012,-0.028656822,0.024795784,0.46448797,-0.2964556,0.72311544,2016-12-07 18:12:04,18.005309285485886
8.943665,-0.4118805,3.7853699,0.034127466,-0.0014392472,0.014123433,20.0,9.020311,-0.37754062,3.8290768,0.085364096,0.017449459,0.042620115,0.45998856,-0.3052492,0.71343744,2016-12-07 18:12:05,33.89874558390985
8.9730835,-0.43148804,3.8638153,-0.0067573907,0.0011875097,-0.002275517,27.0,9.010144,-0.4177245,3.8487911,0.102436915,-0.009114074,0.04871411,0.46291074,-0.29911384,0.72104925,2016-12-07 18:12:06,51.942849412135274
8.924057,-0.38246155,3.8246002,-0.01651931,-0.0029511775,-0.008746196,31.0,9.022035,-0.40516353,3.822191,0.100706935,-0.0101734605,-0.018747099,0.4653875,-0.29763812,0.72160685,2016-12-07 18:12:07,38.83923446671136
8.914246,-0.39553833,3.8278656,0.16696717,-0.008426955,0.072463304,30.0,9.012095,-0.41641206,3.844363,0.10438885,-0.0078016524,0.030665735,0.47737983,-0.27589142,0.7408308,2016-12-07 18:12:08,49.04864307122017
8.914246,-0.39227295,3.8147888,-0.018548528,-0.0013085419,-0.008208002,27.0,9.012902,-0.3964078,3.8445854,0.09157489,-0.028658433,0.030888112,0.4889243,-0.254934,0.7559524,2016-12-07 18:12:09,19.863424511626036
8.884827,-0.30400085,3.8540192,0.005719598,-4.4265838E-4,0.0011078008,31.0,9.010093,-0.38807946,3.8520138,0.088765025,-0.02033006,0.024696024,0.49533713,-0.24135101,0.7651979,2016-12-07 18:12:10,51.621243696563965
8.904434,-0.4118805,3.7755585,0.3313641,-0.014546116,0.14348528,19.0,9.007121,-0.38376066,3.8593876,0.07217354,0.03847009,0.004829138,0.5219974,-0.17541069,0.8018826,2016-12-07 18:12:11,50.15949339819275
8.943665,-0.4118805,3.883438,-0.24386342,0.010149917,-0.10460846,31.0,9.007125,-0.39475524,3.858271,0.08579721,2.3482194E-4,0.03095337,0.4776644,-0.27415708,0.7414444,2016-12-07 18:12:12,52.67450027847432
8.884827,-0.39227295,3.8246002,-0.04962069,-1.0646124E-5,-0.022257797,26.0,9.002498,-0.40745246,3.8677402,0.12203113,-0.012462422,0.067663215,0.45530215,-0.30912322,0.71125484,2016-12-07 18:12:13,33.424835435869625
8.888092,-0.46092224,3.9978485,-0.19675308,0.010874481,-0.08512971,23.0,9.007917,-0.42364934,3.8533542,0.11289326,0.0400464,-0.2032536,0.45409986,-0.31171438,0.70949364,2016-12-07 18:12:14,45.49525956300121
8.927322,-0.38246155,3.801712,0.11322934,-0.008287337,0.04523807,27.0,8.999585,-0.40060616,3.8752286,0.051016446,-0.019236434,0.04791105,0.46619317,-0.29183415,0.726825,2016-12-07 18:12:15,39.530733686153134
8.894638,-0.4118805,3.8049774,-0.04362062,0.0025848066,-0.017538723,26.0,9.010248,-0.3893342,3.8515255,0.102540836,0.005655886,0.037828386,0.48417807,-0.26300022,0.74984026,2016-12-07 18:12:16,16.86058762305817
8.943665,-0.44129944,3.8638153,0.09794603,-0.0043705753,0.041047063,24.0,9.012087,-0.41359657,3.844687,0.06351867,-0.018606475,0.044609882,0.49532413,-0.24206947,0.7654867,2016-12-07 18:12:17,24.730366275265503
8.943665,-0.4216919,3.8147888,-0.17420587,0.006471042,-0.075334065,23.0,9.011226,-0.39695036,3.8484588,0.07627777,-0.015580651,0.102863386,0.49107942,-0.25036725,0.7592796,2016-12-07 18:12:18,15.080525185101045
8.963272,-0.4118805,3.8638153,-0.43296966,0.021184487,-0.18447468,18.0,9.013005,-0.40813816,3.8431156,0.0771174,0.0018600785,0.0045323567,0.38260633,-0.3968789,0.60551304,2016-12-07 18:12:19,30.86874212360592
8.914246,-0.38246155,3.8278656,0.31128904,-0.015116287,0.13542485,24.0,9.009067,-0.40486538,3.8526852,0.087739184,-0.02349565,0.03898808,0.45749065,-0.30710328,0.71316314,2016-12-07 18:12:20,40.78194821042348
8.940399,-0.39553833,3.8147888,-0.09317351,0.0030622121,-0.03926416,22.0,9.013714,-0.38639703,3.8437018,0.078765914,0.008593043,0.03000442,0.44479492,-0.32589048,0.69345826,2016-12-07 18:12:21,39.66618900993603
8.933853,-0.39227295,3.8540192,0.2860925,-0.012657517,0.12183897,22.0,9.012478,-0.38952142,3.846285,0.077529736,0.019089004,0.05982844,0.51365215,-0.200221,0.7896941,2016-12-07 18:12:22,35.36773537605197
8.940399,-0.39553833,3.8147888,0.0055272444,0.0013381591,0.0019712676,18.0,9.014131,-0.3944195,3.841911,0.09280275,-0.01304975,0.05545445,0.5270315,-0.1618444,0.8074563,2016-12-07 18:12:23,31.41044556469717
8.953476,-0.4020691,3.8147888,-0.29225597,0.013501005,-0.12468004,20.0,9.012748,-0.38967377,3.845637,0.09142027,-0.008304056,0.059180424,0.4694214,-0.28901434,0.7287069,2016-12-07 18:12:24,42.634199030022366
8.943665,-0.4118805,3.8442078,0.0087136,0.0015188459,0.0042317016,25.0,9.011697,-0.39609376,3.8474443,0.0767483,-0.0011036552,0.07460806,0.51196355,-0.20388003,0.7880922,2016-12-07 18:12:25,35.68426149366571
8.924057,-0.39227295,3.8049774,-0.03745748,0.0017122513,-0.015591836,22.0,9.008271,-0.39366984,3.8557038,0.08678399,0.014673447,0.042354092,0.47576642,-0.277565,0.7386167,2016-12-07 18:12:26,14.929930675654346
8.933853,-0.4118805,3.8442078,-0.008429244,-7.497418E-4,-0.0030331274,28.0,9.014161,-0.40495136,3.8407423,0.1200742,-0.009961292,0.06790596,0.4974764,-0.23825431,0.76774675,2016-12-07 18:12:27,37.16146518893303
8.953476,-0.39227295,3.7951813,0.010342628,0.0031394933,0.004440929,26.0,9.002364,-0.39494714,3.8693488,0.05379555,-0.013577404,0.08289217,0.48726785,-0.25536355,0.7559481,2016-12-07 18:12:28,39.079759213835
8.953476,-0.4216919,3.8246002,-0.0061253933,4.8266127E-4,-0.0021779907,26.0,9.006927,-0.3999717,3.8581963,0.058358666,0.0086387405,0.044498898,0.46975225,-0.2874337,0.7306241,2016-12-07 18:12:29,30.556402881623143
8.953476,-0.4216919,3.8442078,0.038861863,-0.002178281,0.016212402,20.0,9.009841,-0.39707312,3.8516862,0.047652096,0.011537319,0.037988834,0.45811242,-0.3062088,0.71351075,2016-12-07 18:12:30,14.009694792256557
8.943665,-0.4020691,3.8343964,0.007260472,-0.0011624014,0.0024183209,25.0,9.011455,-0.39913458,3.847697,0.07650721,-0.01776484,0.03399974,0.47038576,-0.2874105,0.73046726,2016-12-07 18:12:31,42.97747201282597
8.943665,-0.37265015,3.7951813,-0.02066136,0.0012674255,-0.014953224,28.0,8.997381,-0.37921947,3.8824887,-0.14187224,-0.22939567,0.08241166,0.47616404,-0.2743143,0.74035674,2016-12-07 18:12:32,15.18212241719243
8.940399,-0.38246155,3.8540192,0.055984803,-0.0023055251,0.027933855,28.0,9.0076475,-0.37940848,3.8585935,0.07269977,0.0019612398,0.017655576,0.48771143,-0.2557599,0.7549359,2016-12-07 18:12:33,54.54052292691586
8.901169,-0.38246155,3.7886353,-0.01443829,0.0012338774,-0.0070621455,17.0,9.0222,-0.3900024,3.8233764,0.07360757,-0.010121607,-0.004038968,0.4879815,-0.25864133,0.75274163,2016-12-07 18:12:34,37.44863679149304
8.940399,-0.38246155,3.7886353,-0.024228051,-2.2483499E-4,-0.00960308,24.0,9.011896,-0.38839382,3.8477607,0.09056899,-0.007024109,0.061304033,0.48513424,-0.2619081,0.75059026,2016-12-07 18:12:35,27.261088703940338
7.9466553,-0.8662567,4.3378143,-0.16698837,0.07829287,-0.1781623,1.0,8.737635,0.2224866,4.446867,0.53818494,0.19524589,-1.3690217,0.46605057,-0.21787451,0.75822526,2016-12-07 18:12:36,41.76321735876179
7.855133,-1.9645996,5.38385,-0.37586546,-8.7706075E-4,-0.14102425,1.0,8.469987,0.15891248,4.9400864,0.73362994,2.1883442,-0.37184945,0.370313,-0.33184528,0.6402045,2016-12-07 18:12:37,48.49444240152792
7.319031,-3.415985,5.501526,0.08217255,-0.028740432,0.19566736,2.0,7.711476,-2.7101438,5.4183626,0.2611459,0.5178787,-0.097878374,0.2464461,-0.40371865,0.6975825,2016-12-07 18:12:38,35.77972646809555
8.378159,-0.892395,5.60614,-0.007915029,-0.0027342907,-0.14614367,3.0,7.696263,-2.1855767,5.6710835,-1.7652274,-0.9662239,0.28840986,0.2894679,-0.35732195,0.721435,2016-12-07 18:12:39,31.420451481577444
9.136536,0.8074188,4.9392853,-0.75385284,0.05334541,-0.45810008,3.0,8.745324,-1.0301154,4.316081,-0.33944792,-1.8337158,-0.5872441,0.26761407,-0.45745188,0.5065706,2016-12-07 18:12:40,45.162731701663304
8.103561,-0.33015442,5.38385,-0.11438099,0.022952544,0.0033492618,4.0,9.116373,-0.00795995,3.6141493,1.0122659,0.2916877,-1.765888,0.07144446,-0.55643487,0.10841762,2016-12-07 18:12:41,53.88469828148821
8.247391,-0.27786255,5.122345,-0.07768232,0.017948115,-0.03669774,3.0,8.205907,-0.35955265,5.3576293,0.020078043,-0.059904974,0.1818974,0.01998442,-0.4754748,0.076549985,2016-12-07 18:12:42,57.65809994026911
8.809647,-1.2454529,3.8147888,-0.04684393,-0.031786665,-0.027220426,3.0,8.573727,-0.40403596,4.743244,-0.22501837,0.78093433,0.79334325,0.003703092,-0.5090558,0.04683023,2016-12-07 18:12:43,62.228587383402676
8.587357,-0.4086151,4.45549,0.17101824,0.017812107,0.06829087,37.0,9.042618,-0.4143914,3.7722342,0.4209372,-0.0057809735,-0.68161964,0.096125305,-0.5424679,0.18241608,2016-12-07 18:12:44,31.33578158089248
8.600433,-0.38246155,4.4947205,-0.04390714,0.008230233,-0.022564173,37.0,8.702593,-0.3936539,4.503368,0.108153075,-0.012284182,0.0086532105,0.048818137,-0.5175528,0.11858064,2016-12-07 18:12:45,47.05825025865416
8.600433,-0.4118805,4.462021,0.005647801,-0.0010832237,0.004133938,36.0,8.686309,-0.4057402,4.53363,0.09187001,0.002870236,0.038914923,0.046492435,-0.5164313,0.116360486,2016-12-07 18:12:46,25.629888632447404
8.610245,-0.4216919,4.4718323,0.0169243,-0.0018350414,0.008794925,36.0,8.687748,-0.40666458,4.5307918,0.093308195,-0.02529486,0.07693826,0.046326004,-0.51663667,0.11607014,2016-12-07 18:12:47,38.70139219115677
8.620041,-0.4020691,4.5699005,0.028255777,0.0010026554,0.015027413,36.0,8.681593,-0.40858713,4.5423994,0.061193466,2.1575352E-4,0.05887367,0.045549337,-0.51604325,0.11518578,2016-12-07 18:12:48,26.95010789680274
8.629852,-0.4020691,4.49144,0.032599468,-0.0042249477,0.017686833,37.0,8.689426,-0.40508732,4.5277114,0.10860697,-0.010097265,0.07385779,0.060056325,-0.5155377,0.1384709,2016-12-07 18:12:49,68.73972659508802
8.600433,-0.39227295,4.520859,-0.027329516,0.0021225028,-0.01308494,23.0,8.689499,-0.41682944,4.526505,0.09505979,-0.021839349,0.07265114,0.05320148,-0.51611423,0.12835844,2016-12-07 18:12:50,39.87398378562552
8.629852,-0.4216919,4.501251,0.028899299,-0.0015803839,0.017321534,37.0,8.694397,-0.42161095,4.5166473,0.07271723,-0.01300052,0.021932716,0.0550543,-0.5164189,0.13175622,2016-12-07 18:12:51,35.66833107237763
8.600433,-0.4118805,4.49144,-0.042730886,0.0016444671,-0.024096161,37.0,8.692338,-0.4111289,4.521573,0.09789874,0.011101837,0.054098982,0.053303275,-0.51636726,0.12775335,2016-12-07 18:12:52,43.15067424714872
8.620041,-0.4020691,4.4424133,0.00581058,-0.0012012607,0.003235338,38.0,8.699586,-0.40361837,4.5082917,0.0779055,0.004992051,0.054438163,0.060977813,-0.5161838,0.1394454,2016-12-07 18:12:53,31.61779638067863
8.620041,-0.43148804,4.49144,9.5357E-4,-3.3601135E-4,0.0013283404,37.0,8.69252,-0.41736865,4.5206504,0.05721976,0.004862105,0.05317663,0.05050161,-0.5167132,0.12391444,2016-12-07 18:12:54,40.818275659601085
8.620041,-0.4216919,4.501251,0.0044058766,9.148625E-4,0.0014299655,37.0,8.691255,-0.41163194,4.52361,0.06957484,-0.016641857,0.042515785,0.050119087,-0.51656586,0.122681506,2016-12-07 18:12:55,47.930272992026055
8.659271,-0.39227295,4.4129944,-0.0028859174,-7.3990304E-5,-0.0016771284,37.0,8.691054,-0.40731648,4.524384,0.09661519,-0.02594672,0.12501183,0.04230488,-0.5173595,0.10939881,2016-12-07 18:12:56,42.968835620795645
8.64946,-0.43148804,4.501251,-0.021777358,0.0034842556,-0.010618614,37.0,8.686121,-0.4151474,4.5331388,0.11892199,-0.006536981,0.052044377,0.04666203,-0.5162595,0.11769211,2016-12-07 18:12:57,51.610193160147055
8.571014,-0.43148804,4.49144,0.015614604,-0.0018821441,0.00787189,37.0,8.6886,-0.4143557,4.5284586,0.0669196,0.007875095,0.07460515,0.050648604,-0.51634884,0.12386666,2016-12-07 18:12:58,39.160880439214424
8.629852,-0.39227295,4.4816437,-0.018336086,0.0027163175,-0.009250126,37.0,8.690759,-0.4235637,4.523461,0.095169514,-0.028742421,0.044560004,0.047688764,-0.5166734,0.11991646,2016-12-07 18:12:59,53.107092131766365
8.580826,-0.4118805,4.501251,0.035376795,-0.003564014,0.019422052,37.0,8.69274,-0.40760994,4.5211196,0.111921445,0.014620841,0.0536455,0.058701508,-0.5158731,0.13642369,2016-12-07 18:13:00,44.30212901736405
8.629852,-0.39227295,4.4522247,-0.009617424,-3.5408768E-4,-0.0069360025,36.0,8.688189,-0.4201314,4.528715,0.06650893,-0.038761675,0.020380227,0.05700575,-0.5156468,0.1346425,2016-12-07 18:13:01,55.44191319953881
8.64946,-0.4216919,4.432602,0.027292596,-0.001079149,0.0148843955,14.0,8.693793,-0.41008285,4.5188684,0.08573403,-0.0014724237,0.06501463,0.06089046,-0.5156465,0.14013197,2016-12-07 18:13:02,41.640200666721505
8.600433,-0.4216919,4.4816437,-0.02852716,0.0013027533,-0.0141766695,8.0,8.693382,-0.4126586,4.519427,0.11256323,-0.004048165,0.05195293,0.055629857,-0.51623017,0.13186005,2016-12-07 18:13:03,55.72353996697749
7.9924164,-0.07846069,2.5791473,-0.034024283,-0.013427173,0.01571813,14.0,8.696708,-0.4870909,4.5055966,1.396202,-0.18744324,2.244619,0.051451426,-0.5180551,0.13326226,2016-12-07 18:13:04,50.99883162510562
8.914246,-0.38246155,3.867096,0.3094292,0.017958837,0.12551233,7.0,9.16863,-0.28337902,3.4678998,0.26092225,0.09799071,-0.34579733,0.38084763,-0.42110524,0.5711402,2016-12-07 18:13:05,54.72468246724365
8.43045,-2.1215057,4.3639526,-0.06835406,0.024245627,-0.028612815,21.0,8.990255,-0.3803236,3.8988504,0.38219604,0.54586005,-0.8546506,0.3919741,-0.38033086,0.62701416,2016-12-07 18:13:06,37.784824244212466
0.5197449,4.782379,4.311661,0.44504356,0.31771177,-0.07618873,115.0,7.126091,0.41054234,6.724633,8.6924305,-4.737949,2.1890574,0.34668896,-0.1731089,0.7829589,2016-12-07 18:13:07,35.332036180030684
-0.72242737,5.0831146,8.61351,-0.08211953,0.041554593,-0.097987376,113.0,-0.4311395,4.517539,8.693466,0.18177615,-0.2359623,0.45315585,0.19773988,0.13218485,0.45905226,2016-12-07 18:13:08,41.259524445321276
-2.2914886,6.1160736,6.5214233,0.08173978,0.06957544,-0.055959973,91.0,-1.5024041,5.6709785,7.8583183,0.853916,-0.56714064,1.4976164,0.22616515,0.22318467,0.46576774,2016-12-07 18:13:09,34.82865547657892
-2.0299835,6.390671,6.482193,0.04596922,0.012092744,0.010560821,85.0,-2.469711,6.382024,7.0242934,-0.45389968,0.007700933,0.55462843,0.2510649,0.2825011,0.42444474,2016-12-07 18:13:10,33.200077330768906
-2.108429,6.7306213,6.272995,0.05725864,-0.018529786,-0.022479497,88.0,-2.0587337,6.9450936,6.6104226,-0.28808853,0.32560438,-0.009066377,0.29606542,0.27627268,0.40668094,2016-12-07 18:13:11,23.73907652513807
-1.1539154,6.926758,6.3383636,0.028053554,-0.08071695,0.013959482,80.0,-1.7161142,6.8838296,6.7703943,-0.531144,-0.035306994,0.40969196,0.30756816,0.24567932,0.3876322,2016-12-07 18:13:12,32.283137221734286
-1.7423248,6.6260223,6.3514404,-0.01310521,0.024955431,-0.006759154,86.0,-1.4228097,7.011743,6.706823,0.2252524,0.43311527,0.5640465,0.31368738,0.24395372,0.40635732,2016-12-07 18:13:13,46.560953258809114
-1.7030792,6.49527,6.1814575,-8.3441735E-4,0.007851393,0.001609505,87.0,-1.8059665,6.8868265,6.7439237,0.005539709,0.3354393,0.45132324,0.29629794,0.26166207,0.41344935,2016-12-07 18:13:14,24.702573190507277
-1.5984802,6.4429626,6.861389,-0.009942061,-0.017512947,-0.0074133873,91.0,-1.6105443,6.720586,6.957748,-0.27588123,0.37491077,0.19792691,0.28821453,0.24883468,0.42484966,2016-12-07 18:13:15,45.35215083073094
-1.0885315,6.9136963,7.044449,0.039926007,-0.037923213,-0.0075997836,86.0,-1.472883,6.9081464,6.802832,-0.26067203,0.24779655,1.0005639,0.30881304,0.24448454,0.41438612,2016-12-07 18:13:16,29.65738551669899
-0.09480286,6.6652527,6.861389,0.04328684,-0.089949735,-0.06116508,94.0,-1.1052717,7.0354357,6.741767,-0.81924444,0.266123,-0.19098954,0.32775077,0.22204573,0.39352795,2016-12-07 18:13:17,26.226866698740515
0.049041748,7.8159027,3.3833008,-0.018840035,0.3279622,0.42432874,70.0,0.15918595,6.78117,7.0824285,0.5154951,-0.40155542,2.9019098,0.2853416,0.23621055,0.61995906,2016-12-07 18:13:18,46.22342767703871
8.195084,-0.14709473,4.494705,-0.26585862,-0.24240936,0.39974746,21.0,7.8687267,3.0101776,5.0191994,-1.1888043,2.9556963,0.27931854,0.48334834,-0.11483732,0.73259586,2016-12-07 18:13:19,41.61960260423805
8.861938,-0.43475342,3.906311,0.3988831,-0.006076983,0.32454672,15.0,8.823919,0.84639364,4.1943364,-0.029306525,1.2686245,0.27167663,0.4685152,-0.25992015,0.7006638,2016-12-07 18:13:20,45.40180460355945
8.848862,-0.38246155,3.9586182,0.034571532,0.0024030684,0.025891993,21.0,8.935604,-0.33822128,4.0262837,0.10961952,0.043148447,0.117243975,0.5030152,-0.20394024,0.79024476,2016-12-07 18:13:21,60.10266806314422
8.875015,-0.4216919,3.9978485,-0.009846791,3.8900352E-4,-0.0035024614,14.0,8.940222,-0.38461754,4.0118437,0.073375635,0.023992883,0.021081861,0.50395876,-0.2037176,0.79107934,2016-12-07 18:13:22,54.64742483087964
8.672348,-0.24679565,4.350876,-0.0065037874,2.9919457E-4,-0.0022327122,26.0,8.935601,-0.41538492,4.019065,0.20495862,0.061327234,0.31433043,0.50524306,-0.1995616,0.79437715,2016-12-07 18:13:23,43.535448680017325
0.85972595,7.358261,7.149048,0.035505485,0.34742352,-0.38496917,88.0,6.755768,1.7380234,6.892696,5.775103,-5.548863,0.20510578,0.35715827,-0.12219131,0.74876934,2016-12-07 18:13:24,40.73980848131599
-0.90548706,6.0899353,7.2798004,0.02807885,-0.033371627,-0.17552976,98.0,1.3970479,6.9003196,6.82673,2.2687502,0.7984039,-0.3920543,0.3646633,0.13688831,0.4788117,2016-12-07 18:13:25,33.223033019100455
-0.7616577,6.116089,7.149048,-0.01006135,0.050290372,-0.031173883,93.0,-1.1137383,6.3746943,7.368396,-0.03773081,0.16381577,0.5854629,0.26699403,0.23060761,0.47798526,2016-12-07 18:13:26,30.919547800999236
-1.6377106,7.358261,5.0438843,0.063246734,0.009865976,-0.010597701,54.0,-1.4271872,6.768817,6.9510164,0.27535617,-0.58617043,0.5766942,0.29165074,0.2582923,0.4534194,2016-12-07 18:13:27,22.42215212272317
-1.1408386,6.31221,6.0768585,-0.10584653,0.0041489024,0.042171545,85.0,-1.3632317,7.053991,6.674819,0.012423455,0.6660478,-0.7210301,0.30587336,0.241971,0.42663145,2016-12-07 18:13:28,22.050971760132498
-1.5200348,6.5214233,6.3514404,0.050267316,-0.027667744,-0.035667717,86.0,-1.5009642,6.9853263,6.7173443,-0.043587044,0.36583737,0.13871656,0.31101564,0.24968508,0.41130054,2016-12-07 18:13:29,38.894153980595505
-1.5461731,5.6845856,7.201355,-0.043051247,-0.04743241,-0.071780235,97.0,-1.7181147,6.4558425,7.179177,-0.042812046,0.7761574,0.042114675,0.2766016,0.23668878,0.40210107,2016-12-07 18:13:30,42.05592670416713
-0.9708557,5.9722443,7.1621246,-0.009723861,-0.042441398,0.02961668,97.0,-1.0106496,5.9647937,7.718175,-0.057225265,-0.014538956,0.5811127,0.2689941,0.18354058,0.40222225,2016-12-07 18:13:31,49.16053423366169
-1.0623779,5.893799,7.2798004,-0.0016002074,0.035393648,0.028505666,99.0,-1.0759296,6.125644,7.5821657,-0.027162861,0.228034,0.2952799,0.2716728,0.19922267,0.41647115,2016-12-07 18:13:32,30.3353600074248
-1.0623932,5.9068756,7.319031,-0.008480461,0.017565284,0.025480472,97.0,-1.0956986,6.0752954,7.6197524,-0.0060708183,0.13682406,0.2647646,0.2628235,0.20563081,0.44002837,2016-12-07 18:13:33,26.230682966541252
-1.0362396,5.8545685,7.371338,-2.0950225E-4,0.004022249,7.0551847E-4,94.0,-1.1148335,6.1078568,7.5908923,-0.038826074,0.23748653,0.16780278,0.26572695,0.2057859,0.43346876,2016-12-07 18:13:34,45.751742730130395
-1.114685,5.7630463,7.46286,-0.008950007,0.009707924,0.013935456,94.0,-1.1344829,6.0158463,7.6611323,0.00962627,0.26805913,0.2789037,0.25934532,0.20465289,0.4374348,2016-12-07 18:13:35,33.70525811076365
-1.2585144,5.60614,7.580536,-0.006329488,-0.008416787,-0.015408921,96.0,-1.1370684,5.905326,7.7462635,0.020661108,0.28012243,0.2686926,0.250981,0.2036589,0.44509697,2016-12-07 18:13:36,35.258006531738786
-0.73550415,5.2400208,7.6720734,-0.029292498,-0.013909129,0.020525897,101.0,-1.1527799,5.7020574,7.89481,-0.035911467,0.3628816,-0.16843541,0.2409988,0.19305307,0.44130507,2016-12-07 18:13:37,24.49134350056056
-0.9185486,5.396927,7.6066895,0.009276744,0.004936875,-0.0019554629,98.0,-0.9254967,5.5253057,8.048904,-0.012933365,0.15888853,0.3125464,0.23827468,0.18171558,0.44479924,2016-12-07 18:13:38,23.930374859360906
-0.33015442,5.226944,7.305954,-5.9930317E-4,-0.0049280743,-0.02972943,99.0,-1.0292735,5.581195,7.997579,-0.4435986,0.3101206,0.30208257,0.24126157,0.18436374,0.4307254,2016-12-07 18:13:39,22.081613218145844
-0.683197,5.0438843,7.9466553,-0.026897997,0.0012118333,0.022090198,103.0,-0.7694779,5.4808726,8.095575,-0.08846056,0.4549644,0.18215302,0.24148846,0.16876723,0.4336241,2016-12-07 18:13:40,24.10555813250296
-0.30400085,5.056961,8.077408,-0.0021780767,-0.031683523,-0.010699582,102.0,-0.655465,5.2519436,8.255776,-0.3558174,0.21241514,0.17891005,0.23270892,0.15753001,0.43748558,2016-12-07 18:13:41,31.031056959025186
-0.2386322,5.0831146,7.9335785,0.001977909,-0.008809006,-9.318522E-6,103.0,-0.3237861,5.2292266,8.289797,-0.079820804,0.15166436,0.33420646,0.24015975,0.14055547,0.43576032,2016-12-07 18:13:42,26.3215559402608
0.14709473,4.775833,7.1294403,0.015213202,0.011222168,-1.3350217E-4,101.0,-0.2745521,5.334339,8.224345,-0.1257485,0.036698207,0.7371132,0.2440264,0.14645782,0.45000222,2016-12-07 18:13:43,44.30968933030225
-0.55244446,5.3446198,7.9205017,0.007204358,-0.010539115,-0.023186095,100.0,-0.2848057,5.492632,8.11913,0.24638788,0.1670762,0.08312535,0.2561233,0.14326817,0.42144307,2016-12-07 18:13:44,50.543673460235745
-1.0231628,5.1484985,7.8289795,-0.012526161,0.03451582,0.0039862846,102.0,-0.6468992,5.386482,8.169316,0.37462685,0.25161064,0.40571827,0.24135219,0.15848728,0.42354745,2016-12-07 18:13:45,29.881807167238005
-0.8008728,5.174637,7.698227,-0.010201081,0.0026133496,0.021890627,103.0,-0.96144885,5.2603674,8.220374,-0.13060765,0.084635444,0.4976373,0.22746606,0.17029709,0.42802966,2016-12-07 18:13:46,52.333844260624566
-0.8924103,5.0961914,7.972809,0.0087503465,-0.0027440942,0.007385099,100.0,-0.69972956,5.329649,8.202171,-0.04450425,0.16586497,0.27037936,0.23677061,0.1608223,0.4311827,2016-12-07 18:13:47,28.1089449159208
-0.4216919,5.279251,7.907425,0.006466437,-0.032940757,5.859297E-4,97.0,-0.45867598,5.3523254,8.204427,-0.063685924,0.10849183,0.22290269,0.24451786,0.14824328,0.42691043,2016-12-07 18:13:48,46.61287536525105
-0.90548706,5.070038,8.182007,-0.018396085,0.03355711,-0.009624746,97.0,-0.88453555,5.205074,8.264091,-0.08093503,0.19278602,0.3098072,0.22176309,0.1701643,0.43902287,2016-12-07 18:13:49,45.791554155641904
-0.94470215,5.0177307,8.090485,0.0014315413,-0.0034197927,0.0012579758,100.0,-0.8757037,5.230938,8.248687,0.1866834,0.21865006,0.11733916,0.22617766,0.16806364,0.43721178,2016-12-07 18:13:50,40.84266606142393
-0.77471924,5.017746,7.959732,-0.0022564498,0.001887625,0.0033983525,100.0,-0.93820614,5.1738143,8.27779,-0.17546672,0.16152631,0.32350734,0.22245617,0.1686253,0.43464833,2016-12-07 18:13:51,43.437217686874455
-0.85317993,5.004669,7.894348,2.9296012E-5,-0.0011800097,7.934477E-6,98.0,-0.86913174,5.1843715,8.278726,-0.0246702,0.18570402,0.36530364,0.2239886,0.16654593,0.43774292,2016-12-07 18:13:52,51.67540659541483
-0.5916748,4.6516113,7.68515,-0.015039443,0.012493078,-0.011605022,97.0,-1.0691066,5.07397,8.323595,-0.41533,0.42943123,0.32845122,0.21402295,0.1719768,0.43365777,2016-12-07 18:13:53,52.064909726528626
-1.0231628,3.8932343,9.044998,-0.06272654,-0.01183486,-0.025235815,108.0,-1.4818662,4.7394657,8.456472,-0.40585887,0.7623242,-0.3695126,0.19385579,0.17337552,0.4016307,2016-12-07 18:13:54,53.00527828415418
-1.389267,5.985321,7.3844147,0.03199665,0.030247482,0.09443211,101.0,-0.93530554,4.4151464,8.706438,-0.98978686,-1.2100574,3.5579474,0.19055025,0.15504211,0.4587172,2016-12-07 18:13:55,25.33554941588551
-0.5132141,5.004669,7.371338,-0.04648786,-0.015556392,-0.0029869583,112.0,-0.40717697,5.423363,8.160376,0.15125728,0.42469564,0.85986924,0.23529285,0.16687362,0.49442765,2016-12-07 18:13:56,36.43927015679581
-0.93162537,4.7169952,7.9466553,-0.023867287,1.9845308E-4,-0.018576002,113.0,-0.6740363,5.1456227,8.320976,0.25214732,0.43298262,0.38031396,0.21746795,0.16728027,0.48142567,2016-12-07 18:13:57,22.749800354523636
-1.0885315,4.7562256,7.698227,-0.005117898,0.014660529,0.022426272,110.0,-1.1537372,5.120005,8.28401,-0.20894855,0.40683886,0.180921,0.20387688,0.18977155,0.48374945,2016-12-07 18:13:58,30.1396892020492
-0.7485657,5.5276794,7.5543976,0.07360554,-0.08028166,-0.06896671,105.0,-1.3348643,5.345673,8.112479,-0.55850446,-0.3884933,0.55318695,0.21930036,0.20401588,0.47721592,2016-12-07 18:13:59,29.335273578491766
-0.90548706,5.815338,7.5543976,-0.004510512,0.057723556,0.020042917,100.0,-1.0427787,5.797892,7.840118,-0.29365954,-0.031616766,0.29444525,0.24470042,0.20139953,0.4612981,2016-12-07 18:14:00,36.41138303135501
-1.1016083,5.946106,7.580536,0.0055710613,0.03862656,-0.0021954468,97.0,-1.4032928,5.9196825,7.6914587,-0.15022078,0.17189577,0.75870174,0.23890284,0.22798891,0.46967116,2016-12-07 18:14:01,24.22627451910861
-0.65704346,5.38385,7.7766724,-0.037572008,-0.012615173,0.024625942,111.0,-0.8638673,5.7398486,7.90432,-0.010809654,0.7169441,0.37591875,0.24709895,0.18765396,0.45734227,2016-12-07 18:14:02,32.33022036067642
-0.683197,5.462311,7.907425,2.7376393E-4,-0.004555563,2.6846112E-4,109.0,-0.57489544,5.5529656,8.062534,0.09250161,0.0912062,0.14911304,0.2452724,0.16961282,0.45928815,2016-12-07 18:14:03,27.550486568040526
-0.081726074,5.671509,7.5936127,0.010987113,-0.03293647,-0.0062268046,108.0,-0.45165163,5.7308717,7.945031,-0.30182785,0.037566107,0.27677554,0.2584778,0.16806237,0.4562961,2016-12-07 18:14:04,53.6470292103769
-0.94470215,5.7630463,8.103561,0.0021516064,0.036160436,0.007583163,105.0,-0.35112137,5.889319,7.8334575,0.37075707,0.11429154,-0.18892746,0.26981083,0.16667348,0.44703677,2016-12-07 18:14:05,51.749165095649886
-0.22555542,4.468567,8.43045,-0.08151033,0.08123758,0.05411251,115.0,-0.5484607,5.2159743,8.286325,0.3777229,0.28540838,0.018774532,0.22139204,0.16260731,0.47561815,2016-12-07 18:14:06,26.433519051859715
-2.3045654,3.5663605,8.79657,-0.016896691,0.046261873,-0.20384446,116.0,-2.1177044,4.5496593,8.425339,0.252236,0.84492457,0.035204742,0.17274275,0.2022674,0.38561347,2016-12-07 18:14:07,30.4935210331727
-2.7752838,4.0893707,8.221252,0.014491322,0.018470995,-0.009692996,116.0,-2.2340765,3.8845665,8.722926,0.31292862,-0.11981567,0.36003307,0.14355534,0.18850537,0.37172186,2016-12-07 18:14:08,29.194191586485402
-0.17324829,4.7693024,8.521988,0.045486767,-0.073679194,0.11608466,113.0,-1.3697109,4.2755265,8.71861,-1.1926465,-0.46435416,0.12417011,0.16195245,0.17268474,0.4854822,2016-12-07 18:14:09,44.783109477769386
-0.43476868,5.122345,8.535049,0.032472696,-0.024957957,0.0041245944,111.0,-0.19277704,5.1076365,8.369306,0.22945374,-0.09533619,0.44226307,0.23240568,0.14197476,0.47411996,2016-12-07 18:14:10,28.336132021567323
2.1803436,5.2400208,7.855133,0.016135626,-0.2175915,-0.06785226,107.0,1.0131922,5.461361,8.081915,-1.3838978,0.32632223,0.6088397,0.28986278,0.068505995,0.39747483,2016-12-07 18:14:11,33.2142926360419
0.5589752,4.128601,9.345734,-0.0828815,0.14833577,-8.95989E-4,113.0,1.0189953,5.030812,8.356014,0.85555106,0.7812633,0.45621267,0.25684008,0.069338135,0.40979606,2016-12-07 18:14:12,47.068016930351966
-0.65704346,5.1354218,7.5674744,0.06827286,0.050179843,-0.01252591,113.0,0.032567453,5.0364213,8.414499,0.69996446,-0.0984495,0.8143453,0.24083407,0.11764509,0.42391273,2016-12-07 18:14:13,45.434814283497396
-0.5001373,4.7693024,8.548126,1.459408E-4,-0.011575595,-0.015850812,113.0,-0.7114646,5.237183,8.260516,-0.2225501,0.46795708,-0.30547103,0.2311698,0.15922317,0.4326963,2016-12-07 18:14:14,21.580859434563678
-0.9708557,4.6123962,8.286621,-0.034226384,0.063632935,0.053711858,115.0,-0.820747,4.6964974,8.569696,0.25526044,0.07919986,0.17956181,0.19046049,0.16099073,0.4753198,2016-12-07 18:14:15,23.010028514105954
-0.90548706,5.2661743,7.3974915,0.04931533,-8.2572945E-4,0.016194142,108.0,-0.76751333,4.9758716,8.415581,-0.018394254,-0.1589991,0.7473251,0.20991972,0.16665688,0.47714657,2016-12-07 18:14:16,22.986802699413968
-0.5132141,4.128601,8.822723,0.034286678,-0.03272442,-0.09974738,114.0,-1.6148674,5.6576037,7.8456435,-1.0291926,1.4897774,-0.49000913,0.2344331,0.21067923,0.41747257,2016-12-07 18:14:17,26.237832132086606
-0.2386322,4.8608246,6.9921417,-0.017370405,-0.0085829925,0.10641211,115.0,-0.745937,4.8953886,8.464582,-0.59611315,0.032924846,1.2321776,0.21405642,0.14957795,0.4334299,2016-12-07 18:14:18,23.602501398593954
0.5851288,4.2070465,8.469681,-0.04880358,0.01340174,0.082745984,114.0,0.47706622,4.5772033,8.659794,-0.09498839,0.3821362,0.18793735,0.21835503,0.10095645,0.49879688,2016-12-07 18:14:19,24.194738491974945
0.7551117,4.285507,8.495834,0.0023200298,0.001946797,0.019907165,108.0,0.6557724,4.344685,8.767216,-0.10696704,0.067895986,0.28173852,0.20867726,0.09750813,0.5396595,2016-12-07 18:14:20,21.06792722167336
0.9120178,4.1939697,8.508896,-0.0017679875,-6.4843096E-4,0.020882035,104.0,0.81033224,4.344976,8.754139,-0.102231055,0.13628827,0.2686627,0.21131927,0.094812304,0.5552964,2016-12-07 18:14:21,25.09423758953689
0.8597107,4.141678,8.57428,7.777633E-4,0.0014828157,-0.0014398079,106.0,0.9253231,4.3101964,8.759931,0.040000524,0.1696109,0.24721296,0.21133234,0.09331328,0.57080513,2016-12-07 18:14:22,24.670219922612915
0.88586426,4.063217,8.6527405,-9.637685E-4,-1.9204669E-4,0.010934302,106.0,0.937036,4.2375903,8.794044,0.038093057,0.21958779,0.077020966,0.20835496,0.09057524,0.57240355,2016-12-07 18:14:24,23.86037970491566
-1.3369751,5.2400208,6.2337646,0.048771735,0.02749844,0.0028501123,111.0,1.2153404,4.370593,8.694323,2.9451246,-0.5054912,2.129315,0.21982774,0.09435278,0.6022587,2016-12-07 18:14:25,42.66368862442589
0.31054688,6.2860565,6.71756,0.04215703,-0.054490324,-0.07408037,106.0,0.42593357,5.4982166,8.109166,0.12628594,-0.79438406,1.4215755,0.26548997,0.12961899,0.48429614,2016-12-07 18:14:26,26.442477435598562
0.035964966,7.1621246,5.710739,0.031222126,0.04605289,-0.013989239,82.0,-0.23584868,5.96468,7.7805753,-0.13391405,-0.87764364,1.2759632,0.27281287,0.1734775,0.47376195,2016-12-07 18:14:27,29.264839294807345
-0.93162537,6.6260223,7.188278,-0.013109658,0.042916026,-0.026498856,89.0,-0.24056515,7.3162117,6.5257616,0.75372016,0.83292615,-0.78836495,0.36478996,0.18343762,0.37969747,2016-12-07 18:14:28,27.642430903047156
-1.0623932,6.756775,6.246826,-0.01130838,0.029302623,-0.015748756,89.0,-1.0524913,6.5896716,7.1860204,-0.1796705,-0.0136606665,0.7981096,0.29394013,0.21770659,0.41842556,2016-12-07 18:14:29,28.55060845303747
-1.3108215,6.364517,6.9529114,-0.003133417,0.0054520457,0.028868815,94.0,-0.954928,6.7369576,7.0620055,0.39348644,0.41711608,0.17010969,0.30737215,0.21279955,0.41596016,2016-12-07 18:14:30,28.600908376645005
-0.5001373,6.979065,6.4168243,-0.01261003,0.04562117,0.0031765809,87.0,-1.4094311,6.495895,7.2102175,-0.9599597,-0.49134296,0.726932,0.27553487,0.23799382,0.4443478,2016-12-07 18:14:31,22.71405932383356
-1.1277618,6.416809,7.5936127,-0.0051154788,-0.019294776,-0.018058168,95.0,-1.2065179,6.691292,7.0669174,-0.1851013,-0.004122516,0.7960454,0.29393637,0.23067275,0.4339613,2016-12-07 18:14:32,23.119171321482792
-1.1277618,6.1683807,7.737442,-0.026156275,0.034641653,0.018582173,99.0,-1.0394735,6.3181524,7.427707,0.21359845,0.18899646,-0.4176128,0.27864656,0.20818953,0.43043122,2016-12-07 18:14:33,42.86863430090898
-0.5132141,5.933029,6.704483,0.0043491614,-0.0064145704,-0.012569716,96.0,-1.3621483,6.4138374,7.2923,-0.2044188,0.2029589,0.08713647,0.27944747,0.22325487,0.41937217,2016-12-07 18:14:34,22.992348258376047
-1.7684631,6.142227,6.9136963,0.009946118,-0.003187621,-0.058348805,92.0,-1.82549,6.4924073,7.119454,-0.02760419,0.3360104,0.13221563,0.2823474,0.23916036,0.38459682,2016-12-07 18:14:35,23.152616787531898
-0.9054718,3.0564117,8.953476,-0.22729725,-0.0836579,0.048641756,115.0,-1.4064301,5.4478335,8.032026,-0.8343756,2.4785976,-1.2979116,0.21829167,0.16249298,0.37958568,2016-12-07 18:14:36,22.459750932156773
-1.0493164,3.409439,8.875015,0.009094139,0.025366602,0.0010828804,113.0,-1.0700538,3.3886027,9.140173,-0.034907337,-0.016484244,0.25970688,0.13683763,0.1242434,0.40846184,2016-12-07 18:14:37,24.468056704434602
-1.4677277,3.2263947,8.770416,-0.002489383,0.009709539,-0.03461463,116.0,-1.2448602,3.5172086,9.069176,0.3351001,0.2619456,0.22957069,0.13678262,0.13769041,0.41352195,2016-12-07 18:14:38,23.254900072129768
-1.6377106,3.1217804,8.744263,-0.004950247,0.0048032925,-0.013451147,116.0,-1.5559573,3.3552125,9.082507,-0.0032376798,0.24977322,0.36548486,0.12527663,0.14558055,0.40403417,2016-12-07 18:14:39,27.838470268301908
-1.9776764,3.0302582,8.79657,-0.0060245353,0.00952939,-0.017359555,116.0,-1.8723258,3.1876512,9.083152,0.075383894,0.13669354,0.35250962,0.11382201,0.15471612,0.3825274,2016-12-07 18:14:40,49.70545136695797
-2.0953522,2.9517975,8.718109,9.304281E-4,0.0030036825,-0.018359145,116.0,-2.0779986,3.0969574,9.069795,0.03315512,0.15496221,0.32553163,0.10568205,0.16258334,0.38390282,2016-12-07 18:14:41,39.34128175227241
-2.1738129,2.8864288,8.79657,-0.0052968455,0.0037154572,-0.0023478868,116.0,-2.1959531,2.9983008,9.075151,-0.016697478,0.1380278,0.29002762,0.09775856,0.166526,0.38828903,2016-12-07 18:14:42,24.180422121007616
-2.2555237,2.7948914,8.767151,0.003570632,-0.0024441173,-0.016262015,117.0,-2.2572265,2.941787,9.078613,-0.087360725,0.1232432,0.3487404,0.0959172,0.1671231,0.37745246,2016-12-07 18:14:43,41.946323230650044
-2.265335,2.8047028,8.825989,-0.0015702,0.0017935128,-0.00113336,117.0,-2.3193798,2.9077463,9.073912,-0.072022445,0.115575306,0.23430589,0.091911644,0.17002267,0.38356122,2016-12-07 18:14:44,47.621584804556925
-2.353592,2.8047028,8.786758,4.903914E-4,-4.2201762E-4,-0.007935911,118.0,-2.3571382,2.8897185,9.069941,0.026422676,0.13840835,0.31205675,0.090733156,0.1712636,0.38098332,2016-12-07 18:14:45,46.53376569695658
-2.353592,2.8047028,8.7573395,8.458615E-4,0.004691882,0.010537188,118.0,-2.430826,2.882108,9.052896,-0.02002442,0.021835037,0.2950122,0.08984986,0.17448005,0.37734705,2016-12-07 18:14:46,35.70910047599413
-3.1021729,3.5271301,8.417374,0.05232279,0.02066865,-0.01643359,118.0,-2.6347175,3.0886567,8.926861,0.45710132,-0.41177255,0.50948614,0.09682918,0.19011867,0.37598756,2016-12-07 18:14:47,25.8804282471633
-2.9975586,3.3963776,8.325851,0.009694825,-0.0032857298,-0.028691564,118.0,-2.9631033,3.5373197,8.653195,0.03337334,0.14585303,0.331163,0.1203808,0.21066764,0.33582458,2016-12-07 18:14:48,28.14117132371159
-2.9910278,3.3146515,8.384689,-0.005416609,0.001675676,0.0035269705,117.0,-3.034027,3.4671557,8.657014,-0.037550725,0.15741128,0.26688033,0.11450363,0.21324667,0.34057012,2016-12-07 18:14:49,41.00034641274672
-3.089096,3.3440704,8.404297,0.00748418,-5.739634E-4,-0.015662668,116.0,-3.0956182,3.4334972,8.64862,-0.071901284,0.13737313,0.29934672,0.11379502,0.21485662,0.33233503,2016-12-07 18:14:50,42.18691707604259
-3.2361908,3.30484,8.325851,0.0017894808,0.0032866183,-0.010815301,116.0,-3.2129056,3.4048429,8.617116,0.015116723,0.08147789,0.2950837,0.110878415,0.22002499,0.32944277,2016-12-07 18:14:51,27.996334271127907
-3.3440704,3.2558136,8.31604,0.0024464675,0.0021127192,-0.0150935305,116.0,-3.3495429,3.3793943,8.575002,-0.012557713,0.1105109,0.29383007,0.108049646,0.22632433,0.32536194,2016-12-07 18:14:52,26.998034114912187
-2.8243103,3.0204468,8.708313,-2.2277041E-4,0.0038133753,-0.004260535,117.0,-3.4642487,3.3512886,8.540389,-0.5767349,0.35481197,-0.08129063,0.10510771,0.23126566,0.32449874,2016-12-07 18:14:53,25.311461498189377
-2.866806,3.2263947,8.443527,0.0071984148,-0.01603875,0.0012883259,118.0,-2.970271,3.2852411,8.749577,-0.09637784,0.029978024,0.34582165,0.11059118,0.2039722,0.32887945,2016-12-07 18:14:54,24.152794733432017
-3.089096,3.3440704,8.325851,0.0060857986,0.0041013514,-0.007497769,116.0,-3.0046191,3.2877767,8.736887,0.032718472,-0.035587978,0.41485447,0.109081835,0.20678306,0.32859722,2016-12-07 18:14:55,23.669402222331275
-3.0057373,3.2901306,8.144424,-0.025210602,0.0074419593,0.026634738,116.0,-3.109921,3.3476675,8.677091,-0.099824294,0.010682463,0.58660436,0.106527634,0.21476729,0.34272683,2016-12-07 18:14:56,29.97093187647731
-3.2100525,3.4372406,7.5118866,0.023450155,0.008044913,-0.02279448,118.0,-3.3016255,3.4971416,8.546325,-0.1008439,0.023952823,1.1096144,0.11641295,0.22590588,0.3207005,2016-12-07 18:14:57,40.36994395782842
-1.8697968,5.798996,4.705551,-0.016144764,-0.0062980247,0.46855146,115.0,-0.2575526,2.2780337,9.534916,2.0306659,-3.156485,3.187834,0.09890403,0.0707988,0.48030487,2016-12-07 18:14:58,25.429083788230372
-2.4876251,6.7175446,7.149048,0.11631853,-0.0052840095,0.028174894,87.0,-0.9845157,5.761592,7.874337,1.3037027,-0.8442766,0.46486834,0.2414211,0.2062753,0.48795027,2016-12-07 18:14:59,47.783885998308115
-1.6638641,7.0967407,5.174652,0.012869471,0.02078705,-0.010615256,72.0,-1.7015758,6.670336,6.9843864,-0.121615365,0.050846443,0.106111355,0.27914986,0.26029575,0.44036397,2016-12-07 18:15:00,67.07254207039887
-1.6377106,6.31221,6.8352356,-0.04561816,0.018213078,-9.1817885E-5,88.0,-1.7756838,6.78682,6.8524747,-0.3793523,0.48385447,0.4667754,0.2917087,0.2548997,0.41014183,2016-12-07 18:15:01,36.55703354668954
-2.160736,6.102997,6.7960052,0.016878797,-0.011824247,-0.002557108,90.0,-2.0937583,6.5109625,7.028083,0.058256622,0.42266724,0.24514963,0.26461875,0.26810762,0.42894748,2016-12-07 18:15:02,30.973715674574972
-1.8730621,6.207611,6.390671,0.015417458,-0.0125790015,-0.018357158,85.0,-2.1966643,6.451945,7.051061,-0.3715379,0.14572416,0.2545078,0.25677845,0.27385798,0.43601364,2016-12-07 18:15:03,24.206054654901706
-1.180069,7.3451843,5.671509,0.031989284,-0.016661685,0.013809865,64.0,-1.9547982,6.7847085,6.8056517,-0.7970686,-0.62476027,1.0033838,0.29002765,0.2644127,0.4102136,2016-12-07 18:15:04,25.02131116184223
-1.8600006,6.220688,7.044449,-0.10830315,0.079788715,0.025367854,93.0,-1.5038797,6.935464,6.7681665,0.13056214,0.6428635,0.20315924,0.30235767,0.24459107,0.40725094,2016-12-07 18:15:05,23.196784923566366
-1.3108215,7.044449,6.142227,0.07711151,-0.044215795,-0.01104961,77.0,-1.664023,6.840962,6.826614,-0.26112717,-0.10541512,0.8745225,0.30540362,0.2533896,0.411633,2016-12-07 18:15:06,22.606427137793567
-1.5592651,6.1945343,6.704483,0.024926046,-0.08060258,-0.09853095,84.0,-2.3211126,7.2697935,6.1589723,-0.7139117,1.0589155,-0.5286185,0.31644094,0.29302016,0.38406184,2016-12-07 18:15:07,41.304931816064496
-2.4614716,6.1291504,7.5674744,0.019286076,-0.03035696,-0.034002528,89.0,-2.0467584,6.831064,6.731845,0.25508037,0.78363013,1.2156044,0.2936564,0.26585987,0.39215556,2016-12-07 18:15:08,48.120014951863354
-1.7553864,6.926773,6.0245514,-0.049765866,0.029427722,0.028801667,80.0,-2.2850485,6.5610704,6.9210763,-0.39182028,-0.27634367,0.4377906,0.2681403,0.2729644,0.40913117,2016-12-07 18:15:09,49.41526805343486
-1.3108215,6.4168243,7.1228943,0.018831965,-0.053048246,-0.05240503,93.0,-1.9946455,6.9392543,6.636153,-0.5236481,0.45596907,-0.41918692,0.3050669,0.26136062,0.38108405,2016-12-07 18:15:10,27.02209670846733
-1.7815399,6.756775,6.2468414,0.0065716268,0.066377334,0.022531943,83.0,-1.7646228,6.7730904,6.868897,-0.062079445,-0.22776839,0.9576661,0.29424715,0.25248244,0.40270147,2016-12-07 18:15:11,40.38540603542778
-2.6968231,6.259918,5.8676453,-0.07314511,0.087287955,0.029363483,84.0,-2.0065336,6.78133,6.7939515,1.4394143,0.16184138,-0.0026020317,0.273019,0.27456436,0.42276627,2016-12-07 18:15:12,28.821116766372917
-2.3830109,5.658432,7.3451843,-0.04843453,0.0034776328,0.013856728,97.0,-2.6642127,6.3122034,7.0162983,-0.1716892,0.4418337,0.015440106,0.23310353,0.29502073,0.445978,2016-12-07 18:15:13,46.943050006416684
-1.7946167,7.044449,5.893799,0.03669259,-0.009974524,0.02825397,74.0,-1.9634701,6.690578,6.8957486,-0.17920454,-0.33752134,0.9027957,0.27882478,0.26692268,0.42521825,2016-12-07 18:15:14,23.379290767759638
-0.39553833,5.436157,7.9989624,0.0067475373,-0.1727065,-0.09112035,112.0,-1.7290777,7.0974154,6.5427346,-1.8925219,1.7446191,-2.3785927,0.32503584,0.23401022,0.363534,2016-12-07 18:15:15,23.91343169802888
-1.1277618,5.0308075,7.959732,-0.04535607,0.01768494,-0.016724648,107.0,-0.76863784,5.416881,8.138612,0.34823066,0.4045935,0.15708789,0.24351168,0.15846626,0.4014258,2016-12-07 18:15:16,22.843226167830302
-1.2585144,4.900055,8.077408,-0.0046403506,0.00813007,-0.009302581,107.0,-1.1352544,5.128898,8.281062,0.104197234,0.23919322,0.231437,0.22501536,0.16481115,0.385445,2016-12-07 18:15:17,24.55805720471483
-1.3500519,4.8739014,8.077408,-5.3421994E-5,0.0016751878,-0.009293284,107.0,-1.3290402,5.0599236,8.294651,0.0057538776,0.19745971,0.23140457,0.21871819,0.17103267,0.37951177,2016-12-07 18:15:18,23.957776384029373
-1.3761902,4.8346863,8.077408,-0.0040345904,0.0013500417,1.13814305E-4,106.0,-1.3947711,5.032145,8.300755,-0.03515673,0.20566109,0.22643912,0.21660578,0.17223175,0.3746367,2016-12-07 18:15:19,24.987153619073887
-1.4023438,4.8346863,7.9205017,-2.548537E-4,0.0021983874,-0.002039333,106.0,-1.4349332,4.984016,8.322917,-0.018417064,0.16241291,0.3141525,0.21375263,0.17318754,0.37372658,2016-12-07 18:15:20,27.127426245324585
-1.3925476,4.8150635,8.041458,0.001067186,-0.0053333086,-0.008854459,107.0,-1.4689136,5.0089316,8.302005,-0.06601782,0.1873284,0.306861,0.21457604,0.17497009,0.37304342,2016-12-07 18:15:21,24.495491044927572
-1.3729248,4.775833,8.051254,-0.010662211,0.019801527,0.035540916,107.0,-1.4752016,4.953681,8.333981,-0.072305724,0.24104083,0.2843547,0.20945671,0.17627834,0.3835493,2016-12-07 18:15:22,23.2942754327157
-1.4611969,4.7169952,8.051254,0.0012688653,-0.005764561,-0.010424722,110.0,-1.4856269,4.9392667,8.340681,-0.06911075,0.24024692,0.31829664,0.21054071,0.17436388,0.37410578,2016-12-07 18:15:23,23.486293266283656
-1.3925476,4.7562256,8.129715,-0.0020339978,0.00745408,0.009491296,110.0,-1.518812,4.902165,8.356578,-0.1022958,0.1486633,0.2933321,0.20704824,0.1762723,0.37886116,2016-12-07 18:15:24,24.10861554216598
-1.431778,4.7268066,8.070877,9.5927337E-4,0.00272715,5.0158054E-5,110.0,-1.4941615,4.8997726,8.362422,0.0040767933,0.14627117,0.36727804,0.20471674,0.17838214,0.39234817,2016-12-07 18:15:25,25.774343496774875
-1.3238983,4.520859,8.188553,-0.01568093,-0.0029470087,0.009790461,98.0,-1.4773843,4.805491,8.419916,-0.1425903,0.29715577,0.16598551,0.20137794,0.17222886,0.3844254,2016-12-07 18:15:26,24.514410110584528
-0.85317993,4.6908417,7.6720734,0.013826226,-0.0021794145,-0.0051308256,110.0,-1.393081,4.7396774,8.471434,-0.5486194,0.054277718,0.84403926,0.19827914,0.17042919,0.3976672,2016-12-07 18:15:27,39.54723585942758
-3.3244476,5.9199524,5.7630463,0.038975175,0.11944244,0.016055362,79.0,-2.5434744,5.304667,7.8461227,0.7935108,-0.71552634,1.172153,0.19985504,0.25148505,0.4043006,2016-12-07 18:15:28,31.384388873525086
-2.6706696,6.037628,6.9398346,0.004419411,-0.08280154,0.017041566,92.0,-2.930469,6.227303,6.985946,-0.2608811,0.13900751,0.039569173,0.24472813,0.28823602,0.38738653,2016-12-07 18:15:29,35.4218253150183
-2.3176422,5.671509,7.580536,-0.029902648,-0.023820315,0.013437153,96.0,-2.356639,6.045168,7.3534064,-0.041179854,0.5697884,0.6794362,0.24588782,0.25137454,0.388297,2016-12-07 18:15:30,23.61078269059741
-1.7161713,5.8676453,7.3451843,0.02023308,-0.026204001,0.033124518,100.0,-2.0415034,6.091378,7.4093037,-0.36620063,0.2482492,0.02707526,0.2589659,0.23528759,0.38027126,2016-12-07 18:15:31,36.559747508823946
-3.259079,6.0637817,6.547577,0.012081945,0.048654757,-0.03148574,84.0,-2.4122322,6.1453805,7.251609,0.7613088,0.19328855,0.5640182,0.25425565,0.25803816,0.37525758,2016-12-07 18:15:32,32.76840306443176
-1.3238983,5.946106,7.423645,-0.04494833,-0.0012669545,0.04976979,102.0,-3.0933251,6.236963,6.906666,-2.6302335,0.87054586,-0.08057237,0.25546813,0.28001955,0.3510266,2016-12-07 18:15:33,41.49191904229173
-0.12095642,7.2275085,5.671509,0.04974995,-0.01182276,-0.012037425,76.0,-1.6695731,6.51129,7.1404495,-1.6014713,-0.72111404,1.5424869,0.28345838,0.23895197,0.40539226,2016-12-07 18:15:34,46.47188847313977
-1.1016083,5.723816,7.789749,-0.07801103,0.053378467,0.0041771578,103.0,-1.1436857,6.7811894,6.991269,0.05490495,1.1015044,-0.5680235,0.31239152,0.21089742,0.38019118,2016-12-07 18:15:35,47.85358312403774
-1.4284973,5.946106,7.201355,0.0176869,0.04689485,0.021744983,100.0,-1.3238386,6.3248262,7.376613,0.092677526,0.3999751,0.28041255,0.2645924,0.23322769,0.46020192,2016-12-07 18:15:36,27.04395417901536
-0.95777893,5.8414917,7.0052185,0.015920034,-0.050754946,-0.036566123,102.0,-1.6151501,6.2762804,7.3600273,-0.6072445,0.40591028,0.34554815,0.2556368,0.24372736,0.45796725,2016-12-07 18:15:37,24.951220943148957
-1.6900177,5.828415,7.135971,-0.02245346,0.045120113,0.030355014,98.0,-1.1454719,6.0212464,7.6552525,0.7068953,0.21897802,0.3819866,0.25586683,0.20922542,0.44111007,2016-12-07 18:15:38,28.336012573712782
-1.506958,5.3446198,7.371338,0.0029871808,0.009470086,-0.0071458016,104.0,-1.7246782,6.032071,7.537241,-0.21281959,0.7473767,0.12777223,0.24108168,0.23988424,0.4531722,2016-12-07 18:15:39,30.712681634132558
-1.3108215,5.8414917,6.9529114,0.0022773826,-0.002078218,0.02537686,101.0,-1.2658077,6.11266,7.5633016,0.055365913,0.28315136,0.49434116,0.2619458,0.21393335,0.43608594,2016-12-07 18:15:40,37.567855059616434
-1.4677277,5.880722,7.2798004,0.0025269166,0.019896422,6.5440737E-4,100.0,-1.3186321,6.069702,7.588828,0.22323021,0.18837838,0.39085677,0.25119972,0.22463524,0.46011993,2016-12-07 18:15:41,27.22529380424996
-1.3238983,5.5146027,6.639099,-0.008216148,0.03147683,0.0047929497,101.0,-1.574793,6.1003613,7.515052,-0.22637853,0.6113615,0.89556277,0.24953614,0.2333971,0.44843137,2016-12-07 18:15:42,25.148243557407163
-0.8139496,5.9199524,7.149048,0.0037441002,-0.024000984,0.0651201,101.0,-1.2552031,6.147943,7.5364223,-0.6422874,0.31843424,0.2495365,0.2591994,0.2201972,0.45693627,2016-12-07 18:15:43,26.734548310835518
-0.55244446,5.893799,7.5020905,0.003847421,-0.03130286,-0.025252862,99.0,-1.1287477,5.918677,7.737285,-0.5839337,0.048307177,0.25971437,0.24817856,0.20955673,0.4650975,2016-12-07 18:15:44,23.09177541556994
-1.5592499,6.31221,7.4367065,0.0026104052,0.032278314,0.005886803,92.0,-1.0962186,6.167553,7.545197,0.34753832,-0.09780688,0.094866924,0.26198334,0.21649326,0.46182072,2016-12-07 18:15:45,24.11826563784701
-0.6439667,5.213867,7.6066895,-0.075143844,-0.049266644,0.013605236,107.0,-1.6130186,6.2032166,7.422174,-0.9047606,0.85042006,-0.3278036,0.24523334,0.2443798,0.47622028,2016-12-07 18:15:46,22.901134824715804
-1.0754547,5.9460907,7.1621246,0.043513216,-0.0077209612,-0.04309873,101.0,-0.97666264,5.8831773,7.7849045,0.18106692,-0.12339615,0.4980189,0.24660257,0.20729257,0.4811201,2016-12-07 18:15:47,37.779032698323725
-1.3238983,5.9199524,6.9921417,-0.008261472,0.023636179,0.009110561,99.0,-1.1643354,6.0549335,7.6257787,0.07079199,0.13648362,0.587025,0.25285178,0.21715224,0.4649957,2016-12-07 18:15:48,25.587235666306757
-0.787796,5.815338,7.4367065,-0.0056017307,-0.029857505,-0.010133165,103.0,-1.0359044,6.1289353,7.58508,-0.25954455,0.2721858,0.107509635,0.26592493,0.20516951,0.44547912,2016-12-07 18:15:49,35.986640014396535
-0.5132141,4.8216095,7.8289795,-0.042233914,-0.0012105783,0.0123725245,111.0,-0.73605865,5.832746,7.849056,-0.25934646,1.0111428,0.12631908,0.2546747,0.18429181,0.4558639,2016-12-07 18:15:50,24.0442031323164
-0.85317993,5.226944,7.907425,0.027703283,-0.046796035,-0.032334138,111.0,-0.74131954,5.429093,8.133006,0.021419948,0.08991641,0.30130613,0.23676047,0.17307425,0.4587939,2016-12-07 18:15:51,25.543351812728513
-0.8793335,5.38385,7.567459,0.036203858,-0.0052300068,-0.041218746,107.0,-0.98898983,5.6416254,7.960174,-0.021945186,0.24796781,-0.14393309,0.24266283,0.1892093,0.44538948,2016-12-07 18:15:52,25.39269563592841
-0.9970093,5.723816,7.253662,0.025389401,-0.001573898,-0.037867982,103.0,-1.2218426,5.865321,7.7637296,-0.3637607,0.24011764,0.299779,0.25118285,0.20300126,0.43210208,2016-12-07 18:15:53,23.33186888469571
-0.39553833,5.1877136,7.475937,-0.028539602,0.015209505,-7.712065E-4,109.0,-1.2042464,5.6451535,7.9279513,-0.90459883,0.45580113,0.36865884,0.23526792,0.20004049,0.4501963,2016-12-07 18:15:54,25.3673199943206
-1.9776764,5.0961914,7.972809,0.041836802,0.021741135,-0.03579966,104.0,-1.2499003,6.0722685,7.5984015,0.7114298,0.9782584,-0.32864076,0.25882185,0.21532127,0.44128698,2016-12-07 18:15:55,30.655999415011333
-1.3761902,5.5146027,7.46286,-0.0072303535,-0.03155459,0.0071702753,107.0,-1.5376073,5.7838583,7.7687283,-0.18919286,0.2676177,0.3320184,0.23705246,0.21796452,0.44257188,2016-12-07 18:15:56,29.472937954162578
-1.1016083,5.645355,7.3843994,0.032750636,-0.043355662,0.0029645485,100.0,-1.1887631,5.7559285,7.8502564,-0.16723707,0.06262334,0.71319443,0.24290663,0.20325124,0.45263517,2016-12-07 18:15:57,23.166822214483325
-0.9839325,5.0177307,7.6589966,-0.050309177,0.0026657893,0.00887558,112.0,-1.1121061,5.8191447,7.8148036,-0.24040383,0.95668066,0.8003251,0.24660306,0.19973622,0.44768992,2016-12-07 18:15:58,23.826210605504073
-0.9708557,4.965439,8.012024,0.0032766405,-0.033809755,0.056044415,111.0,-0.5439195,5.09483,8.361653,0.7772542,0.30046776,-0.0012403296,0.21947628,0.1597127,0.48535803,2016-12-07 18:15:59,54.952264439331856
-0.30400085,6.0637817,7.8289795,0.088427246,-0.053742494,-0.010461658,100.0,-0.505924,5.8561125,7.849865,-0.029211808,-0.16408136,-0.0090755215,0.26398072,0.17754306,0.46266377,2016-12-07 18:16:00,24.44929147447511
-1.729248,5.6845856,7.305954,-0.07333087,0.10937241,0.0077851936,106.0,-1.0488579,6.043906,7.651241,0.68092626,0.37784162,0.37797546,0.25770247,0.20622306,0.44836658,2016-12-07 18:16:01,25.394028472936036
-1.7684631,5.38385,7.959732,0.0030102541,-0.006358677,-0.00116736,105.0,-1.2985857,5.9466605,7.689037,0.39033738,0.59386384,0.04802203,0.25300062,0.20929,0.43110523,2016-12-07 18:16:02,26.34103441403426
-1.2585144,5.462311,8.103561,0.007315985,-0.028375851,-0.008731922,106.0,-1.3976052,5.516944,7.986264,-0.32159773,-0.08101879,0.27714798,0.2236147,0.20701332,0.4570786,2016-12-07 18:16:03,26.784481912591072
-0.59165955,5.279251,7.3321075,-0.047878582,0.02488364,0.057950158,107.0,-0.7298821,5.5946198,8.0210905,0.26493573,0.4954892,-0.30433047,0.24409635,0.17545627,0.45029858,2016-12-07 18:16:04,31.33309326258299
-0.8793335,5.122345,7.959732,-0.035185196,0.04611334,0.010877102,110.0,-0.8445669,5.327425,8.189972,0.054376073,0.21979478,0.2629299,0.22605215,0.17577612,0.45920655,2016-12-07 18:16:05,29.67949481762025
0.12748718,4.8216095,7.9858856,0.013170625,-0.085339874,-0.059138447,116.0,-0.800833,5.4793434,8.093569,-0.97789747,0.6577404,0.23462844,0.24210432,0.16803783,0.42994383,2016-12-07 18:16:06,24.62129600860845
-0.13401794,4.6123962,8.443527,-0.0037971702,0.06434414,0.07528913,113.0,-0.4110845,4.958264,8.450859,-0.1795386,0.3409659,-0.25254256,0.22117633,0.1419529,0.4510618,2016-12-07 18:16:07,24.14813241970563
-1.3631287,5.2661743,7.8159027,0.05205471,0.027712874,-0.07340032,109.0,-0.9802514,5.6935134,7.924228,0.42264435,0.38157797,0.2287319,0.23411028,0.20403,0.49043983,2016-12-07 18:16:08,30.205149299599977
-1.3762054,5.0308075,7.6066895,-0.011798846,0.0010408759,-0.0010624664,110.0,-1.5200593,5.536082,7.950574,-0.08992285,0.4148312,0.62282664,0.21786036,0.21510689,0.46482942,2016-12-07 18:16:09,25.97233411236681
-1.5592499,5.1484833,8.325851,-0.026531387,-0.048554078,0.040034108,115.0,-1.387132,5.202692,8.196234,-2.204353,1.1029676,0.6641815,0.21237919,0.1847659,0.44698724,2016-12-07 18:16:10,38.12486508296933
-0.4216919,5.5799866,6.9398346,0.05268887,-0.00986045,-0.026435882,107.0,-0.6233928,5.3457785,8.19783,-0.064958565,-0.32028598,1.156111,0.22693405,0.17665827,0.49640062,2016-12-07 18:16:11,33.06457643092587
-1.1277618,6.325287,7.044449,0.026512556,0.0022910098,-0.009929776,93.0,-0.81061316,5.8512673,7.8278966,0.30625528,-0.46857354,0.7861769,0.24759404,0.19990392,0.48937654,2016-12-07 18:16:12,29.099848081029975
-2.22612,5.4753876,7.3844147,-0.027628954,-0.013555235,-0.051446084,110.0,-1.1304193,6.1633124,7.543615,0.40868005,0.8786176,-0.50601035,0.26869264,0.20632046,0.4265761,2016-12-07 18:16:13,27.080471412758694
-1.6900177,4.625473,8.051254,-0.034650505,0.043756537,-0.025480006,113.0,-1.2613717,4.9471617,8.372869,0.44117168,0.35710433,0.18703952,0.17977811,0.20079371,0.52584004,2016-12-07 18:16:14,32.064891223239954
-1.9776764,4.5470123,8.064331,-0.005088459,0.008911615,-0.009993497,113.0,-1.8667868,4.729327,8.38564,-7.993142E-4,0.24823259,0.3087747,0.16406636,0.21334223,0.49342826,2016-12-07 18:16:15,31.658376246901284
-1.9515228,4.45549,8.116638,0.0017293656,-0.0032185859,-0.019837122,113.0,-1.9753511,4.679855,8.388524,-4.0069624E-4,0.18513995,0.24355598,0.16095696,0.21543358,0.48532817,2016-12-07 18:16:16,26.221621947566863
-1.9809418,4.4129944,8.159134,-0.0022615392,0.0020359007,-0.0023174698,114.0,-2.0756285,4.6377926,8.387672,-0.032576315,0.18393911,0.3244268,0.15529794,0.21943028,0.4890267,2016-12-07 18:16:17,40.86380224830887
-2.1182404,4.4424133,8.159134,5.327345E-4,-1.5450049E-4,-0.0021375287,114.0,-2.1170115,4.587587,8.404922,-0.019478036,0.1882146,0.3552962,0.15410766,0.21848817,0.48209465,2016-12-07 18:16:18,26.53071747382644
-2.1182404,4.422806,8.051254,3.5309594E-4,0.0026881215,0.0015500765,114.0,-2.172478,4.585064,8.392134,-0.08856468,0.18569197,0.26078674,0.1525695,0.2211732,0.4819689,2016-12-07 18:16:19,23.60068529102694
-2.2457275,4.314926,8.110107,-0.0038062069,0.0017291037,-0.004788529,115.0,-2.2164078,4.537427,8.406526,0.017329283,0.17891587,0.30241844,0.1462958,0.2235128,0.49228486,2016-12-07 18:16:20,24.12418543998244
-2.3143768,4.285507,8.198364,4.1445415E-4,-1.9858844E-4,-0.007726752,114.0,-2.3047528,4.481371,8.412836,-0.0029139847,0.21820238,0.22700773,0.14376633,0.22450575,0.48366976,2016-12-07 18:16:21,32.195752491170396
-2.3960876,4.1939697,8.234314,-0.005055591,0.005761754,-0.0010756863,115.0,-2.4350042,4.4124827,8.4125595,-0.09807914,0.23922564,0.29279923,0.13543534,0.22954616,0.4895871,2016-12-07 18:16:22,29.515793334095694
-2.4222412,4.1547546,8.116638,-0.0032793959,0.007672454,0.010820722,113.0,-2.4662452,4.344781,8.438656,-0.05544364,0.19057514,0.33454978,0.1324803,0.22855508,0.48660457,2016-12-07 18:16:23,49.30387343754595
-2.435318,4.141678,8.116638,-4.96927E-4,0.006366287,0.0069065937,114.0,-2.5089219,4.3529167,8.421865,-0.08449994,0.2123312,0.31775877,0.13350497,0.22982104,0.4802527,2016-12-07 18:16:24,50.855430106354255
-2.4222412,3.971695,8.312775,-0.0017958843,0.0023339302,-0.0013332877,115.0,-2.5586724,4.325534,8.421006,-0.13425049,0.32115182,0.15345502,0.1306074,0.23138781,0.48093644,2016-12-07 18:16:25,25.734977230095875
-2.4614716,4.076294,8.129715,-0.00479973,0.009038807,0.015703456,114.0,-2.587458,4.2490144,8.451115,-0.15184371,0.17693815,0.35967895,0.1283247,0.22957623,0.4740783,2016-12-07 18:16:26,43.029166110305816
-2.5922241,4.2070465,8.155869,0.010271644,-0.006156979,-0.024019958,113.0,-2.6541824,4.2984166,8.405314,-0.086031444,0.14104134,0.26433897,0.12811573,0.23471035,0.47689477,2016-12-07 18:16:27,33.681097676177984
-2.5791473,4.128601,8.064331,-0.0050479937,0.009721899,0.012513327,113.0,-2.725417,4.304147,8.379547,-0.21107467,0.18899812,0.32908303,0.13040736,0.23624365,0.46213534,2016-12-07 18:16:28,24.78040141776047
-2.6314545,4.128601,8.195099,-0.005431623,0.0030264885,0.0077180876,113.0,-2.7227776,4.3063793,8.379257,-0.09405056,0.17941424,0.20704938,0.12994066,0.23630796,0.4651739,2016-12-07 18:16:29,30.056058726696897
-2.7850952,4.1187897,8.1493225,0.0030553637,-0.0034727217,-0.011988203,113.0,-2.7399518,4.239846,8.407542,-0.043123066,0.112881206,0.26257408,0.12592341,0.2355615,0.4669832,2016-12-07 18:16:30,40.12534413097229
-2.687027,4.0795593,8.100296,-0.0026165002,0.0063280948,0.0094687585,113.0,-2.7851164,4.2588296,8.383072,-0.15638939,0.17272544,0.30620593,0.12589844,0.23820461,0.4662184,2016-12-07 18:16:31,35.504948628307474
-2.7850952,4.1678314,7.972809,-0.008555675,0.01123262,0.021890644,114.0,-2.8035274,4.2517414,8.380533,-0.31100368,0.24735928,0.23556533,0.12330861,0.23979872,0.47247514,2016-12-07 18:16:32,29.961987170854346
-2.4876251,3.971695,8.443527,-0.0028755185,-0.021360543,-0.02793664,115.0,-2.633896,4.150742,8.485536,-0.15499297,0.18722117,0.054541245,0.12726831,0.22566131,0.4559971,2016-12-07 18:16:33,37.578951109714325
-2.5023346,3.9455414,8.18692,-0.008580685,0.012037017,0.022711005,115.0,-2.6739645,4.1200857,8.487944,-0.16782044,0.17018493,0.34297603,0.12377673,0.22782888,0.46076742,2016-12-07 18:16:34,34.74281840506635
-0.8678894,4.5290375,8.713211,0.052069448,-0.12816629,0.0037939453,113.0,-1.892248,4.326561,8.594805,-0.87072194,-0.23625533,0.28639308,0.1576269,0.19205849,0.45278415,2016-12-07 18:16:35,33.9710246087319
-1.0362396,4.8739014,8.090485,0.0066362396,-5.3868006E-4,-0.015910737,110.0,-1.2768916,4.6908374,8.516807,-0.2826062,-0.13076581,0.058570657,0.18904541,0.17373575,0.44504762,2016-12-07 18:16:36,44.62817145578725
-1.5984802,4.664688,7.9466553,-0.026396148,0.059703864,0.02812454,110.0,-1.3433778,4.7802734,8.456638,0.23658246,0.24469781,0.20270742,0.18561992,0.18470423,0.46241236,2016-12-07 18:16:37,25.20598150396492
-2.0822754,4.2724304,8.221237,0.02590928,-0.047987364,-0.054869466,112.0,-1.7546653,4.9544353,8.279198,0.34286818,0.47334072,-0.3697229,0.18978631,0.20451432,0.44658282,2016-12-07 18:16:38,45.81406759070833
-1.5200348,4.7693024,8.116638,-1.0173988E-4,-0.023059426,-0.01728309,114.0,-1.9113413,4.7046175,8.389502,-0.57654727,-0.008022654,0.46245918,0.17401904,0.20425662,0.44725356,2016-12-07 18:16:39,36.67212195185423
-0.95777893,4.3770294,8.051254,-0.011012552,-0.005247121,-0.0076681725,113.0,-1.6031286,4.6819415,8.4663925,-0.44539905,0.3098097,0.36228594,0.18682218,0.18241698,0.41405514,2016-12-07 18:16:40,46.06906536606745
0.53282166,4.403183,7.86821,-0.09055994,-0.019161254,0.07913597,114.0,-0.5022748,3.6452253,9.090129,-1.0062277,0.008592525,0.9996424,0.15568405,0.10726111,0.44570595,2016-12-07 18:16:41,40.435909920665594
-3.6382751,-1.1016083,6.31221,-0.12192432,0.1690439,-0.4086062,80.0,-0.6789164,3.2349982,9.23278,2.739791,3.4256833,-0.34232345,0.10948357,0.118788585,0.34843576,2016-12-07 18:16:42,34.97912555434181
0.23208618,-0.46090698,9.594177,-0.053348966,-0.13856284,0.024768887,132.0,-0.296084,-0.23892549,9.799267,-0.51400954,0.22416633,0.21054262,-0.015670484,0.009166094,0.21983159,2016-12-07 18:16:43,48.06958715221556
0.23536682,-0.46090698,9.590912,7.004666E-5,-0.0046171565,0.0044475454,131.0,0.23915197,-0.44955745,9.793421,0.021226406,0.027154705,0.19107641,-0.019502118,-0.01723552,0.22887088,2016-12-07 18:16:44,43.14083171955021
0.24516296,-0.46090698,9.639938,0.0,0.0,0.0,132.0,0.2494192,-0.4765904,9.791885,-0.0093674185,-0.0543596,0.18954097,-0.02078152,-0.017942822,0.22845863,2016-12-07 18:16:46,42.63294237825328
0.24516296,-0.5001373,9.600708,0.0,0.0,0.0,132.0,0.256479,-0.46903783,9.7920685,0.024933105,-0.0059460164,0.2033442,-0.020266576,-0.018230913,0.22941022,2016-12-07 18:16:47,48.31647933225174
0.2745819,-0.45111084,9.620331,0.0,0.0,0.0,132.0,0.23863944,-0.47988257,9.791995,0.00709355,-0.016790742,0.18964988,-0.021204263,-0.017359577,0.22504134,2016-12-07 18:16:48,53.57675724800891
0.33670044,-0.5001373,9.659561,-6.5389293E-4,-0.0015205181,0.0028995175,132.0,0.2840752,-0.49375543,9.790092,-0.07005383,-0.044283953,0.092405386,-0.02095322,-0.01997387,0.23253796,2016-12-07 18:16:49,44.048467538078135
0.2190094,-0.46090698,9.5811,-0.002240652,0.002189296,0.0071759117,132.0,0.25613376,-0.44530165,9.793186,0.0109675275,0.004169797,0.21808186,-0.019071367,-0.01801314,0.23612149,2016-12-07 18:16:50,60.59282160295557
0.20593262,-0.47071838,9.639938,-1.2272397E-5,-0.0075664036,0.0076872655,131.0,0.25736043,-0.4548905,9.792713,-0.0014261556,0.04906238,0.19036812,-0.019606773,-0.018861437,0.23080064,2016-12-07 18:16:51,61.796617026609184
0.2190094,-0.43475342,9.594177,0.0013991034,0.0026172465,0.0019320021,131.0,0.23782198,-0.47329,9.792335,0.006276076,-0.037438862,0.18998988,-0.0207436,-0.017220324,0.226396,2016-12-07 18:16:52,49.342296167817786
0.24516296,-0.5001373,9.590912,-0.0018987878,-2.5997643E-4,-0.008037475,128.0,0.24149354,-0.46274373,9.792749,0.009947628,0.013968462,0.1904047,-0.020187449,-0.017439563,0.22968706,2016-12-07 18:16:53,42.867324943473236
0.25497437,-0.5295563,9.620331,0.0,0.0,0.0,128.0,0.23703268,-0.494206,9.791322,0.005486764,0.023367159,0.17535615,-0.021729136,-0.017636163,0.2316166,2016-12-07 18:16:54,45.50722973295308
0.25497437,-0.50994873,9.600708,0.0,0.0,0.0,125.0,0.25577775,-0.48260567,9.791428,-0.003008859,-0.019513834,0.20270327,-0.020933378,-0.01830985,0.22912642,2016-12-07 18:16:55,53.27262646587361
0.2942047,-0.47071838,9.630127,0.0,0.0,0.0,127.0,0.25227323,-0.47892097,9.7917,-0.020133713,-0.0022088173,0.18935558,-0.020797206,-0.018232493,0.2300071,2016-12-07 18:16:56,64.08544832109342
0.20593262,-0.47071838,9.5811,0.0,0.0,0.0,127.0,0.25693312,-0.4767467,9.791685,0.052627906,-0.027275247,0.20296015,-0.020690015,-0.01834743,0.23167512,2016-12-07 18:16:57,38.55634603899935
0.24516296,-0.4805298,9.600708,0.0,0.0,0.0,129.0,0.2583949,-0.4724955,9.791853,-3.917076E-4,0.004216663,0.20312807,-0.020426832,-0.018426819,0.23034185,2016-12-07 18:16:58,63.18687828725668
0.23536682,-0.5197449,9.639938,0.0,0.0,0.0,129.0,0.24917798,-0.48513466,9.791472,0.0040117167,0.0051978286,0.16188711,-0.021209138,-0.017994542,0.22742598,2016-12-07 18:16:59,62.30688295889041
0.22555542,-0.5001373,9.620331,0.0,0.0,0.0,130.0,0.25051552,-0.4754551,9.791914,0.0053492584,0.014877407,0.20318958,-0.020737775,-0.017922984,0.22473069,2016-12-07 18:17:00,47.23914592587151
0.26478577,-0.50994873,9.639938,0.0,0.0,0.0,130.0,0.2445265,-0.47774312,9.791954,0.012980595,-0.014651288,0.20322949,-0.020902328,-0.017657535,0.22696571,2016-12-07 18:17:01,33.38486790232438
0.26641846,-0.48706055,9.5811,0.0,0.0,0.0,129.0,0.2657305,-0.48107255,9.791238,0.006943886,-0.0043603773,0.21613407,-0.020742001,-0.018811435,0.23080307,2016-12-07 18:17:02,30.328125990516185
0.258255,-0.47071838,9.605621,0.0,0.0,0.0,129.0,0.2483407,-0.4751828,9.791982,0.0031744475,-0.012090978,0.17601705,-0.020552734,-0.01801548,0.23522401,2016-12-07 18:17:03,29.60809566297225
0.25170898,-0.50994873,9.579468,0.0,0.0,0.0,129.0,0.250478,-0.480766,9.791656,-0.0083086025,0.023186866,0.21655138,-0.0209708,-0.018041307,0.22775102,2016-12-07 18:17:04,43.45676103699781
0.26641846,-0.47235107,9.608887,0.0,0.0,0.0,130.0,0.24889629,-0.4741161,9.79202,-0.009890319,-0.011024291,0.1896748,-0.020625047,-0.017912887,0.22920436,2016-12-07 18:17:05,61.58497677883077
0.24681091,-0.4690857,9.63504,0.0,0.0,0.0,130.0,0.24622306,-0.4791576,9.7918415,0.0010568156,-0.016065778,0.20311727,-0.020937957,-0.017857132,0.23093109,2016-12-07 18:17:06,35.13356070415558
0.26150513,-0.48542786,9.607254,0.0,0.0,0.0,130.0,0.24504334,-0.48146066,9.7917595,-0.027363626,-0.0047485,0.17579426,-0.021058451,-0.017744228,0.22700848,2016-12-07 18:17:07,40.16079751035211
0.23210144,-0.4772644,9.625229,0.0,0.0,0.0,131.0,0.25438783,-0.48744544,9.7912245,0.02284192,-0.05159432,0.17525889,-0.021206398,-0.01831092,0.22996178,2016-12-07 18:17:08,27.682417901474906
0.26805115,-0.46253967,9.617065,0.0,0.0,0.0,131.0,0.25408322,-0.47586903,9.791801,-0.0047034007,-0.04001793,0.16221632,-0.02069902,-0.018134126,0.22713302,2016-12-07 18:17:09,40.39513757506724
0.25660706,-0.46418762,9.597443,0.0,0.0,0.0,131.0,0.25439972,-0.47914916,9.791635,-0.004605929,-0.030205337,0.18926913,-0.020838743,-0.018187596,0.22701174,2016-12-07 18:17:10,47.36396983719035
0.25497437,-0.4805298,9.639938,0.0,0.0,0.0,132.0,0.24959251,-0.48308653,9.791564,0.031666953,0.007245993,0.16197856,-0.021287445,-0.01781888,0.22801597,2016-12-07 18:17:11,38.134683976402485
0.30400085,-0.4805298,9.600708,0.0,0.0,0.0,131.0,0.25125578,-0.50426227,9.790454,-0.021151172,-0.041170448,0.20172977,-0.022124428,-0.01838216,0.22839807,2016-12-07 18:17:12,32.03125282679094
0.2843933,-0.45111084,9.620331,0.0,0.0,0.0,132.0,0.24522175,-0.4619443,9.792695,5.549061E-5,-0.012472867,0.19034983,-0.020079164,-0.01751856,0.22737607,2016-12-07 18:17:13,40.45413936348454
0.24516296,-0.49032593,9.630127,0.0,0.0,0.0,132.0,0.2558589,-0.4753582,9.79178,-0.0029277015,0.0013539606,0.21667607,-0.020546235,-0.018329946,0.23189345,2016-12-07 18:17:14,37.36036433161344
0.26478577,-0.49032593,9.600708,0.0,0.0,0.0,131.0,0.24872006,-0.4753813,9.791963,0.0035538154,-0.025909856,0.18961827,-0.020681493,-0.017960344,0.23080938,2016-12-07 18:17:15,26.32703980337851
0.22555542,-0.45111084,9.610519,0.0,0.0,0.0,132.0,0.24437968,-0.4851522,9.791594,0.02645411,-0.035680775,0.18924834,-0.021314586,-0.017740004,0.22644791,2016-12-07 18:17:16,35.56983567520635
0.22555542,-0.49032593,9.639938,0.0,0.0,0.0,131.0,0.2460408,-0.47972476,9.79182,0.028115243,-0.016632948,0.16223377,-0.020882705,-0.01786148,0.2320618,2016-12-07 18:17:17,24.484389894087
0.24516296,-0.4805298,9.630127,0.0,0.0,0.0,132.0,0.25171435,-0.47854474,9.791733,0.0065481,-0.01545294,0.17576766,-0.02074522,-0.01817637,0.2320023,2016-12-07 18:17:18,28.91715125262122
0.23536682,-0.47071838,9.659546,0.0,0.0,0.0,132.0,0.25124907,-0.45528814,9.792853,0.046943862,0.035044346,0.13602723,-0.019683205,-0.017769154,0.2256246,2016-12-07 18:17:19,35.6882313225134
0.23208618,-0.47398376,9.607254,0.0,0.0,0.0,131.0,0.22218595,-0.4678098,9.792966,0.004260411,-0.004718001,0.19062084,-0.02072004,-0.016388373,0.22272359,2016-12-07 18:17:20,34.51810093442669
0.23208618,-0.46090698,9.620331,0.0018629929,-3.214539E-4,0.003325063,132.0,0.2362908,-0.48014668,9.792039,0.004744889,-0.03067519,0.21693462,-0.02105009,-0.017279185,0.22679213,2016-12-07 18:17:21,29.66645183290182
0.30400085,-0.47071838,9.630127,5.3547556E-5,-3.549831E-4,-0.0033193184,131.0,0.21735181,-0.45989808,9.793449,-0.06892994,-0.01018606,0.15026027,-0.02041798,-0.016001778,0.2201305,2016-12-07 18:17:22,52.31352983445659
0.24516296,-0.5001373,9.600708,0.0,0.0,0.0,132.0,0.24409792,-0.47813186,9.791946,0.02617237,-0.015040034,0.20322117,-0.020826546,-0.017717237,0.23096149,2016-12-07 18:17:23,47.18716568564556
0.2745819,-0.5001373,9.590912,0.0,0.0,0.0,131.0,0.2535191,-0.468513,9.7921715,-0.0052675293,0.0081991535,0.20344645,-0.020248976,-0.018094432,0.23079465,2016-12-07 18:17:24,33.963497543773606
0.2745819,-0.5001373,9.590912,0.0,0.0,0.0,132.0,0.24946278,-0.4841187,9.791516,-0.03656452,-0.007406542,0.18917103,-0.02122212,-0.017997758,0.2277987,2016-12-07 18:17:25,27.05842338998061
0.21574402,-0.46090698,9.659546,0.0,0.0,0.0,131.0,0.24023539,-0.4894897,9.79148,-0.0049308706,-0.026397893,0.16189459,-0.021576744,-0.017454788,0.22307569,2016-12-07 18:17:26,23.901509924524255
0.2843933,-0.47071838,9.590912,0.0,0.0,0.0,131.0,0.24911214,-0.47251782,9.792092,-0.009674461,-0.009426027,0.20336749,-0.02060891,-0.017783385,0.22371654,2016-12-07 18:17:27,47.988825179623696
0.26478577,-0.46090698,9.630127,0.0,0.0,0.0,132.0,0.2428889,-0.4881983,9.791479,-0.015897697,-0.038726836,0.16189292,-0.021447036,-0.017720707,0.22723942,2016-12-07 18:17:28,35.53779899789052
0.25497437,-0.49032593,9.590912,0.0,0.0,0.0,131.0,0.24881308,-0.485003,9.791489,0.0036468192,-0.008290807,0.1891436,-0.021289049,-0.017952442,0.22655053,2016-12-07 18:17:29,27.968820806592213
0.26478577,-0.49032593,9.620331,0.0,0.0,0.0,132.0,0.24363682,-0.48151326,9.791792,0.025711248,-0.032041773,0.1622055,-0.021083103,-0.017409934,0.22012231,2016-12-07 18:17:30,48.1326172428664
0.23536682,-0.46090698,9.64975,0.0,0.0,0.0,131.0,0.24786822,-0.4727775,9.79211,0.002701972,0.017555038,0.13528487,-0.02075722,-0.017513445,0.21966828,2016-12-07 18:17:31,37.10637522550494
0.24516296,-0.47071838,9.620331,0.0,0.0,0.0,132.0,0.24576584,-0.47958362,9.791833,0.014219937,0.010748916,0.13500637,-0.02097282,-0.017778901,0.22666577,2016-12-07 18:17:32,24.366263891904293
0.2843933,-0.46090698,9.590912,0.0,0.0,0.0,132.0,0.24543013,-0.47519872,9.792055,2.6386618E-4,-0.012106877,0.18971056,-0.020768128,-0.01769905,0.22629902,2016-12-07 18:17:33,23.924221355058247
0.26478577,-0.5197449,9.600708,0.0,0.0,0.0,131.0,0.24678893,-0.4831858,9.79163,-0.012949369,0.0049067107,0.18919848,-0.021297064,-0.017738376,0.22212526,2016-12-07 18:17:34,47.42355453937017
0.23536682,-0.5001373,9.610519,0.0,0.0,0.0,132.0,0.25824052,-0.4797148,9.791505,0.026694594,-0.003002624,0.20278057,-0.020691385,-0.018592335,0.2359133,2016-12-07 18:17:35,24.237440707366883
0.2745819,-0.47071838,9.659546,0.0,0.0,0.0,131.0,0.24477662,-0.47525418,9.792069,-0.027630324,-0.012162368,0.1352433,-0.020785974,-0.017664319,0.2265594,2016-12-07 18:17:36,27.297214802427963
0.23536682,-0.47071838,9.659546,0.0,0.0,0.0,132.0,0.24757808,-0.48807493,9.791367,0.01603219,-0.011362742,0.12092049,-0.021388134,-0.017886529,0.22594221,2016-12-07 18:17:37,20.90280102253886
0.26478577,-0.46090698,9.669357,0.0,0.0,0.0,131.0,0.24306409,-0.48207667,9.791778,-0.0021021485,-0.018984856,0.1621922,-0.021171888,-0.017666446,0.22670893,2016-12-07 18:17:38,35.46392526274047
0.23536682,-0.5001373,9.639938,0.0,0.0,0.0,132.0,0.2359862,-0.483677,9.791873,-0.036420755,-0.034205545,0.18952766,-0.021159934,-0.01744307,0.22813582,2016-12-07 18:17:39,28.653483076354394
0.21574402,-0.49032593,9.610519,0.0,0.0,0.0,131.0,0.24133372,-0.48142487,9.791853,0.009728549,-0.031544283,0.18952933,-0.02110182,-0.017603613,0.22835182,2016-12-07 18:17:40,34.87177865715222
0.23536682,-0.44129944,9.630127,0.0,0.0,0.0,132.0,0.23301901,-0.4747664,9.792379,-0.012147248,-0.025294939,0.17641443,-0.020859178,-0.01704905,0.22692865,2016-12-07 18:17:41,27.219839824967295
0.25497437,-0.43148804,9.5811,0.0,0.0,0.0,132.0,0.23568724,-0.48170865,9.791977,-0.009479023,0.008623854,0.16239089,-0.021083165,-0.017386558,0.23214434,2016-12-07 18:17:42,21.90174062696918
0.23536682,-0.47071838,9.5811,0.0,0.0,0.0,131.0,0.23549287,-0.4805419,9.792038,0.0039469777,-0.017450083,0.2169338,-0.021141782,-0.017326886,0.22906029,2016-12-07 18:17:43,26.498761721292716
0.26478577,-0.47071838,9.620331,0.0,0.0,0.0,132.0,0.24677524,-0.47506684,9.792028,0.028559297,0.0014072689,0.16243827,-0.020705946,-0.0178054,0.22966406,2016-12-07 18:17:44,24.085473403988168
0.23536682,-0.4805298,9.600708,0.0,0.0,0.0,131.0,0.25035912,-0.48611256,9.791395,0.04605391,0.004219936,0.20267001,-0.021241445,-0.018053276,0.22767055,2016-12-07 18:17:45,25.27973420352886
0.22555542,-0.46090698,9.620331,0.0,0.0,0.0,133.0,0.25080425,-0.48927137,9.791225,0.032878682,-0.039799914,0.17526056,-0.021405306,-0.018194593,0.22735614,2016-12-07 18:17:46,35.83067880037805
0.22555542,-0.5001373,9.600708,0.0,0.0,0.0,131.0,0.24855523,-0.47402108,9.792033,0.030629674,0.016311435,0.18968812,-0.02064285,-0.01782397,0.2279409,2016-12-07 18:17:47,60.9173035717825
-4.8150635,0.19613647,12.160248,0.011573698,0.023838457,0.10086335,74.0,0.1932132,-0.5785778,9.787662,2.7028332,-1.1744287,-0.01834557,-0.026158547,-0.0140990475,0.2411892,2016-12-07 18:17:48,53.71746259933385
-0.5262909,4.023987,8.234314,0.21138725,-0.11254263,1.1570076,91.0,-0.1801134,1.1008694,9.743,0.2829784,-2.6992075,1.5571713,0.07331819,0.017777864,0.34046885,2016-12-07 18:17:49,47.68630872194264
-0.9839325,4.6123962,8.051254,0.08996629,0.040769298,-0.025950482,75.0,-0.21160656,4.697655,8.605677,0.89164156,0.06673713,0.7058747,0.2096941,0.13521752,0.48209307,2016-12-07 18:17:50,56.98444024961433
-1.5723267,4.965439,8.352005,0.041022185,0.040259257,-0.11412671,73.0,-1.8449832,5.2505116,8.074563,0.02100434,0.2382239,0.079418495,0.20441239,0.21743809,0.4324757,2016-12-07 18:17:51,37.46523924989541
-1.9907532,5.1354218,7.7113037,0.0084582055,-0.002496943,-0.014751798,74.0,-1.9674486,5.409649,7.9394736,0.02112218,0.30201858,0.23035713,0.2132557,0.22315732,0.42125025,2016-12-07 18:17:52,35.7467451206194
-1.8730774,4.952362,7.698227,0.004447087,-0.0047264434,-0.014589994,81.0,-2.0631683,5.276258,8.004676,-0.1971808,0.3184517,0.30917957,0.20532072,0.22307529,0.41772458,2016-12-07 18:17:53,31.47872691194356
-1.8599854,5.3184814,6.612961,0.0076569645,0.009768501,-0.013061369,75.0,-2.1474643,5.405598,7.895461,-0.30871734,0.10728309,1.3713148,0.20825747,0.23294692,0.4237208,2016-12-07 18:17:54,33.05368837623364
-0.5262909,6.704483,6.1160736,0.043756094,-0.05935795,0.029081823,64.0,-1.5283561,5.7354274,7.806369,-1.056965,-0.8040756,1.6391743,0.2465614,0.20459151,0.40282968,2016-12-07 18:17:55,33.319314872284465
-2.5268402,5.3054047,7.292877,-0.06055914,0.1454272,-0.009366589,73.0,-1.6939268,6.1756606,7.427129,0.58067113,1.027169,-0.26836756,0.253932,0.23565345,0.40578708,2016-12-07 18:17:56,36.8367429974417
-2.8537292,5.226944,7.4367065,-0.012938579,0.031717323,0.002171774,74.0,-2.7834635,5.4568734,7.6580186,0.13129078,0.22666024,0.27579042,0.19321746,0.26904827,0.42667237,2016-12-07 18:17:57,41.44625896991974
-1.5854034,5.292328,7.7635956,-0.013761502,-0.068023376,0.08100432,90.0,-2.2715006,5.4313126,7.8429275,-0.6506792,0.13299708,0.065709196,0.20546475,0.239216,0.43374482,2016-12-07 18:17:58,43.19475928647616
-2.4483948,5.9591675,7.371338,0.026573274,0.14254552,0.041670684,57.0,-2.004642,5.7713556,7.670935,0.43340018,-0.18073604,0.31594735,0.20490806,0.2611489,0.5045541,2016-12-07 18:17:59,35.99742558353579
-1.8469238,5.9591675,7.1752014,0.007314829,-0.053694814,-0.0029109826,56.0,-2.2434187,6.141371,7.3089685,-0.37544635,0.19317967,0.04544328,0.2262272,0.2745901,0.48125523,2016-12-07 18:18:00,39.433983594875755
-0.8924103,7.2798004,5.3576965,0.10305824,-0.08674423,-9.917358E-4,36.0,-1.426581,6.661255,7.054286,-0.54125834,-0.5711493,1.6061469,0.27672014,0.25624412,0.4783154,2016-12-07 18:18:01,35.21284676951965
-1.4154205,6.390671,6.861389,-0.022476887,0.0013940538,-0.034738205,54.0,-1.4174663,6.869473,6.853578,-0.05543159,0.46790934,0.016163357,0.2919043,0.2549003,0.4518012,2016-12-07 18:18:02,37.224285848616695
-6.0703125,7.5020905,4.4947205,-0.039672673,0.017282177,-0.076977886,44.0,-1.7072474,6.321467,7.3003254,4.340187,-1.9460841,3.4593878,0.2633019,0.24598484,0.4104108,2016-12-07 18:18:03,34.14932978979361
-3.7428741,5.3707733,6.822159,-0.14414752,0.04296591,0.09211044,64.0,-3.8051958,5.0924625,7.4671087,-0.05960024,0.27085945,0.1802227,0.17018172,0.29797047,0.37217274,2016-12-07 18:18:04,50.37239317527067
-2.0299835,2.7948914,9.306519,-0.12410535,-0.07111205,0.16172569,68.0,-2.0408535,3.2377367,9.028974,-0.025042063,0.4455655,-0.2601034,0.11527877,0.15847024,0.3705541,2016-12-07 18:18:05,36.704323755920925
-2.0691986,2.8341217,8.770416,0.0062177507,0.021624338,-0.023627838,69.0,-1.9380027,2.9979868,9.133817,0.11866969,0.16495447,0.3350727,0.10289602,0.15461029,0.38803345,2016-12-07 18:18:06,35.78755455080355
-1.899231,2.9387207,8.848862,-0.0056485813,-0.013285345,0.013911219,65.0,-2.0077794,2.9189298,9.144347,-0.1690323,-0.03668553,0.48180568,0.09965331,0.15411966,0.37966928,2016-12-07 18:18:07,46.31665468117645
-1.7815399,2.8864288,8.691956,-7.3739025E-4,1.6002714E-4,-9.077395E-4,91.0,-1.9330869,2.9430091,9.152719,-0.1079602,0.08273609,0.39483544,0.1002975,0.15257145,0.39014438,2016-12-07 18:18:08,43.38018949018735
-2.2261047,3.1740875,9.306519,-0.04488492,0.01782661,0.24977297,123.0,-1.5190282,2.86787,9.254095,0.7010885,-0.30567098,-0.07584299,0.09443369,0.13789809,0.46452233,2016-12-07 18:18:09,36.19901443086228
-0.21247864,4.2724304,7.907425,0.050753944,0.004816969,0.06629799,113.0,-0.8951087,2.9589388,9.306657,-0.45925754,-1.0590634,0.9573839,0.10712726,0.12060276,0.52096725,2016-12-07 18:18:10,43.50168600456412
-1.5723267,4.024002,8.129715,0.034593824,0.0437745,-0.09603019,100.0,-1.391892,4.2817564,8.712036,0.106346205,0.2501338,0.60792935,0.15540858,0.17918971,0.49441665,2016-12-07 18:18:11,36.62368208104044
-0.029418945,5.0831146,9.058075,0.14222404,-0.19454598,-0.19907609,59.0,-1.528387,4.699695,8.470377,-1.6645902,-1.2387761,1.4286575,0.20118108,0.17725383,0.4150632,2016-12-07 18:18:12,45.946627722445456
-3.63826,4.900055,7.959732,-0.0075865015,0.21510904,-0.033008058,53.0,-1.125627,5.3547707,8.138168,2.6063483,0.6148896,0.45629242,0.22466907,0.18790048,0.43016037,2016-12-07 18:18:13,40.804551160063795
-4.6581573,4.743149,7.475937,-0.041452028,0.061859466,0.06177403,34.0,-2.8741968,4.9529448,7.9610133,1.7567214,0.21306358,0.89205295,0.17258355,0.2559921,0.398768,2016-12-07 18:18:14,43.04559323316474
-2.500702,4.625473,7.9989624,0.040092636,0.017691426,-0.025749633,80.0,-3.984706,5.223676,7.280502,-1.6420063,0.63361925,-0.80998415,0.17303762,0.31529275,0.37764254,2016-12-07 18:18:15,41.72364388033334
-2.6445313,4.9392853,7.6589966,0.014075411,0.0044700806,-0.006251268,74.0,-3.0186343,5.1442266,7.7842903,-0.38990736,0.21366048,0.12965517,0.17020965,0.27277386,0.43892103,2016-12-07 18:18:16,50.425840925916845
-3.2329254,4.625458,7.4367065,-0.017599829,0.0012611878,-0.016056873,76.0,-3.0335507,4.9644504,7.89444,0.049143072,0.46078157,0.291312,0.1622726,0.2651828,0.4287894,2016-12-07 18:18:17,45.21721220738332
-3.6774902,4.468567,8.142792,-0.0036217528,0.0068844794,-0.016800381,72.0,-3.402012,4.646516,7.9376698,0.31634262,0.17904182,-0.3298811,0.14044985,0.2748821,0.42643455,2016-12-07 18:18:18,43.85394026590469
-3.0629425,4.8739014,7.7112885,0.008075704,-0.022282988,0.0177001,64.0,-3.059972,4.715408,8.035662,0.24977218,-0.32412046,0.76239693,0.15323853,0.25844052,0.42573905,2016-12-07 18:18:19,46.03376890763776
-1.5592499,5.3446198,7.2405853,0.029068941,-0.048990816,0.0533373,60.0,-1.7456789,5.1491857,8.1614275,-0.11123727,-0.13550891,0.9562633,0.20153935,0.21014473,0.45783678,2016-12-07 18:18:20,42.12566614026504
-1.6638641,6.2468414,5.893799,0.052009057,0.0057540834,0.01091937,47.0,-1.6745344,5.6156335,7.8632684,-0.3533608,-1.0174758,1.5979085,0.21814053,0.23000664,0.47552583,2016-12-07 18:18:21,56.59168852431136
-1.1016083,6.49527,6.547577,-0.018642502,-0.008948268,0.025099115,41.0,-1.9600574,6.036096,7.4762363,-0.9521517,-0.61063325,0.9929511,0.22922824,0.25696057,0.47515815,2016-12-07 18:18:22,44.35151696867941
-1.2585144,5.9722443,7.410553,-0.034959093,-0.0069805207,-7.792246E-4,50.0,-1.1808329,6.684965,7.0772357,0.05861877,0.7192531,-0.26413116,0.2944968,0.22717617,0.43027666,2016-12-07 18:18:23,45.537819221196365
-1.6507874,5.645355,7.580536,-0.0075469045,0.02602472,0.006887785,45.0,-1.6325716,6.1338415,7.475366,-0.11537963,0.32340926,0.13363387,0.24327488,0.24418946,0.4711947,2016-12-07 18:18:24,55.308173677394606
-0.8662567,6.272995,6.9398346,0.077003926,-0.095583566,-0.05158398,22.0,-0.997448,6.569108,7.21265,-0.071264386,0.33098924,-0.033375006,0.2963331,0.21356066,0.42756265,2016-12-07 18:18:25,50.94373025707202
-0.43476868,5.946106,7.397476,-0.044786226,0.0036050372,0.018371176,64.0,-1.0005449,6.3535514,7.4028172,-0.019879876,0.40145943,-0.08837431,0.2827665,0.20061778,0.41906512,2016-12-07 18:18:26,43.82679991723886
-2.7883606,6.6652527,6.6129456,0.05882641,0.044275463,-0.08589639,18.0,-2.2533123,6.65749,6.8389187,0.5252386,-0.0028601566,0.21942984,0.26935542,0.28677943,0.42058492,2016-12-07 18:18:27,41.72084440604061
-2.4091644,6.3514404,6.599869,-0.034785792,-0.00511345,0.022716047,31.0,-2.4845054,6.760394,6.655426,-0.09240268,0.39323184,0.06447926,0.27650845,0.2863643,0.4019334,2016-12-07 18:18:28,52.93598428766609
-2.5529938,6.0637817,6.822159,4.6527726E-4,-0.020332677,-0.033296544,37.0,-2.8639112,6.5693855,6.6941447,-0.3577673,0.508331,-0.2658528,0.25649098,0.30280367,0.40429837,2016-12-07 18:18:29,54.18640523880492
-2.6837463,5.998398,6.9529114,-0.013565791,0.0055454033,0.0025609902,41.0,-2.6802,6.2487025,7.0668693,-0.010612008,0.29661083,0.22945514,0.2409165,0.2853891,0.41502234,2016-12-07 18:18:30,49.750143942142245
-2.330719,5.815338,7.044449,-0.039082468,0.0030495608,0.04128255,55.0,-2.3006384,5.929731,7.464298,0.05568161,0.086601935,0.4361986,0.23981471,0.24765168,0.39340582,2016-12-07 18:18:31,48.88929076804003
-2.3045654,6.1160736,7.3974915,0.06021182,-0.036780618,0.0066896677,60.0,-2.1216617,6.3819914,7.1371655,0.13931614,0.28007546,-0.2042013,0.26507273,0.2580876,0.40735176,2016-12-07 18:18:32,48.819096230997616
-2.5268402,6.704483,6.220688,0.032147083,0.031058738,-0.0074250726,59.0,-2.3792315,6.5968013,6.855062,0.19501416,0.03179342,0.58970183,0.2633042,0.2863817,0.42517996,2016-12-07 18:18:33,54.0111886894433
-0.4086151,5.6453705,7.0182953,-0.041133113,-0.011303701,-0.006515625,79.0,-2.5824926,6.5497274,6.82658,-2.4735298,1.1015885,-0.66461086,0.25933042,0.28841913,0.41301936,2016-12-07 18:18:34,48.0065007356949
-0.25170898,5.776123,7.083664,0.002803562,-0.071194,-0.029624777,59.0,-1.1430613,6.4575295,7.2913733,-0.5209255,0.6438906,-0.0055025076,0.27379984,0.22956032,0.47312438,2016-12-07 18:18:35,28.56702463454262
-1.4415741,5.776108,7.1621246,0.0068355864,0.038007382,-0.017157359,60.0,-1.1801403,6.1309667,7.5623345,0.31809795,0.39680028,0.4116522,0.24518856,0.23458941,0.50151694,2016-12-07 18:18:36,58.212717947671266
-0.787796,6.2860565,6.756775,0.0088421665,-0.020063613,0.020833196,54.0,-1.2906228,6.086958,7.579817,-0.5006427,-0.19202206,0.79688424,0.23749788,0.23960759,0.5190488,2016-12-07 18:18:37,47.43949193644535
-0.016342163,6.116089,7.1621246,6.44129E-4,-0.043263886,-0.003987966,52.0,-0.5289633,6.402745,7.4091473,-0.0931122,0.15100513,0.2312242,0.28390595,0.2035733,0.4873819,2016-12-07 18:18:38,43.92934402288095
-1.4154205,6.0768585,7.1621246,-0.012378621,0.03947844,-0.002367043,56.0,-1.2521387,6.3447237,7.372043,0.21885882,0.24280821,-0.03742603,0.2509143,0.2471382,0.51331663,2016-12-07 18:18:39,42.71580254495103
-1.3238983,6.49527,7.0052185,0.0297958,-0.049808424,-0.03837288,49.0,-1.2417814,6.877258,6.879804,0.03853127,0.39397252,-0.025711896,0.2885833,0.2572473,0.48217714,2016-12-07 18:18:40,38.61878141043841
-1.1016083,5.619217,6.822159,-0.07998815,-0.054038897,-0.061406676,71.0,-2.1728952,6.810524,6.713098,-0.6337961,1.3351445,-1.636175,0.25852254,0.28868926,0.4671308,2016-12-07 18:18:41,38.444436496928404
-1.2062073,6.390671,7.567459,0.035747204,-0.016779546,0.0021640027,56.0,-1.3346536,6.1839437,7.493193,-0.42209035,-0.17675859,-0.05247957,0.23652706,0.25022998,0.5323581,2016-12-07 18:18:42,46.33341641594263
-0.55244446,6.0114746,7.358261,-0.028141342,-0.024359591,-0.002584761,61.0,-0.5921454,6.595515,7.2331834,-0.047331467,0.58894163,-0.121804185,0.2873672,0.21878114,0.4972658,2016-12-07 18:18:43,44.11265224169723
-0.33015442,6.155304,7.0706024,0.03002912,0.03963763,-0.023352811,59.0,-0.8683442,6.423023,7.359426,-0.54145586,0.2802467,0.2904657,0.2660829,0.23363064,0.5153701,2016-12-07 18:18:44,54.46979445956777
-0.94470215,7.070587,6.3906555,0.0037877397,0.044482548,0.03564368,42.0,-0.8295846,6.357692,7.420373,0.11021943,-0.6567869,1.0324297,0.2579914,0.2361018,0.5374334,2016-12-07 18:18:45,43.49337680050708
-2.2784119,4.7693024,9.685699,-0.107059106,-0.08040342,-0.09474942,98.0,-0.5808097,6.677869,7.15815,2.0018737,2.8294785,1.698514,0.30536827,0.19855441,0.4333584,2016-12-07 18:18:46,44.96981972334737
0.035949707,4.5993195,8.9796295,-0.023835309,-0.0615407,0.17734744,112.0,-0.058452703,4.5025816,8.711701,-0.01759166,-0.10109558,-0.1823858,0.21381593,0.09929105,0.4122633,2016-12-07 18:18:47,47.12776387440868
-1.0623779,5.7630463,7.149048,0.029195335,0.04597911,0.062152762,98.0,0.08954347,4.7978945,8.552343,1.0565882,-0.97713274,1.2926985,0.22877274,0.109943144,0.43382934,2016-12-07 18:18:48,41.65377456210798
-0.39553833,5.3707733,7.4497833,0.033613898,0.04030407,-0.038811788,77.0,-0.6345163,5.6323323,8.002788,-0.2667669,0.32039696,0.62055963,0.23728192,0.19045644,0.5054589,2016-12-07 18:18:49,46.38377091329255
-1.6638641,5.5146027,7.959732,0.01070278,-0.0248407,-0.006239099,78.0,-0.81562203,5.9323025,7.766142,0.8596807,0.4024412,-0.10641894,0.25533113,0.19707231,0.47196728,2016-12-07 18:18:50,47.88495471844273
-1.7553864,5.2007904,8.025101,-0.0015933957,0.049342897,-0.022857238,80.0,-0.67056894,5.856919,7.836914,1.168178,0.6403259,-0.32167432,0.255806,0.1871085,0.46427187,2016-12-07 18:18:51,49.18856888155947
-0.9970093,5.449234,7.541321,-0.012164135,-0.009695033,0.0023152707,72.0,-1.3660899,5.427258,8.052891,-0.24922144,-0.007260749,0.33015376,0.21585822,0.20646638,0.4727483,2016-12-07 18:18:52,40.43022258753321
-1.2715912,5.658432,7.750519,0.020510519,0.007479879,0.048877575,67.0,-0.61637205,5.779491,7.898605,0.8818662,0.14066683,0.14862755,0.25457454,0.18113838,0.46687046,2016-12-07 18:18:53,50.2800902722027
-0.93162537,6.050705,7.1621246,0.054204125,-0.04061133,-0.033078954,61.0,-0.9635221,6.3688865,7.394546,-0.050958775,0.32145193,0.23024324,0.28180066,0.21076226,0.44328913,2016-12-07 18:18:54,48.4538498024847
-1.2977448,5.815338,7.3974915,-0.020905122,0.009077178,-0.01717583,69.0,-1.0947323,6.142477,7.5658393,0.19920069,0.32658866,0.18361117,0.26638937,0.20734267,0.4371009,2016-12-07 18:18:55,50.099340203902194
-1.611557,5.9068756,6.6652527,-0.020233426,0.08253169,0.049075317,81.0,-1.4845248,6.00193,7.6120563,0.7764528,0.33586535,-0.21964306,0.24769905,0.22461063,0.44381353,2016-12-07 18:18:56,48.19953813113446
-1.4415741,6.390671,6.9398346,0.021033747,-0.038561154,0.0019977028,76.0,-1.8909923,6.2666373,7.3023148,-0.448843,-0.086604014,0.37538257,0.23913243,0.26580033,0.48737353,2016-12-07 18:18:57,46.157256169553946
-1.7815399,6.429886,6.652176,-0.002043769,5.5022072E-5,3.903297E-6,71.0,-1.4864044,6.622136,7.0787225,0.12079661,0.38401663,-0.20816337,0.26990044,0.25608993,0.47575212,2016-12-07 18:18:58,45.99613031741651
-1.1277618,6.3383636,6.8483124,8.902618E-5,-0.035878897,0.007096325,59.0,-1.3693953,6.694436,7.0341797,-0.17080468,0.30649358,0.38744998,0.28236476,0.24800488,0.4616214,2016-12-07 18:18:59,50.3682106041594
-0.9185486,6.639099,6.6783295,0.010419267,-0.028974585,-0.019453175,55.0,-1.678714,6.584013,7.071286,-0.80701184,-0.06271686,0.41093644,0.25947702,0.26868585,0.48847073,2016-12-07 18:19:01,52.16181720525399
-0.48706055,7.188278,5.501526,-0.018671514,0.011524582,0.05419193,51.0,-0.8948115,6.3817134,7.3921204,-0.41809928,-0.80983037,1.8758794,0.2740935,0.219457,0.48286083,2016-12-07 18:19:02,49.779406887418354
-0.8662567,6.6652527,6.5737305,-0.03856816,0.034064956,0.012617147,57.0,-0.89272654,6.6280003,7.172381,-0.061885335,-0.03234957,0.58013254,0.29168513,0.22057725,0.45601022,2016-12-07 18:19:03,50.42595256378243
-2.1738129,5.6976624,7.632843,-0.036854725,0.012795954,0.0069542397,61.0,-0.9625041,6.6477466,7.1450295,0.30418822,0.7365159,-0.100995414,0.29213467,0.21812579,0.44186473,2016-12-07 18:19:04,47.0496512739071
-2.9714203,5.1354218,7.724365,-0.03969679,0.061200757,0.022429472,69.0,-2.0962012,5.714256,7.689188,0.91389567,0.6474865,-0.033548754,0.22291909,0.24075754,0.42693764,2016-12-07 18:19:05,39.95190253588446
-3.4029083,5.2400208,6.9136963,0.006457851,0.039370272,-0.02638746,68.0,-3.3442426,5.3422236,7.513128,-0.009218092,0.09441925,0.56399244,0.17781384,0.29414117,0.4161995,2016-12-07 18:19:06,40.848034933078466
-4.017456,5.9199524,6.979065,0.0058977366,0.004293354,0.008161605,59.0,-3.6338656,5.486283,7.2709093,-0.31050095,-0.16616133,0.52883756,0.17825827,0.31320634,0.42277265,2016-12-07 18:19:07,50.724943952243564
1.0820007,4.5862427,8.39122,-0.114404984,-0.14306295,0.2610626,107.0,-0.68835956,5.4602227,8.116805,-1.764367,0.8837859,-0.25970852,0.2514339,0.14489558,0.3906367,2016-12-07 18:19:08,45.65687362660475
-0.09480286,5.004669,8.195099,0.0078657875,-0.0073085353,-0.025679398,107.0,0.19992618,5.024418,8.419362,0.19992618,0.12109257,0.04284873,0.24365118,0.10816789,0.42369875,2016-12-07 18:19:09,63.34382273500073
-0.21247864,4.8216095,8.221237,-0.0034827266,0.016731367,7.3256815E-4,112.0,-0.10977878,5.0202594,8.423498,0.06728575,0.1714157,0.23766941,0.23867537,0.1162106,0.4021096,2016-12-07 18:19:10,56.05486785854541
-0.4478302,4.952362,8.090485,0.008186445,0.0031817746,-0.01688584,109.0,-0.21822684,5.066895,8.393411,0.17676324,0.13632941,0.3029239,0.2388092,0.123062864,0.4027993,2016-12-07 18:19:11,51.81133553038522
-0.578598,4.900055,8.195084,-0.0012183185,0.01297754,-2.9658581E-4,105.0,-0.45636803,5.119134,8.35204,0.1293069,0.21580902,0.16621163,0.23696838,0.13408361,0.39643842,2016-12-07 18:19:12,56.41700756626251
-0.84010315,4.9392853,8.142792,4.92728E-4,0.02096775,-0.0021431458,100.0,-0.6450676,5.0781536,8.364606,0.11767189,0.14758798,0.27411947,0.22987537,0.14402534,0.40222904,2016-12-07 18:19:13,53.96417351658695
-0.77471924,4.9392853,8.012039,-0.0026896945,0.0042087277,0.011327872,91.0,-0.80746806,5.060092,8.361451,0.035246048,0.10332476,0.2974064,0.22450183,0.15254758,0.40886405,2016-12-07 18:19:14,61.9555394587914
-0.90548706,4.9131317,8.142792,-0.0015799067,0.0077863927,0.010636492,98.0,-0.829153,5.0771923,8.348953,0.042549245,0.1874876,0.2448462,0.22460817,0.15447508,0.41020226,2016-12-07 18:19:15,54.21371864164782
-0.8008728,4.8608246,8.116638,-0.0015984577,0.004584573,0.004733607,97.0,-0.8579655,5.0510993,8.361859,1.1638481E-4,0.18863526,0.28499314,0.22393441,0.153321,0.40291244,2016-12-07 18:19:16,56.17091216125058
-0.8335724,4.8444824,8.110107,-0.0027321856,-2.5614476E-4,0.0069428678,98.0,-0.8137881,5.0346913,8.376158,0.0034327803,0.17222747,0.27205116,0.22266856,0.15267931,0.41105142,2016-12-07 18:19:17,48.9210689824695
-0.8662567,4.9131317,8.155869,0.002995179,-0.0054625445,-0.007571693,100.0,-0.9028746,5.019153,8.376354,-0.18099613,0.14306892,0.25862697,0.22224522,0.15349391,0.39850685,2016-12-07 18:19:18,49.93747519443425
-1.2062225,4.9785156,7.9989624,-0.0024900336,-5.861417E-4,-0.010838092,93.0,-0.8821044,5.0259113,8.374516,0.2390601,0.065565795,0.36628625,0.221042,0.15538022,0.40643975,2016-12-07 18:19:19,55.21955918483993
-0.43476868,4.6908417,8.456604,-0.001600213,0.0035940532,-0.019481776,79.0,-1.133732,4.96914,8.378108,-0.8204641,0.2973607,0.13779795,0.21475568,0.16341364,0.3970108,2016-12-07 18:19:20,63.49458536860682
-1.729248,5.4100037,7.4497833,0.050955612,0.09486402,-0.0012233773,85.0,-1.2513689,5.5006685,8.021666,0.50565594,-0.0019519393,0.6530576,0.22398436,0.20517908,0.4657288,2016-12-07 18:19:21,54.19310436253455
-1.1277618,5.60614,7.724365,0.009798184,-0.036508325,-0.02845997,77.0,-1.989189,5.694908,7.7318506,-0.46054712,0.20417428,0.36182374,0.22318245,0.23669647,0.43462452,2016-12-07 18:19:22,48.47328852709818
-0.0032653809,5.0831146,8.273544,-0.041039713,-0.018330485,0.1745742,80.0,-0.27087232,5.120836,8.359071,-0.39345548,0.06768691,0.064279325,0.23155129,0.14010164,0.46262535,2016-12-07 18:19:23,72.78188574347232
-0.30400085,5.2661743,8.064331,0.0017485635,0.02258058,0.021210544,82.0,0.15230171,5.173129,8.329821,0.47919005,-0.057084255,0.19847351,0.24532047,0.12306658,0.4552355,2016-12-07 18:19:24,55.38266437062135
0.53282166,6.3514404,5.8545685,0.053592566,0.0026363865,-0.021423372,55.0,-0.3051911,5.4334607,8.15811,-0.7546626,-0.9408618,2.3286006,0.24369965,0.16048045,0.47979316,2016-12-07 18:19:25,40.25513744231267
-0.4086151,6.1291504,7.0967407,-0.004847694,0.0521069,-9.482885E-4,65.0,-0.016219756,6.6983175,7.1625876,0.41963136,0.5827815,0.011905334,0.3235341,0.1721727,0.43232808,2016-12-07 18:19:26,63.23400124057615
1.7096252,4.8346863,8.116638,-0.06937488,-0.123911485,0.03685264,112.0,0.38205892,6.1410713,7.6362076,-1.2529732,1.2394724,-0.27403635,0.30724782,0.11344283,0.41515416,2016-12-07 18:19:27,49.142984778564475
0.2843933,4.45549,8.325851,-0.044316795,0.034134053,-0.08453595,118.0,0.5380819,4.8841963,8.486782,0.32015637,0.41672245,0.19199087,0.24004728,0.09528711,0.44733584,2016-12-07 18:19:28,46.24109465578994
0.088256836,4.2724304,8.535049,-0.0101522645,0.008545435,-0.002245604,120.0,0.17053697,4.5707903,8.674628,0.04795384,0.321242,0.16191122,0.21781799,0.100598305,0.43877584,2016-12-07 18:19:29,62.093540667771435
0.36283875,4.3639526,8.443527,-0.0061828396,-0.008189628,-0.0071244445,110.0,0.16396013,4.368562,8.778336,0.013106215,-0.13504004,0.6037902,0.20898068,0.09338678,0.43044987,2016-12-07 18:19:30,65.19039404151617
2.1411285,4.7562256,7.2274933,-0.005732188,-0.01341562,-0.041116595,115.0,0.04724954,4.4063616,8.76083,-2.3177412,-0.0023044192,0.61380434,0.21548851,0.083068185,0.367762,2016-12-07 18:19:31,63.900460002992865
-2.7099,4.4816437,8.182022,-0.018817661,0.1477161,-0.092138484,58.0,-2.9988034,3.7084599,8.568832,0.54075897,-0.45863843,1.3807428,0.103452705,0.23130293,0.42573977,2016-12-07 18:19:32,64.17423795686447
-2.5268402,4.677765,8.7573395,0.016264755,-0.0471601,0.13857792,85.0,-2.2172801,4.2789874,8.540745,0.054030396,-0.3686098,-0.10731178,0.15623352,0.20061158,0.43483362,2016-12-07 18:19:33,48.65440341103722
-3.089096,5.16156,7.4367065,0.025013514,0.03401134,-0.02366265,98.0,-2.6566586,5.0634174,7.9670796,0.13942048,-0.032763153,0.96376425,0.18087494,0.24847406,0.41876322,2016-12-07 18:19:34,59.150761210136515
-2.9975586,5.056961,7.135971,0.004177755,0.01437857,0.019507047,90.0,-2.9664402,5.233965,7.7444324,0.057218723,0.15006615,0.5460235,0.1767748,0.2729044,0.43792185,2016-12-07 18:19:35,57.904993622667924
-3.0629425,5.070038,7.593628,0.0076097394,-0.023456385,0.015993265,100.0,-3.0291827,5.129773,7.789729,0.035395738,0.06300367,0.20319541,0.17234476,0.27042723,0.43125984,2016-12-07 18:19:36,57.528761521644604
-2.4091644,5.2007904,7.5543976,-0.008285185,-0.01333417,0.03694635,88.0,-2.6430037,5.227341,7.8651023,-0.05513772,0.010748137,0.03340244,0.18901902,0.25113705,0.42175144,2016-12-07 18:19:37,61.999190058079506
-2.8014374,5.4884644,7.214432,0.031991683,-0.008318124,-0.026797118,75.0,-2.5633924,5.589781,7.6389637,0.31050095,0.08716016,0.37931803,0.20591004,0.2618601,0.4300184,2016-12-07 18:19:38,64.37328958861258
-2.9191132,5.4884644,7.3844147,0.012011073,0.0041898,-0.010593447,72.0,-2.779161,5.7418613,7.4483337,0.016013717,0.2737034,0.27448526,0.21029492,0.27700084,0.42387372,2016-12-07 18:19:39,72.92619189995202
-3.0629425,5.292328,8.378143,-0.03221713,0.0036980447,0.024740927,88.0,-2.7808652,5.661005,7.5093412,0.26986912,0.42498368,-0.5343609,0.2077193,0.2691777,0.41541752,2016-12-07 18:19:40,60.76774949165109
-3.0237122,4.9392853,7.86821,-0.021132076,0.010296678,-0.0057121045,80.0,-2.7543263,5.3787317,7.723556,-0.071117975,0.40730524,0.3821886,0.19012131,0.26303446,0.42486078,2016-12-07 18:19:41,54.382921552811155
-1.8469238,5.1615753,7.6720734,1.11807485E-5,-0.019094251,0.0105801495,74.0,-2.8162699,5.1470566,7.857915,-1.091784,-0.021568183,0.19580913,0.1787554,0.25920463,0.42976245,2016-12-07 18:19:42,55.46612480163036
-2.3830109,5.6976624,6.7960052,0.04547235,-0.006973712,-0.042729914,59.0,-2.6419692,5.7142878,7.5191283,-0.17668648,0.06184356,0.68171406,0.21631686,0.26547948,0.41169828,2016-12-07 18:19:43,57.35861888216313
-0.95777893,5.4230804,6.965988,-0.057283316,-0.0054890746,0.086106054,78.0,-2.2797344,5.7780166,7.588658,-1.0893841,0.3797,0.45653766,0.22521704,0.24251771,0.42002743,2016-12-07 18:19:44,31.97357529426744
-1.4808044,6.8352356,5.9591675,0.031308006,0.03066982,0.033021912,69.0,-1.654168,5.855874,7.6904383,-0.59178096,-0.79085517,1.9971334,0.23154774,0.23469675,0.4670383,2016-12-07 18:19:45,55.81696070586603
-1.2585144,6.482193,7.292877,0.054175075,-0.043910883,-0.018600754,56.0,-1.8265822,6.1720657,7.3986206,-0.5735102,-0.37932175,0.030012317,0.24246359,0.25450572,0.46969414,2016-12-07 18:19:46,48.722665933371644
-1.9122925,5.9068756,7.0052185,-0.022838058,0.042023133,0.008822727,59.0,-1.5937387,6.3920755,7.2644176,0.27224898,0.5489464,0.29079992,0.25644574,0.2523147,0.472027,2016-12-07 18:19:47,48.72180221436915
-1.3631287,6.5606537,7.044449,0.049509775,-0.065496184,-0.008870603,52.0,-1.6648046,6.529666,7.1247654,-0.33001056,-0.03534191,0.110286236,0.26491424,0.25915033,0.46848184,2016-12-07 18:19:48,43.482410368691106
-1.4154205,6.3514404,6.9398346,0.009819055,-0.00622823,-0.020290181,52.0,-1.5275658,6.790725,6.9081826,-0.20639214,0.4981249,0.39765656,0.28637555,0.25653467,0.44934654,2016-12-07 18:19:49,28.46504631700601
-1.0623779,6.704483,6.4168243,0.030604618,7.2824676E-4,0.009619708,39.0,-1.6142117,6.590273,7.080467,-0.5382042,-0.19265968,0.9240704,0.2725707,0.25596303,0.457877,2016-12-07 18:19:50,36.70952668752881
-1.1931458,5.7499695,7.135971,-0.093508825,0.064689055,0.050582726,70.0,-1.4048076,6.504679,7.203197,-0.41052216,0.7841335,-0.08368899,0.2724404,0.23882268,0.45078066,2016-12-07 18:19:51,60.38877323160765
-0.22555542,5.4753723,8.482758,0.001326597,-0.029539151,-0.045559146,85.0,-1.3951843,6.0304995,7.6063743,-1.1636384,0.8002856,-0.6203161,0.24672152,0.22606027,0.46309093,2016-12-07 18:19:52,71.52443490672297
-0.9839325,3.971695,8.665802,-0.083048,0.018185731,0.06410486,89.0,-0.80897903,4.4093695,8.722007,0.15806563,0.44584817,0.059465986,0.18178979,0.14605248,0.4622016,2016-12-07 18:19:53,62.1897601033448
-1.4023438,4.076294,8.469681,0.007880964,0.017847897,-0.015107779,81.0,-1.2203808,4.1053643,8.821964,0.16889471,0.03288037,0.36372828,0.15740483,0.16100024,0.46683875,2016-12-07 18:19:54,56.790263065974514
-0.2386322,3.3309937,8.508896,-0.04602907,0.057447143,0.032083314,100.0,-1.6465226,3.9448466,8.825958,-1.2923936,0.5806209,0.2042786,0.13832301,0.17471088,0.46796054,2016-12-07 18:19:55,42.633749104628684
-1.4154205,3.1871643,8.966553,-0.02894904,0.0014220008,0.0014925172,73.0,-1.3917994,3.4325118,9.080262,0.07919809,0.31345233,0.10445286,0.12935328,0.1416125,0.42093292,2016-12-07 18:19:56,56.61887838866878
-1.0885315,3.5271301,8.79657,0.018094847,-0.018710405,0.011879418,74.0,-1.2549096,3.5656507,9.048852,-0.2294541,0.006393682,0.24028641,0.14122304,0.1370076,0.41334966,2016-12-07 18:19:57,48.87797738363058
-0.8662567,3.7755585,8.731186,0.0139084365,-0.014402065,-0.012509292,68.0,-0.99561834,3.7908967,8.989341,-0.1375365,0.0044400804,0.23145695,0.15653849,0.13143459,0.41976377,2016-12-07 18:19:58,57.05513508470294
-0.6047363,3.7886353,8.770416,0.002407145,-0.029121036,-0.02551563,60.0,-0.7237952,3.8905623,8.972739,-0.13812019,0.10410579,0.20123516,0.16704138,0.12071495,0.4202373,2016-12-07 18:19:59,44.2063775409781
-0.5262909,4.0501404,8.691956,0.018140506,-0.007120595,-0.004484802,59.0,-0.55286163,4.0376496,8.919761,-0.035288446,-0.0075936927,0.22997886,0.17917347,0.11536227,0.41341737,2016-12-07 18:20:00,52.27155605410856
-0.30400085,4.5862427,8.325851,0.015987651,0.0029863967,0.014073832,67.0,-0.5175561,4.2441363,8.825522,-0.19066772,-0.26419893,0.44900924,0.19078372,0.11961184,0.4166072,2016-12-07 18:20:01,28.694444132473773
-1.1277618,3.3571472,8.600433,-0.0017911504,0.0091835875,-0.034205135,81.0,-0.30488724,4.5382023,8.688046,0.7574999,0.81984735,0.052746423,0.20755138,0.11722998,0.41595957,2016-12-07 18:20:02,33.18916382914991
-1.0885315,5.501526,8.365082,0.05558789,0.06818771,0.23052011,107.0,-1.0416484,4.6310663,8.581293,-0.115464844,-0.7898321,0.4227046,0.19838107,0.15574062,0.42170388,2016-12-07 18:20:03,42.00539069148136
-1.1277618,4.9131317,7.9989624,-1.1054415E-4,-0.009145201,-0.06634833,100.0,-1.1809238,5.774764,7.8375955,-0.036814593,0.9804019,-0.38909438,0.23773834,0.20919576,0.46338174,2016-12-07 18:20:04,51.054954170872506
-1.4415741,5.449234,7.8812714,0.030344002,0.003702337,-0.026667412,102.0,-1.7077656,5.506798,7.932787,-0.15504585,0.07227912,-0.03511662,0.20921251,0.2283996,0.47949916,2016-12-07 18:20:05,30.119614285946806
-1.1016083,5.6976624,7.7635956,-0.010243638,4.176359E-4,0.03998795,87.0,-1.1394514,5.7037134,7.8955483,-0.29498985,-0.003211805,0.24091323,0.232151,0.2083163,0.4853457,2016-12-07 18:20:06,32.31249180183977
-0.9185486,5.815338,7.8289795,9.4382715E-4,0.0011996798,0.010677763,88.0,-0.8088423,5.8997107,7.791637,0.11734134,0.09744235,-0.12178506,0.24988908,0.20054615,0.48681635,2016-12-07 18:20:07,67.96550579190671
-0.85317993,5.8676453,7.2275085,0.005856944,3.6756223E-4,-0.0068099373,90.0,-0.8547477,6.0468383,7.673041,0.15315804,0.19008923,-0.37658468,0.2561567,0.20800206,0.48627675,2016-12-07 18:20:08,37.829313412706924
-0.9970093,5.9199524,7.3451843,0.00525345,-0.0039162603,-0.014198513,82.0,-0.91100395,6.093371,7.6296325,0.15850592,0.23428635,0.032190375,0.25683674,0.21234304,0.48627147,2016-12-07 18:20:09,43.70251098512165
-0.77471924,5.828415,7.253662,-0.0043073404,-0.0050658854,-0.0043796003,86.0,-0.9322903,6.076336,7.64064,-0.033347365,0.1514848,0.28565237,0.2539453,0.2136478,0.49090058,2016-12-07 18:20:10,36.67693577200761
-0.787796,5.933029,7.410568,-0.0094371075,0.0073669553,0.016926927,75.0,-0.92988807,6.060437,7.6535482,-0.13990794,0.1355858,0.24407889,0.25436962,0.21195798,0.4875123,2016-12-07 18:20:11,58.454884412861404
-0.42167664,5.3446198,7.7113037,-0.03677027,-0.012462934,-0.026122775,94.0,-0.8396556,5.9676332,7.736455,-0.58086896,0.65569746,0.13630074,0.2540649,0.20073073,0.4767581,2016-12-07 18:20:12,59.23668890064323
-1.4154205,5.8414917,7.7113037,0.041785996,0.0016123296,-0.035237785,70.0,-1.1037172,5.8063054,7.8255363,0.04039197,-0.03682332,0.78381675,0.2510078,0.20046234,0.43936032,2016-12-07 18:20:13,55.48110866407732
-1.4154205,5.998398,7.4236298,0.030471597,0.014803221,0.015896939,64.0,-1.2985492,6.3413005,7.3669577,0.07710597,0.32110694,0.43420097,0.27399576,0.22568491,0.4380996,2016-12-07 18:20:14,55.37141468558828
-0.8924103,5.501526,8.417374,-0.062255688,-0.0050276057,0.045695465,82.0,-1.3117237,6.038277,7.615051,-0.03141101,0.52203655,-0.73422265,0.25618243,0.21200936,0.43492413,2016-12-07 18:20:15,46.00267274519848
-1.4546509,6.220688,6.861389,0.057863194,0.029794348,-0.02686389,65.0,-1.7089452,6.097068,7.4883685,0.099781886,-0.22853029,0.68359697,0.23737393,0.25097102,0.48150113,2016-12-07 18:20:16,43.046481176285425
-1.6246338,6.5737305,6.9136963,0.016199352,0.0156368,0.01791173,52.0,-1.4814531,6.673554,7.0313125,0.13936831,0.108546704,0.12579618,0.27130464,0.2611608,0.48214692,2016-12-07 18:20:17,39.44661432254994
-1.5200348,5.7499695,7.188278,-0.034756813,0.0056828354,0.017720444,70.0,-1.2538636,6.8930473,6.8617873,0.34772778,0.86735356,-0.42097715,0.28670785,0.258603,0.48457474,2016-12-07 18:20:18,58.705459093790566
-1.6900177,6.469116,6.7829285,0.049345,0.05568479,0.021709817,57.0,-1.6466924,6.4940944,7.1613927,-0.053111687,0.07891056,0.5691441,0.24392839,0.27696,0.5238567,2016-12-07 18:20:19,54.34248170789118
-1.6638641,6.756775,6.31221,-0.004146172,0.028938005,-0.011576125,52.0,-2.0450919,6.724204,6.839085,-0.27537665,0.30164406,0.13954829,0.24161544,0.30496648,0.52314085,2016-12-07 18:20:20,65.22726548071448
-1.114685,6.704483,6.482193,-0.04233648,0.024977215,0.03449792,52.0,-1.6778815,6.804545,6.8595376,-0.57463336,0.11695468,0.512456,0.26122537,0.2852622,0.51128227,2016-12-07 18:20:21,58.90923496995907
-0.8662567,6.9921417,6.3514404,0.025061376,-0.071241125,-0.012003146,44.0,-0.6405894,7.050584,6.785963,0.23111284,0.049725406,0.411641,0.3158261,0.23389769,0.4800855,2016-12-07 18:20:22,53.63727694084326
-0.8793335,6.9398346,6.9398346,-0.003676217,0.004724347,0.0132122,42.0,-0.7174482,7.118781,6.7066092,0.01805061,0.1315431,-0.14442523,0.31665036,0.24026969,0.47889993,2016-12-07 18:20:23,41.33242957744915
-0.47398376,7.737442,5.501526,0.051958695,-0.011150532,0.005057663,20.0,-0.7395931,7.4924736,6.283807,-0.27650124,-0.23026317,0.781186,0.3335865,0.2635277,0.489528,2016-12-07 18:20:24,45.07678138755003
-0.33015442,7.214432,6.325287,-0.051060803,-0.008234,-0.0044641728,39.0,-0.5327108,7.673285,6.083364,0.052964125,0.34553817,0.06317035,0.35323703,0.2527863,0.47216,2016-12-07 18:20:25,54.73334563138498
-0.38246155,6.5214233,7.2275085,-0.04084019,-0.01740064,-0.015150098,57.0,-0.34171492,7.288197,6.5525417,0.079378255,0.68503016,-0.46821356,0.33567867,0.22851449,0.47817615,2016-12-07 18:20:26,43.200916495368354
-0.6308899,6.3383636,6.9529114,-0.029561361,0.037284914,-0.0037718336,62.0,-0.8660941,6.61109,7.1912284,-0.02163261,0.31848952,-3.150703E-4,0.27679333,0.23540072,0.500998,2016-12-07 18:20:27,31.40378395270475
-0.85317993,6.364517,6.965988,0.002072349,0.006753258,-0.005170393,60.0,-0.90181696,6.552215,7.2405524,-0.043735124,0.19151285,0.3077954,0.27656534,0.2332333,0.49755394,2016-12-07 18:20:28,51.40182769976866
-1.0231628,6.2991333,7.0052185,-0.0051454953,0.010634455,-6.811032E-4,62.0,-1.0810918,6.466619,7.2927694,-0.045945395,0.17401856,0.11484603,0.2651562,0.24044228,0.5040631,2016-12-07 18:20:29,44.23590543731841
-1.4284973,6.639099,6.5737305,0.020909175,0.02769316,-0.018899914,53.0,-1.3912971,6.638061,7.0831375,0.025219027,0.0049513425,0.55899125,0.26315796,0.26489675,0.5084005,2016-12-07 18:20:30,24.45947818908713
-0.18632507,7.5543823,5.5276794,0.023920955,-0.03402655,0.029757073,29.0,-1.209229,6.944685,6.817588,-0.9095813,-0.5056446,0.6884311,0.29001996,0.26473808,0.5042344,2016-12-07 18:20:31,32.575180842050166
-0.44784546,7.698227,5.056961,0.032701854,-0.015455402,-0.008879659,23.0,-0.3465971,7.8762527,5.83223,0.048392985,0.1807564,0.6564976,0.36915734,0.25906947,0.48010528,2016-12-07 18:20:32,51.70788863837332
-0.5916748,6.49527,7.1752014,-0.08855404,0.018702941,0.026460778,57.0,-0.29969978,7.007504,6.8538656,0.31321585,0.5378391,-0.296817,0.3200644,0.21623443,0.4833012,2016-12-07 18:20:33,48.60592505927996
-0.77471924,6.7306366,6.704483,0.009459747,0.017272728,-0.006535644,50.0,-0.84429264,6.8035717,7.0120606,0.0025423325,0.12220446,0.29268283,0.29132456,0.24047962,0.49639082,2016-12-07 18:20:34,43.59907266169928
-1.3631287,6.7306366,6.5345,0.002768201,0.033661116,-0.025340501,49.0,-1.0962555,6.9886737,6.79169,0.34750122,0.2602223,0.17220089,0.29369017,0.26003826,0.493039,2016-12-07 18:20:35,63.299359172654334
-1.1931458,6.8352356,6.49527,0.006759041,-0.015922636,-0.006755812,48.0,-1.3276482,6.991712,6.747125,-0.12249064,0.17718257,0.29420125,0.28943318,0.2688918,0.48916453,2016-12-07 18:20:36,62.86905616554947
-0.95777893,7.4367065,5.710739,0.051927768,-0.023857366,0.0032234758,44.0,-1.0671357,7.62751,6.070643,-0.018368952,0.20442078,-0.33092067,0.33136147,0.28576124,0.48828486,2016-12-07 18:20:37,60.103235827762205
-1.4154205,7.0052185,6.3514404,-0.05113592,0.007983362,0.007024135,48.0,-1.0444362,7.6550517,6.039846,0.45380202,0.64057285,-0.04844933,0.3348046,0.280483,0.47894713,2016-12-07 18:20:38,49.88026993904028
-1.0493164,6.9529114,6.4429626,-0.0056483787,-0.021049742,-0.0073565384,51.0,-1.3672677,7.1132407,6.610808,-0.31850094,0.16686338,0.18200381,0.28860065,0.28206864,0.5052827,2016-12-07 18:20:39,62.01291035278062
-0.892395,7.4497833,5.9591675,0.04817289,-0.0054321596,0.012846422,36.0,-0.9365822,7.381484,6.388029,-0.06433731,-0.09453023,0.4791558,0.31761798,0.273117,0.5014896,2016-12-07 18:20:40,29.72994041025594
-0.6047363,6.7698517,6.8352356,-0.049808793,-0.03534501,0.0015112382,55.0,-0.80196375,7.388075,6.3987184,-0.1754277,0.6187623,-0.41145563,0.32776156,0.255192,0.4793495,2016-12-07 18:20:41,54.71859807215664
-0.59165955,6.9529114,6.573715,0.01707324,-0.045969035,-0.038467254,51.0,-0.5723016,7.238768,6.5911384,-0.027487703,0.29239106,0.094232626,0.3215526,0.24657468,0.49759442,2016-12-07 18:20:42,61.68505808771225
-0.6308899,6.7698517,6.704483,-0.013039608,0.01775288,0.015289994,53.0,-0.5894226,7.0483785,6.7928886,0.009872705,0.29268616,0.1325386,0.3108408,0.23834938,0.4969719,2016-12-07 18:20:43,56.81040075126984
-1.219284,6.4429626,5.9199524,-0.035807956,0.01356736,0.0109595,62.0,-0.60181457,6.875063,6.9671893,0.68865293,0.40149722,1.0998731,0.30139127,0.22739495,0.4897859,2016-12-07 18:20:44,42.51071666496922
-0.67012024,6.8352356,6.9921417,0.022748927,-0.015937624,0.01256439,52.0,-1.1643696,6.812051,6.957772,-0.48335224,-0.011743226,-0.015845792,0.27438855,0.26670647,0.52896583,2016-12-07 18:20:45,43.33001457262572
-0.3432312,6.71756,6.822159,-0.01544628,-0.026151275,-0.02958089,57.0,-0.92021906,6.8794475,6.9279723,-0.55572075,0.16743326,0.15711658,0.27816236,0.2617095,0.54076654,2016-12-07 18:20:46,42.74547355662065
-3.0760193,6.2337646,7.0182953,-0.03427573,0.0116243735,0.012486296,64.0,-0.36810848,6.8640795,6.9942336,2.233378,0.77578413,0.020615906,0.307598,0.218822,0.495373,2016-12-07 18:20:47,52.64023693700639
-1.2977448,4.0893707,8.548126,-0.0070657413,0.0016199962,-0.17561722,77.0,-3.6309524,5.078618,7.562685,-2.5277042,1.0061342,-1.0862352,0.16522074,0.29378855,0.39342198,2016-12-07 18:20:48,45.64525591055968
-1.5461731,4.965439,8.495834,0.043676417,-0.07183657,0.034396414,75.0,-1.3055136,5.0866914,8.282004,0.056521036,0.10164425,-0.026407713,0.2063314,0.19016077,0.4746059,2016-12-07 18:20:49,63.693994831596754
-0.85317993,5.331543,7.8420563,0.07263522,0.046005573,-0.03710426,66.0,-1.4696927,5.6601553,7.8722954,-0.67971253,0.33459923,-0.013885539,0.21544473,0.23107038,0.50635034,2016-12-07 18:20:50,59.15516651575941
-0.82702637,5.501526,7.855133,1.8986284E-4,-0.04246364,-0.034181315,73.0,-1.1752889,5.8116183,7.8111577,-0.41639355,0.35510376,0.1363473,0.23455968,0.2156015,0.4917046,2016-12-07 18:20:51,49.23118173333238
-0.3170929,4.8216095,7.9335785,-0.047167964,-0.05594574,0.014816178,92.0,-0.5429713,5.5259705,8.083268,-0.12074051,0.5545437,-0.26600495,0.23636025,0.17662938,0.4991687,2016-12-07 18:20:52,44.37466520878377
-0.55244446,5.2400208,7.7113037,0.023341775,0.0035740498,-0.038609885,90.0,-0.24551602,5.2114406,8.303674,0.25843686,-0.032393217,0.47197363,0.22741832,0.15877956,0.50988764,2016-12-07 18:20:53,32.935462345849906
0.25823975,5.3707733,7.8681946,0.007975981,-0.061083365,-0.0143510895,87.0,-0.49368787,5.393587,8.175322,-0.57540995,-7.06622E-5,0.08483537,0.23318893,0.16986594,0.49480647,2016-12-07 18:20:54,42.07902353161185
-1.0493011,5.5930634,8.129715,-0.011333328,0.0792521,0.058235686,82.0,0.018395951,5.3674483,8.207347,0.999061,-0.14879258,-0.08744406,0.24244064,0.15048896,0.5040171,2016-12-07 18:20:55,54.210019990487126
-0.5132141,6.364517,7.1621246,0.09007526,-0.024179371,-0.043251757,64.0,-0.77011997,6.0696464,7.6639857,-0.2661671,-0.386398,0.67674774,0.25653923,0.21208863,0.50482285,2016-12-07 18:20:56,45.74725390882599
-0.43476868,6.31221,7.2667236,-0.018013021,0.011392484,0.02568572,62.0,-0.42085648,6.5556116,7.2812934,-0.12120885,0.017845115,0.86610997,0.29309377,0.20647429,0.48816785,2016-12-07 18:20:57,59.94605598314845
-0.5132141,5.553833,8.182022,-0.08226443,0.059762225,0.025253797,85.0,-0.54925275,6.228521,7.5547485,-0.29046613,0.71228045,-0.42677477,0.2710502,0.19974723,0.48743346,2016-12-07 18:20:58,61.08417377834332
-0.7616577,5.985321,7.46286,0.024411103,0.021844752,-0.026312742,75.0,-0.5786438,6.0865507,7.6674275,0.075132884,-0.1651891,1.0479388,0.26035097,0.20671147,0.50689703,2016-12-07 18:20:59,54.27864481119387
-1.2977448,6.220688,7.541321,0.0018345813,0.01669131,0.023538494,77.0,-0.78550696,6.1609416,7.5892143,-0.22707273,0.167989,0.5474949,0.25983405,0.21392202,0.5025817,2016-12-07 18:21:00,58.07071699857055
-0.7093506,6.5083466,6.612961,0.087647356,-0.07160535,-0.03024649,62.0,-0.6217886,6.889979,6.9506807,0.2771543,0.066184714,0.6717008,0.31082493,0.23240384,0.48986223,2016-12-07 18:21:01,49.62604583855571
0.49360657,6.0899353,7.305954,-0.030554408,-0.023758218,0.03808594,74.0,0.18465956,6.412911,7.4169297,-0.3192933,0.33823627,0.17090526,0.30442935,0.16929181,0.48176157,2016-12-07 18:21:02,31.383408617620727
0.4805298,4.795456,7.1228943,0.04299733,0.06241475,-0.25346452,102.0,-1.3998709,6.5765295,7.1386285,-1.3998709,1.6595837,0.15139003,0.27552554,0.24725677,0.44997305,2016-12-07 18:21:03,52.59770494080868
0.7551117,5.2530975,7.528244,-0.010832464,-0.04005351,0.050855026,92.0,0.44086644,5.967958,7.769138,-0.4308358,0.519819,0.4277707,0.29287043,0.13311484,0.46591935,2016-12-07 18:21:04,69.5475488005319
-2.0953522,6.0114746,6.325287,0.044101782,0.006351436,-0.12629957,65.0,-2.0916562,6.2886477,7.228297,-0.26919222,0.4363703,-0.10247848,0.23232937,0.27946165,0.48770985,2016-12-07 18:21:05,52.65773757144417
-0.787796,5.6322937,7.64592,-2.6486418E-4,-0.06642546,-0.052964162,89.0,-2.1504564,6.187774,7.297766,-1.3196151,0.54895014,-0.30238768,0.23745605,0.266278,0.45682988,2016-12-07 18:21:06,57.94877473546181
0.37591553,5.279251,8.012024,-0.038626857,-0.009492435,0.09421959,74.0,0.5581459,5.5245953,8.083174,0.16315581,0.26714137,0.11527084,0.2733288,0.11220877,0.45416403,2016-12-07 18:21:07,69.89468209066403
0.24516296,5.122345,8.025116,-0.0068544243,0.0044872845,-0.026311027,72.0,0.40102273,5.306417,8.237203,0.12861578,0.21240726,0.1875774,0.2582425,0.11393263,0.44830438,2016-12-07 18:21:08,50.10591482498535
0.33670044,4.9785156,8.168945,-0.008725486,-0.012293948,-0.0041543124,84.0,0.3108127,5.208275,8.3034725,-0.029695971,0.25046843,0.1721248,0.2522594,0.113495015,0.4466571,2016-12-07 18:21:09,25.730384948131416
0.12748718,4.886978,8.116638,-0.0017970523,0.01767689,0.0021840653,87.0,0.32490203,5.109684,8.363968,0.2568003,0.24722004,0.23261997,0.24647275,0.11300922,0.45442504,2016-12-07 18:21:10,53.52770540616713
-0.12094116,5.004669,8.155869,0.0070785005,-0.010431967,-0.021179646,73.0,-0.10590435,5.1165895,8.365386,-0.051422957,0.11792233,0.24765857,0.23799959,0.13014373,0.4445777,2016-12-07 18:21:11,45.56734519412389
0.14056396,5.004669,8.051254,5.2460487E-4,-0.0040634107,0.0046400954,80.0,-0.10920256,5.1553497,8.341514,-0.24540605,0.15668222,0.29188812,0.23922941,0.13219908,0.4484464,2016-12-07 18:21:12,50.15118917557143
