ACC_X,ACC_Y,ACC_Z,GYRO_X,GYRO_Y,GYRO_Z,LIGH_1,GRAV_X,GRAV_Y,GRAV_Z,LINACC_X,LINACC_Y,LINACC_Z,ROTVEC_X,ROTVEC_Y,ROTVEC_Z,TIME,VOICE
-0.294216,-0.503516,9.864608,-0.0068008676,-0.0013249591,-7.3289126E-4,2.277778,0.0,0.0,0.0,0.0,0.0,0.0,0.0,0.0,0.0,2017-07-05 17:16:17,66.08575434397184
-0.28704,-0.52026004,9.863412,-6.4101815E-4,-9.827316E-5,5.0451607E-4,3.4166667,-0.2257858,-0.67217535,9.780981,0.06125419,-0.15191531,-0.082430445,-0.03614937,-0.0014099792,0.35489097,2017-07-05 17:16:17,67.14632406316633
-0.28704,-0.523848,9.834708,-0.0029522553,-0.0024530888,5.023442E-4,2.277778,-0.274069,-0.5175443,9.789147,0.012970979,0.0063036666,-0.04556056,-0.029648688,0.0036482636,0.356396,2017-07-05 17:16:18,74.97732626615796
-0.27866802,-0.534612,9.816769,-0.001529485,8.779764E-5,5.2205846E-4,3.4166667,-0.2810971,-0.5171645,9.788969,-0.0024290904,0.017447468,-0.027799277,-0.029766707,0.003928769,0.35831863,2017-07-05 17:16:19,71.69706503411061
-0.29062802,-0.527436,9.907664,-0.0014041737,-0.003534481,5.5452064E-4,4.555556,-0.2797427,-0.52197844,9.788753,0.010885332,0.005457608,-0.11891163,-0.029978575,0.0037183722,0.36011827,2017-07-05 17:16:20,74.28987849185788
-0.291824,-0.53102404,9.892117,0.0035312846,-0.0010266006,-6.4975023E-4,2.277778,-0.2811394,-0.5233792,9.788638,0.0106846215,0.007644852,-0.1034785,-0.030071598,0.0037541871,0.36026958,2017-07-05 17:16:21,71.7694008181411
-0.28106,-0.528632,9.8371,-0.002432339,-0.0032909214,5.777143E-4,2.277778,-0.2728912,-0.53024334,9.788502,0.008168821,-0.0016113442,-0.04859832,-0.030246995,0.0032323664,0.36036623,2017-07-05 17:16:22,76.23864690372247
-0.28704,-0.534612,9.835904,-0.0036214292,-0.0032859743,5.9744716E-4,3.4166667,-0.27523935,-0.52592784,9.788669,0.011800657,0.008684169,-0.047235213,-0.030084776,0.0034229774,0.36038208,2017-07-05 17:16:23,75.76972889399198
-0.282256,-0.525044,9.863412,7.184595E-5,-8.816421E-4,-0.0018031001,2.277778,-0.28146523,-0.52262646,9.788669,-0.0016012246,-0.0011704321,-0.050823595,-0.030043172,0.0037722054,0.3606212,2017-07-05 17:16:24,76.72026679360725
-0.29062802,-0.53102404,9.844276,-0.0023265071,-9.161979E-4,6.66555E-4,3.4166667,-0.28538096,-0.5268272,9.788329,0.0052470523,0.0041968306,-0.055947512,-0.030315615,0.0038790877,0.3606835,2017-07-05 17:16:25,76.46477669661266
-0.29302,-0.528632,9.865805,1.5390292E-4,3.4276396E-4,-5.529709E-4,2.277778,-0.28492385,-0.5255202,9.788415,0.00809614,0.0031118118,-0.07739011,-0.030244514,0.0038848436,0.3605779,2017-07-05 17:16:26,70.59259810906967
-0.30139202,-0.52624,9.948328,-0.0021983571,-0.0032965764,6.805584E-4,4.555556,-0.28962967,-0.52504456,9.7883,0.011762353,0.0011954204,-0.16002807,-0.030309215,0.004112739,0.36072284,2017-07-05 17:16:27,73.67973295262729
-0.295412,-0.53102404,9.858628,-8.9244917E-4,-7.655546E-4,-5.0613284E-4,4.555556,-0.28893846,-0.5274181,9.788195,0.0064735254,0.003605952,-0.07043372,-0.03040619,0.004060919,0.35996318,2017-07-05 17:16:29,71.81043500869164
-0.297804,-0.527436,9.856236,3.6549196E-4,4.983023E-4,7.4087083E-4,3.4166667,-0.28887126,-0.52382743,9.788388,0.0053447587,0.003608619,-0.0630629,-0.03023309,0.0041298443,0.3597743,2017-07-05 17:16:30,72.60392840322824
-0.29302,-0.528632,9.8371,4.038848E-4,5.5886805E-4,-4.4437498E-4,3.4166667,-0.2906515,-0.5273642,9.788147,0.002368501,0.0012677915,-0.04895371,-0.030430762,0.004175399,0.35898307,2017-07-05 17:16:31,74.94828468772693
-0.291824,-0.521456,9.845472,4.4174492E-4,-6.1142445E-4,7.967502E-4,4.555556,-0.28998482,-0.52680016,9.7881975,0.0018391982,-0.0053441743,-0.05727438,-0.030390833,0.004160017,0.3587985,2017-07-05 17:16:32,75.63143552038377
-0.294216,-0.540592,9.8430805,-7.435642E-4,-0.001780957,8.366257E-4,3.4166667,-0.2907209,-0.52843326,9.788087,0.003495094,0.01215875,-0.05499416,-0.030482352,0.0041636853,0.35884297,2017-07-05 17:16:33,72.9848499336197
-0.295412,-0.53222,9.847864,-6.87927E-4,7.0773065E-4,-3.6050007E-4,4.555556,-0.28885934,-0.525747,9.788287,0.006552673,0.0064729955,-0.05957681,-0.03032034,0.0041233054,0.35887322,2017-07-05 17:16:34,70.77124304256408
-0.29062802,-0.52624,9.845472,5.689487E-4,7.308796E-4,-0.001568418,3.4166667,-0.2915313,-0.52504605,9.788245,-9.03269E-4,0.001193959,-0.05722703,-0.030336965,0.0042560366,0.35909793,2017-07-05 17:16:35,75.69507877092848
-0.29062802,-0.540592,9.850256,5.872771E-4,7.7201426E-4,-3.3866987E-4,4.555556,-0.28942737,-0.5223744,9.78845,0.0012006445,0.018217647,-0.06180559,-0.030169144,0.0042186,0.35867372,2017-07-05 17:16:36,72.43016417010631
-0.283452,-0.5382,9.840688,6.263405E-4,7.992536E-4,-0.0015447065,4.555556,-0.29180068,-0.5228658,9.788354,-0.008348672,0.015334238,-0.052334584,-0.03023598,0.004323156,0.35865608,2017-07-05 17:16:37,67.42508536132911
-0.29302,-0.528632,9.838296,6.5556914E-4,-4.132986E-4,8.757524E-4,3.4166667,-0.2927326,-0.52272123,9.788334,2.8742038E-4,0.005910795,-0.049962595,-0.030244932,0.0043787393,0.35839173,2017-07-05 17:16:38,73.2046741315905
-0.296608,-0.528632,9.8311205,0.0030874796,0.0019891933,-4.0490553E-4,4.555556,-0.29186237,-0.5212728,9.788437,0.004745642,0.00735924,-0.04268354,-0.030160533,0.004359833,0.35851485,2017-07-05 17:16:39,75.01192469413903
-0.283452,-0.52265203,9.815572,-5.744323E-4,0.0019617677,7.5566024E-4,3.4166667,-0.29041162,-0.520896,9.788499,-0.00695961,0.0017560499,-0.027073301,-0.030117357,0.00428815,0.35880944,2017-07-05 17:16:40,73.87009716007125
-0.30498,-0.52026004,9.823944,-5.662404E-4,6.892532E-4,6.899722E-4,3.4166667,-0.29176837,-0.52180666,9.788412,0.013211656,-0.0015466084,-0.035531916,-0.030186834,0.0043276395,0.35906944,2017-07-05 17:16:41,76.76064021999636
-0.296608,-0.525044,9.829925,6.3443556E-4,0.001855202,6.3260645E-4,4.555556,-0.28887525,-0.5190373,9.788644,-0.0042272443,2.6705344E-5,-0.03769231,-0.03000329,0.004230137,0.35939798,2017-07-05 17:16:42,74.10538142759182
-0.285844,-0.528632,9.823944,0.0018437468,0.0030373558,5.535446E-4,3.4166667,-0.29150227,-0.5200046,9.788515,-0.0056582815,0.008627433,-0.03542904,-0.030095136,0.004354593,0.35886556,2017-07-05 17:16:43,75.91456113469053
-0.29062802,-0.515476,9.817965,-6.130561E-4,-6.4789504E-4,4.532747E-4,4.555556,-0.29026002,-0.5190429,9.788604,3.6799308E-4,-0.0035669352,-0.029360535,-0.030026417,0.0043138657,0.35884112,2017-07-05 17:16:44,76.29112216143956
-0.28106,-0.52624,9.811984,-6.427616E-4,-0.0019218549,0.0027761683,4.555556,-0.28808922,-0.5179175,9.788727,-0.0070292046,0.00832246,-0.023257542,-0.029933609,0.0042267414,0.35897845,2017-07-05 17:16:45,77.92974644789146
-0.299,-0.517868,9.798828,-6.20801E-4,5.1978976E-4,0.0026606321,3.4166667,-0.28485703,-0.52100915,9.788657,0.014142945,-0.003141184,-0.010170681,-0.030023642,0.0040011792,0.35944572,2017-07-05 17:16:46,74.53878655839199
-0.283452,-0.528632,9.7940445,-6.0014054E-4,-7.1947277E-4,0.0013032481,3.4166667,-0.2882471,-0.5250466,9.7883415,-0.008383104,0.004781389,-0.016466567,-0.030279106,0.0040820995,0.3596402,2017-07-05 17:16:48,76.78522145780295
-0.300196,-0.525044,9.835904,-6.0292706E-4,4.7428906E-4,-1.385808E-5,4.555556,-0.28649738,-0.5171106,9.788816,0.013698618,0.007933424,-0.047087915,-0.029869528,0.0041401195,0.35977912,2017-07-05 17:16:49,75.33895909255266
-0.283452,-0.527436,9.804809,-5.45837E-4,-7.2459877E-4,0.0011066496,3.4166667,-0.2864444,-0.5166235,9.788843,-0.002992405,0.010812559,-0.015965631,-0.029845288,0.0041469876,0.35976535,2017-07-05 17:16:50,76.95184825431996
-0.285844,-0.50710404,9.815572,6.8949535E-4,4.797578E-4,0.0010089763,4.555556,-0.283035,-0.5167712,9.788936,0.0075930124,0.0010967823,-0.014676176,-0.029788783,0.00398852,0.35956246,2017-07-05 17:16:51,74.7152109673665
-0.288236,-0.513084,9.814376,6.8919733E-4,4.4083595E-4,9.1286376E-4,4.555556,-0.2872615,-0.5175571,9.78877,9.745076E-4,-0.00447309,-0.025606735,-0.029902883,0.0041823075,0.35934153,2017-07-05 17:16:52,74.52705271898208
-0.291824,-0.517868,9.816769,0.0019191988,4.3528527E-4,-3.9343908E-4,3.4166667,-0.28441393,-0.5207105,9.788686,0.0074100937,-0.00284253,-0.02808277,-0.029997544,0.0040135677,0.35857517,2017-07-05 17:16:53,75.31961578174659
-0.27866802,-0.540592,9.8311205,-0.0017267913,-8.1819296E-4,0.0019476712,4.555556,-0.28739026,-0.51666725,9.788814,-0.008722254,0.023924736,-0.042307112,-0.029856715,0.004248133,0.35798645,2017-07-05 17:16:54,75.60939179486161
-0.28943202,-0.519064,9.827532,-4.8577413E-4,-8.057356E-4,0.0018513314,4.555556,-0.29091316,-0.52152675,9.788452,-0.0014811237,-0.0024627734,-0.03907938,-0.030153764,0.004320364,0.3581939,2017-07-05 17:16:55,73.97545333596378
-0.30139202,-0.519064,9.8311205,7.510595E-4,3.906712E-4,5.5295974E-4,3.4166667,-0.2880314,-0.5217637,9.788523,0.0025966289,0.005672347,-0.040205754,-0.030112736,0.004175762,0.35828838,2017-07-05 17:16:56,76.2351012196902
-0.295412,-0.527436,9.8311205,-4.2364746E-4,-0.002045162,0.0016313381,3.4166667,-0.29114956,-0.52295667,9.788368,0.004262443,0.0044793375,-0.04275193,-0.030228525,0.004289449,0.35868835,2017-07-05 17:16:57,75.70490360443334
-0.294216,-0.527436,9.8371,-4.3656677E-4,-0.0020663887,0.0015310422,4.555556,-0.28908598,-0.5200136,9.788586,0.005130038,0.0074224784,-0.04851415,-0.030052101,0.004233397,0.35905203,2017-07-05 17:16:58,76.05869163609506
-0.294216,-0.523848,9.8311205,0.0019622631,0.0015305281,2.6526302E-4,3.4166667,-0.2870366,-0.5199783,9.788649,0.0071794083,0.0038697543,-0.042471945,-0.03001135,0.0041471343,0.35872138,2017-07-05 17:16:59,74.21671396975377
-0.28943202,-0.52026004,9.829925,-0.0017220713,-0.0021967515,0.0026085712,3.4166667,-0.2906832,-0.5221987,9.788423,-0.0012511874,-0.0019386399,-0.041501638,-0.030184014,0.004280013,0.3587229,2017-07-05 17:17:00,77.03850247777962
-0.238004,-0.540592,9.4113245,0.007989194,-0.0070078373,0.0013221912,4.555556,-0.29136297,-0.508393,9.789129,-0.027046978,-0.006072963,0.056080785,-0.029535227,0.0045869355,0.35803744,2017-07-05 17:17:01,76.94727136451719
-0.26312,-0.521456,9.88494,-0.0017315783,-0.013087124,0.0012718551,2.277778,-0.27736905,-0.52710754,9.788546,-0.014249055,-0.005651523,-0.09639467,-0.030170718,0.003583103,0.35789305,2017-07-05 17:17:02,76.022439258551
-0.39587602,-0.547768,9.34076,-0.003022194,-0.0046041384,1.2557954E-5,2.277778,-0.28725225,-0.52586174,9.788328,0.10862375,0.021906236,0.44756725,-0.030291721,0.0040791323,0.3578127,2017-07-05 17:17:04,73.19825882892773
-0.229632,-0.495144,9.779693,0.001793839,0.001891464,0.0011574998,2.277778,-0.21455486,-0.4983451,9.791629,0.015077139,-0.0032010977,0.011936522,-0.027652418,0.001091281,0.35877785,2017-07-05 17:17:05,70.18773155328562
-0.19734001,-0.50710404,9.785672,-5.6160986E-4,6.7539513E-4,-1.2395158E-4,0.0,-0.20241296,-0.50334084,9.791633,-0.025404947,0.0025671837,-0.016764088,-0.027668497,3.8576592E-4,0.35999227,2017-07-05 17:17:06,74.2743895080452
-0.21049601,-0.50710404,9.791653,0.0029222742,0.0065659583,-0.0014053583,0.0,-0.20737675,-0.49270564,9.792071,0.0031192645,0.014398418,4.1851768E-4,-0.027254017,7.9347426E-4,0.3608115,2017-07-05 17:17:07,71.99184395254663
-0.241592,-0.48079202,9.886136,-6.740466E-4,0.0025458932,9.932518E-4,2.277778,-0.23553823,-0.49763268,9.791183,0.0060537653,-0.016840661,-0.09495208,-0.028008386,0.0020296597,0.3612258,2017-07-05 17:17:08,76.28303343475781
-0.283452,-0.504712,9.8801565,-5.453229E-4,-0.0015869439,9.3118846E-4,3.4166667,-0.27621657,-0.5134446,9.789304,0.0072354497,-0.008732648,-0.09085283,-0.029510567,0.0036811924,0.3609502,2017-07-05 17:17:09,74.25335215578761
-0.29062802,-0.515476,9.835904,-5.2414834E-4,-3.9997697E-4,8.840412E-4,4.555556,-0.28135195,-0.51506555,9.789072,0.017648049,-7.855609E-4,-0.016931847,-0.029668786,0.003998262,0.3577223,2017-07-05 17:17:11,73.19563806384208
-0.273884,-0.510692,9.829925,-5.4272637E-4,8.2393736E-4,-3.9149448E-4,3.4166667,-0.2826716,-0.51779,9.788891,-0.008787611,-0.0070979954,-0.04103402,-0.029822456,0.0040138094,0.35764533,2017-07-05 17:17:12,76.17237032221479
-0.27747202,-0.505908,9.822748,0.0019129217,8.383915E-4,-0.0016628206,4.555556,-0.28260764,-0.5146384,9.78906,-0.0051356275,-0.008730419,-0.033688337,-0.029670646,0.0040711737,0.35755536,2017-07-05 17:17:13,71.9419917757913
-0.28704,-0.52265203,9.841885,-5.507916E-4,-0.0028216392,7.4620545E-4,3.4166667,-0.28366837,-0.5167752,9.788916,0.003371632,0.0058768564,-0.05296996,-0.029790284,0.004094448,0.35718676,2017-07-05 17:17:14,74.86233854016186
-0.285844,-0.511888,9.841885,-5.847551E-4,-3.870502E-4,6.9470704E-4,4.555556,-0.2843296,-0.51598316,9.788938,3.1841832E-4,6.888591E-4,-0.038593642,-0.0297644,0.0041417275,0.3571448,2017-07-05 17:17:15,71.56420790042344
-0.284648,-0.52026004,9.8311205,-5.8380887E-4,-3.908053E-4,6.343052E-4,3.4166667,-0.2820446,-0.5174516,9.788928,0.0026034059,0.0028084817,-0.042192545,-0.02979532,0.0039866883,0.35775304,2017-07-05 17:17:16,75.76757271479102
-0.28943202,-0.50710404,9.822748,6.0290843E-4,-4.259944E-4,5.6490675E-4,3.4166667,-0.2816988,-0.52053905,9.788774,0.007733225,-0.013435016,-0.03397475,-0.029935649,0.003917959,0.357624,2017-07-05 17:17:17,76.50062448611158
-0.284648,-0.523848,9.81916,-6.437078E-4,-0.002883479,0.0017372556,3.4166667,-0.28118753,-0.51612103,9.789022,0.003460461,0.0077269776,-0.030137364,-0.02971326,0.0039923135,0.35705763,2017-07-05 17:17:18,74.03479300265258
-0.291824,-0.517868,9.81318,-6.588474E-4,-4.4407696E-4,4.837066E-4,4.555556,-0.27723914,-0.517363,9.789069,0.012192889,0.010073029,-0.04803075,-0.029700793,0.0037788854,0.3571422,2017-07-05 17:17:19,76.8607943924792
-0.279864,-0.52026004,9.829925,5.687848E-4,-4.3932348E-4,4.2631105E-4,4.555556,-0.28189212,-0.51493984,9.789064,-0.0020281083,0.0053202086,-0.040859833,-0.029669914,0.004046482,0.35708693,2017-07-05 17:17:20,73.13486575732786
-0.276276,-0.517868,9.82514,-0.0018803515,-0.0016487613,3.8303062E-4,4.555556,-0.27648216,-0.5166253,9.789129,0.02251783,0.0048307446,-0.040794954,-0.029651275,0.0037604305,0.35701153,2017-07-05 17:17:22,75.07306695794321
-0.288236,-0.52265203,9.822748,5.533695E-4,0.0019803792,-8.5859746E-4,4.555556,-0.28337538,-0.5122424,9.789164,0.0048606102,0.010409641,-0.03358429,-0.029566497,0.0041794744,0.35667157,2017-07-05 17:17:23,76.4557865409235
-0.28704,-0.52265203,9.832316,5.56089E-4,7.648021E-4,-8.877702E-4,3.4166667,-0.28219336,-0.5141255,9.789099,-0.0011333515,-0.001041545,-0.037236966,-0.029635599,0.0040828264,0.35686174,2017-07-05 17:17:24,76.5143777268246
-0.284648,-0.517868,9.834708,5.1413476E-4,7.218048E-4,3.102906E-4,3.4166667,-0.2816128,-0.51485944,9.789076,0.0030351847,0.0030085342,-0.045632455,-0.029659877,0.0040428084,0.35682985,2017-07-05 17:17:25,76.33471066428018
-0.276276,-0.51428,9.8371,5.347356E-4,7.598996E-4,2.9616803E-4,4.555556,-0.2826102,-0.5161164,9.788981,-0.006334208,-0.0018363486,-0.048119012,-0.029738247,0.004065636,0.35688603,2017-07-05 17:17:26,73.68973687604085
-0.283452,-0.511888,9.811984,-6.765947E-4,-0.0016678125,2.7695298E-4,3.4166667,-0.28093886,-0.5179377,9.788934,0.0025131337,-0.0060496554,-0.023051206,-0.02979515,0.0039488818,0.35700953,2017-07-05 17:17:27,76.13500497672794
-0.279864,-0.517868,9.821552,-6.6753477E-4,-4.31709E-4,2.5046617E-4,3.4166667,-0.2803322,-0.51586074,9.789061,-4.6820205E-4,0.002007248,-0.032491233,-0.029687487,0.003939445,0.35758802,2017-07-05 17:17:28,74.71259341105608
-0.29062802,-0.517868,9.8371,-6.939173E-4,-4.6683848E-4,0.0014808849,4.555556,-0.28384504,-0.5170831,9.788894,0.0067829746,0.0151369255,-0.0517939,-0.02980999,0.004084125,0.35759768,2017-07-05 17:17:29,72.71098668808142
-0.276276,-0.519064,9.839492,5.26648E-4,0.0019550994,-9.7373873E-4,4.555556,-0.2814703,-0.5150814,9.789069,-0.0051943175,0.0039826035,-0.050423197,-0.029671518,0.0040049693,0.3576796,2017-07-05 17:17:30,73.30535056169863
-0.28106,-0.51428,9.832316,5.264394E-4,-4.7372282E-4,0.001440689,4.555556,-0.2788521,-0.51445097,9.789176,0.0022079218,-1.7097265E-4,-0.04314064,-0.029595433,0.0038779657,0.35811546,2017-07-05 17:17:32,74.45510310651862
-0.284648,-0.516672,9.8311205,5.16586E-4,-5.020872E-4,1.9530207E-4,4.555556,-0.278981,-0.5153271,9.789126,0.0056670127,0.0013449483,-0.041994393,-0.029638115,0.0038790493,0.3577702,2017-07-05 17:17:33,74.4680641356355
-0.283452,-0.517868,9.8311205,-0.0019131564,-0.0017212704,0.001388453,3.4166667,-0.27969193,-0.5142763,9.789163,0.013328086,0.0035916679,-0.038369186,-0.02960105,0.003931864,0.35777768,2017-07-05 17:17:34,72.85196845455397
-0.27747202,-0.517868,9.832316,-6.8229437E-4,-4.7605485E-4,1.4694035E-4,3.4166667,-0.27755445,-0.5148541,9.789191,-8.243586E-5,0.003013941,-0.04312544,-0.0295888,0.0038250887,0.35760188,2017-07-05 17:17:35,73.96874835819746
-0.279864,-0.513084,9.82514,5.293973E-4,7.627234E-4,1.0655075E-4,3.4166667,-0.2805117,-0.5150816,9.789097,-6.476868E-4,-0.0019976036,-0.03604279,-0.029654277,0.003957301,0.35774282,2017-07-05 17:17:36,71.1273673389921
-0.271492,-0.513084,9.821552,5.0228834E-4,-4.9065053E-4,-0.0011094622,3.4166667,-0.28195685,-0.5133285,9.789146,-0.0104648415,-2.445128E-4,-0.03240531,-0.029595379,0.004070843,0.3573424,2017-07-05 17:17:37,75.39652917819298
-0.28106,-0.51428,9.826336,4.9071014E-4,-5.027577E-4,-0.0011324212,4.555556,-0.28249437,-0.5150229,9.789042,-0.003826335,0.0028451239,-0.038489014,-0.029686363,0.0040627224,0.35743076,2017-07-05 17:17:38,73.03050358090151
-0.272688,-0.51428,9.832316,5.0015E-4,-5.018711E-4,7.9996884E-5,4.555556,-0.27941963,-0.5169036,9.789032,-0.0067316466,-0.0026235534,-0.04328443,-0.02972085,0.0038744742,0.3576655,2017-07-05 17:17:40,71.00592627711093
-0.28106,-0.510692,9.828729,-7.223785E-4,7.234812E-4,6.367639E-5,3.4166667,-0.27958608,-0.51555824,9.789099,0.001473945,-0.0048662545,-0.03963,-0.029660795,0.0038990765,0.35791388,2017-07-05 17:17:41,73.54113788855531
-0.283452,-0.52265203,9.829925,5.43952E-4,0.001978062,3.520772E-5,4.555556,-0.2811202,-0.51986176,9.788826,0.0023317856,0.0027902883,-0.041098904,-0.029894851,0.0038869248,0.35811868,2017-07-05 17:17:42,76.41614434128809
-0.276276,-0.511888,9.8371,5.5416673E-4,-4.3598562E-4,1.4293939E-5,3.4166667,-0.27781332,-0.51596665,9.789126,0.011618706,0.0030973451,-0.033621114,-0.029650107,0.0037895269,0.3584699,2017-07-05 17:17:43,76.11954129289845
-0.271492,-0.521456,9.828729,-6.748624E-4,-4.2996556E-4,-1.2461096E-5,3.4166667,-0.28202167,-0.5141742,9.789101,-0.010529669,0.007281791,-0.039627664,-0.029642696,0.004015839,0.35868564,2017-07-05 17:17:44,74.50767381541331
-0.276276,-0.510692,9.829925,5.354807E-4,0.0020230561,-1.3399869E-5,4.555556,-0.27955425,-0.51462424,9.789146,-0.0032782545,-0.0039322614,-0.040778,-0.029619357,0.0038868291,0.3587897,2017-07-05 17:17:45,74.51596827540462
-0.288236,-0.50710404,9.815572,0.0017649829,0.0020151958,-3.2119453E-5,3.4166667,-0.28063178,-0.51761985,9.788959,0.0076042097,-0.010515768,-0.026613867,-0.029782524,0.0038780717,0.3589518,2017-07-05 17:17:46,75.77525054480628
-0.285844,-0.519064,9.823944,-6.799884E-4,7.755831E-4,-3.30247E-5,3.4166667,-0.28085336,-0.516717,9.7890005,0.00499063,0.0023470016,-0.034943305,-0.029743679,0.0039043345,0.3589779,2017-07-05 17:17:47,76.82790009693582
-0.28106,-0.521456,9.826336,-6.718114E-4,-0.0016588345,-4.401058E-5,4.555556,-0.2808467,-0.5159819,9.78904,0.0061933016,0.005474121,-0.045668695,-0.029706554,0.003932449,0.35850817,2017-07-05 17:17:48,76.71136089951642
-0.271492,-0.52026004,9.827532,5.410798E-4,7.605478E-4,-2.8569251E-5,4.555556,-0.27923062,-0.5140733,9.789186,-0.007738613,0.006186726,-0.03834639,-0.029585795,0.0038919824,0.35845968,2017-07-05 17:17:49,74.88420683767386
-0.28106,-0.511888,9.826336,0.0017660111,0.0031966493,-4.3958426E-5,3.4166667,-0.27803075,-0.5181395,9.789006,0.0030292482,-0.006251425,-0.037329905,-0.02975785,0.003758469,0.3585213,2017-07-05 17:17:50,75.81320187871282
-0.279864,-0.51428,9.817965,5.46176E-4,7.536784E-4,-0.0012866817,4.555556,-0.28015086,-0.51817846,9.788942,-2.8685413E-4,-0.0038984322,-0.029021513,-0.029798727,0.0038572766,0.35856563,2017-07-05 17:17:51,77.23043515573835
-0.279864,-0.50949603,9.827532,-6.651543E-4,0.001972586,-9.104982E-5,4.555556,-0.27900848,-0.5163064,9.789074,8.555209E-4,-0.006810374,-0.038458034,-0.029689495,0.003830129,0.3587867,2017-07-05 17:17:52,76.41877265907215
-0.282256,-0.517868,9.839492,-0.0019082278,-0.0017013028,0.0011257976,3.4166667,-0.27859038,-0.5168415,9.789059,0.0024696232,-0.0025614845,-0.046845924,-0.029706864,0.003804043,0.358673,2017-07-05 17:17:53,72.90941356763805
-0.27747202,-0.516672,9.82514,-6.7602843E-4,-4.7234446E-4,-1.0864809E-4,3.4166667,-0.2775493,-0.51395154,9.78924,-7.7266486E-5,0.0027204745,-0.035899583,-0.029548902,0.003816443,0.35838765,2017-07-05 17:17:55,76.65925947374258
-0.27747202,-0.516672,9.822748,0.0029411726,0.0031381845,-1.1248514E-4,3.4166667,-0.28011364,-0.51246184,9.789246,-0.002641619,0.0042101652,-0.033502456,-0.029525278,0.0039626947,0.35848567,2017-07-05 17:17:56,75.26892020582774
-0.283452,-0.504712,9.826336,0.0017067008,6.789118E-4,-0.0013201572,3.4166667,-0.28019616,-0.51404715,9.789159,0.0032558418,-0.0093351435,-0.03717676,-0.029600896,0.0039484464,0.358144,2017-07-05 17:17:57,72.70409503235095
-0.28704,-0.503516,9.817965,0.001701273,0.0031023547,-0.001329124,4.555556,-0.27929366,-0.5156895,9.7891,-0.0018216443,0.0021784767,-0.043217212,-0.029663244,0.0038709831,0.35828415,2017-07-05 17:17:58,73.25626205264274
-0.288236,-0.515476,9.823944,4.625246E-4,6.34782E-4,-1.173839E-4,4.555556,-0.28054568,-0.51377153,9.789164,0.007690317,0.0017044293,-0.034780223,-0.029594878,0.0039647403,0.35831386,2017-07-05 17:17:59,75.87908511979077
-0.27747202,-0.52624,9.823944,4.5682117E-4,6.09003E-4,-1.2658536E-4,3.4166667,-0.2796386,-0.5153546,9.789107,-0.0021665853,0.010885442,-0.034836337,-0.029653186,0.003896644,0.3581863,2017-07-05 17:18:00,76.05705975483647
-0.27508,-0.515476,9.833512,4.8064068E-4,6.0557574E-4,-1.5476346E-4,4.555556,-0.2772912,-0.51338726,9.789278,-0.0022112099,0.002088716,-0.044234864,-0.02951657,0.0038199956,0.35821334,2017-07-05 17:18:01,72.87318302588078
-0.283452,-0.511888,9.823944,4.751496E-4,0.0030354485,-0.0013737679,3.4166667,-0.27824748,-0.5151769,9.789157,0.005204528,-0.003288849,-0.034787238,-0.029619621,0.0038308522,0.35827458,2017-07-05 17:18:02,74.96256382685843
-0.276276,-0.52026004,9.841885,0.0016913004,5.996227E-4,0.0010481738,3.4166667,-0.2813006,-0.5138951,9.789137,-0.005024623,0.0063649686,-0.052748427,-0.029613433,0.0040069586,0.358045,2017-07-05 17:18:03,75.33769021690763
-0.283452,-0.516672,9.834708,4.7760084E-4,6.3212216E-4,-0.0014046803,4.555556,-0.28144425,-0.51605344,9.789019,0.0020077415,6.186068E-4,-0.04568974,-0.029717417,0.003985709,0.357688,2017-07-05 17:18:04,74.50934783047376
-0.285844,-0.5083,9.833512,4.921295E-4,-5.53295E-4,-2.0160899E-4,3.4166667,-0.27936783,-0.514181,9.789177,0.0064761736,-0.005881021,-0.044335987,-0.029590944,0.0039154734,0.3578627,2017-07-05 17:18:05,76.33764309529086
-0.28106,-0.50710404,9.828729,4.9038976E-4,0.0018880218,-1.851879E-4,3.4166667,-0.27940774,-0.5124653,9.789266,0.0016522608,-0.0053612716,-0.039463412,-0.029508395,0.003959842,0.35751107,2017-07-05 17:18:07,75.44424802758043
-0.27747202,-0.517868,9.829925,5.24994E-4,7.027611E-4,-1.9766763E-4,4.555556,-0.27935922,-0.5143267,9.789169,0.018444771,0.0011492796,-0.032382514,-0.029598473,0.003906764,0.35804048,2017-07-05 17:18:08,65.30279955184538
-0.285844,-0.52026004,9.826336,-0.0018752031,-0.0016898885,9.91255E-4,4.555556,-0.27849492,-0.5146545,9.789176,0.007349066,0.0056055286,-0.03715981,-0.029598534,0.0038577274,0.3581,2017-07-05 17:18:09,70.76567492913097
-0.270296,-0.513084,9.832316,0.0018024407,0.0019749776,-2.3648515E-4,4.555556,-0.28024873,-0.5106495,9.789336,-0.009952728,0.0024344972,-0.042979896,-0.029440196,0.004011012,0.35820952,2017-07-05 17:18:10,72.71857728304047
-0.283452,-0.519064,9.82514,5.638115E-4,7.4059516E-4,9.874254E-4,3.4166667,-0.27958247,-0.51248485,9.789258,0.003869535,0.0029911448,-0.044254154,-0.029515788,0.0039434195,0.35828224,2017-07-05 17:18:11,73.34114423712663
-0.27508,-0.513084,9.827532,-6.5903366E-4,-4.892051E-4,9.803697E-4,3.4166667,-0.28011167,-0.5161341,9.789052,-0.005031674,-0.003050072,-0.03847966,-0.029698052,0.00391211,0.35796016,2017-07-05 17:18:12,75.55856758278578
-0.276276,-0.523848,9.826336,-6.6452846E-4,7.4483454E-4,-2.6313588E-4,4.555556,-0.28305286,-0.5149286,9.789031,-0.006776856,0.008919439,-0.037304774,-0.02969207,0.0040910174,0.35743162,2017-07-05 17:18:13,77.15853778625501
-0.272688,-0.517868,9.828729,5.5459514E-4,7.207319E-4,-0.001485981,3.4166667,-0.281461,-0.5163893,9.7890005,-0.008773016,0.0014786943,-0.0397282,-0.029732862,0.0039868867,0.3574835,2017-07-05 17:18:14,64.62837781157302
-0.27747202,-0.517868,9.833512,5.386062E-4,7.04363E-4,-2.596639E-4,3.4166667,-0.280464,-0.5149171,9.789106,-0.0029919667,0.0029509224,-0.044406127,-0.029642737,0.003979137,0.3570783,2017-07-05 17:18:15,67.44672922671853
-0.282256,-0.513084,9.821552,5.6523085E-4,0.0019066706,-2.8627366E-4,4.555556,-0.28128093,-0.51621115,9.789015,9.7507384E-4,-0.003127119,-0.032537412,-0.02971961,0.0039925226,0.3571392,2017-07-05 17:18:16,73.96956558146111
-0.279864,-0.516672,9.826336,5.9841573E-4,-4.9747527E-4,-3.0871853E-4,4.555556,-0.2807163,-0.51635027,9.789023,-8.5230597E-4,3.217428E-4,-0.03731237,-0.029714055,0.0039772056,0.35669565,2017-07-05 17:18:18,75.26090213594111
-0.276276,-0.52624,9.8311205,-6.1666965E-4,-0.0017068461,-3.0137599E-4,3.4166667,-0.27880332,-0.5148068,9.789159,-0.0025273266,0.011433175,-0.04196166,-0.029605946,0.003911408,0.35678282,2017-07-05 17:18:19,74.98683925350917
-0.285844,-0.516672,9.822748,-6.591417E-4,-5.301833E-4,-2.8372556E-4,3.4166667,-0.28137267,-0.51093584,9.7892885,0.0044713183,0.0057362057,-0.0334592,-0.029467994,0.004105638,0.3567416,2017-07-05 17:18:20,75.42336461735894
-0.27866802,-0.519064,9.8311205,-6.988123E-4,-5.822405E-4,9.338334E-4,3.4166667,-0.28043136,-0.5106174,9.789333,-0.0077433623,-0.0011213687,-0.02743512,-0.029436007,0.0040640095,0.35682344,2017-07-05 17:18:21,77.4143238465835
-0.279864,-0.513084,9.829925,-0.0019215792,-0.0018021762,9.3695894E-4,3.4166667,-0.2791623,-0.5147101,9.789153,7.0171856E-4,-0.00162614,-0.04077157,-0.029610163,0.003913054,0.3573257,2017-07-05 17:18:22,76.86720824112714
-0.27866802,-0.515476,9.822748,0.0017171875,0.0030563995,-0.001512751,4.555556,-0.28207493,-0.5132709,9.789146,-0.0022109358,-1.8690087E-4,-0.043169864,-0.029595291,0.0040738597,0.35745785,2017-07-05 17:18:23,74.92480685259946
-0.28704,-0.519064,9.829925,-7.7460334E-4,-0.0018881336,9.2440844E-4,4.555556,-0.27952507,-0.5138213,9.789191,0.0075149243,0.0052426867,-0.040732995,-0.0295747,0.0039443197,0.35739613,2017-07-05 17:18:24,71.10823322420845
-0.279864,-0.51428,9.828729,-7.381998E-4,-6.3946843E-4,-3.3354387E-4,3.4166667,-0.27899465,-0.51784354,9.788994,8.6936675E-4,-0.0035635377,-0.039734628,-0.029757248,0.0038420928,0.35750785,2017-07-05 17:18:25,73.20948547453922
-0.291824,-0.511888,9.826336,4.950389E-4,0.0018066168,-3.4987926E-4,4.555556,-0.27759126,-0.5120685,9.789337,0.014232761,-1.8047114E-4,-0.036998484,-0.029456984,0.003875354,0.35767627,2017-07-05 17:18:26,78.01231420734534
-0.284648,-0.516672,9.827532,0.0029423535,0.0030171648,-0.0015783384,4.555556,-0.2791822,-0.5173849,9.789013,0.0054658093,-7.12861E-4,-0.038518824,-0.02974207,0.0038341852,0.35829908,2017-07-05 17:18:28,68.2220128932801
-0.285844,-0.515476,9.826336,4.6193972E-4,-6.744042E-4,-3.591478E-4,3.4166667,-0.28037804,-0.51476395,9.789117,0.0054659555,7.1202073E-4,-0.037218846,-0.029638205,0.0039453832,0.35810038,2017-07-05 17:18:29,74.74307094959327
-0.27747202,-0.52265203,9.823944,4.6016276E-4,-6.8311393E-4,-3.4462288E-4,3.4166667,-0.28131768,-0.51328135,9.789169,-0.003845679,0.00937069,-0.034774963,-0.029583912,0.004023266,0.35791016,2017-07-05 17:18:30,77.37169106923348
-0.279864,-0.505908,9.821552,-7.4663386E-4,-6.545037E-4,-3.5504252E-4,3.4166667,-0.27989447,-0.5133895,9.789202,-0.004814488,0.0044784606,-0.038329437,-0.02956205,0.003960922,0.35767627,2017-07-05 17:18:31,74.80194234346729
-0.28704,-0.515476,9.832316,-7.7678263E-4,-6.6810846E-4,8.703284E-4,4.555556,-0.27902824,-0.5112923,9.789337,0.008011749,0.004183679,-0.04297931,-0.029444693,0.0039694617,0.35731193,2017-07-05 17:18:32,76.38848570898833
-0.295412,-0.504712,9.810788,4.3940544E-4,-6.677732E-4,8.7927654E-4,3.4166667,-0.27886617,-0.51360416,9.78922,0.016545825,-0.008892186,-0.021568859,-0.029551398,0.0039238287,0.35717717,2017-07-05 17:18:33,77.09701970978021
-0.276276,-0.52265203,9.827532,0.0016767159,0.0017793253,-3.7333742E-4,3.4166667,-0.28001502,-0.51351297,9.789192,-0.0037390403,0.009139073,-0.038339376,-0.02956937,0.0039701234,0.35749587,2017-07-05 17:18:34,73.29379410119918
-0.27747202,-0.517868,9.8311205,4.601106E-4,0.0017578602,8.4221363E-4,4.555556,-0.27986193,-0.5121959,9.789268,-0.002389909,0.0056720907,-0.04185352,-0.029504715,0.0039799493,0.35771492,2017-07-05 17:18:35,74.40839195658413
-0.28106,-0.521456,9.822748,4.696399E-4,5.37917E-4,-3.944002E-4,3.4166667,-0.2799473,-0.5133486,9.789202,0.0011126923,0.008107428,-0.03354571,-0.029561242,0.003962867,0.3577179,2017-07-05 17:18:36,76.41696307929831
-0.29062802,-0.50232,9.82514,4.5606494E-4,5.2600354E-4,-4.1890144E-4,3.4166667,-0.28109983,-0.5112963,9.789277,-0.00482384,0.006571707,-0.050215106,-0.029484484,0.0040551326,0.3577213,2017-07-05 17:18:37,75.26052803695022
-0.29062802,-0.513084,9.826336,4.3522567E-4,-7.0004165E-4,7.976033E-4,3.4166667,-0.2789196,-0.51382464,9.789207,0.011708394,-7.406258E-4,-0.037128247,-0.029565457,0.00390292,0.35779077,2017-07-05 17:18:39,75.67147821699206
-0.283452,-0.51428,9.845472,0.0028957278,0.0029831678,-4.3313205E-4,4.555556,-0.2811284,-0.51494616,9.789085,0.0023236023,-6.6613575E-4,-0.05638649,-0.029659312,0.003987525,0.35779378,2017-07-05 17:18:40,73.99741068603991
-0.28943202,-0.519064,9.841885,-0.001966752,-0.001896292,0.002001565,3.4166667,-0.27586848,-0.51410675,9.789278,0.013563557,0.0049572205,-0.05260697,-0.029523602,0.0037487454,0.35790822,2017-07-05 17:18:41,75.66042761055778
-0.283452,-0.511888,9.828729,-7.406883E-4,-6.739795E-4,7.7237934E-4,4.555556,-0.27938914,-0.5152261,9.789121,0.0016708558,-9.4612176E-4,-0.052764792,-0.029642504,0.0038870866,0.35818723,2017-07-05 17:18:42,74.63949791080886
-0.28106,-0.50710404,9.829925,-0.0019505136,-0.0018935949,7.657558E-4,4.555556,-0.2762294,-0.5143898,9.789255,0.0048305984,-0.0072857365,-0.04066928,-0.029543051,0.0037657719,0.35774997,2017-07-05 17:18:43,75.18511106801442
-0.291824,-0.521456,9.856236,-7.400401E-4,-6.526485E-4,7.710457E-4,3.4166667,-0.28202236,-0.5105707,9.7892885,0.009801665,0.010885295,-0.06694763,-0.029466497,0.0041141906,0.35766205,2017-07-05 17:18:44,76.0842181616359
-0.27866802,-0.511888,9.834708,4.8192963E-4,0.003007874,-0.0016783401,4.555556,-0.2828815,-0.5123596,9.78917,-0.0042134714,-4.7156305E-4,-0.045537762,-0.029569076,0.004110969,0.3580241,2017-07-05 17:18:45,77.47072566478555
-0.27866802,-0.510692,9.829925,-7.2527677E-4,-0.0018610954,7.480979E-4,4.555556,-0.2807992,-0.5088492,9.789413,-0.0021312034,0.0018428148,-0.040510874,-0.02936538,0.0040635657,0.35841876,2017-07-05 17:18:46,75.23062098594907
-0.272688,-0.517868,9.838296,5.169548E-4,0.0018424019,-4.957877E-4,3.4166667,-0.2808044,-0.5128575,9.789205,-0.0033323776,-9.694661E-4,-0.025171852,-0.029556064,0.0039936877,0.35831684,2017-07-05 17:18:47,76.94951609453896
-0.28106,-0.52265203,9.829925,4.8013031E-4,5.7423115E-4,-4.933588E-4,3.4166667,-0.28103244,-0.51045704,9.789325,2.7582128E-5,0.0121950265,-0.040600307,-0.02944623,0.0040455614,0.35840875,2017-07-05 17:18:48,74.75073960063276
-0.27866802,-0.510692,9.829925,-0.001945842,-0.001853317,-5.025193E-4,4.555556,-0.28010622,-0.51365566,9.789184,-0.0014381979,-0.0029636356,-0.040741175,-0.029581022,0.0039480915,0.35824588,2017-07-05 17:18:49,74.13137089797912
-0.282256,-0.515476,9.840688,-7.317737E-4,-6.2943995E-4,-5.052909E-4,3.4166667,-0.278678,-0.51122355,9.78935,0.0035779865,0.004252397,-0.051338557,-0.029438097,0.0039310977,0.3580391,2017-07-05 17:18:50,74.41431854101887
-0.279864,-0.511888,9.838296,5.06524E-4,-6.09152E-4,6.926395E-4,4.555556,-0.2768623,-0.5106178,9.7894335,0.006589717,0.0072501902,-0.050058454,-0.029377133,0.0038471092,0.35831234,2017-07-05 17:18:51,73.30814545834784
-0.28704,-0.515476,9.832316,0.0017497316,0.0018381327,-5.5552274E-4,4.555556,-0.28179264,-0.5119456,9.789225,0.005247363,0.0035304027,-0.043092124,-0.029531028,0.004054993,0.35839367,2017-07-05 17:18:52,77.61619979953768
-0.282256,-0.5083,9.844276,-6.8389624E-4,-6.125793E-4,6.6319853E-4,3.4166667,-0.2805075,-0.5107146,9.789324,0.0017484877,-0.002414587,-0.054953244,-0.029449828,0.0040090205,0.3586253,2017-07-05 17:18:53,74.61269440653838
-0.282256,-0.5083,9.834708,-6.986074E-4,0.001818195,6.5311417E-4,4.555556,-0.28239417,-0.50970674,9.789324,-1.3818462E-4,-0.001406725,-0.04538462,-0.02943562,0.0041226526,0.35845542,2017-07-05 17:18:55,75.53900580491452
-0.27508,-0.51428,9.82514,-7.108301E-4,-6.697178E-4,6.502643E-4,3.4166667,-0.27810764,-0.5102437,9.789418,-0.0030276407,0.0040363064,-0.035721302,-0.029382782,0.0039081248,0.35847503,2017-07-05 17:18:56,74.61156093505447
-0.27866802,-0.5083,9.832316,-7.1284175E-4,0.0017740726,6.4050406E-4,3.4166667,-0.27820745,-0.50946116,9.789456,-0.0019314613,0.0036228301,-0.035683308,-0.029346108,0.0039362377,0.35818768,2017-07-05 17:18:57,74.18811634119669
-0.27866802,-0.51428,9.839492,-7.1994215E-4,-6.8116933E-4,6.1837584E-4,4.555556,-0.27710778,-0.51201606,9.789354,0.014716252,0.011831965,-0.041766427,-0.029447619,0.0038381948,0.35815457,2017-07-05 17:18:58,75.5092058638773
-0.26670802,-0.504712,9.833512,4.994795E-4,5.521029E-4,-6.176792E-4,3.4166667,-0.2789039,-0.51181525,9.789314,-0.012195885,-0.0071032564,-0.044198625,-0.02947095,0.0039271154,0.35816336,2017-07-05 17:18:59,70.17497826472456
-0.306176,-0.52624,9.773712,4.902631E-4,-0.0019161552,5.966574E-4,4.555556,-0.29355228,-0.505255,9.789227,0.0066437307,0.0018490985,-0.18302082,-0.02942759,0.0047368417,0.35840872,2017-07-05 17:19:00,73.38055341788373
-0.258336,-0.517868,9.841885,-0.0019777454,-0.003058195,0.0018009916,3.4166667,-0.26272228,-0.51232713,9.789735,-0.0043862704,0.005540829,-0.052149873,-0.02919609,0.0031763806,0.35723227,2017-07-05 17:19:01,77.87377963836794
-0.272688,-0.510692,9.821552,4.6641007E-4,6.0786307E-4,5.763471E-4,4.555556,-0.26155487,-0.51295453,9.789733,0.011133115,-0.002262538,-0.031819034,-0.029206028,0.0030968147,0.35763228,2017-07-05 17:19:02,74.32117142690046
-0.270296,-0.517868,9.833512,-0.0031905249,-0.0018491521,6.08176E-4,4.555556,-0.26044458,-0.5162676,9.789588,0.009851422,0.0016003845,-0.043924484,-0.029344324,0.0029771265,0.35783297,2017-07-05 17:19:03,75.62834110364945
-0.26312,-0.515476,9.827532,-7.225834E-4,0.001832366,5.9133396E-4,3.4166667,-0.26607043,-0.51635903,9.789432,0.005421587,-0.0020789984,-0.041688688,-0.02945227,0.0032366524,0.35804585,2017-07-05 17:19:04,77.48775082848466
-0.2691,-0.519064,9.838296,0.0017257594,6.0940534E-4,5.623922E-4,3.4166667,-0.26471534,-0.51485133,9.789548,0.004384663,0.0042126495,-0.048747957,-0.029356617,0.0031905235,0.35833722,2017-07-05 17:19:05,77.5261686309866
-0.26670802,-0.527436,9.8371,-7.1053207E-4,-5.9778243E-4,-6.6147E-4,3.4166667,-0.26087645,-0.51354843,9.789721,0.005831574,0.013887582,-0.047380175,-0.029225782,0.0030167152,0.35881194,2017-07-05 17:19:06,75.84342778025791
-0.259532,-0.516672,9.840688,-7.2109327E-4,-6.098971E-4,-6.599389E-4,4.555556,-0.26260647,-0.51365215,9.789669,-0.0030744756,0.0030198959,-0.051018827,-0.029262392,0.0030975558,0.35879967,2017-07-05 17:19:07,75.85252509298145
-0.270296,-0.51428,9.827532,-7.432997E-4,5.847439E-4,5.579181E-4,3.4166667,-0.26639426,-0.51326203,9.789586,0.0039017568,0.0010179814,-0.03794541,-0.029312095,0.0032952076,0.35847512,2017-07-05 17:19:08,74.57309899213644
-0.272688,-0.515476,9.822748,-7.425733E-4,-6.291121E-4,5.501397E-4,4.555556,-0.26556242,-0.5123714,9.789655,0.007125578,0.003104542,-0.033093292,-0.029252995,0.0032846178,0.3580696,2017-07-05 17:19:09,75.0996236689003
-0.264316,-0.517868,9.835904,4.6638772E-4,0.0017718747,5.5319443E-4,3.4166667,-0.2590331,-0.51174426,9.789864,0.0052828724,0.0061237435,-0.046041038,-0.029104305,0.0029788828,0.35827148,2017-07-05 17:19:10,76.19439899322238
-0.26551202,-0.523848,9.839492,4.51155E-4,0.00171756,-6.728396E-4,4.555556,-0.26625317,-0.5138469,9.78956,-7.4113725E-4,0.0100011695,-0.0499322,-0.029337281,0.0032786594,0.35844737,2017-07-05 17:19:11,77.46298573083779
-0.2691,-0.528632,9.827532,-7.7454E-4,0.0016766414,-6.6910684E-4,4.555556,-0.26614618,-0.5133802,9.789587,0.0029538267,0.015251784,-0.03794424,-0.029312333,0.0032888183,0.35823372,2017-07-05 17:19:13,72.94979790139433
-0.270296,-0.50949603,9.833512,4.480146E-4,-7.7831745E-4,5.4819137E-4,3.4166667,-0.2611051,-0.5136481,9.789709,8.189152E-4,0.011395949,-0.047390696,-0.02923194,0.0030525236,0.35795814,2017-07-05 17:19:14,71.31583434707719
-0.264316,-0.519064,9.834708,-7.6121464E-4,-0.0019959286,5.4641813E-4,4.555556,-0.26326588,-0.5133875,9.789664,0.0010501118,0.005676511,-0.04504384,-0.029260393,0.0031475641,0.35836056,2017-07-05 17:19:15,76.92842736585852
-0.255944,-0.51428,9.832316,4.6366453E-4,4.348755E-4,5.39802E-4,4.555556,-0.2636018,-0.51190984,9.789733,-0.007657785,0.0023701633,-0.04258359,-0.029196993,0.003182638,0.35861486,2017-07-05 17:19:16,74.60296672097152
-0.271492,-0.521456,9.815572,4.501976E-4,-8.1658363E-4,5.3840503E-4,4.555556,-0.26211905,-0.51330084,9.789699,0.009372955,0.008155176,-0.025873277,-0.029234767,0.003099302,0.3582088,2017-07-05 17:19:17,78.13928230976286
-0.259532,-0.516672,9.833512,-7.589422E-4,4.2728335E-4,-7.081069E-4,4.555556,-0.26229262,-0.51590973,9.789557,-0.0027606238,7.622896E-4,-0.043955464,-0.029362826,0.0030546675,0.35837343,2017-07-05 17:19:18,73.2105416449085
-0.264316,-0.510692,9.847864,-7.428564E-4,-7.7021867E-4,5.3239986E-4,4.555556,-0.26221108,-0.51704055,9.7895,0.0021049182,-0.006348529,-0.05836334,-0.029415706,0.0030253916,0.3585226,2017-07-05 17:19:19,65.73086699703548
-0.261924,-0.52026004,9.840688,-7.314943E-4,-7.363707E-4,5.253218E-4,3.4166667,-0.26107544,-0.51685303,9.78954,-0.0051314263,-1.8101913E-4,-0.051148005,-0.029384986,0.0029844649,0.35821435,2017-07-05 17:19:20,71.41263729025121
-0.267904,-0.519064,9.829925,-7.121675E-4,-7.280782E-4,5.008057E-4,3.4166667,-0.25971684,-0.51198524,9.789832,0.008187161,0.0070787794,-0.040092357,-0.029127723,0.0030126546,0.35809124,2017-07-05 17:19:22,77.16492321997421
-0.264316,-0.516672,9.829925,5.433634E-4,5.195588E-4,4.7036633E-4,4.555556,-0.26486123,-0.5142386,9.789577,-5.452128E-4,0.0024334376,-0.040348377,-0.029328942,0.0032190992,0.35800573,2017-07-05 17:19:23,76.27402093927367
-0.26551202,-0.521456,9.834708,-7.149279E-4,-7.427037E-4,4.620254E-4,3.4166667,-0.26028505,-0.51403695,9.78971,0.006422964,0.0014390198,-0.047390115,-0.029235603,0.0030051635,0.35799652,2017-07-05 17:19:24,77.62701433220401
-0.255944,-0.52026004,9.832316,0.001732368,0.0017004237,-7.598363E-4,4.555556,-0.2627244,-0.5144233,9.789624,-0.006780381,0.005836707,-0.04269231,-0.029299403,0.0031070197,0.35822713,2017-07-05 17:19:25,75.57935241186063
-0.260728,-0.513084,9.81916,-7.337816E-4,-8.2561374E-4,4.5808032E-4,3.4166667,-0.2686911,-0.5147774,9.789444,-0.007963088,-0.0016933965,-0.029716508,-0.02942437,0.003394277,0.35792154,2017-07-05 17:19:26,66.2726925574879
-0.26312,-0.52026004,9.8072,5.046651E-4,-7.7491254E-4,-7.801093E-4,4.555556,-0.2645105,-0.51543486,9.789523,-0.0013905045,-0.0059388154,-0.08226152,-0.029378496,0.0031902248,0.35769778,2017-07-05 17:19:27,69.27290873223188
-0.258336,-0.51428,9.791653,0.0017225146,0.0016662404,-7.6846406E-4,3.4166667,-0.26310322,-0.5166118,9.789499,0.014368809,0.0048441887,-0.10500936,-0.029408263,0.0031076085,0.35751045,2017-07-05 17:19:28,76.42873482771836
-0.260728,-0.503516,9.808396,0.0017302334,0.004098803,-7.853955E-4,3.4166667,-0.26562205,-0.51398975,9.789569,-0.004894056,-0.010473719,-0.018828034,-0.029328953,0.0032781933,0.35742292,2017-07-05 17:19:29,74.77682070653708
-0.267904,-0.525044,9.8430805,-6.492138E-4,-7.8644603E-4,-7.988438E-4,4.555556,-0.26685643,-0.5205712,9.789188,0.0010475911,0.0044728713,-0.053892918,-0.029666226,0.0032081145,0.35769847,2017-07-05 17:19:30,63.60496443308283
-0.26312,-0.528632,9.8311205,-6.405674E-4,4.631877E-4,-8.150749E-4,4.555556,-0.26229253,-0.5230171,9.789181,8.274638E-4,0.0056149173,-0.041939445,-0.029701777,0.0029222812,0.3584464,2017-07-05 17:19:31,69.89619836464271
-0.2691,-0.527436,9.84906,-0.0018240586,-0.0019528642,4.0580705E-4,3.4166667,-0.26452354,-0.5242913,9.789051,0.004576496,0.0031447278,-0.06000877,-0.029803194,0.0030068462,0.35839412,2017-07-05 17:19:32,76.29451327927862
-0.260728,-0.523848,9.835904,5.9401616E-4,4.6771765E-4,4.201308E-4,4.555556,-0.26595068,-0.5215355,9.78916,0.006737327,0.014272527,-0.052725043,-0.029698165,0.0031235402,0.35844713,2017-07-05 17:19:33,72.50777849108054
-0.27508,-0.537004,9.839492,0.001782652,-7.64288E-4,-7.824749E-4,4.555556,-0.2639915,-0.52257484,9.789158,0.011088472,0.014429179,-0.05033435,-0.029711384,0.0030154947,0.35831356,2017-07-05 17:19:34,72.67364007700792
-0.25116,-0.513084,9.832316,0.003149651,-0.0031853095,-7.753968E-4,2.277778,-0.22965394,-0.5231584,9.789993,0.021506058,-0.010074344,-0.042323478,-0.029110655,0.0013702466,0.35830337,2017-07-05 17:19:36,76.1591635672873
-0.255944,-0.516672,9.835904,7.1579963E-4,0.0016920865,-7.468499E-4,3.4166667,-0.25117037,-0.5147114,9.789912,0.0047736624,0.0019606326,-0.04599252,-0.029101908,0.0025491067,0.35830757,2017-07-05 17:19:37,76.15787342262054
-0.243984,-0.528632,9.8371,6.7522004E-4,-7.8968704E-4,-7.4386224E-4,2.277778,-0.25109914,-0.5176501,9.78976,-0.0071151294,-0.006958112,-0.036575872,-0.029241286,0.0024845372,0.35854414,2017-07-05 17:19:38,72.55181178689709
-0.25116,-0.519064,9.823944,6.717481E-4,0.0016757175,-7.618144E-4,2.277778,-0.251623,-0.5144276,9.789916,-4.630144E-4,0.004636391,-0.034027357,-0.029096486,0.0025778997,0.3582419,2017-07-05 17:19:39,69.6939235604675
-0.25474802,-0.529828,9.834708,7.66851E-4,-8.423254E-4,4.6960264E-4,4.555556,-0.26509437,-0.52572215,9.78896,-0.010346366,0.004105828,-0.045748193,-0.029883277,0.0029935162,0.3588413,2017-07-05 17:19:40,71.71042686339433
-0.26551202,-0.527436,9.82514,-0.0017088354,4.1861832E-4,5.0130486E-4,4.555556,-0.262881,-0.52482134,9.789067,0.0026310245,0.0026147126,-0.036072016,-0.029798781,0.0029148124,0.35852346,2017-07-05 17:19:41,72.41684842219183
-0.2691,-0.534612,9.832316,7.439777E-4,4.036054E-4,4.995689E-4,3.4166667,-0.26734027,-0.5263847,9.788863,0.001759758,0.0082272915,-0.043453358,-0.029954815,0.003099978,0.35847715,2017-07-05 17:19:42,71.31795812088794
-0.27747202,-0.5382,9.835904,7.3390454E-4,4.0382892E-4,-7.272288E-4,3.4166667,-0.27040362,-0.52900755,9.788637,0.007068386,0.0091924835,-0.047266778,-0.030136453,0.0031928534,0.35863066,2017-07-05 17:19:44,73.24114461533885
-0.27508,-0.53102404,9.8371,7.4745715E-4,-7.814318E-4,4.877746E-4,4.555556,-0.26513708,-0.52448183,9.789024,3.7495253E-4,0.005346183,-0.038507134,-0.029823609,0.0030315802,0.3584251,2017-07-05 17:19:45,76.52006085830713
-0.2691,-0.527436,9.838296,6.9372356E-4,-8.0467016E-4,4.885383E-4,4.555556,-0.26644686,-0.524827,9.788971,0.002653145,0.0026090136,-0.04932488,-0.029863698,0.0030909805,0.3583202,2017-07-05 17:19:46,68.96072521406431
-0.273884,-0.529828,9.841885,-5.061291E-4,-7.810965E-4,4.9909204E-4,3.4166667,-0.26497352,-0.5255944,9.788971,0.00891047,0.0042335824,-0.052913845,-0.029872797,0.003011763,0.35816488,2017-07-05 17:19:47,64.29637246639513
-0.271492,-0.528632,9.839492,7.155165E-4,0.002901204,-7.123612E-4,4.555556,-0.26700258,-0.5261077,9.788888,0.0044894204,0.0025242579,-0.0506044,-0.029931972,0.0031223185,0.35743746,2017-07-05 17:19:48,76.34726815839305
-0.271492,-0.52265203,9.839492,-0.0017486624,-0.0019878596,0.0017271824,4.555556,-0.26945403,-0.5273606,9.788753,0.0020379722,-0.0047085797,-0.050740007,-0.030036397,0.0032169751,0.3574138,2017-07-05 17:19:49,76.85716016097487
-0.272688,-0.527436,9.838296,6.669648E-4,-7.718876E-4,-7.083751E-4,3.4166667,-0.27135462,-0.52587074,9.78878,0.0013333858,0.0015652765,-0.04951602,-0.030000692,0.0033290742,0.35758862,2017-07-05 17:19:50,77.33351407405878
-0.276276,-0.5382,9.82514,6.6715106E-4,-7.552132E-4,4.97438E-4,3.4166667,-0.2683397,-0.5268216,9.788813,0.007936291,0.011378413,-0.036326867,-0.029992305,0.0031551977,0.3579907,2017-07-05 17:19:51,74.54568471665019
-0.2691,-0.523848,9.835904,-0.0017637387,-0.0031706616,4.849583E-4,4.555556,-0.26795298,-0.5265733,9.7888365,0.00951903,0.008038674,-0.04826339,-0.02997326,0.0031425983,0.35795096,2017-07-05 17:19:52,72.74350444068153
-0.26670802,-0.521456,9.82514,-5.6096166E-4,-7.264763E-4,4.968494E-4,4.555556,-0.26701325,-0.5272471,9.788826,-3.0523003E-4,-0.005791078,-0.036313422,-0.02998776,0.0030897332,0.3578202,2017-07-05 17:19:53,77.97141319208501
-0.264316,-0.53222,9.845472,-5.7980046E-4,5.148873E-4,4.8518553E-4,4.555556,-0.26614568,-0.52643436,9.788894,-0.0018296815,0.0057856706,-0.056577627,-0.029933099,0.0030637996,0.35780367,2017-07-05 17:19:55,67.03156455110876
-0.271492,-0.525044,9.832316,6.589927E-4,5.1146E-4,4.7381595E-4,3.4166667,-0.26738688,-0.52436846,9.788971,0.004105134,6.755612E-4,-0.04334522,-0.02985886,0.0031459343,0.35826376,2017-07-05 17:19:56,65.60123798643471
-0.272688,-0.53341603,9.855041,6.251298E-4,-0.001972571,4.7747046E-4,4.555556,-0.27104232,-0.5295936,9.788589,0.0016456667,0.003822408,-0.06645196,-0.030173626,0.0032355252,0.35791948,2017-07-05 17:19:57,73.97062439457005
-0.2691,-0.537004,9.827532,-0.0018098839,-7.208213E-4,4.8218295E-4,3.4166667,-0.2684704,-0.5253499,9.78889,0.0018256081,-0.0062859487,-0.04701485,-0.029924555,0.0031881868,0.357995,2017-07-05 17:19:58,73.42268744132895
-0.264316,-0.53341603,9.84906,6.479956E-4,-6.899163E-4,-7.46876E-4,4.555556,-0.2665356,-0.5279057,9.788803,-0.0022196122,0.0055103246,-0.060256608,-0.03001284,0.0030311262,0.35856107,2017-07-05 17:19:59,76.92627378822108
-0.272688,-0.539396,9.815572,-5.845502E-4,-0.0019147918,-7.337257E-4,4.555556,-0.26690945,-0.5268906,9.788849,0.005778547,0.012505444,-0.026723173,-0.02997026,0.003077739,0.35824266,2017-07-05 17:20:00,76.92233935008736
-0.2691,-0.53222,9.839492,6.6863E-4,-6.565973E-4,-7.6081604E-4,3.4166667,-0.26811427,-0.52548504,9.788891,-0.008582261,7.5494655E-4,-0.05299451,-0.029925482,0.0031593146,0.35828948,2017-07-05 17:20:01,74.00275446442983
-0.271492,-0.53341603,9.845472,6.4247847E-4,5.6776404E-4,-7.4838847E-4,4.555556,-0.26690933,-0.52892596,9.788738,0.004582688,0.004490078,-0.056733694,-0.030068448,0.003028833,0.35860467,2017-07-05 17:20:02,73.80810423477851
-0.27747202,-0.52624,9.828729,-5.784482E-4,-6.616041E-4,4.7378242E-4,4.555556,-0.2656053,-0.5269899,9.7888775,0.011866708,-7.4990507E-4,-0.03985095,-0.029951474,0.0030103785,0.35835004,2017-07-05 17:20:03,77.02293758042602
-0.276276,-0.529828,9.856236,6.3077733E-4,5.6830794E-4,-7.464215E-4,3.4166667,-0.2705376,-0.52802056,9.788687,0.0057383794,0.0018074514,-0.0675491,-0.030088967,0.0032443574,0.35779178,2017-07-05 17:20:04,73.95128339045881
-0.271492,-0.540592,9.828729,-0.0018166676,-0.0018735528,0.0016912781,4.555556,-0.2662239,-0.5236582,9.78904,0.005268095,0.01693382,-0.039689038,-0.029803917,0.0031016753,0.3583226,2017-07-05 17:20:05,66.06141274779363
-0.270296,-0.527436,9.856236,-6.042309E-4,-6.4083934E-4,0.0016622171,4.555556,-0.26763186,-0.5230715,9.789034,0.0026641411,0.004364479,-0.067202486,-0.029802544,0.0031718274,0.35856113,2017-07-05 17:20:06,69.51428726116633
-0.276276,-0.534612,9.829925,6.2609836E-4,5.944669E-4,-8.059032E-4,3.4166667,-0.27107105,-0.5256784,9.788799,0.005204948,0.008933577,-0.041125793,-0.029989589,0.0032896134,0.3585056,2017-07-05 17:20:07,76.27058290590983
-0.2691,-0.537004,9.823944,-5.9812143E-4,-6.5118074E-4,0.0016318001,4.555556,-0.26760253,-0.52677435,9.788836,-0.01046254,0.0042496934,-0.044676762,-0.02997607,0.0031257384,0.3578419,2017-07-05 17:20:08,75.93624774110737
-0.27508,-0.529828,9.835904,6.060973E-4,5.5876374E-4,-8.122772E-4,4.555556,-0.26571032,-0.52509373,9.788978,0.009369667,0.004734262,-0.046926588,-0.02986152,0.0030647703,0.35789087,2017-07-05 17:20:10,76.53866605040503
-0.273884,-0.534612,9.84906,6.069653E-4,5.733073E-4,-8.147359E-4,4.555556,-0.26707777,-0.52646536,9.788867,8.2624E-4,0.0093426695,-0.044645783,-0.029952496,0.0030991526,0.35806754,2017-07-05 17:20:11,76.84559440405236
-0.272688,-0.52265203,9.827532,6.1073527E-4,-6.271899E-4,4.274547E-4,4.555556,-0.26852506,-0.5263822,9.788832,0.0041629286,-0.003730163,-0.038700026,-0.029974354,0.003175772,0.35787508,2017-07-05 17:20:12,73.97993859452173
-0.272688,-0.53222,9.8371,6.1878935E-4,-6.329492E-4,4.3410063E-4,3.4166667,-0.2659636,-0.524061,9.789025,0.006724395,0.008158976,-0.04807459,-0.029817397,0.0030911195,0.35803437,2017-07-05 17:20:13,75.4436181946477
-0.26551202,-0.523848,9.857432,0.0018437058,0.0018238574,-7.747561E-4,3.4166667,-0.2635349,-0.5240142,9.789093,0.0043691,0.0058138375,-0.06235855,-0.029771535,0.0029683416,0.35828462,2017-07-05 17:20:14,68.09427246880989
-0.2691,-0.53102404,9.829925,6.224513E-4,0.0018392876,4.4304505E-4,3.4166667,-0.26818556,-0.5257857,9.788872,9.14448E-4,0.0052383393,-0.041052725,-0.029940203,0.003165883,0.3580191,2017-07-05 17:20:15,74.3012683256588
-0.267904,-0.519064,9.840688,-5.941838E-4,6.2087923E-4,4.503429E-4,3.4166667,-0.26682055,-0.52429515,9.788989,0.0010834661,-0.005231179,-0.051698625,-0.029843612,0.003133567,0.35784918,2017-07-05 17:20:17,77.84989430292609
-0.26551202,-0.527436,9.829925,-5.566813E-4,-6.054267E-4,4.414916E-4,3.4166667,-0.2682268,-0.5272978,9.78879,-0.0027147755,1.3823943E-4,-0.041135143,-0.030013662,0.0031341761,0.3582065,2017-07-05 17:20:18,73.06632597876009
-0.270296,-0.535808,9.844276,-5.418509E-4,-0.0017881393,-8.0247596E-4,4.555556,-0.26650286,-0.5278911,9.788806,0.0061851367,-0.0028470966,-0.026766427,-0.030009871,0.0030463461,0.35804766,2017-07-05 17:20:19,76.36409166736229
-0.2691,-0.529828,9.834708,-5.777925E-4,-5.993545E-4,-7.7903643E-4,4.555556,-0.2701962,-0.52720976,9.788741,-0.0010961795,0.0026182197,-0.045967385,-0.030043913,0.0032443916,0.3577458,2017-07-05 17:20:20,76.89988009277252
-0.270296,-0.53222,9.8311205,-6.187707E-4,6.014034E-4,-7.773042E-4,3.4166667,-0.26575062,-0.52582747,9.788937,0.0045453883,0.0063925507,-0.042183775,-0.02989692,0.0030563243,0.35779583,2017-07-05 17:20:21,71.78624838033764
-0.27747202,-0.535808,9.847864,-0.0018269755,-6.2927604E-4,4.4104457E-4,3.4166667,-0.2690031,-0.5306744,9.788587,-0.0010990655,-0.004434439,-0.054494392,-0.030188551,0.0031119366,0.35812733,2017-07-05 17:20:22,70.32938143376957
-0.267904,-0.527436,9.8371,6.1339885E-4,0.0018265918,4.505664E-4,3.4166667,-0.26705837,-0.52437365,9.7889805,8.456388E-4,0.0030623833,-0.048120182,-0.029853895,0.0031225423,0.35850304,2017-07-05 17:20:23,75.24261119478429
-0.26551202,-0.53222,9.835904,6.228052E-4,0.0018459782,4.4574589E-4,4.555556,-0.26903385,-0.52241606,9.789028,-0.0035218175,0.00980393,-0.046875734,-0.029796176,0.003258043,0.35832718,2017-07-05 17:20:24,76.34319911846887
-0.264316,-0.537004,9.841885,5.938448E-4,0.0018049851,-7.437542E-4,3.4166667,-0.2671053,-0.52662104,9.788857,-0.002789302,0.010382935,-0.053027827,-0.029960811,0.0030938224,0.35818574,2017-07-05 17:20:25,73.7045314103423
-0.273884,-0.525044,9.84906,-0.0018414184,-0.0018534362,4.6284497E-4,3.4166667,-0.26629463,-0.52943975,9.788727,0.0075893775,-0.0043957145,-0.060332596,-0.030079594,0.0030109994,0.3579582,2017-07-05 17:20:27,71.423404917438
-0.26551202,-0.53222,9.832316,6.095581E-4,0.0018140674,-7.668361E-4,4.555556,-0.26680237,-0.5257045,9.788915,0.0046896376,0.005319551,-0.054166477,-0.029911824,0.0030938329,0.3582584,2017-07-05 17:20:28,72.32571214062736
-0.26312,-0.53102404,9.82514,-6.127469E-4,-6.474182E-4,-7.385984E-4,4.555556,-0.26705697,-0.5262275,9.78888,-0.0039369743,0.004796587,-0.036259063,-0.029941017,0.0031001554,0.358141,2017-07-05 17:20:29,73.28186647788604
-0.261924,-0.52026004,9.827532,0.00182008,5.6280196E-4,-7.354319E-4,4.555556,-0.2717879,-0.52438533,9.788848,-0.009863917,-0.0041253,-0.03868366,-0.02993955,0.0033611981,0.35807604,2017-07-05 17:20:30,77.33119910300444
-0.26670802,-0.53222,9.823944,-6.4147636E-4,-6.8167597E-4,5.2323565E-4,3.4166667,-0.27056387,-0.5254391,9.788826,-2.6787544E-4,8.009046E-4,-0.027941901,-0.029967144,0.0032858294,0.35800803,2017-07-05 17:20:31,71.04848652441012
-0.258336,-0.53102404,9.841885,5.8109686E-4,5.5956095E-4,5.267188E-4,4.555556,-0.2672748,-0.52795124,9.788781,0.0066092075,-0.0029072294,-0.048319504,-0.030026494,0.003085575,0.3579367,2017-07-05 17:20:32,74.4687892016836
-0.264316,-0.528632,9.8311205,5.673878E-4,5.590543E-4,-6.9068E-4,3.4166667,-0.26663902,-0.5270074,9.788849,-0.002323018,0.0016246055,-0.042271454,-0.029970426,0.0030671814,0.35810387,2017-07-05 17:20:33,72.28276137100804
-0.271492,-0.53341603,9.833512,-6.5465644E-4,-6.6601485E-4,5.551353E-4,3.4166667,-0.26779905,-0.5258222,9.788882,0.0036929545,0.00759378,-0.044630583,-0.029935297,0.0031427536,0.35814562,2017-07-05 17:20:34,76.2337349634218
-0.264316,-0.527436,9.827532,5.858354E-4,0.0018018559,-6.6932663E-4,4.555556,-0.26593912,-0.52538633,9.788955,7.68902E-4,-3.4231064E-4,-0.032597616,-0.029880332,0.003063678,0.35809824,2017-07-05 17:20:35,73.51284227120277
-0.26312,-0.537004,9.840688,5.777888E-4,5.6835264E-4,5.6281313E-4,4.555556,-0.2674557,-0.5261972,9.78887,-0.0043357094,0.010806823,-0.051817868,-0.029948024,0.0031086123,0.35848632,2017-07-05 17:20:36,71.81576837738471
-0.270296,-0.534612,9.835904,5.654469E-4,5.40711E-4,-0.0018774122,4.555556,-0.26966834,-0.5247526,9.788886,6.2766694E-4,0.009859387,-0.04701777,-0.029918298,0.0032533756,0.35808158,2017-07-05 17:20:38,72.97618436642297
-0.25714,-0.53222,9.8311205,5.51831E-4,-6.918162E-4,5.557798E-4,4.555556,-0.26788083,-0.5253239,9.788905,-0.010740828,0.00689608,-0.04221534,-0.029913262,0.003153695,0.35821003,2017-07-05 17:20:39,72.62819419691633
-0.2691,-0.527436,9.841885,5.565062E-4,5.4362416E-4,5.587302E-4,3.4166667,-0.27110466,-0.5248088,9.788843,-0.0020046362,0.0026272067,-0.053041857,-0.029948862,0.0033062405,0.35853338,2017-07-05 17:20:40,73.88037331573878
-0.273884,-0.534612,9.829925,0.0017926842,0.0017894581,-6.6719577E-4,4.555556,-0.26628828,-0.5309775,9.788645,0.007595716,0.003634484,-0.04127952,-0.030154355,0.0029666433,0.35845163,2017-07-05 17:20:41,71.68181637446024
-0.2691,-0.516672,9.839492,0.0017906055,0.0030259192,-6.9501996E-4,4.555556,-0.26768652,-0.5258236,9.788884,0.0014135018,-0.009151567,-0.050607905,-0.029934702,0.0031240047,0.35856223,2017-07-05 17:20:42,74.94066779644199
-0.264316,-0.525044,9.8430805,-0.0018725693,-6.3610077E-4,-7.08051E-4,4.555556,-0.26868218,-0.52940375,9.788663,-0.0043661958,-0.0043597296,-0.05441782,-0.030123465,0.0031068062,0.35853276,2017-07-05 17:20:43,70.18405624518466
-0.26312,-0.53222,9.8371,-6.432235E-4,6.009266E-4,-7.3226914E-4,3.4166667,-0.26908022,-0.5276702,9.788747,-0.0059602237,0.004549809,-0.048353404,-0.030046478,0.003173257,0.35804322,2017-07-05 17:20:44,74.68713698186276
-0.267904,-0.528632,9.8311205,-6.449893E-4,-0.0018379241,4.6599284E-4,3.4166667,-0.2676185,-0.52904105,9.788713,2.8552068E-4,-4.0905573E-4,-0.042407066,-0.030085178,0.0030776307,0.35807297,2017-07-05 17:20:45,71.5508537508696
-0.267904,-0.527436,9.841885,5.736537E-4,-6.459281E-4,-7.5261295E-4,4.555556,-0.2700386,-0.5262064,9.7888,-0.0021345827,0.0012296514,-0.05308511,-0.029994816,0.003240274,0.3582107,2017-07-05 17:20:46,75.25212699844808
-0.26312,-0.52265203,9.839492,-0.0018856972,-0.0018743873,4.5491382E-4,3.4166667,-0.26679695,-0.52554953,9.788922,0.0058910493,-0.0076815677,-0.056548987,-0.02990447,0.0030951558,0.3582975,2017-07-05 17:20:48,75.92909954622789
-0.26312,-0.523848,9.826336,0.0017897263,5.75684E-4,4.5998394E-4,4.555556,-0.26939029,-0.5272476,9.78876,-0.006270294,-0.0033995793,-0.037575405,-0.030033173,0.0031847623,0.3583846,2017-07-05 17:20:49,75.70908396698762
-0.2691,-0.527436,9.833512,5.5994093E-4,5.627796E-4,4.5647845E-4,3.4166667,-0.26929173,-0.5245732,9.788908,-0.0013877098,0.010038799,-0.04699673,-0.029904174,0.0032265151,0.3584625,2017-07-05 17:20:50,75.59940144924822
-0.267904,-0.525044,9.838296,5.577728E-4,-6.4829737E-4,-7.797256E-4,4.555556,-0.2690169,-0.5240002,9.788945,-0.0011128931,0.0010438099,-0.049351186,-0.029871996,0.0032224143,0.35850954,2017-07-05 17:20:51,75.49434023641652
-0.26670802,-0.52265203,9.839492,5.504526E-4,5.5132806E-4,-7.7465177E-4,3.4166667,-0.27066818,-0.5250429,9.788843,-0.0015681627,-0.0059788916,-0.03390461,-0.02995143,0.0032865428,0.3583662,2017-07-05 17:20:52,63.437311914859905
-0.271492,-0.515476,9.839492,0.0017412603,0.0017613098,4.4786558E-4,4.555556,-0.2672535,-0.5257625,9.7889,0.004238514,-0.0102864895,-0.050592124,-0.02992376,0.0031054362,0.35853332,2017-07-05 17:20:53,74.32943946169755
-0.276276,-0.527436,9.82514,5.353242E-4,0.0017839521,-7.8111514E-4,4.555556,-0.26840994,-0.5254593,9.788882,0.007866058,0.0019767436,-0.036257308,-0.029931601,0.0031556005,0.3588588,2017-07-05 17:20:54,73.57672192899392
-0.273884,-0.53341603,9.833512,5.592033E-4,5.856082E-4,-7.760413E-4,3.4166667,-0.2684505,-0.5249393,9.788911,0.0054335147,0.0084767,-0.044601943,-0.029907169,0.0031707964,0.35874224,2017-07-05 17:20:55,74.25289975300302
-0.273884,-0.53102404,9.827532,5.643815E-4,-6.377101E-4,4.5832992E-4,4.555556,-0.26840213,-0.5259455,9.788859,-4.9810397E-4,-0.0020974472,-0.044653382,-0.02995304,0.003161334,0.35839114,2017-07-05 17:20:56,76.46012086896593
-0.26670802,-0.5382,9.827532,5.730055E-4,-6.1550736E-4,4.594326E-4,3.4166667,-0.26894158,-0.5264239,9.788816,-0.0034295726,0.0034041458,-0.0578513,-0.029985406,0.003181236,0.35829863,2017-07-05 17:20:57,77.38178341587395
-0.26312,-0.53102404,9.8371,5.675964E-4,0.001808688,-7.582009E-4,4.555556,-0.26946205,-0.5246079,9.788901,0.0020299715,0.007612119,-0.038629882,-0.029908847,0.0032349122,0.35843372,2017-07-05 17:20:58,73.55975695196854
-0.270296,-0.534612,9.8371,-6.4651296E-4,-6.6150725E-4,4.5213848E-4,4.555556,-0.26865095,-0.5267788,9.788805,0.0016450456,0.007833142,-0.048294954,-0.029998478,0.0031468908,0.3587345,2017-07-05 17:20:59,74.17652529438546
-0.273884,-0.529828,9.838296,5.639717E-4,-6.734878E-4,-7.5785816E-4,3.4166667,-0.26775277,-0.525751,9.788886,0.0061312327,0.004077004,-0.04941022,-0.0299325,0.003128064,0.35857543,2017-07-05 17:21:00,72.72042875618747
-0.267904,-0.527436,9.841885,-6.5973774E-4,-6.864369E-4,-7.602833E-4,3.4166667,-0.26723826,-0.5250198,9.788939,6.6575216E-4,0.002416231,-0.052945994,-0.029888554,0.003113828,0.35867316,2017-07-05 17:21:01,66.77800243156415
-0.271492,-0.53102404,9.829925,-6.48804E-4,5.4661185E-4,4.4812635E-4,4.555556,-0.26872995,-0.5286236,9.788705,0.0027620487,0.0024004488,-0.041219316,-0.030088706,0.0031084015,0.35899672,2017-07-05 17:21:02,74.646206718687
-0.267904,-0.5382,9.821552,-6.807931E-4,-7.031411E-4,0.0016826354,3.4166667,-0.26931274,-0.527543,9.788747,-0.0014087161,0.0106570395,-0.032805122,-0.030047156,0.0031630967,0.35877484,2017-07-05 17:21:03,77.95938808690978
-0.273884,-0.537004,9.832316,5.4326653E-4,-7.0057064E-4,4.4690445E-4,3.4166667,-0.26757973,-0.52525955,9.788917,0.0063042697,0.011744433,-0.043399584,-0.029906113,0.0031268895,0.35863578,2017-07-05 17:21:04,75.84172403329316
-0.26551202,-0.53222,9.835904,0.0017632842,5.0500035E-4,-7.84792E-4,3.4166667,-0.26948518,-0.5301519,9.788601,-0.0027771548,-0.0015199031,-0.046107087,-0.030176055,0.0031098076,0.35919836,2017-07-05 17:21:06,76.40965701136173
-0.26312,-0.534612,9.840688,-0.0019254908,-7.2956085E-4,4.44483E-4,3.4166667,-0.26567635,-0.525429,9.788961,-0.00255637,0.009182949,-0.05172668,-0.029880304,0.0030233765,0.3589417,2017-07-05 17:21:07,70.69833544377354
-0.264316,-0.535808,9.839492,-6.630011E-4,-0.0019346997,4.3886155E-4,4.555556,-0.26878807,-0.52697694,9.788793,-0.0044720676,0.008831066,-0.050699677,-0.03001138,0.0031407166,0.3590165,2017-07-05 17:21:08,75.77057945937237
-0.27866802,-0.53102404,9.844276,5.638413E-4,-7.188767E-4,4.3220818E-4,3.4166667,-0.2671366,-0.5260877,9.788886,0.009139383,0.0049363603,-0.041038115,-0.02993847,0.003080775,0.35894287,2017-07-05 17:21:09,74.22518642083351
-0.273884,-0.539396,9.844276,-6.823763E-4,-7.298812E-4,4.3900684E-4,3.4166667,-0.26408505,-0.5238723,9.789086,0.009798943,0.01552366,-0.05519056,-0.02977709,0.0029747325,0.3589865,2017-07-05 17:21:10,76.06524478279344
-0.264316,-0.540592,9.8681965,-6.807968E-4,-0.0019299239,4.3151155E-4,4.555556,-0.26616326,-0.52469665,9.788986,-0.0018472536,0.015895342,-0.0792109,-0.029853707,0.0030661242,0.35874957,2017-07-05 17:21:11,76.84827544971218
-0.27508,-0.535808,9.822748,5.867779E-4,0.0029747412,4.1478127E-4,3.4166667,-0.2676554,-0.5248384,9.788937,0.007424597,0.010969613,-0.033811085,-0.029887896,0.0031337624,0.35877445,2017-07-05 17:21:12,75.03830599072708
-0.26551202,-0.53222,9.832316,-0.0018526837,-6.968081E-4,4.2026117E-4,4.555556,-0.26975074,-0.52527225,9.788857,-0.0042387154,0.0069477367,-0.04345862,-0.029946892,0.0032263575,0.35874963,2017-07-05 17:21:13,73.29970428548617
-0.26670802,-0.527436,9.845472,-0.0018156096,-0.0018948093,-8.252561E-4,4.555556,-0.26837388,-0.5277001,9.788764,-0.0016658691,-2.640943E-4,-0.056707393,-0.030038381,0.0031063925,0.35905847,2017-07-05 17:21:14,78.46489703443885
-0.260728,-0.53341603,9.853845,6.343536E-4,-6.72929E-4,4.0818378E-4,3.4166667,-0.2653363,-0.52628857,9.788922,0.0061557097,0.0047354675,-0.05176526,-0.029915333,0.002988362,0.3590375,2017-07-05 17:21:15,72.29421311271842
-0.2691,-0.523848,9.844276,-0.0017905794,-0.0018427074,4.4576824E-4,3.4166667,-0.26942623,-0.5243916,9.788914,0.0056537697,0.005436419,-0.049382165,-0.029898882,0.0032279121,0.35872248,2017-07-05 17:21:16,75.57393769372482
-0.26312,-0.53222,9.833512,-5.159676E-4,6.713569E-4,-7.537417E-4,3.4166667,-0.26309496,-0.52648914,9.788973,2.504311E-5,0.005730872,-0.044539984,-0.029881064,0.0029059974,0.35816336,2017-07-05 17:21:18,72.37202458481318
-0.264316,-0.529828,9.839492,7.261187E-4,7.0659816E-4,-7.125959E-4,3.4166667,-0.26748845,-0.52793956,9.788776,-0.003172438,0.0018884442,-0.050716043,-0.030030115,0.0030933444,0.35801807,2017-07-05 17:21:19,71.4861769524585
-0.2691,-0.529828,9.829925,-5.0261244E-4,-5.1379204E-4,-6.818734E-4,4.555556,-0.2654992,-0.5284324,9.788803,0.003600801,1.995777E-4,-0.043512978,-0.030017462,0.0029871755,0.35809374,2017-07-05 17:21:20,64.52552146479795
-0.26670802,-0.529828,9.832316,7.2979555E-4,7.589236E-4,-0.0018668547,4.555556,-0.26682732,-0.52437663,9.788984,-0.0013152838,0.0054513975,-0.044528294,-0.02984965,0.0031129888,0.35845608,2017-07-05 17:21:21,64.66665390951776
-0.26670802,-0.529828,9.838296,-0.0016920567,-4.4330955E-4,6.092377E-4,3.4166667,-0.26887348,-0.5280196,9.7887335,-0.004557499,0.0018084012,-0.041191258,-0.030060912,0.0031421394,0.3585053,2017-07-05 17:21:22,72.97894728639838
-0.26670802,-0.537004,9.838296,-4.3377653E-4,-4.034117E-4,-5.8704615E-4,4.555556,-0.26698154,-0.5283139,9.78877,-0.0014695063,0.0051021455,-0.03517419,-0.03004001,0.0030493205,0.3584232,2017-07-05 17:21:23,77.12983741804806
-0.267904,-0.52026004,9.8371,0.0020112991,0.002062589,-0.0017828755,4.555556,-0.26606843,-0.5256175,9.788939,0.0018355814,-0.005357472,-0.048161097,-0.029894298,0.0030599355,0.35827535,2017-07-05 17:21:24,75.27078043650019
-0.279864,-0.528632,9.845472,8.348003E-4,-3.2249093E-4,6.8249926E-4,3.4166667,-0.2680748,-0.52530503,9.7889,0.0010252149,-0.0014570304,-0.049395606,-0.029915756,0.0031647545,0.35816392,2017-07-05 17:21:25,74.44653713525994
-0.271492,-0.537004,9.832316,-3.8155913E-4,-2.891943E-4,6.972477E-4,4.555556,-0.2626342,-0.52492493,9.789069,0.008857808,0.012079036,-0.04324702,-0.029798426,0.002909106,0.35827485,2017-07-05 17:21:26,77.445643174329
-0.26312,-0.529828,9.832316,-3.3662096E-4,9.793341E-4,7.023178E-4,4.555556,-0.26832414,-0.52558595,9.78888,-0.00400814,0.011418051,-0.043436408,-0.029933747,0.003171101,0.35817605,2017-07-05 17:21:27,76.80971326000252
-0.276276,-0.534612,9.829925,-3.1919777E-4,-0.0014662221,-4.8582256E-4,4.555556,-0.26867837,-0.52768385,9.788756,0.0075976155,0.006928155,-0.041167878,-0.0300404,0.003147926,0.358228,2017-07-05 17:21:29,75.731953150674
-0.276276,-0.5382,9.833512,-0.0015475191,-2.4869293E-4,7.631369E-4,4.555556,-0.26654655,-0.5278072,9.788809,0.00972944,0.010392873,-0.04470365,-0.030007215,0.0030445983,0.35821447,2017-07-05 17:21:30,76.04496529414651
-0.2691,-0.53341603,9.834708,-0.0015199855,-2.1166354E-4,-4.427731E-4,4.555556,-0.26476514,-0.52816767,9.788838,0.0043348875,0.005248349,-0.04586977,-0.02999306,0.0029402943,0.3586154,2017-07-05 17:21:31,71.63525236299711
-0.27866802,-0.534612,9.821552,-2.753213E-4,0.0010405928,7.7856705E-4,3.4166667,-0.26699993,-0.52672315,9.788854,-0.0050759153,-0.0016791488,-0.04346271,-0.029965758,0.0030674045,0.3587939,2017-07-05 17:21:32,67.55429215625064
-0.260728,-0.539396,9.844276,-2.5194883E-4,-0.002598405,7.806048E-4,3.4166667,-0.2657655,-0.5263012,9.78891,-0.005037483,0.013094825,-0.055367082,-0.029922979,0.00301678,0.3587812,2017-07-05 17:21:33,72.46130808166282
-0.267904,-0.53102404,9.827532,-2.5199726E-4,-1.6523153E-4,7.791817E-4,4.555556,-0.26606327,-0.52693754,9.788868,0.0018407508,0.0040865024,-0.0386632,-0.02995843,0.0030225788,0.358679,2017-07-05 17:21:34,73.70787345426697
-0.2691,-0.52265203,9.8430805,-0.0026639514,-0.0013611391,7.804446E-4,3.4166667,-0.2657395,-0.53055686,9.788682,0.003360526,-0.007904818,-0.054399114,-0.030125204,0.0029385122,0.35875213,2017-07-05 17:21:35,72.00536047118842
-0.272688,-0.535808,9.833512,-0.0014312491,-0.0013367236,0.0019746833,3.4166667,-0.2653101,-0.52523094,9.788981,0.0073778904,0.01057707,-0.044531215,-0.029862607,0.0030248384,0.3584648,2017-07-05 17:21:36,74.07318059328011
-0.259532,-0.523848,9.838296,-0.0014296696,-0.0025498718,7.799193E-4,4.555556,-0.2652114,-0.5296779,9.788744,0.00508461,1.50076E-4,-0.042376667,-0.030072976,0.0029362892,0.3585407,2017-07-05 17:21:37,74.20393097608206
-0.26551202,-0.53102404,9.840688,0.0010087155,0.002309464,7.846691E-4,4.555556,-0.26365745,-0.5240685,9.789087,0.0018545601,0.0069555547,-0.051601008,-0.029776912,0.0029677127,0.35845608,2017-07-05 17:21:39,72.20012276683788
-0.26551202,-0.53222,9.832316,0.0010076016,-1.3844669E-4,7.875562E-4,3.4166667,-0.26786724,-0.52635044,9.78885,-0.0023552214,0.005869586,-0.043466803,-0.02996302,0.0031239337,0.35853198,2017-07-05 17:21:40,73.95337551469935
-0.272688,-0.53341603,9.846668,9.980798E-4,0.0010955334,-4.3462217E-4,4.555556,-0.26599598,-0.52590746,9.788925,0.0066920267,0.0075085857,-0.05774258,-0.02990751,0.0030441259,0.35849547,2017-07-05 17:21:41,72.49165787966496
-0.2691,-0.523848,9.8371,9.869449E-4,0.0010957867,7.783398E-4,3.4166667,-0.2695452,-0.524876,9.788883,-0.0040331646,0.009735979,-0.054198038,-0.029922837,0.0032368544,0.35834354,2017-07-05 17:21:42,76.24974422081036
-0.276276,-0.53222,9.840688,-2.5750324E-4,-1.2885034E-4,-4.5608357E-4,3.4166667,-0.26687366,-0.5250029,9.788951,0.009402327,0.0072171283,-0.051737204,-0.029880041,0.0031066528,0.35836488,2017-07-05 17:21:43,74.66412360766493
-0.271492,-0.519064,9.833512,-0.0014608093,-1.2428313E-4,7.5354055E-4,4.555556,-0.26664305,-0.5275606,9.788818,0.0048489743,-0.00849661,-0.044693712,-0.029996911,0.0030568223,0.35811743,2017-07-05 17:21:44,77.30378623545685
-0.267904,-0.529828,9.850256,-2.1181628E-4,-0.0013286844,-4.701987E-4,3.4166667,-0.26701835,-0.52746,9.788815,0.0032776701,0.0035640858,-0.043501873,-0.030000683,0.0030598866,0.3586352,2017-07-05 17:21:45,75.17514310872298
-0.28106,-0.525044,9.838296,9.833537E-4,0.0011005998,-4.6594813E-4,4.555556,-0.2682086,-0.52891964,9.788702,0.012851408,-0.003875636,-0.049594346,-0.03009076,0.0031024436,0.3582437,2017-07-05 17:21:46,73.76074056525184
-0.26551202,-0.528632,9.832316,-2.5136024E-4,0.0010901466,-4.579574E-4,4.555556,-0.2664847,-0.5286133,9.788767,-9.7269926E-4,1.8668168E-5,-0.043549806,-0.030044341,0.0030285798,0.35816252,2017-07-05 17:21:47,72.23460041912232
-0.264316,-0.52624,9.817965,9.674318E-4,0.0010461435,7.6672435E-4,3.4166667,-0.26793066,-0.5247462,9.788936,-0.0036146468,0.0014938188,-0.029028527,-0.029887425,0.0031591656,0.35844326,2017-07-05 17:21:48,78.29215479548073
-0.271492,-0.521456,9.832316,9.818412E-4,0.0023001581,-4.4265017E-4,4.555556,-0.26650468,-0.525242,9.788947,0.004987342,-0.0037859483,-0.043369185,-0.029884115,0.0030901867,0.35819384,2017-07-05 17:21:49,75.0627928273623
-0.261924,-0.53222,9.8311205,-0.0014558583,-0.0013458207,7.84602E-4,4.555556,-0.26747018,-0.52574104,9.788894,-0.0055461815,0.0064789504,-0.042226445,-0.029926846,0.003114826,0.35857442,2017-07-05 17:21:50,71.0035688342897
-0.261924,-0.537004,9.8430805,-2.2991747E-4,-0.0013731197,7.94325E-4,3.4166667,-0.26827437,-0.5280311,9.788749,-0.006350374,0.008972886,-0.05433248,-0.030049812,0.0031199073,0.35830343,2017-07-05 17:21:51,72.13165328332296
-0.260728,-0.53102404,9.840688,-0.0014400333,-1.5134364E-4,7.990934E-4,4.555556,-0.26473066,-0.52764434,9.788867,-0.00400266,0.0033797056,-0.051821373,-0.029967107,0.002952128,0.35849422,2017-07-05 17:21:52,74.50108373380404
-0.259532,-0.529828,9.833512,-2.2922084E-4,-1.5367568E-4,7.995963E-4,3.4166667,-0.2664178,-0.5279333,9.788805,-0.006885796,0.0018946913,-0.04470774,-0.030010795,0.0030369258,0.35819063,2017-07-05 17:21:53,76.18620412932756
-0.264316,-0.527436,9.845472,9.9691E-4,-1.3546646E-4,-4.228577E-4,3.4166667,-0.26526722,-0.5284165,9.788811,-9.5123635E-4,-9.80499E-4,-0.056661215,-0.030012423,0.0029768047,0.3580818,2017-07-05 17:21:55,77.03975663955539
-0.26670802,-0.52265203,9.833512,-0.0014388189,-0.0013419166,-4.1132048E-4,4.555556,-0.26357818,-0.52789706,9.788884,0.0031298408,-0.005245025,-0.044628248,-0.029956164,0.002912015,0.3578905,2017-07-05 17:21:56,76.99405776457212
-0.2691,-0.537004,9.806005,-0.0014223754,-0.0025449768,7.9961866E-4,4.555556,-0.26689288,-0.52700126,9.788843,0.0022071365,0.010002741,-0.017161563,-0.029973831,0.0030885732,0.35781774,2017-07-05 17:21:57,76.44504238386273
-0.26312,-0.52265203,9.840688,0.002221346,0.0023318678,-4.2612106E-4,3.4166667,-0.26645038,-0.52694404,9.788857,-0.005722378,0.010059951,-0.042263273,-0.02996375,0.0030613544,0.3580417,2017-07-05 17:21:58,75.12170878786338
-0.267904,-0.53222,9.8311205,0.0010165274,0.0011333227,-4.464239E-4,3.4166667,-0.26546925,-0.52564865,9.788954,0.0024347713,0.0065713413,-0.042166825,-0.029883606,0.003042724,0.3579041,2017-07-05 17:21:59,74.44305803815433
-0.2691,-0.52265203,9.835904,9.883903E-4,0.0011099577,-4.411228E-4,4.555556,-0.26588583,-0.52877325,9.7887745,0.0032141947,-0.006121223,-0.04713,-0.030041518,0.0029919741,0.35832292,2017-07-05 17:22:00,73.16790699726577
-0.260728,-0.529828,9.8430805,9.7424537E-4,0.0010928586,-4.3919683E-4,3.4166667,-0.26527593,-0.5258994,9.788945,-0.0045479275,0.0039286083,-0.05413608,-0.029893903,0.0030103524,0.3584842,2017-07-05 17:22:01,74.33509971837323
-0.261924,-0.52624,9.838296,-2.4113059E-4,-1.1473894E-4,-4.2671338E-4,4.555556,-0.2664708,-0.52771723,9.7888155,0.0074132173,0.008090806,-0.0470885,-0.030003397,0.0030242745,0.35878548,2017-07-05 17:22:02,76.60586244586256
-0.267904,-0.537004,9.8311205,0.0010006614,-6.697327E-5,-4.175566E-4,4.555556,-0.26695767,-0.52896684,9.788734,9.4634097E-4,0.008037176,-0.042386606,-0.030071128,0.0030319218,0.35855702,2017-07-05 17:22:03,77.1742851516487
-0.271492,-0.52265203,9.8371,-0.0026743226,-0.0025229082,8.1120804E-4,4.555556,-0.26347622,-0.53045565,9.788749,0.008015786,-0.007803587,-0.048351653,-0.030078422,0.0028376477,0.35859635,2017-07-05 17:22:04,75.83936390722386
-0.270296,-0.5382,9.8371,-2.0809472E-4,-0.0012814552,-3.9149076E-4,4.555556,-0.26541522,-0.52815914,9.78882,0.0048807943,0.010040917,-0.04828034,-0.030004412,0.00297294,0.3585675,2017-07-05 17:22:06,76.69224756806366
-0.27747202,-0.529828,9.828729,-0.0014161319,-4.8547983E-5,8.497089E-4,3.4166667,-0.26510063,-0.5272827,9.788876,0.005195377,0.006133315,-0.055400986,-0.029955937,0.0029835103,0.3582716,2017-07-05 17:22:07,76.35143673247919
-0.26312,-0.527436,9.8311205,0.0022521392,0.0023860782,-0.0015814751,3.4166667,-0.27225065,-0.5298517,9.788542,-0.009130671,-0.0024156463,-0.04257833,-0.030210106,0.0032691953,0.35851118,2017-07-05 17:22:08,75.35310429897298
-0.270296,-0.528632,9.834708,0.0010565594,-1.8551946E-5,8.948259E-4,4.555556,-0.2627333,-0.5280799,9.788896,0.0075627086,5.520444E-4,-0.045812488,-0.02995297,0.0028312851,0.3590479,2017-07-05 17:22:09,74.52605599123261
-0.2691,-0.527436,9.855041,0.0010630339,0.0012430176,-3.293641E-4,3.4166667,-0.26644486,-0.5239261,9.78902,0.002655154,0.0035099443,-0.06602058,-0.02982235,0.0030917,0.35881048,2017-07-05 17:22:10,74.07954508182135
-0.272688,-0.537004,9.835904,-1.23851E-4,-0.0011515021,8.9390576E-4,3.4166667,-0.26744932,-0.5317071,9.788573,0.005238668,0.005296901,-0.047331076,-0.030211236,0.0030000543,0.35871452,2017-07-05 17:22:11,75.39055036401949
-0.267904,-0.53222,9.847864,-1.1110306E-4,-0.0011113063,9.032078E-4,4.555556,-0.2612808,-0.52913445,9.788878,6.4319326E-4,0.003085545,-0.053006783,-0.029974878,0.0027612513,0.35847405,2017-07-05 17:22:12,77.45517995272395
-0.267904,-0.521456,9.838296,-0.0013018064,-0.0022785217,-3.2355264E-4,4.555556,-0.26467466,-0.5240601,9.789061,0.006817334,0.0021799013,-0.04923545,-0.029795898,0.0030088094,0.3586905,2017-07-05 17:22:13,75.00497518839693
-0.264316,-0.523848,9.834708,-0.0012922548,-0.0022533536,8.899309E-4,3.4166667,-0.26579326,-0.5306828,9.788673,-0.0014772512,-0.006834778,-0.046034608,-0.030131802,0.0029427598,0.35862842,2017-07-05 17:22:14,75.62059425538413
-0.273884,-0.527436,9.826336,0.0011213906,1.591295E-4,-3.2614917E-4,4.555556,-0.26853627,-0.5273229,9.78878,0.005347718,1.1314152E-4,-0.03755553,-0.030021217,0.0031418388,0.3584121,2017-07-05 17:22:15,75.25396665319025
-0.2691,-0.52624,9.846668,-1.0913238E-4,1.4673918E-4,8.810982E-4,3.4166667,-0.2696548,-0.52430546,9.788911,-0.006534827,0.012698555,-0.054169983,-0.029898444,0.0032452182,0.3585713,2017-07-05 17:22:16,70.93307148866876
-0.261924,-0.527436,9.846668,0.0011166632,0.0025924742,-3.667362E-4,3.4166667,-0.26736996,-0.5283852,9.788754,-0.005445954,-9.491905E-4,-0.057913262,-0.030051848,0.0030535394,0.35882586,2017-07-05 17:22:17,72.10481900518991
-0.27508,-0.535808,9.8430805,-1.2501702E-4,-0.0011002198,8.551441E-4,4.555556,-0.27010375,-0.5277566,9.788714,0.004976236,0.008051461,-0.054366384,-0.030072441,0.0031911246,0.35895213,2017-07-05 17:22:18,76.13938714715286
-0.267904,-0.535808,9.835904,0.0010965653,1.3406575E-4,-3.6199018E-4,4.555556,-0.26805228,-0.52974033,9.788662,-1.4826763E-4,0.006067666,-0.047242228,-0.030129615,0.0030544673,0.35903394,2017-07-05 17:22:20,76.95704215630032
-0.2691,-0.534612,9.834708,0.0010945909,0.0013546795,-3.418401E-4,4.555556,-0.26689342,-0.5263064,9.788879,0.0022065884,0.008305581,-0.045828857,-0.029944032,0.0030691081,0.3588208,2017-07-05 17:22:21,77.03538256472525
-0.270296,-0.529828,9.840688,-1.4259294E-4,1.224652E-4,-3.504604E-4,3.4166667,-0.2680943,-0.52676564,9.788821,0.0022016931,0.0030623833,-0.051866382,-0.029988194,0.0031153415,0.35889915,2017-07-05 17:22:22,76.03025175065581
-0.28106,-0.53222,9.817965,0.0010378696,5.9187412E-5,-3.125295E-4,4.555556,-0.26946127,-0.5299596,9.788611,0.011598741,0.0022603828,-0.029352352,-0.030164631,0.0031298397,0.35865277,2017-07-05 17:22:23,75.98714782384354
-0.273884,-0.516672,9.841885,-1.8747523E-4,3.9681792E-5,-3.306307E-4,4.555556,-0.26403078,-0.5278842,9.788874,0.009853212,-0.011212153,-0.05301146,-0.029966276,0.0029086606,0.35867348,2017-07-05 17:22:24,72.86466450145
-0.272688,-0.525044,9.832316,-0.001417011,-0.001216881,9.1194734E-4,3.4166667,-0.26549628,-0.52841824,9.788803,0.0047997283,2.1375236E-4,-0.04470891,-0.03001885,0.002965966,0.3587567,2017-07-05 17:22:25,74.42407382121543
-0.264316,-0.53341603,9.851452,-0.0014036745,-0.0024058372,8.910373E-4,3.4166667,-0.265229,-0.52790076,9.788839,0.001479023,0.0043192515,-0.0458686,-0.02998938,0.0029617932,0.35878563,2017-07-05 17:22:26,77.71496364904999
-0.276276,-0.528632,9.8311205,0.0010345541,0.0012540817,8.8084117E-4,4.555556,-0.26595268,-0.52777827,9.788826,0.010323314,8.537308E-4,-0.042294253,-0.029996173,0.0030048518,0.35858768,2017-07-05 17:22:27,74.38141639500952
-0.267904,-0.523848,9.827532,0.0010296851,4.9076974E-5,-3.5580993E-4,3.4166667,-0.2663266,-0.52728134,9.788844,0.0015774054,-0.0034333356,-0.03868775,-0.029978089,0.003044109,0.3582031,2017-07-05 17:22:28,65.58944308429773
-0.272688,-0.519064,9.850256,-0.0014375858,-0.0011898503,8.6765736E-4,3.4166667,-0.2681994,-0.5267754,9.788818,0.0044885804,-0.0077114515,-0.061436757,-0.029988576,0.0031394619,0.35829878,2017-07-05 17:22:29,74.74391174101363
-0.2691,-0.53222,9.840688,0.002212204,0.0024676993,-0.0015476383,4.555556,-0.27298012,-0.5254746,9.788756,-0.0026841245,-4.3060997E-4,-0.03638298,-0.030014185,0.0033900794,0.35832393,2017-07-05 17:22:30,76.69928782710603
-0.2691,-0.53341603,9.823944,0.0010003,0.0012540519,-3.4519285E-4,4.555556,-0.26597422,-0.5268349,9.788876,0.0031257856,0.0065810955,-0.035067808,-0.029951274,0.0030264882,0.35848373,2017-07-05 17:22:32,77.18155885340366
-0.27866802,-0.53341603,9.851452,-2.0982325E-4,-0.001183711,-3.4034625E-4,3.4166667,-0.2689687,-0.5256975,9.788856,0.009699319,0.007718502,-0.06259587,-0.029952874,0.0031808577,0.3587646,2017-07-05 17:22:33,71.05969215048
-0.276276,-0.535808,9.845472,0.0022444576,0.0012801439,-0.00154306,4.555556,-0.26934817,-0.5296902,9.788631,0.0069278083,0.0061178254,-0.056840662,-0.030149776,0.0031288264,0.35867023,2017-07-05 17:22:34,70.90749488239983
-0.038272,-0.387504,9.772516,-0.0026570149,-0.0023951307,9.5301867E-4,3.4166667,-0.09955516,-0.56987065,9.789573,0.3190449,-0.27087066,0.026624972,-0.028949976,-0.005712543,0.3593828,2017-07-05 17:22:35,75.93713586913861
-0.271492,-0.53341603,9.870588,-2.0956993E-4,0.001292102,-1.9034743E-4,4.555556,-0.26342985,-0.53520876,9.788491,0.008062164,-5.967603E-4,-0.0988409,-0.030301265,0.0027793816,0.35764226,2017-07-05 17:22:36,76.96879285664785
-0.260728,-0.542984,9.862216,-2.1069124E-4,8.1293285E-5,-1.2598187E-4,3.4166667,-0.27017844,-0.5278799,9.788705,0.012077556,0.009124095,-0.061550155,-0.030076543,0.0032219142,0.35803717,2017-07-05 17:22:37,73.42492619244072
-0.273884,-0.527436,9.838296,-0.0014437139,-0.0035692453,0.0011466742,3.4166667,-0.26532856,-0.5305365,9.788694,0.008555446,-0.0031004504,-0.04960136,-0.030114517,0.0029417605,0.358057,2017-07-05 17:22:38,68.43426809363956
-0.273884,-0.539396,9.852648,-2.3348257E-4,5.8680773E-5,-0.0012477189,4.555556,-0.2701592,-0.5277543,9.7887125,0.0037247746,0.011641704,-0.06393442,-0.030069541,0.0032294726,0.3578455,2017-07-05 17:22:39,70.65086996393343
-0.279864,-0.529828,9.851452,-0.001452975,-0.0023842305,-9.778887E-6,3.4166667,-0.27214357,-0.52937275,9.788571,0.0029364005,4.552695E-4,-0.05690087,-0.030184647,0.0032790503,0.35832,2017-07-05 17:22:40,76.50828778937806
-0.27747202,-0.53222,9.847864,9.820238E-4,0.0012695789,-0.0012085289,4.555556,-0.26636216,-0.53089833,9.788646,0.011109862,0.0013216771,-0.059217915,-0.030152474,0.0029661465,0.35862067,2017-07-05 17:22:41,71.19586985010187
-0.270296,-0.52624,9.839492,-2.4497882E-4,-0.0011627823,2.585724E-5,4.555556,-0.2688389,-0.53054994,9.788597,0.0014571035,-0.0043099723,-0.050894905,-0.030183077,0.0030725687,0.35917297,2017-07-05 17:22:42,71.6444758436064
-0.264316,-0.525044,9.841885,9.768121E-4,0.0013108552,-0.0011918098,3.4166667,-0.2707297,-0.52643335,9.788767,-0.004021675,-1.9336714E-4,-0.06388006,-0.030020848,0.0032453926,0.3589453,2017-07-05 17:22:43,71.71840543926243
-0.273884,-0.542984,9.850256,-2.3011863E-4,1.3048202E-4,3.5423785E-5,3.4166667,-0.26852378,-0.52886075,9.788697,-0.004207772,-0.010992738,-0.051990885,-0.030097093,0.0030857928,0.3592585,2017-07-05 17:22:44,76.60805737563916
-0.267904,-0.53102404,9.844276,-2.3730844E-4,1.1134893E-4,5.0127506E-5,4.555556,-0.27119726,-0.5268304,9.788734,-0.0032932512,0.0041936524,-0.05554244,-0.030049492,0.003249743,0.3592753,2017-07-05 17:22:45,74.70169913133124
-0.27747202,-0.528632,9.847864,-0.0015033074,0.0012940615,6.346032E-5,3.4166667,-0.27223828,-0.5286721,9.788606,0.0052337362,-4.0076284E-5,-0.059258245,-0.030156696,0.0032622805,0.3593749,2017-07-05 17:22:46,73.27692007297874
-0.264316,-0.53102404,9.838296,9.454526E-4,0.0012941882,-0.0011503138,4.555556,-0.26813808,-0.52934515,9.788683,0.002157927,-7.131533E-4,-0.04482991,-0.030112276,0.003066571,0.35900998,2017-07-05 17:22:47,74.72841897069384
-0.26312,-0.527436,9.847864,-0.0027017258,-0.0023495406,0.0012895167,3.4166667,-0.2663853,-0.52859575,9.788772,-0.0032653038,-0.0011596915,-0.059092242,-0.0300441,0.003000038,0.35891193,2017-07-05 17:22:48,74.02874051912067
-0.2691,-0.535808,9.829925,-2.5389716E-4,-0.0011398494,6.115064E-5,4.555556,-0.26655367,-0.5312187,9.788624,0.0025463419,0.0045893374,-0.04130115,-0.030171344,0.0029684468,0.35865006,2017-07-05 17:22:49,73.33714685342285
-0.267904,-0.53341603,9.832316,9.5549226E-4,0.0013020486,-0.0011828095,4.555556,-0.26818478,-0.52534217,9.788897,9.152517E-4,0.0044858404,-0.060163084,-0.029922355,0.0031425918,0.35899714,2017-07-05 17:22:50,73.15131870037575
-0.270296,-0.53222,9.8371,9.57977E-4,0.0013018847,3.2592565E-5,3.4166667,-0.26637274,-0.5303721,9.788673,0.0015312647,0.010219927,-0.046034608,-0.03012727,0.0029795,0.35852122,2017-07-05 17:22:51,76.90273507634845
-0.27747202,-0.535808,9.8371,-0.002728708,-0.0011545867,5.207956E-6,3.4166667,-0.27056134,-0.525513,9.788821,0.0069106747,0.010295038,-0.04827917,-0.029973492,0.003258062,0.35882664,2017-07-05 17:22:53,75.8065849113669
-0.27508,-0.529828,9.826336,-2.75556E-4,-0.0011163354,-1.3034791E-5,3.4166667,-0.26748595,-0.5250147,9.788934,0.0075940355,0.0048133186,-0.037402388,-0.029894821,0.0031067785,0.35926402,2017-07-05 17:22:54,75.9473725799859
-0.270296,-0.53222,9.835904,-0.001501333,7.2054565E-5,0.0011987425,3.4166667,-0.26686728,-0.52592057,9.7889,0.0034287325,0.0062994654,-0.047003742,-0.029925164,0.0030749792,0.35881937,2017-07-05 17:22:55,74.06789443417529
-0.25714,-0.51428,9.8311205,9.630509E-4,0.0013285503,-0.0012601055,4.555556,-0.26851815,-0.52347463,9.788987,-0.011378139,-0.0091946395,-0.042133506,-0.029838374,0.0032030714,0.3586727,2017-07-05 17:22:56,74.47634954250019
-0.27866802,-0.52624,9.839492,-2.2552535E-4,-0.0010823235,0.0011496544,3.4166667,-0.2664583,-0.52812016,9.788793,0.0122097125,-0.0018801512,-0.050699092,-0.030022947,0.0030105363,0.35896453,2017-07-05 17:22:57,74.3200601994561
-0.270296,-0.528632,9.855041,0.0010045357,0.0013506114,-0.0012920983,4.555556,-0.5844643,-0.46082285,9.778367,-0.30460033,0.06063315,-0.0683008,-0.03252828,0.019596653,0.3528776,2017-07-05 17:22:58,72.98558809072725
-0.271492,-0.539396,9.850256,-2.2630766E-4,1.02095306E-4,-0.0012583919,3.4166667,-0.2782662,-0.5260528,9.788577,-0.0067741703,0.013343247,-0.061678752,-0.030124454,0.0037461086,0.35476243,2017-07-05 17:22:59,66.38658131560278
-0.28106,-0.535808,9.846668,-0.0014454015,1.3062358E-4,-3.5647303E-5,4.555556,-0.26990554,-0.52718514,9.788751,0.011154468,0.008622903,-0.057917353,-0.030031309,0.0032873703,0.35599345,2017-07-05 17:23:00,73.21129005837443
-0.276276,-0.52624,9.840688,0.0021926127,0.0025312677,-0.0012300014,3.4166667,-0.2705996,-0.5263089,9.788778,0.005676402,-6.890052E-5,-0.051909637,-0.03000644,0.0032973876,0.3572068,2017-07-05 17:23:01,73.91216897616127
-0.271492,-0.539396,9.845472,-0.0014486946,-0.0022898987,0.0011884645,3.4166667,-0.26876917,-0.52821255,9.788727,0.0027228491,0.011183475,-0.056745388,-0.03006604,0.0031542445,0.35786584,2017-07-05 17:23:02,76.124159006062
-0.267904,-0.528632,9.8371,9.752512E-4,0.0025780648,-1.9021332E-5,3.4166667,-0.26828977,-0.5268245,9.788814,-3.8576618E-4,0.0018075244,-0.04828677,-0.02999294,0.003139301,0.3584097,2017-07-05 17:23:04,73.9738028588842
-0.26312,-0.523848,9.833512,0.0021879189,0.0025816709,-0.00125039,4.555556,-0.26922727,-0.52731466,9.788761,0.0010687253,-0.00107468,-0.05551555,-0.030033886,0.0031710288,0.358532,2017-07-05 17:23:05,66.91084167110088
-0.26670802,-0.53102404,9.840688,9.501092E-4,0.0013019815,-2.039224E-5,4.555556,-0.27075177,-0.52587503,9.788798,-0.004043759,0.005149017,-0.051889762,-0.02999414,0.0032613534,0.3587999,2017-07-05 17:23:06,70.1001575717504
-0.2691,-0.53222,9.829925,-0.001459986,-0.0011125505,-6.6645443E-6,4.555556,-0.26752812,-0.5291993,9.788707,0.0015719072,0.0030207362,-0.04121756,-0.030093545,0.0030460574,0.35882878,2017-07-05 17:23:07,76.56077699213955
-0.276276,-0.529828,9.8371,-2.2779405E-4,-0.0011055097,5.621463E-6,3.4166667,-0.26887077,-0.5297961,9.788637,0.007405217,3.1856445E-5,-0.04846271,-0.030145938,0.0031055221,0.35862803,2017-07-05 17:23:08,77.96942065287374
-0.271492,-0.523848,9.8430805,-0.0026801564,1.2631714E-4,0.0012317002,4.555556,-0.26680502,-0.5287624,9.78875,0.004686989,0.0034575933,-0.065094694,-0.030059472,0.0030196477,0.35882857,2017-07-05 17:23:09,76.09246069601255
-0.27747202,-0.528632,9.847864,9.802282E-4,1.348257E-4,4.488975E-6,4.555556,-0.26894364,-0.52911794,9.7886715,0.008528375,-4.859569E-4,-0.059192196,-0.03011567,0.0031144845,0.35884258,2017-07-05 17:23:10,76.17750862255606
-0.26551202,-0.52624,9.838296,9.782687E-4,0.0013464838,-0.0012221411,3.4166667,-0.26806766,-0.5285486,9.788728,-0.002555621,-0.0023086057,-0.049568627,-0.030072512,0.0030828728,0.3588533,2017-07-05 17:23:11,75.69718743654015
-0.27866802,-0.53102404,9.82514,-0.0014445297,1.4865398E-4,-2.0079315E-5,4.555556,-0.26641673,-0.5293796,9.788727,0.012251305,0.0016444428,-0.036413375,-0.030082801,0.002979385,0.3591532,2017-07-05 17:23:12,74.07946323042465
-0.270296,-0.53341603,9.838296,0.0010018721,0.0013628528,-1.3813376E-5,4.555556,-0.27152354,-0.5310102,9.788499,-0.01199154,-0.0059661786,-0.055778585,-0.030253759,0.0031967743,0.3590229,2017-07-05 17:23:13,74.957999401896
-0.264316,-0.534612,9.847864,9.980686E-4,0.00134895,-0.0012276135,4.555556,-0.26676944,-0.5230935,9.789056,-0.0012574162,0.013910489,-0.052829675,-0.029788576,0.0031228915,0.35879523,2017-07-05 17:23:15,74.98263491078328
-0.264316,-0.534612,9.846668,-2.1116063E-4,1.0089576E-4,-1.1246651E-5,4.555556,-0.27081746,-0.5275137,9.788707,-0.0065014544,0.007098324,-0.057960607,-0.030072631,0.0032418703,0.3585699,2017-07-05 17:23:16,74.36040748278275
-0.271492,-0.525044,9.8371,-1.8979609E-4,0.0013546571,-1.4979392E-5,4.555556,-0.265167,-0.5267937,9.7889,0.00632502,-0.0017496932,-0.048199676,-0.02993598,0.0029742068,0.35893887,2017-07-05 17:23:17,72.77564373234779
-0.270296,-0.527436,9.847864,-0.002618719,-0.0035074055,0.0012014508,3.4166667,-0.26678544,-0.53011316,9.788678,-0.006057437,-0.0050691566,-0.04244272,-0.030123033,0.0029984452,0.35868979,2017-07-05 17:23:18,75.43670271335516
-0.271492,-0.527436,9.832316,-1.8040836E-4,1.4050305E-4,-0.0012420043,3.4166667,-0.26919934,-0.5259675,9.788834,-0.0048833517,0.0014685382,-0.05424714,-0.029969612,0.0031902369,0.3586605,2017-07-05 17:23:19,76.8962728938319
-0.26670802,-0.52624,9.8430805,-1.6791001E-4,-0.0010840669,0.0011769943,3.4166667,-0.2675793,-0.52584785,9.788886,-8.712847E-4,3.9214114E-4,-0.054194532,-0.029933278,0.0031243607,0.35837817,2017-07-05 17:23:20,76.29354620610292
-0.27508,-0.527436,9.833512,-2.1595135E-4,0.0012988076,-4.2755157E-5,3.4166667,-0.26691243,-0.5268037,9.788853,0.0081675425,6.323431E-4,-0.044659812,-0.029967595,0.0030656278,0.3586737,2017-07-05 17:23:22,75.68571907909909
-0.261924,-0.53341603,9.847864,-2.1476671E-4,8.589029E-5,-4.544109E-5,4.555556,-0.270562,-0.52873796,9.788649,9.3001086E-4,-0.0048899273,-0.060410924,-0.03012517,0.0032178545,0.35824278,2017-07-05 17:23:23,74.65272573116788
-0.270296,-0.540592,9.840688,-2.3302436E-4,5.3182244E-5,0.001160372,3.4166667,-0.26711398,-0.52746403,9.788812,0.0031820093,0.01312796,-0.051876318,-0.030001815,0.0030723424,0.3583871,2017-07-05 17:23:24,66.3254935013671
-0.258336,-0.53102404,9.840688,9.6260756E-4,0.0012408495,0.0011568703,4.555556,-0.27043316,-0.52319545,9.788949,-0.012097156,0.007828611,-0.051738955,-0.02985828,0.0033163405,0.3581418,2017-07-05 17:23:25,68.82801268340214
-0.273884,-0.52265203,9.8371,-0.0014865138,-0.0024304688,0.0011571646,4.555556,-0.26984176,-0.52900326,9.788654,0.004042243,-0.0063511957,-0.048446342,-0.030125046,0.0031747904,0.35836408,2017-07-05 17:23:26,74.43301659036945
-0.273884,-0.527436,9.829925,9.2888996E-4,0.0024205968,-0.002489198,3.4166667,-0.271563,-0.5268957,9.78872,0.0023210086,5.4031744E-4,-0.041204117,-0.030056544,0.003291377,0.35848618,2017-07-05 17:23:27,76.64611903880757
-0.270296,-0.5382,9.8371,9.581372E-4,0.0012309924,-8.1554055E-5,3.4166667,-0.27049688,-0.5284786,9.788663,-2.0085633E-4,0.009721439,-0.048437577,-0.03011391,0.0031979969,0.3589089,2017-07-05 17:23:28,76.87421661479063
-0.271492,-0.535808,9.839492,-2.5101006E-4,7.741153E-6,-9.684265E-5,3.4166667,-0.26777053,-0.52577996,9.788884,0.0037214684,0.010028058,-0.050607905,-0.02993478,0.0031228985,0.35874626,2017-07-05 17:23:29,75.55544726327714
-0.273884,-0.53222,9.832316,-2.4073198E-4,0.0012200251,-9.1575086E-5,4.555556,-0.2669612,-0.5258112,9.788904,0.0069228034,0.006408808,-0.043412443,-0.029920842,0.0030895164,0.35856798,2017-07-05 17:23:30,76.50470867515087
-0.272688,-0.539396,9.8371,-2.1742657E-4,-0.0012015626,-9.706244E-5,4.555556,-0.26866785,-0.52752405,9.788765,0.004020159,0.011871932,-0.048335284,-0.030033221,0.0031443555,0.3584141,2017-07-05 17:23:31,77.38805334593896
-0.27747202,-0.53102404,9.829925,-2.2049621E-4,5.841255E-6,0.0011324324,4.555556,-0.26669472,-0.5268298,9.788857,0.010777287,0.0041942736,-0.041066755,-0.029963434,0.0030686166,0.358243,2017-07-05 17:23:33,72.33214979145633
-0.272688,-0.534612,9.822748,-0.0014278367,-0.0024120286,-1.05693936E-4,3.4166667,-0.26765612,-0.5276599,9.788786,0.005031875,0.006952121,-0.033961892,-0.030021902,0.0030865378,0.35863674,2017-07-05 17:23:34,70.98248302562749
-0.26670802,-0.528632,9.838296,0.0010044686,0.0012555793,-1.1846796E-4,4.555556,-0.26859593,-0.5271941,9.788786,-0.0018879327,0.0014379239,-0.049510173,-0.030016018,0.0031484622,0.3583678,2017-07-05 17:23:35,69.35672751768118
-0.267904,-0.52265203,9.8311205,-2.3214892E-4,3.0726194E-5,-1.151748E-4,3.4166667,-0.2702962,-0.52620465,9.788793,0.0059798053,0.0072113927,-0.049503744,-0.030000472,0.003243089,0.35850564,2017-07-05 17:23:36,75.52286910325105
-0.258336,-0.517868,9.821552,9.785555E-4,2.156943E-5,-9.376183E-5,4.555556,-0.26974013,-0.5253539,9.788854,-0.011404114,-0.0074859355,-0.03269874,-0.029948805,0.003240881,0.35823485,2017-07-05 17:23:37,69.74398469692026
-0.272688,-0.53102404,9.832316,-2.610311E-4,1.5005469E-5,-1.0125339E-4,3.4166667,-0.2704072,-0.5281077,9.788687,0.0022807862,0.0029163624,-0.0436293,-0.030093249,0.0032130966,0.3585193,2017-07-05 17:23:38,75.37144265152516
-0.271492,-0.525044,9.8430805,-0.001503218,-0.00123927,0.0011074878,3.4166667,-0.2695756,-0.523721,9.788945,0.0019164098,0.0013230288,-0.05413608,-0.029868867,0.0032546313,0.35849372,2017-07-05 17:23:39,74.02003457253875
-0.27747202,-0.521456,9.826336,-2.8931722E-4,-0.0012467131,-1.353547E-4,4.555556,-0.2674231,-0.52868164,9.788737,4.8093367E-4,-0.0060295626,-0.05553952,-0.030066084,0.0030590827,0.35856378,2017-07-05 17:23:40,74.42959381205173
-0.267904,-0.529828,9.81318,-2.725795E-4,-0.0012209713,0.0010609403,4.555556,-0.2657225,-0.52620536,9.788918,0.0021814904,0.0036226476,-0.02426292,-0.029916788,0.003024767,0.3585231,2017-07-05 17:23:41,78.32733934619813
-0.270296,-0.52026004,9.833512,9.3323365E-4,0.0012127236,-0.0013918057,4.555556,-0.2696952,-0.5281298,9.788705,6.0081546E-4,-0.007869784,-0.04480711,-0.030080814,0.0031830214,0.3583881,2017-07-05 17:23:42,73.26370830161363
-0.264316,-0.525044,9.835904,-3.1590834E-4,-0.0012546405,-1.8243864E-4,4.555556,-0.2650816,-0.5247341,9.789012,-7.656141E-4,3.0994273E-4,-0.0468921,-0.029834287,0.0030275611,0.35832384,2017-07-05 17:23:43,68.97236668469856
-0.26670802,-0.525044,9.828729,-3.3695996E-4,-6.444007E-5,-1.979433E-4,3.4166667,-0.2697526,-0.5258896,9.788824,-0.009024598,-0.0020415522,-0.047080316,-0.029974181,0.0032352258,0.35812435,2017-07-05 17:23:44,72.52137264422457
-0.260728,-0.527436,9.8371,8.4398314E-4,0.00111036,-2.6949495E-4,3.4166667,-0.2709014,-0.5256781,9.788804,-0.010173421,0.0017579496,-0.048296124,-0.029986609,0.003280234,0.35854638,2017-07-05 17:23:46,70.3943065457107
-0.2691,-0.53102404,9.828729,-0.0016332492,-1.7786026E-4,9.160079E-4,4.555556,-0.26483458,-0.5257422,9.788966,0.0042654206,0.005281886,-0.039762102,-0.029879404,0.002981414,0.35882163,2017-07-05 17:23:47,72.42428547888127
-0.264316,-0.525044,9.8371,-4.3943897E-4,9.951517E-4,0.0020936541,3.4166667,-0.2671011,-0.5267176,9.788852,-0.0027851008,-0.0016735957,-0.048248775,-0.029968979,0.0030563693,0.3592905,2017-07-05 17:23:48,76.17006305217292
-0.26551202,-0.52624,9.8371,-4.3787807E-4,9.681508E-4,8.2044303E-4,4.555556,-0.2631774,-0.5234748,9.789132,0.014294611,0.008745179,-0.07069208,-0.02974149,0.0029389663,0.35898173,2017-07-05 17:23:49,77.79131200406611
-0.26670802,-0.528632,9.840688,-4.4530258E-4,-0.0015002862,7.844083E-4,4.555556,-0.26745754,-0.5270081,9.788827,-7.495215E-4,0.0016238749,-0.051861122,-0.029987294,0.003088145,0.35866398,2017-07-05 17:23:50,75.96402422722532
-0.261924,-0.517868,9.838296,0.0019508004,0.003343463,-4.6101213E-4,4.555556,-0.27014762,-0.5268782,9.78876,-0.00822362,-0.0090101855,-0.049535893,-0.03003065,0.0032162417,0.35873693,2017-07-05 17:23:51,73.26542418065306
-0.273884,-0.534612,9.838296,-5.4833665E-4,8.3679706E-4,0.0019470192,4.555556,-0.2693165,-0.51995057,9.789152,0.004567509,0.014661416,-0.04914368,-0.029684952,0.0033066724,0.35863966,2017-07-05 17:23:52,76.7231055594179
-0.259532,-0.52265203,9.827532,6.36328E-4,0.001999326,-4.9991906E-4,3.4166667,-0.26767093,-0.5220915,9.789084,0.0074090706,0.007736476,-0.043232407,-0.029757177,0.003185835,0.3587428,2017-07-05 17:23:53,75.47510774535459
-0.271492,-0.529828,9.8430805,-5.8281794E-4,-0.0016762167,7.0186704E-4,3.4166667,-0.26816747,-0.524526,9.78894,0.0033245413,0.0053020157,-0.054140173,-0.029880797,0.0031788917,0.35830522,2017-07-05 17:23:54,70.9730135441853
-0.260728,-0.53102404,9.839492,6.168671E-4,-4.8799813E-4,-5.2829087E-4,3.4166667,-0.2654796,-0.52490693,9.788994,-0.0047515784,0.006117095,-0.0504986,-0.029850146,0.003040061,0.35842657,2017-07-05 17:23:56,70.96548211130539
-0.259532,-0.53222,9.833512,-0.001816228,-0.0029447004,6.722212E-4,3.4166667,-0.2670407,-0.524935,9.78895,-0.0075087138,0.007285006,-0.04456278,-0.029880047,0.003114108,0.35841924,2017-07-05 17:23:57,75.26359998166453
-0.267904,-0.52026004,9.833512,-6.0383603E-4,7.0089847E-4,6.635189E-4,4.555556,-0.26865032,-0.5223704,9.789043,-0.016294334,0.007457586,-0.02533318,-0.029786896,0.0032413662,0.3583038,2017-07-05 17:23:58,73.58719777230166
-0.264316,-0.523848,9.840688,-5.966127E-4,-0.001729846,0.0018662065,3.4166667,-0.26499337,-0.52328026,9.789094,-6.7736953E-4,5.6775345E-4,-0.051593993,-0.029764216,0.0030417778,0.35858035,2017-07-05 17:23:59,74.04707790259184
-0.258336,-0.52624,9.859824,0.0018660389,0.0019250512,-5.7928264E-4,3.4166667,-0.27004272,-0.527392,9.788734,-0.0069227302,0.003632,-0.04238602,-0.030054253,0.0031920818,0.35903966,2017-07-05 17:24:00,75.684010159648
-0.282256,-0.53222,9.827532,6.4573064E-4,0.0018954352,6.291419E-4,3.4166667,-0.2694149,-0.5248262,9.788891,0.012841105,0.0073938,-0.038640406,-0.029919002,0.0032229805,0.3586112,2017-07-05 17:24:01,72.26345013929908
-0.271492,-0.521456,9.820356,6.4475834E-4,6.803125E-4,-6.1202794E-4,3.4166667,-0.27124977,-0.5293449,9.788596,2.4222952E-4,-0.00788889,-0.03175941,-0.03016685,0.00323801,0.35828885,2017-07-05 17:24:02,75.71375541549514
-0.271492,-0.53102404,9.839492,6.730817E-4,-5.048737E-4,-6.4116716E-4,4.555556,-0.2651478,-0.5275518,9.788859,0.006344218,0.0034722793,-0.050632454,-0.029970137,0.0029756841,0.3584319,2017-07-05 17:24:03,76.74906549956606
-0.27747202,-0.525044,9.820356,6.6838413E-4,-0.0017403886,5.6191534E-4,4.555556,-0.26634094,-0.5274947,9.788832,0.011131069,-0.002450681,-0.031524435,-0.029990189,0.0030244065,0.35871592,2017-07-05 17:24:05,77.82424562615432
-0.264316,-0.523848,9.846668,6.195009E-4,6.4934045E-4,-6.725192E-4,3.4166667,-0.2701331,-0.52731574,9.788737,-0.005817107,-0.0034677128,-0.057930797,-0.030050293,0.003216351,0.35846323,2017-07-05 17:24:06,74.73677643283166
-0.270296,-0.537004,9.834708,5.9349835E-4,-5.9919804E-4,-6.768666E-4,4.555556,-0.2691533,-0.528335,9.788709,0.0011427221,0.008669008,-0.04600012,-0.030079871,0.0031610876,0.3581516,2017-07-05 17:24:07,74.86342782383733
-0.26551202,-0.52265203,9.829925,-0.0018297993,-6.0058385E-4,5.283728E-4,4.555556,-0.2690933,-0.5296247,9.788642,0.0059866915,0.0037913187,-0.05085048,-0.030140696,0.0031303267,0.3582853,2017-07-05 17:24:08,76.90346147533896
-0.26670802,-0.53341603,9.844276,-6.498173E-4,-6.343201E-4,5.5020675E-4,3.4166667,-0.27259508,-0.5261201,9.788733,-0.005887067,0.0072958926,-0.055544194,-0.030038284,0.0033565185,0.35843006,2017-07-05 17:24:09,73.52228395874727
-0.264316,-0.523848,9.853845,-6.7888945E-4,-6.30565E-4,-7.010773E-4,3.4166667,-0.2662629,-0.5298171,9.788707,0.0016411366,-0.00477306,-0.056764673,-0.030097773,0.002994836,0.3581986,2017-07-05 17:24:10,74.33630465975918
-0.26551202,-0.528632,9.767733,-6.8783015E-4,0.001810208,-6.842166E-4,4.555556,-0.2690653,-0.5250914,9.788886,-0.003553272,0.0035405953,0.021153264,-0.029924627,0.00320715,0.35843444,2017-07-05 17:24:11,76.44944766828658
-0.26670802,-0.52624,9.8371,5.289987E-4,0.003034301,-7.074438E-4,3.4166667,-0.26936138,-0.5222532,9.78903,-0.0026533823,0.003986768,-0.048070498,-0.029793836,0.003281828,0.35816404,2017-07-05 17:24:12,66.697050442794
-0.267904,-0.534612,9.845472,-7.117018E-4,-6.7489594E-4,5.3493306E-4,3.4166667,-0.26671278,-0.5278826,9.788801,0.0011912191,0.006729418,-0.05667057,-0.030013474,0.0030548435,0.35809916,2017-07-05 17:24:13,72.66456868145391
-0.272688,-0.527436,9.82514,5.1004067E-4,5.6420267E-4,-6.845705E-4,4.555556,-0.26647222,-0.524158,9.789006,0.0062157875,0.0032779989,-0.036133975,-0.029833006,0.0030974206,0.35853937,2017-07-05 17:24:14,74.10584609178314
-0.273884,-0.525044,9.839492,5.1725656E-4,-6.526038E-4,5.1159784E-4,4.555556,-0.26659927,-0.526662,9.788868,0.007284732,-0.0016179931,-0.05062369,-0.029955022,0.0030541231,0.35864848,2017-07-05 17:24:16,72.26985927419611
-0.26670802,-0.519064,9.8311205,5.707629E-4,6.059408E-4,4.9543753E-4,4.555556,-0.26741847,-0.52651095,9.788855,-7.104681E-4,-0.007446955,-0.04226561,-0.029962823,0.0030959938,0.3586452,2017-07-05 17:24:17,75.76957889228952
-0.272688,-0.52265203,9.839492,-0.0018734559,-0.0030593053,4.897192E-4,4.555556,-0.2678819,-0.5256964,9.788886,0.004806085,-0.0030443727,-0.05060557,-0.029930575,0.0031512915,0.3580742,2017-07-05 17:24:18,76.64336874396368
-0.270296,-0.529828,9.835904,5.44142E-4,0.001798898,-7.379763E-4,3.4166667,-0.26963517,-0.52157223,9.789059,0.0018568434,0.005863814,-0.03488485,-0.029766819,0.003303418,0.35828632,2017-07-05 17:24:19,76.03912116864444
-0.27508,-0.53222,9.834708,-0.0019201674,-0.0031149387,-7.3256716E-4,3.4166667,-0.2672248,-0.52573216,9.788901,0.007855207,0.006487864,-0.045806643,-0.029919906,0.0031227302,0.35796863,2017-07-05 17:24:20,74.6769324382675
-0.255944,-0.523848,9.823944,5.171746E-4,5.5556744E-4,-7.1004406E-4,4.555556,-0.2684624,-0.51946837,9.789202,-0.0017543695,0.0043796767,-0.04789806,-0.029643755,0.0032979916,0.35791093,2017-07-05 17:24:21,74.56559731453248
-0.261924,-0.528632,9.8371,-6.960295E-4,5.8685243E-4,5.081147E-4,4.555556,-0.26783788,-0.52646625,9.788845,-0.005913864,0.0021657266,-0.048255205,-0.029965734,0.0031421205,0.35785607,2017-07-05 17:24:22,73.62425916417368
-0.276276,-0.52624,9.833512,-0.0019080527,-0.0018596351,5.0875545E-4,3.4166667,-0.26940253,-0.52359724,9.788957,0.006873448,0.0026427696,-0.044555765,-0.029858394,0.003261561,0.35809046,2017-07-05 17:24:23,72.896855438842
-0.272688,-0.521456,9.850256,-6.55435E-4,-6.0111284E-4,4.891716E-4,3.4166667,-0.26431113,-0.52098095,9.789234,0.008376875,4.7503365E-4,-0.061021164,-0.029642092,0.0030519166,0.35856405,2017-07-05 17:24:25,72.4984845228494
-0.273884,-0.52624,9.838296,-0.001872208,-0.0017977282,0.0017180964,4.555556,-0.26799288,-0.5274868,9.788787,-8.888386E-5,-5.074381E-5,-0.049509004,-0.030019738,0.0031065715,0.35861093,2017-07-05 17:24:26,78.52025987533023
-0.271492,-0.52265203,9.840688,-6.682761E-4,-0.0017929375,4.930757E-4,4.555556,-0.26750198,-0.5272214,9.788814,0.003990038,-0.004569354,-0.051873982,-0.029996814,0.0031004925,0.3582242,2017-07-05 17:24:27,77.64711312028153
-0.26312,-0.528632,9.8430805,-6.6307187E-4,-5.6713074E-4,4.7286227E-4,4.555556,-0.26657957,-0.52573574,9.7889185,-0.0034595842,0.0028962696,-0.054162383,-0.029910618,0.0030691796,0.35867873,2017-07-05 17:24:28,75.65493155947851
-0.2691,-0.52265203,9.846668,-6.299354E-4,-0.0017648116,4.5497343E-4,4.555556,-0.26329482,-0.5264425,9.78897,0.0058051976,-0.0037904785,-0.057698157,-0.029885082,0.0028897931,0.358993,2017-07-05 17:24:29,65.31328638077048
-0.261924,-0.52026004,9.833512,-6.384067E-4,-5.4337084E-4,4.5550242E-4,3.4166667,-0.2690083,-0.5239963,9.788947,-0.0023002946,0.0010477189,-0.05054536,-0.029872252,0.003216512,0.35868335,2017-07-05 17:24:30,64.12077233341253
-0.2691,-0.52624,9.833512,-0.0018856972,-5.722344E-4,4.8808008E-4,4.555556,-0.26794165,-0.5256199,9.788889,0.0011583581,6.200681E-4,-0.044623572,-0.029928993,0.0031463034,0.35836202,2017-07-05 17:24:31,70.6552663017643
-0.270296,-0.53222,9.835904,-0.0019007251,-0.0018383339,4.8844516E-4,3.4166667,-0.27088514,-0.52239823,9.78898,-5.8914325E-4,0.009821758,-0.046924833,-0.029828286,0.0033548197,0.3580674,2017-07-05 17:24:32,76.50246672616151
-0.270296,-0.52624,9.826336,0.0029888935,0.001816608,-0.0019629449,4.555556,-0.26809528,-0.5273409,9.788792,-1.9126653E-4,-0.004688852,-0.036348496,-0.030013386,0.0031264122,0.35822865,2017-07-05 17:24:33,74.78840406591215
-0.264316,-0.529828,9.835904,4.921034E-4,-0.0018783584,0.0017257631,4.555556,-0.26645333,-0.5275472,9.788825,-0.0021373408,0.0022808409,-0.04707973,-0.029993622,0.003039962,0.35836855,2017-07-05 17:24:34,76.71307444742611
-0.271492,-0.5382,9.834708,0.0017076395,0.0017633066,-7.2032213E-4,3.4166667,-0.2685842,-0.5253675,9.788885,0.0029078138,0.0128325205,-0.045823593,-0.029929662,0.003172714,0.35863635,2017-07-05 17:24:35,72.82070778061001
-0.65301603,-0.29062802,9.728264,-0.0019497015,-6.8149716E-4,0.0017346926,4.555556,-0.30944517,-0.46394026,9.790783,0.34357086,-0.17331225,0.06251871,-0.02772891,0.0063415207,0.35530883,2017-07-05 17:24:36,74.27461641177862
-0.26670802,-0.52624,9.850256,-7.231496E-4,-0.0019022673,5.314648E-4,3.4166667,-0.2685155,-0.52708226,9.7887945,0.0017805086,0.007529738,-0.054286886,-0.02999998,0.0032335422,0.355665,2017-07-05 17:24:37,73.14463372803979
-0.258336,-0.52265203,9.847864,-0.0019275248,-0.0018980876,0.0017845146,3.4166667,-0.26826325,-0.5252954,9.7888975,-0.009927228,-0.0026433542,-0.058965985,-0.029913843,0.0032197575,0.3567332,2017-07-05 17:24:39,72.83253685337311
-0.270296,-0.53222,9.852648,-7.0926547E-4,-6.872937E-4,5.8126077E-4,3.4166667,-0.26962948,-0.5262838,9.788807,6.6651934E-4,0.0059361854,-0.063840315,-0.02998954,0.0032331236,0.35778296,2017-07-05 17:24:40,77.93058962604763
-0.260728,-0.525044,9.838296,4.9439445E-4,5.4042786E-4,-6.136894E-4,3.4166667,-0.2672881,-0.523717,9.789009,-0.006560089,0.0013270108,-0.049287472,-0.029824704,0.0031653885,0.35788077,2017-07-05 17:24:41,77.1171357276688
-0.267904,-0.525044,9.838296,0.0017268471,0.0029972345,6.219186E-4,4.555556,-0.2657557,-0.52450025,9.789008,-0.0038317055,-6.522534E-4,-0.05167992,-0.029832222,0.003095528,0.3573355,2017-07-05 17:24:42,72.28436131627495
-0.273884,-0.52624,9.820356,5.314164E-4,5.8344007E-4,6.356947E-4,4.555556,-0.2690353,-0.5273332,9.788765,-0.0011313056,1.0280279E-4,-0.049531218,-0.030027963,0.00319266,0.35756522,2017-07-05 17:24:43,72.3889241970438
-0.26670802,-0.523848,9.834708,-0.0019000843,-0.0018322393,-5.692281E-4,3.4166667,-0.26929957,-0.52740026,9.788755,-0.0025915508,-0.0035522492,-0.045952775,-0.030038688,0.0031785748,0.35835582,2017-07-05 17:24:44,74.39802876634073
-0.26551202,-0.53222,9.834708,5.188063E-4,-6.2292814E-4,-5.700812E-4,3.4166667,-0.2689715,-0.5286229,9.788698,1.2850348E-4,0.0047930796,-0.044814125,-0.030091308,0.0031372057,0.35846055,2017-07-05 17:24:45,73.56566995912732
-0.267904,-0.527436,9.829925,-0.0018962137,6.1959773E-4,-5.759932E-4,3.4166667,-0.26783717,-0.5256263,9.788891,6.683642E-5,0.0018097529,-0.04103402,-0.029926116,0.0031532813,0.35798565,2017-07-05 17:24:47,77.17636510955411
-0.279864,-0.53222,9.828729,0.0017872788,6.2806904E-4,-5.68185E-4,4.555556,-0.26868615,-0.5253605,9.788882,0.011177849,0.0068595107,-0.039846856,-0.029928219,0.0032056451,0.35776496,2017-07-05 17:24:48,77.4852486255111
-0.271492,-0.521456,9.846668,-6.6464767E-4,6.2409043E-4,-5.5791065E-4,3.4166667,-0.26450548,-0.524978,9.789017,0.0069865347,-0.0035220003,-0.057651393,-0.029834814,0.003001131,0.35815293,2017-07-05 17:24:49,69.5239230174367
-0.27508,-0.528632,9.829925,-6.7805126E-4,-6.076172E-4,-5.683899E-4,3.4166667,-0.2669611,-0.5267151,9.7888565,0.0081189,0.0019169031,-0.04106851,-0.02996283,0.0030835478,0.35823828,2017-07-05 17:24:50,76.38276338855553
-0.267904,-0.52026004,9.8311205,5.392805E-4,6.030798E-4,-0.0017802529,4.555556,-0.26618096,-0.5241035,9.789019,0.001723061,-0.0038434872,-0.042101942,-0.029824553,0.003089568,0.35838246,2017-07-05 17:24:51,74.77748199475933
-0.264316,-0.525044,9.8371,-0.0019216835,-0.0018446594,6.6220015E-4,4.555556,-0.26946732,-0.52528334,9.788864,-0.0051513365,0.008132672,-0.04225626,-0.029942907,0.0032063134,0.3589475,2017-07-05 17:24:52,71.7265278870699
-0.26670802,-0.527436,9.829925,5.1397085E-4,0.001819633,6.472729E-4,3.4166667,-0.26571247,-0.5227758,9.789101,0.002191537,-0.0013198504,-0.031255554,-0.02975466,0.003072651,0.35897532,2017-07-05 17:24:53,69.74120310624892
-0.264316,-0.53222,9.8430805,-7.2969496E-4,-6.606057E-4,6.550588E-4,4.555556,-0.26614895,-0.5282487,9.788795,0.0029510683,-0.0032047143,-0.050696753,-0.03002234,0.0030040871,0.3586341,2017-07-05 17:24:54,75.18291378305032
-0.270296,-0.53341603,9.833512,-0.0019453131,-0.0018805563,0.0018463656,3.4166667,-0.2668361,-0.5266872,9.788861,0.008243896,-0.005231215,-0.044651043,-0.029960388,0.0030666287,0.35859576,2017-07-05 17:24:55,72.52455821065836
-0.26312,-0.52624,9.8311205,-7.423237E-4,5.348176E-4,6.38362E-4,3.4166667,-0.26753283,-0.5257684,9.788891,-0.00441283,4.7159957E-4,-0.042229954,-0.029929053,0.003119649,0.35850143,2017-07-05 17:24:56,75.69364156987771
-0.2691,-0.528632,9.839492,-7.5279176E-4,-0.0019030571,6.6231936E-4,3.4166667,-0.26536834,-0.52782094,9.788838,0.0037316792,8.1106066E-4,-0.0506535,-0.029987503,0.0029762555,0.35858753,2017-07-05 17:24:57,77.35861801447284
-0.283452,-0.539396,9.84906,-7.339977E-4,5.5324286E-4,-5.658828E-4,3.4166667,-0.2686983,-0.52950925,9.788658,0.014753698,0.009886786,-0.06040157,-0.030129455,0.0030991342,0.3587343,2017-07-05 17:24:59,75.68276506323389
-0.2691,-0.52265203,9.8311205,4.834421E-4,0.002971582,6.4729527E-4,4.555556,-0.26557678,-0.527023,9.788876,-0.01082878,-0.003174977,-0.039852705,-0.029954173,0.0029920116,0.35886097,2017-07-05 17:25:00,76.96129411903787
-0.258336,-0.52265203,9.833512,4.9065053E-4,5.373508E-4,-5.874671E-4,4.555556,-0.26575476,-0.5267194,9.788888,-0.0074187336,-0.0040673227,-0.044624154,-0.029942261,0.0030130623,0.3586424,2017-07-05 17:25:01,73.70511205703988
-0.270296,-0.528632,9.834708,5.106814E-4,0.0017863289,6.1450154E-4,3.4166667,-0.26590782,-0.5275765,9.788838,-3.957944E-4,0.0022514688,-0.053046532,-0.029986782,0.0029959667,0.3589126,2017-07-05 17:25:02,64.63836596154047
-0.267904,-0.523848,9.8311205,5.21671E-4,-6.3183904E-4,6.140098E-4,4.555556,-0.26484913,-0.5270108,9.788898,0.0030548759,-0.0031628115,-0.042222355,-0.02994064,0.0029536213,0.3589849,2017-07-05 17:25:03,70.38263081724347
-0.264316,-0.525044,9.857432,5.0716475E-4,-6.5339357E-4,-6.1418116E-4,4.555556,-0.26843584,-0.5246418,9.788927,-0.004119838,0.00757818,-0.035016954,-0.029893529,0.0031679529,0.35897928,2017-07-05 17:25:04,77.0976544347569
-0.260728,-0.539396,9.8311205,-6.8423897E-4,6.089732E-4,6.451346E-4,3.4166667,-0.26587555,-0.5246036,9.789,-0.003951551,0.002832447,-0.04570903,-0.029844165,0.003052489,0.358801,2017-07-05 17:25:05,76.85304261351989
-0.2691,-0.528632,9.829925,5.703978E-4,-0.0017818063,-5.450845E-4,3.4166667,-0.26832163,-0.530007,9.78864,7.7838224E-4,-0.0013749782,-0.04128478,-0.030146178,0.003073024,0.35870522,2017-07-05 17:25:06,76.83395642822815
-0.662584,-0.575276,9.81916,5.986355E-4,0.0031439066,-5.2657723E-4,4.555556,-0.24391067,-0.53541064,9.788986,0.4186733,0.039865345,-0.03017419,-0.029955437,0.001826543,0.35825074,2017-07-05 17:25:07,72.55592674430903
-0.270296,-0.540592,9.847864,-6.0696155E-4,-4.992038E-4,-4.7055632E-4,3.4166667,-0.24506822,-0.5454399,9.7884035,0.025227783,-0.0048478786,-0.05946049,-0.030451883,0.001747153,0.3567491,2017-07-05 17:25:08,69.82125583764682
-0.264316,-0.527436,9.847864,6.3736737E-4,-4.638508E-4,-4.3062493E-4,3.4166667,-0.26676133,-0.52794594,9.788795,-0.0024453292,-0.0040979004,-0.049500823,-0.030015096,0.0030783683,0.35740352,2017-07-05 17:25:09,73.17510474543772
-0.273884,-0.53102404,9.828729,-5.6506693E-4,-4.4185668E-4,-3.7727877E-4,4.555556,-0.2688759,-0.52764636,9.7887535,0.0038120875,-2.1031829E-4,-0.047151044,-0.030039044,0.0031881807,0.35729083,2017-07-05 17:25:10,76.67196561423495
-0.26670802,-0.52026004,9.841885,-5.421862E-4,-4.3732673E-4,-3.5468116E-4,3.4166667,-0.26283038,-0.5287648,9.788857,0.003877627,-0.008504757,-0.053027827,-0.029983906,0.0028600185,0.35790688,2017-07-05 17:25:11,73.20061539068499
-0.26670802,-0.53102404,9.851452,0.0019401126,8.131489E-4,8.8169053E-4,4.555556,-0.2657339,-0.52804327,9.788818,9.74124E-4,0.0029807694,-0.06263269,-0.030003075,0.0030067805,0.35805285,2017-07-05 17:25:12,76.43819331364661
-0.264316,-0.53222,9.844276,7.35268E-4,8.510351E-4,-3.2468513E-4,4.555556,-0.26751834,-0.527876,9.788778,-0.0032023399,0.004343984,-0.0554986,-0.030025868,0.003112993,0.3574877,2017-07-05 17:25:14,71.68158741615537
-0.2691,-0.53341603,9.840688,7.515773E-4,-3.3117086E-4,-3.2142922E-4,3.4166667,-0.26410025,-0.5249393,9.789028,-0.003372253,0.0060847634,-0.050463527,-0.029824661,0.0029914633,0.35787386,2017-07-05 17:25:15,76.17610969675336
-0.272688,-0.528632,9.841885,-4.1582063E-4,-2.5087595E-4,-0.0015387647,3.4166667,-0.26792905,-0.52696323,9.788817,0.0047589396,0.0016687735,-0.053068157,-0.029990492,0.0031430745,0.35767892,2017-07-05 17:25:16,74.34076085703806
-0.272688,-0.537004,9.8311205,-0.0016204119,-0.0026696548,9.105243E-4,4.555556,-0.26820886,-0.5273859,9.788786,0.0044791363,0.009618089,-0.042334583,-0.03001631,0.0031434027,0.357843,2017-07-05 17:25:17,74.1974078383977
-0.26670802,-0.528632,9.8371,-3.5908446E-4,-0.0013885722,8.9039654E-4,3.4166667,-0.26864666,-0.5305523,9.788602,-0.0019386582,-0.0019203005,-0.048498366,-0.030175144,0.0031075608,0.35780683,2017-07-05 17:25:18,74.409481065324
-0.26551202,-0.52624,9.8311205,-0.0015509762,-0.0013443083,8.889772E-4,4.555556,-0.2642501,-0.5254664,9.788997,0.0012619097,7.7361474E-4,-0.04212357,-0.029853482,0.0029794225,0.35817224,2017-07-05 17:25:19,70.21002023872823
-0.264316,-0.53102404,9.8430805,-3.477484E-4,-0.0013612583,8.938834E-4,4.555556,-0.26912308,-0.52853805,9.788698,-0.0048070718,0.0024859717,-0.05438275,-0.03008936,0.0031524808,0.35825875,2017-07-05 17:25:20,72.45938554491306
-0.270296,-0.527436,9.838296,-3.0400977E-4,-7.919222E-5,8.9519843E-4,4.555556,-0.26769167,-0.53033984,9.788641,0.0026043374,-0.0029038317,-0.049655136,-0.030148156,0.0030600466,0.35798997,2017-07-05 17:25:21,75.49993520955945
-0.261924,-0.534612,9.8430805,-3.0328333E-4,-8.106977E-5,-0.0015326217,3.4166667,-0.266639,-0.5274443,9.788826,-0.0023229814,-0.005988317,-0.04588263,-0.02999085,0.0030631283,0.35798135,2017-07-05 17:25:22,72.30382996732038
-0.271492,-0.527436,9.821552,-2.9512122E-4,-8.3982944E-5,9.3962625E-4,3.4166667,-0.26322326,-0.52468276,9.789066,0.008268757,0.0027532808,-0.03248539,-0.029796155,0.0029568314,0.3577973,2017-07-05 17:25:23,75.34013846793854
-0.270296,-0.5382,9.859824,-2.915673E-4,-1.0224432E-4,-2.6616454E-4,3.4166667,-0.26747185,-0.527518,9.788799,0.002824154,0.010682065,-0.07102467,-0.030008534,0.0031116693,0.3576633,2017-07-05 17:25:25,74.42841290843378
-0.26551202,-0.52624,9.822748,9.567179E-4,0.0011366531,-2.9344857E-4,3.4166667,-0.2678276,-0.5265318,9.788841,-0.0023155652,-2.9182257E-4,-0.033906363,-0.029968688,0.003140251,0.35786173,2017-07-05 17:25:26,76.60193164179225
-0.264316,-0.53102404,9.839492,9.634793E-4,0.0011155307,-2.823323E-4,4.555556,-0.26658213,-0.52643305,9.78888,-0.0022661183,0.0045910175,-0.050611414,-0.029941712,0.0030778379,0.35801467,2017-07-05 17:25:27,75.82161713504934
-0.279864,-0.528632,9.8430805,-0.0014641657,-0.0025296658,9.5526874E-4,3.4166667,-0.2672366,-0.5264532,9.788862,0.012627408,0.0021788054,-0.054218497,-0.029954452,0.0031104882,0.35795695,2017-07-05 17:25:28,76.8936169482431
-0.26312,-0.523848,9.82514,-0.0014503561,-0.0012996048,-2.757497E-4,4.555556,-0.26726967,-0.52578807,9.7888975,0.004222349,-7.440233E-4,-0.035046764,-0.029924024,0.0031177788,0.3581578,2017-07-05 17:25:29,74.58715426069254
-0.264316,-0.53222,9.838296,-0.001441516,-0.0024976805,-2.900213E-4,4.555556,-0.26988688,-0.5268366,9.78877,-0.0055708773,0.00538341,-0.04952654,-0.030022496,0.0032176094,0.35833234,2017-07-05 17:25:30,75.15066009868788
-0.259532,-0.523848,9.829925,-2.2444129E-4,0.0011462867,-0.0015103593,3.4166667,-0.27003703,-0.5244787,9.788892,-0.010505027,-6.306626E-4,-0.041032854,-0.02991157,0.003279728,0.3579634,2017-07-05 17:25:31,75.30121240564297
-0.267904,-0.528632,9.835904,0.002219241,0.0011391565,-2.895519E-4,4.555556,-0.26872244,-0.52663046,9.788814,-8.18422E-4,0.0020015491,-0.04709084,-0.02998812,0.003196404,0.35738426,2017-07-05 17:25:32,74.68043021200012
-0.270296,-0.534612,9.822748,-2.4418905E-4,-0.0013444647,-2.7474016E-4,3.4166667,-0.26741615,-0.5221886,9.789086,-7.0813E-4,0.011227423,-0.0480138,-0.029753093,0.003209591,0.35756162,2017-07-05 17:25:33,75.68400705373718
-0.273884,-0.517868,9.82514,-2.370961E-4,0.0011178106,-2.7813762E-4,4.555556,-0.26408097,-0.5253453,9.789007,0.009803035,-0.00747735,-0.03613222,-0.02984268,0.0029929653,0.35756606,2017-07-05 17:25:34,76.06300116373548
-0.270296,-0.528632,9.845472,-2.1083653E-4,0.001131855,-2.9500574E-4,3.4166667,-0.26557735,-0.52590334,9.788938,0.0047186627,0.0027286578,-0.056533787,-0.029897474,0.003045658,0.35782793,2017-07-05 17:25:35,76.95310493109258
-0.267904,-0.52265203,9.829925,0.0010166429,0.0023673698,-3.0266494E-4,3.4166667,-0.26810125,-0.5252619,9.788903,-1.9722134E-4,-0.0026098536,-0.041021746,-0.02991182,0.003189028,0.35747048,2017-07-05 17:25:36,73.94823294444114
-0.27508,-0.53341603,9.827532,9.985641E-4,0.0011178479,-2.9571727E-4,4.555556,-0.26848474,-0.5248919,9.788912,0.006595252,-0.0022398513,-0.045796707,-0.029902248,0.0032041464,0.35777953,2017-07-05 17:25:37,74.08585125942275
-0.276276,-0.535808,9.844276,-0.0014493056,-0.0013239831,-2.8657913E-4,4.555556,-0.26967695,-0.5286708,9.788676,0.0065990333,0.0071372683,-0.055600893,-0.030104926,0.0031849076,0.35799587,2017-07-05 17:25:39,75.39923600591058
-0.276276,-0.517868,9.850256,-2.094023E-4,-7.7970326E-5,-3.0181557E-4,4.555556,-0.2674931,-0.5248264,9.788943,0.008782898,-0.0069584046,-0.061312255,-0.029882995,0.0031391499,0.3583719,2017-07-05 17:25:40,74.85368877314383
-0.261924,-0.521456,9.816769,-2.2049248E-4,-8.799136E-5,-3.0699745E-4,3.4166667,-0.2658289,-0.5228774,9.789092,-0.0062969085,-0.0014214112,-0.051595747,-0.029759603,0.0030959228,0.35836115,2017-07-05 17:25:41,73.79731651745784
-0.2691,-0.52624,9.853845,0.0010085702,0.0023686886,-3.1622872E-4,4.555556,-0.2653523,-0.5251436,9.788984,0.003747717,0.0010963439,-0.06486031,-0.0298584,0.0030365349,0.35821193,2017-07-05 17:25:42,76.47059980878275
-0.271492,-0.528632,9.833512,-0.0014179014,-0.0012722164,-3.2360107E-4,3.4166667,-0.2700169,-0.5276035,9.788724,0.001475114,0.0010284663,-0.044788405,-0.030061735,0.0032069234,0.35842058,2017-07-05 17:25:43,76.48104096611956
-0.267904,-0.52265203,9.840688,9.874776E-4,-7.6025724E-5,-2.9403344E-4,3.4166667,-0.2662997,-0.5218735,9.789133,0.0016043299,7.785466E-4,-0.051554833,-0.029719375,0.0031461653,0.35806423,2017-07-05 17:25:44,75.3695051068037
-0.270296,-0.52624,9.8430805,-2.490878E-4,-1.00918114E-4,-3.0307472E-4,4.555556,-0.2679005,-0.5260323,9.788868,0.002395517,-0.0033802902,-0.047036476,-0.029947218,0.0031432759,0.3581601,2017-07-05 17:25:45,72.23289789516801
-0.270296,-0.534612,9.827532,9.547509E-4,-1.2408197E-4,-3.1131506E-4,4.555556,-0.26748005,-0.5214198,9.7891245,0.0028159525,0.013192148,-0.03840718,-0.02971909,0.003213024,0.3579902,2017-07-05 17:25:46,74.48669630286649
-0.259532,-0.53341603,9.828729,-2.642721E-4,-0.001348108,8.831471E-4,4.555556,-0.2643022,-0.5251808,9.78901,-0.004770192,0.00823522,-0.039718263,-0.02984204,0.002974944,0.35855314,2017-07-05 17:25:47,75.0619771944719
-0.264316,-0.52265203,9.832316,0.0021325722,0.0010542348,-0.0015506111,3.4166667,-0.2675546,-0.5247943,9.788942,-0.0032385984,-0.0021422363,-0.043373864,-0.029883057,0.0031382446,0.35850996,2017-07-05 17:25:48,75.9367650221345
0.028704,-0.588432,9.8072,-0.0015623309,-0.002635993,8.8584423E-4,4.555556,-0.3232425,-0.5409045,9.786385,-0.35194647,0.04752751,-0.020815995,-0.031646058,0.0056375405,0.35429502,2017-07-05 17:25:49,74.38029093364042
-0.267904,-0.528632,9.869392,-3.6476925E-4,-2.2757053E-4,-0.0015292764,4.555556,-0.27346548,-0.5252506,9.788755,-0.00556147,0.0033813862,-0.080637716,-0.030003114,0.003497837,0.35581788,2017-07-05 17:25:51,74.41188890455832
-0.270296,-0.528632,9.8311205,8.640364E-4,-2.0810962E-4,-2.7162582E-4,3.4166667,-0.269595,-0.5248607,9.788883,7.0100615E-4,0.0037713354,-0.04223697,-0.02991782,0.0032871563,0.35685712,2017-07-05 17:25:52,71.34430535190378
-0.267904,-0.525044,9.857432,-0.001557909,-0.0013952032,-2.6641786E-4,3.4166667,-0.26600507,-0.52662486,9.788886,0.0018989473,-0.0015808395,-0.068545714,-0.029939005,0.003059578,0.35761797,2017-07-05 17:25:53,72.89028755598147
-0.26312,-0.528632,9.8311205,-3.3335015E-4,-0.0013684481,-2.4516135E-4,4.555556,-0.2669993,-0.5282449,9.788774,-0.0038793075,3.870631E-4,-0.042347442,-0.030035585,0.003065804,0.35797662,2017-07-05 17:25:54,77.1930597601239
-0.2691,-0.53222,9.8430805,-3.3782795E-4,-0.0013616607,-2.2210553E-4,3.4166667,-0.26408127,-0.52599776,9.788974,0.00501876,0.0062222723,-0.05410744,-0.029876344,0.0029553247,0.35837024,2017-07-05 17:25:55,72.02574039172515
-0.267904,-0.528632,9.823944,-0.0015307516,-1.1010468E-4,-2.2903085E-4,3.4166667,-0.26716274,-0.5235059,9.789023,7.412651E-4,0.0051260744,-0.034920506,-0.029815141,0.0031368674,0.35870737,2017-07-05 17:25:56,70.58812823222983
-0.271492,-0.53341603,9.835904,8.977391E-4,-1.526773E-4,-2.098605E-4,4.555556,-0.26810634,-0.5253725,9.7888975,0.0033856605,0.008043533,-0.04700725,-0.0299218,0.003143628,0.35883114,2017-07-05 17:25:57,74.62455419354549
-0.276276,-0.527436,9.821552,-0.0015290827,-0.0026005134,0.0010104589,4.555556,-0.26796216,-0.5239654,9.788977,0.008313837,0.0034706353,-0.03257482,-0.029852657,0.0031573628,0.3589931,2017-07-05 17:25:58,76.60952609251626
-0.264316,-0.516672,9.8311205,-3.1542778E-4,0.002253525,-2.232939E-4,3.4166667,-0.27034888,-0.52466583,9.788873,-0.0072288737,0.001574154,-0.044639353,-0.029929813,0.0032580984,0.35899407,2017-07-05 17:25:59,72.93945863046092
-0.270296,-0.52624,9.840688,-2.889149E-4,-1.6657263E-4,-2.4137646E-4,4.555556,-0.26959032,-0.52480614,9.788886,7.056823E-4,0.0014338322,-0.051802084,-0.029922087,0.0032240406,0.35885,2017-07-05 17:26:00,71.36105137359175
-0.26312,-0.523848,9.8371,9.2327595E-4,0.0010564998,-2.5427341E-4,3.4166667,-0.26774025,-0.5249809,9.788927,-0.004620262,-0.0011328765,-0.048172787,-0.029896734,0.0031304841,0.35892138,2017-07-05 17:26:01,74.3951108292731
-0.270296,-0.52026004,9.844276,-0.0015280508,-0.0013868138,9.526126E-4,4.555556,-0.26567292,-0.5273739,9.7888565,0.0022311017,-0.0011338994,-0.04106851,-0.029973151,0.0029851657,0.35901636,2017-07-05 17:26:02,73.81693793795037
