ACC_X,ACC_Y,ACC_Z,GYRO_X,GYRO_Y,GYRO_Z,LIGH_1,GRAV_X,GRAV_Y,GRAV_Z,LINACC_X,LINACC_Y,LINACC_Z,ROTVEC_X,ROTVEC_Y,ROTVEC_Z,TIME,VOICE
6.895301,-0.6512229,6.703765,-0.065597534,0.018096924,-0.054748535,10.0,7.0599976,-0.59280396,6.7805023,-0.16809082,0.04798889,-0.011199951,0.31632996,-0.23284912,0.7836304,2017-05-16 12:08:25,NaN
7.201759,-0.39264908,6.694188,-0.12727356,-0.010803223,-0.20765686,10.0,6.9690247,-0.5064392,6.8808746,0.18164063,0.12506104,-0.23414612,0.31225586,-0.22729492,0.7831116,2017-05-16 12:08:26,NaN
6.5026517,-0.6703765,7.029376,0.5554657,0.12640381,0.24081421,10.0,6.826233,-0.7763214,6.997864,-0.2748413,0.13616943,0.12556458,0.30108643,-0.22923279,0.7950897,2017-05-16 12:08:27,NaN
6.742072,-0.7278373,7.019799,-0.11228943,0.0014038086,-0.04484558,10.0,6.747238,-0.6817322,7.0838013,0.00843811,-0.026504517,-0.110183716,0.3007202,-0.2199707,0.8002777,2017-05-16 12:08:28,NaN
6.9240313,-0.32561144,7.0102224,0.29536438,-0.08695984,0.15922546,10.0,6.791733,-0.5320282,7.0540466,0.14100647,0.21876526,-0.09403992,0.30949402,-0.21105957,0.8044586,2017-05-16 12:08:29,NaN
6.847417,-0.34476504,7.0485296,0.13619995,0.0018157959,0.114089966,10.0,6.886795,-0.42971802,6.9683228,-0.117492676,0.11645508,0.059768677,0.32006836,-0.2055664,0.8077545,2017-05-16 12:08:30,NaN
6.83784,-0.48841715,7.0006456,-0.023757935,0.018432617,-0.034835815,10.0,6.9213257,-0.43276978,6.933838,-0.07029724,-0.0030670166,-0.001083374,0.32258606,-0.20593262,0.8082123,2017-05-16 12:08:31,NaN
6.253655,-0.7661445,7.603985,-0.23846436,0.031982422,-0.16648865,10.0,6.5005035,-0.8298187,7.2955475,-0.2215271,0.0398407,0.30459595,0.2702942,-0.23443604,0.7772064,2017-05-16 12:08:32,NaN
6.9719152,-0.91937345,6.7229185,0.16201782,-0.02053833,0.13192749,10.0,7.0394135,-0.9177704,6.765686,-0.011306763,-0.008407593,-0.050857544,0.26870728,-0.28781128,0.7088928,2017-05-16 12:08:33,NaN
7.1634517,-0.7182605,6.5505357,-0.042648315,0.014678955,-0.057113647,10.0,7.144333,-0.7958832,6.670471,0.10168457,0.07400513,-0.13270569,0.29119873,-0.27404785,0.73291016,2017-05-16 12:08:34,NaN
7.029376,-0.7565677,6.7324953,0.11312866,0.025939941,0.082901,10.0,7.1246033,-0.7531128,6.6964874,-0.06925964,0.0039978027,0.004699707,0.2939453,-0.26863098,0.7384186,2017-05-16 12:08:35,NaN
6.981492,-0.93852705,6.9240313,0.026763916,0.042922974,0.1199646,10.0,6.9578705,-0.8238373,6.86145,-0.12045288,-0.12957764,0.07128906,0.27352905,-0.2744751,0.72299194,2017-05-16 12:08:36,NaN
6.9048777,-0.8619126,6.7803793,0.012557983,0.015609741,0.015289307,10.0,6.912201,-0.80563354,6.909607,-0.020309448,-0.0660553,-0.15390015,0.2750244,-0.26843262,0.73088074,2017-05-16 12:08:37,NaN
7.019799,-0.48841715,7.1634517,0.06942749,0.08113098,0.046447754,10.0,6.9550934,-0.7293091,6.874954,0.086624146,0.22535706,0.27571106,0.2897644,-0.25593567,0.75109863,2017-05-16 12:08:38,NaN
7.2783732,-0.2681506,6.3589997,0.14048767,-0.17327881,0.18365479,10.0,7.257599,-0.18675232,6.5926056,0.029266357,-0.085632324,-0.2863922,0.34765625,-0.20735168,0.79711914,2017-05-16 12:08:39,NaN
6.742072,-0.6991069,6.7612257,-1.257904,0.27012634,-1.0147095,10.0,6.73938,-0.36691284,7.114517,0.002670288,-0.3140869,-0.34519958,0.3001709,-0.21713257,0.78105164,2017-05-16 12:08:40,NaN
6.7708025,-0.59376204,6.694188,-0.018997192,-0.048721313,-0.10095215,10.0,6.9064026,-0.6533661,6.9314423,-0.177948,0.108551025,-0.23023987,0.27062988,-0.27082825,0.7116089,2017-05-16 12:08:41,NaN
6.9527617,-0.7374141,6.799533,0.16256714,0.026779175,0.19099426,10.0,7.1177216,-0.7260132,6.7068024,-0.1304779,0.017745972,0.08973694,0.28845215,-0.27355957,0.7264099,2017-05-16 12:08:42,NaN
7.0485296,-0.63206923,6.7803793,0.15783691,4.119873E-4,0.19004822,10.0,7.0883484,-0.7148895,6.7390137,0.007827759,0.11558533,0.003036499,0.28167725,-0.2775879,0.7155762,2017-05-16 12:08:43,NaN
7.067683,-0.6703765,6.4068837,-0.08534241,0.003692627,-0.06439209,10.0,7.1142426,-0.6190491,6.7212067,-0.031661987,-0.034713745,-0.23791504,0.28752136,-0.27320862,0.7177582,2017-05-16 12:08:44,NaN
7.0485296,-0.6703765,6.531382,-2.746582E-4,0.034820557,-0.007598877,10.0,7.1144257,-0.63249207,6.719757,-0.05908203,0.019577026,-0.1002655,0.2835846,-0.27742004,0.71043396,2017-05-16 12:08:45,NaN
7.0964136,-0.63206923,6.83784,-0.15081787,0.014328003,-0.09829712,10.0,7.0240936,-0.6588135,6.8116302,0.07209778,0.03227234,0.025772095,0.27931213,-0.2732849,0.71517944,2017-05-16 12:08:46,NaN
7.029376,-0.6799533,6.6846113,-0.08703613,-0.0034637451,-0.06034851,10.0,7.103348,-0.6435852,6.7304077,-0.06163025,-0.03742981,-0.042816162,0.29737854,-0.26153564,0.7414093,2017-05-16 12:08:47,NaN
6.943185,-0.61291564,6.8665705,0.0032348633,-0.020050049,0.029296875,10.0,7.003357,-0.63845825,6.8348694,0.024719238,0.025543213,0.043380737,0.27825928,-0.27218628,0.7142334,2017-05-16 12:08:48,NaN
6.9048777,-0.60333884,6.7803793,0.0231781,0.0051116943,0.04447937,10.0,7.0237427,-0.5788727,6.8192444,-0.09098816,0.034057617,-0.10441589,0.2829895,-0.26875305,0.7174225,2017-05-16 12:08:49,NaN
7.07726,-0.91937345,6.253655,-0.07272339,-0.053863525,-0.0761261,10.0,7.0480347,-0.52153015,6.7987823,0.102630615,-0.36376953,-0.5061798,0.28172302,-0.27198792,0.70732117,2017-05-16 12:08:50,NaN
6.943185,-0.51714754,6.7324953,0.024765015,-0.0038452148,0.05215454,10.0,7.0514984,-0.50645447,6.7963257,-0.07788086,0.016113281,-0.13598633,0.28326416,-0.27061462,0.7090912,2017-05-16 12:08:51,NaN
6.9527617,-0.47884035,6.7229185,0.07119751,-0.047714233,0.12716675,10.0,7.0418854,-0.43452454,6.811249,-0.09552002,-0.014923096,-0.09642029,0.2874756,-0.26470947,0.7142639,2017-05-16 12:08:52,NaN
7.5561004,0.17238252,6.5122285,-0.18919373,-0.14546204,-0.48265076,10.0,7.2569427,-0.042678833,6.5958405,0.4385376,0.35594177,-0.017211914,0.3024292,-0.26875305,0.6871338,2017-05-16 12:08:53,NaN
1.2545617,2.2505496,10.515334,-0.70928955,0.534317,-0.8497925,74.0,2.7186432,1.4340668,9.3125,-1.4111023,0.6498413,0.8482666,0.15560913,0.031234741,0.9468384,2017-05-16 12:08:54,NaN
0.33518824,-0.16280572,9.864111,-0.4984436,-0.1676178,0.19854736,67.0,-0.49554443,0.12780762,9.793274,0.55003357,-0.3184967,-0.027496338,-0.015075684,0.02130127,0.7629242,2017-05-16 12:08:55,NaN
-0.076614454,0.047884032,9.797073,0.006439209,0.0071258545,0.010559082,49.0,-0.043945313,0.011138916,9.806534,-0.010513306,0.0705719,-0.067993164,-0.0014038086,0.0018157959,0.78796387,2017-05-16 12:08:56,NaN
-0.038307227,0.0,9.749189,0.008071899,-0.0055389404,0.04496765,28.0,-0.059570313,0.0020446777,9.8064575,0.0050811768,-0.0020446777,-0.040664673,-0.0023498535,0.0019073486,0.79585266,2017-05-16 12:08:57,NaN
-0.08619126,0.019153614,9.758766,-0.002166748,-0.008865356,0.09613037,31.0,-0.043167114,0.0043945313,9.806549,-0.06578064,0.022827148,-0.040756226,-0.0016021729,0.0015106201,0.7920227,2017-05-16 12:08:58,NaN
-0.076614454,0.0,9.80665,-0.0104522705,0.008865356,0.041748047,17.0,-0.064834595,0.014266968,9.806412,0.010345459,-0.014266968,-0.054244995,-0.0021820068,0.0025787354,0.7960663,2017-05-16 12:08:59,NaN
-0.05746084,0.02873042,9.864111,-0.0017852783,-5.340576E-4,-0.10494995,17.0,-0.057937622,0.009216309,9.806473,0.017074585,-0.009216309,0.12275696,-0.0020599365,0.0021514893,0.79537964,2017-05-16 12:09:00,NaN
-0.06703765,0.0,9.710882,-0.0018615723,0.013381958,0.21351624,81.0,-0.040634155,0.018997192,9.806549,-0.027450562,0.021850586,-0.067993164,-0.0010223389,0.002029419,0.78681946,2017-05-16 12:09:01,NaN
-0.047884032,0.0,9.80665,-0.0015716553,-0.0035095215,0.059890747,84.0,-0.066329956,0.016494751,9.806412,0.01184082,-0.0028686523,-0.040618896,-0.0021362305,0.002746582,0.7863312,2017-05-16 12:09:02,NaN
-0.05746084,-0.019153614,9.749189,-2.2888184E-4,0.0052337646,-0.038146973,81.0,-0.0541687,0.0070343018,9.806488,-0.013916016,-0.0070343018,-0.095184326,-0.0019378662,0.0019836426,0.7840576,2017-05-16 12:09:03,NaN
-0.08619126,0.038307227,9.80665,0.0,0.0,0.0,84.0,-0.07260132,0.014419556,9.806366,-0.009094238,0.012817383,2.746582E-4,-0.002456665,0.0028533936,0.78685,2017-05-16 12:09:04,NaN
-0.095768064,0.009576807,9.672575,0.00579834,0.0025024414,0.031921387,81.0,-0.046524048,0.013504028,9.806519,-0.035186768,1.0681152E-4,-0.040740967,-0.0014190674,0.0019989014,0.783844,2017-05-16 12:09:05,NaN
-0.047884032,0.047884032,9.768343,0.0,0.0,0.0,81.0,-0.058288574,0.013412476,9.8064575,-0.009796143,1.9836426E-4,-0.09515381,-0.0018920898,0.002380371,0.78097534,2017-05-16 12:09:06,NaN
-0.05746084,0.038307227,9.768343,8.69751E-4,7.4768066E-4,-0.07376099,81.0,-0.049697876,0.016571045,9.806503,-0.004776001,0.010665894,-0.013473511,-0.001449585,0.0022277832,0.7823334,2017-05-16 12:09:07,NaN
-0.02873042,-0.076614454,9.835381,-0.0051727295,-0.0018310547,0.019836426,84.0,-0.06782532,0.0057373047,9.806412,0.054214478,-0.07383728,0.05470276,-0.0025177002,0.002380371,0.78292847,2017-05-16 12:09:08,NaN
-1.0342951,3.715801,12.162544,0.3934784,-0.44309998,-0.14767456,38.0,-1.5706177,2.6944122,9.297501,0.19496155,0.96943665,2.9199371,0.009033203,0.16085815,0.8234253,2017-05-16 12:09:09,NaN
4.55856,-0.05746084,9.260772,0.30950928,0.41418457,1.9503021,28.0,5.057068,-0.24136353,8.398697,-0.50787354,0.11878967,0.7269287,0.21044922,-0.165802,0.78434753,2017-05-16 12:09:10,NaN
5.717354,0.81402856,7.776367,-1.4830627,-0.35610962,-2.2351074,14.0,5.3946686,0.7462921,8.155411,0.38034058,0.11177063,-0.43267822,0.2444458,-0.15629578,0.7280121,2017-05-16 12:09:11,NaN
5.315128,0.8523358,8.063671,-0.08230591,0.016983032,-0.107543945,14.0,5.440399,0.7360687,8.125916,-0.12846375,0.16285706,-0.076293945,0.20645142,-0.20751953,0.57740784,2017-05-16 12:09:12,NaN
5.161899,0.31603462,8.1402855,-0.08036804,0.05329895,-0.029510498,14.0,5.4792023,0.40875244,8.122894,-0.27622986,-0.12272644,0.11740112,0.192276,-0.22106934,0.57203674,2017-05-16 12:09:13,NaN
7.038953,-1.2641385,5.4683566,-0.41952515,-0.318573,-0.2717743,14.0,8.133514,-0.29504395,5.470749,-0.7240448,-0.699234,0.22254944,0.26254272,-0.3900299,0.51904297,2017-05-16 12:09:14,NaN
8.887277,0.076614454,5.1810527,0.47485352,0.2083435,-0.15872192,7.0,9.229599,-2.1339264,2.5359497,-0.60791016,1.9841003,2.1221924,0.3138275,-0.5217285,0.5515137,2017-05-16 12:09:15,NaN
8.130709,-0.49799395,5.6790466,-0.09762573,0.08848572,-0.17166138,7.0,8.088058,-0.55352783,5.5178833,-0.06567383,0.063201904,0.052825928,0.26516724,-0.3851471,0.5497894,2017-05-16 12:09:16,NaN
8.485051,-0.94810385,5.267244,-0.23858643,-0.35066223,-0.4042511,7.0,7.967224,-0.9411316,5.6398315,0.50460815,0.04219055,-0.32789612,0.25178528,-0.38606262,0.56863403,2017-05-16 12:09:17,NaN
7.824251,-0.7278373,5.707777,0.15042114,-0.11061096,0.12477112,7.0,7.9134064,-0.7068176,5.7487946,-0.122558594,-0.055908203,-0.069107056,0.2551422,-0.37654114,0.5631714,2017-05-16 12:09:18,NaN
8.619126,-0.009576807,5.3342814,0.13607788,-0.4074707,0.14045715,7.0,7.768875,-0.85113525,5.923706,0.7438202,0.7557831,-0.6798706,0.25167847,-0.36691284,0.5839844,2017-05-16 12:09:19,NaN
8.714894,0.61291564,3.9456444,-0.20288086,-0.17085266,-0.19476318,10.0,8.922668,0.5857849,4.026535,-0.15116882,0.0134887695,-0.03578186,0.34423828,-0.41975403,0.48884583,2017-05-16 12:09:20,NaN
8.7532015,0.38307226,4.7884035,0.569046,0.13127136,0.58335876,10.0,8.7491455,0.55326843,4.39505,-0.07298279,-0.2400055,0.35842896,0.3302002,-0.40849304,0.49209595,2017-05-16 12:09:21,NaN
7.1347213,1.1013328,6.694188,-0.11242676,0.009094238,-0.31524658,10.0,7.375595,1.6160736,6.2577057,-0.23854065,-0.33576965,0.4162445,0.29925537,-0.30229187,0.4842682,2017-05-16 12:09:22,NaN
7.690176,1.9728222,5.506664,-0.14668274,-3.2043457E-4,-0.29130554,10.0,7.7887115,1.8137817,5.675934,-0.011489868,0.13391113,-0.15969849,0.3174286,-0.3314209,0.45300293,2017-05-16 12:09:23,NaN
8.647857,0.89064306,4.3766007,-0.11558533,-0.3813324,0.30552673,10.0,8.27916,1.5251923,5.0298615,0.35612488,-0.53089905,-0.5623932,0.3239746,-0.37225342,0.44265747,2017-05-16 12:09:24,NaN
10.5440645,0.23942018,3.1028855,0.016494751,0.1666565,0.2690735,14.0,9.393723,0.02784729,2.815567,1.2437592,0.20368958,0.28987122,0.3500824,-0.48361206,0.46847534,2017-05-16 12:09:25,NaN
8.801085,-0.11492168,5.497087,0.4063568,0.094833374,0.2589264,10.0,8.464264,-0.25254822,4.9459686,0.62049866,0.22529602,0.76094055,0.17915344,-0.46446228,0.33610535,2017-05-16 12:09:26,NaN
8.350976,-0.40222588,4.8745947,-0.2645111,0.30923462,-0.14157104,14.0,8.7543335,-0.33366394,4.4068756,-0.4595337,-0.14303589,0.42832947,0.21401978,-0.47906494,0.37657166,2017-05-16 12:09:27,NaN
8.781932,-0.47884035,4.4436383,-0.06594849,-0.06939697,-0.029632568,10.0,8.678879,-0.37251282,4.550659,0.13346863,0.01838684,-0.09680176,0.2156372,-0.47061157,0.3894348,2017-05-16 12:09:28,NaN
8.590396,-0.25857377,4.5681367,0.079940796,-0.120285034,-0.053588867,14.0,8.653091,-0.39964294,4.5972137,0.03666687,0.12722778,-0.04801941,0.20942688,-0.47088623,0.3840027,2017-05-16 12:09:29,NaN
8.561666,-0.48841715,4.644751,-0.037902832,0.2454071,0.13887024,10.0,8.580551,-0.37683105,4.733124,0.041122437,-0.059005737,-0.034103394,0.20817566,-0.46403503,0.3865509,2017-05-16 12:09:30,NaN
8.734048,-0.48841715,4.232949,0.13949585,-0.014923096,0.24014282,14.0,8.792603,-0.18206787,4.3390503,-0.08918762,-0.29463196,-0.18482971,0.20690918,-0.4857483,0.34892273,2017-05-16 12:09:31,NaN
8.858546,-0.095768064,4.1371803,0.022888184,-0.14971924,-0.040512085,14.0,8.885956,-0.21585083,4.1428833,-0.05996704,0.12049866,-0.070388794,0.21191406,-0.4938202,0.35128784,2017-05-16 12:09:32,NaN
8.858546,-0.076614454,4.1946416,-0.101623535,0.059921265,-0.048950195,14.0,8.8945465,-0.10620117,4.1286774,-0.027694702,0.065338135,0.011886597,0.20932007,-0.49565125,0.33718872,2017-05-16 12:09:33,NaN
8.820239,0.15322891,4.654328,-0.10054016,0.21984863,-0.015945435,14.0,8.917328,-0.16972351,4.0771027,-0.18667603,0.27868652,0.52656555,0.21847534,-0.49435425,0.3546753,2017-05-16 12:09:34,NaN
8.858546,-0.019153614,4.0414124,0.12034607,-0.039382935,0.16934204,14.0,8.822342,0.14387512,4.2796936,-0.023605347,-0.15748596,-0.27529907,0.22485352,-0.48086548,0.34640503,2017-05-16 12:09:35,NaN
8.772355,-0.009576807,4.367024,-0.038513184,0.026245117,-0.04988098,14.0,8.824265,0.036697388,4.2779846,-0.039138794,-0.023071289,0.0124053955,0.21755981,-0.4842987,0.34402466,2017-05-16 12:09:36,NaN
8.896853,0.18195933,4.261679,0.008804321,-0.0039520264,-0.023117065,14.0,8.815872,0.075027466,4.2947693,0.09182739,0.1156311,-0.05883789,0.21612549,-0.48405457,0.3390808,2017-05-16 12:09:37,NaN
8.887277,0.16280572,4.175488,0.2393341,-0.06466675,0.14405823,14.0,8.828262,0.1599884,4.2668915,0.02494812,-0.010177612,-0.20803833,0.21673584,-0.48524475,0.33137512,2017-05-16 12:09:38,NaN
8.829816,0.22984336,4.3861775,-0.05644226,0.02243042,-0.06764221,14.0,8.800003,0.18502808,4.323883,0.025970459,0.03288269,0.08909607,0.2216034,-0.48002625,0.33947754,2017-05-16 12:09:39,NaN
8.676587,0.047884032,4.2521024,0.010238647,-0.0060577393,0.067230225,14.0,8.764801,0.20565796,4.393875,-0.061401367,-0.17840576,-0.10346985,0.22027588,-0.47691345,0.338562,2017-05-16 12:09:40,NaN
8.686164,0.05746084,4.2999864,0.091674805,0.0042266846,0.05496216,14.0,8.771393,0.12107849,4.38385,-0.040756226,-0.066589355,-0.06619263,0.22010803,-0.4775238,0.34536743,2017-05-16 12:09:41,NaN
8.743625,0.20111294,4.3382936,0.0771637,-0.026397705,0.06278992,14.0,8.825775,0.19352722,4.27063,-0.09513855,-0.05732727,0.019760132,0.21899414,-0.4840393,0.33221436,2017-05-16 12:09:42,NaN
8.810662,0.2777274,4.453215,-0.17771912,0.014984131,-0.08920288,14.0,8.768051,0.14468384,4.3898315,0.030685425,0.154953,0.023147583,0.22651672,-0.4741974,0.35398865,2017-05-16 12:09:43,NaN
8.820239,0.22026655,4.3766007,-0.05633545,0.004119873,-0.056259155,14.0,8.752106,0.19293213,4.419693,0.04663086,0.052215576,-0.033935547,0.22052002,-0.4754181,0.34124756,2017-05-16 12:09:44,NaN
8.724471,0.25857377,4.4723687,-0.19493103,-0.004119873,-0.15986633,14.0,8.771133,0.22645569,4.3802032,-0.081344604,0.032318115,0.087265015,0.22285461,-0.47644043,0.34033203,2017-05-16 12:09:45,NaN
8.7053175,0.23942018,4.510676,-0.17549133,0.06677246,-0.07923889,14.0,8.747299,0.2572174,4.425934,-0.071136475,-0.03929138,0.041519165,0.22515869,-0.4729004,0.34344482,2017-05-16 12:09:46,NaN
8.590396,0.4405331,4.711789,-0.16705322,0.027069092,-0.024536133,10.0,8.697189,0.44180298,4.5092926,-0.23895264,-0.060440063,0.026260376,0.22061157,-0.47055054,0.32295227,2017-05-16 12:09:47,NaN
8.571242,0.4309563,4.673482,0.0874939,-0.040649414,0.003829956,14.0,8.648331,0.40829468,4.6054077,-0.08113098,0.013916016,0.06636047,0.19902039,-0.47494507,0.29364014,2017-05-16 12:09:48,NaN
9.193734,4.4436383,5.305551,0.07287598,-0.1028595,-1.3154602,14.0,8.761154,0.9410858,4.3042603,0.2963562,3.049652,0.626297,0.23660278,-0.4738617,0.29570007,2017-05-16 12:09:49,NaN
4.0892963,-0.02873042,10.0269165,0.40863037,0.25704956,1.1782532,134.0,3.986023,-0.969635,8.907394,0.0047302246,0.751709,0.7902832,0.09484863,-0.19195557,0.62742615,2017-05-16 12:09:50,NaN
-0.4309563,-1.3120226,9.998186,-0.23925781,0.59939575,-0.3334198,169.0,0.57395935,-0.33703613,9.784027,-0.8872223,-0.8887787,0.17242432,-7.324219E-4,-0.033935547,0.4870758,2017-05-16 12:09:51,NaN
2.0590134,0.34476504,9.576807,-0.1184845,0.22795105,-0.4948578,162.0,1.7508087,0.12998962,9.648209,0.23774719,0.16964722,-0.07310486,0.07383728,-0.051223755,0.7740021,2017-05-16 12:09:52,NaN
1.7046716,-0.038307227,9.768343,0.06517029,0.04449463,0.5227814,173.0,2.0383759,-0.10673523,9.591858,-0.40393066,0.13397217,0.50079346,0.07695007,-0.07090759,0.7655945,2017-05-16 12:09:53,NaN
4.146757,-0.33518824,9.050082,0.18759155,-0.39605713,0.31710815,183.0,3.5334015,-0.2944641,9.143234,0.6616516,-0.018798828,-0.044830322,0.13101196,-0.12905884,0.7551117,2017-05-16 12:09:54,NaN
4.146757,0.6895301,8.475474,0.21334839,-0.7129669,1.0922699,148.0,3.4500885,0.29995728,9.174805,0.67684937,0.27207947,-0.75743103,0.15763855,-0.08580017,0.8200836,2017-05-16 12:09:55,NaN
0.7278373,1.5993267,8.66701,0.044448853,0.2610016,-0.054885864,67.0,0.9780731,1.6383057,9.619232,-0.283432,-0.05834961,-1.0384064,0.07899475,0.057556152,0.91552734,2017-05-16 12:09:56,NaN
-3.2273839,2.5474305,9.222465,0.13433838,-0.042114258,-0.38113403,14.0,-2.731186,2.5622559,9.063431,-0.48320007,0.011978149,0.2528839,-0.02772522,0.19267273,0.7661896,2017-05-16 12:09:57,NaN
-3.083732,2.2601264,8.619126,0.12298584,-0.102264404,-0.039215088,17.0,-3.3270416,2.4096985,8.904739,0.30332947,-0.10784912,-0.4465027,-0.049438477,0.20864868,0.7398834,2017-05-16 12:09:58,NaN
-3.5817258,1.8387469,9.404425,0.1096344,-0.10406494,-0.25219727,24.0,-3.560379,1.6828308,8.981201,-0.04899597,0.12866211,0.33509827,-0.09863281,0.1798706,0.79216003,2017-05-16 12:09:59,NaN
-2.4229321,1.9632454,8.896853,0.1966095,-0.053085327,-0.057540894,14.0,-2.6548004,1.852356,9.256943,0.17590332,0.095336914,-0.30838013,-0.052947998,0.15881348,0.7909088,2017-05-16 12:10:00,NaN
-2.825158,0.81402856,9.193734,0.052490234,-0.15908813,-0.22055054,21.0,-2.9671173,1.2210236,9.266907,0.12046814,-0.34931946,-0.08679199,-0.080947876,0.14479065,0.77256775,2017-05-16 12:10:01,NaN
3.6870706,-0.038307227,8.724471,0.54371643,0.75839233,1.305603,130.0,3.4294891,-0.9925842,9.133652,0.34332275,0.81552124,-0.525589,0.12921143,-0.13272095,0.8542328,2017-05-16 12:10:02,NaN
1.7717092,-1.6759412,9.155427,-1.0540924,0.32565308,1.4086761,144.0,1.7077484,0.17604065,9.655197,0.07650757,-1.8513489,-0.50231934,0.0823822,-0.030548096,0.8935089,2017-05-16 12:10:03,NaN
-0.20111294,-4.4244847,8.935161,-0.2872162,0.0077056885,0.042266846,180.0,-0.13917542,-4.112152,8.901749,-0.06510925,-0.2735901,0.033187866,-0.14068604,-0.16229248,0.75920105,2017-05-16 12:10:04,NaN
0.9959879,-1.8483237,8.829816,0.70906067,-0.12513733,-0.32315063,205.0,0.69577026,-2.8224182,9.365906,0.29849243,0.901947,-0.9485321,-0.053268433,-0.14012146,0.8132019,2017-05-16 12:10:05,NaN
-1.283292,-4.7405195,7.9487495,-0.57536316,0.37924194,-0.23208618,169.0,-1.1466064,-3.7707214,8.979813,-0.22903442,-0.8738098,-1.0119171,-0.17327881,-0.11012268,0.74256897,2017-05-16 12:10:06,NaN
3.074155,0.33518824,9.021352,-0.13105774,0.278656,0.20091248,84.0,3.501358,0.8184662,9.123642,-0.47764587,-0.43710327,-0.011627197,0.1761322,-0.06161499,0.8291168,2017-05-16 12:10:07,NaN
3.9839516,2.8921957,9.078813,0.39509583,-0.42163086,-0.19828796,67.0,3.0641937,1.5879974,9.1792755,0.8448334,1.1088257,-0.18984985,0.17507935,-0.036499023,0.76272583,2017-05-16 12:10:08,NaN
3.4763808,-0.9576807,9.682152,-0.50045776,-0.9507141,0.42384338,148.0,1.8592529,-0.48687744,9.616455,1.6547699,-0.48016357,-0.13670349,0.0639801,-0.07484436,0.8171234,2017-05-16 12:10:09,NaN
7.038953,-0.047884032,10.697293,0.11997986,0.38612366,-0.5697174,141.0,4.3447723,-1.0851288,8.724426,1.1578369,1.0851288,1.3001251,0.11856079,-0.20277405,0.6793213,2017-05-16 12:10:10,NaN
5.1810527,-0.32561144,7.6231384,-0.036758423,0.2519226,-0.041534424,60.0,5.7155457,-0.14846802,7.9674835,-0.10395813,0.08036804,-0.10853577,0.20854187,-0.2242279,0.66619873,2017-05-16 12:10:11,NaN
5.746084,-0.21068975,7.699753,0.019134521,0.044692993,-0.03807068,60.0,5.8792267,-0.26000977,7.844574,-0.11782837,0.06932068,-0.040115356,0.21281433,-0.23396301,0.6687317,2017-05-16 12:10:12,NaN
5.506664,-0.12449849,8.025364,0.050354004,0.034103394,0.03996277,53.0,5.5890045,-0.10707092,8.057404,-0.01828003,0.052597046,-0.07588196,0.20343018,-0.21861267,0.6633911,2017-05-16 12:10:13,NaN
5.841852,-0.08619126,7.795521,-0.035964966,-0.010559082,-0.08532715,53.0,5.867157,-0.101501465,7.857239,-0.024032593,0.006164551,0.042541504,0.21533203,-0.23025513,0.66012573,2017-05-16 12:10:15,NaN
5.985504,0.076614454,7.431602,0.18333435,-0.17825317,0.2520752,49.0,5.9238586,-0.031692505,7.8151855,0.20527649,0.0044403076,-0.46018982,0.2184143,-0.23199463,0.6534271,2017-05-16 12:10:16,NaN
6.157887,0.20111294,7.9008656,-0.024810791,0.2933197,-0.23620605,49.0,6.4594574,-0.072250366,7.378372,-0.330307,0.2765503,0.5486603,0.2390747,-0.2581482,0.6436615,2017-05-16 12:10:17,NaN
6.2345014,-0.08619126,7.422025,-0.029937744,-0.07696533,0.06163025,10.0,6.0507813,0.24302673,7.713562,0.17370605,-0.2975006,-0.23599243,0.24162292,-0.21984863,0.6729584,2017-05-16 12:10:18,NaN
5.889736,-0.1340753,7.824251,-0.046798706,-0.023925781,-0.01423645,102.0,5.956192,-0.0053863525,7.790634,-0.044952393,-0.0899353,0.027435303,0.22424316,-0.22912598,0.6631317,2017-05-16 12:10:19,NaN
6.1195793,-0.35434186,7.5082164,-0.0032958984,-0.020095825,0.054534912,106.0,6.1048737,-0.31448364,7.668228,-0.030197144,-0.06686401,-0.19065857,0.22309875,-0.2434082,0.67271423,2017-05-16 12:10:20,NaN
5.9184666,-0.34476504,7.843405,-0.021224976,0.09933472,-0.1299591,38.0,5.9785004,-0.34597778,7.7658234,-0.053649902,-0.035369873,0.10671997,0.21560669,-0.23991394,0.67230225,2017-05-16 12:10:21,NaN
5.803545,-0.40222588,7.699753,4.4250488E-4,0.011947632,-0.039398193,45.0,5.9020996,-0.3938446,7.8217773,-0.09983826,0.14866638,-0.12628174,0.21099854,-0.23806763,0.6746521,2017-05-16 12:10:22,NaN
6.0046577,-0.7374141,7.680599,0.1985321,-0.050201416,0.2529297,53.0,6.0147705,-0.7615509,7.707962,0.00541687,0.026046753,0.014755249,0.2025299,-0.25686646,0.6736603,2017-05-16 12:10:23,NaN
5.8801594,-0.6607997,7.728483,-0.054977417,0.031448364,-0.03778076,53.0,6.0002747,-0.71762085,7.723465,-0.12991333,0.036590576,0.012878418,0.20628357,-0.25230408,0.6810913,2017-05-16 12:10:24,NaN
5.8705826,-0.7469909,7.651869,0.018859863,0.009384155,0.019821167,53.0,5.9113464,-0.7571869,7.7879944,-0.081832886,0.048934937,-0.11973572,0.19979858,-0.25099182,0.6792755,2017-05-16 12:10:25,NaN
5.7748146,-0.7565677,7.690176,-0.1101532,0.021118164,-0.1516571,53.0,5.8647156,-0.74554443,7.82428,-0.07606506,-0.017166138,-0.0743103,0.19769287,-0.2489624,0.6784973,2017-05-16 12:10:26,NaN
5.8322754,-0.79487497,7.747637,0.050811768,0.026947021,0.064086914,56.0,5.9334717,-0.8288574,7.7638245,-0.10397339,0.025253296,-0.04109192,0.19937134,-0.25376892,0.6820679,2017-05-16 12:10:27,NaN
5.9280434,-0.90979666,7.699753,-0.051101685,0.012878418,-0.040878296,56.0,5.927719,-0.8480072,7.766159,-0.03010559,-0.06454468,-0.09790039,0.19747925,-0.25500488,0.67970276,2017-05-16 12:10:28,NaN
5.861006,-0.93852705,7.632715,-0.12562561,0.0043640137,-0.15907288,56.0,5.9183655,-0.8905792,7.768524,-0.04800415,-0.008346558,-0.18199158,0.19480896,-0.25682068,0.677948,2017-05-16 12:10:29,NaN
5.8801594,-0.92895025,7.651869,-0.0016021729,-0.027770996,0.008560181,60.0,5.9125214,-0.909256,7.770813,-0.0012817383,-0.057769775,-0.11618042,0.19638062,-0.2554016,0.68440247,2017-05-16 12:10:30,NaN
5.90889,-0.9959879,7.699753,0.0071411133,-0.012969971,0.059951782,56.0,5.95076,-0.94155884,7.7377167,-0.0940094,-0.052719116,-0.02859497,0.19317627,-0.26107788,0.6744385,2017-05-16 12:10:31,NaN
5.8705826,-0.8619126,7.73806,-0.087127686,0.022766113,-0.11979675,60.0,5.903763,-0.8998871,7.778549,-0.01977539,0.041793823,-0.08305359,0.19468689,-0.2559204,0.6802826,2017-05-16 12:10:32,NaN
5.899313,-0.89064306,7.690176,-0.027145386,-0.016708374,-0.015960693,60.0,5.8878174,-0.9030304,7.790268,0.009780884,-0.023132324,-0.10839844,0.19462585,-0.25479126,0.68244934,2017-05-16 12:10:33,NaN
5.793968,-0.842759,7.6614456,-0.03845215,-0.018081665,-0.039794922,63.0,5.900055,-0.93977356,7.776642,-0.09779358,0.02720642,-0.13563538,0.19396973,-0.25665283,0.6826172,2017-05-16 12:10:34,NaN
5.765238,-0.89064306,7.651869,-0.016174316,-7.6293945E-5,-0.02418518,63.0,5.900589,-0.96777344,7.772812,-0.16641235,0.109680176,-0.09094238,0.19462585,-0.25654602,0.6867218,2017-05-16 12:10:35,NaN
5.813122,-1.0055647,7.680599,-0.11898804,0.037399292,-0.14671326,60.0,5.8886566,-1.046051,7.7717285,-0.059143066,-0.029937744,-0.035369873,0.19055176,-0.25968933,0.6849365,2017-05-16 12:10:36,NaN
5.7365074,-0.9576807,7.7667904,0.0055236816,0.009994507,0.009002686,60.0,5.861969,-1.0676575,7.7889404,-0.10055542,0.08699036,0.001876831,0.18814087,-0.25975037,0.68408203,2017-05-16 12:10:37,NaN
5.793968,-1.0534488,7.73806,0.009353638,-0.0035095215,0.027145386,60.0,5.8716125,-1.048996,7.78421,-0.055725098,-0.013366699,-0.06147766,0.18884277,-0.2597046,0.6829834,2017-05-16 12:10:38,NaN
5.765238,-0.9768343,7.833828,0.100479126,0.038635254,0.109451294,53.0,5.8421783,-1.0041046,7.8122253,-0.08076477,0.0234375,-0.0077667236,0.19047546,-0.2557373,0.6867218,2017-05-16 12:10:39,NaN
5.755661,-0.9768343,7.929596,0.060775757,-0.005584717,0.08287048,53.0,5.7397766,-0.9357605,7.896164,-0.032852173,-0.03126526,-0.023605347,0.19107056,-0.24676514,0.6949463,2017-05-16 12:10:40,NaN
5.6790466,-0.92895025,7.929596,0.02166748,-0.0079193115,0.053451538,56.0,5.705612,-0.9295807,7.921631,0.014923096,-0.03744507,-0.089920044,0.18692017,-0.24731445,0.6877594,2017-05-16 12:10:41,NaN
5.659893,-0.8714894,7.73806,-0.061157227,-0.004196167,-0.08395386,56.0,5.7078094,-0.93881226,7.9189453,-0.041748047,0.026245117,-0.114486694,0.18714905,-0.24742126,0.6889343,2017-05-16 12:10:42,NaN
5.5641246,-0.89064306,7.9391727,0.09188843,-0.015197754,0.097717285,60.0,5.682358,-0.9423065,7.9368134,-0.1116333,0.029754639,-0.009780884,0.18682861,-0.24581909,0.69166565,2017-05-16 12:10:43,NaN
5.5737014,-0.92895025,7.8625584,0.015029907,0.028274536,0.015655518,53.0,5.6323395,-0.9198761,7.975006,-0.10247803,0.020935059,-0.14331055,0.18562317,-0.24273682,0.692749,2017-05-16 12:10:44,NaN
5.5641246,-0.9959879,7.795521,0.017105103,-0.041992188,0.03593445,56.0,5.6408844,-1.0241699,7.956238,-0.07015991,0.043502808,-0.15177917,0.1817627,-0.24758911,0.69114685,2017-05-16 12:10:45,NaN
5.3821654,-1.0342951,7.967903,-0.015426636,0.008972168,0.03652954,53.0,5.5305634,-1.0007324,8.03627,-0.08242798,-0.061645508,-0.068359375,0.1804657,-0.2401886,0.69955444,2017-05-16 12:10:46,NaN
5.4300494,-1.0534488,8.015787,-0.015563965,0.05003357,-0.04309082,60.0,5.4796753,-1.0655823,8.062744,-0.045166016,0.003189087,-0.040359497,0.17356873,-0.2424469,0.69355774,2017-05-16 12:10:47,NaN
5.45878,-1.1300632,8.169016,-0.0061950684,0.007843018,-0.08428955,60.0,5.447891,-1.0618134,8.084763,0.068344116,-0.055038452,0.1282959,0.17245483,-0.24092102,0.6942291,2017-05-16 12:10:48,NaN
5.3342814,-1.0821792,8.082825,-0.010131836,0.017959595,-0.029083252,63.0,5.4634247,-1.095108,8.069809,-0.15148926,0.046340942,-0.020187378,0.17131042,-0.24331665,0.69229126,2017-05-16 12:10:49,NaN
5.391742,-1.13964,8.034941,0.0019989014,0.013442993,0.0049438477,63.0,5.462784,-1.1355591,8.0646515,-0.08274841,0.018692017,0.025817871,0.17094421,-0.2441101,0.6952362,2017-05-16 12:10:50,NaN
5.48751,-1.1779473,7.9008656,-0.0022125244,0.01411438,-0.014633179,63.0,5.468292,-1.1697693,8.05603,-0.03378296,0.012039185,-0.12898254,0.16621399,-0.24824524,0.6850891,2017-05-16 12:10:51,NaN
5.506664,-1.3024458,8.015787,0.030456543,-1.0681152E-4,0.049621582,63.0,5.5141296,-1.2623444,8.010681,-0.038742065,-0.031570435,-0.029159546,0.16867065,-0.2512207,0.694458,2017-05-16 12:10:52,NaN
5.5162406,-1.3024458,7.9870567,0.0,0.0,0.0,67.0,5.521179,-1.2581635,8.006485,-0.018554688,-0.008514404,-0.038589478,0.16871643,-0.25161743,0.69332886,2017-05-16 12:10:53,NaN
5.439626,-1.2258313,7.9583263,-0.0099487305,0.01524353,-0.03366089,67.0,5.5095825,-1.2772675,8.011444,-0.034194946,0.051437378,0.024536133,0.1691742,-0.25080872,0.69766235,2017-05-16 12:10:54,NaN
5.410896,-1.2641385,8.00621,-0.031570435,0.016052246,-0.04576111,67.0,5.4880524,-1.2406158,8.031952,-0.08076477,-0.012435913,-0.0640564,0.16636658,-0.2505951,0.689682,2017-05-16 12:10:55,NaN
5.449203,-1.2449849,8.025364,0.0,0.0,0.0,67.0,5.5031433,-1.2604675,8.018539,-0.027755737,0.021011353,-0.009765625,0.16641235,-0.25193787,0.6897583,2017-05-16 12:10:56,NaN
5.209783,-0.9576807,8.0924015,-0.097854614,-0.046676636,-0.14459229,60.0,5.101654,-0.84532166,8.332397,0.046829224,-0.1353302,-0.2010498,0.16104126,-0.2218628,0.6845398,2017-05-16 12:10:57,NaN
5.2768207,-1.1109096,8.0924015,-0.014038086,0.008773804,-0.05909729,56.0,5.372574,-1.137558,8.124756,-0.115112305,0.047943115,-0.03427124,0.1661377,-0.24113464,0.6938324,2017-05-16 12:10:58,NaN
5.21936,-1.1875241,8.0924015,-0.011123657,-0.010040283,0.070755005,60.0,5.3204346,-1.130249,8.160004,-0.06298828,-0.06832886,-0.15124512,0.16329956,-0.2393341,0.6919403,2017-05-16 12:10:59,NaN
5.353435,-1.2258313,8.0924015,-0.005844116,-0.03378296,0.009780884,60.0,5.3430176,-1.2075653,8.13414,0.009765625,-0.004638672,-0.11175537,0.16313171,-0.2421875,0.6960144,2017-05-16 12:11:00,NaN
5.3821654,-1.292869,8.130709,0.0,0.0,0.0,60.0,5.3787994,-1.2130737,8.109695,0.0012207031,-0.067214966,0.008010864,0.16119385,-0.24601746,0.68685913,2017-05-16 12:11:01,NaN
5.3247046,-1.2449849,8.073248,0.024642944,-0.021697998,0.043441772,60.0,5.3667755,-1.2546997,8.111328,-0.06846619,0.01524353,-0.048080444,0.1612091,-0.24584961,0.69229126,2017-05-16 12:11:02,NaN
5.2863975,-1.2354081,8.0445175,0.0,0.0,0.0,60.0,5.3276978,-1.244873,8.138565,-0.097473145,0.019042969,-0.020828247,0.16018677,-0.24368286,0.69348145,2017-05-16 12:11:03,NaN
5.353435,-1.2737153,7.9870567,-0.031982422,0.0014190674,-0.005844116,60.0,5.326706,-1.2572327,8.137299,-0.014770508,0.01777649,-0.11491394,0.15887451,-0.24467468,0.69125366,2017-05-16 12:11:04,NaN
5.315128,-1.2354081,7.967903,0.016616821,0.0014038086,0.037643433,60.0,5.3377533,-1.2733612,8.127563,-0.05305481,0.0066833496,-0.13241577,0.15992737,-0.24501038,0.69421387,2017-05-16 12:11:05,NaN
5.315128,-1.292869,8.111555,0.024642944,-0.012298584,0.062469482,60.0,5.3449097,-1.2686768,8.123581,0.007858276,-0.052474976,-0.005844116,0.15951538,-0.24568176,0.6917877,2017-05-16 12:11:06,NaN
5.2768207,-1.3120226,8.0445175,0.0,0.0,0.0,60.0,5.314041,-1.2513428,8.146484,-0.04296875,-0.05619812,-0.11048889,0.1590271,-0.24362183,0.6926727,2017-05-16 12:11:07,NaN
5.3725886,-1.3694834,8.063671,-0.050430298,0.0135650635,-0.050048828,60.0,5.361664,-1.313446,8.105408,-0.008865356,-0.034957886,-0.055786133,0.15872192,-0.2480774,0.69177246,2017-05-16 12:11:08,NaN
5.410896,-1.3599066,8.063671,-0.014053345,-0.004272461,-0.014404297,60.0,5.3746033,-1.3083344,8.097656,0.005432129,-0.05369568,-0.12976074,0.15763855,-0.2495575,0.6868286,2017-05-16 12:11:09,NaN
5.363012,-1.340753,8.0924015,-0.073516846,0.027496338,-0.11268616,60.0,5.3584595,-1.3168945,8.106964,-0.0056610107,-0.0178833,-0.016479492,0.15823364,-0.24821472,0.6912079,2017-05-16 12:11:10,NaN
5.267244,-1.340753,8.073248,0.014083862,-0.012130737,0.022399902,60.0,5.322983,-1.2866516,8.135147,-0.0382843,-0.03451538,-0.031036377,0.15872192,-0.24499512,0.69407654,2017-05-16 12:11:11,NaN
5.2863975,-1.3120226,7.9966335,-0.057403564,0.0012512207,-0.100250244,60.0,5.338974,-1.2922058,8.123779,-0.06790161,0.011886597,-0.10139465,0.15957642,-0.24562073,0.6949005,2017-05-16 12:11:12,NaN
5.2959743,-1.3120226,8.025364,0.07899475,-0.017028809,0.1157074,60.0,5.335083,-1.3119354,8.123169,-0.03677368,0.03161621,-0.0871582,0.15653992,-0.24763489,0.6890869,2017-05-16 12:11:13,NaN
5.3342814,-1.3024458,8.101978,0.1028595,-0.027832031,0.20401001,60.0,5.3612366,-1.3289642,8.103165,-0.06291199,0.007797241,-0.05354309,0.15939331,-0.24787903,0.6950226,2017-05-16 12:11:14,NaN
3.3614593,-1.7621324,7.9391727,-0.039154053,0.21861267,-0.22421265,60.0,5.2675323,-1.4741974,8.139404,-1.331253,0.30285645,-0.21237183,0.15835571,-0.2447815,0.7167969,2017-05-16 12:11:15,NaN
5.305551,-1.3503298,8.149862,0.0072021484,0.01713562,-0.022399902,60.0,5.357544,-1.3051605,8.109467,-0.08647156,-0.04322815,-0.046218872,0.15847778,-0.247818,0.69085693,2017-05-16 12:11:16,NaN
5.3438582,-1.3215994,8.025364,0.0,0.0,0.0,60.0,5.3637238,-1.3311462,8.1011505,-0.024551392,0.009979248,-0.07876587,0.15710449,-0.24954224,0.6888733,2017-05-16 12:11:17,NaN
5.3342814,-1.3215994,8.0924015,-0.007522583,-0.0032196045,0.012023926,60.0,5.350754,-1.336792,8.108795,0.002029419,0.0019836426,-0.045562744,0.16160583,-0.24584961,0.7028961,2017-05-16 12:11:18,NaN
5.305551,-1.283292,8.063671,0.14909363,-0.017044067,0.21870422,60.0,5.2789307,-1.296524,8.162247,-0.021469116,0.016204834,-0.071746826,0.15623474,-0.24377441,0.69377136,2017-05-16 12:11:19,NaN
5.257667,-1.3599066,8.00621,-0.05848694,-7.324219E-4,-0.0871582,60.0,5.3113556,-1.3500977,8.132462,5.645752E-4,-0.06640625,-0.082839966,0.15505981,-0.24760437,0.6916199,2017-05-16 12:11:20,NaN
5.410896,-1.4939818,8.1881695,0.09931946,-0.03665161,0.15953064,60.0,5.349457,-1.3795776,8.102493,-0.010269165,-0.06416321,0.096954346,0.1569519,-0.24949646,0.6946869,2017-05-16 12:11:21,NaN
5.2768207,-1.4173675,8.063671,0.04185486,0.00340271,0.04031372,60.0,5.350342,-1.4385986,8.091629,-0.09288025,0.022079468,-0.014755249,0.15434265,-0.25221252,0.6930847,2017-05-16 12:11:22,NaN
5.2863975,-1.4556746,8.226477,0.016677856,0.0024414063,0.04524231,60.0,5.311325,-1.3951721,8.124878,-0.026626587,-0.048568726,-0.04800415,0.1525116,-0.24995422,0.6890564,2017-05-16 12:11:23,NaN
5.3342814,-1.4173675,8.073248,-0.083969116,-0.0019836426,-0.13157654,60.0,5.33786,-1.4143066,8.104141,-0.025924683,0.025039673,-0.08175659,0.15458679,-0.25079346,0.69306946,2017-05-16 12:11:24,NaN
5.353435,-1.5227122,8.034941,-0.021728516,0.0090789795,-0.017105103,60.0,5.3224335,-1.436676,8.110352,0.030349731,-0.088775635,0.0073547363,0.1519928,-0.25175476,0.690155,2017-05-16 12:11:25,NaN
5.3247046,-1.4460979,8.015787,0.08705139,-0.00730896,0.0965271,60.0,5.3371735,-1.4533386,8.097687,-0.025238037,0.0095825195,-0.08892822,0.15278625,-0.25254822,0.69195557,2017-05-16 12:11:26,NaN
5.2768207,-1.3599066,8.063671,0.0057525635,5.0354004E-4,-0.024536133,60.0,5.308731,-1.4019623,8.125397,-0.024032593,-9.3078613E-4,-0.03491211,0.15457153,-0.24864197,0.6954346,2017-05-16 12:11:27,NaN
5.3438582,-1.436521,8.063671,0.018096924,-0.012512207,0.019042969,60.0,5.3259583,-1.4233398,8.110397,0.013198853,-0.04763794,-0.04714966,0.15356445,-0.25079346,0.6926575,2017-05-16 12:11:28,NaN
5.2863975,-1.4460979,8.082825,0.049804688,0.010955811,0.06463623,60.0,5.3339844,-1.449997,8.100388,-0.076538086,0.033477783,-0.06437683,0.15397644,-0.2515564,0.69514465,2017-05-16 12:11:29,NaN
5.2959743,-1.4652514,8.101978,-0.005844116,-0.0056915283,-0.012054443,63.0,5.317581,-1.4416199,8.112656,-0.03288269,-0.056610107,-0.008544922,0.1533966,-0.25065613,0.69487,2017-05-16 12:11:30,NaN
5.2002063,-1.3790601,8.0924015,0.013259888,-0.006286621,0.038467407,63.0,5.2747955,-1.4364471,8.141464,-0.126297,0.03353882,-0.09182739,0.152771,-0.24810791,0.6979828,2017-05-16 12:11:31,NaN
5.2480903,-1.4173675,8.0445175,0.027404785,-0.028015137,0.055908203,60.0,5.310562,-1.4380646,8.117889,-0.025863647,-0.0056762695,-0.054641724,0.15319824,-0.2502594,0.69487,2017-05-16 12:11:32,NaN
5.2959743,-1.3982137,8.0445175,0.0,0.0,0.0,63.0,5.3189697,-1.4552765,8.109314,-0.04788208,0.07962036,-0.08692932,0.15118408,-0.2523346,0.6901703,2017-05-16 12:11:33,NaN
5.267244,-1.4269443,8.063671,-0.08163452,0.016525269,-0.10110474,63.0,5.3121033,-1.47258,8.110687,-0.06826782,0.04244995,-0.11553955,0.15248108,-0.25141907,0.69592285,2017-05-16 12:11:34,NaN
5.2480903,-1.3982137,7.9870567,-0.0059661865,-0.013244629,-7.4768066E-4,63.0,5.2680054,-1.4259796,8.14769,-0.06503296,0.023086548,-0.11167908,0.15211487,-0.24786377,0.69610596,2017-05-16 12:11:35,NaN
5.257667,-1.4269443,8.111555,-0.06289673,0.013504028,-0.08164978,60.0,5.310196,-1.4349213,8.118683,-0.052749634,-0.022445679,-9.460449E-4,0.15548706,-0.24876404,0.70062256,2017-05-16 12:11:36,NaN
5.353435,-1.4460979,8.034941,-0.075531006,-0.0043792725,-0.107940674,63.0,5.3052216,-1.4573212,8.11795,0.0066986084,-0.027282715,-0.05470276,0.15426636,-0.24958801,0.70007324,2017-05-16 12:11:37,NaN
5.3247046,-1.4077905,8.034941,-0.009796143,0.010025024,-0.015060425,63.0,5.31015,-1.4736328,8.111771,-0.01184082,0.029876709,-0.062149048,0.15065002,-0.2524109,0.6914978,2017-05-16 12:11:38,NaN
5.1810527,-1.3599066,8.073248,0.01725769,-0.021820068,0.021942139,63.0,5.262085,-1.448288,8.147583,-0.04550171,0.059005737,-0.111572266,0.15065002,-0.2487793,0.6950073,2017-05-16 12:11:39,NaN
5.2289367,-1.4556746,8.063671,0.0,0.0,0.0,63.0,5.2985992,-1.4622345,8.121384,-0.12287903,0.032104492,-0.085372925,0.15075684,-0.2513733,0.6921234,2017-05-16 12:11:40,NaN
5.2385135,-1.4460979,8.0445175,-0.013137817,0.025650024,-0.029388428,63.0,5.3056793,-1.4753723,8.11438,-0.08908081,0.03161621,-0.10562134,0.15304565,-0.2507019,0.6984558,2017-05-16 12:11:41,NaN
5.267244,-1.4556746,8.0924015,-0.025405884,0.0101623535,-0.07148743,63.0,5.2994843,-1.4803925,8.117523,-0.042037964,0.050247192,-0.027023315,0.15208435,-0.25097656,0.69711304,2017-05-16 12:11:42,NaN
5.2480903,-1.4460979,8.121132,-0.029953003,0.009429932,-0.07885742,63.0,5.259552,-1.4581604,8.147461,-0.04295349,0.041641235,-0.17955017,0.14906311,-0.2497406,0.6920471,2017-05-16 12:11:43,NaN
5.257667,-1.4269443,8.063671,-0.064437866,0.019714355,-0.08306885,63.0,5.2700806,-1.4649963,8.13942,-0.080718994,0.021240234,-0.10342407,0.14907837,-0.25054932,0.69140625,2017-05-16 12:11:44,NaN
5.267244,-1.5035586,8.121132,0.0054473877,-0.009933472,0.009124756,63.0,5.281021,-1.4645844,8.1324005,-0.05079651,-0.04725647,-0.014678955,0.15151978,-0.24978638,0.6964874,2017-05-16 12:11:45,NaN
5.305551,-1.484405,8.00621,0.0,0.0,0.0,63.0,5.291336,-1.4780273,8.1232605,-0.006652832,-0.033813477,-0.073638916,0.15107727,-0.25099182,0.695282,2017-05-16 12:11:46,NaN
5.267244,-1.4460979,8.101978,-0.018753052,-0.001449585,-0.022216797,63.0,5.2936096,-1.4378052,8.128998,-0.04977417,0.02128601,-0.10661316,0.15242004,-0.24960327,0.69485474,2017-05-16 12:11:47,NaN
5.21936,-1.4748282,8.1402855,9.1552734E-4,0.018966675,0.036514282,60.0,5.283371,-1.4403839,8.135193,-0.06678772,-0.030593872,-0.0038452148,0.15124512,-0.24967957,0.69325256,2017-05-16 12:11:48,NaN
5.257667,-1.4269443,8.025364,4.8828125E-4,-0.025680542,0.043395996,60.0,5.269638,-1.4491272,8.142548,-0.012176514,-0.008239746,-0.120162964,0.15078735,-0.24920654,0.69451904,2017-05-16 12:11:49,NaN
5.209783,-1.4556746,8.0445175,0.0,0.0,0.0,60.0,5.2837067,-1.4900208,8.126038,-0.067108154,0.059890747,-0.103652954,0.15078735,-0.250885,0.69654846,2017-05-16 12:11:50,NaN
5.21936,-1.436521,7.97748,0.01725769,0.009155273,0.048706055,63.0,5.269699,-1.4511414,8.142151,-0.025863647,0.04824829,-0.18786621,0.14970398,-0.24989319,0.69184875,2017-05-16 12:11:51,NaN
5.2480903,-1.4748282,8.111555,0.0,0.0,0.0,63.0,5.2352753,-1.493103,8.156754,0.008544922,0.022109985,-0.052642822,0.14738464,-0.24978638,0.6937256,2017-05-16 12:11:52,NaN
5.2289367,-1.484405,8.054094,0.060775757,-0.022354126,0.06858826,63.0,5.240387,-1.5435791,8.1440735,-0.023803711,0.031723022,-0.080825806,0.1481018,-0.25065613,0.69955444,2017-05-16 12:11:53,NaN
5.2385135,-1.484405,8.082825,0.032287598,-0.019958496,0.033187866,63.0,5.254196,-1.5414734,8.135574,-0.037597656,0.04324341,-0.017837524,0.1463623,-0.25253296,0.69317627,2017-05-16 12:11:54,NaN
5.257667,-1.6376339,8.063671,-0.013214111,6.2561035E-4,-0.025726318,63.0,5.265442,-1.5191193,8.132492,-0.0079956055,-0.11531067,-0.069244385,0.14787292,-0.25196838,0.6937256,2017-05-16 12:11:55,NaN
5.1523223,-1.5227122,8.197746,0.034484863,0.028961182,0.02267456,63.0,5.2381897,-1.5189362,8.150116,-0.10331726,0.034317017,0.035705566,0.14744568,-0.25042725,0.69589233,2017-05-16 12:11:56,NaN
5.161899,-1.5897499,8.082825,-0.057876587,0.010238647,-0.04977417,63.0,5.256958,-1.5276489,8.136398,-0.040359497,-0.05229187,-0.073150635,0.14807129,-0.25144958,0.6960602,2017-05-16 12:11:57,NaN
5.21936,-1.532289,8.082825,0.07649231,-0.02268982,0.10986328,63.0,5.2492676,-1.5363617,8.139709,-0.019058228,0.024505615,-0.11732483,0.14505005,-0.25286865,0.68984985,2017-05-16 12:11:58,NaN
5.2289367,-1.4939818,8.054094,0.047027588,-0.020858765,0.089141846,63.0,5.2770996,-1.5308075,8.122757,-0.0741272,-0.008270264,-0.059509277,0.1487732,-0.2524109,0.69573975,2017-05-16 12:11:59,NaN
5.2289367,-1.4939818,8.1402855,-0.025238037,1.9836426E-4,-0.052459717,63.0,5.2380066,-1.4973602,8.154221,-0.02142334,0.026367188,-0.036499023,0.15023804,-0.24833679,0.7013092,2017-05-16 12:12:00,NaN
5.1523223,-1.4652514,8.034941,-0.09718323,0.02218628,-0.15820313,63.0,5.247696,-1.5453186,8.139038,-0.05834961,0.07432556,-0.14389038,0.14620972,-0.25227356,0.69389343,2017-05-16 12:12:01,NaN
5.1810527,-1.5610195,8.054094,-0.0061798096,-0.0021972656,0.03187561,63.0,5.2490234,-1.5675201,8.133926,-0.10054016,0.028411865,-0.07067871,0.14830017,-0.2515564,0.7011566,2017-05-16 12:12:02,NaN
5.171476,-1.6184803,8.111555,-0.046951294,0.014144897,-0.07371521,63.0,5.222519,-1.564209,8.151611,0.007675171,-0.02935791,-0.03387451,0.14439392,-0.25204468,0.6938782,2017-05-16 12:12:03,NaN
5.1523223,-1.5131354,8.197746,0.024490356,-0.015365601,0.0836792,63.0,5.202133,-1.49646,8.177322,-0.026397705,-0.042617798,-0.018722534,0.14399719,-0.2496643,0.68907166,2017-05-16 12:12:04,NaN
5.161899,-1.5705963,8.073248,0.07072449,-0.0284729,0.11328125,63.0,5.242981,-1.5495453,8.141266,-0.053634644,0.02406311,-0.1733551,0.14486694,-0.25282288,0.6913452,2017-05-16 12:12:05,NaN
5.21936,-1.5514427,8.149862,-0.008575439,-0.01449585,0.040283203,63.0,5.2401886,-1.5431366,8.144272,0.017242432,0.004043579,-0.05378723,0.1462555,-0.25172424,0.69470215,2017-05-16 12:12:06,NaN
5.2002063,-1.541866,8.0924015,0.01272583,0.012466431,0.023010254,63.0,5.247879,-1.5644684,8.135254,-0.031280518,0.011749268,-0.044769287,0.14619446,-0.2526703,0.6955414,2017-05-16 12:12:07,NaN
5.133168,-1.5035586,8.073248,-0.0050964355,-0.0048980713,-0.019317627,63.0,5.221863,-1.5081329,8.162598,-0.059753418,0.037139893,-0.099349976,0.14572144,-0.25016785,0.69233704,2017-05-16 12:12:08,NaN
5.2385135,-1.6184803,8.00621,-0.040878296,-0.0050811768,-0.05039978,63.0,5.2413635,-1.5309906,8.145813,-0.024780273,-0.10343933,-0.109802246,0.14627075,-0.2515564,0.69351196,2017-05-16 12:12:09,NaN
5.1810527,-1.5227122,8.073248,0.07662964,-0.02507019,0.10923767,63.0,5.227936,-1.5716248,8.146713,-0.052215576,0.07337952,-0.05621338,0.1444397,-0.2525177,0.6940155,2017-05-16 12:12:10,NaN
5.1235914,-1.5610195,8.149862,0.017303467,-0.0054626465,0.009429932,63.0,5.2313232,-1.5693512,8.144974,-0.08282471,0.03024292,0.013595581,0.14674377,-0.25135803,0.69940186,2017-05-16 12:12:11,NaN
5.2002063,-1.532289,8.101978,-0.16426086,0.056915283,-0.26339722,63.0,5.1922455,-1.5527802,8.173111,0.03794861,-0.013549805,-0.028137207,0.1428833,-0.25073242,0.6925049,2017-05-16 12:12:12,NaN
5.171476,-1.541866,8.0445175,-0.028015137,0.0110321045,-0.034805298,63.0,5.195648,-1.5767975,8.166351,-0.04714966,0.037704468,-0.048614502,0.14459229,-0.2504425,0.6987457,2017-05-16 12:12:13,NaN
5.171476,-1.532289,8.063671,0.12591553,-0.081726074,0.24819946,63.0,5.2141266,-1.589798,8.152023,-0.06564331,0.023468018,-0.12963867,0.14131165,-0.2537384,0.68914795,2017-05-16 12:12:14,NaN
5.2289367,-1.6089035,8.073248,0.0,0.0,0.0,63.0,5.229538,-1.5976563,8.14061,-0.04019165,-0.03677368,-0.06375122,0.14393616,-0.25341797,0.69487,2017-05-16 12:12:15,NaN
5.0661306,-1.5993267,8.054094,0.0027160645,0.018951416,0.007171631,63.0,5.2161713,-1.588913,8.150894,-0.04043579,-0.01828003,-0.060409546,0.14405823,-0.25230408,0.69599915,2017-05-16 12:12:16,NaN
5.161899,-1.532289,8.073248,-0.07246399,0.020950317,-0.12277222,63.0,5.1869507,-1.588913,8.169525,-0.079315186,0.077056885,-0.06541443,0.1425476,-0.25128174,0.6955719,2017-05-16 12:12:17,NaN
5.2289367,-1.6184803,8.226477,0.017059326,-0.005279541,0.017791748,63.0,5.230728,-1.6081848,8.137772,-0.08224487,-0.026245117,0.048034668,0.14361572,-0.25387573,0.6948242,2017-05-16 12:12:18,NaN
5.171476,-1.541866,8.034941,-0.059143066,0.019866943,-0.09832764,63.0,5.2273254,-1.5946808,8.142624,-0.1060791,0.06919861,-0.12023926,0.1446228,-0.25282288,0.69662476,2017-05-16 12:12:19,NaN
5.2959743,-1.5993267,8.2169,-0.015914917,0.029556274,-0.062408447,63.0,5.2323914,-1.604065,8.137527,-0.029418945,0.024108887,0.021057129,0.1458435,-0.25263977,0.70002747,2017-05-16 12:12:20,NaN
5.1810527,-1.5897499,8.073248,-0.017791748,0.0037841797,-0.017211914,63.0,5.181839,-1.551239,8.179993,0.0074920654,-0.04232788,-0.021408081,0.14329529,-0.24980164,0.69470215,2017-05-16 12:12:21,NaN
5.161899,-1.5993267,8.111555,-0.027954102,-0.0021972656,-0.0622406,63.0,5.202133,-1.590271,8.159592,-0.053634644,-0.016921997,-0.082733154,0.14419556,-0.25135803,0.6981354,2017-05-16 12:12:22,NaN
5.1906295,-1.6759412,8.082825,-0.05923462,0.024047852,-0.068573,63.0,5.201065,-1.6309814,8.152237,-0.011703491,-0.044311523,-0.07537842,0.14160156,-0.2535553,0.6951752,2017-05-16 12:12:23,NaN
5.133168,-1.5705963,8.082825,-0.069885254,0.021636963,-0.10368347,63.0,5.2186127,-1.6328278,8.1406555,-0.09736633,0.039245605,-0.118270874,0.1421814,-0.25439453,0.6947479,2017-05-16 12:12:24,NaN
5.085284,-1.5610195,8.1881695,0.03352356,-0.012939453,0.054275513,63.0,5.1658173,-1.5942383,8.1818695,-0.07180786,0.014282227,-0.06413269,0.1401062,-0.2514038,0.6921387,2017-05-16 12:12:25,NaN
5.094861,-1.6663644,8.0924015,0.01902771,0.0034637451,0.0074005127,63.0,5.182953,-1.6301575,8.163925,-0.061706543,-0.0178833,-0.046203613,0.14144897,-0.25247192,0.6968689,2017-05-16 12:12:26,NaN
5.21936,-1.6376339,8.0924015,0.008453369,-0.040100098,0.029373169,63.0,5.1936646,-1.618866,8.159378,-0.031555176,-0.029174805,-0.08250427,0.14024353,-0.25360107,0.69140625,2017-05-16 12:12:27,NaN
5.161899,-1.6472107,8.130709,0.015060425,0.010040283,0.009780884,63.0,5.206787,-1.6607666,8.142563,-0.058288574,0.02633667,0.01600647,0.14038086,-0.2552185,0.69395447,2017-05-16 12:12:28,NaN
5.161899,-1.6280571,8.159439,0.07948303,-0.020263672,0.12710571,63.0,5.1489716,-1.6305542,8.185333,-0.02772522,-0.04473877,-0.081222534,0.13995361,-0.2511444,0.697052,2017-05-16 12:12:29,NaN
5.0182467,-1.532289,8.1881695,0.0650177,-0.04156494,0.12428284,60.0,5.107773,-1.5830231,8.220398,-0.10910034,0.030303955,-0.08905029,0.14160156,-0.24661255,0.7020874,2017-05-16 12:12:30,NaN
5.1140146,-1.6663644,8.111555,0.010299683,-0.017166138,0.015304565,60.0,5.124161,-1.6462708,8.197739,0.010696411,-0.0017700195,-0.09364319,0.13909912,-0.25035095,0.6992035,2017-05-16 12:12:31,NaN
5.085284,-1.5705963,8.169016,-0.066329956,0.037704468,-0.14595032,60.0,5.108856,-1.6467133,8.207199,-0.014846802,0.012268066,-0.06222534,0.13465881,-0.2518158,0.68940735,2017-05-16 12:12:32,NaN
5.0374002,-1.6089035,8.1881695,0.011291504,-0.004837036,0.033462524,60.0,5.0730896,-1.6378021,8.231125,-0.047180176,0.05784607,-0.11340332,0.13757324,-0.24778748,0.7005768,2017-05-16 12:12:33,NaN
5.0278234,-1.5514427,8.178593,0.02558899,-0.045455933,0.048614502,60.0,5.074005,-1.6855316,8.220932,-0.0617218,0.17367554,-0.14405823,0.13467407,-0.250412,0.6971283,2017-05-16 12:12:34,NaN
5.1235914,-1.7429788,8.111555,-0.034317017,0.0021820068,-0.04698181,60.0,5.102661,-1.7044983,8.199249,0.045822144,-0.038879395,-0.013427734,0.13685608,-0.25143433,0.7010956,2017-05-16 12:12:35,NaN
5.142745,-1.7238252,8.121132,-0.023345947,0.01083374,-0.071121216,60.0,5.1007385,-1.6982574,8.201736,-0.047592163,0.050201416,-0.070388794,0.13819885,-0.2504425,0.70425415,2017-05-16 12:12:36,NaN
5.056554,-1.6663644,8.101978,0.010406494,-0.0038604736,0.017318726,60.0,5.079193,-1.7091675,8.212845,-0.012420654,0.020233154,-0.09510803,0.13365173,-0.25177002,0.6959686,2017-05-16 12:12:37,NaN
5.046977,-1.6089035,8.121132,-0.011001587,0.015823364,-0.021331787,60.0,5.078003,-1.6530914,8.225052,-0.052093506,0.045898438,-0.12094116,0.13650513,-0.24899292,0.6985626,2017-05-16 12:12:38,NaN
5.0374002,-1.685518,8.149862,0.036315918,-0.01638794,0.08299255,60.0,5.0745087,-1.671936,8.223389,-0.048599243,-0.0033569336,-0.105667114,0.13415527,-0.2504425,0.6944885,2017-05-16 12:12:39,NaN
5.046977,-1.7046716,8.274361,0.0020599365,-0.015579224,0.03804016,60.0,5.0882874,-1.6957245,8.209991,-0.03514099,-0.00680542,-0.03778076,0.13424683,-0.25175476,0.6952362,2017-05-16 12:12:40,NaN
4.9703627,-1.5993267,8.0924015,0.0,0.0,0.0,60.0,5.0676575,-1.6875458,8.224426,-0.13710022,0.13482666,-0.14755249,0.13308716,-0.25090027,0.6938782,2017-05-16 12:12:41,NaN
5.0278234,-1.6663644,8.255207,-0.06388855,0.016296387,-0.100616455,63.0,5.0317993,-1.6658325,8.250824,-0.019500732,0.03138733,-0.06500244,0.13278198,-0.24836731,0.69540405,2017-05-16 12:12:42,NaN
5.056554,-1.733402,8.197746,-0.056381226,0.037384033,-0.10333252,63.0,5.039093,-1.6769867,8.24411,4.272461E-4,-0.025543213,-0.07191467,0.13235474,-0.24928284,0.6944275,2017-05-16 12:12:43,NaN
5.085284,-1.8100165,8.207323,0.019256592,-0.026153564,0.03855896,60.0,5.04805,-1.6741943,8.239197,0.032318115,-0.08282471,-0.012512207,0.13821411,-0.24658203,0.7085571,2017-05-16 12:12:44,NaN
5.8801594,-1.0821792,8.24563,-0.23880005,-0.09666443,0.55200195,60.0,4.604141,-2.688324,8.230728,-0.068573,-0.0084991455,0.0368042,0.107788086,-0.26216125,0.76213074,2017-05-16 12:12:45,NaN
5.046977,-1.6663644,8.0924015,0.032852173,-0.0070343018,0.051361084,60.0,5.0334473,-1.6454926,8.253906,0.019683838,-0.029800415,-0.108932495,0.13562012,-0.24650574,0.7009125,2017-05-16 12:12:46,NaN
5.0182467,-1.5610195,8.1881695,0.072525024,-0.028564453,0.12464905,60.0,5.061157,-1.6831818,8.229324,-0.06248474,0.06236267,-0.04348755,0.13546753,-0.24911499,0.7005615,2017-05-16 12:12:47,NaN
5.056554,-1.7046716,8.255207,0.004470825,0.0084991455,-0.010925293,60.0,5.067795,-1.6864777,8.224564,-0.041885376,0.024795532,-0.025115967,0.13900757,-0.2476654,0.7093048,2017-05-16 12:12:48,NaN
5.0661306,-1.6567876,8.178593,-0.04789734,-4.7302246E-4,-0.08370972,60.0,5.06752,-1.6909027,8.223831,-0.0143585205,-0.025238037,-0.010757446,0.1349945,-0.24993896,0.69924927,2017-05-16 12:12:49,NaN
4.9895163,-1.6567876,8.2169,-0.09762573,0.0053100586,-0.11141968,63.0,5.0191803,-1.660965,8.259491,-0.020507813,0.053756714,-0.07366943,0.13180542,-0.2480011,0.69389343,2017-05-16 12:12:50,NaN
4.999093,-1.7142484,8.2169,0.0074768066,-0.028961182,0.054016113,63.0,5.03006,-1.7091827,8.243027,-0.045013428,0.0066375732,-0.08444214,0.13327026,-0.24890137,0.7008362,2017-05-16 12:12:51,NaN
5.00867,-1.6567876,8.130709,0.020553589,-0.028427124,0.0063476563,60.0,5.05748,-1.7025146,8.227615,-0.017944336,0.02722168,-0.0826416,0.13366699,-0.25027466,0.6979828,2017-05-16 12:12:52,NaN
5.056554,-1.6759412,8.236053,0.09539795,-0.04411316,0.1709137,60.0,5.0652924,-1.7093353,8.2213745,-0.012145996,0.03404236,-0.03555298,0.1333313,-0.25108337,0.69677734,2017-05-16 12:12:53,NaN
4.9703627,-1.7142484,8.2169,0.07432556,-0.0015258789,0.10493469,63.0,5.024582,-1.673645,8.253647,-0.025924683,-0.015258789,-0.06781006,0.13240051,-0.24829102,0.6959686,2017-05-16 12:12:54,NaN
5.0278234,-1.685518,8.1881695,-0.026992798,0.006668091,-0.035964966,63.0,5.040863,-1.6864624,8.241089,-0.014953613,-0.0024414063,-0.055267334,0.13172913,-0.2499237,0.6934204,2017-05-16 12:12:55,NaN
5.0374002,-1.6950948,8.0924015,0.10450745,-0.025360107,0.16604614,60.0,5.0732117,-1.696228,8.219223,-0.020050049,0.0209198,-0.115112305,0.13398743,-0.25094604,0.6963959,2017-05-16 12:12:56,NaN
4.9799395,-1.685518,8.0924015,0.012817383,-0.00680542,0.03567505,60.0,5.063675,-1.7180176,8.220581,-0.16035461,0.09719849,-0.17094421,0.13378906,-0.25091553,0.6989746,2017-05-16 12:12:57,NaN
4.9895163,-1.6759412,8.1881695,-0.027557373,0.01071167,-0.045333862,63.0,5.0361176,-1.690033,8.243271,-0.051071167,0.02835083,-0.07106018,0.13212585,-0.24949646,0.695343,2017-05-16 12:12:58,NaN
5.0278234,-1.7238252,8.24563,0.0050354004,-0.033111572,0.084503174,63.0,5.035675,-1.6938171,8.242767,-0.023376465,-0.049575806,-0.016067505,0.13172913,-0.24975586,0.6947174,2017-05-16 12:12:59,NaN
4.960786,-1.6184803,8.197746,-0.03215027,-0.0015716553,-0.05467224,60.0,5.0603333,-1.6981506,8.226746,-0.075286865,0.063705444,-0.013687134,0.13510132,-0.24958801,0.701004,2017-05-16 12:13:00,NaN
5.0278234,-1.7142484,8.159439,-0.00592041,0.009994507,-0.008605957,60.0,5.0587463,-1.7098083,8.225327,-0.032836914,0.0072784424,-0.08035278,0.13169861,-0.25154114,0.69332886,2017-05-16 12:13:01,NaN
4.9799395,-1.6759412,8.207323,0.0,0.0,0.0,60.0,5.0423584,-1.6903381,8.239395,-0.016448975,0.028656006,-0.121658325,0.13470459,-0.24850464,0.7014618,2017-05-16 12:13:02,NaN
4.9799395,-1.7046716,8.1881695,-0.042617798,-4.272461E-4,-0.06414795,60.0,5.044052,-1.7013397,8.236084,-0.04537964,0.039657593,-0.07749939,0.13394165,-0.24925232,0.70022583,2017-05-16 12:13:03,NaN
4.9895163,-1.7621324,8.159439,0.089141846,-0.06259155,0.1920166,60.0,5.0392,-1.7055969,8.238174,-0.013290405,-0.010543823,-0.12045288,0.13264465,-0.2497406,0.6977539,2017-05-16 12:13:04,NaN
5.0182467,-1.6376339,8.121132,-0.12207031,0.053955078,-0.23196411,60.0,5.061432,-1.7044525,8.224777,-0.0627594,0.070007324,-0.079818726,0.13310242,-0.2508545,0.6961975,2017-05-16 12:13:05,NaN
5.00867,-1.6472107,8.159439,-0.011138916,-0.0025177002,-0.017120361,60.0,5.0479126,-1.7078247,8.232391,-0.049240112,0.03251648,-0.032928467,0.13468933,-0.24923706,0.70228577,2017-05-16 12:13:06,NaN
4.9416323,-1.6567876,8.207323,0.041671753,0.0103302,0.07878113,60.0,5.0139008,-1.6914978,8.2565,-0.096954346,0.05706787,-0.09790039,0.13172913,-0.24835205,0.69711304,2017-05-16 12:13:07,NaN
4.9799395,-1.7717092,8.207323,-0.012268066,0.0025177002,-0.007217407,63.0,5.0355988,-1.7231903,8.23671,-0.009689331,-0.047439575,-0.05088806,0.13049316,-0.25102234,0.6941223,2017-05-16 12:13:08,NaN
4.960786,-1.6472107,8.159439,0.014312744,0.009750366,0.011108398,63.0,5.033371,-1.749649,8.232498,-0.07556152,0.11520386,-0.060287476,0.13156128,-0.250885,0.69955444,2017-05-16 12:13:09,NaN
5.0278234,-1.6759412,8.101978,0.03718567,-0.011047363,0.059829712,63.0,5.036316,-1.7391357,8.232925,-0.03765869,0.022979736,-0.18330383,0.13180542,-0.25071716,0.6988983,2017-05-16 12:13:10,NaN
4.999093,-1.7238252,8.236053,0.0,0.0,0.0,60.0,4.9986725,-1.713501,8.261185,-1.5258789E-5,-0.01626587,-0.0072631836,0.13319397,-0.24708557,0.7047882,2017-05-16 12:13:11,NaN
4.9416323,-1.7717092,8.1881695,-0.022201538,0.005508423,-0.0105896,63.0,5.0210724,-1.7290802,8.244354,-0.10412598,0.026535034,-0.09938049,0.13519287,-0.24772644,0.7087097,2017-05-16 12:13:12,NaN
5.0182467,-1.7621324,8.255207,-0.011276245,0.005645752,-0.007232666,63.0,5.001892,-1.7713928,8.247025,-0.0032196045,-0.026489258,-0.047576904,0.13417053,-0.24801636,0.71203613,2017-05-16 12:13:13,NaN
4.9799395,-1.7812861,8.197746,-0.055236816,0.0024108887,-0.067596436,63.0,5.0145416,-1.7752991,8.238495,-0.01586914,-0.022567749,-0.06628418,0.12988281,-0.25115967,0.6996765,2017-05-16 12:13:14,NaN
4.9799395,-1.7908629,8.1881695,-0.06654358,0.031723022,-0.11856079,63.0,5.0086517,-1.7524567,8.246979,-0.009979248,-0.018173218,-0.061141968,0.12677002,-0.25187683,0.6901398,2017-05-16 12:13:15,NaN
4.9799395,-1.733402,8.169016,0.014877319,0.014373779,0.020477295,63.0,5.0017242,-1.7545776,8.250717,-0.030288696,0.011169434,-0.06489563,0.12872314,-0.25050354,0.6963043,2017-05-16 12:13:16,NaN
4.9703627,-1.6950948,8.24563,0.027755737,-2.4414063E-4,0.036346436,63.0,5.035507,-1.7740021,8.225983,-0.050460815,0.07145691,-0.012908936,0.129776,-0.25247192,0.6968231,2017-05-16 12:13:17,NaN
5.00867,-1.7717092,8.197746,-0.010559082,-0.0031585693,-0.009490967,63.0,5.0120544,-1.785614,8.237778,0.013839722,0.014968872,-0.051956177,0.12774658,-0.25231934,0.6953125,2017-05-16 12:13:18,NaN
5.0278234,-1.8291701,8.255207,0.011383057,0.006881714,0.005874634,63.0,4.994293,-1.7363281,8.259079,-0.022872925,-0.11602783,-0.005142212,0.12904358,-0.24949646,0.6963806,2017-05-16 12:13:19,NaN
4.9320555,-1.8483237,8.264784,0.05154419,-0.0017089844,0.017501831,63.0,5.0401306,-1.7898712,8.219711,-0.082336426,-0.0079956055,0.047836304,0.1308899,-0.25253296,0.70054626,2017-05-16 12:13:20,NaN
4.9799395,-1.8291701,8.207323,0.058029175,0.016448975,0.09663391,63.0,5.0264893,-1.8037262,8.225021,-0.08230591,-0.021377563,0.028884888,0.12776184,-0.25358582,0.69529724,2017-05-16 12:13:21,NaN
5.0278234,-1.8195933,8.312668,0.004058838,0.0077056885,-0.023651123,63.0,4.9894257,-1.799118,8.248566,0.036468506,-0.012359619,-0.021881104,0.12709045,-0.2515564,0.6974945,2017-05-16 12:13:22,NaN
4.9416323,-1.685518,8.159439,0.08364868,-0.0256958,0.13090515,63.0,4.991333,-1.7643585,8.254929,-0.03352356,0.10267639,-0.01461792,0.13179016,-0.24847412,0.70648193,2017-05-16 12:13:23,NaN
4.9799395,-1.7046716,8.197746,0.07829285,-0.025558472,0.12519836,63.0,5.0305634,-1.7809296,8.227509,-0.072753906,0.0647583,-0.014434814,0.12965393,-0.25238037,0.6976929,2017-05-16 12:13:24,NaN
4.960786,-1.8291701,8.169016,0.0,0.0,0.0,63.0,5.0281525,-1.7914124,8.2267,-0.07034302,-0.033691406,-0.068115234,0.13002014,-0.25227356,0.6998596,2017-05-16 12:13:25,NaN
4.960786,-1.7908629,8.178593,-0.012939453,0.0021514893,-0.015853882,63.0,5.0097046,-1.7938995,8.2374115,-0.0110321045,0.009628296,-0.051589966,0.12754822,-0.25245667,0.69581604,2017-05-16 12:13:26,NaN
4.999093,-1.733402,8.0445175,-0.063568115,0.022506714,-0.13819885,63.0,4.984192,-1.7674713,8.258575,0.014465332,0.02406311,-0.059127808,0.12696838,-0.25061035,0.6949463,2017-05-16 12:13:27,NaN
4.999093,-1.8100165,8.2169,0.077804565,-0.029251099,0.12037659,63.0,5.010559,-1.8028107,8.23494,-0.0119018555,0.004928589,-0.035491943,0.12797546,-0.25248718,0.6976471,2017-05-16 12:13:28,NaN
4.9895163,-1.7908629,8.2169,0.008117676,0.015335083,-0.011047363,63.0,5.020035,-1.8097992,8.227631,-0.048614502,0.039154053,-0.05543518,0.12727356,-0.25358582,0.6953125,2017-05-16 12:13:29,NaN
4.9895163,-1.8004397,8.264784,0.04284668,-0.0072021484,0.061904907,63.0,5.0101013,-1.8019714,8.235413,-0.03866577,0.0040893555,-0.008728027,0.13032532,-0.25123596,0.70373535,2017-05-16 12:13:30,NaN
4.9416323,-1.8100165,8.130709,-0.05895996,0.0063476563,-0.085372925,63.0,4.996048,-1.7743073,8.249939,-0.06549072,0.0036621094,-0.14582825,0.1280365,-0.2509308,0.6969757,2017-05-16 12:13:31,NaN
4.999093,-1.8579005,8.24563,-0.039398193,0.021530151,-0.06588745,60.0,5.009781,-1.809494,8.233963,-0.051971436,-0.05647278,-0.034500122,0.12864685,-0.25224304,0.70007324,2017-05-16 12:13:32,NaN
4.9703627,-1.7812861,8.073248,-0.024032593,0.0011749268,-0.04396057,60.0,5.0167694,-1.8087769,8.229858,-0.05895996,0.024505615,-0.16661072,0.1287384,-0.25260925,0.6994171,2017-05-16 12:13:33,NaN
4.999093,-1.7812861,8.169016,-0.009231567,-0.029037476,-0.033737183,60.0,5.013916,-1.8168945,8.229813,0.039215088,-0.008224487,-0.1257019,0.12773132,-0.25312805,0.6978607,2017-05-16 12:13:34,NaN
4.903325,-1.8387469,8.1881695,-0.05848694,0.035736084,-0.124069214,63.0,5.0124817,-1.8149872,8.231094,-0.09553528,0.04434204,-0.045272827,0.12905884,-0.25231934,0.70129395,2017-05-16 12:13:35,NaN
4.960786,-1.8770541,8.197746,0.0,0.0,0.0,63.0,4.99144,-1.8524933,8.235535,-0.020004272,-0.054336548,-0.049697876,0.12513733,-0.2538452,0.6968994,2017-05-16 12:13:36,NaN
4.960786,-1.8291701,8.159439,0.0118255615,0.01586914,-0.029647827,63.0,5.002762,-1.8455353,8.230225,-0.05857849,0.0340271,-0.071624756,0.1260376,-0.25393677,0.69729614,2017-05-16 12:13:37,NaN
4.951209,-1.8483237,8.178593,-0.008712769,0.013870239,-0.04736328,63.0,4.994339,-1.8498077,8.234375,-0.009292603,0.011047363,-0.048553467,0.12620544,-0.25343323,0.6990814,2017-05-16 12:13:38,NaN
4.912902,-1.8100165,8.169016,0.015655518,0.020629883,0.03515625,63.0,4.9669495,-1.8495941,8.250977,-0.05000305,-0.0027618408,-0.06513977,0.125,-0.2523651,0.6991577,2017-05-16 12:13:39,NaN
4.960786,-1.8387469,8.2169,0.005874634,-0.005630493,0.012054443,63.0,4.99292,-1.874176,8.229721,-0.062347412,0.049057007,-0.071136475,0.12550354,-0.2542572,0.69958496,2017-05-16 12:13:40,NaN
4.9224787,-1.7812861,8.207323,0.050857544,-0.020736694,0.09062195,60.0,4.9845886,-1.8590546,8.238205,-0.026779175,0.061172485,-0.052368164,0.12612915,-0.25309753,0.70085144,2017-05-16 12:13:41,NaN
4.9416323,-1.8291701,8.207323,-0.038085938,0.0098724365,-0.057662964,63.0,4.9799194,-1.8373871,8.24588,0.0051116943,-0.0013580322,-0.019195557,0.1264801,-0.25213623,0.7004242,2017-05-16 12:13:42,NaN
4.999093,-1.8674773,8.236053,0.0055236816,0.019821167,-6.1035156E-5,63.0,4.978073,-1.8236084,8.250061,0.034194946,-0.069610596,0.05833435,0.12768555,-0.2511139,0.70254517,2017-05-16 12:13:43,NaN
4.9703627,-1.8291701,8.169016,-0.024414063,0.00440979,-0.043899536,63.0,4.978958,-1.8565216,8.242172,0.006072998,0.031402588,-0.08358765,0.12498474,-0.25326538,0.6983185,2017-05-16 12:13:44,NaN
4.9416323,-1.8291701,8.331821,0.03869629,-0.0069732666,0.023925781,63.0,4.990219,-1.8575287,8.235138,-0.059646606,0.032409668,0.086883545,0.12554932,-0.25367737,0.6985779,2017-05-16 12:13:45,NaN
4.9895163,-1.9249382,8.312668,0.0,0.0,0.0,63.0,4.9610443,-1.8521881,8.253937,0.010360718,-0.06826782,-1.5258789E-5,0.12478638,-0.25216675,0.6995392,2017-05-16 12:13:46,NaN
4.960786,-1.934515,8.226477,-0.017044067,-9.1552734E-5,-0.031311035,63.0,4.9696198,-1.8889008,8.240448,-0.06629944,0.009292603,-0.0954895,0.12234497,-0.25471497,0.6954498,2017-05-16 12:13:47,NaN
5.00867,-1.9249382,8.111555,-0.024993896,0.036468506,-0.063064575,63.0,5.015518,-1.9092407,8.207901,-0.030471802,0.0023956299,0.046020508,0.124938965,-0.25671387,0.69851685,2017-05-16 12:13:48,NaN
5.00867,-1.8770541,8.121132,0.022506714,-0.0079956055,0.02645874,63.0,5.006912,-1.9001465,8.215256,0.018981934,0.02053833,-0.07029724,0.1237793,-0.25653076,0.69577026,2017-05-16 12:13:49,NaN
4.9895163,-1.8866309,8.159439,-0.009750366,0.022506714,-0.015670776,63.0,4.974533,-1.8699951,8.241806,-0.016723633,-0.036834717,-0.05596924,0.12496948,-0.2532959,0.69999695,2017-05-16 12:13:50,NaN
4.951209,-1.8579005,8.149862,-0.027496338,0.003250122,-0.042129517,60.0,5.0038757,-1.8660736,8.224915,-0.07331848,7.6293945E-5,-0.107177734,0.12503052,-0.2549591,0.69636536,2017-05-16 12:13:51,NaN
4.951209,-1.8387469,8.1402855,-0.03152466,0.007827759,-0.052520752,60.0,5.003937,-1.8920135,8.218948,-0.100616455,0.08050537,-0.005874634,0.12521362,-0.25546265,0.69911194,2017-05-16 12:13:52,NaN
4.9703627,-1.9440918,8.197746,0.014526367,-0.0052337646,0.03213501,63.0,5.011566,-1.8832397,8.216309,-0.026519775,-0.10531616,-0.0440979,0.12690735,-0.25489807,0.70181274,2017-05-16 12:13:53,NaN
4.8937483,-1.8291701,8.159439,-0.038116455,0.009887695,-0.053833008,63.0,4.977478,-1.8849945,8.236603,-0.074142456,0.08711243,-0.05078125,0.1234436,-0.25457764,0.6970062,2017-05-16 12:13:54,NaN
4.8362875,-1.7812861,8.1881695,-0.043426514,0.019744873,-0.067108154,63.0,4.989609,-1.9282532,8.219238,-0.15438843,0.15760803,-0.18322754,0.123535156,-0.2562561,0.69963074,2017-05-16 12:13:55,NaN
4.9799395,-1.9536686,8.149862,-0.003829956,-0.0011291504,-0.020187378,63.0,4.988983,-1.8998566,8.226227,-0.017562866,-0.020599365,-0.09487915,0.12362671,-0.25552368,0.697464,2017-05-16 12:13:56,NaN
4.9224787,-2.0015526,8.149862,0.06121826,-0.010665894,0.10673523,63.0,4.990921,-1.9118042,8.222275,-0.033111572,-0.07675171,-0.036453247,0.12365723,-0.2558899,0.698349,2017-05-16 12:13:57,NaN
4.999093,-2.0015526,8.1402855,0.03529358,-0.035079956,0.061187744,63.0,4.9643707,-1.9171753,8.237091,-0.0065612793,-0.030517578,-0.07850647,0.12297058,-0.25474548,0.7001648,2017-05-16 12:13:58,NaN
4.960786,-1.9153614,8.159439,0.00894165,-0.008132935,-0.008087158,63.0,4.987091,-1.9700928,8.210831,0.011566162,0.036010742,-0.011383057,0.12188721,-0.25787354,0.69929504,2017-05-16 12:13:59,NaN
4.9799395,-2.0015526,8.236053,-0.061828613,0.0262146,-0.107681274,63.0,4.989792,-1.9453888,8.215088,-0.031982422,-0.015930176,-0.0020141602,0.123031616,-0.25691223,0.69976807,2017-05-16 12:14:00,NaN
4.9320555,-1.982399,8.169016,0.06854248,-0.014755249,0.085861206,63.0,4.9557953,-1.9307861,8.239075,-0.025222778,0.010314941,-0.09410095,0.12086487,-0.2555542,0.6968994,2017-05-16 12:14:01,NaN
4.9799395,-1.982399,8.159439,-0.046554565,3.6621094E-4,-0.06791687,63.0,4.9687195,-1.9590759,8.224594,-0.038146973,0.024993896,-0.1204834,0.12437439,-0.25531006,0.7068176,2017-05-16 12:14:02,NaN
4.903325,-1.8674773,8.111555,0.029067993,-0.011291504,0.044647217,63.0,4.9795074,-1.9488373,8.220505,-0.08979797,0.069229126,-0.13002014,0.120391846,-0.2576294,0.6945343,2017-05-16 12:14:03,NaN
4.912902,-1.9536686,8.1402855,0.011367798,-0.026931763,0.03517151,63.0,4.969757,-1.9516296,8.225739,-0.06643677,0.031158447,-0.1352539,0.120010376,-0.2572937,0.6949005,2017-05-16 12:14:04,NaN
4.8937483,-1.8962077,8.1881695,-0.05821228,0.030288696,-0.08609009,63.0,4.964279,-1.9481812,8.229874,-0.0745697,0.068573,-0.030410767,0.12156677,-0.25613403,0.69924927,2017-05-16 12:14:05,NaN
4.960786,-1.9728222,8.197746,-0.049102783,0.00970459,-0.100250244,63.0,4.9552765,-1.9951172,8.224045,0.0025177002,0.033798218,-0.0790863,0.11869812,-0.25805664,0.6970062,2017-05-16 12:14:06,NaN
4.960786,-1.982399,8.082825,-0.0066833496,0.016845703,-0.030441284,63.0,4.976944,-1.9582672,8.219818,-0.019134521,-0.030288696,-0.1293335,0.12327576,-0.2563324,0.7029877,2017-05-16 12:14:07,NaN
4.8841715,-1.934515,8.1402855,-0.11140442,0.059646606,-0.20381165,63.0,4.93161,-1.9566956,8.247467,-0.028289795,0.022613525,-0.12974548,0.12121582,-0.25454712,0.70288086,2017-05-16 12:14:08,NaN
4.855441,-1.934515,8.149862,-0.017913818,0.0022277832,-0.022598267,63.0,4.9521637,-1.9469604,8.237457,-0.11694336,-0.0143585205,-0.07885742,0.12095642,-0.25567627,0.69898987,2017-05-16 12:14:09,NaN
4.865018,-1.934515,8.159439,0.022033691,-0.013290405,0.06602478,63.0,4.940262,-1.944107,8.24527,-0.06417847,-0.017211914,-0.10029602,0.12188721,-0.25445557,0.7024994,2017-05-16 12:14:10,NaN
4.960786,-1.9440918,8.101978,-0.017150879,-0.021972656,-0.021865845,63.0,4.9474487,-1.9854736,8.231094,0.010345459,0.06500244,-0.07249451,0.117889404,-0.2577362,0.69499207,2017-05-16 12:14:11,NaN
4.8937483,-1.9632454,8.197746,-0.09324646,0.042785645,-0.15885925,63.0,4.935257,-1.9632721,8.243729,-0.059158325,0.029190063,-0.057891846,0.12037659,-0.25532532,0.70088196,2017-05-16 12:14:12,NaN
4.9224787,-1.9728222,8.2169,-0.019363403,8.8500977E-4,-0.036315918,63.0,4.9197845,-1.9481812,8.256546,-0.0028381348,-0.026763916,-0.08433533,0.1184082,-0.25497437,0.69625854,2017-05-16 12:14:13,NaN
4.8841715,-1.982399,8.2169,-8.69751E-4,0.013793945,-0.003921509,67.0,4.9345093,-1.9652863,8.243698,-0.08566284,-0.009643555,-0.03062439,0.12171936,-0.25468445,0.7045746,2017-05-16 12:14:14,NaN
4.9320555,-1.9919758,8.236053,-0.022888184,0.0063476563,-0.043762207,67.0,4.940735,-1.9558105,8.242218,-0.03741455,-0.05999756,-0.0019073486,0.1184082,-0.25639343,0.69451904,2017-05-16 12:14:15,NaN
4.9320555,-1.9919758,8.207323,-0.0075683594,0.010116577,-0.016082764,63.0,4.9019165,-1.9530182,8.266022,0.028625488,-0.03553772,-0.13467407,0.11819458,-0.2541046,0.69825745,2017-05-16 12:14:16,NaN
4.8937483,-1.982399,8.178593,-0.07582092,-0.013015747,-0.097717285,67.0,4.914871,-1.9891968,8.24968,-0.011550903,0.055099487,-0.09109497,0.11923218,-0.25526428,0.7025299,2017-05-16 12:14:17,NaN
4.8362875,-2.030283,8.226477,0.014877319,-0.006576538,0.047729492,67.0,4.9228973,-1.998703,8.2425995,-0.019577026,0.010131836,-0.070388794,0.11643982,-0.25726318,0.6952667,2017-05-16 12:14:18,NaN
4.8362875,-1.9728222,8.130709,0.007369995,0.008041382,-0.017440796,67.0,4.932968,-1.9653931,8.244583,-0.0977478,0.044921875,-0.11323547,0.11906433,-0.25585938,0.6979523,2017-05-16 12:14:19,NaN
4.865018,-2.0015526,8.1881695,0.041732788,0.011566162,0.06942749,67.0,4.90361,-1.9583588,8.263763,-0.068374634,-0.030197144,-0.077926636,0.11981201,-0.25358582,0.7026825,2017-05-16 12:14:20,NaN
4.8458643,-1.982399,8.169016,-0.02758789,0.012161255,-0.019012451,67.0,4.930649,-1.9706268,8.24472,-0.027313232,-0.0043029785,-0.058898926,0.11929321,-0.25572205,0.6992798,2017-05-16 12:14:21,NaN
4.8267107,-1.9919758,8.197746,-0.025787354,0.015335083,-0.044647217,67.0,4.9226685,-1.9911041,8.244568,-0.08744812,0.029785156,-0.07235718,0.11816406,-0.25627136,0.6990814,2017-05-16 12:14:22,NaN
4.817134,-1.982399,8.1402855,0.020263672,0.005279541,0.032318115,67.0,4.919586,-1.9883881,8.24707,-0.084365845,-1.6784668E-4,-0.033996582,0.11752319,-0.25631714,0.697525,2017-05-16 12:14:23,NaN
4.903325,-2.0207062,8.24563,7.6293945E-5,-6.1035156E-5,-0.032546997,67.0,4.9019165,-1.9807281,8.259415,-0.012207031,-0.007827759,-0.019104004,0.11683655,-0.2554016,0.6971588,2017-05-16 12:14:24,NaN
4.912902,-2.0015526,8.197746,0.017288208,0.0076904297,0.008102417,67.0,4.9128265,-2.003418,8.247452,-0.036743164,-0.039627075,-0.08886719,0.116241455,-0.25686646,0.69633484,2017-05-16 12:14:25,NaN
4.8937483,-1.9919758,8.111555,0.017730713,-0.011184692,0.03543091,67.0,4.9437866,-2.0130615,8.226593,-0.04045105,-0.016357422,-0.1088562,0.11898804,-0.25767517,0.7006073,2017-05-16 12:14:26,NaN
4.8267107,-1.934515,8.312668,0.023208618,0.01763916,-0.014450073,67.0,4.8542023,-1.9449158,8.296036,-0.07345581,0.05168152,0.025985718,0.11824036,-0.25106812,0.7032318,2017-05-16 12:14:27,NaN
4.865018,-1.9728222,8.274361,0.036758423,-0.004333496,0.04446411,67.0,4.87854,-1.9483795,8.28093,-0.016082764,0.027908325,-0.067855835,0.1182251,-0.252594,0.7006531,2017-05-16 12:14:28,NaN
4.807557,-1.9536686,8.2169,-0.016998291,0.003189087,-0.031173706,70.0,4.8974915,-1.9941254,8.25882,-0.089523315,0.032806396,-0.04574585,0.11619568,-0.25575256,0.69718933,2017-05-16 12:14:29,NaN
4.8362875,-1.934515,8.0924015,0.0049743652,-0.002822876,0.019760132,67.0,4.896332,-2.0028687,8.2574005,-0.03387451,0.041534424,-0.09880066,0.117507935,-0.2552948,0.70147705,2017-05-16 12:14:30,NaN
4.865018,-2.0398598,8.101978,-0.007659912,0.018173218,-0.015686035,67.0,4.8852234,-2.0157623,8.260849,0.018096924,-0.013656616,-0.102249146,0.11395264,-0.25656128,0.69473267,2017-05-16 12:14:31,NaN
4.8745947,-1.9440918,8.264784,0.008102417,0.008605957,-0.02659607,67.0,4.886963,-2.004303,8.262604,-0.038116455,0.04296875,0.004928589,0.11378479,-0.25645447,0.69306946,2017-05-16 12:14:32,NaN
4.817134,-2.0015526,8.303091,0.050720215,-0.025405884,0.103759766,67.0,4.8854065,-2.0255127,8.258347,-0.050186157,0.050567627,-0.072509766,0.116622925,-0.25559998,0.70240784,2017-05-16 12:14:33,NaN
4.9224787,-2.0685902,8.073248,0.07748413,-0.035614014,0.13630676,67.0,4.912079,-2.0482788,8.236877,-0.008758545,-0.008377075,-0.14639282,0.11604309,-0.2579956,0.6997986,2017-05-16 12:14:34,NaN
4.8745947,-2.030283,8.207323,-0.021438599,0.0026397705,-0.03503418,67.0,4.901413,-2.061325,8.239975,-0.02532959,-0.00894165,3.2043457E-4,0.114715576,-0.25828552,0.6987457,2017-05-16 12:14:35,NaN
4.8362875,-2.0015526,8.255207,0.00831604,0.023376465,-0.0033874512,67.0,4.872757,-2.0214996,8.2668,-0.06477356,0.032928467,-0.053726196,0.114593506,-0.25569153,0.69828796,2017-05-16 12:14:36,NaN
4.8267107,-2.0111294,8.159439,-0.061553955,0.033828735,-0.08699036,67.0,4.892975,-2.059021,8.245575,-0.057754517,0.0023498535,-0.05973816,0.1151886,-0.25752258,0.7007446,2017-05-16 12:14:37,NaN
4.8841715,-1.982399,8.159439,-0.04322815,0.022628784,-0.07243347,67.0,4.889572,-2.0599518,8.24736,-0.0134887695,0.057769775,-0.088760376,0.11364746,-0.25802612,0.6972809,2017-05-16 12:14:38,NaN
4.6926355,-1.7142484,8.312668,0.21488953,0.022872925,0.22250366,159.0,4.943863,-1.9496613,8.241791,-0.24484253,0.2607422,0.025741577,0.118881226,-0.25621033,0.6948395,2017-05-16 12:14:39,NaN
5.1810527,-0.8619126,8.034941,-0.0677948,-0.06808472,-0.120407104,95.0,5.188736,-0.6056061,8.299423,0.20491028,-0.061782837,-0.099975586,0.18774414,-0.20394897,0.72828674,2017-05-16 12:14:40,NaN
5.1140146,-0.19153613,8.456321,-0.43888855,-0.35514832,-0.48695374,60.0,6.452179,-0.6470032,7.3566895,-1.1947174,0.48356628,1.2241058,0.24040222,-0.25904846,0.7015686,2017-05-16 12:14:41,NaN
5.535394,-0.34476504,7.603985,0.37342834,0.021606445,0.20574951,53.0,5.510788,-0.5366211,8.09404,-0.06265259,0.2505951,-0.7799072,0.20167542,-0.2159729,0.71661377,2017-05-16 12:14:42,NaN
5.267244,-0.6607997,8.082825,-0.0045166016,0.055130005,0.031066895,14.0,5.3476257,-0.6515503,8.1944275,-0.076553345,0.011383057,-0.063064575,0.19270325,-0.21228027,0.7249756,2017-05-16 12:14:43,NaN
5.0374002,-0.51714754,8.599973,-0.15293884,0.04878235,-0.12722778,67.0,5.3184357,-0.45109558,8.226837,-0.25167847,-0.052841187,0.47654724,0.20002747,-0.20132446,0.730896,2017-05-16 12:14:44,NaN
5.4204726,-0.89064306,7.843405,0.027648926,0.0064086914,0.0064697266,60.0,5.5167084,-0.9612732,8.050598,-0.109436035,0.035079956,-0.13717651,0.18417358,-0.23580933,0.7076874,2017-05-16 12:14:45,NaN
5.535394,-0.92895025,8.015787,-0.024047852,0.0095825195,-0.059280396,63.0,5.5742188,-0.93756104,8.013702,-0.08520508,0.038619995,0.008666992,0.18482971,-0.23925781,0.6997833,2017-05-16 12:14:46,NaN
5.9663506,-1.1300632,7.52737,-0.042541504,-0.09698486,-0.032196045,63.0,5.9279785,-1.1049957,7.7335815,0.037719727,0.015365601,-0.17428589,0.19444275,-0.26054382,0.69493103,2017-05-16 12:14:47,NaN
6.0046577,-1.283292,7.565677,0.017654419,-0.021957397,0.036392212,67.0,6.0401917,-1.2960815,7.6161957,-0.020004272,0.029388428,-0.056900024,0.19000244,-0.27490234,0.68663025,2017-05-16 12:14:48,NaN
5.7843914,-1.1587936,7.6710224,0.07672119,0.06428528,-0.005126953,74.0,5.8414917,-1.1713104,7.7894287,-0.039215088,-0.054504395,-0.14840698,0.18833923,-0.25956726,0.6961212,2017-05-16 12:14:49,NaN
6.033388,-1.2641385,7.431602,0.04319763,-0.03366089,0.060806274,63.0,6.0849,-1.2856445,7.582306,0.0033874512,0.0053253174,-0.13197327,0.19607544,-0.2737732,0.6946564,2017-05-16 12:14:50,NaN
5.985504,-1.2066777,7.52737,0.08721924,-0.015777588,0.063323975,60.0,6.136017,-1.3096161,7.536865,-0.17030334,0.11102295,-0.032058716,0.19644165,-0.27772522,0.69129944,2017-05-16 12:14:51,NaN
6.129156,-1.2737153,7.441179,0.1356659,-0.01826477,0.16973877,60.0,6.1288605,-1.2889862,7.546234,-0.04057312,0.03591919,-0.12315369,0.19786072,-0.2758484,0.69381714,2017-05-16 12:14:52,NaN
6.090849,-1.283292,7.5082164,-0.026245117,-0.0077056885,-0.0340271,56.0,6.1704407,-1.2908173,7.511978,-0.08213806,-0.003112793,-0.116119385,0.19621277,-0.28015137,0.6852417,2017-05-16 12:14:53,NaN
6.1195793,-1.3311762,7.469909,-0.043777466,0.026947021,-0.030960083,53.0,6.158142,-1.3195343,7.5170593,-0.097091675,0.011978149,-0.039489746,0.19544983,-0.28022766,0.68722534,2017-05-16 12:14:54,NaN
6.129156,-1.3311762,7.422025,0.010818481,-0.017456055,0.0012359619,53.0,6.189987,-1.3245544,7.489975,-0.10168457,-0.023849487,-0.06689453,0.1952362,-0.2828369,0.6833801,2017-05-16 12:14:55,NaN
6.1100025,-1.3120226,7.4507556,-0.05168152,0.028137207,-0.063797,53.0,6.187958,-1.31633,7.493103,-0.11328125,-0.004837036,-0.0019226074,0.19589233,-0.28208923,0.6844635,2017-05-16 12:14:56,NaN
6.081272,-1.3215994,7.422025,0.013290405,-0.012527466,0.02243042,49.0,6.1859283,-1.3202515,7.494095,-0.08401489,0.0126953125,-0.070999146,0.19944763,-0.27949524,0.6931,2017-05-16 12:14:57,NaN
6.129156,-1.3024458,7.374141,0.061904907,-0.017578125,0.07487488,45.0,6.2119446,-1.3395386,7.469116,-0.08277893,-0.008865356,-0.046020508,0.19781494,-0.28292847,0.68782043,2017-05-16 12:14:58,NaN
6.205771,-1.3503298,7.345411,-6.713867E-4,-0.015701294,0.0132751465,53.0,6.2321014,-1.3407288,7.4520874,-0.048461914,-0.007659912,-0.06985474,0.19786072,-0.28440857,0.6856842,2017-05-16 12:14:59,NaN
6.1387334,-1.3694834,7.441179,-0.07243347,0.019226074,-0.09487915,53.0,6.223343,-1.3363953,7.4601746,-0.094192505,0.015213013,0.003768921,0.19908142,-0.2828369,0.6891022,2017-05-16 12:15:00,NaN
6.215348,-1.3120226,7.393295,0.0,0.0,0.0,53.0,6.233902,-1.3358154,7.451462,-0.023025513,0.028259277,-0.069229126,0.20085144,-0.2823639,0.691803,2017-05-16 12:15:01,NaN
6.253655,-1.388637,7.374141,0.007232666,0.018676758,0.004714966,49.0,6.2803497,-1.3764648,7.404907,-0.042236328,8.087158E-4,-0.06355286,0.20150757,-0.28607178,0.6909027,2017-05-16 12:15:02,NaN
6.2728086,-1.4173675,7.345411,-0.013000488,-1.0681152E-4,0.015945435,49.0,6.279892,-1.3599548,7.4083557,-0.08262634,-0.042922974,-0.066986084,0.19921875,-0.28736877,0.6846161,2017-05-16 12:15:03,NaN
5.659893,-0.9768343,7.824251,0.111312866,0.087646484,-0.0077056885,53.0,5.8870544,-1.1808014,7.753601,-0.23461914,0.18650818,-0.03086853,0.1915741,-0.26071167,0.6993103,2017-05-16 12:15:04,NaN
5.602432,-0.545878,7.795521,0.028945923,-0.07270813,0.025619507,35.0,5.874237,-0.49572754,7.83696,-0.27627563,-0.035461426,0.008346558,0.21261597,-0.2349701,0.6932373,2017-05-16 12:15:05,NaN
5.506664,-0.92895025,7.8912888,-0.04133606,0.032302856,-0.08363342,49.0,5.6345215,-0.90618896,7.9750366,-0.17276001,0.007247925,-0.03437805,0.18397522,-0.24398804,0.6866913,2017-05-16 12:15:06,NaN
5.535394,-0.9672575,7.824251,-0.030731201,0.020874023,-0.0370636,45.0,5.6572876,-0.9876404,7.9492035,-0.08656311,-0.0066223145,-0.13111877,0.18412781,-0.24656677,0.6919403,2017-05-16 12:15:07,NaN
5.6120086,-0.9768343,7.728483,0.02709961,-0.013626099,0.06452942,45.0,5.74794,-1.0194092,7.8798523,-0.1091156,0.011505127,-0.12988281,0.18559265,-0.25256348,0.68730164,2017-05-16 12:15:08,NaN
5.717354,-1.0151415,7.824251,0.08067322,-0.013702393,0.10609436,45.0,5.748184,-1.0253754,7.8789063,-0.054870605,0.017471313,-0.07444763,0.18692017,-0.25167847,0.6912689,2017-05-16 12:15:09,NaN
5.717354,-0.9576807,7.7572136,0.099365234,-0.020904541,0.14064026,42.0,5.7875214,-1.0296173,7.8495026,-0.09420776,0.035324097,-0.08590698,0.18740845,-0.25428772,0.687973,2017-05-16 12:15:10,NaN
5.793968,-0.9768343,7.642292,0.042999268,-0.022109985,0.06338501,42.0,5.838745,-1.0046539,7.814728,-0.0637207,0.037612915,-0.16007996,0.19132996,-0.25483704,0.6893921,2017-05-16 12:15:11,NaN
5.765238,-0.94810385,7.747637,-0.023147583,0.008514404,-0.046325684,42.0,5.885483,-1.0217896,7.777359,-0.124069214,0.068359375,-0.013763428,0.1940155,-0.25654602,0.69189453,2017-05-16 12:15:12,NaN
5.793968,-1.0342951,7.680599,0.005432129,0.006210327,0.018844604,42.0,5.8723297,-1.0245514,7.7869263,-0.07006836,0.016647339,-0.091430664,0.19224548,-0.2569275,0.68930054,2017-05-16 12:15:13,NaN
5.755661,-1.0151415,7.5848308,0.0020751953,-0.035858154,0.013870239,42.0,5.888916,-1.0205383,7.7749176,-0.1138916,0.039871216,-0.256485,0.19300842,-0.25753784,0.6888275,2017-05-16 12:15:14,NaN
5.803545,-0.94810385,7.651869,0.025604248,-0.008056641,0.011260986,42.0,5.8515625,-1.020935,7.803009,-0.090164185,0.053894043,-0.14837646,0.1902008,-0.2568512,0.68637085,2017-05-16 12:15:15,NaN
5.8705826,-1.0630256,7.632715,-0.024963379,0.015975952,-0.01979065,49.0,5.8799896,-1.0267487,7.7808533,-0.07772827,0.005218506,-0.13983154,0.19177246,-0.25787354,0.6873779,2017-05-16 12:15:16,NaN
5.889736,-1.0630256,7.7189064,0.044525146,0.014694214,0.081848145,45.0,5.912201,-1.0875244,7.748123,-0.15078735,0.09324646,-0.14796448,0.19255066,-0.26052856,0.69065857,2017-05-16 12:15:17,NaN
5.1810527,-0.6512229,8.063671,0.014785767,0.018127441,-0.016708374,99.0,5.4707184,-0.8610382,8.093216,-0.25411987,0.16641235,-0.04359436,0.18301392,-0.23208618,0.7009735,2017-05-16 12:15:18,NaN
5.104438,-0.6703765,8.1881695,0.00680542,0.04322815,0.01423645,77.0,5.2405243,-0.6461334,8.263748,-0.13290405,0.033218384,-0.077926636,0.18450928,-0.21122742,0.7151642,2017-05-16 12:15:19,NaN
4.8937483,-0.59376204,8.24563,0.030136108,-0.016433716,0.077041626,77.0,4.9701385,-0.562027,8.435165,-0.06681824,0.0035858154,-0.1812439,0.1742096,-0.19892883,0.7128601,2017-05-16 12:15:20,NaN
4.960786,-0.58418524,8.331821,3.9672852E-4,0.032470703,-0.0745697,77.0,4.979645,-0.5624237,8.429535,-0.11717224,-0.009613037,-0.1483612,0.1745758,-0.19932556,0.71269226,2017-05-16 12:15:21,NaN
4.9224787,-0.5554548,8.283937,-0.091430664,0.018173218,-0.17268372,74.0,4.94545,-0.5457916,8.450729,-0.09660339,0.0418396,-0.1967926,0.17532349,-0.19592285,0.7183838,2017-05-16 12:15:22,NaN
4.9224787,-0.7182605,8.39886,-0.1240387,-3.5095215E-4,-0.15879822,77.0,4.917694,-0.6372833,8.4605255,-7.4768066E-4,-0.09820557,-0.11125183,0.16897583,-0.20018005,0.71209717,2017-05-16 12:15:23,NaN
4.9416323,-0.6991069,8.408437,-0.0073242188,0.0036315918,-0.012039185,77.0,4.9485474,-0.66223145,8.440582,-0.04522705,-0.07324219,-0.064071655,0.17060852,-0.20133972,0.7156677,2017-05-16 12:15:24,NaN
4.76925,-0.5267244,8.42759,-0.14569092,0.036117554,-0.32180786,31.0,4.936203,-0.5936737,8.452911,-0.100982666,0.07609558,-0.021911621,0.17250061,-0.19815063,0.7158966,2017-05-16 12:15:25,NaN
4.8937483,-0.5746084,8.39886,-0.006500244,-9.613037E-4,-0.053390503,31.0,4.9248505,-0.583725,8.46022,-0.06239319,0.011672974,-0.1381836,0.1729126,-0.19683838,0.7178192,2017-05-16 12:15:26,NaN
5.0374002,-0.842759,8.264784,-0.03930664,-0.0052490234,0.054367065,99.0,4.9464264,-0.63113403,8.444214,0.07946777,-0.21330261,-0.14942932,0.17173767,-0.19992065,0.7161255,2017-05-16 12:15:27,NaN
4.9224787,-0.82360536,8.149862,-0.0026855469,-0.013580322,-0.004470825,38.0,5.0416565,-0.7937927,8.373886,-0.083847046,0.017425537,-0.16081238,0.17108154,-0.20922852,0.71795654,2017-05-16 12:15:28,NaN
4.999093,-0.9576807,8.178593,-0.010437012,-0.0038146973,-0.03387451,106.0,5.079727,-0.8027954,8.349976,-0.08106995,-0.12336731,-0.1641388,0.17341614,-0.21022034,0.72062683,2017-05-16 12:15:29,NaN
5.0182467,-0.90021986,8.236053,-0.020309448,-0.0028076172,-0.0206604,88.0,5.14859,-0.87898254,8.299973,-0.1635437,-0.0063323975,-0.114151,0.17286682,-0.21662903,0.7171478,2017-05-16 12:15:30,NaN
5.056554,-0.8714894,8.255207,-0.032989502,0.02734375,-0.06059265,49.0,5.086136,-0.796875,8.346634,0.007858276,-0.047561646,-0.11994934,0.17381287,-0.21028137,0.72032166,2017-05-16 12:15:31,NaN
5.439626,-1.1109096,8.00621,0.040267944,-0.052947998,0.075790405,49.0,5.192917,-0.95539856,8.26384,0.25520325,-0.13421631,-0.26869202,0.17329407,-0.22052002,0.71984863,2017-05-16 12:15:32,NaN
5.257667,-0.93852705,7.776367,0.1695404,-0.039138794,0.27340698,91.0,5.2011414,-0.9754944,8.256317,0.11077881,0.11741638,-0.49272156,0.17623901,-0.21903992,0.729126,2017-05-16 12:15:33,NaN
5.650316,-1.5514427,8.341399,-0.085235596,-0.0076446533,0.50038147,70.0,5.430664,-0.80163574,8.126221,0.20814514,-0.5740051,0.15493774,0.18908691,-0.22341919,0.7176819,2017-05-16 12:15:34,NaN
5.363012,-0.7469909,8.00621,0.07041931,0.019683838,0.10772705,53.0,5.6209717,-0.86024475,7.98967,-0.37713623,0.1519928,0.08718872,0.1981659,-0.23100281,0.72242737,2017-05-16 12:15:35,NaN
5.6790466,-0.7086837,7.785944,0.045333862,-0.008560181,0.054367065,53.0,5.747757,-0.7642975,7.9088135,-0.04083252,0.056045532,-0.09072876,0.2050476,-0.23390198,0.7152405,2017-05-16 12:15:36,NaN
5.717354,-0.78529817,7.7667904,-0.013839722,-0.014984131,-0.014801025,53.0,5.7895966,-0.76498413,7.878174,-0.06904602,-0.011367798,-0.15542603,0.20654297,-0.23591614,0.71369934,2017-05-16 12:15:37,NaN
5.841852,-0.79487497,7.7667904,-0.025161743,-0.022918701,-0.034225464,49.0,5.8755646,-0.78538513,7.8122406,-0.046066284,0.009033203,-0.116744995,0.21012878,-0.23983765,0.7135315,2017-05-16 12:15:38,NaN
5.813122,-0.7469909,7.690176,0.0067596436,-0.004272461,0.034744263,49.0,5.8610687,-0.7792053,7.8237305,-0.07241821,0.0028381348,-0.12823486,0.21058655,-0.23822021,0.7160797,2017-05-16 12:15:39,NaN
5.793968,-0.7565677,7.7667904,-0.02973938,-0.013244629,-0.029083252,45.0,5.875839,-0.79467773,7.811096,-0.07357788,0.031936646,-0.020248413,0.20765686,-0.2421112,0.7078705,2017-05-16 12:15:40,NaN
5.7843914,-0.7469909,7.690176,-0.002029419,0.019943237,-0.004638672,45.0,5.859543,-0.76138306,7.8266296,-0.070892334,0.025878906,-0.090286255,0.21032715,-0.23812866,0.7140198,2017-05-16 12:15:41,NaN
5.765238,-0.81402856,7.73806,0.0,0.0,0.0,45.0,5.8431244,-0.76742554,7.838318,-0.054473877,0.0046844482,-0.047470093,0.20721436,-0.23960876,0.7085724,2017-05-16 12:15:42,NaN
5.765238,-0.7565677,7.680599,0.0,0.0,0.0,45.0,5.8564453,-0.75746155,7.8293457,-0.0677948,-0.005264282,-0.13383484,0.20980835,-0.23831177,0.7127075,2017-05-16 12:15:43,NaN
5.803545,-0.7661445,7.6614456,0.018585205,0.012649536,0.018478394,45.0,5.8742523,-0.75605774,7.8161163,-0.12646484,0.047790527,-0.14787292,0.2099762,-0.23957825,0.71066284,2017-05-16 12:15:44,NaN
5.803545,-0.7661445,7.6710224,0.035720825,0.009887695,0.05734253,45.0,5.874817,-0.7754822,7.813797,-0.07254028,0.012741089,-0.14553833,0.21073914,-0.23913574,0.71432495,2017-05-16 12:15:45,NaN
5.765238,-0.7757214,7.699753,0.023925781,0.0051727295,0.015731812,45.0,5.862152,-0.77407837,7.8234406,-0.14161682,0.03857422,-0.15518188,0.20820618,-0.24034119,0.7092438,2017-05-16 12:15:46,NaN
5.7843914,-0.7757214,7.7093296,-0.017959595,-0.008270264,-0.021347046,42.0,5.8584137,-0.7778015,7.8258667,-0.06976318,0.028671265,-0.17123413,0.21072388,-0.23786926,0.7166443,2017-05-16 12:15:47,NaN
5.7748146,-0.7661445,7.785944,0.0063171387,0.004714966,0.01222229,42.0,5.8640747,-0.7715759,7.8222504,-0.10266113,0.049697876,-0.045028687,0.21166992,-0.2374115,0.71784973,2017-05-16 12:15:48,NaN
5.7843914,-0.7565677,7.728483,0.058502197,-0.023971558,0.07775879,42.0,5.8619385,-0.75875854,7.8251038,-0.046051025,-0.031204224,-0.12960815,0.21110535,-0.23760986,0.71551514,2017-05-16 12:15:49,NaN
5.841852,-0.7565677,7.7093296,-0.0074768066,0.0045318604,-0.011627197,42.0,5.897888,-0.774292,7.796509,-0.10923767,0.011550903,-0.11463928,0.21028137,-0.24137878,0.70996094,2017-05-16 12:15:50,NaN
5.90889,-0.80445176,7.73806,-0.066207886,0.024993896,-0.0688324,42.0,5.893799,-0.76989746,7.8000336,-0.023422241,-0.033691406,0.00440979,0.20806885,-0.24291992,0.7043457,2017-05-16 12:15:51,NaN
5.841852,-0.82360536,7.680599,0.0,0.0,0.0,42.0,5.8880157,-0.77586365,7.8038177,-0.085754395,-4.7302246E-4,-0.13555908,0.20840454,-0.24223328,0.7065277,2017-05-16 12:15:52,NaN
5.793968,-0.7469909,7.747637,-0.08906555,0.010696411,-0.10510254,42.0,5.894928,-0.76963806,7.7992096,-0.06541443,0.020523071,-0.07647705,0.21124268,-0.24024963,0.7124634,2017-05-16 12:15:53,NaN
5.851429,-0.78529817,7.776367,-0.02444458,-0.015838623,-0.032165527,42.0,5.8973083,-0.7675476,7.7976074,-0.05418396,0.018432617,-0.115737915,0.21231079,-0.2394867,0.7147064,2017-05-16 12:15:54,NaN
5.803545,-0.78529817,7.699753,-0.01776123,-0.001663208,-0.03060913,42.0,5.8930054,-0.7917023,7.7984467,-0.11798096,0.028961182,-0.11657715,0.2098999,-0.24150085,0.7111664,2017-05-16 12:15:55,NaN
5.765238,-0.78529817,7.699753,0.03225708,-0.011779785,0.04701233,42.0,5.9008484,-0.769989,7.794693,-0.07133484,-0.019973755,-0.09919739,0.21228027,-0.23980713,0.71440125,2017-05-16 12:15:56,NaN
5.813122,-0.7565677,7.73806,0.018112183,-0.026046753,0.056381226,38.0,5.874237,-0.7712097,7.8146515,-0.07197571,0.022094727,-0.07829285,0.21263123,-0.23736572,0.71894836,2017-05-16 12:15:57,NaN
5.8226986,-0.79487497,7.6710224,-0.07475281,0.0027923584,-0.099365234,38.0,5.8938446,-0.7746124,7.79953,-0.050720215,-0.02897644,-0.104034424,0.21195984,-0.23957825,0.7149048,2017-05-16 12:15:58,NaN
5.8705826,-0.8331822,7.690176,-0.05831909,0.008712769,-0.061035156,38.0,5.922882,-0.7965088,7.775299,-0.07974243,0.0337677,-0.06617737,0.21296692,-0.24125671,0.7155762,2017-05-16 12:15:59,NaN
5.803545,-0.8714894,7.690176,0.019821167,-0.013137817,0.026550293,45.0,5.8444977,-0.87631226,7.8258667,-0.02861023,0.031845093,-0.1031189,0.20343018,-0.24414063,0.7082672,2017-05-16 12:16:00,NaN
5.793968,-0.8810662,7.7189064,-0.12753296,0.031417847,-0.17503357,49.0,5.928055,-0.89120483,7.7610626,-0.12579346,0.03312683,-0.051940918,0.20675659,-0.2480774,0.7072754,2017-05-16 12:16:01,NaN
5.8801594,-0.92895025,7.6135616,-0.13728333,0.017791748,-0.1567688,49.0,5.9559174,-0.89146423,7.73967,-0.08554077,-0.007461548,-0.1531372,0.20985413,-0.24768066,0.7115021,2017-05-16 12:16:02,NaN
5.841852,-0.9768343,7.6231384,-0.0065460205,0.006210327,-0.011398315,45.0,5.947174,-0.8854065,7.7470856,-0.090423584,-0.054382324,-0.13331604,0.20811462,-0.24838257,0.7077484,2017-05-16 12:16:03,NaN
5.9184666,-0.8810662,7.833828,-0.017150879,0.0051727295,-0.0370636,45.0,5.964905,-0.91052246,7.73053,-0.05366516,0.03881836,0.10115051,0.2077179,-0.25039673,0.7066498,2017-05-16 12:16:04,NaN
5.861006,-0.8810662,7.651869,-0.1330719,0.015838623,-0.1898346,45.0,5.9456635,-0.89294434,7.7473755,-0.061676025,0.021255493,-0.10636902,0.21052551,-0.24630737,0.71466064,2017-05-16 12:16:05,NaN
5.8705826,-0.90021986,7.383718,0.0,0.0,0.0,42.0,5.9727783,-0.8994293,7.7257385,-0.075164795,0.04135132,-0.15283203,0.21044922,-0.24859619,0.7115021,2017-05-16 12:16:06,NaN
5.947197,-0.8619126,7.603985,-0.032287598,0.0066986084,-0.04335022,42.0,5.989975,-0.89546204,7.7128754,-0.06512451,0.037384033,-0.13995361,0.21099854,-0.24945068,0.7103424,2017-05-16 12:16:07,NaN
5.93762,-0.90979666,7.6710224,0.06452942,-0.002166748,0.12120056,42.0,5.9804077,-0.88523865,7.7214813,-0.08279419,-0.013687134,-0.12132263,0.21026611,-0.24919128,0.7088623,2017-05-16 12:16:08,NaN
5.9184666,-0.89064306,7.642292,-0.058380127,-7.7819824E-4,-0.07409668,42.0,5.9799347,-0.8733368,7.7232056,-0.05508423,-0.02558899,-0.123046875,0.21037292,-0.24891663,0.70817566,2017-05-16 12:16:09,NaN
5.899313,-0.89064306,7.680599,0.0,0.0,0.0,42.0,5.9849396,-0.8922882,7.717148,-0.08734131,0.0069732666,-0.04888916,0.20983887,-0.24998474,0.7078247,2017-05-16 12:16:10,NaN
5.9663506,-0.8714894,7.6231384,-0.03112793,0.03439331,-0.076797485,42.0,5.991699,-0.91290283,7.709488,-0.066848755,0.05482483,-0.082092285,0.209198,-0.251297,0.7071228,2017-05-16 12:16:11,NaN
5.899313,-0.8810662,7.642292,0.06594849,0.0014801025,0.0740509,42.0,5.996811,-0.88334656,7.708969,-0.11282349,0.038879395,-0.108810425,0.21162415,-0.24931335,0.7100067,2017-05-16 12:16:12,NaN
5.9280434,-0.90021986,7.6231384,0.01184082,-0.02027893,0.017181396,42.0,5.993881,-0.8945465,7.7099457,-0.028167725,-0.03161621,-0.109802246,0.21278381,-0.24822998,0.7142029,2017-05-16 12:16:13,NaN
5.90889,-0.92895025,7.575254,-0.008300781,-0.017333984,0.0073394775,38.0,6.0129395,-0.88079834,7.696686,-0.08808899,-0.018127441,-0.20549011,0.21374512,-0.24876404,0.7130127,2017-05-16 12:16:14,NaN
5.9567738,-0.91937345,7.603985,-0.016067505,-0.025665283,-0.018814087,42.0,5.989868,-0.89012146,7.7135773,-0.024154663,0.018417358,-0.14067078,0.21218872,-0.24836731,0.7128601,2017-05-16 12:16:15,NaN
5.899313,-0.8810662,7.603985,-0.052841187,-0.010879517,-0.06321716,38.0,5.980957,-0.8851776,7.721054,-0.083343506,-1.2207031E-4,-0.120910645,0.2108612,-0.24873352,0.7102814,2017-05-16 12:16:16,NaN
5.9184666,-0.8619126,7.642292,0.0046081543,-0.017288208,0.010177612,38.0,6.0030823,-0.8863373,7.7037354,-0.050979614,0.028259277,-0.10359192,0.21247864,-0.24913025,0.7115631,2017-05-16 12:16:17,NaN
5.90889,-0.8714894,7.5848308,0.036865234,0.0027618408,0.023239136,38.0,6.009918,-0.8889618,7.698105,-0.12593079,0.030883789,-0.1251831,0.21246338,-0.24972534,0.7108612,2017-05-16 12:16:18,NaN
5.93762,-0.8523358,7.651869,-0.021224976,-0.005554199,-0.02809143,38.0,6.0125732,-0.89286804,7.695587,-0.08772278,0.04840088,-0.1362915,0.21170044,-0.2506256,0.7089691,2017-05-16 12:16:19,NaN
5.947197,-0.8810662,7.517793,-0.0028076172,-0.0076446533,-0.011932373,38.0,6.002228,-0.9015045,7.7026367,-0.07737732,0.016189575,-0.12973022,0.2109375,-0.25054932,0.70913696,2017-05-16 12:16:20,NaN
5.9184666,-0.94810385,7.5944076,0.005859375,0.006378174,0.03137207,38.0,6.0176697,-0.9048767,7.690201,-0.06556702,-0.02130127,-0.049179077,0.21382141,-0.24935913,0.7145996,2017-05-16 12:16:21,NaN
5.9759274,-0.89064306,7.603985,-0.066329956,0.003250122,-0.08465576,38.0,6.0265656,-0.8978882,7.6840363,-0.07447815,0.03981018,-0.11112976,0.21331787,-0.25042725,0.7116089,2017-05-16 12:16:22,NaN
5.9663506,-0.90021986,7.5944076,0.0,0.0,0.0,38.0,6.0477905,-0.91900635,7.6648407,-0.06845093,0.047302246,-0.091934204,0.21350098,-0.25221252,0.71110535,2017-05-16 12:16:23,NaN
5.947197,-0.89064306,7.52737,-0.08834839,0.012542725,-0.12724304,35.0,6.052429,-0.9114227,7.662094,-0.1003418,0.012481689,-0.10279846,0.21284485,-0.2530365,0.7082672,2017-05-16 12:16:24,NaN
6.0525417,-0.89064306,7.5082164,-0.09861755,0.017913818,-0.12402344,38.0,6.0659943,-0.9072418,7.65184,-0.018569946,0.04914856,-0.106170654,0.21456909,-0.2526245,0.71040344,2017-05-16 12:16:25,NaN
6.0238113,-0.90021986,7.469909,0.058746338,0.0016326904,0.0569458,35.0,6.096466,-0.90242004,7.628174,-0.13075256,-0.010116577,-0.15060425,0.21556091,-0.25416565,0.7085266,2017-05-16 12:16:26,NaN
5.93762,-0.92895025,7.603985,0.0,0.0,0.0,38.0,6.0659485,-0.9211273,7.650223,-0.14109802,-0.0050354004,-0.050064087,0.21585083,-0.25169373,0.71469116,2017-05-16 12:16:27,NaN
5.9663506,-0.90021986,7.517793,0.03791809,0.0070648193,0.057159424,35.0,6.0886536,-0.90289307,7.6343536,-0.1638031,-0.023284912,-0.10229492,0.21582031,-0.25331116,0.7102356,2017-05-16 12:16:28,NaN
6.0238113,-0.92895025,7.5082164,-0.028808594,-0.005874634,-0.047683716,35.0,6.097229,-0.914978,7.626053,-0.049804688,0.056900024,-0.0803833,0.21676636,-0.25334167,0.7124481,2017-05-16 12:16:29,NaN
5.9567738,-0.8714894,7.603985,-0.0066986084,0.016143799,-0.010604858,35.0,6.0802,-0.91264343,7.639923,-0.114486694,0.04093933,-0.09425354,0.21452332,-0.25386047,0.70895386,2017-05-16 12:16:30,NaN
5.9663506,-0.8714894,7.5082164,0.012680054,-0.0073547363,0.0140686035,35.0,6.0838776,-0.881485,7.6406555,-0.10455322,-0.0038146973,-0.067733765,0.21374512,-0.2544403,0.7039337,2017-05-16 12:16:31,NaN
5.9759274,-0.90979666,7.5465236,-0.046920776,0.01473999,-0.071517944,35.0,6.0842285,-0.9127197,7.6367035,-0.13212585,-0.013458252,-0.104660034,0.21517944,-0.2536316,0.710022,2017-05-16 12:16:32,NaN
6.0142345,-0.89064306,7.565677,0.016403198,0.009780884,0.033432007,35.0,6.0791473,-0.9039612,7.6417847,-0.0861969,0.005004883,-0.08248901,0.21537781,-0.25294495,0.7104492,2017-05-16 12:16:33,NaN
5.9759274,-0.92895025,7.536947,-0.005554199,0.032592773,-0.01272583,35.0,6.0911407,-0.9050293,7.6321106,-0.13905334,0.006088257,-0.08644104,0.2158966,-0.253479,0.7102814,2017-05-16 12:16:34,NaN
5.9759274,-0.91937345,7.5082164,-0.019317627,0.006881714,0.0017547607,35.0,6.096222,-0.9079437,7.627701,-0.13050842,0.022628784,-0.12289429,0.21583557,-0.2539673,0.7097168,2017-05-16 12:16:35,NaN
6.0046577,-0.91937345,7.4986396,0.06335449,0.0029907227,0.08201599,31.0,6.110306,-0.9167023,7.6153717,-0.10374451,0.045013428,-0.110565186,0.21659851,-0.25456238,0.71047974,2017-05-16 12:16:36,NaN
6.0142345,-0.8810662,7.4986396,-0.08917236,0.0068359375,-0.09234619,31.0,6.1099243,-0.8881073,7.6190796,-0.11695862,0.0027770996,-0.059783936,0.21672058,-0.25408936,0.7084656,2017-05-16 12:16:37,NaN
6.0238113,-0.90021986,7.6135616,0.07081604,8.8500977E-4,0.103256226,31.0,6.105011,-0.903595,7.6211853,-0.05757141,-0.036193848,-0.04827881,0.21679688,-0.25379944,0.71058655,2017-05-16 12:16:38,NaN
5.9759274,-0.91937345,7.5082164,0.034072876,0.00289917,0.030807495,45.0,6.1137695,-0.9644623,7.6067047,-0.14805603,0.05189514,-0.101882935,0.21643066,-0.25556946,0.7135315,2017-05-16 12:16:39,NaN
6.0716953,-0.89064306,7.5848308,-0.032302856,0.025909424,-0.05984497,49.0,6.1156464,-0.92500305,7.610077,-0.095458984,0.09416199,-0.07803345,0.21740723,-0.25439453,0.71247864,2017-05-16 12:16:40,NaN
6.1387334,-0.93852705,7.479486,0.009597778,0.01083374,-0.0014343262,49.0,6.1469727,-0.94441223,7.5824127,-0.058670044,0.018218994,-0.13209534,0.2154541,-0.25878906,0.70536804,2017-05-16 12:16:41,NaN
6.0716953,-0.92895025,7.383718,0.20353699,0.029129028,0.22993469,45.0,6.1460876,-0.97431946,7.5793457,-0.24847412,0.116241455,-0.22436523,0.21614075,-0.2585144,0.70954895,2017-05-16 12:16:42,NaN
6.1004257,-0.9864111,7.4603324,0.020645142,0.032485962,0.020599365,35.0,6.1805267,-0.9687958,7.5519867,-0.13310242,-0.025466919,-0.074417114,0.21714783,-0.26037598,0.7071686,2017-05-16 12:16:43,NaN
6.205771,-1.0726024,7.4028716,0.03765869,-0.012359619,0.061035156,38.0,6.208267,-1.029129,7.5211945,0.0025939941,-0.005996704,-0.16621399,0.21792603,-0.26272583,0.71029663,2017-05-16 12:16:44,NaN
6.2249246,-1.0342951,7.383718,0.08930969,-0.021118164,0.11668396,35.0,6.299423,-1.0503082,7.4420624,-0.10215759,0.0015411377,-0.08708191,0.22142029,-0.2674408,0.70869446,2017-05-16 12:16:45,NaN
6.215348,-1.0151415,7.3645644,-0.06802368,0.0042419434,-0.065216064,31.0,6.319763,-1.0411377,7.4260864,-0.08164978,0.033233643,-0.05747986,0.22312927,-0.2675476,0.70939636,2017-05-16 12:16:46,NaN
6.2345014,-1.0055647,7.28795,0.012893677,-0.0049438477,0.015258789,31.0,6.309067,-1.0622864,7.43219,-0.08456421,0.040756226,-0.15892029,0.2203064,-0.26930237,0.7058716,2017-05-16 12:16:47,NaN
6.244078,-1.0151415,7.345411,-0.101745605,0.0037231445,-0.12944031,31.0,6.286789,-1.0267029,7.456024,-0.075912476,0.0051727295,-0.14190674,0.22377014,-0.26412964,0.7138672,2017-05-16 12:16:48,NaN
6.1866174,-1.0630256,7.326257,0.032470703,-0.010803223,0.03404236,31.0,6.311249,-1.0338898,7.4343414,-0.113983154,-0.0284729,-0.14746094,0.22340393,-0.26652527,0.7105255,2017-05-16 12:16:49,NaN
6.2249246,-1.0726024,7.374141,0.012161255,-0.00944519,0.013641357,31.0,6.294861,-1.0346222,7.44812,-0.01586914,-0.027755737,-0.14761353,0.2234497,-0.26516724,0.7127228,2017-05-16 12:16:50,NaN
6.215348,-1.0342951,7.3166804,0.038894653,-0.018173218,0.04437256,31.0,6.3118286,-1.0434113,7.4325104,-0.10095215,0.021896362,-0.09114075,0.2241211,-0.26609802,0.71281433,2017-05-16 12:16:51,NaN
6.205771,-1.0342951,7.374141,0.0,0.0,0.0,31.0,6.2939453,-1.0287323,7.449707,-0.09669495,0.0072021484,-0.081100464,0.2230835,-0.26531982,0.7115326,2017-05-16 12:16:52,NaN
6.1004257,-0.90979666,7.536947,-0.021652222,0.011306763,-0.052841187,31.0,6.2092285,-0.9990845,7.52446,-0.12094116,0.086517334,0.034820557,0.22091675,-0.25990295,0.714859,2017-05-16 12:16:53,NaN
6.1387334,-0.9959879,7.422025,-0.044799805,0.0014343262,-0.03715515,31.0,6.2105865,-0.9898834,7.5245514,-0.0814209,-0.0043945313,-0.08784485,0.21948242,-0.26109314,0.71058655,2017-05-16 12:16:54,NaN
6.1387334,-1.0055647,7.4507556,-0.067214966,0.009780884,-0.063827515,31.0,6.216385,-0.9786072,7.52124,-0.0599823,0.011550903,-0.07092285,0.21714783,-0.2633667,0.7034302,2017-05-16 12:16:55,NaN
6.14831,-0.9768343,7.3166804,0.027252197,0.00970459,-0.0032043457,31.0,6.2178955,-0.9893799,7.518585,-0.08872986,0.049575806,-0.06825256,0.2217865,-0.2597351,0.7150574,2017-05-16 12:16:56,NaN
6.14831,-0.9576807,7.4507556,-0.0073547363,-0.005706787,-0.011184692,31.0,6.200638,-1.0013123,7.5312347,-0.03062439,0.020645142,-0.13539124,0.22201538,-0.25830078,0.71868896,2017-05-16 12:16:57,NaN
6.129156,-1.0055647,7.4028716,0.0131073,-0.0034332275,0.04399109,28.0,6.209152,-1.0144196,7.522461,-0.09361267,-0.007080078,-0.11300659,0.21907043,-0.2616577,0.7117157,2017-05-16 12:16:58,NaN
5.602432,-0.5554548,7.5848308,0.20178223,0.13111877,0.06295776,53.0,5.768326,-0.84942627,7.8851166,-0.18397522,0.3182373,-0.21685791,0.201828,-0.2392273,0.7116394,2017-05-16 12:16:59,NaN
5.659893,-0.51714754,7.776367,0.036361694,0.015960693,0.11328125,81.0,5.7611237,-0.5822754,7.9145813,-0.05419922,0.037460327,-0.15098572,0.2207489,-0.21847534,0.7394104,2017-05-16 12:17:00,NaN
5.707777,-0.7278373,7.843405,0.040756226,-0.0010223389,0.096725464,81.0,5.7164764,-0.69277954,7.938019,-0.07765198,-0.04270935,-0.13356018,0.20985413,-0.22633362,0.72592163,2017-05-16 12:17:01,NaN
5.5737014,-1.0342951,7.728483,-0.26745605,-0.09899902,0.2135315,45.0,5.4661713,-0.42866516,8.130646,0.104537964,-0.59284973,-0.5032501,0.20780945,-0.20558167,0.7303314,2017-05-16 12:17:02,NaN
5.209783,-0.9672575,8.159439,-0.015319824,-0.10383606,-0.0012969971,49.0,5.2062836,-0.89489746,8.262192,0.07839966,-0.09938049,-0.11723328,0.1791687,-0.21595764,0.7291107,2017-05-16 12:17:03,NaN
5.410896,-0.9864111,7.9104424,-0.09025574,-0.03694153,-0.12532043,45.0,5.448044,-0.9812317,8.094833,-0.013519287,0.041427612,-0.18141174,0.18969727,-0.22647095,0.733551,2017-05-16 12:17:04,NaN
5.6120086,-0.9864111,7.795521,0.052703857,-0.056747437,0.053848267,45.0,5.53598,-0.93463135,8.040497,0.07559204,-0.03239441,-0.1407013,0.19216919,-0.23045349,0.72435,2017-05-16 12:17:05,NaN
5.793968,-0.9672575,7.699753,-0.010055542,-0.030593872,-0.0046081543,38.0,5.787079,-0.93515015,7.8616333,-0.025665283,-0.03187561,-0.12527466,0.2030487,-0.24069214,0.71990967,2017-05-16 12:17:06,NaN
5.765238,-0.89064306,7.7093296,0.04827881,0.007751465,0.06625366,38.0,5.8587494,-0.92503357,7.8095856,-0.05647278,0.06695557,-0.07322693,0.20864868,-0.2414093,0.72395325,2017-05-16 12:17:07,NaN
5.793968,-0.9672575,7.699753,0.051712036,-0.013244629,0.0692749,35.0,5.8690033,-0.91300964,7.803299,-0.09397888,-0.054031372,-0.13504028,0.2106018,-0.2403717,0.72654724,2017-05-16 12:17:08,NaN
5.803545,-0.89064306,7.7189064,-0.05303955,0.0043945313,-0.072250366,35.0,5.8636475,-0.91430664,7.8071594,-0.06138611,0.04260254,-0.08442688,0.21134949,-0.23930359,0.7292633,2017-05-16 12:17:09,NaN
5.899313,-0.90979666,7.690176,-0.098968506,0.0046539307,-0.12322998,38.0,5.90036,-0.8989563,7.78125,-0.084472656,0.0,-0.072128296,0.20968628,-0.24349976,0.71894836,2017-05-16 12:17:10,NaN
5.803545,-0.94810385,7.642292,0.009033203,-0.008895874,0.016204834,38.0,5.912079,-0.89668274,7.7726135,-0.08256531,-0.015853882,-0.15882874,0.21374512,-0.24085999,0.727478,2017-05-16 12:17:11,NaN
5.793968,-0.8714894,7.690176,-0.002822876,0.0041503906,-0.013656616,35.0,5.906906,-0.8869324,7.777664,-0.14549255,0.02885437,-0.06854248,0.21232605,-0.24157715,0.7237549,2017-05-16 12:17:12,NaN
5.803545,-0.89064306,7.6710224,-0.009262085,-5.950928E-4,-0.01109314,38.0,5.9235535,-0.897583,7.7637634,-0.121292114,0.012252808,-0.09550476,0.21194458,-0.24337769,0.7214966,2017-05-16 12:17:13,NaN
5.851429,-0.90979666,7.699753,-0.09170532,0.014099121,-0.10215759,35.0,5.936142,-0.8872223,7.7553406,-0.09300232,-0.01171875,-0.05984497,0.21414185,-0.24234009,0.7245178,2017-05-16 12:17:14,NaN
5.8322754,-0.8714894,7.575254,0.04510498,-0.010070801,0.059280396,35.0,5.939865,-0.87184143,7.7542267,-0.055862427,0.013763428,-0.15408325,0.2136383,-0.2428894,0.7214813,2017-05-16 12:17:15,NaN
5.803545,-0.8714894,7.6614456,0.07737732,-0.020584106,0.076660156,35.0,5.9217834,-0.87945557,7.7671967,-0.119506836,0.035003662,-0.09893799,0.21447754,-0.24078369,0.726593,2017-05-16 12:17:16,NaN
5.841852,-0.8619126,7.642292,-0.05329895,0.005706787,-0.07046509,35.0,5.9094086,-0.8675537,7.777939,-0.10714722,-0.017745972,-0.20503235,0.21295166,-0.24099731,0.7233887,2017-05-16 12:17:17,NaN
5.8226986,-0.89064306,7.642292,0.0070495605,0.01914978,0.0026397705,38.0,5.9160614,-0.8761749,7.7719116,-0.10017395,-0.022766113,-0.090042114,0.21154785,-0.24285889,0.7196808,2017-05-16 12:17:18,NaN
5.8322754,-0.8810662,7.73806,-0.009063721,-0.015380859,0.017791748,35.0,5.9281006,-0.8686676,7.7635803,-0.057724,-0.030258179,-0.108947754,0.21194458,-0.24339294,0.7184601,2017-05-16 12:17:19,NaN
5.851429,-0.89064306,7.6231384,0.09855652,-0.026107788,0.14840698,31.0,5.9648743,-0.90496826,7.731201,-0.14898682,0.0605011,-0.13105774,0.21549988,-0.24365234,0.7256317,2017-05-16 12:17:20,NaN
5.66947,-0.9959879,7.7093296,-0.08230591,-0.027832031,-0.07888794,38.0,5.766388,-0.9647064,7.8732758,-0.0049743652,-0.056793213,-0.13691711,0.20249939,-0.23991394,0.7237091,2017-05-16 12:17:21,NaN
5.813122,-1.0151415,7.5848308,-0.05177307,-0.009765625,-0.043411255,42.0,5.9547424,-1.0304108,7.723297,-0.11161804,-0.0047302246,-0.12315369,0.20704651,-0.25169373,0.7162781,2017-05-16 12:17:22,NaN
5.899313,-1.0151415,7.5561004,0.059646606,-0.004547119,0.052703857,38.0,5.965637,-1.0303345,7.714905,-0.09526062,0.0632782,-0.14199829,0.21009827,-0.25,0.72236633,2017-05-16 12:17:23,NaN
5.889736,-0.9768343,7.603985,0.013748169,0.01361084,-0.016143799,35.0,5.9669495,-1.0101013,7.716568,-0.096572876,0.015808105,-0.048309326,0.21006775,-0.24986267,0.7204895,2017-05-16 12:17:24,NaN
5.889736,-1.0055647,7.5465236,0.009185791,0.011108398,0.014678955,31.0,5.980591,-1.0100403,7.706009,-0.0693512,0.04298401,-0.14671326,0.21136475,-0.24983215,0.7219238,2017-05-16 12:17:25,NaN
5.93762,-0.93852705,7.5561004,0.026397705,-0.0062408447,0.06594849,31.0,5.9940186,-1.0067444,7.695999,-0.06916809,0.02607727,-0.15032959,0.20979309,-0.252182,0.716095,2017-05-16 12:17:26,NaN
5.899313,-0.9672575,7.6135616,-0.09136963,0.031280518,-0.11824036,31.0,6.000931,-1.0091705,7.6902924,-0.07608032,0.014877319,-0.07652283,0.21051025,-0.2521515,0.7171631,2017-05-16 12:17:27,NaN
5.889736,-1.0055647,7.5561004,-0.04345703,-0.015670776,-0.03543091,31.0,5.989197,-0.9808197,7.7030945,-0.06434631,0.0137786865,-0.08932495,0.21124268,-0.25024414,0.7181549,2017-05-16 12:17:28,NaN
5.9184666,-0.9864111,7.6710224,0.006942749,0.016677856,0.009857178,31.0,6.003952,-0.9999695,7.6891327,-0.13357544,0.032928467,-0.034500122,0.21380615,-0.2494812,0.72406006,2017-05-16 12:17:29,NaN
5.93762,-0.9576807,7.6135616,0.10954285,-0.015045166,0.13522339,31.0,6.037216,-1.0142822,7.6611633,-0.13960266,0.06085205,-0.0473938,0.21266174,-0.2532959,0.7181854,2017-05-16 12:17:30,NaN
5.9567738,-1.0055647,7.565677,0.018127441,0.022491455,0.035827637,28.0,6.019287,-1.0137177,7.6753387,-0.108047485,-0.0077819824,-0.08880615,0.21052551,-0.2536621,0.7152252,2017-05-16 12:17:31,NaN
5.985504,-1.0534488,7.5561004,-0.035873413,0.004714966,-0.057891846,28.0,6.0310364,-1.0171204,7.6656494,-0.038085938,0.022827148,-0.18807983,0.21487427,-0.2509613,0.7245331,2017-05-16 12:17:32,NaN
6.0238113,-0.9864111,7.5465236,-0.006072998,-0.005126953,-0.012176514,28.0,6.0689087,-1.0224152,7.6349945,-0.07595825,0.028137207,-0.08932495,0.21447754,-0.25439453,0.719162,2017-05-16 12:17:33,NaN
5.9663506,-1.0342951,7.536947,0.0,0.0,0.0,28.0,6.0789185,-1.0201263,7.6273346,-0.113204956,-0.001373291,-0.09529114,0.21313477,-0.25627136,0.71450806,2017-05-16 12:17:34,NaN
6.0142345,-0.9864111,7.5561004,0.06210327,-0.005996704,0.07922363,28.0,6.0798645,-1.0297699,7.62529,-0.114151,0.021865845,-0.13409424,0.21466064,-0.25520325,0.71881104,2017-05-16 12:17:35,NaN
5.9663506,-0.9959879,7.565677,0.015991211,0.0022888184,0.02420044,28.0,6.066269,-1.0183411,7.6376343,-0.11418152,0.024047852,-0.11920166,0.21398926,-0.25453186,0.7180176,2017-05-16 12:17:36,NaN
6.0142345,-0.9959879,7.575254,0.0,0.0,0.0,28.0,6.0660706,-1.0125275,7.638565,-0.04588318,0.004623413,-0.05203247,0.21469116,-0.25386047,0.7192383,2017-05-16 12:17:37,NaN
5.985504,-1.0247183,7.5465236,-0.019195557,0.011154175,-0.018814087,28.0,6.076004,-1.0289917,7.628479,-0.08303833,0.048339844,-0.08279419,0.21430969,-0.255188,0.7183838,2017-05-16 12:17:38,NaN
5.9663506,-1.0342951,7.517793,0.056488037,-0.008575439,0.07505798,28.0,6.058243,-1.0238647,7.643265,-0.106155396,0.0023345947,-0.13845825,0.21406555,-0.25390625,0.71965027,2017-05-16 12:17:39,NaN
6.0142345,-1.0630256,7.575254,-0.01828003,-0.0021820068,-0.022079468,28.0,6.0787506,-1.0164032,7.62796,-0.07217407,-0.0051116943,-0.09591675,0.21643066,-0.2534485,0.72210693,2017-05-16 12:17:40,NaN
5.9567738,-1.0055647,7.479486,0.0014801025,-0.019638062,0.0059814453,35.0,6.080887,-1.0186615,7.6259613,-0.11517334,0.037994385,-0.17562866,0.21638489,-0.25367737,0.7219238,2017-05-16 12:17:41,NaN
5.985504,-1.0247183,7.52737,-0.16404724,0.02961731,-0.20631409,28.0,6.0720825,-1.0179901,7.633072,-0.10636902,0.023712158,-0.073776245,0.21530151,-0.253891,0.7203827,2017-05-16 12:17:42,NaN
5.899313,-0.9959879,7.565677,-0.0134887695,0.015640259,-0.020248413,28.0,6.064972,-1.0084534,7.639984,-0.12649536,0.041397095,-0.06707764,0.21400452,-0.25428772,0.7174225,2017-05-16 12:17:43,NaN
5.9759274,-1.0055647,7.5082164,0.016738892,-0.013824463,0.028274536,28.0,6.0785065,-1.0080414,7.6292725,-0.08555603,0.013748169,-0.13807678,0.21592712,-0.2537384,0.7202759,2017-05-16 12:17:44,NaN
5.985504,-1.0247183,7.441179,-0.08029175,0.021331787,-0.07623291,35.0,6.08255,-1.0126953,7.6254272,-0.10322571,-0.06329346,-0.12062073,0.21524048,-0.2546997,0.71850586,2017-05-16 12:17:45,NaN
5.9663506,-0.9672575,7.489063,-0.010360718,0.0037994385,-0.026733398,35.0,6.065933,-1.0143127,7.638443,-0.07298279,0.04727173,-0.14724731,0.21354675,-0.25482178,0.7166748,2017-05-16 12:17:46,NaN
5.9759274,-0.9959879,7.5082164,0.0055389404,-0.016082764,0.011581421,35.0,6.074066,-1.0145569,7.6319427,-0.053863525,0.006652832,-0.08627319,0.21659851,-0.25289917,0.7229614,2017-05-16 12:17:47,NaN
6.0238113,-1.043872,7.5082164,-0.0074920654,-0.026809692,-0.0047302246,35.0,6.0796204,-1.0022736,7.629135,-0.07304382,0.021606445,-0.19242859,0.21627808,-0.2534485,0.7205353,2017-05-16 12:17:48,NaN
6.0525417,-1.0630256,7.469909,-0.012496948,0.0039520264,-0.015533447,35.0,6.092224,-1.0223541,7.6164246,-0.031158447,-0.012786865,-0.15246582,0.21478271,-0.25598145,0.71694946,2017-05-16 12:17:49,NaN
6.0142345,-1.0151415,7.469909,-0.06826782,0.0056610107,-0.09214783,35.0,6.072296,-0.9967804,7.6356964,-0.065719604,-0.024734497,-0.18536377,0.21603394,-0.25300598,0.7204437,2017-05-16 12:17:50,NaN
6.0238113,-0.9864111,7.4986396,0.015701294,0.00881958,0.017623901,35.0,6.0717163,-1.0094147,7.634506,-0.11961365,0.015136719,-0.14331055,0.21456909,-0.254364,0.7180023,2017-05-16 12:17:51,NaN
5.171476,-0.9576807,8.1402855,-0.054000854,0.06100464,-0.0119018555,35.0,5.3223724,-0.9730377,8.178986,-0.1875,-0.021240234,-0.020385742,0.18313599,-0.22236633,0.731781,2017-05-16 12:17:52,NaN
5.209783,-1.1971009,7.920019,0.0077819824,0.03440857,0.014831543,38.0,5.480835,-1.1082001,8.056213,-0.14164734,0.032196045,-0.11555481,0.18795776,-0.232193,0.7355499,2017-05-16 12:17:53,NaN
5.21936,-1.0151415,8.034941,-0.091796875,0.021240234,-0.17474365,38.0,5.3287964,-1.0258942,8.168335,-0.09857178,0.0043792725,-0.13232422,0.1834259,-0.22332764,0.736496,2017-05-16 12:17:54,NaN
5.3342814,-1.0534488,8.054094,0.18566895,-0.05239868,0.2901764,35.0,5.3856506,-1.0454712,8.128464,-0.10095215,0.051193237,-0.092453,0.18522644,-0.2263794,0.73547363,2017-05-16 12:17:55,NaN
5.2863975,-1.0247183,7.9870567,-0.13796997,0.014678955,-0.2227478,35.0,5.4125824,-1.0312195,8.112381,-0.12788391,0.009689331,-0.19895935,0.18556213,-0.22790527,0.7315521,2017-05-16 12:17:56,NaN
5.363012,-1.0055647,7.9870567,-0.022201538,-0.022720337,-0.039138794,35.0,5.4257355,-1.0237122,8.104538,-0.07293701,0.043045044,-0.10939026,0.18563843,-0.22872925,0.7293396,2017-05-16 12:17:57,NaN
5.315128,-0.93852705,8.101978,0.07369995,-0.01876831,0.10765076,35.0,5.4065247,-1.0246124,8.117264,-0.10821533,0.030319214,-0.12211609,0.18673706,-0.22639465,0.73495483,2017-05-16 12:17:58,NaN
5.3247046,-1.0151415,7.9391727,-0.0546875,0.0046691895,-0.06793213,35.0,5.4057465,-1.0233154,8.117935,-0.093811035,-0.0390625,-0.15002441,0.18515015,-0.22761536,0.7306671,2017-05-16 12:17:59,NaN
5.45878,-1.0055647,7.9008656,0.019073486,5.79834E-4,0.026107788,38.0,5.4199524,-1.0445862,8.105743,0.0826416,0.02305603,-0.21955872,0.18545532,-0.2287445,0.7314453,2017-05-16 12:18:00,NaN
5.3342814,-1.0821792,8.073248,0.04576111,-0.08030701,0.061203003,38.0,5.2759094,-0.9450073,8.212311,0.036010742,-0.09011841,-0.16267395,0.18151855,-0.21984863,0.7310028,2017-05-16 12:18:01,NaN
5.3438582,-1.0342951,7.9008656,0.0,0.0,0.0,42.0,5.4437256,-1.0339813,8.091171,-0.104537964,0.012451172,-0.19136047,0.18746948,-0.22872925,0.7327728,2017-05-16 12:18:02,NaN
4.759673,-0.8331822,8.350976,-0.079940796,0.09811401,-0.15545654,45.0,4.9146423,-0.87506104,8.4410095,-0.120285034,0.04421997,-0.023635864,0.16716003,-0.2041626,0.7324219,2017-05-16 12:18:03,NaN
5.056554,-0.842759,8.1881695,-0.043121338,-0.04434204,-0.014144897,45.0,5.108841,-0.87879944,8.324524,-0.028442383,-0.020141602,-0.19317627,0.17495728,-0.21202087,0.7288208,2017-05-16 12:18:04,NaN
5.1140146,-0.8523358,8.130709,0.025543213,0.013580322,0.04838562,45.0,5.189514,-0.871109,8.275284,-0.09550476,0.013031006,-0.18478394,0.1777649,-0.21557617,0.7250519,2017-05-16 12:18:05,NaN
5.1235914,-0.82360536,8.1881695,0.0032806396,0.0107421875,-0.009246826,42.0,5.1848145,-0.84861755,8.280563,-0.11804199,0.045013428,-0.12197876,0.18022156,-0.21289063,0.73072815,2017-05-16 12:18:06,NaN
5.1235914,-0.82360536,8.111555,0.048187256,-0.007369995,0.07246399,42.0,5.2173157,-0.84858704,8.260117,-0.15054321,0.05860901,-0.15602112,0.18051147,-0.21508789,0.727005,2017-05-16 12:18:07,NaN
5.085284,-0.90979666,8.111555,0.068862915,0.009094238,0.108184814,56.0,5.2460938,-0.8903656,8.237473,-0.15208435,-0.008575439,-0.14698792,0.17868042,-0.21925354,0.7217865,2017-05-16 12:18:08,NaN
5.209783,-0.842759,8.111555,0.02909851,-0.05769348,0.03929138,56.0,5.250763,-0.85424805,8.238327,-0.061416626,0.05064392,-0.17507935,0.18112183,-0.21713257,0.7247162,2017-05-16 12:18:09,NaN
5.4204726,-0.90021986,8.025364,-0.12664795,-0.017745972,-0.18630981,56.0,5.396805,-0.8903961,8.139526,-0.0031433105,-0.0630188,-0.14437866,0.18597412,-0.22451782,0.7219696,2017-05-16 12:18:10,NaN
5.3342814,-0.9672575,7.8912888,-0.039031982,0.029907227,-0.037353516,49.0,5.5560913,-0.9106903,8.029358,-0.13519287,-0.05633545,-0.07507324,0.19520569,-0.22914124,0.72769165,2017-05-16 12:18:11,NaN
4.5394063,-0.78529817,8.628703,0.0256958,-0.0056152344,0.061294556,60.0,4.6194305,-0.8450165,8.609116,-0.042999268,0.08227539,-0.028305054,0.15226746,-0.19459534,0.7247009,2017-05-16 12:18:12,NaN
4.5202527,-0.90979666,8.456321,-0.0012969971,-0.08578491,0.048858643,63.0,4.548645,-0.86291504,8.6449585,-0.026687622,-0.10411072,-0.22758484,0.14909363,-0.19233704,0.7266998,2017-05-16 12:18:13,NaN
4.7884035,-0.8714894,8.360553,0.028778076,0.026947021,0.055725098,60.0,4.841095,-0.88352966,8.482529,-0.07397461,0.02545166,-0.10601807,0.16119385,-0.20376587,0.7253418,2017-05-16 12:18:14,NaN
4.8362875,-0.81402856,8.465898,-0.007217407,0.0074768066,-0.01776123,60.0,4.9196167,-0.8590088,8.439758,-0.07078552,0.055404663,-0.07687378,0.16375732,-0.20704651,0.71954346,2017-05-16 12:18:15,NaN
4.9799395,-0.842759,8.274361,0.004272461,-0.013519287,0.014923096,56.0,5.0265045,-0.8466644,8.377808,-0.095947266,0.015823364,-0.12387085,0.16981506,-0.20977783,0.72172546,2017-05-16 12:18:16,NaN
5.00867,-0.8523358,8.331821,0.048614502,-0.0026855469,0.08337402,56.0,5.085724,-0.8625946,8.340347,-0.12791443,0.0181427,-0.08642578,0.17062378,-0.2136383,0.7174988,2017-05-16 12:18:17,NaN
4.9799395,-0.842759,8.283937,0.023269653,0.01121521,0.038085938,56.0,5.0654297,-0.861969,8.352753,-0.1076355,0.0038757324,-0.07157898,0.17199707,-0.21104431,0.72439575,2017-05-16 12:18:18,NaN
5.056554,-0.8619126,8.149862,0.020858765,-0.029846191,0.034866333,53.0,5.077545,-0.8855438,8.342926,-0.06526184,-0.013381958,-0.22520447,0.17044067,-0.21347046,0.7204437,2017-05-16 12:18:19,NaN
5.0374002,-0.89064306,8.149862,-0.04069519,0.0017089844,-0.07006836,53.0,5.1391754,-0.8858032,8.305084,-0.14050293,-0.013122559,-0.2690735,0.17411804,-0.21502686,0.7227936,2017-05-16 12:18:20,NaN
5.0374002,-0.8619126,8.169016,0.03274536,-0.009536743,0.039886475,53.0,5.1259613,-0.8660431,8.315323,-0.08642578,0.007965088,-0.14312744,0.17404175,-0.21386719,0.7224579,2017-05-16 12:18:21,NaN
5.094861,-0.8810662,8.178593,-0.035491943,-0.009094238,-0.03463745,53.0,5.1612244,-0.8929596,8.290634,-0.067214966,-0.0059661865,-0.1729126,0.17385864,-0.2169342,0.71972656,2017-05-16 12:18:22,NaN
5.094861,-0.8810662,8.054094,-0.01612854,-0.012359619,-0.03492737,56.0,5.1892242,-0.9032593,8.272018,-0.095214844,0.017944336,-0.22239685,0.17521667,-0.21803284,0.72084045,2017-05-16 12:18:23,NaN
5.133168,-0.89064306,8.149862,-0.094558716,0.037216187,-0.19119263,56.0,5.2235565,-0.8904724,8.25177,-0.10231018,0.03239441,-0.12042236,0.17456055,-0.22091675,0.71295166,2017-05-16 12:18:24,NaN
5.104438,-0.89064306,8.1402855,-0.0050201416,-0.013015747,-0.0041046143,53.0,5.182617,-0.8769531,8.278992,-0.06137085,0.018875122,-0.17488098,0.1749115,-0.217453,0.718277,2017-05-16 12:18:25,NaN
5.142745,-0.8810662,8.1881695,0.002960205,5.79834E-4,0.040298462,53.0,5.2082977,-0.85173035,8.265488,-0.07342529,-0.033584595,-0.07966614,0.18032837,-0.21459961,0.72802734,2017-05-16 12:18:26,NaN
5.142745,-0.80445176,8.111555,0.055786133,-0.022888184,0.08909607,53.0,5.2213593,-0.8708954,8.255249,-0.08648682,0.012802124,-0.12390137,0.18045044,-0.2157135,0.7284241,2017-05-16 12:18:27,NaN
5.1523223,-0.8523358,8.111555,0.0,0.0,0.0,53.0,5.236328,-0.8744354,8.245377,-0.08784485,0.029968262,-0.08679199,0.17723083,-0.21951294,0.7173767,2017-05-16 12:18:28,NaN
5.133168,-0.842759,8.0924015,0.037139893,0.0022888184,0.055358887,49.0,5.240555,-0.86727905,8.243454,-0.10568237,-0.00440979,-0.1802063,0.17829895,-0.21887207,0.7191925,2017-05-16 12:18:29,NaN
5.142745,-0.8714894,8.025364,-0.16447449,0.022033691,-0.2593689,49.0,5.2377777,-0.8474579,8.247284,-0.048416138,0.016616821,-0.19766235,0.17958069,-0.21737671,0.72132874,2017-05-16 12:18:30,NaN
5.1235914,-0.81402856,8.159439,0.0,0.0,0.0,49.0,5.239624,-0.8500824,8.245834,-0.118377686,0.04649353,-0.087249756,0.17922974,-0.21783447,0.7203369,2017-05-16 12:18:31,NaN
5.1235914,-0.842759,8.025364,0.043380737,-0.01008606,0.07652283,49.0,5.2488556,-0.86743164,8.238159,-0.14123535,0.036590576,-0.22938538,0.17901611,-0.21890259,0.72013855,2017-05-16 12:18:32,NaN
5.1523223,-0.8523358,8.1402855,-0.027297974,0.010055542,-0.040420532,49.0,5.2353363,-0.8480835,8.248764,-0.08683777,0.0036315918,-0.13104248,0.17938232,-0.21736145,0.7211609,2017-05-16 12:18:33,NaN
5.209783,-0.8810662,8.063671,0.09176636,-0.043624878,0.1472168,45.0,5.246994,-0.84806824,8.241364,-0.057632446,-0.023620605,-0.09638977,0.1802826,-0.21748352,0.7221832,2017-05-16 12:18:34,NaN
5.142745,-0.842759,8.054094,0.022415161,-9.765625E-4,0.049621582,45.0,5.248123,-0.83825684,8.241653,-0.099624634,0.0074157715,-0.15115356,0.18475342,-0.21365356,0.7340393,2017-05-16 12:18:35,NaN
5.1810527,-0.81402856,8.063671,-0.02720642,0.014022827,-0.042633057,45.0,5.2850037,-0.85002136,8.216843,-0.13652039,0.019180298,-0.15359497,0.18066406,-0.22001648,0.7182617,2017-05-16 12:18:36,NaN
5.1523223,-0.8714894,8.111555,0.028930664,0.016235352,0.043182373,45.0,5.2669373,-0.85253906,8.228165,-0.14567566,-0.0055236816,-0.09681702,0.18040466,-0.21891785,0.7202301,2017-05-16 12:18:37,NaN
5.21936,-0.842759,8.063671,-0.048980713,-0.005645752,-0.092666626,45.0,5.2748566,-0.8389435,8.224487,-0.044631958,-0.005508423,-0.17486572,0.18313599,-0.21707153,0.72569275,2017-05-16 12:18:38,NaN
5.21936,-0.8331822,8.073248,-0.027359009,0.0071411133,-0.029922485,45.0,5.3029633,-0.8492584,8.205338,-0.086364746,0.018417358,-0.114852905,0.1829071,-0.21951294,0.7221527,2017-05-16 12:18:39,NaN
5.257667,-0.842759,8.063671,0.0026245117,-0.024093628,-0.0068969727,45.0,5.311783,-0.8518982,8.199356,-0.06794739,0.021057129,-0.10887146,0.18138123,-0.2214508,0.7168274,2017-05-16 12:18:40,NaN
5.21936,-0.842759,8.0445175,-0.011123657,-0.0012969971,-0.01725769,45.0,5.3013306,-0.8418884,8.207138,-0.084747314,0.011047363,-0.13027954,0.18574524,-0.21690369,0.7298126,2017-05-16 12:18:41,NaN
5.2385135,-0.8619126,8.034941,0.01109314,-0.015579224,0.021942139,45.0,5.3123016,-0.8500366,8.1992035,-0.095718384,0.005569458,-0.13595581,0.18457031,-0.2188263,0.72572327,2017-05-16 12:18:42,NaN
5.2480903,-0.8714894,8.149862,0.00592041,0.019454956,0.003112793,45.0,5.3213043,-0.8539734,8.192963,-0.050231934,0.036758423,-0.0071258545,0.18278503,-0.22103882,0.71977234,2017-05-16 12:18:43,NaN
5.21936,-0.842759,8.082825,-0.10626221,0.016906738,-0.1590271,42.0,5.3250275,-0.8442688,8.191544,-0.053955078,-1.8310547E-4,-0.12831116,0.18367004,-0.22045898,0.7208557,2017-05-16 12:18:44,NaN
5.2289367,-0.8331822,8.169016,-0.016952515,0.017456055,-0.044158936,45.0,5.296158,-0.84806824,8.209854,-0.06593323,0.030838013,-0.10574341,0.1843872,-0.21772766,0.72724915,2017-05-16 12:18:45,NaN
