ACC_X,ACC_Y,ACC_Z,GYRO_X,GYRO_Y,GYRO_Z,LIGH_1,GRAV_X,GRAV_Y,GRAV_Z,LINACC_X,LINACC_Y,LINACC_Z,ROTVEC_X,ROTVEC_Y,ROTVEC_Z,TIME,VOICE
-0.61408997,8.864899,1.9263,0.9747925,1.4445496,-0.0897522,1179.0,-1.547296,9.618699,1.1211116,0.8632605,-0.3189869,0.85586834,0.47407725,0.46700105,0.43271983,2017-01-02 10:32:24,59.26556312292107
-1.1793671,9.168381,1.2558594,0.5388489,0.5708008,0.158432,897.0,-1.1738822,9.6196375,1.5016518,-0.051679254,-0.07270622,-0.18669963,0.48509517,0.43372774,0.43381816,2017-01-02 10:32:25,63.09279859402412
-0.76297,3.0272522,-8.281982,-2.1798706,-3.1381073,2.4408264,8203.0,-1.6462235,9.517517,-1.6962324,0.80797994,-6.0550766,-6.66331,0.42009366,0.6403164,0.46967828,2017-01-02 10:32:26,72.06847419886876
2.60997,-1.3423004,8.335358,0.11694336,0.30325317,0.08961487,212.0,2.784894,0.7888112,9.369767,-0.16785574,-2.1200113,-0.41599178,0.1218671,-0.10139401,0.56064385,2017-01-02 10:32:27,66.16387835012715
-0.07965088,-0.40353394,8.879593,-5.340576E-4,0.0027313232,0.0030975342,222.0,0.17237173,1.1402662,9.738607,-0.24308558,-1.4565555,-0.145154,0.04779676,0.03441947,0.69788414,2017-01-02 10:32:28,51.76226900610053
-0.08061218,-0.37763977,8.871979,-0.0015563965,0.003753662,0.0043182373,240.0,-0.03536861,-0.076879404,9.806285,-0.05597014,-0.32562065,-0.026748657,-0.0037660904,-0.0021055401,0.8081218,2017-01-02 10:32:29,62.02028082250528
-0.08255005,-0.38763428,8.873779,-9.460449E-4,0.0031433105,0.00289917,240.0,-0.08030009,-0.3997085,9.798172,0.0010780767,-0.017811358,-0.012412071,-0.014641373,-0.014761494,0.8346039,2017-01-02 10:32:30,70.48209368240357
-0.095718384,-0.41874695,8.880966,-0.0027770996,0.0031433105,0.0037078857,235.0,-0.101321205,-0.44647354,9.795958,0.006939329,0.036393017,0.008078575,-0.016749827,-0.016267106,0.83795047,2017-01-02 10:32:31,44.41322854602396
-0.06341553,-0.38763428,8.891724,-0.0046081543,2.89917E-4,0.0012664795,231.0,-0.09174094,-0.45528978,9.795646,0.011435501,0.0085783005,-0.0112781525,-0.016579553,-0.016916567,0.8381406,2017-01-02 10:32:32,56.230423372594544
-0.051452637,-0.40678406,8.890533,-0.0058288574,-1.0681152E-4,0.0032958984,240.0,-0.09125271,-0.45285544,9.795763,0.002601035,0.02424243,-0.020581245,-0.016494602,-0.016822428,0.8380249,2017-01-02 10:32:33,68.01678585705054
-0.06939697,-0.39601135,8.874985,0.0017242432,-1.0681152E-4,0.002029419,245.0,-0.08704277,-0.44363165,9.796224,0.009526484,0.00623852,-0.0074510574,-0.01607298,-0.01653036,0.8375383,2017-01-02 10:32:34,57.66317397809047
-0.08135986,-0.39720154,8.888138,-0.001739502,-0.0019378662,-8.087158E-4,245.0,-0.08054857,-0.43760526,9.796551,0.0012856424,-0.007450938,0.004401207,-0.015639625,-0.016442124,0.8371447,2017-01-02 10:32:35,72.66471135737697
-0.06939697,-0.36610413,8.903687,-0.0019378662,0.0021362305,-8.239746E-4,245.0,-0.08138072,-0.43461475,9.796677,0.011533156,0.009778231,-0.013058662,-0.015595217,-0.016287837,0.8370307,2017-01-02 10:32:36,46.383239731284704
-0.08375549,-0.38046265,8.878571,3.0517578E-4,5.0354004E-4,3.9672852E-4,245.0,-0.085914575,-0.44395614,9.796219,-0.012990758,-0.014812082,0.004012108,-0.016034072,-0.016575394,0.8375297,2017-01-02 10:32:37,68.02482618244926
-0.08375549,-0.38763428,8.877365,0.0017242432,-0.0011291504,0.0014190674,235.0,-0.07919462,-0.4440154,9.796273,-0.017941177,-0.015008807,-0.006058693,-0.015752701,-0.01676118,0.83739704,2017-01-02 10:32:38,69.21351178667494
-0.08255005,-0.38883972,8.8989105,9.0026855E-4,0.002746582,-8.087158E-4,235.0,-0.0788903,-0.44028813,9.796444,-0.013388544,-0.005026847,-0.0048589706,-0.015641034,-0.016605433,0.8372284,2017-01-02 10:32:39,73.20336606038481
-0.08015442,-0.4008026,8.884552,-9.3078613E-4,0.0019226074,0.0,240.0,-0.08704676,-0.44031253,9.796373,0.0012250692,-0.0047836304,-0.016901016,-0.0159851,-0.016384047,0.8373936,2017-01-02 10:32:40,58.34489823121038
-0.06819153,-0.39959717,8.879761,5.0354004E-4,5.0354004E-4,0.0016326904,240.0,-0.08700549,-0.44409296,9.796204,-0.0024719313,0.0030622184,-0.0024633408,-0.016083641,-0.0165517,0.8375577,2017-01-02 10:32:41,50.91072685722763
-0.07777405,-0.41036987,8.85704,0.0017242432,0.0019378662,6.1035156E-4,235.0,-0.085681066,-0.4429633,9.796267,-0.0036070868,-0.0024136603,0.017495155,-0.01599791,-0.016538022,0.83748174,2017-01-02 10:32:42,46.745802428781005
-0.09690857,-0.40797424,8.891724,-0.0011291504,-5.187988E-4,-0.0018310547,240.0,-0.08600788,-0.44289035,9.796267,0.019369133,0.008004725,-0.0012636185,-0.016009739,-0.016525902,0.83748513,2017-01-02 10:32:43,68.33250283391774
-0.06700134,-0.38165283,8.897705,-3.2043457E-4,0.0015106201,2.1362305E-4,254.0,-0.08330515,-0.44196293,9.796332,0.008580901,0.019337386,0.009553909,-0.015871335,-0.016558731,0.83739024,2017-01-02 10:32:44,72.93263378100148
-0.07417297,-0.3912201,8.892929,-0.0011291504,0.0021362305,1.9836426E-4,249.0,-0.09170323,-0.44421935,9.796154,-0.007678233,-0.0071041584,-0.008471489,-0.016284851,-0.01642933,0.8376579,2017-01-02 10:32:45,44.68700020655344
-0.07777405,-0.40438843,8.859421,-0.0013275146,3.0517578E-4,-0.0010223389,254.0,-0.08826365,-0.44569212,9.79612,-0.014568083,-0.0035802722,0.001821518,-0.01619531,-0.016499901,0.83762145,2017-01-02 10:32:46,73.53626076552074
-0.095718384,-0.40678406,8.863022,7.019043E-4,-5.187988E-4,-0.0018310547,249.0,-0.07971029,-0.44490618,9.796228,0.0029674321,0.005497843,-0.017259598,-0.015798023,-0.016786337,0.8374462,2017-01-02 10:32:47,70.28298894980652
-0.0657959,-0.4055786,8.902496,0.0019226074,-0.001739502,-0.0024414063,249.0,-0.09104192,-0.44251594,9.796238,-0.008334696,0.013812244,0.008264542,-0.016211819,-0.016372258,0.83757025,2017-01-02 10:32:48,69.20746254923606
-0.07896423,-0.4008026,8.890533,0.0021209717,0.0017242432,-8.239746E-4,240.0,-0.0835834,-0.45013106,9.795958,0.001632601,2.7003884E-4,0.003739357,-0.016099494,-0.01691096,0.8377516,2017-01-02 10:32:49,66.77690930439938
-0.09211731,-0.3756714,8.872589,-0.0013275146,-0.0011291504,-0.002029419,235.0,-0.0900323,-0.45060816,9.795878,0.013469316,-0.018414676,-0.016026497,-0.016383722,-0.016756492,0.8379025,2017-01-02 10:32:50,45.198923623377006
-0.07298279,-0.39840698,8.891724,-0.0019378662,0.0023345947,6.1035156E-4,235.0,-0.088810906,-0.4376599,9.796477,0.01957886,0.00835073,-0.004876137,-0.015988966,-0.016219124,0.83731323,2017-01-02 10:32:51,71.11734635807922
-0.08135986,-0.37806702,8.896515,-0.001739502,-9.1552734E-4,0.0,235.0,-0.089839734,-0.44351158,9.796204,-0.02616278,-0.023486465,-0.0066919327,-0.016187591,-0.01644888,0.83758944,2017-01-02 10:32:52,54.88223576977613
-0.08375549,-0.447464,8.894119,-7.171631E-4,9.1552734E-5,0.0012207031,235.0,-0.07888962,-0.43665704,9.796606,-0.0253845,0.053710073,0.0061950684,-0.01554461,-0.016445698,0.8370699,2017-01-02 10:32:53,66.6447695989617
-0.0993042,-0.39482117,8.871384,-0.0021514893,0.002746582,-8.087158E-4,240.0,-0.080372795,-0.43822137,9.796524,-0.02645804,0.002362281,-0.0077295303,-0.015648587,-0.01647403,0.83716804,2017-01-02 10:32:54,45.384643662531666
-0.08015442,-0.4019928,8.869003,7.019043E-4,-0.002960205,4.119873E-4,254.0,-0.083904475,-0.44229808,9.796311,-0.004143499,-0.0013051629,-0.005692482,-0.01590546,-0.01655715,0.83741695,2017-01-02 10:32:55,65.21106507908428
-0.098098755,-0.40678406,8.883347,-1.0681152E-4,3.0517578E-4,-0.002243042,254.0,-0.09036184,-0.44790554,9.796,-0.014095053,-3.748536E-4,0.0046987534,-0.016326038,-0.01662835,0.8377915,2017-01-02 10:32:56,71.60824748261764
-0.071777344,-0.4091797,8.888138,-7.324219E-4,0.002532959,-3.9672852E-4,249.0,-0.09021796,-0.44395235,9.796181,0.01367031,0.009217083,-0.0042915344,-0.016215209,-0.016458003,0.8376163,2017-01-02 10:32:57,67.59376044296098
-0.053833008,-0.4139557,8.894119,3.0517578E-4,0.002532959,0.002243042,240.0,-0.07780282,-0.43740225,9.796581,-0.008415818,-0.0053743124,-0.018927574,-0.015518653,-0.016508153,0.83708066,2017-01-02 10:32:58,44.14976201498905
-0.055038452,-0.39361572,8.869003,-0.0013275146,0.0015258789,-0.0010223389,240.0,-0.074193984,-0.43924987,9.796527,-0.012819499,0.0014407039,0.0032587051,-0.015415806,-0.016687963,0.8370888,2017-01-02 10:32:59,44.59871411507193
-0.09451294,-0.41036987,8.884552,9.1552734E-4,-0.0021514893,-0.0040740967,240.0,-0.075262986,-0.44172013,9.796408,0.010861486,0.0107982755,-0.008545876,-0.015526339,-0.016767433,0.837218,2017-01-02 10:33:00,44.569234437648326
-0.07537842,-0.39361572,8.871384,-5.187988E-4,-0.0031585693,-0.0018310547,235.0,-0.08269242,-0.43814284,9.796509,-0.03743033,0.011083484,0.004544258,-0.015744157,-0.016407274,0.83721125,2017-01-02 10:33:01,46.80386604988743
-0.08375549,-0.37806702,8.895325,-0.0021362305,-7.171631E-4,-0.0010070801,226.0,-0.08689662,-0.43951878,9.796411,0.013058692,-0.0055458546,-0.0136060715,-0.01595771,-0.016353182,0.8373559,2017-01-02 10:33:02,67.98523034426523
-0.098098755,-0.38285828,8.896515,-0.0027618408,9.1552734E-4,-4.119873E-4,235.0,-0.07568602,-0.44641894,9.796191,0.023187697,-0.03651175,-0.017652512,-0.015668701,-0.016962662,0.83743113,2017-01-02 10:33:03,57.489162762877655
-0.086135864,-0.41036987,8.895325,-0.0023498535,-0.0033721924,-0.0014190674,254.0,-0.08348359,-0.4457375,9.796159,0.005204007,0.005068749,0.0018129349,-0.015978925,-0.016720103,0.8375584,2017-01-02 10:33:04,66.97430307523325
-0.08135986,-0.3912201,8.883347,-1.0681152E-4,0.0031585693,0.0014190674,231.0,-0.0869987,-0.4423719,9.796281,-0.0047414526,0.014137119,0.019667625,-0.016037714,-0.016476065,0.83748245,2017-01-02 10:33:05,57.411324814605216
-0.1040802,-0.43310547,8.888138,-0.001739502,-0.0015258789,0.0016326904,235.0,-0.088947326,-0.4472957,9.79604,-0.002971381,0.0054421425,0.021044731,-0.016250305,-0.016639965,0.83773637,2017-01-02 10:33:06,70.0388701283668
-0.061019897,-0.3912201,8.882156,-0.001739502,-0.003768921,-6.1035156E-4,235.0,-0.08367171,-0.4412442,9.796361,-0.0018075332,0.0034092069,-0.0013008118,-0.015867703,-0.016517092,0.8373663,2017-01-02 10:33:07,70.36725666037526
-0.0765686,-0.4019928,8.913269,-7.171631E-4,-0.0013275146,1.9836426E-4,240.0,-0.08424306,-0.44328016,9.796264,0.009443417,0.0014435053,-0.0036907196,-0.015945762,-0.01659117,0.8374666,2017-01-02 10:33:08,67.55935349188456
-0.07537842,-0.38523865,8.886948,0.0023345947,0.003967285,0.0034484863,240.0,-0.0872437,-0.4414024,9.796323,0.013378009,9.767711E-4,0.0039281845,-0.016022312,-0.01642668,0.83744514,2017-01-02 10:33:09,62.86045356724828
-0.071777344,-0.3900299,8.915649,-0.0021514893,-1.0681152E-4,0.003250122,235.0,-0.0777634,-0.44465575,9.796255,0.008339979,0.008588284,0.008960724,-0.015709426,-0.0168284,0.83739614,2017-01-02 10:33:10,74.1070721355947
-0.07537842,-0.39482117,8.897705,-5.187988E-4,-5.187988E-4,-0.0024414063,240.0,-0.08170979,-0.44067952,9.796403,0.008396223,0.0089149475,0.019369125,-0.015770117,-0.016545737,0.8373022,2017-01-02 10:33:11,61.22636394667323
-0.0765686,-0.40438843,8.894119,3.0517578E-4,-0.001739502,-0.0014343262,240.0,-0.08877681,-0.44445506,9.796171,-0.0043510273,-0.009273857,0.008004189,-0.01616784,-0.016519405,0.8376092,2017-01-02 10:33:12,59.73479037712441
-0.07058716,-0.4055786,8.900101,-9.1552734E-4,0.0017242432,1.9836426E-4,235.0,-0.08504257,-0.44642785,9.796114,-0.01137615,-0.010136992,-0.0042324066,-0.016062865,-0.016708044,0.83761984,2017-01-02 10:33:13,45.84193294176741
-0.06460571,-0.39959717,8.891724,-0.0021514893,-3.0517578E-4,0.0018310547,240.0,-0.091547124,-0.44601086,9.796075,0.018386722,0.004735887,0.011050224,-0.016325764,-0.016512556,0.83773285,2017-01-02 10:33:14,66.92753826507621
-0.059814453,-0.39720154,8.885742,-1.0681152E-4,0.0025482178,0.004043579,240.0,-0.086436555,-0.43948478,9.796416,-0.0041335747,-8.903146E-4,6.8950653E-4,-0.015937433,-0.016364228,0.8373452,2017-01-02 10:33:15,70.73255478138009
-0.08255005,-0.40438843,8.906082,-5.187988E-4,-1.0681152E-4,-0.002029419,240.0,-0.078967154,-0.44323477,9.79631,0.007085368,0.02551806,0.007633209,-0.01572243,-0.01673302,0.8373584,2017-01-02 10:33:16,67.99589602641794
-0.08734131,-0.41156006,8.8989105,-0.0023498535,0.0025482178,6.1035156E-4,240.0,-0.080002196,-0.43622226,9.7966175,0.036735088,0.05501747,0.0022296906,-0.015579894,-0.016396191,0.83707327,2017-01-02 10:33:18,56.657861654475994
-0.09211731,-0.42712402,8.891724,-3.2043457E-4,2.89917E-4,-1.9836426E-4,240.0,-0.085880406,-0.44073984,9.796364,-0.0033896714,0.02686873,-0.00830555,-0.015947323,-0.016434662,0.83738875,2017-01-02 10:33:19,69.40161834948103
-0.07298279,-0.39242554,8.902496,-0.0035705566,0.0039520264,0.0014190674,240.0,-0.08747118,-0.44466802,9.796173,0.01123479,-0.008994281,0.021651268,-0.016118499,-0.016564352,0.8375921,2017-01-02 10:33:20,63.15174713519553
-0.06939697,-0.39601135,8.884552,9.1552734E-5,-5.187988E-4,0.0018310547,240.0,-0.09259252,-0.4481482,9.795968,-0.006888874,0.0059428513,-0.005212784,-0.01642643,-0.016578354,0.8378471,2017-01-02 10:33:21,44.69830756986761
-0.06819153,-0.38883972,8.8701935,-0.001739502,5.0354004E-4,-6.1035156E-4,240.0,-0.08626938,-0.44638556,9.796106,0.0017274693,0.009117752,-0.0025787354,-0.016113406,-0.016672766,0.8376427,2017-01-02 10:33:22,71.42773422198177
-0.08255005,-0.42114258,8.864212,9.1552734E-5,0.0015258789,-0.0018310547,240.0,-0.09305896,-0.44325966,9.7961855,-4.7225505E-4,0.031484783,0.025647163,-0.016316507,-0.016350111,0.8376434,2017-01-02 10:33:23,68.11534550957839
-0.07537842,-0.39720154,8.888138,-0.0013427734,7.019043E-4,-1.9836426E-4,240.0,-0.07935943,-0.44317362,9.796309,0.0014551729,3.1933188E-4,-0.006122589,-0.015737321,-0.01671963,0.83736366,2017-01-02 10:33:24,70.89232792694557
-0.058624268,-0.38883972,8.865402,-0.0013275146,0.0021362305,0.0,240.0,-0.083642006,-0.4463503,9.79613,-0.003081672,-0.0018415451,-0.0039987564,-0.016001834,-0.01674278,0.83758825,2017-01-02 10:33:25,68.05896082213015
-0.06341553,-0.38763428,8.9192505,-7.171631E-4,7.019043E-4,1.9836426E-4,240.0,-0.08607825,-0.44699892,9.796079,0.0122969225,0.0059339106,-3.5476685E-4,-0.016121611,-0.016705,0.8376656,2017-01-02 10:33:26,69.22697185557281
-0.047851563,-0.39840698,8.882156,0.0017089844,9.1552734E-4,8.087158E-4,240.0,-0.091636725,-0.4443168,9.796151,-0.008939087,0.0072929263,0.0069904327,-0.016284632,-0.016435435,0.8376608,2017-01-02 10:33:27,74.89740828514152
-0.0765686,-0.4055786,8.879761,-0.002960205,0.0019378662,-1.9836426E-4,240.0,-0.08635277,-0.4401457,9.796387,0.017373972,-0.007205397,0.012601852,-0.015951447,-0.01639562,0.8373723,2017-01-02 10:33:28,72.51931245054051
-0.0993042,-0.38285828,8.925232,7.019043E-4,0.0023498535,-0.0020446777,240.0,-0.087358125,-0.44914898,9.79597,0.00870356,-0.005094826,-0.024717331,-0.016232457,-0.016764918,0.837785,2017-01-02 10:33:29,71.7138562738454
-0.07777405,-0.38404846,8.894119,-0.0025482178,0.0023345947,0.0030517578,240.0,-0.09531755,-0.4485361,9.795923,0.008714497,0.019355118,0.011547089,-0.016551506,-0.016521348,0.83791906,2017-01-02 10:33:30,67.2654709275806
-0.093322754,-0.4008026,8.871384,-0.0011291504,0.0031433105,4.119873E-4,240.0,-0.09064332,-0.44929922,9.795933,0.002080895,0.008025408,-0.027849197,-0.016374806,-0.016682144,0.83785784,2017-01-02 10:33:31,45.258423065375055
-0.071777344,-0.41036987,8.903687,3.0517578E-4,-0.0015411377,0.0024414063,240.0,-0.08784011,-0.45053506,9.795902,0.0019278526,0.029536694,0.004597664,-0.016289452,-0.016812908,0.83785504,2017-01-02 10:33:32,66.20706601965365
-0.058624268,-0.39959717,8.874985,-0.0025634766,0.0015258789,-6.1035156E-4,240.0,-0.07962943,-0.4513486,9.795935,-0.006726235,0.015837431,-0.014059067,-0.015965229,-0.017072277,0.83772486,2017-01-02 10:33:33,46.06356594927281
-0.062210083,-0.39959717,8.883347,-1.0681152E-4,-0.0021514893,0.0012207031,240.0,-0.09234124,-0.45236498,9.795775,-0.0070620477,0.0016619265,-0.020429611,-0.016527481,-0.016771195,0.83802557,2017-01-02 10:33:34,58.847493179883486
-0.058624268,-0.3900299,8.891724,-0.0018310547,0.0041503906,-4.4250488E-4,240.0,-0.088590086,-0.44588545,9.796108,0.021729596,0.014401555,-0.010378838,-0.01619789,-0.01658753,0.83766776,2017-01-02 10:33:35,44.3020265383035
-0.08375549,-0.4019928,8.903687,1.9836426E-4,0.0043640137,-6.4086914E-4,240.0,-0.07870545,-0.43197733,9.796815,0.0092115775,0.012742817,0.008741379,-0.015412493,-0.016244926,0.83686167,2017-01-02 10:33:36,67.81623602519277
-0.08255005,-0.39959717,8.907288,-6.1035156E-4,-0.0013427734,-3.0517578E-5,240.0,-0.08470575,-0.44282293,9.796281,0.003953956,-0.0033703148,-0.007256508,-0.01595312,-0.016558422,0.837456,2017-01-02 10:33:37,72.52831920226855
-0.0657959,-0.41635132,8.904892,8.087158E-4,-0.0015411377,-0.0012512207,240.0,-0.080124356,-0.43950972,9.796469,-0.02417522,0.0077474117,-0.0046634674,-0.015672326,-0.016537504,0.8372193,2017-01-02 10:33:38,65.75728901739902
-0.08494568,-0.40318298,8.873779,-5.950928E-4,-0.0033874512,1.6784668E-4,240.0,-0.07845532,-0.44108057,9.7964115,-0.011327393,0.007992536,-0.00634861,-0.015643748,-0.016652174,0.8372542,2017-01-02 10:33:39,55.5164233044973
-0.0765686,-0.39720154,8.9192505,-0.0012207031,-0.0011444092,5.645752E-4,240.0,-0.08187021,-0.4347729,9.796665,0.0025875568,0.0060761273,0.0075092316,-0.015620028,-0.01628143,0.83704746,2017-01-02 10:33:40,73.86474259035752
-0.086135864,-0.42114258,8.878571,0.0024414063,-0.0015411377,0.0019989014,240.0,-0.084033474,-0.4447284,9.796201,-0.020690776,0.009749949,-5.3596497E-4,-0.015975334,-0.01666067,0.8375255,2017-01-02 10:33:41,48.055562317055454
-0.062210083,-0.39361572,8.879761,-0.0026550293,0.0017089844,-0.0018615723,240.0,-0.087017596,-0.44527024,9.796149,0.00830397,-0.007873058,8.573532E-4,-0.01611536,-0.016603243,0.83760923,2017-01-02 10:33:42,70.68099608298337
-0.07537842,-0.40438843,8.884552,4.119873E-4,0.0017089844,-6.5612793E-4,240.0,-0.077453114,-0.4465879,9.79617,-2.8325617E-4,-0.010985166,-0.0049991608,-0.015747562,-0.016921915,0.837474,2017-01-02 10:33:43,58.25479234176831
-0.08494568,-0.4127655,8.888138,0.0,9.0026855E-4,0.0028076172,240.0,-0.08707453,-0.4432,9.796243,0.004792854,0.0071063936,-0.026940346,-0.01606287,-0.016510477,0.8375201,2017-01-02 10:33:44,68.2623551823061
-0.06700134,-0.4055786,8.900101,0.0,7.6293945E-5,0.002609253,240.0,-0.085211016,-0.44317728,9.796261,0.010348335,-0.003287673,0.0076169968,-0.015983792,-0.016560256,0.8374816,2017-01-02 10:33:45,70.32077721811098
-0.06700134,-0.39959717,8.874985,6.1035156E-4,0.0025177002,-8.544922E-4,240.0,-0.08371524,-0.4416161,9.796344,0.0030241087,-0.0070213377,0.0045957565,-0.015879402,-0.016532278,0.8373834,2017-01-02 10:33:46,72.08587197684705
-0.050247192,-0.3912201,8.877365,-0.0024414063,0.002105713,-0.0028839111,240.0,-0.085920975,-0.44548675,9.79615,1.9719452E-4,0.013048559,-4.3010712E-4,-0.016074914,-0.016642652,0.8375966,2017-01-02 10:33:47,70.98105369327914
-0.062210083,-0.4055786,8.904892,2.1362305E-4,-7.324219E-4,0.0013885498,240.0,-0.08768567,-0.441024,9.796336,0.005400166,0.009001136,0.010105133,-0.016030883,-0.016397966,0.8374375,2017-01-02 10:33:48,49.73580681299506
-0.06939697,-0.39959717,8.886948,-0.0024414063,4.8828125E-4,0.0021972656,240.0,-0.083478004,-0.4417845,9.796338,3.7222356E-4,0.0012923777,0.008191109,-0.015873881,-0.016546162,0.83738595,2017-01-02 10:33:49,70.42168120964158
-0.08015442,-0.4175415,8.882156,6.1035156E-4,0.0031433105,-3.0517578E-5,240.0,-0.084375665,-0.43935508,9.796439,0.023956813,0.008834362,0.0017213821,-0.015847212,-0.016414719,0.83729804,2017-01-02 10:33:50,57.39988046015479
-0.07298279,-0.38046265,8.880966,0.0018310547,0.0010986328,-8.544922E-4,240.0,-0.084846675,-0.44930443,9.795984,-0.006730512,-0.0012949109,0.011961937,-0.016130807,-0.016840138,0.83774114,2017-01-02 10:33:51,63.47514411841408
-0.086135864,-0.42233276,8.906082,-4.119873E-4,-3.2043457E-4,0.0032043457,240.0,-0.09075249,-0.44362205,9.79619,-0.008529842,-0.0064000785,-0.0037622452,-0.016228966,-0.01642889,0.8376127,2017-01-02 10:33:52,59.803589003157185
-0.07777405,-0.39720154,8.896515,-0.0016326904,0.0019226074,-0.0028839111,240.0,-0.08861249,-0.44591415,9.796106,0.011028893,-8.610487E-4,-0.0077285767,-0.016199594,-0.016588185,0.83766943,2017-01-02 10:33:53,70.87656636021771
-0.093322754,-0.4019928,8.895325,-0.0012207031,6.866455E-4,3.6621094E-4,240.0,-0.0844963,-0.44361654,9.796247,-0.0022932515,-0.0030459762,-0.010433197,-0.015965346,-0.016599085,0.8374864,2017-01-02 10:33:54,73.75625978999076
-0.058624268,-0.41635132,8.908478,-0.0026397705,2.89917E-4,-4.5776367E-5,240.0,-0.08935781,-0.44397175,9.796187,9.6185505E-4,-0.01332739,0.016989708,-0.016179496,-0.016482284,0.8375998,2017-01-02 10:33:55,47.39728633991764
-0.07537842,-0.4139557,8.877365,-1.9836426E-4,0.0027313232,0.0011901855,240.0,-0.08609318,-0.4399652,9.796397,-0.010370158,0.008210689,0.0038585663,-0.015935725,-0.016394747,0.8373592,2017-01-02 10:33:56,46.463954748763115
-0.08135986,-0.40797424,8.885742,-0.0026397705,0.0041503906,0.0030059814,240.0,-0.08657116,-0.43931684,9.796423,-0.0099174455,-0.0150182545,0.022051811,-0.015938642,-0.016353162,0.83734053,2017-01-02 10:33:57,44.67589269717446
-0.06460571,-0.4055786,8.876175,6.1035156E-4,4.8828125E-4,9.765625E-4,240.0,-0.081979305,-0.4442037,9.796242,0.0050079823,0.0047552288,0.007777214,-0.015874932,-0.016693547,0.8374613,2017-01-02 10:33:58,38.78635476542231
-0.0765686,-0.4008026,8.8989105,0.0012207031,-0.0029754639,0.00340271,240.0,-0.08599204,-0.44072193,9.796365,2.8327852E-4,0.0040439963,0.01246357,-0.015951548,-0.016430829,0.8373902,2017-01-02 10:33:59,74.64204793990785
-0.057434082,-0.37208557,8.895325,-0.0016174316,4.8828125E-4,5.79834E-4,240.0,-0.086973175,-0.43739048,9.796505,-0.0021690354,-0.0011855662,-0.014119148,-0.016097832,-0.016298516,0.83744115,2017-01-02 10:34:00,68.54992897068341
-0.08015442,-0.41036987,8.902496,-0.0014190674,0.0010986328,-6.5612793E-4,240.0,-0.08509614,-0.4447374,9.796191,0.0042793974,0.001802057,-0.009800911,-0.016020318,-0.01663211,0.8375473,2017-01-02 10:34:01,61.27444552181369
-0.08973694,-0.41036987,8.897705,-0.0020446777,0.0015106201,-4.4250488E-4,240.0,-0.09228913,-0.43964157,9.796356,7.5921416E-6,0.007805586,0.0063762665,-0.016188078,-0.016211616,0.8374699,2017-01-02 10:34:02,74.3069955278848
-0.061019897,-0.38883972,8.892929,-1.9836426E-4,4.8828125E-4,-2.4414063E-4,240.0,-0.08470081,-0.44343308,9.796253,0.0063005164,-0.017408073,0.013473511,-0.015969092,-0.01658543,0.83748245,2017-01-02 10:34:03,67.57953752852018
-0.0765686,-0.40438843,8.913269,-0.002029419,0.0019073486,-0.0024871826,240.0,-0.08962524,-0.44525337,9.796127,-0.0011790842,-0.013294935,-0.016561508,-0.016224736,-0.016531484,0.8376611,2017-01-02 10:34:04,70.99930160362335
-0.086135864,-0.39840698,8.878571,0.0016326904,0.004348755,0.0011901855,240.0,-0.08429315,-0.44146764,9.796346,0.0071663484,0.0025773048,-0.0026788712,-0.015899796,-0.016509984,0.8373886,2017-01-02 10:34:05,71.68092268715176
-0.0657959,-0.40797424,8.886948,-0.002243042,2.89917E-4,-0.0014648438,240.0,-0.0902306,-0.44263387,9.79624,-0.011424288,0.00574854,-0.0022859573,-0.016180776,-0.016399553,0.83755904,2017-01-02 10:34:06,72.18732887928992
-0.062210083,-0.40678406,8.906082,-0.0026397705,0.0033416748,3.6621094E-4,240.0,-0.08517814,-0.44006658,9.796401,-0.010078326,-0.0076105595,0.004460335,-0.015899884,-0.01642416,0.83734524,2017-01-02 10:34:07,70.00850479979782
-0.088531494,-0.38523865,8.906082,-0.0026550293,-0.0021514893,0.002609253,240.0,-0.08682603,-0.43921506,9.796425,-0.0049238354,-0.018766463,0.0044755936,-0.015946673,-0.016341731,0.8373412,2017-01-02 10:34:08,62.10931554667788
-0.086135864,-0.41036987,8.883347,-0.0010223389,-0.0021514893,0.0019989014,231.0,-0.08591466,-0.4436644,9.796232,-0.0060119703,0.00503549,0.008852959,-0.015961763,-0.016483655,0.8374252,2017-01-02 10:34:09,64.95085671645323
-0.090927124,-0.39720154,8.897705,4.119873E-4,0.0019226074,5.79834E-4,231.0,-0.082947575,-0.450185,9.79596,-0.0072426572,-0.002840966,0.0064325333,-0.016074147,-0.016930649,0.83774114,2017-01-02 10:34:10,71.90897894509698
-0.06460571,-0.41874695,8.895325,8.087158E-4,7.6293945E-5,-4.4250488E-4,240.0,-0.082722135,-0.44752276,9.796084,0.010458797,-0.012651563,0.0060682297,-0.015994161,-0.016819492,0.8376208,2017-01-02 10:34:11,63.776882660955955
-0.052642822,-0.40797424,8.904892,8.239746E-4,0.0015106201,-0.0030822754,240.0,-0.09023875,-0.44050404,9.796336,-0.010209262,0.0038260221,0.023695946,-0.01612461,-0.016305486,0.83746624,2017-01-02 10:34:12,71.1057637917583
-0.07417297,-0.39361572,8.910873,-0.0014190674,2.89917E-4,-6.4086914E-4,245.0,-0.08160252,-0.44408035,9.79625,-1.2685359E-4,0.00934273,0.021757126,-0.015855798,-0.016698387,0.8374483,2017-01-02 10:34:13,64.0800381746698
-0.07777405,-0.40678406,8.895325,-0.0010223389,-0.002166748,-6.4086914E-4,245.0,-0.08460909,-0.44140863,9.796346,-0.0010064617,0.017640948,0.012878418,-0.015911534,-0.016498772,0.83739233,2017-01-02 10:34:14,45.849343455951086
-0.098098755,-0.38285828,8.903687,-0.0010223389,-9.3078613E-4,-2.4414063E-4,245.0,-0.07818355,-0.4441233,9.796276,0.006357938,0.005908996,-0.009478569,-0.015712999,-0.016793504,0.8373814,2017-01-02 10:34:15,66.48263274124639
-0.07298279,-0.39959717,8.906082,-0.0010070801,-5.340576E-4,3.6621094E-4,245.0,-0.08207889,-0.4416976,9.796354,0.011133827,-0.008001357,-0.002357483,-0.015812665,-0.016580487,0.837354,2017-01-02 10:34:16,45.118373121868174
-0.08135986,-0.40438843,8.882156,-0.0012207031,-0.0015411377,-0.0020751953,245.0,-0.08758136,-0.4441627,9.796195,0.004115708,0.009533137,-0.004670143,-0.016109742,-0.016539084,0.83757234,2017-01-02 10:34:17,64.6440269786281
-0.07777405,-0.40438843,8.859421,-0.0018310547,-3.2043457E-4,-3.0517578E-5,245.0,-0.08704633,-0.44700173,9.79607,-0.015568867,0.022536576,0.009865761,-0.016162453,-0.016678764,0.8376852,2017-01-02 10:34:18,46.726049509425806
-0.08015442,-0.38285828,8.891724,4.119873E-4,-7.324219E-4,1.5258789E-4,245.0,-0.08395817,-0.4427781,9.796289,0.031929053,-0.004948348,0.043153763,-0.015920453,-0.016576825,0.83743894,2017-01-02 10:34:19,49.66636204498585
-0.1268158,-0.41156006,8.889343,-1.9836426E-4,0.002319336,0.0019989014,245.0,-0.08347089,-0.42944202,9.796887,0.04107114,0.010563284,-0.008446693,-0.015545654,-0.016003225,0.83684635,2017-01-02 10:34:20,64.24516580641222
-0.07537842,-0.40678406,8.909668,-3.9672852E-4,-0.0015563965,9.765625E-4,245.0,-0.08377755,-0.44248137,9.796304,0.010238729,-0.006388068,0.009194374,-0.015904978,-0.016568683,0.8374224,2017-01-02 10:34:21,56.37777677263283
-0.07298279,-0.4175415,8.892929,4.119873E-4,-5.340576E-4,0.0013885498,245.0,-0.08477116,-0.44058684,9.796382,-0.008002117,0.0062882304,-0.0012702942,-0.015896553,-0.016458165,0.8373597,2017-01-02 10:34:22,64.50352182632538
-0.0765686,-0.4055786,8.879761,-0.0020446777,7.6293945E-5,0.0023956299,245.0,-0.081317835,-0.44378915,9.796266,0.0020243824,7.77483E-4,-0.011048317,-0.015836092,-0.016693328,0.8374299,2017-01-02 10:34:23,50.15054817808866
-0.09690857,-0.40797424,8.891724,0.0,-9.3078613E-4,3.6621094E-4,245.0,-0.08390815,-0.43897972,9.796461,0.012752019,-0.004699528,-0.0010051727,-0.01581756,-0.016410945,0.8372722,2017-01-02 10:34:24,73.87129415956744
-0.07058716,-0.41635132,8.877365,0.002243042,0.0021209717,1.6784668E-4,245.0,-0.08157241,-0.43638808,9.796597,-0.008492328,0.0013655424,-0.0119485855,-0.015650403,-0.01636062,0.83711207,2017-01-02 10:34:25,69.43182708364454
-0.07896423,-0.4008026,8.855835,-6.1035156E-4,-0.0023651123,-0.001663208,240.0,-0.0843943,-0.44465,9.796202,-0.0060239136,-0.003589213,-0.0126981735,-0.015988447,-0.016647382,0.83752936,2017-01-02 10:34:26,69.59733098733147
-0.06700134,-0.38046265,8.888138,0.0026550293,4.8828125E-4,-4.4250488E-4,245.0,-0.08034794,-0.44857582,9.796056,0.0058591813,0.026311547,0.004951477,-0.015922084,-0.01693056,0.83761877,2017-01-02 10:34:27,63.22959819310773
-0.07298279,-0.3912201,8.892929,-0.0032653809,0.0027313232,9.765625E-4,249.0,-0.08113029,-0.43844667,9.796508,-0.010124527,-0.0028840005,-4.2915344E-4,-0.015686456,-0.016463272,0.8371931,2017-01-02 10:34:28,65.38981342282612
-0.098098755,-0.39242554,8.891724,-0.0016326904,-7.324219E-4,5.645752E-4,245.0,-0.08376328,-0.4447918,9.7962,0.0054032654,0.01348722,0.017735481,-0.015965637,-0.016670825,0.8375228,2017-01-02 10:34:29,73.15962416319469
-0.059814453,-0.36968994,8.892929,-0.0014190674,0.002532959,3.6621094E-4,245.0,-0.08777022,-0.44407657,9.796197,-0.005316913,-0.029015452,-0.0017719269,-0.016115412,-0.016530145,0.8375724,2017-01-02 10:34:30,46.05577001205699
-0.06341553,-0.39482117,8.880966,-4.119873E-4,-7.324219E-4,7.7819824E-4,249.0,-0.081757836,-0.44150573,9.796366,-0.010774381,-0.0038512647,0.027126312,-0.01579406,-0.016580796,0.8373392,2017-01-02 10:34:31,73.09506157228552
-0.07417297,-0.38404846,8.894119,0.0,0.0012969971,7.7819824E-4,249.0,-0.07859805,-0.4513553,9.795942,0.010293551,-0.04511273,-0.005880356,-0.015921984,-0.017100664,0.83770436,2017-01-02 10:34:32,45.149724042936974
-0.059814453,-0.38523865,8.902496,2.1362305E-4,-7.324219E-4,0.0030212402,249.0,-0.081598505,-0.43920562,9.79647,0.0010292232,-0.02754742,-0.0070877075,-0.015726317,-0.016483897,0.8372356,2017-01-02 10:34:33,71.07306724613663
-0.07896423,-0.40678406,8.883347,-0.0011749268,0.002822876,0.0012512207,249.0,-0.08393241,-0.44324377,9.796268,-0.0075773075,-0.010471463,-0.0054836273,-0.015931716,-0.016598035,0.8374587,2017-01-02 10:34:34,74.46791611099913
-0.09451294,-0.41036987,8.890533,0.0027008057,-0.0014648438,0.0012512207,249.0,-0.08572574,-0.4353089,9.796609,-0.003545411,0.019464612,-0.0067768097,-0.015796598,-0.016199775,0.83714837,2017-01-02 10:34:35,45.3450627349488
-0.06939697,-0.38404846,8.907288,-0.0015716553,0.0018005371,-1.6784668E-4,245.0,-0.0841446,-0.43761578,9.79652,0.006978102,-0.004784435,-2.3078918E-4,-0.015791303,-0.016344454,0.8372174,2017-01-02 10:34:36,40.12707373732497
-0.06460571,-0.42114258,8.895325,-9.613037E-4,1.6784668E-4,-0.0016021729,249.0,-0.07660092,-0.44442695,9.796275,0.0073709413,-0.019824356,-0.007987022,-0.015654426,-0.016850034,0.83736277,2017-01-02 10:34:37,70.95106791805941
-0.059814453,-0.39959717,8.908478,0.0012817383,-0.0024719238,3.0517578E-5,249.0,-0.075637974,-0.43902823,9.796526,0.0016611964,0.01807779,-0.010920525,-0.0154706985,-0.016638784,0.83710814,2017-01-02 10:34:38,47.71244110464806
-0.08135986,-0.43070984,8.907288,-0.0019836426,-3.0517578E-5,0.0014648438,245.0,-0.081721514,-0.4496704,9.795995,-0.0035852268,-0.023678064,0.0046577454,-0.016008899,-0.016941363,0.83769405,2017-01-02 10:34:39,51.78441130838915
-0.086135864,-0.4019928,8.892929,0.0012817383,0.0046539307,-1.6784668E-4,245.0,-0.0814159,-0.43503988,9.796658,0.0057841614,0.010045022,-0.0048732758,-0.015607995,-0.016305579,0.83705,2017-01-02 10:34:40,60.09536572331059
-0.07417297,-0.39601135,8.8989105,0.0014801025,-0.0018615723,0.0040893555,245.0,-0.08382026,-0.44555974,9.7961645,0.005471252,0.011874884,-0.0032863617,-0.015988389,-0.016703099,0.83755744,2017-01-02 10:34:41,72.04471575172536
-0.07896423,-0.38523865,8.895325,-9.613037E-4,-0.0010528564,-0.0013885498,245.0,-0.08518686,-0.43978375,9.796413,-0.0052643046,-0.0053948164,-0.004445076,-0.015892746,-0.01641147,0.8373331,2017-01-02 10:34:42,46.56272292358864
-0.06819153,-0.39720154,8.892929,-0.0021820068,-4.4250488E-4,-7.7819824E-4,245.0,-0.08944752,-0.44410935,9.796181,-0.0121383,-0.0037010312,-0.001876831,-0.016186923,-0.016485903,0.8376076,2017-01-02 10:34:43,69.57005447400378
-0.07058716,-0.40318298,8.889343,-7.6293945E-4,-4.4250488E-4,-7.7819824E-4,245.0,-0.08693721,-0.44115543,9.796336,-0.0024198815,-0.01817277,-0.0130290985,-0.016002854,-0.016424157,0.83742815,2017-01-02 10:34:44,68.6872358855022
-0.07777405,-0.40438843,8.876175,0.0016784668,-0.0018615723,-0.0011901855,245.0,-0.08609646,-0.4402394,9.796386,0.005169861,-0.004768312,0.0028162003,-0.01594314,-0.016406732,0.83737123,2017-01-02 10:34:45,47.65447362717522
-0.07537842,-0.3864441,8.900101,-9.613037E-4,-0.0018615723,-0.0015869141,245.0,-0.07813433,-0.43707174,9.796594,-0.004468836,0.010213494,0.009356499,-0.01552383,-0.016484562,0.83707285,2017-01-02 10:34:46,68.48538689073082
-0.057434082,-0.39361572,8.883347,-0.002380371,-0.0012512207,4.4250488E-4,240.0,-0.07683669,-0.44441733,9.796274,-0.0032439604,-0.008196205,0.014748573,-0.015664095,-0.01684318,0.8373671,2017-01-02 10:34:47,45.60576119637684
-0.08255005,-0.40797424,8.895325,-0.0032043457,-8.544922E-4,-0.0019989014,245.0,-0.08226829,-0.44162384,9.796356,-0.006651409,-0.0069322884,-0.011592865,-0.015818683,-0.016572075,0.8373546,2017-01-02 10:34:48,47.73643804442393
-0.071777344,-0.37208557,8.889343,4.7302246E-4,3.8146973E-4,-0.0019989014,254.0,-0.08340146,-0.4422855,9.796316,-0.002067916,-0.030423492,-0.0138549805,-0.015883947,-0.016570311,0.8374063,2017-01-02 10:34:49,52.23202526521903
-0.07537842,-0.40678406,8.885742,2.593994E-4,0.0019989014,8.544922E-4,245.0,-0.08147241,-0.43654346,9.79659,-0.018164583,-9.498596E-4,0.0029335022,-0.01565032,-0.016370188,0.83711684,2017-01-02 10:34:50,58.29960114855612
-0.0765686,-0.40318298,8.894119,0.0012817383,0.0015869141,-0.0011901855,240.0,-0.09306625,-0.4402325,9.796322,-0.018462218,-0.006208718,-0.008451462,-0.016236497,-0.016216487,0.83751136,2017-01-02 10:34:51,70.80369267581607
-0.056228638,-0.38285828,8.885742,0.001083374,-3.0517578E-5,0.0012512207,231.0,-0.0830103,-0.44357786,9.796261,0.021544442,0.016346514,0.009403229,-0.01590175,-0.016637884,0.83745474,2017-01-02 10:34:52,56.4578188107873
-0.041870117,-0.41874695,8.912064,0.0014801025,-0.001663208,-7.7819824E-4,235.0,-0.08081075,-0.44135112,9.79638,-0.013980694,0.011822164,-0.0050907135,-0.015750084,-0.016599823,0.8373134,2017-01-02 10:34:53,65.79010602083767
-0.086135864,-0.3900299,8.889343,-7.6293945E-4,0.0011901855,-0.0011901855,235.0,-0.08242338,-0.44328418,9.79628,-5.5626035E-4,0.0039967597,0.0012693405,-0.015869249,-0.01664095,0.8374301,2017-01-02 10:34:54,70.88684341441193
-0.037094116,-0.40678406,8.909668,-0.0011749268,-3.0517578E-5,8.392334E-4,240.0,-0.08295039,-0.4377986,9.796521,-0.014489837,0.0071119964,1.9168854E-4,-0.015745878,-0.016385086,0.83720136,2017-01-02 10:34:55,67.97974503344695
-0.095718384,-0.39840698,8.888138,-0.0040130615,1.6784668E-4,-0.0016021729,249.0,-0.083570465,-0.44318458,9.796274,-0.019880481,0.0037708879,-0.0017127991,-0.015914908,-0.016605295,0.8374489,2017-01-02 10:34:56,45.13172553001192
-0.06700134,-0.3912201,8.896515,0.0027008057,0.002609253,0.0024719238,245.0,-0.08728207,-0.44980934,9.795939,-0.00454206,2.5326014E-4,-0.004629135,-0.01624674,-0.0167961,0.83781224,2017-01-02 10:34:57,73.79546356934122
-0.059814453,-0.3481598,8.9192505,-0.0017700195,-0.0014648438,-0.0011901855,235.0,-0.082946755,-0.45051897,9.795945,0.007127665,-0.012052149,-0.006998062,-0.016082952,-0.016945388,0.8377557,2017-01-02 10:34:58,44.76329181964948
-0.086135864,-0.39601135,8.891724,-0.0017852783,0.0011901855,2.4414063E-4,235.0,-0.0839646,-0.44265634,9.796294,-0.005093582,-0.014280081,-4.1294098E-4,-0.015917495,-0.016571289,0.8374338,2017-01-02 10:34:59,51.02795117136682
-0.07896423,-0.40678406,8.915649,-0.0017700195,-2.4414063E-4,3.0517578E-5,226.0,-0.08385168,-0.4421477,9.796319,0.0031505525,6.465018E-4,-0.012435913,-0.015899248,-0.016551966,0.8374093,2017-01-02 10:35:00,71.99177711918713
-0.07896423,-0.38763428,8.902496,2.593994E-4,0.002609253,8.392334E-4,226.0,-0.084883526,-0.45058262,9.795926,-0.009060524,-0.028746635,0.016046524,-0.016166195,-0.016895467,0.83779746,2017-01-02 10:35:01,62.06927045083166
-0.0657959,-0.39959717,8.8989105,0.0012817383,0.0011901855,8.544922E-4,222.0,-0.09231245,-0.4432466,9.796193,-0.0059191957,0.0052569807,-0.006597519,-0.016284715,-0.016369862,0.83762777,2017-01-02 10:35:02,64.04337881305285
-0.06460571,-0.38763428,8.901306,6.713867E-4,-6.4086914E-4,-1.6784668E-4,226.0,-0.08526214,-0.44101116,9.796358,0.012789182,-4.8413873E-4,0.02083397,-0.015928486,-0.016463464,0.83738816,2017-01-02 10:35:03,45.659629907675516
-0.08255005,-0.4175415,8.910873,-7.6293945E-4,1.6784668E-4,-1.6784668E-4,222.0,-0.0830515,-0.4418321,9.79634,-0.017886639,-0.009051472,0.009221077,-0.015857184,-0.016559886,0.83737946,2017-01-02 10:35:04,73.20831939947281
-0.07777405,-0.40318298,8.888138,-0.0023956299,-0.0014648438,-0.002609253,226.0,-0.08630002,-0.45098466,9.795895,0.0017274395,0.022713572,-0.011190414,-0.01623649,-0.01687464,0.83784354,2017-01-02 10:35:05,74.70854252001797
-0.07537842,-0.39840698,8.8989105,0.0016784668,0.0016021729,-3.8146973E-4,226.0,-0.088860735,-0.4455841,9.796119,0.005296722,0.006131172,0.0051822662,-0.016201302,-0.016566878,0.8376601,2017-01-02 10:35:06,63.120553271339325
-0.055038452,-0.3529358,8.908478,0.0012817383,0.0011901855,-1.6784668E-4,245.0,-0.08419184,-0.43928227,9.796445,-0.00490769,-0.004283458,0.022176743,-0.015837537,-0.016416525,0.8372911,2017-01-02 10:35:07,74.4582744686442
-0.08015442,-0.41874695,8.882156,-0.0021820068,-3.0517578E-5,3.0517578E-5,245.0,-0.08168263,-0.44688043,9.796123,-0.01081492,-0.017958343,-0.01544857,-0.015933376,-0.016819518,0.83757186,2017-01-02 10:35:08,44.52516774762125
-0.07896423,-0.4019928,8.883347,-0.0015716553,0.0022125244,-5.79834E-4,245.0,-0.086573884,-0.4423479,9.796286,-0.0015703365,-0.014827162,0.012693405,-0.016019188,-0.016486585,0.83747286,2017-01-02 10:35:09,74.69685726727386
-0.09690857,-0.39840698,8.896515,-0.0011749268,9.918213E-4,-0.0021972656,245.0,-0.07878602,-0.44811818,9.796089,0.010483138,0.0070969164,-0.0059862137,-0.015844207,-0.016952965,0.8375674,2017-01-02 10:35:10,64.63247421673282
-0.06939697,-0.4008026,8.8989105,4.5776367E-4,7.7819824E-4,2.2888184E-4,235.0,-0.08603409,-0.4545519,9.7957325,-0.010428779,-0.008495241,-0.020087242,-0.016319659,-0.017039161,0.8379932,2017-01-02 10:35:11,70.58411866631064
-0.088531494,-0.4295044,8.885742,-7.6293945E-4,3.6621094E-4,-0.0024108887,226.0,-0.082108,-0.44066468,9.7964,0.011134207,0.026824534,-0.010063171,-0.015786488,-0.016534222,0.83730954,2017-01-02 10:35:12,57.039070019200615
-0.098098755,-0.41156006,8.874985,-9.613037E-4,7.7819824E-4,0.002670288,222.0,-0.080814935,-0.4411531,9.796389,0.0028025135,0.024948657,-0.0033693314,-0.015745008,-0.016590992,0.83730483,2017-01-02 10:35:13,67.06427910306034
-0.08375549,-0.39840698,8.866608,0.0010681152,3.8146973E-4,0.0014648438,226.0,-0.08998588,-0.44019955,9.796352,0.006306559,-0.015568525,-0.0057239532,-0.01610588,-0.01629896,0.8374478,2017-01-02 10:35:14,72.85393098807562
-0.0657959,-0.3481598,8.897705,-0.0015716553,0.0021972656,-9.918213E-4,222.0,-0.08663548,-0.45369297,9.795767,-0.013469003,-0.022429943,-0.003323555,-0.016322274,-0.016984927,0.83796805,2017-01-02 10:35:15,71.3775120575658
-0.051452637,-0.3864441,8.897705,-3.5095215E-4,-0.0014648438,8.392334E-4,226.0,-0.086647816,-0.4425838,9.796275,0.009301037,0.004775852,2.2411346E-4,-0.016028557,-0.01649496,0.83748466,2017-01-02 10:35:16,44.785190296150226
-0.057434082,-0.38763428,8.863022,6.713867E-4,9.765625E-4,0.0038757324,226.0,-0.08861808,-0.44390535,9.796197,-0.016448714,-0.039633512,0.0057458878,-0.01614658,-0.016499506,0.837582,2017-01-02 10:35:17,69.79641635006651
-0.08015442,-0.39959717,8.896515,4.7302246E-4,-0.0028839111,8.544922E-4,226.0,-0.08691393,-0.4382961,9.796465,0.02624233,0.008968294,0.009800911,-0.01592598,-0.01629887,0.83730286,2017-01-02 10:35:18,70.27836797426767
-0.06939697,-0.38285828,8.910873,0.0025024414,-4.4250488E-4,-0.0011901855,226.0,-0.077553,-0.43594676,9.796649,0.009362288,0.0020219386,-2.8419495E-4,-0.01546948,-0.016450958,0.83701205,2017-01-02 10:35:19,68.53332158241565
-0.08375549,-0.41036987,8.890533,-1.5258789E-4,5.79834E-4,6.4086914E-4,226.0,-0.08090428,-0.4404272,9.796421,0.010072865,-0.0067275167,0.013607025,-0.01572951,-0.016556604,0.83727497,2017-01-02 10:35:20,46.00425578461192
-0.0993042,-0.42352295,8.874985,0.0012817383,0.0011901855,-0.0011901855,226.0,-0.07983878,-0.4430121,9.796313,-0.012442395,-0.0032699704,0.0038614273,-0.015753219,-0.016699446,0.8373663,2017-01-02 10:35:21,67.10657750450692
-0.100494385,-0.46540833,8.872589,0.0025024414,3.8146973E-4,2.4414063E-4,226.0,-0.08531327,-0.4414101,9.796339,0.0020852387,0.013161987,0.01947403,-0.015941225,-0.01647964,0.8374066,2017-01-02 10:35:22,74.73720298992743
-0.08135986,-0.42233276,8.909668,-0.001373291,-4.4250488E-4,-7.7819824E-4,226.0,-0.08189245,-0.43985423,9.796439,0.008554496,0.006919384,-0.012058258,-0.015755905,-0.016504426,0.83726984,2017-01-02 10:35:23,44.463106864688264
-0.07537842,-0.39482117,8.909668,2.593994E-4,-2.2888184E-4,0.0012512207,222.0,-0.087305896,-0.4443716,9.796188,-0.005653277,-0.012766987,0.011446953,-0.01610368,-0.016555794,0.83757585,2017-01-02 10:35:24,58.694087332363324
-0.09211731,-0.4019928,8.890533,-0.001373291,-3.0517578E-5,-5.79834E-4,222.0,-0.092364796,-0.44243658,9.796229,-0.0011298433,0.013851941,0.015366554,-0.016265435,-0.016332733,0.83759344,2017-01-02 10:35:25,74.15081083867976
-0.09451294,-0.43070984,8.880966,-9.613037E-4,0.0013885498,6.4086914E-4,226.0,-0.08583064,-0.443784,9.796227,-0.016621731,-0.027976334,-0.00909996,-0.016025973,-0.016570099,0.83752054,2017-01-02 10:35:26,44.62676019594444
-0.071777344,-0.40438843,8.879761,6.5612793E-4,1.6784668E-4,0.003692627,222.0,-0.078986935,-0.44407788,9.796271,-0.003693901,0.011802375,-0.009631157,-0.015745616,-0.016769595,0.83739555,2017-01-02 10:35:27,50.61086375799498
-0.095718384,-0.3912201,8.907288,-7.6293945E-4,-6.4086914E-4,-0.0013885498,226.0,-0.08164598,-0.4441756,9.796246,0.004712075,-0.006006986,-0.015756607,-0.015860153,-0.016701397,0.83745337,2017-01-02 10:35:28,66.15439137792836
-0.0765686,-0.3912201,8.897705,0.0016937256,9.765625E-4,0.0010528564,222.0,-0.08519658,-0.4432405,9.796258,0.024692014,-0.006840378,0.010213852,-0.015984861,-0.016563436,0.83748406,2017-01-02 10:35:29,44.7979183962791
-0.07896423,-0.39959717,8.876175,-0.002380371,-6.4086914E-4,-7.7819824E-4,226.0,-0.086756565,-0.44473168,9.796176,-0.001434736,0.0051259995,-0.022078514,-0.016090091,-0.016586624,0.8375805,2017-01-02 10:35:30,71.8961745062421
-0.07298279,-0.42712402,8.882156,0.0010681152,-6.4086914E-4,0.0010528564,226.0,-0.0808955,-0.4427345,9.796317,0.024390996,0.0215123,0.0032682419,-0.015790345,-0.016658409,0.8373754,2017-01-02 10:35:31,73.33699092234195
-0.08015442,-0.39242554,8.872589,-9.613037E-4,-0.0026855469,-0.0030212402,226.0,-0.081428796,-0.44258726,9.79632,-0.03257621,-0.01708278,-0.015534401,-0.015808892,-0.016637381,0.83737975,2017-01-02 10:35:32,71.71526282707275
-0.08135986,-0.41635132,8.877365,0.00289917,-0.0014648438,0.0010375977,226.0,-0.08259228,-0.44433475,9.79623,-0.0016419888,0.017855912,-0.008439064,-0.015904214,-0.01668261,0.8374793,2017-01-02 10:35:33,44.179184904380726
-0.07896423,-0.4091797,8.896515,2.593994E-4,5.950928E-4,-1.0681152E-4,226.0,-0.08339084,-0.43918493,9.796455,0.011019334,0.01542744,0.008770943,-0.015801229,-0.01643409,0.8372708,2017-01-02 10:35:34,40.1909992617205
-0.08973694,-0.39361572,8.903687,2.593994E-4,-0.0028686523,-0.0015258789,226.0,-0.0813316,-0.44008985,9.7964325,0.027158454,0.007017672,0.014446259,-0.015738547,-0.016530098,0.8372688,2017-01-02 10:35:35,39.41252343926851
-0.061019897,-0.4390869,8.903687,2.593994E-4,8.087158E-4,-7.171631E-4,231.0,-0.087063864,-0.44275993,9.796263,0.018070213,-0.036877185,0.00461483,-0.01605075,-0.016491381,0.8375007,2017-01-02 10:35:36,75.91751144345905
-0.056228638,-0.4091797,8.873779,0.0023040771,-1.5258789E-5,-0.0035552979,240.0,-0.091541536,-0.44708994,9.796025,0.008973978,0.02562806,0.023940086,-0.016354123,-0.016560286,0.83777976,2017-01-02 10:35:37,44.387711039738626
-0.08494568,-0.40438843,8.888138,0.0014801025,-4.119873E-4,5.0354004E-4,245.0,-0.08839048,-0.43973726,9.796387,0.01801899,-0.017216533,-0.008505821,-0.016026419,-0.01632208,0.83739555,2017-01-02 10:35:38,38.761800595635435
-0.06700134,-0.4019928,8.891724,6.5612793E-4,-0.0016326904,-9.1552734E-4,245.0,-0.08402552,-0.4424952,9.796302,0.009717204,0.022942841,0.007639885,-0.015915785,-0.01656253,0.837428,2017-01-02 10:35:40,71.6662688226149
-0.07777405,-0.42114258,8.880966,-3.5095215E-4,-0.0014343262,0.0013122559,235.0,-0.08069672,-0.44096702,9.796398,-0.0056800917,-0.023061931,-0.016767502,-0.015735094,-0.016586026,0.83729434,2017-01-02 10:35:41,44.39524037354464
-0.07777405,-0.4008026,8.876175,-3.5095215E-4,0.002029419,9.1552734E-4,235.0,-0.08256185,-0.44127938,9.796369,-0.0028125048,-0.007317245,-0.01239872,-0.015821906,-0.016548906,0.8373455,2017-01-02 10:35:42,67.95657122932948
-0.07537842,-0.38165283,8.882156,-7.6293945E-4,-8.239746E-4,3.0517578E-4,235.0,-0.09674086,-0.4419183,9.79621,-0.0031534284,-0.023772627,-0.010808945,-0.016436035,-0.016190741,0.8376591,2017-01-02 10:35:43,66.26091539738948
-0.08375549,-0.41635132,8.903687,4.5776367E-4,0.0014190674,-0.0045928955,235.0,-0.080937654,-0.44006926,9.796437,0.013648033,0.0058100224,0.0012626648,-0.015721414,-0.016539937,0.83726,2017-01-02 10:35:44,73.07773301593504
-0.07058716,-0.4127655,8.885742,0.0016937256,-0.0010375977,-0.0017242432,249.0,-0.083443366,-0.43592992,9.796601,0.021905273,-0.005126089,-0.009835243,-0.015717,-0.016289392,0.83712965,2017-01-02 10:35:45,44.96985573717768
-0.08255005,-0.4127655,8.909668,-1.5258789E-4,-0.0010223389,0.0015258789,249.0,-0.080208585,-0.43778676,9.796545,0.019001216,0.018279523,0.018606186,-0.015630133,-0.01645939,0.83714575,2017-01-02 10:35:46,45.04440248978395
-0.10647583,-0.3756714,8.908478,0.0016784668,0.0026397705,-9.1552734E-4,240.0,-0.08861744,-0.44297594,9.796239,-0.026007108,0.026571214,0.013040543,-0.016121907,-0.016458571,0.83754146,2017-01-02 10:35:47,70.75242506876316
-0.08734131,-0.38404846,8.925232,6.1035156E-5,0.0028381348,-0.0013275146,235.0,-0.08548728,-0.44589636,9.796135,0.019024909,-0.0029609501,-0.0038337708,-0.016067507,-0.016672513,0.83760566,2017-01-02 10:35:48,44.407249727325365
-0.093322754,-0.42233276,8.860626,6.1035156E-5,-1.5258789E-5,9.1552734E-4,235.0,-0.09262751,-0.43955594,9.796357,0.014738247,0.008036405,-5.00679E-4,-0.016200058,-0.016198624,0.837473,2017-01-02 10:35:49,66.5824062991408
-0.07058716,-0.4019928,8.909668,6.1035156E-5,-1.5258789E-5,-0.0011291504,235.0,-0.08763136,-0.44695488,9.796067,-0.018568158,0.022779495,2.7656555E-5,-0.016185852,-0.016660769,0.837695,2017-01-02 10:35:50,46.761573821855016
-0.07298279,-0.39601135,8.884552,0.002090454,-0.0010223389,3.0517578E-4,259.0,-0.08032858,-0.4417735,9.796366,-0.015633792,-0.009463102,-0.011571884,-0.015740989,-0.016631564,0.8373221,2017-01-02 10:35:51,73.61790523435782
-0.050247192,-0.39601135,8.895325,0.0010681152,-0.0010223389,-3.0517578E-4,249.0,-0.07884834,-0.43984917,9.796464,0.00697951,-0.008641809,0.014415741,-0.015627619,-0.016587263,0.83720845,2017-01-02 10:35:52,72.99565347568571
-0.071777344,-0.3900299,8.886948,0.0012817383,-2.1362305E-4,5.0354004E-4,254.0,-0.083912246,-0.4385286,9.796481,-0.005193278,0.011605382,0.0067100525,-0.015805757,-0.016390974,0.8372526,2017-01-02 10:35:53,71.84989236725264
-0.071777344,-0.3900299,8.903687,-0.001373291,-0.0016479492,0.0013275146,254.0,-0.08357448,-0.44588754,9.796151,-0.0019790903,-0.016760468,-0.010498047,-0.015986728,-0.016724236,0.83756673,2017-01-02 10:35:54,71.05498890766737
-0.07058716,-0.37687683,8.877365,2.593994E-4,-8.239746E-4,0.0013275146,249.0,-0.09143306,-0.44474748,9.796133,0.005180754,0.019459158,-0.022370338,-0.016287472,-0.016459964,0.8376755,2017-01-02 10:35:55,45.18714973880127
-0.044265747,-0.38404846,8.890533,6.713867E-4,5.950928E-4,-0.0011291504,245.0,-0.08204967,-0.44002566,9.79643,0.0038584545,-0.0075383186,0.01277256,-0.015767075,-0.016507683,0.8372805,2017-01-02 10:35:56,71.53816488501265
-0.071777344,-0.4247284,8.902496,0.001083374,0.0026397705,7.171631E-4,249.0,-0.08657716,-0.44293827,9.796259,0.00679639,-0.02273655,0.01183033,-0.016034985,-0.0165125,0.83749866,2017-01-02 10:35:57,47.043544736235454
-0.095718384,-0.41516113,8.885742,-0.0017700195,-0.0010223389,-3.0517578E-4,235.0,-0.083570875,-0.44268444,9.796297,0.0088222325,-3.4669042E-4,-0.0095767975,-0.01590166,-0.016583258,0.8374271,2017-01-02 10:35:58,69.90103023558675
-0.07537842,-0.38404846,8.892929,-0.005645752,-0.0010223389,-0.0011138916,231.0,-0.0841305,-0.44113383,9.796362,0.01770822,0.011405617,0.009363174,-0.015884092,-0.01649972,0.8373707,2017-01-02 10:35:59,67.63553693171049
-0.07537842,-0.4091797,8.889343,0.004135132,0.002029419,-0.0015258789,231.0,-0.08253622,-0.4430642,9.7962885,-0.03154856,-0.0021699667,-0.0074338913,-0.015868168,-0.016628189,0.8374228,2017-01-02 10:36:00,71.56664532007285
-0.06341553,-0.3900299,8.896515,-0.0040130615,-0.0018463135,0.0027313232,235.0,-0.08902473,-0.44726947,9.796041,-0.0052578375,0.02827257,0.014860153,-0.01625287,-0.016636701,0.8377368,2017-01-02 10:36:01,49.40110700729946
-0.0765686,-0.38883972,8.913269,-7.4768066E-4,-6.1035156E-4,0.0011138916,254.0,-0.08484611,-0.44800758,9.796044,-0.021064363,-0.003610015,0.0047807693,-0.01609644,-0.016783,0.8376847,2017-01-02 10:36:02,46.70018303124178
-0.08494568,-0.38046265,8.8989105,-3.5095215E-4,0.003036499,9.1552734E-5,249.0,-0.08422238,-0.44142452,9.796349,-0.022841565,-0.0048242807,-0.008029938,-0.015895672,-0.016510015,0.83738524,2017-01-02 10:36:03,43.97968200707098
-0.053833008,-0.4019928,8.882156,6.1035156E-5,8.087158E-4,3.0517578E-4,254.0,-0.08275971,-0.443769,9.796255,-0.0074588284,0.0066381693,0.0019960403,-0.015896264,-0.016653132,0.837458,2017-01-02 10:36:04,35.40555220037094
-0.08375549,-0.4127655,8.897705,-0.001159668,0.002029419,-0.001739502,254.0,-0.086241834,-0.44279817,9.796268,0.011269905,0.008258432,-0.015899658,-0.016017146,-0.016515467,0.83748585,2017-01-02 10:36:05,64.3479461396994
-0.086135864,-0.41874695,8.897705,0.002090454,-0.004486084,-0.0031585693,249.0,-0.087218344,-0.44287688,9.796256,-0.01412642,0.012112856,0.0036764145,-0.016060358,-0.016492324,0.8375089,2017-01-02 10:36:06,54.06840608988523
-0.088531494,-0.43070984,8.872589,-0.0036010742,-2.1362305E-4,3.0517578E-4,249.0,-0.08800165,-0.4376555,9.796484,-0.009805232,-0.012848347,-0.018363953,-0.015954772,-0.016241,0.8372967,2017-01-02 10:36:07,65.5423691001582
-0.062210083,-0.4019928,8.8989105,8.69751E-4,-4.272461E-4,0.0011291504,245.0,-0.083931945,-0.44073343,9.796382,0.021199748,0.004321605,0.0053043365,-0.015865108,-0.016487505,0.83734924,2017-01-02 10:36:08,57.62246398283496
-0.114852905,-0.48454285,8.882156,4.7302246E-4,-0.0020446777,-0.002746582,226.0,-0.08171875,-0.44133535,9.796373,-0.0071907938,0.054797918,0.01475811,-0.015787894,-0.016574362,0.837331,2017-01-02 10:36:09,70.18030424309568
-0.07537842,-0.40438843,8.906082,2.593994E-4,-0.0014343262,5.0354004E-4,249.0,-0.083580285,-0.44381657,9.796246,-7.512942E-4,0.004187703,-6.23703E-4,-0.015932078,-0.01663286,0.8374766,2017-01-02 10:36:10,67.68039219127891
-0.06700134,-0.3900299,8.903687,2.593994E-4,-0.0016326904,-0.0015258789,245.0,-0.078834794,-0.44693008,9.796144,0.014053397,-0.020641893,-0.0141506195,-0.015814792,-0.016899316,0.8375167,2017-01-02 10:36:11,75.7348799001668
-0.025131226,-0.3672943,8.9240265,-0.001373291,0.0,-0.0023345947,249.0,-0.08080557,-0.44666722,9.79614,-0.011561744,-0.014294326,-0.0022878647,-0.0158908,-0.016834028,0.8375449,2017-01-02 10:36:12,59.91208130207271
-0.06460571,-0.38165283,8.901306,0.0010681152,-0.0012359619,-0.0023345947,249.0,-0.08624643,-0.45117947,9.795886,-0.0066171587,-0.022141397,-0.0012435913,-0.01623939,-0.016884686,0.8378509,2017-01-02 10:36:13,44.2984846530897
-0.08973694,-0.38523865,8.890533,-0.0017852783,-2.1362305E-4,9.1552734E-5,254.0,-0.088185035,-0.44851428,9.795991,0.0070912167,-7.131398E-4,-0.012825012,-0.016250476,-0.016714433,0.8377741,2017-01-02 10:36:14,40.40515314286041
-0.033493042,-0.40678406,8.876175,6.1035156E-5,-0.0020446777,-9.1552734E-4,245.0,-0.08986246,-0.4408416,9.796324,-0.035685927,5.275309E-4,0.0097875595,-0.01611772,-0.016330611,0.8374734,2017-01-02 10:36:15,40.46834019824323
-0.058624268,-0.39482117,8.889343,-0.001373291,1.9836426E-4,-3.0517578E-4,245.0,-0.084264055,-0.43971413,9.796425,0.0011815652,-0.0024807155,0.013699532,-0.015852042,-0.01643357,0.83731145,2017-01-02 10:36:16,73.09736631034882
-0.08135986,-0.4091797,8.889343,0.0016784668,1.9836426E-4,-0.0029449463,245.0,-0.08212656,-0.44349787,9.796272,-0.0067464933,-0.006254345,-0.010736465,-0.015862418,-0.016658451,0.83743346,2017-01-02 10:36:17,72.82336110788185
-0.07537842,-0.4019928,8.884552,-0.001159668,0.0014190674,-3.0517578E-4,245.0,-0.08775152,-0.44360757,9.796219,0.0043197647,0.0032985806,-6.6185E-4,-0.01610219,-0.01650999,0.83755153,2017-01-02 10:36:18,74.67016543218917
-0.06700134,-0.40678406,8.891724,-0.0019836426,-0.0010223389,3.0517578E-4,245.0,-0.08700955,-0.44820172,9.796017,-0.007122636,-0.03566149,-0.008798599,-0.01619269,-0.016732652,0.8377368,2017-01-02 10:36:19,73.413675644884
-0.11366272,-0.44148254,8.910873,-0.0017700195,0.0010070801,7.171631E-4,245.0,-0.085265376,-0.44051248,9.79638,0.027146898,0.025365293,0.00807476,-0.015915392,-0.016441418,0.83736646,2017-01-02 10:36:20,44.619816931520546
-0.0765686,-0.4008026,8.8989105,4.5776367E-4,8.087158E-4,-1.0681152E-4,245.0,-0.08158557,-0.43888444,9.796485,-0.0025263578,0.014257133,-0.008554459,-0.015717246,-0.016470114,0.8372214,2017-01-02 10:36:21,66.94963052683849
-0.08375549,-0.40438843,8.892929,-0.001373291,0.0012207031,-0.0021362305,245.0,-0.08555099,-0.44066146,9.7963705,-0.009706616,-0.0032972991,0.009028435,-0.015931372,-0.01644019,0.8373787,2017-01-02 10:36:22,44.578271651189645
-0.061019897,-0.39242554,8.880966,-7.6293945E-4,0.0016174316,-1.0681152E-4,249.0,-0.08088584,-0.44482845,9.796223,0.0028728247,-0.014756709,-0.012311935,-0.015845453,-0.016750865,0.8374665,2017-01-02 10:36:23,71.19525273861736
-0.07298279,-0.39242554,8.889343,-5.493164E-4,0.0058898926,-0.0019226074,249.0,-0.08861469,-0.44332013,9.796224,-0.0068353564,0.011533767,0.0038719177,-0.016130919,-0.016473811,0.8375564,2017-01-02 10:36:24,68.5816472435786
-0.09451294,-0.40797424,8.922836,0.0022888184,0.0036621094,3.0517578E-4,249.0,-0.08983805,-0.44462445,9.796154,-0.0016733482,0.0072618723,0.008349419,-0.016086297,-0.016616715,0.83759266,2017-01-02 10:36:25,45.81111116266123
-0.07058716,-0.40797424,8.890533,-5.493164E-4,-8.239746E-4,0.0011138916,249.0,-0.08635449,-0.4424342,9.796284,0.0054069906,0.00561592,-0.00579834,-0.016012238,-0.016496364,0.8374722,2017-01-02 10:36:26,73.5575593344434
-0.07417297,-0.4008026,8.912064,0.0010681152,0.0024414063,7.019043E-4,249.0,-0.08484464,-0.4491645,9.795991,0.014756218,-0.0041032135,-0.017370224,-0.016127016,-0.016834026,0.837735,2017-01-02 10:36:27,73.38220406540538
-0.07777405,-0.39840698,8.8989105,0.0014801025,0.0016174316,-0.0015258789,245.0,-0.08797582,-0.441725,9.796302,-3.549978E-4,0.00466007,-0.0060806274,-0.016061703,-0.016420938,0.8374739,2017-01-02 10:36:28,71.64112288931794
-0.07896423,-0.38763428,8.8701935,-0.001159668,0.0022277832,0.0017242432,245.0,-0.085568525,-0.44753957,9.79606,-0.0012404844,-0.008651227,-0.012230873,-0.016114466,-0.016742704,0.83767885,2017-01-02 10:36:29,46.0534215625833
-0.08494568,-0.39840698,8.897705,-3.5095215E-4,0.002029419,0.0021362305,245.0,-0.082292266,-0.4443775,9.796231,0.010097101,-9.939075E-4,-0.0034246445,-0.015892716,-0.01669267,0.8374751,2017-01-02 10:36:30,77.21518844064975
-0.08135986,-0.3792572,8.912064,0.00289917,0.0010070801,-0.0025482178,245.0,-0.075812176,-0.44353154,9.796322,0.013791867,0.0018822551,0.00477314,-0.015597489,-0.016832147,0.83730793,2017-01-02 10:36:31,76.78640558901247
-0.088531494,-0.3864441,8.890533,6.713867E-4,-4.119873E-4,0.0015258789,245.0,-0.07786553,-0.43914247,9.796503,1.296997E-4,-0.036675423,-0.005382538,-0.015567493,-0.016582994,0.83715785,2017-01-02 10:36:32,71.15203124587508
-0.09451294,-0.39242554,8.927628,-0.0015716553,0.0018310547,-0.002746582,245.0,-0.09401032,-0.4406816,9.796292,0.0063454583,-0.0020961463,-0.030227661,-0.016288185,-0.016210567,0.83755004,2017-01-02 10:36:33,67.52526475619409
-0.07537842,-0.3672943,8.8989105,-0.0014953613,6.713867E-4,2.4414063E-4,245.0,-0.082459934,-0.4398627,9.796433,-0.020894043,-0.027991563,-0.01194191,-0.015780022,-0.016489318,0.83728164,2017-01-02 10:36:34,70.60435762289518
-0.088531494,-0.39959717,8.888138,0.0025787354,6.1035156E-5,-1.5258789E-4,245.0,-0.08734653,-0.44375327,9.796216,0.009936504,-0.0049302876,0.004972458,-0.016088996,-0.016527442,0.83754975,2017-01-02 10:36:35,71.65264482279707
-0.0765686,-0.40678406,8.894119,-0.001083374,0.0012817383,-0.0011749268,245.0,-0.087935425,-0.44312426,9.796239,-0.012289047,-0.018871963,-0.0073366165,-0.016097117,-0.016483685,0.8375342,2017-01-02 10:36:36,67.83696994280386
-0.06460571,-0.39482117,8.890533,-0.0029296875,-7.6293945E-4,0.0020751953,245.0,-0.07946445,-0.44597518,9.796182,0.0027911589,0.0043359697,-0.006245613,-0.015816003,-0.016840108,0.8374878,2017-01-02 10:36:37,67.52036469966187
-0.07298279,-0.4091797,8.891724,-0.0012969971,6.713867E-4,-0.0021820068,240.0,-0.08046159,-0.44567674,9.796187,0.008423708,0.009688765,-0.0067691803,-0.015850075,-0.016799783,0.8374949,2017-01-02 10:36:38,76.40377192480395
-0.08973694,-0.38285828,8.907288,0.0015563965,-0.0019836426,-0.0019836426,240.0,-0.073867984,-0.44586572,9.79623,-0.0143493265,-0.022649705,0.0013284683,-0.015577521,-0.016987903,0.83737046,2017-01-02 10:36:39,70.10986370195225
-0.0765686,-0.4175415,8.889343,-0.002105713,4.5776367E-4,-0.0017852783,240.0,-0.08265745,-0.44384462,9.796252,0.0056015477,0.005517006,-0.0063877106,-0.015893964,-0.016659249,0.83745927,2017-01-02 10:36:40,44.820004269337915
-0.061019897,-0.38285828,8.882156,5.340576E-4,-0.00340271,-0.0023956299,240.0,-0.09209465,-0.4468735,9.79603,-0.008545905,-0.008439809,-0.0036773682,-0.016371688,-0.01653569,0.8377815,2017-01-02 10:36:41,74.1440183291287
-0.057434082,-0.40678406,8.912064,-6.713867E-4,-0.00340271,0.0014648438,240.0,-0.0814579,-0.43893257,9.796484,-0.014574289,0.006089866,0.01645565,-0.015713148,-0.016475717,0.8372209,2017-01-02 10:36:42,71.36401912185973
-0.08973694,-0.43310547,8.906082,3.3569336E-4,0.0012817383,4.5776367E-4,240.0,-0.08801139,-0.44602162,9.796106,0.006596647,0.019124389,-0.0040006638,-0.015993955,-0.016463712,0.83744097,2017-01-02 10:36:43,64.56347610654784
-0.07537842,-0.40678406,8.896515,1.373291E-4,0.0014801025,-5.493164E-4,240.0,-0.091384426,-0.45083913,9.7958555,-0.013911001,0.0038844943,-0.014678955,-0.016446793,-0.0167299,0.83793986,2017-01-02 10:36:44,72.38934210416576
-0.07058716,-0.4091797,8.902496,5.340576E-4,0.0016937256,0.0020751953,235.0,-0.08747525,-0.44298473,9.796249,0.0016529337,0.0026302338,0.001581192,-0.016074037,-0.016490076,0.8375188,2017-01-02 10:36:45,44.57695762170833
-0.07058716,-0.39840698,8.901306,5.493164E-4,0.0027008057,6.5612793E-4,235.0,-0.08603295,-0.44175902,9.796317,0.01713445,0.013669968,0.02602768,-0.015980788,-0.016475389,0.8374363,2017-01-02 10:36:46,44.33039530857451
-0.088531494,-0.41874695,8.895325,-0.0031280518,0.0025024414,-5.493164E-4,235.0,-0.088688776,-0.4440646,9.796189,0.0016025901,0.01097244,-0.031274796,-0.01615378,-0.016504597,0.83759034,2017-01-02 10:36:47,44.253831597919344
-0.07417297,-0.3912201,8.901306,-0.0016937256,-9.613037E-4,-0.0021972656,235.0,-0.08056535,-0.440023,9.796442,0.0025940612,0.02281633,-0.0032348633,-0.015704514,-0.01654806,0.83725053,2017-01-02 10:36:48,63.43781096750813
-0.09211731,-0.39840698,8.886948,-0.0018920898,-9.613037E-4,0.0026855469,235.0,-0.08444429,-0.4435778,9.796248,-0.005870402,-0.005183369,-0.010932922,-0.01596213,-0.016598796,0.83748364,2017-01-02 10:36:49,47.40956000781567
-0.058624268,-0.37806702,8.883347,-8.8500977E-4,6.713867E-4,8.544922E-4,235.0,-0.0811091,-0.44734094,9.796106,-0.008894518,-0.011309236,-0.017316818,-0.015921427,-0.016855428,0.8375804,2017-01-02 10:36:50,73.52599008372917
-0.055038452,-0.42114258,8.886948,-0.0012969971,-5.493164E-4,-0.0017852783,235.0,-0.08311319,-0.44524735,9.796185,-0.001087971,0.015519083,0.008323669,-0.015950339,-0.016708607,0.8375296,2017-01-02 10:36:51,74.54320549605097
-0.093322754,-0.39601135,8.896515,-7.6293945E-5,-7.6293945E-4,4.5776367E-4,231.0,-0.07740167,-0.44415417,9.796281,0.0044903755,-0.0010645092,-0.004003525,-0.015680904,-0.016816188,0.837367,2017-01-02 10:36:52,63.72982983307828
-0.08734131,-0.4175415,8.897705,0.0013580322,-3.5095215E-4,0.0010681152,231.0,-0.080224946,-0.4445739,9.79624,0.007041879,0.0016444325,-7.534027E-5,-0.015810883,-0.016757675,0.8374421,2017-01-02 10:36:53,70.31248410207164
-0.071777344,-0.40678406,8.882156,-0.002105713,-3.5095215E-4,-3.6621094E-4,231.0,-0.083076715,-0.44361892,9.796259,0.020414338,-0.026596248,0.018390656,-0.015905634,-0.01663788,0.8374579,2017-01-02 10:36:54,44.6934716093325
0.015548706,-0.3744812,8.897705,-2.746582E-4,0.0025024414,-0.0019836426,231.0,-0.082095124,-0.44745573,9.796093,-0.0067913234,-0.005127609,-0.0038557053,-0.015965983,-0.01683362,0.83760524,2017-01-02 10:36:55,70.92934890620822
-0.046661377,-0.39959717,8.878571,-2.746582E-4,-0.001373291,-3.5095215E-4,231.0,-0.07786906,-0.44175562,9.796386,0.00970199,0.007593572,0.007662773,-0.015636977,-0.016697876,0.83727187,2017-01-02 10:36:56,66.38557212484298
-0.088531494,-0.37806702,8.908478,-0.0025177002,4.7302246E-4,0.0020751953,231.0,-0.0813847,-0.44483152,9.796218,0.017634824,-0.0126293,-0.015907288,-0.015866539,-0.016737401,0.8374767,2017-01-02 10:36:57,68.48715086659014
-0.051452637,-0.37687683,8.914459,-0.0025177002,2.593994E-4,0.002670288,231.0,-0.078973584,-0.44186598,9.796372,0.020269051,0.024413973,0.01765728,-0.015686398,-0.016672598,0.8372989,2017-01-02 10:36:58,69.25516777924004
-0.06939697,-0.40318298,8.897705,1.373291E-4,4.7302246E-4,0.0022735596,231.0,-0.07986073,-0.44511262,9.796218,7.19741E-4,0.0068689883,-0.01198101,-0.015809828,-0.016791323,0.83745825,2017-01-02 10:36:59,69.45831522950336
-0.07058716,-0.42352295,8.904892,-0.002319336,-0.0027923584,-0.001373291,231.0,-0.083872095,-0.44384298,9.796242,0.017542534,0.016623199,0.0050411224,-0.015945066,-0.01662607,0.83748364,2017-01-02 10:37:00,48.29151622476003
-0.049057007,-0.3792572,8.903687,-6.866455E-4,6.1035156E-5,-1.5258789E-4,226.0,-0.08771377,-0.44990492,9.795932,-0.023274325,-0.025927722,-0.018943787,-0.01626745,-0.016788565,0.8378251,2017-01-02 10:37:01,77.12203981056233
-0.10887146,-0.39959717,8.882156,-0.0016937256,-3.5095215E-4,0.0012664795,226.0,-0.08487709,-0.4451364,9.796175,-0.012643792,-0.024000555,-0.0132312775,-0.01602167,-0.016655656,0.8375603,2017-01-02 10:37:02,61.456432088465505
-0.06341553,-0.40797424,8.914459,-2.746582E-4,-9.613037E-4,4.5776367E-5,226.0,-0.086754076,-0.4459914,9.79612,0.002209656,-0.012552738,-0.016933441,-0.016123373,-0.016642196,0.83763534,2017-01-02 10:37:03,75.69135087180477
-0.086135864,-0.4019928,8.903687,-8.8500977E-4,0.0025024414,-7.7819824E-4,226.0,-0.09221969,-0.4431442,9.796199,-0.020326145,-0.0067154765,0.0031785965,-0.016278092,-0.016367873,0.8376214,2017-01-02 10:37:04,43.93492211462128
-0.088531494,-0.40678406,8.884552,7.4768066E-4,-5.493164E-4,-7.6293945E-4,226.0,-0.08232534,-0.44691154,9.796115,0.02570244,-0.0057207346,-5.044937E-4,-0.015961263,-0.016803378,0.83758616,2017-01-02 10:37:05,75.9820488469804
-0.06819153,-0.39840698,8.901306,0.0013580322,0.0016937256,0.00390625,226.0,-0.081369095,-0.44604594,9.796163,0.0044728965,0.012511432,0.007987976,-0.015898066,-0.016791308,0.83752924,2017-01-02 10:37:06,73.4250061767926
-0.08375549,-0.42352295,8.878571,9.613037E-4,-0.00340271,-0.0011749268,226.0,-0.08418924,-0.4416567,9.796338,-0.0061177835,0.022896588,0.015938759,-0.015900437,-0.016521143,0.8373947,2017-01-02 10:37:07,63.92560335975955
-0.07298279,-0.3864441,8.866608,1.373291E-4,0.003112793,0.0024719238,226.0,-0.08265939,-0.44326907,9.796278,0.0020027906,0.015673399,-0.020217896,-0.015878787,-0.016633851,0.83743423,2017-01-02 10:37:08,58.0760399164599
-0.057434082,-0.40678406,8.890533,0.0013580322,0.0014801025,-7.6293945E-4,226.0,-0.08700686,-0.4367479,9.796534,0.0012152344,4.9075484E-4,0.011096954,-0.015888775,-0.016228167,0.83723706,2017-01-02 10:37:09,71.65071493816991
-0.071777344,-0.39482117,8.895325,0.0011444092,8.69751E-4,4.5776367E-4,226.0,-0.08426933,-0.44288576,9.796282,-0.015639044,0.011909157,-0.012002945,-0.01593641,-0.016573085,0.8374499,2017-01-02 10:37:10,55.77021013590184
-0.086135864,-0.40318298,8.900101,1.373291E-4,0.0012817383,0.0010681152,226.0,-0.08355083,-0.43988112,9.796423,-0.0055470467,-0.0064368546,-0.0021848679,-0.015826443,-0.016460374,0.8373044,2017-01-02 10:37:11,53.64927978457719
-0.07537842,-0.42114258,8.897705,-0.002105713,-7.6293945E-4,8.544922E-4,226.0,-0.08623585,-0.44445074,9.796194,0.01604823,0.014495611,0.0053606033,-0.016060714,-0.016588429,0.83755773,2017-01-02 10:37:12,44.73000671282293
-0.047851563,-0.4175415,8.904892,-2.746582E-4,0.0016937256,8.69751E-4,226.0,-0.08685909,-0.44001406,9.796389,-0.013248533,0.0011294484,0.009689331,-0.015969275,-0.016376017,0.8373768,2017-01-02 10:37:13,64.48820943644853
-0.10887146,-0.4402771,8.897705,-0.001083374,-1.373291E-4,-0.0015716553,226.0,-0.081756815,-0.4414408,9.796369,0.031164728,0.013221502,-0.009971619,-0.015792293,-0.016577965,0.83733636,2017-01-02 10:37:14,68.73394186669634
-0.08494568,-0.39840698,8.886948,0.002166748,0.0018920898,-3.5095215E-4,226.0,-0.08270504,-0.4431983,9.796281,-0.012170531,-0.0075460672,-0.008534431,-0.015878832,-0.016629491,0.8374321,2017-01-02 10:37:15,59.08663697424355
-0.07417297,-0.39840698,8.913269,-0.0014953613,6.1035156E-5,-1.5258789E-4,226.0,-0.084694356,-0.4486792,9.796015,-0.009200975,0.016352326,0.008757591,-0.016107837,-0.01681673,0.83771086,2017-01-02 10:37:16,68.95224252160583
-0.059814453,-0.40797424,8.892929,-4.7302246E-4,-0.0030059814,8.69751E-4,231.0,-0.082713254,-0.45123073,9.795915,0.021316715,-0.00519222,-0.0024433136,-0.016091958,-0.016983112,0.8377819,2017-01-02 10:37:17,67.91246968652902
-0.06341553,-0.41036987,8.888138,-6.866455E-4,-7.4768066E-4,-0.0011749268,231.0,-0.08478068,-0.45220777,9.795852,0.01356636,2.4029613E-4,-0.006614685,-0.016204871,-0.016969904,0.83786607,2017-01-02 10:37:18,76.60643707538306
-0.09451294,-0.39242554,8.883347,1.373291E-4,-0.0015716553,-1.5258789E-4,231.0,-0.088762976,-0.4453356,9.796131,0.002812229,0.0023192167,3.9196014E-4,-0.0161906,-0.016558588,0.83764726,2017-01-02 10:37:19,74.06959428807404
-0.06341553,-0.41874695,8.871384,-0.002105713,6.713867E-4,-3.5095215E-4,231.0,-0.08919574,-0.44599494,9.796098,-0.008768693,0.002863139,-0.0067539215,-0.016226301,-0.016575864,0.83768475,2017-01-02 10:37:20,53.8490968983906
-0.07417297,-0.41036987,8.878571,-0.002105713,4.5776367E-4,-7.6293945E-4,231.0,-0.07672084,-0.4520732,9.795924,0.012228221,1.1125207E-4,0.013807297,-0.015861949,-0.01718342,0.83769774,2017-01-02 10:37:21,71.61853082146988
-0.0657959,-0.39720154,8.903687,-4.7302246E-4,-9.613037E-4,4.5776367E-5,231.0,-0.08218523,-0.44596103,9.79616,-0.021090254,-6.246269E-4,0.010699272,-0.01593018,-0.016765328,0.837542,2017-01-02 10:37:22,75.39749914479374
-0.06700134,-0.4019928,8.890533,3.3569336E-4,-0.0015716553,-0.0042266846,231.0,-0.07900187,-0.44562095,9.796202,0.0071499273,0.003945023,-0.015516281,-0.015787141,-0.01683712,0.8374631,2017-01-02 10:37:23,44.416043863620416
-0.07896423,-0.40318298,8.901306,-0.0039367676,6.1035156E-5,-0.001373291,231.0,-0.09017575,-0.45312625,9.795761,0.00890772,0.0059149563,0.0031719208,-0.0164564,-0.016863655,0.8380149,2017-01-02 10:37:24,73.79938849783424
-0.062210083,-0.4139557,8.892929,-0.0014953613,-9.613037E-4,0.0024871826,235.0,-0.08408629,-0.4511738,9.795905,-0.012107693,-0.012272865,0.020788193,-0.01614827,-0.016943227,0.8378071,2017-01-02 10:37:25,67.50255638711837
-0.08135986,-0.39840698,8.913269,-0.004562378,0.0018920898,0.0012664795,235.0,-0.08037538,-0.44876486,9.796047,0.022750258,0.0055783987,-0.013487816,-0.015928246,-0.016938139,0.83762753,2017-01-02 10:37:26,65.11268089364765
-0.06819153,-0.40797424,8.894119,0.0011444092,-5.493164E-4,-0.0011749268,235.0,-0.083977066,-0.4444145,9.796215,0.016434655,-0.0032666326,0.012565613,-0.015964637,-0.01664838,0.8375107,2017-01-02 10:37:27,43.991358193143654
-0.08494568,-0.4019928,8.880966,1.373291E-4,-0.0025939941,-0.0021972656,235.0,-0.08285653,-0.45303854,9.79583,-0.009725586,0.009291679,-0.01203537,-0.01614582,-0.01705889,0.8378633,2017-01-02 10:37:28,45.489524737963485
-0.06700134,-0.3864441,8.902496,1.373291E-4,-0.001159668,2.4414063E-4,235.0,-0.085794546,-0.45281532,9.7958145,-0.00946819,-0.029270321,-0.0151901245,-0.016263641,-0.016969103,0.8379129,2017-01-02 10:37:29,45.44073369595203
-0.055038452,-0.41036987,8.867798,-0.003540039,0.0012817383,-1.5258789E-4,240.0,-0.08568997,-0.43874103,9.796456,-0.0035661235,0.014263123,-0.015153885,-0.01588625,-0.016351838,0.8372977,2017-01-02 10:37:30,74.24654902845315
-0.06819153,-0.38165283,8.897705,0.0015563965,4.5776367E-4,-0.0019836426,240.0,-0.08413352,-0.44964823,9.795975,0.0045467615,-0.0012685657,0.0026474,-0.016109878,-0.016874705,0.83774173,2017-01-02 10:37:31,76.70456800553018
-0.114852905,-0.38404846,8.913269,-0.0017089844,6.713867E-4,4.5776367E-4,240.0,-0.08507003,-0.44790635,9.796046,0.011428587,0.0129826665,-0.0044727325,-0.01610319,-0.016772443,0.8376848,2017-01-02 10:37:32,45.18240966925199
-0.058624268,-0.40438843,8.901306,0.0011444092,0.0012817383,0.001876831,240.0,-0.08538808,-0.43451104,9.796647,0.012863055,0.026918024,-0.011882782,-0.015761178,-0.016173875,0.8371067,2017-01-02 10:37:33,73.47335591370184
-0.050247192,-0.4127655,8.882156,5.187988E-4,0.0031585693,1.5258789E-4,240.0,-0.08360097,-0.43585292,9.796603,-0.007874601,-0.024332762,0.024912834,-0.01572159,-0.016281702,0.8371295,2017-01-02 10:37:34,62.6350273973678
-0.08973694,-0.41156006,8.907288,-0.0013122559,-0.0011291504,-2.4414063E-4,240.0,-0.09010893,-0.44365433,9.796195,-0.015094921,0.00680086,0.023672104,-0.016202714,-0.016447838,0.8376011,2017-01-02 10:37:35,45.06314648609822
-0.071777344,-0.38165283,8.886948,9.3078613E-4,5.187988E-4,-0.0022888184,235.0,-0.08892452,-0.44464263,9.796161,-0.010250881,0.00380221,-0.0029563904,-0.016179034,-0.01652365,0.8376203,2017-01-02 10:37:36,70.28999783907491
-0.06700134,-0.39840698,8.890533,-0.0033416748,0.001739502,-4.5776367E-4,240.0,-0.080559224,-0.4353421,9.796651,0.0109748915,-0.011292398,0.0050086975,-0.015579962,-0.016342266,0.837046,2017-01-02 10:37:37,72.90135567155525
-0.07417297,-0.39720154,8.907288,3.3569336E-4,0.0011291504,5.493164E-4,240.0,-0.079920284,-0.44001487,9.796448,0.02594307,0.015687793,-0.018722534,-0.015677141,-0.016565302,0.83723724,2017-01-02 10:37:38,72.14547697397171
-0.08015442,-0.4055786,8.879761,0.0031738281,-3.0517578E-4,0.002380371,240.0,-0.09595248,-0.4487801,9.795906,-0.0062227324,0.022137552,-0.030331612,-0.016584719,-0.016514847,0.8379425,2017-01-02 10:37:39,44.55486050198178
-0.06700134,-0.39361572,8.8989105,-0.0023345947,0.0013275146,-0.0012664795,245.0,-0.08981742,-0.4516976,9.795831,0.016909577,-0.011196941,1.6498566E-4,-0.016403506,-0.016810382,0.8379455,2017-01-02 10:37:40,63.095537631080674
-0.086135864,-0.40438843,8.896515,-2.89917E-4,-0.0017242432,-4.5776367E-5,245.0,-0.08361169,-0.44594732,9.796148,-0.019819945,-0.0019757748,-0.006703377,-0.01598988,-0.016725855,0.83757013,2017-01-02 10:37:41,59.84237543588476
-0.06939697,-0.4019928,8.906082,-7.019043E-4,0.0013275146,-6.5612793E-4,249.0,-0.08283755,-0.44046408,9.796404,0.01058913,2.2906065E-4,0.0027513504,-0.015811881,-0.016505491,0.8373155,2017-01-02 10:37:42,62.99549080918801
-0.071777344,-0.45703125,8.896515,0.0013427734,-0.0017242432,-4.5776367E-5,245.0,-0.08122151,-0.4342259,9.796695,-0.0076125935,0.0018416047,0.003736496,-0.0155781815,-0.01627508,0.8370105,2017-01-02 10:37:43,45.555180016880286
-0.07777405,-0.3912201,8.883347,0.0025634766,-0.0017242432,-4.5776367E-4,245.0,-0.083053194,-0.4362124,9.796592,0.00126113,0.004975289,-1.7261505E-4,-0.015708078,-0.016312473,0.8371342,2017-01-02 10:37:44,70.96645379743408
-0.07537842,-0.41156006,8.884552,0.0031738281,-0.0011138916,0.0015869141,245.0,-0.08577187,-0.43357682,9.796685,0.006081395,-0.013208151,6.580353E-5,-0.015752506,-0.016122285,0.83707356,2017-01-02 10:37:45,71.63019522923008
-0.056228638,-0.40678406,8.888138,9.460449E-4,0.0011291504,-4.5776367E-5,245.0,-0.085896045,-0.43525183,9.79661,0.00619372,-0.0045027435,-0.012989998,-0.015802253,-0.016192615,0.8371493,2017-01-02 10:37:46,44.14228353663124
-0.07058716,-0.42352295,8.882156,0.0011444092,-0.0013122559,3.6621094E-4,249.0,-0.083750784,-0.4451963,9.796182,-0.024492271,0.0103907585,0.0030956268,-0.015975831,-0.016688982,0.8375402,2017-01-02 10:37:47,65.27972665444719
-0.08135986,-0.40438843,8.884552,-2.89917E-4,-5.0354004E-4,-0.0020751953,249.0,-0.08902074,-0.44234893,9.796265,-5.9559196E-4,-0.0030663311,-0.0031318665,-0.016122261,-0.016419955,0.8375222,2017-01-02 10:37:48,70.16825934437216
-0.08375549,-0.4139557,8.8989105,0.0013427734,-0.0035552979,0.0025787354,249.0,-0.08282829,-0.4428204,9.796297,0.011789866,-0.00949353,-0.008976936,-0.015874,-0.01660949,0.8374181,2017-01-02 10:37:49,54.72256305428215
-0.08973694,-0.42114258,8.873779,0.0015563965,0.0019378662,7.6293945E-4,249.0,-0.08277733,-0.43932328,9.796455,-0.009785563,-0.006682098,0.0051202774,-0.015779069,-0.016456915,0.8372645,2017-01-02 10:37:50,71.06376532645066
-0.08015442,-0.38285828,8.891724,1.2207031E-4,5.187988E-4,-0.0012664795,249.0,-0.08523345,-0.44498807,9.796179,0.006744042,0.0065303445,-0.011770248,-0.016032746,-0.016639411,0.837561,2017-01-02 10:37:51,52.02459293875697
-0.090927124,-0.39959717,8.896515,0.0023651123,0.002960205,-0.0016784668,249.0,-0.084593385,-0.44177863,9.796329,0.0026828647,0.002963245,-0.013335228,-0.01592069,-0.016515495,0.8374082,2017-01-02 10:37:52,66.10143402368618
-0.086135864,-0.39361572,8.892929,-2.89917E-4,1.0681152E-4,-0.0014648438,249.0,-0.08748532,-0.43859735,9.796447,-0.0031017587,0.017841995,0.0024356842,-0.015958037,-0.016296552,0.8373275,2017-01-02 10:37:53,74.99680805488813
-0.086135864,-0.41874695,8.904892,-2.89917E-4,0.001739502,5.645752E-4,249.0,-0.084652446,-0.4390311,9.7964525,0.029001877,0.026497692,0.009778976,-0.015850263,-0.016392905,0.83728945,2017-01-02 10:37:54,66.35722531604134
-0.034698486,-0.3900299,8.892929,-2.746582E-4,-0.0025482178,-0.0010681152,249.0,-0.088372126,-0.44791013,9.796018,-0.02021014,-0.026188403,-0.006549835,-0.016242355,-0.016682707,0.83775157,2017-01-02 10:37:55,58.98825228241738
-0.0765686,-0.4091797,8.886948,-2.89917E-4,0.0011291504,1.5258789E-4,249.0,-0.08017274,-0.43505195,9.796667,0.016604625,0.024344623,0.01463604,-0.015555983,-0.016340055,0.8370256,2017-01-02 10:37:56,72.91135449518411
-0.06341553,-0.36489868,8.882156,0.0027618408,3.0517578E-4,5.645752E-4,249.0,-0.08189886,-0.4457618,9.796171,-0.032133304,-0.039228976,-0.012574196,-0.015912842,-0.016764358,0.8375275,2017-01-02 10:37:57,66.06130152368314
-0.07537842,-0.4295044,8.912064,0.0023651123,0.0027618408,9.613037E-4,249.0,-0.081716835,-0.4431706,9.79629,-0.0011999086,-0.027215987,0.01947403,-0.01583649,-0.016655212,0.837411,2017-01-02 10:37:58,61.97269532305776
-0.06819153,-0.41156006,8.878571,0.0015411377,7.171631E-4,7.6293945E-4,249.0,-0.08669435,-0.44270188,9.796269,-0.0062682405,0.0033567548,-0.010614395,-0.01603365,-0.016498892,0.83749074,2017-01-02 10:37:59,44.89690329912798
-0.08015442,-0.39840698,8.908478,1.2207031E-4,-0.0023345947,-0.00289917,249.0,-0.08818708,-0.44414204,9.796191,0.014218017,-0.008581042,0.0166111,-0.016134704,-0.016521674,0.8375836,2017-01-02 10:38:00,68.87096545096756
-0.08255005,-0.41874695,8.889343,-2.746582E-4,-3.0517578E-4,-0.0026855469,249.0,-0.08545244,-0.4429389,9.796268,0.008183412,-0.005839765,0.0038881302,-0.015987638,-0.01654318,0.8374761,2017-01-02 10:38:02,71.35391868819602
-0.08734131,-0.42712402,8.865402,7.324219E-4,0.0023498535,-2.593994E-4,249.0,-0.09044318,-0.43674585,9.796502,-0.010025397,-0.001989007,-0.0025777817,-0.016033433,-0.016134365,0.83730614,2017-01-02 10:38:03,65.29580569753023
-0.08375549,-0.3912201,8.879761,0.001739502,-0.0011138916,3.5095215E-4,249.0,-0.08313022,-0.4416532,9.796348,-0.005899325,0.024028987,0.029119492,-0.015855752,-0.016549863,0.83737326,2017-01-02 10:38:04,51.65382093076981
-0.08973694,-0.39840698,8.889343,-2.89917E-4,-9.1552734E-4,-0.0012664795,249.0,-0.07932806,-0.43718833,9.796579,0.009820938,0.002152145,0.01064682,-0.015577175,-0.016457098,0.83710194,2017-01-02 10:38:05,76.2575846843987
-0.06700134,-0.41156006,8.8989105,0.0023651123,-0.0043792725,-0.0016784668,249.0,-0.08759315,-0.4482065,9.796011,0.004171841,-9.225011E-4,-0.009583473,-0.016217398,-0.016716976,0.83774877,2017-01-02 10:38:06,63.035714459791194
-0.06939697,-0.38883972,8.871384,5.340576E-4,-0.0019226074,-2.4414063E-4,249.0,-0.08383526,-0.4416512,9.796341,0.0049000904,0.011106461,-0.026387215,-0.015885387,-0.016530553,0.8373873,2017-01-02 10:38:07,66.58853047250071
-0.07896423,-0.4055786,8.908478,5.340576E-4,5.187988E-4,0.0015869141,249.0,-0.08521418,-0.44214165,9.796308,-0.014721468,-0.009984612,0.0097846985,-0.01595646,-0.016514558,0.8374365,2017-01-02 10:38:08,72.84306463428342
-0.07058716,-0.4019928,8.926422,0.002166748,3.0517578E-4,-0.0016784668,249.0,-0.07805665,-0.44547877,9.796216,3.7566572E-4,0.0030006468,0.020490646,-0.015743582,-0.016856631,0.83743787,2017-01-02 10:38:09,63.174613160761346
-0.06460571,-0.39840698,8.909668,7.324219E-4,-0.0019226074,0.0027923584,249.0,-0.08192048,-0.44831496,9.796055,0.0038962811,-0.0075458586,0.004140854,-0.015981387,-0.016876228,0.8376391,2017-01-02 10:38:10,45.42373683456241
-0.08015442,-0.40438843,8.912064,-2.89917E-4,9.1552734E-4,0.0027923584,249.0,-0.083413765,-0.45031202,9.795951,0.00405363,-0.005785078,-0.024476051,-0.01609714,-0.016923554,0.8377561,2017-01-02 10:38:11,72.84033171117211
-0.07896423,-0.39840698,8.907288,-6.866455E-4,0.0023345947,-6.5612793E-4,249.0,-0.088516496,-0.44833717,9.795997,0.0015068129,8.0278516E-4,-0.0067071915,-0.016259747,-0.016697602,0.8377731,2017-01-02 10:38:12,66.76581540713867
-0.049057007,-0.4091797,8.901306,-4.8828125E-4,5.187988E-4,-0.0020751953,245.0,-0.087513566,-0.45190498,9.795841,-0.01139158,0.027849555,0.012828827,-0.016311957,-0.016882198,0.837908,2017-01-02 10:38:13,71.23023434110218
-0.07298279,-0.42712402,8.901306,-0.0012969971,-5.0354004E-4,-4.5776367E-4,249.0,-0.08376343,-0.44175592,9.796337,-0.002799429,0.026010513,-0.0015773773,-0.01588514,-0.01653712,0.8373905,2017-01-02 10:38:14,71.17519613606363
-0.09451294,-0.40678406,8.902496,1.2207031E-4,0.0011291504,-4.5776367E-5,245.0,-0.08745544,-0.4429497,9.796251,-0.007892333,0.014763832,-0.01725769,-0.016072273,-0.016489072,0.8375169,2017-01-02 10:38:15,67.5857428482564
-0.08255005,-0.41516113,8.907288,7.324219E-4,-0.0015258789,0.0019836426,249.0,-0.09001092,-0.44223726,9.79626,0.01716268,0.008124769,0.014077187,-0.016161002,-0.01638806,0.8375373,2017-01-02 10:38:16,74.43986484389326
-0.08255005,-0.41874695,8.879761,5.340576E-4,-0.0021362305,0.0027770996,245.0,-0.08634594,-0.4467545,9.796088,-0.007710539,-0.0189552,0.0241642,-0.016126405,-0.016686939,0.8376604,2017-01-02 10:38:17,69.52260069016107
-0.09451294,-0.39959717,8.879761,-0.0017089844,-0.0021362305,-0.0012664795,245.0,-0.08179861,-0.4444553,9.796232,0.0024694055,-0.020100921,-0.0012845993,-0.015873993,-0.016709551,0.8374686,2017-01-02 10:38:18,71.6474079071368
-0.08494568,-0.4019928,8.876175,-7.6293945E-5,0.0021514893,0.0036010742,245.0,-0.08891728,-0.4402175,9.796361,-0.0042204335,-0.0023329556,-0.017638206,-0.01606135,-0.016328875,0.8374271,2017-01-02 10:38:19,74.6100345557901
-0.0765686,-0.4019928,8.913269,-0.0013122559,3.2043457E-4,3.6621094E-4,245.0,-0.08148058,-0.443102,9.796295,0.003434457,0.0029420257,0.022130966,-0.015824724,-0.016658634,0.83740324,2017-01-02 10:38:20,47.935372925292924
-0.053833008,-0.41516113,8.883347,-9.0026855E-4,1.0681152E-4,-6.5612793E-4,245.0,-0.09058198,-0.44754374,9.796014,-0.02421584,-0.005133271,4.8542023E-4,-0.016325727,-0.016606407,0.8377802,2017-01-02 10:38:21,72.17008977959777
-0.0657959,-0.41874695,8.890533,-0.002319336,3.0517578E-4,-0.002090454,245.0,-0.07843251,-0.4435013,9.796303,-0.0041765496,0.018566757,0.008117676,-0.015706988,-0.016759334,0.8373593,2017-01-02 10:38:22,70.76165416317153
-0.06700134,-0.3900299,8.883347,0.0011444092,-0.0015258789,7.6293945E-4,245.0,-0.07963998,-0.44505966,9.796223,-0.0054595917,-0.007438302,-0.0010175705,-0.01579913,-0.01679501,0.83745146,2017-01-02 10:38:23,71.16352835506878
-0.08015442,-0.39601135,8.894119,-9.0026855E-4,-0.0017242432,0.0015869141,240.0,-0.08241186,-0.44875655,9.796031,-0.011311129,0.019808173,0.0023412704,-0.016013771,-0.016882297,0.83766824,2017-01-02 10:38:24,77.19366481385414
-0.07896423,-0.37088013,8.886948,0.001953125,-3.0517578E-4,-0.0014648438,240.0,-0.08636603,-0.4371214,9.796522,-0.0029777214,-0.006470144,-0.0039606094,-0.015871711,-0.016262092,0.8372405,2017-01-02 10:38:25,44.99238727387403
-0.071777344,-0.4139557,8.8989105,-0.0015106201,1.0681152E-4,-4.5776367E-4,240.0,-0.08084031,-0.44542444,9.796196,-0.0020143464,0.0058239102,-0.010467529,-0.015859332,-0.01677835,0.8374915,2017-01-02 10:38:26,67.53461905494514
-0.06460571,-0.39482117,8.922836,-9.1552734E-5,-0.0015258789,0.0019836426,240.0,-0.07899229,-0.45101857,9.795955,-0.023916207,0.004386902,0.002989769,-0.015929673,-0.017075092,0.8376977,2017-01-02 10:38:27,58.80124151658829
-0.08015442,-0.39959717,8.877365,5.340576E-4,-7.171631E-4,-4.5776367E-5,240.0,-0.08929759,-0.44233543,9.796262,-0.013393976,-0.012133092,-0.0049180984,-0.016133564,-0.016411819,0.8375272,2017-01-02 10:38:28,63.10536959867974
-0.09451294,-0.40438843,8.880966,-0.003753662,-0.0015258789,-4.4250488E-4,240.0,-0.0869568,-0.4472043,9.796062,-0.015559629,0.0016552806,-0.013468742,-0.016164048,-0.016690128,0.83769226,2017-01-02 10:38:29,69.0513004253257
-0.046661377,-0.4008026,8.884552,0.0023651123,0.0021514893,0.0011749268,235.0,-0.08530546,-0.4471066,9.796082,0.007993288,0.002438128,0.003396988,-0.016091917,-0.016730791,0.8376547,2017-01-02 10:38:30,71.80809129274054
-0.07777405,-0.39482117,8.907288,-0.002319336,0.0011291504,-8.69751E-4,235.0,-0.080223165,-0.44715104,9.796122,-0.0133564025,0.012045294,-0.02055645,-0.015879098,-0.016871208,0.8375543,2017-01-02 10:38:31,66.88670399949423
-0.08375549,-0.4019928,8.907288,0.001953125,-2.89917E-4,0.0011749268,235.0,-0.07593691,-0.44913647,9.796065,0.018729657,0.014354736,0.0019025803,-0.01575123,-0.017075455,0.83755434,2017-01-02 10:38:32,67.0002910194984
-0.07058716,-0.4008026,8.884552,-7.019043E-4,-9.1552734E-4,0.001373291,235.0,-0.07846783,-0.44829437,9.796084,-0.008912161,-0.01771444,0.002486229,-0.015835477,-0.016969394,0.8375687,2017-01-02 10:38:33,44.48894737330855
-0.0765686,-0.41156006,8.886948,2.593994E-4,-0.0041656494,0.0016326904,235.0,-0.087695755,-0.45087573,9.795887,0.003075011,-0.010460377,0.0012664795,-0.016292391,-0.016831858,0.83786696,2017-01-02 10:38:34,72.26415835153327
-0.07777405,-0.39840698,8.892929,-0.001373291,0.0011291504,0.0014343262,235.0,-0.08802688,-0.44550064,9.79613,-0.0014511794,-0.0023692846,-0.0057439804,-0.016163971,-0.016585907,0.83763963,2017-01-02 10:38:35,70.6797515902675
-0.06939697,-0.37327576,8.900101,-0.0027923584,-1.0681152E-4,0.002243042,235.0,-0.086265266,-0.4467606,9.796088,-5.887151E-4,-0.018828154,0.02748108,-0.016123172,-0.016689405,0.837659,2017-01-02 10:38:36,45.17790280856764
-0.095718384,-0.4008026,8.891724,-0.0025939941,-3.0517578E-4,0.0,235.0,-0.0816358,-0.4473231,9.796103,0.004819423,-0.008492619,0.006272316,-0.015943132,-0.016840292,0.8375902,2017-01-02 10:38:37,38.878044276234064
-0.062210083,-0.38883972,8.913269,-0.003616333,-9.1552734E-4,-0.0022277832,235.0,-0.09324682,-0.44877452,9.795933,-0.009831339,-0.0016275048,-0.0020046234,-0.016470583,-0.016588181,0.8378876,2017-01-02 10:38:38,69.61965500278959
-0.09211731,-0.3900299,8.910873,0.0018920898,1.0681152E-4,0.0028381348,235.0,-0.09343617,-0.44241577,9.79622,-0.007203378,0.012033492,0.008158684,-0.016310014,-0.016302641,0.8376142,2017-01-02 10:38:39,71.58614911329872
-0.08255005,-0.39482117,8.907288,-0.0021820068,0.0021362305,4.119873E-4,231.0,-0.07990216,-0.44295517,9.796315,0.009150326,0.023027569,-0.0111141205,-0.015754377,-0.016695213,0.8373651,2017-01-02 10:38:40,70.14087595464306
-0.07777405,-0.4008026,8.912064,-5.493164E-4,5.187988E-4,0.0018463135,231.0,-0.083110005,-0.4411659,9.79637,-0.009452634,0.0011362433,-0.010402679,-0.015841974,-0.016528958,0.83735156,2017-01-02 10:38:41,45.20297569477418
-0.06460571,-0.4091797,8.907288,-1.373291E-4,0.0015411377,-3.9672852E-4,231.0,-0.08930994,-0.4455674,9.796116,-0.012235045,-0.0165959,0.0058546066,-0.01621978,-0.01655391,0.8376684,2017-01-02 10:38:42,74.98316658284148
-0.07537842,-0.38763428,8.910873,-0.0023956299,-0.0035705566,0.0010223389,231.0,-0.085062176,-0.45204133,9.795856,-0.014914639,-0.008472949,-0.005004883,-0.016212322,-0.016954908,0.8378645,2017-01-02 10:38:43,68.71452606220936
-0.047851563,-0.4055786,8.888138,2.593994E-4,-9.1552734E-5,-1.9836426E-4,231.0,-0.08761373,-0.45088318,9.795888,5.54733E-4,-0.009521544,0.011665344,-0.016289134,-0.016834417,0.83786565,2017-01-02 10:38:44,70.45258302159137
-0.08494568,-0.38285828,8.892929,-1.5258789E-4,0.0015411377,-1.9836426E-4,231.0,-0.08213353,-0.44210318,9.796335,0.006430641,0.010451406,0.010442734,-0.015825726,-0.016596854,0.83737284,2017-01-02 10:38:45,46.182710514335305
-0.051452637,-0.39720154,8.891724,2.593994E-4,5.187988E-4,0.0010223389,231.0,-0.08980348,-0.44454035,9.796158,-0.009393893,0.0016086102,-0.0034694672,-0.016213343,-0.016495205,0.8376336,2017-01-02 10:38:46,47.90652991263525
-0.08015442,-0.39601135,8.926422,0.0010681152,-7.019043E-4,-0.0018157959,231.0,-0.090339266,-0.4505492,9.795878,-0.014950901,-0.007603675,-0.012041092,-0.016395092,-0.01674554,0.8379061,2017-01-02 10:38:47,51.33160185925249
-0.06700134,-0.43190002,8.890533,0.0025024414,0.0013275146,1.5258789E-5,231.0,-0.086880006,-0.4489816,9.795981,0.0070569366,-0.004157424,0.002922058,-0.016207889,-0.016770555,0.8377681,2017-01-02 10:38:48,70.067536640495
-0.098098755,-0.4175415,8.900101,0.0024871826,-0.0019226074,-0.0012054443,231.0,-0.08529107,-0.44657195,9.796105,-0.020702899,-0.012307793,0.010800362,-0.016077148,-0.016707625,0.83763117,2017-01-02 10:38:49,44.736680404105236
-0.088531494,-0.4008026,8.895325,6.1035156E-5,-0.0019378662,-1.9836426E-4,231.0,-0.087917164,-0.4370317,9.796513,-0.0027870312,0.008863568,-0.0069389343,-0.015934646,-0.016215833,0.8372678,2017-01-02 10:38:50,43.98365445008017
-0.059814453,-0.34457397,8.937195,-5.493164E-4,1.0681152E-4,-0.0010070801,226.0,-0.08793315,-0.44624293,9.796098,0.026049428,0.012961626,0.006866455,-0.016179696,-0.016621172,0.8376701,2017-01-02 10:38:51,43.77987186460105
-0.07537842,-0.36489868,8.908478,-1.5258789E-4,-0.0013122559,0.0016326904,226.0,-0.09230307,-0.4395384,9.79636,0.0036731958,-0.024343878,-0.013491631,-0.016185926,-0.016206691,0.83746564,2017-01-02 10:38:52,59.36706622021773
-0.07417297,-0.40438843,8.897705,0.002090454,0.0021362305,-0.0010070801,231.0,-0.085514635,-0.44415393,9.796213,-0.014424771,-0.0056529045,-0.0036306381,-0.016022475,-0.016595006,0.8375303,2017-01-02 10:38:53,72.50842593653702
-0.0657959,-0.39242554,8.902496,0.0016784668,-7.019043E-4,1.5258789E-5,231.0,-0.08702181,-0.44629,9.7961035,-0.013109468,-0.014746666,-0.0046224594,-0.016142562,-0.016648063,0.83765376,2017-01-02 10:38:54,57.189117118558485
-0.07058716,-0.39601135,8.910873,2.593994E-4,5.0354004E-4,-0.0014190674,231.0,-0.084308185,-0.4442023,9.796222,-0.0023863167,-0.01287818,-0.0014858246,-0.015972955,-0.01663001,0.8375081,2017-01-02 10:38:55,73.08933100373063
-0.06700134,-0.42352295,8.895325,4.5776367E-4,9.1552734E-4,2.1362305E-4,231.0,-0.08466496,-0.44427544,9.796215,0.011102937,0.01828441,-0.0023059845,-0.015989918,-0.01662351,0.83751845,2017-01-02 10:38:56,66.11315419038456
-0.07896423,-0.4091797,8.908478,-3.5095215E-4,-9.1552734E-5,0.0020446777,231.0,-0.08566532,-0.44085675,9.796361,0.0059762895,0.008920968,0.0013189316,-0.015941368,-0.016445674,0.8373895,2017-01-02 10:38:57,45.71124698270406
-0.09690857,-0.43429565,8.889343,-9.613037E-4,-0.0033569336,-0.0016174316,231.0,-0.085129924,-0.43953824,9.796425,-3.7653744E-4,-0.015117615,0.007940292,-0.015883831,-0.016402213,0.83732116,2017-01-02 10:38:58,44.29100787120133
-0.06819153,-0.39482117,8.888138,0.0016784668,-9.1552734E-4,-0.0024261475,231.0,-0.08819304,-0.43924978,9.796411,0.011853643,0.0038477778,-0.0032148361,-0.016005164,-0.016305992,0.8373703,2017-01-02 10:38:59,68.47709216036841
-0.059814453,-0.39601135,8.909668,-0.0042266846,-0.0025482178,0.0,231.0,-0.083826624,-0.44574434,9.796157,0.0031404868,0.0051849484,0.011361122,-0.015993549,-0.016711056,0.8375656,2017-01-02 10:39:00,70.64260379286
-0.08255005,-0.4019928,8.913269,-7.6293945E-4,-5.0354004E-4,-0.0012207031,231.0,-0.08072612,-0.44464204,9.796232,0.018344522,0.0045986176,-0.0014448166,-0.015833788,-0.01674701,0.83745515,2017-01-02 10:39:01,63.05373033016457
-0.071777344,-0.41874695,8.891724,-0.0019836426,-0.0017242432,0.0016326904,231.0,-0.08730984,-0.4462088,9.796104,0.0027424097,0.004527122,-0.014089584,-0.01615254,-0.016636642,0.837656,2017-01-02 10:39:02,71.47511743234138
-0.071777344,-0.39959717,8.874985,0.0010681152,0.001953125,-0.002029419,231.0,-0.09310286,-0.45206004,9.795783,0.01161959,-0.009151071,0.019032478,-0.016551496,-0.016737036,0.8380277,2017-01-02 10:39:03,73.69656731870124
-0.071777344,-0.40438843,8.890533,-0.0019836426,0.0031585693,0.0010223389,231.0,-0.088281505,-0.44795352,9.796016,6.9744885E-5,0.019435108,-6.3991547E-4,-0.016239688,-0.016687088,0.8377516,2017-01-02 10:39:04,71.3882570428633
-0.061019897,-0.36849976,8.920441,-9.613037E-4,0.0021514893,0.0028381348,231.0,-0.086616114,-0.44277328,9.796267,-0.007466443,0.003743589,0.015771866,-0.016032249,-0.01650417,0.8374923,2017-01-02 10:39:05,56.46332367313404
-0.0765686,-0.40318298,8.891724,-0.0017852783,0.002960205,6.1035156E-4,231.0,-0.08751233,-0.44781896,9.796029,-0.011498906,0.0068536997,-0.0053606033,-0.016203728,-0.016702093,0.8377302,2017-01-02 10:39:06,45.49149689043883
-0.09451294,-0.4295044,8.922836,-0.0021820068,-0.0015258789,6.1035156E-4,231.0,-0.088141784,-0.44961303,9.795941,-0.012788452,-0.018695295,0.02122593,-0.016277751,-0.016764048,0.837821,2017-01-02 10:39:07,70.16879768606042
-0.07896423,-0.39959717,8.895325,-0.003616333,5.187988E-4,0.0020446777,235.0,-0.09176205,-0.45208752,9.795794,0.009223431,-0.007874757,0.014111519,-0.016495742,-0.016774703,0.8380018,2017-01-02 10:39:08,74.62700899036375
-0.08734131,-0.40678406,8.904892,0.0014801025,-5.0354004E-4,-0.0012054443,231.0,-0.090067945,-0.44748583,9.796021,-0.005551234,-4.2530894E-4,0.00919342,-0.01630254,-0.016617844,0.8377673,2017-01-02 10:39:09,66.5656904814207
-0.086135864,-0.40438843,8.903687,-3.5095215E-4,0.0013275146,-0.0018157959,235.0,-0.08857432,-0.44161418,9.796302,0.008673057,0.012270182,-9.250641E-5,-0.016083967,-0.016399747,0.83748114,2017-01-02 10:39:10,76.21521332067783
-0.07298279,-0.40797424,8.879761,0.0012664795,0.0011291504,0.0,235.0,-0.09083485,-0.44217587,9.796255,0.0047007278,0.010259688,-0.013681412,-0.016194077,-0.016362911,0.83755124,2017-01-02 10:39:11,67.72925661547747
-0.0657959,-0.37327576,8.879761,-0.0011749268,-0.0017242432,4.119873E-4,235.0,-0.08820781,-0.44489026,9.796157,0.020353444,-0.0036346018,0.029141426,-0.016155412,-0.01655408,0.8376167,2017-01-02 10:39:12,74.47403015898178
-0.0765686,-0.42591858,8.895325,2.593994E-4,-0.002746582,8.239746E-4,231.0,-0.08656511,-0.4401731,9.796384,-0.0075225607,-0.005839497,-0.005962372,-0.015961116,-0.016391035,0.8373778,2017-01-02 10:39:13,43.95346053843316
-0.0765686,-0.40797424,8.903687,-0.0011749268,-0.0017242432,0.0016326904,231.0,-0.08908478,-0.4458261,9.796106,-0.0016940534,-0.008120447,-0.004289627,-0.016217154,-0.016571444,0.83767515,2017-01-02 10:39:14,61.58512508265908
-0.09451294,-0.39720154,8.886948,4.5776367E-4,0.0013275146,-3.9672852E-4,231.0,-0.091108516,-0.44276896,9.796226,0.024140038,-0.005756438,0.033369064,-0.016221337,-0.016381595,0.83758265,2017-01-02 10:39:15,75.1726779971794
-0.08973694,-0.43310547,8.897705,0.00289917,-0.0011138916,0.0010223389,235.0,-0.08325497,-0.44422635,9.79623,0.003912665,0.0269849,0.015550613,-0.015929243,-0.016659772,0.83748794,2017-01-02 10:39:16,73.94955557385906
-0.09690857,-0.41874695,8.886948,-3.5095215E-4,1.0681152E-4,2.1362305E-4,245.0,-0.08116335,-0.4467414,9.796133,0.0068074167,-0.0029196143,0.01198101,-0.01590783,-0.016827544,0.83755535,2017-01-02 10:39:17,74.70860475958315
-0.088531494,-0.41156006,8.9240265,4.5776367E-4,-9.1552734E-5,-0.0018157959,245.0,-0.07887905,-0.44664037,9.796156,-0.006101981,0.022973686,0.010957718,-0.01580898,-0.016885355,0.837505,2017-01-02 10:39:18,65.61933003812325
-0.09211731,-0.41874695,8.878571,-3.5095215E-4,-0.0015258789,0.0026397705,245.0,-0.08480569,-0.45130327,9.795893,-0.015080616,-0.008787274,-0.019927025,-0.01618199,-0.016929353,0.83782727,2017-01-02 10:39:19,68.62281462124683
-0.07537842,-0.38404846,8.897705,-7.6293945E-4,-9.0026855E-4,2.1362305E-4,240.0,-0.081144676,-0.4518348,9.795899,-0.0028637573,-0.011924893,0.014310837,-0.016041894,-0.017052438,0.83777654,2017-01-02 10:39:20,71.62977768516134
-0.057434082,-0.41156006,8.906082,0.0018920898,-3.0517578E-4,0.0014343262,240.0,-0.08112369,-0.4406372,9.79641,0.013832606,-7.7599287E-4,-0.01377964,-0.015744317,-0.016559862,0.83728856,2017-01-02 10:39:21,45.00078567129342
-0.07298279,-0.40797424,8.914459,8.69751E-4,-0.0015258789,0.0010223389,245.0,-0.087101646,-0.4443688,9.796189,0.008480176,-0.011781186,-0.011616707,-0.016095005,-0.016561234,0.8375716,2017-01-02 10:39:22,61.83379976765281
-0.08375549,-0.4019928,8.913269,-0.0017700195,-0.0015258789,-5.950928E-4,249.0,-0.08781984,-0.44123837,9.796325,-0.0016350821,-0.005012721,-0.009972572,-0.016042223,-0.016403753,0.83744955,2017-01-02 10:39:23,58.78051179383939
-0.08494568,-0.41156006,8.882156,-0.0017700195,-2.89917E-4,4.119873E-4,249.0,-0.076671384,-0.44215658,9.796377,0.012250297,0.01422891,0.0024414063,-0.015597196,-0.016748201,0.8372653,2017-01-02 10:39:24,70.18994962653811
-0.07417297,-0.4055786,8.873779,-1.5258789E-4,0.001739502,6.2561035E-4,249.0,-0.08320396,-0.4420555,9.796329,-0.003398575,-0.0041047335,-0.014848709,-0.01586953,-0.016565567,0.8373923,2017-01-02 10:39:25,44.757956004711986
-0.059814453,-0.3900299,8.896515,-0.0017852783,-9.0026855E-4,-0.0012054443,249.0,-0.0861151,-0.44536564,9.796153,-0.022294924,-0.0059419274,-0.0051641464,-0.016079882,-0.01663203,0.8375952,2017-01-02 10:39:26,72.69186301570375
-0.07896423,-0.42712402,8.900101,-3.5095215E-4,9.1552734E-4,2.1362305E-4,245.0,-0.082865484,-0.4371727,9.79655,-0.009662278,0.008332282,0.001127243,-0.015725683,-0.016359858,0.8371723,2017-01-02 10:39:27,73.81276845701788
-0.06460571,-0.40438843,8.9240265,6.713867E-4,0.003768921,0.002456665,249.0,-0.081791684,-0.4456009,9.79618,0.0072783083,-0.0021086931,-0.015498161,-0.015904065,-0.016760191,0.83751833,2017-01-02 10:39:28,62.60951766847434
-0.08375549,-0.4139557,8.880966,-0.0040130615,-0.0029449463,0.0030517578,240.0,-0.08878937,-0.45121422,9.795862,-0.003131725,-0.0042378306,-0.014009476,-0.01634741,-0.01681703,0.83790374,2017-01-02 10:39:29,50.77976308912362
-0.08015442,-0.39361572,8.883347,4.5776367E-5,9.1552734E-4,0.0034484863,240.0,-0.08926116,-0.45206645,9.795818,-0.0027335286,-0.02516234,-0.0070695877,-0.016389836,-0.01684178,0.83795035,2017-01-02 10:39:30,52.12340152410135
-0.06939697,-0.4139557,8.902496,0.0014801025,0.0027618408,0.003250122,240.0,-0.08789408,-0.4477877,9.796027,-0.0014904737,-0.0010693669,0.013995171,-0.016218979,-0.016690323,0.83773655,2017-01-02 10:39:31,44.41337854151273
-0.059814453,-0.4295044,8.890533,0.002090454,0.0011291504,-6.1035156E-4,245.0,-0.08607441,-0.44539735,9.796152,0.0075680763,0.008407742,0.008817673,-0.016079009,-0.016634535,0.83759576,2017-01-02 10:39:32,43.68986663298529
-0.07298279,-0.38523865,8.901306,6.713867E-4,1.0681152E-4,-0.0010070801,254.0,-0.0843003,-0.44816056,9.7960415,-0.015621595,0.0022810698,0.009794235,-0.016077507,-0.016804608,0.83768034,2017-01-02 10:39:33,35.0358670508676
-0.052642822,-0.4019928,8.886948,7.7819824E-4,0.0033721924,-0.0012664795,249.0,-0.078021586,-0.43726626,9.796586,0.016510598,-0.0051298738,-0.0052108765,-0.0155242495,-0.016496198,0.8370791,2017-01-02 10:39:34,74.52727144901245
-0.0765686,-0.41516113,8.901306,-0.0024719238,5.187988E-4,-6.5612793E-4,249.0,-0.08191982,-0.447468,9.796094,-0.0010493323,-0.007995158,0.0054044724,-0.015877053,-0.016708396,0.8374705,2017-01-02 10:39:35,44.17851707565365
-0.061019897,-0.41036987,8.888138,-0.0018615723,-0.004562378,0.0017852783,249.0,-0.07449306,-0.44236794,9.796385,-0.006470509,-0.008327037,-0.023611069,-0.015511113,-0.016816946,0.83723074,2017-01-02 10:39:36,56.25980094084703
-0.061019897,-0.39959717,8.886948,9.918213E-4,-0.0017089844,-8.544922E-4,254.0,-0.08287668,-0.44234824,9.796318,-0.0036945567,-0.0074332654,-0.0018186569,-0.015863515,-0.01658738,0.83739847,2017-01-02 10:39:37,68.012554065229
-0.07417297,-0.4139557,8.901306,-0.0012512207,0.004180908,0.0011749268,254.0,-0.07567783,-0.44298458,9.796348,0.020874858,0.018245667,0.019147873,-0.015577332,-0.016811745,0.8372814,2017-01-02 10:39:38,59.38882021865294
-0.071777344,-0.39361572,8.900101,-4.4250488E-4,-7.019043E-4,0.0027923584,254.0,-0.07852594,-0.43867818,9.796518,-4.099533E-4,0.0050718784,-0.0033521652,-0.015582968,-0.016544541,0.8371509,2017-01-02 10:39:39,64.55252271049882
-0.07896423,-0.39601135,8.903687,0.0019989014,7.324219E-4,0.0021820068,249.0,-0.08830376,-0.44801408,9.796013,-0.0035196394,-0.011665821,-0.0020866394,-0.016242228,-0.01668915,0.83775467,2017-01-02 10:39:40,69.02627636825603
-0.071777344,-0.40318298,8.880966,0.0030212402,0.0011444092,0.0011749268,254.0,-0.08851528,-0.451479,9.795853,0.0026465207,-0.0013687909,-0.009489059,-0.016342873,-0.01683616,0.83790976,2017-01-02 10:39:41,69.87700102665654
-0.08255005,-0.42352295,8.876175,3.8146973E-4,0.0017547607,0.0025939941,245.0,-0.08689101,-0.4406014,9.796362,-0.01680407,-0.025764912,-0.01967907,-0.015986206,-0.016401013,0.83740306,2017-01-02 10:39:42,69.70150085459382
-0.098098755,-0.41516113,8.897705,0.0024108887,-0.0019073486,0.0019989014,245.0,-0.08904603,-0.4431209,9.796229,0.010211989,-0.00709787,0.0015697479,-0.0161438,-0.016453281,0.8375564,2017-01-02 10:39:43,65.55671679488054
-0.058624268,-0.38883972,8.903687,-2.2888184E-4,-0.0029296875,7.7819824E-4,240.0,-0.07828138,-0.4351059,9.79668,-0.0031141266,-0.013012826,-0.009455681,-0.015477801,-0.016394082,0.83698994,2017-01-02 10:39:44,50.073382652837935
-0.07777405,-0.4139557,8.896515,-0.0012512207,5.187988E-4,0.0017852783,245.0,-0.08095869,-0.4384379,9.79651,0.004114434,0.010472298,-0.009599686,-0.015679,-0.01646757,0.83718926,2017-01-02 10:39:45,68.9877787635395
-0.07537842,-0.39361572,8.902496,0.002609253,-5.0354004E-4,-0.0020751953,245.0,-0.08306276,-0.43476385,9.796656,-0.021506555,-0.0049309134,-0.0037822723,-0.015669994,-0.016248472,0.837071,2017-01-02 10:39:46,65.26585930116083
-0.086135864,-0.40678406,8.901306,0.0022125244,-2.89917E-4,-8.544922E-4,240.0,-0.085829355,-0.44240016,9.79629,-0.015448973,-0.010166228,-0.0013189316,-0.01598922,-0.016509175,0.83746016,2017-01-02 10:39:47,45.77385965960474
-0.07537842,-0.4127655,8.894119,0.0020141602,-6.866455E-4,3.6621094E-4,245.0,-0.08279027,-0.43789896,9.796518,-0.012193471,0.0110321045,0.016283035,-0.0157418,-0.016393872,0.83720255,2017-01-02 10:39:48,75.51019838760806
-0.07417297,-0.4008026,8.888138,9.918213E-4,-0.002319336,-0.0022735596,240.0,-0.08331299,-0.44434732,9.796224,0.0014392138,0.0024727285,-0.0025997162,-0.015934894,-0.01666352,0.8374944,2017-01-02 10:39:49,69.71375442208094
-0.08135986,-0.39361572,8.883347,-4.4250488E-4,-2.89917E-4,1.5258789E-4,245.0,-0.08223259,-0.4415754,9.796358,-0.006707281,0.007256329,-0.010006905,-0.015815897,-0.016570916,0.8373518,2017-01-02 10:39:50,44.336743799583786
-0.071777344,-0.41993713,8.895325,5.79834E-4,0.001739502,0.0011749268,240.0,-0.08326526,-0.4442382,9.796229,-0.006903544,0.0027878582,-0.005756378,-0.015929991,-0.016660014,0.83748865,2017-01-02 10:39:51,75.04830584422666
-0.090927124,-0.40678406,8.913269,5.79834E-4,0.0011444092,3.6621094E-4,245.0,-0.09047758,-0.44862345,9.795965,-0.008751228,6.763935E-4,0.016122818,-0.016349928,-0.016656855,0.8378251,2017-01-02 10:39:52,71.87752094028868
-0.08255005,-0.38165283,8.913269,0.0011901855,9.3078613E-4,5.645752E-4,240.0,-0.08269757,-0.43750522,9.796537,-0.0074053854,0.015894294,0.011466026,-0.015727442,-0.016379071,0.8371835,2017-01-02 10:39:53,43.23338529239538
-0.0657959,-0.40438843,8.883347,0.0024108887,7.324219E-4,-8.544922E-4,245.0,-0.08040474,-0.44478554,9.796228,-0.020295918,-0.00998351,-0.012778282,-0.01582406,-0.01676209,0.8374549,2017-01-02 10:39:54,74.38350304563129
-0.057434082,-0.39482117,8.897705,5.79834E-4,-2.89917E-4,-0.0010681152,245.0,-0.08637047,-0.4463115,9.796108,0.0066303536,0.010343462,-0.006026268,-0.0161157,-0.01666675,0.83764154,2017-01-02 10:39:55,66.41742364368258
-0.06700134,-0.38285828,8.913269,0.0013885498,0.0017547607,-0.0016784668,240.0,-0.08469137,-0.44643182,9.796117,-0.0032693967,0.0032895803,0.02009964,-0.016048182,-0.016717786,0.837613,2017-01-02 10:39:56,44.37386549993067
-0.07058716,-0.4139557,8.8989105,-3.0517578E-5,-7.6293945E-5,9.765625E-4,231.0,-0.085523166,-0.44279507,9.796275,-0.02048336,-0.006121576,0.010828972,-0.015986802,-0.016534915,0.83747125,2017-01-02 10:39:57,46.05589161925416
-0.04547119,-0.3912201,8.885742,-0.0022735596,-4.8828125E-4,0.0017852783,235.0,-0.08417307,-0.44287607,9.796283,-0.0073309243,-0.017829746,-0.015921593,-0.0159321,-0.016575282,0.8374476,2017-01-02 10:39:58,57.95937970075875
-0.07058716,-0.39720154,8.8989105,1.6784668E-4,7.324219E-4,-2.4414063E-4,235.0,-0.08121553,-0.43984604,9.796445,0.003154479,0.0021674633,0.003988266,-0.015727188,-0.016522532,0.8372559,2017-01-02 10:39:59,74.77979593976484
-0.08375549,-0.4247284,8.878571,-8.392334E-4,0.0021514893,-0.0012664795,235.0,-0.09042678,-0.4367911,9.7965,-0.010007478,0.0173603,0.0010414124,-0.016033946,-0.016136805,0.8373078,2017-01-02 10:40:00,69.93024824040089
-0.06700134,-0.3756714,8.895325,-8.392334E-4,-0.002532959,-0.001876831,231.0,-0.08712027,-0.4443787,9.796189,-0.011811823,-0.0451068,0.0124025345,-0.01609605,-0.016561162,0.83757246,2017-01-02 10:40:01,69.46948904221347
-0.027511597,-0.3912201,8.890533,0.0018157959,-9.1552734E-5,-0.0026855469,189.0,-0.091167346,-0.44460708,9.796143,-0.0022170544,0.05051714,-0.010811806,-0.016272556,-0.01646101,0.837664,2017-01-02 10:40:02,45.00419737067186
-0.0765686,-0.41516113,8.890533,-6.4086914E-4,0.0027770996,0.0021820068,194.0,-0.09386801,-0.4425722,9.796208,0.0039073825,0.0036140382,0.0026865005,-0.016332354,-0.01629778,0.8376297,2017-01-02 10:40:03,75.5601165764696
-0.0765686,-0.4175415,8.894119,-4.4250488E-4,-0.0029296875,-2.4414063E-4,198.0,-0.08886491,-0.44648042,9.796079,-0.023412779,-0.026605904,0.008882523,-0.016225232,-0.01660627,0.83769923,2017-01-02 10:40:04,69.54850464333157
-0.06460571,-0.41635132,8.8701935,9.918213E-4,5.187988E-4,-0.0010681152,194.0,-0.08702743,-0.4459783,9.796118,-0.011887237,-0.011305749,0.0126571655,-0.01613454,-0.016634176,0.8376403,2017-01-02 10:40:05,59.75939395995389
-0.09211731,-0.3900299,8.883347,7.7819824E-4,-0.0013122559,-6.5612793E-4,189.0,-0.085157424,-0.44706985,9.796084,-0.0028409138,0.0027068853,-0.010412216,-0.01608471,-0.016733203,0.8376501,2017-01-02 10:40:06,57.628632449367565
-0.07777405,-0.4091797,8.901306,-0.0014648438,9.3078613E-4,7.7819824E-4,189.0,-0.087402195,-0.4490483,9.795974,0.007614471,0.0023145676,-0.014829636,-0.016231649,-0.016759282,0.83778155,2017-01-02 10:40:07,51.333229182371284
-0.061019897,-0.3864441,8.886948,-0.0012512207,-0.0015106201,-6.5612793E-4,189.0,-0.0818384,-0.44734997,9.7961,1.3896823E-4,0.0030254126,-0.015418053,-0.015952373,-0.016835956,0.83759546,2017-01-02 10:40:08,72.67056228567748
-0.06460571,-0.4091797,8.897705,0.0018005371,-7.019043E-4,-0.0010528564,194.0,-0.090111405,-0.44436845,9.796163,0.017196491,-0.0057865977,0.004849434,-0.016221754,-0.016479244,0.8376323,2017-01-02 10:40:09,44.88887088048798
-0.061019897,-0.40678406,8.906082,0.0013885498,1.2207031E-4,-0.001663208,194.0,-0.08416355,-0.44721192,9.796086,-0.0073658153,-0.023599744,-0.015084267,-0.01604662,-0.016766533,0.8376363,2017-01-02 10:40:10,69.77142047399303
-0.08015442,-0.43190002,8.877365,-4.4250488E-4,5.187988E-4,-4.5776367E-5,212.0,-0.08420418,-0.43966338,9.796428,-0.012026198,0.022587627,-0.009005547,-0.015848173,-0.016432969,0.83730805,2017-01-02 10:40:11,71.16880234441395
-0.053833008,-0.4390869,8.925232,0.0013885498,-7.6293945E-5,-0.0010528564,217.0,-0.07189028,-0.4330981,9.796818,-0.008895777,0.064248025,-0.0074853897,-0.015155469,-0.01648049,0.83677405,2017-01-02 10:40:12,70.94844961678132
-0.10169983,-0.4283142,8.877365,-0.001449585,3.2043457E-4,-2.4414063E-4,217.0,-0.0832715,-0.44124162,9.796365,-0.010522731,0.0094411075,0.020243645,-0.015850782,-0.01652789,0.8373581,2017-01-02 10:40:13,74.54766051013594
-0.07417297,-0.42352295,8.873779,1.8310547E-4,0.0025634766,3.6621094E-4,212.0,-0.087106965,-0.4468364,9.796078,-0.011817373,-0.0033669174,-0.016947746,-0.016160626,-0.016669825,0.83767927,2017-01-02 10:40:14,58.36836840430906
-0.088531494,-0.39959717,8.913269,-0.0026855469,7.324219E-4,9.765625E-4,212.0,-0.083633184,-0.4366578,9.796567,0.0029680654,0.006517619,0.02496624,-0.015744327,-0.016316244,0.8371653,2017-01-02 10:40:15,68.78925542567589
-0.04067993,-0.31106567,8.890533,-0.0020751953,-2.89917E-4,9.765625E-4,222.0,-0.090674154,-0.44845623,9.795971,-1.8682331E-4,-0.034130514,0.0032052994,-0.01635378,-0.016644133,0.8378218,2017-01-02 10:40:16,67.33442841303889
-0.06460571,-0.40318298,8.877365,0.0011901855,3.2043457E-4,0.0011749268,217.0,-0.08411172,-0.4436625,9.7962475,-0.02291809,-2.706349E-4,-0.0047445297,-0.01595037,-0.016611591,0.8374806,2017-01-02 10:40:17,71.43439612902574
-0.086135864,-0.4247284,8.878571,-0.0022735596,-2.89917E-4,0.0013885498,222.0,-0.08643847,-0.4407307,9.79636,-0.008873008,4.953742E-4,-0.016899109,-0.01597058,-0.016419044,0.8373996,2017-01-02 10:40:18,73.74612012265354
-0.071777344,-0.41993713,8.907288,0.0020141602,7.324219E-4,0.0013885498,138.0,-0.085840866,-0.44137534,9.796336,0.0061160848,-0.01942581,0.017929077,-0.01596252,-0.016463727,0.8374157,2017-01-02 10:40:19,45.02008585582095
-0.08255005,-0.4019928,8.895325,-0.0010528564,0.0013427734,-0.0010528564,212.0,-0.092468075,-0.44625998,9.796055,-0.012943976,0.01400125,-0.011850357,-0.01637116,-0.016498474,0.8377623,2017-01-02 10:40:20,40.44484800502084
-0.086135864,-0.42591858,8.8701935,1.6784668E-4,-9.1552734E-5,7.7819824E-4,217.0,-0.08379317,-0.4431174,9.796276,-0.0112659335,-0.008065939,0.015681267,-0.015922502,-0.016596265,0.83745044,2017-01-02 10:40:21,70.3152575673742
-0.07537842,-0.41635132,8.892929,1.6784668E-4,-0.0029296875,-0.001876831,217.0,-0.085651495,-0.44289985,9.796269,0.010764904,-0.017811507,-0.027797699,-0.015994985,-0.016536033,0.8374784,2017-01-02 10:40:22,45.06021650345388
-0.093322754,-0.39601135,8.915649,-3.0517578E-5,3.2043457E-4,1.5258789E-4,217.0,-0.090770096,-0.44540846,9.796109,-0.0025322512,1.3917685E-5,-0.0025157928,-0.01627707,-0.01650715,0.83769095,2017-01-02 10:40:23,66.01900948225895
-0.06939697,-0.39840698,8.902496,9.918213E-4,-9.0026855E-4,0.0032043457,212.0,-0.08794572,-0.4442821,9.796186,0.004447378,0.0012692809,0.0036087036,-0.016128253,-0.016534422,0.83758485,2017-01-02 10:40:25,45.35948971815364
-0.07537842,-0.3792572,8.901306,-0.0022735596,0.0021514893,-6.5612793E-4,212.0,-0.08738756,-0.44127584,9.796328,0.0051559135,0.0033808649,0.0047721863,-0.016025012,-0.016417185,0.8374425,2017-01-02 10:40:26,70.52764556480001
-0.08255005,-0.40678406,8.882156,-0.001663208,-9.0026855E-4,-0.001663208,212.0,-0.08728135,-0.4400894,9.796381,0.009835638,0.0010991693,-0.007256508,-0.015989056,-0.016367825,0.8373886,2017-01-02 10:40:27,67.11570789026874
-0.08015442,-0.38523865,8.908478,0.0022125244,0.001953125,-6.5612793E-4,212.0,-0.08618209,-0.44468525,9.796184,-0.015083529,-0.009064108,-0.0016069412,-0.016064668,-0.016600227,0.8375669,2017-01-02 10:40:28,68.80843979569258
-0.07777405,-0.41156006,8.891724,1.6784668E-4,0.0021514893,-0.0020751953,212.0,-0.082987584,-0.4358388,9.796609,-0.003624685,0.004452318,0.0039396286,-0.01569539,-0.016297823,0.8371165,2017-01-02 10:40:29,51.51781888405417
-0.0765686,-0.40797424,8.894119,0.002609253,1.2207031E-4,3.6621094E-4,212.0,-0.08467687,-0.44214898,9.796311,2.8803945E-4,-0.0066593885,0.0025339127,-0.015914924,-0.01652603,0.83740884,2017-01-02 10:40:30,70.69356915480634
-0.06939697,-0.38165283,8.876175,0.0011901855,-0.0015106201,-6.5612793E-4,208.0,-0.083248205,-0.4419014,9.796335,2.245307E-4,0.0029115677,-1.5544891E-4,-0.015867304,-0.016557574,0.8373864,2017-01-02 10:40:31,45.418736656704056
-0.07537842,-0.39840698,8.894119,0.0015869141,3.2043457E-4,3.6621094E-4,222.0,-0.090240285,-0.44766572,9.796011,-0.03168954,-0.014488488,-0.0020627975,-0.016314566,-0.016621085,0.8377786,2017-01-02 10:40:32,67.90947495983688
-0.08255005,-0.41036987,8.866608,-6.4086914E-4,-0.0013122559,-0.0012664795,235.0,-0.08336909,-0.44412908,9.796233,3.426224E-4,0.00856474,-0.020188332,-0.01593147,-0.01665238,0.837486,2017-01-02 10:40:33,44.44045511930571
-0.08015442,-0.4127655,8.877365,1.6784668E-4,0.0017547607,3.6621094E-4,231.0,-0.0904002,-0.43498194,9.796581,-0.024378851,-0.01653102,0.015294075,-0.015984755,-0.016057856,0.8372281,2017-01-02 10:40:34,76.40641722736596
-0.062210083,-0.3756714,8.915649,9.1552734E-4,-1.9836426E-4,0.0020141602,231.0,-0.09351805,-0.43985903,9.796334,-0.002425991,-0.0025964081,0.013308525,-0.016245617,-0.01618772,0.83750415,2017-01-02 10:40:35,71.63359095705727
-0.06460571,-0.3864441,8.894119,9.1552734E-5,-0.0010070801,-0.0012359619,235.0,-0.08044894,-0.4440241,9.796263,-0.013067089,-0.02262804,-0.01661396,-0.015805738,-0.01672736,0.83742267,2017-01-02 10:40:36,66.78954806022966
-0.093322754,-0.41516113,8.906082,0.0011138916,0.0016326904,-8.392334E-4,226.0,-0.08026347,-0.4464666,9.796153,-0.004881397,-0.009694815,-0.016783714,-0.015862662,-0.016839966,0.8375253,2017-01-02 10:40:37,44.170965751208904
-0.08015442,-0.3900299,8.889343,-3.0517578E-4,-0.0014190674,-6.4086914E-4,226.0,-0.08163144,-0.43934226,9.796464,-0.007210098,0.010235995,0.01944542,-0.01573133,-0.016489012,0.83724225,2017-01-02 10:40:38,71.99718541821788
-0.14596558,-0.52163696,8.896515,9.1552734E-4,-0.0014190674,0.002609253,226.0,-0.08562658,-0.43097866,9.796801,0.0060064495,0.04334429,6.170273E-4,-0.015677297,-0.016011933,0.8369569,2017-01-02 10:40:39,44.9300882702837
-0.07298279,-0.38523865,8.876175,-5.187988E-4,-0.0018157959,0.0022125244,217.0,-0.08021459,-0.43518767,9.79666,-1.2353063E-4,0.0100441575,-0.022173882,-0.015561352,-0.016344883,0.8370323,2017-01-02 10:40:40,67.56168433145285
-0.08734131,-0.38046265,8.909668,-5.0354004E-4,8.239746E-4,9.918213E-4,198.0,-0.0857198,-0.43702117,9.796533,0.014437631,0.016452372,0.002612114,-0.015841836,-0.016275307,0.8372231,2017-01-02 10:40:41,62.82694051338499
-0.08734131,-0.42712402,8.880966,9.1552734E-4,0.0010375977,-0.0022583008,194.0,-0.09063219,-0.43385294,9.79663,0.012904525,0.013511568,0.011140823,-0.015964516,-0.016001815,0.8371834,2017-01-02 10:40:42,54.1673228256237
-0.0765686,-0.39601135,8.909668,-0.001739502,1.5258789E-5,0.0024108887,203.0,-0.090186514,-0.4429858,9.796225,-0.009055063,-0.004637897,-0.0049552917,-0.016188253,-0.016416263,0.8375735,2017-01-02 10:40:43,68.69662757732401
-0.07417297,-0.4008026,8.885742,-3.0517578E-4,0.002456665,0.0014038086,208.0,-0.077688426,-0.44165498,9.7963915,0.0082874745,0.014331132,-0.023026466,-0.015626704,-0.016698377,0.8372639,2017-01-02 10:40:44,45.28417928285733
-0.086135864,-0.39482117,8.891724,0.0035552979,-3.9672852E-4,0.0016021729,208.0,-0.07980547,-0.44229433,9.796346,-5.5134296E-4,0.0054149926,-0.009007454,-0.015732782,-0.016668761,0.83733433,2017-01-02 10:40:45,62.44635059471928
-0.0765686,-0.42352295,8.904892,-5.187988E-4,-0.0010070801,1.8310547E-4,208.0,-0.07855567,-0.43823755,9.796538,0.02223719,0.030433714,-0.010005951,-0.015572521,-0.016524343,0.8371322,2017-01-02 10:40:46,70.72591889419667
-0.088531494,-0.40797424,8.914459,5.0354004E-4,0.0012359619,-0.0016479492,212.0,-0.083680615,-0.44129893,9.796359,0.008913718,0.0043350756,0.016428947,-0.015869528,-0.016519256,0.83736885,2017-01-02 10:40:47,72.25342520407806
-0.07298279,-0.4055786,8.869003,-1.0681152E-4,0.0028686523,0.0018005371,217.0,-0.083110645,-0.44036233,9.796406,-3.091246E-4,0.0056506693,0.008315086,-0.015737195,-0.016522216,0.83726376,2017-01-02 10:40:48,64.98497196252634
-0.058624268,-0.39601135,8.900101,9.1552734E-5,4.119873E-4,0.0030212402,217.0,-0.08783547,-0.43747255,9.796494,0.00557404,0.013138831,0.0045404434,-0.015942914,-0.016237475,0.8372854,2017-01-02 10:40:49,45.51382667959798
-0.059814453,-0.4019928,8.904892,0.0015258789,0.0014343262,1.8310547E-4,217.0,-0.07669435,-0.44049966,9.796452,0.009808816,-0.0021063685,0.011654854,-0.01555421,-0.016674671,0.83719355,2017-01-02 10:40:50,45.824210537606845
-0.08494568,-0.39482117,8.904892,0.0021362305,0.0018463135,-0.0010375977,217.0,-0.08176805,-0.44312787,9.796292,0.008390419,-0.0035386682,0.009749413,-0.015837513,-0.016651934,0.83741015,2017-01-02 10:40:51,72.88707981151768
-0.08015442,-0.42114258,8.882156,-0.0025482178,-0.0012054443,1.8310547E-4,217.0,-0.07725061,-0.44634238,9.796184,0.0055688918,-0.0073072016,0.034736633,-0.015732532,-0.016916627,0.83745927,2017-01-02 10:40:52,69.45871265404891
-0.119644165,-0.51086426,8.892929,5.0354004E-4,6.2561035E-4,0.0028076172,217.0,-0.08398634,-0.4339832,9.796682,0.034370042,0.05177799,0.0022039413,-0.01568813,-0.01618891,0.83705544,2017-01-02 10:40:53,52.452813526368686
-0.07537842,-0.40797424,8.900101,0.0019226074,0.0028533936,1.8310547E-4,217.0,-0.09343051,-0.438203,9.79641,0.0011355504,9.5006824E-4,-0.03562355,-0.016197959,-0.01611713,0.83743,2017-01-02 10:40:54,60.53597690553317
-0.015548706,0.090927124,9.052048,-0.11004639,-0.9761505,0.718338,217.0,0.2458876,-0.68620116,9.779522,-0.6085439,-0.5818722,0.48346424,-0.007822157,-0.03635869,0.8487926,2017-01-02 10:40:55,73.83957867908248
7.187805,-0.92396545,5.701233,0.12490845,-0.08123779,0.11439514,351.0,7.0590224,-0.07050423,6.807027,0.73735666,-1.326766,-0.4811902,-0.39002758,-0.028578058,-0.91718143,2017-01-02 10:40:56,69.93869710867581
7.1378174,-0.58340454,5.828064,0.0017242432,-0.670105,-0.13847351,337.0,7.315014,-0.19528535,6.528616,0.59731007,-0.26579022,-0.31691647,0.40836364,-0.019297225,0.912423,2017-01-02 10:40:57,47.91557849670394
7.4496155,-0.4134369,5.5057373,0.003967285,0.0016479492,7.9345703E-4,374.0,7.822999,-0.4050864,5.8997436,0.06493616,-0.036102086,-0.034972668,0.4427148,-0.056571886,0.89233625,2017-01-02 10:40:58,70.46744149582791
7.4475403,-0.42440796,5.5321655,9.1552734E-5,0.0010375977,-0.0018615723,161.0,7.860245,-0.43921062,5.8475657,0.013404846,-0.009007275,0.0016007423,0.44213623,-0.07982902,0.8866598,2017-01-02 10:40:59,48.89607620576462
7.454834,-0.44984436,5.5298157,-0.0011291504,0.0014343262,1.8310547E-4,166.0,7.8582125,-0.43690565,5.85047,-0.022648811,0.011350721,0.017594814,0.44054413,-0.08734946,0.88470507,2017-01-02 10:41:00,45.141258704503514
7.446457,-0.4091797,5.540573,5.0354004E-4,0.0014343262,9.918213E-4,166.0,7.8600645,-0.45625556,5.8465033,0.0128183365,-0.013287574,-0.007856846,0.44060448,-0.08819853,0.8846694,2017-01-02 10:41:01,43.983121481311535
7.4608154,-0.41036987,5.4999084,9.1552734E-4,-6.1035156E-4,0.0024261475,166.0,7.863386,-0.45077977,5.84246,-0.0061421394,-5.0988793E-4,5.6123734E-4,0.44083795,-0.08820047,0.88447785,2017-01-02 10:41:02,70.06897691277766
7.4440765,-0.43429565,5.5166473,-0.002090454,5.187988E-4,-5.950928E-4,171.0,7.864219,-0.4532406,5.8411484,-7.843971E-4,-0.009085983,-0.010653973,0.44088465,-0.08834616,0.88444185,2017-01-02 10:41:03,71.60782711692656
7.430908,-0.4247284,5.52861,-0.0029144287,-0.0031585693,-3.8146973E-4,171.0,7.8658233,-0.4550576,5.838847,0.0018291473,-0.006000906,-0.007148266,0.44098362,-0.08851612,0.88436323,2017-01-02 10:41:04,71.66507097274716
7.4404755,-0.43429565,5.5453644,-0.0035247803,9.3078613E-4,-0.0018157959,171.0,7.8582826,-0.4614304,5.8484926,5.2452087E-5,0.0025984645,0.007861614,0.4404725,-0.088282734,0.88477874,2017-01-02 10:41:05,71.83071018092467
7.446457,-0.4558258,5.5345917,-0.001083374,0.0015411377,0.0018463135,175.0,7.8587394,-0.452066,5.8486094,-0.0032200813,0.020856619,-3.95298E-4,0.44053105,-0.087956294,0.88472587,2017-01-02 10:41:06,45.96126102669683
7.4440765,-0.42233276,5.5034943,3.5095215E-4,0.0011138916,0.0016479492,180.0,7.866102,-0.44806877,5.8390126,0.013203144,0.0015572906,0.0070786476,0.44102353,-0.08826938,0.88432634,2017-01-02 10:41:07,69.97881361591472
7.4321136,-0.43669128,5.50589,5.493164E-4,-0.0015258789,0.0016479492,175.0,7.868585,-0.45143238,5.8354063,-0.0023694038,0.0044685304,-0.023087502,0.441175,-0.08855341,0.8842063,2017-01-02 10:41:08,70.76316403320324
7.442871,-0.43190002,5.519043,9.613037E-4,-0.0011138916,-7.9345703E-4,175.0,7.868374,-0.4478326,5.8359675,0.011061668,0.0061246753,-0.02113247,0.4411725,-0.088404074,0.8842059,2017-01-02 10:41:09,44.287876354080815
7.450058,-0.4355011,5.497513,-0.0012817383,-0.002746582,-9.918213E-4,180.0,7.866182,-0.4528197,5.8385377,-4.582405E-4,0.015781939,-0.005329132,0.44101393,-0.08845409,0.88433725,2017-01-02 10:41:10,46.25803241904321
7.4476624,-0.43190002,5.5166473,-2.593994E-4,-5.0354004E-4,-0.0011901855,180.0,7.8664246,-0.4557025,5.837987,-0.014925003,-0.007888079,-0.0014424324,0.44102082,-0.08857847,0.8843336,2017-01-02 10:41:11,61.896529606084314
7.441681,-0.4402771,5.5417786,-6.713867E-4,-7.019043E-4,-7.9345703E-4,180.0,7.8678374,-0.45283386,5.8363047,-0.0046277046,-5.874038E-4,0.007742405,0.4411219,-0.08855919,0.8842501,2017-01-02 10:41:12,44.940699076179804
7.433304,-0.43669128,5.5166473,0.002380371,-0.0015258789,-9.918213E-4,180.0,7.8663216,-0.44535634,5.8389235,0.0023965836,0.007494092,7.376671E-4,0.44104636,-0.0881808,0.884306,2017-01-02 10:41:13,49.8455229955926
7.4656067,-0.4402771,5.5369873,7.4768066E-4,0.0011291504,-0.0014038086,180.0,7.862807,-0.4431256,5.8438253,0.004292488,0.019755155,0.023431778,0.44082412,-0.087874494,0.8844838,2017-01-02 10:41:14,72.72066607712605
7.4356995,-0.43310547,5.522629,-0.0010681152,-2.89917E-4,-7.9345703E-4,180.0,7.863651,-0.44703975,5.842391,-0.0052194595,-0.010097563,-0.0056886673,0.4408669,-0.08807573,0.884452,2017-01-02 10:41:15,63.82181980457297
7.4452667,-0.43190002,5.5322113,0.0021820068,-0.0011138916,3.0517578E-5,180.0,7.867641,-0.45114046,5.8367014,-0.0065550804,-0.0012920797,0.019507885,0.44111434,-0.08848273,0.8842551,2017-01-02 10:41:16,72.39441103983091
7.4249268,-0.41635132,5.5417786,0.001373291,0.0013275146,-5.950928E-4,180.0,7.86745,-0.45167896,5.8369174,7.8582764E-4,-0.010623187,-0.00468874,0.4411002,-0.08849102,0.88426685,2017-01-02 10:41:17,71.39731962979472
7.4476624,-0.43310547,5.52742,0.001159668,3.2043457E-4,0.001449585,180.0,7.8654385,-0.4496877,5.8397818,-0.0041093826,0.006879449,0.009672642,0.4409752,-0.08828868,0.88436645,2017-01-02 10:41:18,70.08149240036884
7.426132,-0.4510498,5.517853,0.0015716553,0.003967285,0.002456665,185.0,7.8666077,-0.4517463,5.8380475,-0.0020279884,-0.0056444407,0.003218174,0.44104505,-0.08844036,0.88431144,2017-01-02 10:41:19,71.52911620832104
7.4440765,-0.43190002,5.510666,0.0029907227,0.0015411377,1.5258789E-5,194.0,7.8677444,-0.44949278,5.8366895,-0.004565239,-0.0042291284,0.015969276,0.4411262,-0.08842698,0.8842444,2017-01-02 10:41:20,66.49904950907236
7.450058,-0.42712402,5.5345917,0.0023956299,-0.0023345947,0.0020599365,189.0,7.865305,-0.4500825,5.8399305,-0.0022001266,0.008220345,6.6041946E-4,0.44096527,-0.0882952,0.88437474,2017-01-02 10:41:21,67.00875843592128
7.4440765,-0.43669128,5.535797,0.002380371,-0.0015258789,0.002243042,194.0,7.8673263,-0.45008346,5.8372073,-0.0011014938,-0.008568972,-0.0010719299,0.4410971,-0.08842289,0.8842683,2017-01-02 10:41:22,70.46135951492391
7.433304,-0.43070984,5.5094757,3.5095215E-4,-0.0023345947,2.2888184E-4,194.0,7.8645625,-0.45390123,5.840635,-0.009480476,-9.0253353E-4,-0.015300274,0.44090497,-0.088392824,0.8844259,2017-01-02 10:41:23,44.76167172382962
7.4249268,-0.41993713,5.52861,0.0017700195,-5.0354004E-4,-7.9345703E-4,194.0,7.8674936,-0.44849506,5.8371043,0.0076465607,6.711185E-4,0.0017986298,0.44111297,-0.08837343,0.8842544,2017-01-02 10:41:24,52.05744893060985
7.4404755,-0.43070984,5.5322113,-0.0014801025,3.0517578E-4,-3.9672852E-4,194.0,7.8638315,-0.44628924,5.8422055,-0.009461403,0.014011592,-0.00741148,0.440881,-0.088058755,0.8844401,2017-01-02 10:41:25,69.5749159376095
