ACC_X,ACC_Y,ACC_Z,GYRO_X,GYRO_Y,GYRO_Z,LIGH_1,GRAV_X,GRAV_Y,GRAV_Z,LINACC_X,LINACC_Y,LINACC_Z,ROTVEC_X,ROTVEC_Y,ROTVEC_Z,TIME,VOICE
8.250009,1.346696,5.8592043,0.30001354,-0.36613947,0.22819877,0.0,6.194433,3.696554,6.643409,-1.8941146,2.255374,0.5163006,0.32871503,-0.23070948,0.37410146,2016-11-25 20:00:41,45.929726926059956
8.672196,1.277328,5.293496,0.05316954,-0.02397947,0.04734277,0.0,7.002078,3.7390902,5.7585173,-1.7179583,2.430666,0.5224293,0.36792013,-0.26651862,0.39022133,2016-11-25 20:00:42,40.395992575337445
8.361237,1.648088,5.305456,0.065389544,-0.11929546,0.14510277,0.0,7.140891,3.8171008,5.532432,-1.2024049,2.1044288,0.1755477,0.3800674,-0.2710595,0.39290425,2016-11-25 20:00:43,21.150251301570393
8.851596,1.320384,5.02918,0.023841541,0.032232538,0.010682769,0.0,7.359783,3.5798693,5.4026413,-1.487029,2.2547014,0.3495412,0.3807075,-0.28214142,0.40687817,2016-11-25 20:00:44,49.76373011413322
8.549008,0.748696,5.4418,0.11182554,0.01512453,0.022902764,0.0,7.178609,3.0099936,5.964723,-1.2603678,2.2469454,0.3662474,0.34075806,-0.28243187,0.41542962,2016-11-25 20:00:45,44.37830750434123
-2.554656,-0.875472,10.101417,0.18758954,-0.66186345,1.3646587,0.0,-2.308939,1.5238669,9.408349,0.8449128,2.8059788,-0.5244319,-0.029475067,0.13942368,0.7042881,2016-11-25 20:00:46,51.908702646637195
-0.13275601,-0.953212,10.079888,0.015782187,0.016960114,0.014924824,0.0,1.6077819,1.0281707,9.6191635,1.7405379,2.0124788,-0.48105684,0.09602735,-0.018383443,0.72265995,2016-11-25 20:00:47,35.773524251723515
-0.15548,-0.973544,10.071516,0.012196798,0.0065009147,0.011589713,0.0,1.6244487,0.7144253,9.644749,1.7847126,1.6628535,-0.4148077,0.08556974,-0.030537954,0.72380793,2016-11-25 20:00:48,35.17405842480328
-0.159068,-0.94842803,10.081084,0.013057807,0.0058085322,0.007977121,0.0,1.4525818,0.5355895,9.683675,1.6164337,1.4911935,-0.3758815,0.072966285,-0.03075665,0.72791666,2016-11-25 20:00:49,19.487223453943756
-0.153088,-0.957996,10.076301,0.014005978,0.005173266,0.009383783,0.0,1.2630712,0.30371037,9.720226,1.4281191,1.2557263,-0.3572703,0.057921965,-0.032425888,0.7325692,2016-11-25 20:00:50,45.510771284067005
-0.196144,-0.91374403,10.048792,0.014319163,0.0014316738,0.005842261,0.0,1.0774608,0.12340459,9.7465,1.2592528,1.0347567,-0.29990005,0.04490951,-0.0324038,0.7379616,2016-11-25 20:00:51,20.9684554263587
-0.160264,-0.95680004,10.060752,0.013756771,0.0039400607,0.0076521263,0.0,0.98259175,-0.10859299,9.756695,1.1428558,0.84820706,-0.30405718,0.033695552,-0.03757107,0.74445456,2016-11-25 20:00:52,58.31334504730577
-0.163852,-0.94364405,10.075104,0.01264463,0.0034838766,0.009305038,0.0,0.87801796,-0.27659342,9.76335,1.031106,0.6825986,-0.304578,0.024374282,-0.040170636,0.7508203,2016-11-25 20:00:53,42.376771864576945
-0.151892,-0.94842803,10.071516,0.011587989,0.005470544,0.006144315,0.0,0.79629886,-0.41972142,9.765253,0.9625429,0.5227266,-0.2954992,0.016850695,-0.042741284,0.7574482,2016-11-25 20:00:54,30.014091684058762
-0.18538,-0.93766403,10.05836,0.007956024,0.0023773015,0.005507946,0.0,0.718465,-0.5261998,9.766131,0.89906096,0.3947202,-0.2718962,0.010795366,-0.044151746,0.7647868,2016-11-25 20:00:55,44.705952449435614
-0.178204,-0.95440805,10.071516,0.0072202533,0.0020488352,0.0049285144,0.0,0.6760619,-0.61558396,9.763933,0.8458939,0.30533606,-0.27648705,0.006647211,-0.046192996,0.77087176,2016-11-25 20:00:56,44.66061980119019
-0.163852,-0.949624,10.059556,0.006753333,0.004370466,0.004495509,0.0,0.6612901,-0.7085748,9.758637,0.8251421,0.25181326,-0.31407413,0.0035049948,-0.049352635,0.7766244,2016-11-25 20:00:57,41.26456652292979
-0.177008,-0.95082,10.055968,0.0036472306,0.0016307682,0.004023142,0.0,0.6405926,-0.7718155,9.755219,0.79966056,0.18259251,-0.3079244,0.0011732659,-0.051193755,0.7828908,2016-11-25 20:00:58,43.9204552460305
-0.177008,-0.888628,10.033244,0.010263696,0.0037336498,0.0060544685,0.0,0.6163697,-0.8243412,9.752483,0.78261375,0.109734856,-0.27597734,-9.819301E-4,-0.052542925,0.7884589,2016-11-25 20:00:59,33.64382232302941
-0.178204,-0.95082,10.060752,0.0025342554,-0.0037142783,8.6761266E-4,0.0,0.6047143,-0.88055754,9.7483,0.78172225,0.07624248,-0.3136486,-0.00269417,-0.05447789,0.7941819,2016-11-25 20:01:00,58.9117092696481
-0.17342,-0.940056,10.054772,0.0045292787,0.0010909289,0.0030566752,0.0,0.5955625,-0.926682,9.744585,0.76778644,0.033706017,-0.31616732,-0.0040367525,-0.05610797,0.79901147,2016-11-25 20:01:01,31.285667999715866
-0.15548,-0.94603604,10.060752,0.004102694,9.798557E-4,0.0027254298,0.0,0.57341033,-0.9723048,9.741469,0.7420464,-0.029856794,-0.3192828,-0.005857615,-0.057349984,0.80395263,2016-11-25 20:01:02,50.0404788422826
-0.172224,-0.96278,10.069124,0.003709348,8.227974E-4,0.0024807975,0.0,0.5586607,-1.0108266,9.738404,0.7261007,-0.061202586,-0.31517246,-0.0071994457,-0.058546957,0.80823433,2016-11-25 20:01:03,35.81103601851025
-0.16744,-0.95082,10.052381,8.9226663E-4,6.826818E-4,-1.539141E-4,0.0,0.5462488,-1.0386614,9.736179,0.71727675,-0.086645365,-0.33294484,-0.008167895,-0.059382766,0.8119195,2016-11-25 20:01:04,18.85465027614461
-0.16863601,-0.96158403,10.055968,0.0054032393,0.0029443055,0.0021167994,0.0,0.5323431,-1.062044,9.734427,0.6914111,-0.10404804,-0.33469608,-0.009095782,-0.05999704,0.81521046,2016-11-25 20:01:05,47.984431702757256
-0.1794,-0.923312,10.054772,0.002368519,2.7893484E-4,-6.040931E-4,0.0,0.5225968,-1.0708715,9.733988,0.69721276,-0.12124745,-0.3231769,-0.009393441,-0.06013754,0.818724,2016-11-25 20:01:06,47.526833238834996
-0.15548,-0.949624,10.064341,0.0024636257,3.4965575E-4,0.0017384514,0.0,0.52743024,-1.1098526,9.72936,0.6864982,-0.16142449,-0.3373726,-0.010011432,-0.061971843,0.82156235,2016-11-25 20:01:07,53.924693169023065
-0.166244,-0.965172,10.067928,0.002272023,2.6661158E-4,0.0015796497,0.0,0.5260948,-1.1345743,9.726581,0.69233876,-0.16940227,-0.34134734,-0.010501519,-0.06302519,0.82404894,2016-11-25 20:01:08,55.35917514465928
-0.157872,-0.953212,10.059556,-3.7605874E-4,2.208054E-4,0.0014479756,0.0,0.5163877,-1.1523707,9.725009,0.67306376,-0.19557072,-0.34650692,-0.011144121,-0.063548565,0.8264908,2016-11-25 20:01:09,35.19811720753466
-0.166244,-0.96278,10.055968,0.0018749647,0.0025689006,0.0013625994,0.0,0.5110808,-1.1680623,9.723416,0.6701488,-0.20049824,-0.34331542,-0.011591869,-0.06410461,0.8284292,2016-11-25 20:01:10,53.77658846209649
-0.16744,-0.957996,10.060752,0.001688987,6.4969063E-6,-0.0011686459,0.0,0.5095677,-1.1829908,9.721691,0.67820376,-0.2202108,-0.34264907,-0.011893399,-0.06473251,0.8300086,2016-11-25 20:01:11,52.91299524984752
-0.16146,-0.952016,10.054772,0.0015537627,-5.2839518E-5,0.001192458,0.0,0.50250643,-1.1924763,9.720899,0.6532025,-0.23926425,-0.3434411,-0.01220088,-0.06498644,0.83221805,2016-11-25 20:01:12,31.274085362127657
-0.16863601,-0.966368,10.057164,0.0013925042,-1.4591217E-4,0.0011853129,0.0,0.4933529,-1.2030736,9.720062,0.65959686,-0.24388161,-0.32753333,-0.012693533,-0.06521997,0.8338552,2016-11-25 20:01:13,48.37644321747196
-0.160264,-0.952016,10.066732,0.0012726076,-2.2643805E-4,-0.0013129562,0.0,0.4871497,-1.2141303,9.719001,0.64980567,-0.2501542,-0.34175184,-0.013041798,-0.065565445,0.8357276,2016-11-25 20:01:14,27.612155032797663
-0.16265601,-0.94484,10.075104,0.0011449698,-0.002690643,0.0010925978,0.0,0.48209563,-1.2222465,9.718236,0.6483396,-0.2594665,-0.349692,-0.013244981,-0.065821774,0.8376935,2016-11-25 20:01:16,50.52396827842631
-0.16744,-0.965172,10.057164,0.0010175947,-2.5950372E-4,0.0010328889,0.0,0.47475883,-1.2289481,9.717751,0.63382685,-0.27095205,-0.34300214,-0.013589147,-0.06593897,0.83896995,2016-11-25 20:01:17,44.73604309521881
-0.166244,-0.940056,10.069124,-0.0016690604,0.002116233,-0.0014864132,0.0,0.46744293,-1.2284099,9.718173,0.6372749,-0.26921785,-0.3497545,-0.013688263,-0.06575479,0.8406199,2016-11-25 20:01:18,25.944486638409074
-0.178204,-0.953212,10.047596,7.2109886E-4,-3.299564E-4,-0.0014694929,0.0,0.4596303,-1.2326633,9.718008,0.6222863,-0.2830393,-0.35829264,-0.014011804,-0.06575097,0.84167725,2016-11-25 20:01:19,51.93360179658385
-0.157872,-0.95082,10.069124,5.938634E-4,-4.119873E-4,9.4783306E-4,0.0,0.44267175,-1.2286015,9.719311,0.5969557,-0.27658546,-0.34502983,-0.014518165,-0.065133564,0.8426317,2016-11-25 20:01:20,49.44521125211524
-0.163852,-0.95919204,10.059556,-0.0017604791,-3.9088726E-4,9.220317E-4,0.0,0.4386005,-1.2388598,9.718192,0.6072365,-0.27607986,-0.34734395,-0.014857339,-0.06549353,0.8435664,2016-11-25 20:01:21,57.35280800141716
-0.16863601,-0.95680004,10.059556,6.025564E-4,0.0020649582,-0.0015785098,0.0,0.43220788,-1.240852,9.718224,0.60443187,-0.28166,-0.35090017,-0.0150602935,-0.065434605,0.8446047,2016-11-25 20:01:22,41.619132773258215
-0.16744,-0.957996,10.054772,5.562976E-4,0.0020319074,8.253902E-4,0.0,0.42498586,-1.2451683,9.717991,0.58644587,-0.28597623,-0.32482114,-0.015390176,-0.065448835,0.8454107,2016-11-25 20:01:23,36.26505169723706
-0.172224,-0.92211604,10.0464,-0.0022051241,-4.6272576E-4,7.5396895E-4,0.0,0.4175429,-1.23541,9.719559,0.5766109,-0.32046998,-0.31846857,-0.015389929,-0.06483529,0.84591085,2016-11-25 20:01:24,32.1739474223575
-0.171028,-0.98072004,10.081084,4.47521E-4,-7.5645745E-4,-0.011305459,0.0,0.40268752,-1.2498662,9.718337,0.5761075,-0.3110062,-0.3436112,-0.016399778,-0.06506758,0.84609556,2016-11-25 20:01:25,46.64929865694745
-0.1794,-0.96278,10.055968,3.6067516E-4,0.0062637627,9.396374E-4,0.0,0.4049925,-1.2468048,9.718636,0.5784125,-0.29478878,-0.34690088,-0.016288482,-0.064978935,0.84551877,2016-11-25 20:01:26,68.92781179774703
-0.166244,-0.96278,10.063145,2.7507544E-4,0.0012224466,8.345619E-4,0.0,0.39757478,-1.2438658,9.719318,0.5817588,-0.2715178,-0.3402385,-0.016566562,-0.064639844,0.8452311,2016-11-25 20:01:27,64.71132387704729
-0.175812,-0.95919204,10.0655365,0.0027206317,-0.0011640638,8.56258E-4,0.0,0.39584896,-1.2416987,9.719666,0.580033,-0.26815468,-0.3590274,-0.016598286,-0.064494476,0.84510696,2016-11-25 20:01:28,62.42620107008422
-0.178204,-0.965172,10.072712,2.4108589E-4,0.0013531893,-0.0015592948,0.0,0.39549184,-1.2398463,9.719917,0.5748918,-0.27228227,-0.3444231,-0.016632346,-0.0643864,0.84454334,2016-11-25 20:01:29,54.76153466243271
-0.16744,-0.971152,10.071516,2.4400651E-4,0.0013887733,9.166375E-4,0.0,0.39117885,-1.2366049,9.720505,0.56220686,-0.27262884,-0.35101125,-0.016696472,-0.06413673,0.84483725,2016-11-25 20:01:30,68.74863430283841
-0.212888,-0.963976,10.132512,1.7589517E-4,0.0014341474,-0.0015140474,0.0,0.38102877,-1.2365547,9.720913,0.53650874,-0.26181474,-0.3242916,-0.017156754,-0.06385184,0.8446574,2016-11-25 20:01:31,53.50766228357997
-0.181792,-0.963976,10.083476,-0.0021731388,-9.6805394E-4,-0.0015332922,0.0,0.36786547,-1.2366744,9.721405,0.5317175,-0.27030647,-0.33695525,-0.01769829,-0.063506745,0.84492624,2016-11-25 20:01:32,49.349908465054575
-0.13754,-0.99387604,10.05836,0.019687518,0.0015144646,0.012951754,0.0,0.3655755,-1.2432152,9.720656,0.5198595,-0.15844329,-0.35444707,-0.017989537,-0.06372476,0.8447931,2016-11-25 20:01:33,50.60890917592697
-0.13754,-1.03454,10.066732,0.0012482889,-6.9847703E-4,0.0013845786,0.0,0.35854426,-1.2731262,9.717048,0.52239627,-0.23499826,-0.34490067,-0.019221595,-0.06480023,0.84379,2016-11-25 20:01:34,56.34618078346384
-0.13873601,-1.0189921,10.0464,-0.005961405,-0.012442946,-0.001061447,0.0,0.3688707,-1.2810987,9.715612,0.5135867,-0.25253868,-0.3451403,-0.018994566,-0.06542846,0.84374946,2016-11-25 20:01:35,57.266448201182634
-0.106444,-1.011816,10.079888,0.0035430565,0.002534911,0.0060544237,0.0,0.38729486,-1.2782439,9.715272,0.50569886,-0.2425079,-0.3323241,-0.018118108,-0.06580877,0.84376216,2016-11-25 20:01:36,62.898184162341515
-0.127972,-1.044108,10.072712,0.0010910593,0.002267152,0.0035222694,0.0,0.37078106,-1.2778267,9.715971,0.50114506,-0.23611069,-0.3710931,-0.018769454,-0.065353826,0.84418994,2016-11-25 20:01:37,43.98985686888442
-0.133952,-1.059656,10.078692,0.00350531,-2.1192431E-4,-0.001418367,0.0,0.3601271,-1.2781186,9.716332,0.4904911,-0.23281457,-0.35757542,-0.019268217,-0.06506672,0.84395015,2016-11-25 20:01:38,49.09811149726806
-0.038272,-1.1039081,10.095436,0.0063007344,-8.161366E-4,0.0032209381,0.0,0.4520348,-1.2999185,9.709598,0.4879148,-0.21634243,-0.39421093,-0.015854344,-0.068534665,0.8440975,2016-11-25 20:01:39,52.279719133961024
-0.034684002,-1.0034441,10.0284605,0.008511679,-0.0057362914,0.0055393353,0.0,0.45519206,-1.2975768,9.709763,0.47672006,-0.20443274,-0.3462059,-0.015622213,-0.06852633,0.8443471,2016-11-25 20:01:40,44.62176845696344
0.03588,-1.0668321,10.069124,0.008416137,-0.012009919,0.0073941797,0.0,0.5081253,-1.2994677,9.706884,0.4770293,-0.23024376,-0.35984805,-0.013273364,-0.07007511,0.8451269,2016-11-25 20:01:41,58.03865504374254
0.00598,-1.101516,10.059556,-0.0053097513,0.02840823,-0.0021562949,0.0,0.48152775,-1.3415555,9.702513,0.47076374,-0.2292755,-0.37618017,-0.015614322,-0.07117401,0.84470004,2016-11-25 20:01:42,39.727027629038304
-0.056212,-1.119456,10.07032,0.0016681477,0.0024948716,-0.002215147,0.0,0.4101851,-1.3337219,9.706871,0.4675931,-0.20589389,-0.35388124,-0.018492812,-0.06888684,0.84475976,2016-11-25 20:01:43,29.269420256220343
-0.066976,-1.111084,10.061948,0.0015090648,-6.018579E-5,3.2831728E-4,0.0,0.40072337,-1.3197218,9.709179,0.46291536,-0.20146184,-0.3575532,-0.018452233,-0.06803822,0.84534395,2016-11-25 20:01:44,37.714997066130756
-0.06578,-1.1039081,10.063145,0.001386771,-1.4804304E-4,-0.0020341203,0.0,0.39485198,-1.3156598,9.70997,0.46182802,-0.19979177,-0.34480187,-0.018605355,-0.067698985,0.84528756,2016-11-25 20:01:45,52.725122277849515
-0.072956,-1.105104,10.048792,-0.0035356209,0.006973177,-0.004329942,0.0,0.3747719,-1.3165307,9.7106495,0.4489239,-0.22099465,-0.32379007,-0.019602764,-0.06716018,0.8444779,2016-11-25 20:01:46,61.40722510989221
-0.027508,-1.230684,9.92082,0.2523836,-0.14914529,0.023090549,0.0,0.4169503,-1.2786136,9.713995,0.4289103,-0.2416816,-0.3934008,-0.016997721,-0.06659734,0.8425279,2016-11-25 20:01:47,50.35727545088598
0.040664002,-0.98072004,10.069124,0.0010976512,-0.0051302165,-0.0013157278,0.0,0.47743914,-1.1852335,9.723049,0.44036314,-0.20570947,-0.35683894,-0.011880165,-0.06419805,0.84229356,2016-11-25 20:01:48,61.589988671644875
0.038272,-0.975936,10.075104,0.0010428354,-3.0188262E-4,-0.0013369247,0.0,0.47166628,-1.1779784,9.724213,0.4393743,-0.19127837,-0.35687166,-0.012024481,-0.06370733,0.8415244,2016-11-25 20:01:49,46.280236777430524
0.03588,-0.98072004,10.081084,0.0033647344,-3.156662E-4,0.0011323467,0.0,0.4698077,-1.171263,9.725113,0.43512374,-0.18934695,-0.35716742,-0.012034775,-0.06334376,0.8405698,2016-11-25 20:01:50,50.7211237041853
0.033488,-0.981916,10.081084,-0.0013929475,0.002063021,-0.0012643039,0.0,0.46911383,-1.175957,9.724581,0.4284498,-0.16414098,-0.36248308,-0.012272146,-0.0635125,0.8398966,2016-11-25 20:01:51,50.256453132152
0.03588,-1.015404,10.060752,0.0038422216,-0.002994284,-0.0012613013,0.0,0.457898,-1.203465,9.721749,0.43756598,-0.16055296,-0.3617267,-0.0135767525,-0.06437752,0.83931345,2016-11-25 20:01:52,48.822201964163725
0.059800003,-0.93766403,10.093044,0.0037907958,-0.002963528,0.0011949167,0.0,0.7060942,-1.2180319,9.705063,0.64509815,-0.2887398,-0.38200143,-0.003933446,-0.07186176,0.83427083,2016-11-25 20:01:53,40.36449661700715
0.105248004,-0.96278,10.089457,0.030959133,-0.07390016,-0.07684882,0.0,0.65856385,-1.1912745,9.711723,0.6442119,-0.16749841,-0.38969314,-0.0053477446,-0.06936415,0.833367,2016-11-25 20:01:54,39.873187175413335
0.117208004,-0.918528,10.08228,-0.0033167303,0.0066280216,0.0061179698,0.0,0.6435151,-1.1228809,9.720875,0.52869916,-0.21631293,-0.36140522,-0.00453908,-0.065975025,0.82962567,2016-11-25 20:01:55,46.67274559640773
0.107640006,-0.93886,10.1026125,-6.7732297E-4,0.003891915,0.0011279881,0.0,0.58338225,-1.1185083,9.725173,0.48291826,-0.18921632,-0.36428398,-0.007003876,-0.064071216,0.8294143,2016-11-25 20:01:57,41.32824871773553
0.080132,-0.947232,10.072712,-0.0055182017,0.0036256015,0.003248483,0.0,0.5235204,-1.1104867,9.729499,0.4433884,-0.16325477,-0.3503893,-0.009380433,-0.06201345,0.8289378,2016-11-25 20:01:58,39.51900696041162
0.082524,-0.96158403,10.075104,0.0017302204,-0.001235947,-0.0016188249,0.0,0.4951667,-1.1040866,9.731711,0.4162307,-0.14250264,-0.34578502,-0.010482656,-0.06091774,0.82823753,2016-11-25 20:01:59,40.7843139868869
0.074152,-0.947232,10.075104,-8.5729733E-4,0.0012204647,8.658543E-4,0.0,0.47178385,-1.091519,9.73429,0.38925985,-0.1299349,-0.34081367,-0.011163469,-0.059705436,0.82783854,2016-11-25 20:02:00,38.61154816054239
0.027508,-1.0082281,10.069124,-0.01027341,0.005723253,0.0031017438,0.0,0.40841466,-1.1399053,9.731609,0.38090664,-0.12928535,-0.33273092,-0.015022983,-0.060003154,0.8297014,2016-11-25 20:02:01,39.757775607613
-0.01794,-1.041716,10.055968,-0.00498992,1.8246472E-4,4.6087056E-4,0.0,0.3510059,-1.1632864,9.731082,0.37372994,-0.1383144,-0.3344541,-0.018104121,-0.05937315,0.82988524,2016-11-25 20:02:02,43.5838276486499
-0.02392,-1.0560681,10.060752,0.0022273362,-0.0022176504,-0.0019680634,0.0,0.33043858,-1.1577576,9.732463,0.3627306,-0.118433565,-0.32828972,-0.018836446,-0.058547314,0.8297604,2016-11-25 20:02:03,36.278277369711596
-0.027508,-1.02856,10.047596,0.004236102,-0.0044765323,4.7825277E-4,0.0,0.32387388,-1.1451193,9.734178,0.34779385,-0.09144334,-0.33614218,-0.018730162,-0.057829943,0.83004075,2016-11-25 20:02:04,31.961983216418112
-0.13754,-1.030952,10.036832,-0.002697453,-0.0035161525,-0.005173698,0.0,0.23426808,-1.1673445,9.734106,0.35984808,-0.1579205,-0.30990183,-0.023017937,-0.056293115,0.8315046,2016-11-25 20:02:05,34.55669836676196
-0.060996,-0.96876,10.061948,-0.024626331,0.009707466,-0.004607424,0.0,0.29103607,-1.1162081,9.738571,0.33170012,-0.21442412,-0.3317489,-0.01908571,-0.055738747,0.83228695,2016-11-25 20:02:06,37.577340775651074
-0.081328005,-1.038128,10.07032,-0.0027461275,7.018447E-6,-0.001993157,0.0,0.2646914,-1.1325388,9.737438,0.3149234,-0.123114854,-0.3125497,-0.020625232,-0.055708908,0.83269256,2016-11-25 20:02:07,39.442505031451944
-0.069368005,-1.036932,10.05836,-6.257072E-4,1.9432604E-4,6.060973E-4,0.0,0.24114338,-1.1242951,9.739004,0.30333537,-0.07659904,-0.3205518,-0.021342527,-0.05471283,0.8332581,2016-11-25 20:02:08,35.659972706916456
-0.064584,-1.044108,10.072712,0.001642853,3.0265749E-4,-0.0016540214,0.0,0.220248,-1.1237307,9.739565,0.284832,-0.07603468,-0.33434302,-0.022181025,-0.054115087,0.8336367,2016-11-25 20:02:09,41.56239116811931
-0.066976,-1.044108,10.07032,-0.0034136623,-0.0019751042,-0.0014991313,0.0,0.20632403,-1.1190493,9.740407,0.26971203,-0.07494134,-0.32512861,-0.02257767,-0.053550567,0.83432275,2016-11-25 20:02:10,35.670533753979484
-0.06578,-1.053676,10.047596,0.0013437197,-0.001874119,-0.0014192536,0.0,0.18026085,-1.1144964,9.741447,0.23408085,-0.07517229,-0.30256024,-0.02352241,-0.0526415,0.834755,2016-11-25 20:02:11,35.68684374546656
-0.068172,-1.053676,10.060752,0.0012163967,-0.0017531365,0.003529951,0.0,0.15861349,-1.1090862,9.742441,0.21721749,-0.056606196,-0.32668227,-0.024281953,-0.051808704,0.8349103,2016-11-25 20:02:12,34.796059545110104
-0.062192,-1.054872,10.055968,-0.0013332404,7.894337E-4,0.0011539236,0.0,0.14351982,-1.1044117,9.743206,0.21288782,-0.05671565,-0.31993806,-0.024742158,-0.051211078,0.8354933,2016-11-25 20:02:13,23.94718381378537
-0.07176,-1.047696,10.055968,0.0010204166,-0.0015627295,-0.0012313724,0.0,0.11987196,-1.1014472,9.743861,0.18206395,-0.039399114,-0.30851942,-0.025683505,-0.05041528,0.8353552,2016-11-25 20:02:14,36.27993174574036
-0.07176,-1.0453041,10.060752,-0.0015348606,-0.001452446,-0.0011651814,0.0,0.08471005,-1.0822209,9.746387,0.15049005,-0.033328928,-0.31197396,-0.026652027,-0.04860418,0.8353466,2016-11-25 20:02:15,26.542724510250977
-0.066976,-1.048892,10.05836,8.5518137E-4,-0.0014150739,-0.0011319444,0.0,0.047640435,-1.0675658,9.748253,0.10624444,-0.01747779,-0.31249943,-0.027825532,-0.04693833,0.83537406,2016-11-25 20:02:16,35.347107238412164
-0.07176,-1.041716,10.061948,8.378178E-4,-0.0013679415,-0.0011018366,0.0,0.033459533,-1.0598724,9.74915,0.09206353,-2.1641923E-4,-0.31040627,-0.028186468,-0.04622967,0.8357365,2016-11-25 20:02:17,44.868642577448256
-0.072956,-1.05846,10.085868,7.7948533E-4,-0.001323685,-0.0010569021,0.0,0.014772439,-1.0598222,9.749201,0.09370844,-0.01571414,-0.30317983,-0.02904983,-0.04566324,0.83494496,2016-11-25 20:02:18,39.73606299282532
-0.069368005,-1.0560681,10.072712,-0.0016267579,0.0011432022,-9.869486E-4,0.0,0.0010028569,-1.0621909,9.748957,0.059606858,-0.0013387743,-0.3094038,-0.02969931,-0.04538227,0.8349994,2016-11-25 20:02:19,44.159131983457804
-0.074152,-1.0620481,10.055968,0.0031742658,-0.0012702048,0.0015332922,0.0,-0.015930487,-1.0543056,9.7498,0.060613513,0.0053504943,-0.30856094,-0.030109083,-0.04463254,0.8361428,2016-11-25 20:02:20,45.55592575541414
-0.068172,-1.074008,10.055968,0.003076978,0.0012028962,-8.568838E-4,0.0,-0.041900832,-1.0446118,9.750765,0.022683172,0.012652196,-0.30759528,-0.030860128,-0.0435546,0.8372653,2016-11-25 20:02:21,39.1023585785598
-0.086112,-1.071616,10.051185,5.3287856E-4,-0.0011549592,-8.295998E-4,0.0,-0.04315379,-1.0458896,9.750623,0.026214214,0.011374431,-0.31132513,-0.030933341,-0.043586016,0.83746314,2016-11-25 20:02:22,39.56194327033913
-0.068172,-1.0728121,10.055968,5.2126125E-4,-0.0011330843,-8.2068145E-4,0.0,-0.04830098,-1.0474994,9.750427,0.02585102,0.013352673,-0.29956046,-0.031190174,-0.043518126,0.8375652,2016-11-25 20:02:23,25.118037504272156
-0.064584,-1.0728121,10.054772,4.314836E-4,-0.0010740906,-7.7341497E-4,0.0,-0.04673435,-1.043986,9.750809,0.025025647,0.027630132,-0.30037588,-0.030940427,-0.043471176,0.8386315,2016-11-25 20:02:24,23.959386676604055
-0.064584,-1.075204,10.064341,4.426092E-4,-0.0010360479,-7.2901696E-4,0.0,-0.054441128,-1.0423305,9.750949,0.016122872,0.022109468,-0.31458735,-0.03118551,-0.043214884,0.8391285,2016-11-25 20:02:25,34.262983571104
-0.06578,-1.0775961,10.075104,3.9357692E-4,-0.0010539442,0.0017863959,0.0,-0.05063008,-1.042751,9.750923,0.017541917,0.02168905,-0.31580842,-0.031025095,-0.043344557,0.83923477,2016-11-25 20:02:26,39.64555351347772
-0.074152,-1.060852,10.053576,-0.0020800363,0.0014433414,-6.1152875E-4,0.0,-0.0541622,-1.0404315,9.751152,0.017597798,0.018028555,-0.30481648,-0.031010134,-0.043220527,0.84051764,2016-11-25 20:02:27,42.454676754824526
-0.063388005,-1.0620481,10.063145,3.1712838E-4,-9.845793E-4,-5.524829E-4,0.0,-0.057677917,-1.042626,9.750897,0.017670088,0.028990021,-0.31942192,-0.031150496,-0.043269716,0.84140164,2016-11-25 20:02:29,41.645378586377035
-0.069368005,-1.065636,10.059556,2.731923E-4,0.0014597476,-5.403608E-4,0.0,-0.058308106,-1.041605,9.751003,0.020627897,0.01565905,-0.31214055,-0.03115087,-0.043207314,0.8413862,2016-11-25 20:02:30,43.18128762115762
-0.06578,-1.060852,10.060752,0.0027047135,0.0014683902,0.0019235387,0.0,-0.060639326,-1.0434554,9.750792,0.0027486822,0.02337671,-0.31115678,-0.03126077,-0.043253027,0.8418967,2016-11-25 20:02:31,36.43433590860098
-0.075348005,-1.075204,10.048792,2.2790395E-4,-9.576529E-4,-4.707873E-4,0.0,-0.05902513,-1.0436499,9.750781,0.0031668711,0.026770154,-0.30877545,-0.031144537,-0.043343224,0.84254164,2016-11-25 20:02:32,44.699624115230534
-0.074152,-1.071616,10.049988,2.1336041E-4,-9.242594E-4,0.0019639283,0.0,-0.060809165,-1.044098,9.750721,0.007362834,0.02871398,-0.31840253,-0.03125616,-0.043297518,0.8422625,2016-11-25 20:02:33,39.77699854159918
-0.074152,-1.0668321,10.051185,2.147723E-4,-9.048283E-4,-4.8169494E-4,0.0,-0.059614364,-1.0458493,9.75054,0.014537635,0.022178587,-0.31380057,-0.031247387,-0.043409865,0.8423265,2016-11-25 20:02:34,39.62180639507116
-0.070564,-1.07042,10.064341,-0.0022349376,-8.4239244E-4,0.0019255504,0.0,-0.059259158,-1.0397724,9.751193,-6.551577E-4,0.033039663,-0.3095593,-0.031032143,-0.04318073,0.8427476,2016-11-25 20:02:35,33.55016710219151
-0.066976,-1.07042,10.059556,1.8323958E-4,-7.955283E-4,-5.3874403E-4,0.0,-0.06232885,-1.0430934,9.750819,0.015411148,0.009386545,-0.3147171,-0.031243166,-0.043249212,0.8428945,2016-11-25 20:02:36,41.6700614739996
-0.070564,-1.065636,10.069124,1.7549843E-4,-8.139461E-4,-4.7659874E-4,0.0,-0.06476397,-1.0377916,9.751369,0.004604037,0.045784503,-0.30101183,-0.031134702,-0.04300263,0.8437503,2016-11-25 20:02:37,46.27103395719559
-0.063388005,-1.07042,10.059556,1.7222762E-4,-7.458329E-4,-0.002880372,0.0,-0.060883474,-1.0387414,9.751291,0.010876528,0.03526669,-0.3130489,-0.030982533,-0.04315738,0.84388167,2016-11-25 20:02:38,43.68036484564867
-0.068172,-1.059656,10.061948,0.0026419293,-7.163882E-4,-3.985837E-4,0.0,-0.062384233,-1.0400226,9.751145,0.004591771,0.025613457,-0.31797817,-0.031143012,-0.043128144,0.84312755,2016-11-25 20:02:39,36.582984886648035
-0.063388005,-1.0620481,10.05836,1.474116E-4,0.0017523617,-3.9617717E-4,0.0,-0.06358915,-1.0396376,9.751179,0.0021908474,0.02241057,-0.31914076,-0.03119212,-0.04307295,0.8430323,2016-11-25 20:02:40,38.827040413157135
-0.07176,-1.078792,10.048792,1.5575066E-4,0.0017590225,-0.0028011873,0.0,-0.06412048,-1.0400447,9.751133,0.0052475226,0.018415362,-0.31081486,-0.031226084,-0.043076087,0.8430328,2016-11-25 20:02:41,36.47369119268251
-0.070564,-1.0775961,10.067928,1.307223E-4,-6.8441033E-4,-3.0382723E-4,0.0,-0.06726868,-1.040744,9.751037,0.0032953199,0.036852133,-0.31689152,-0.031406414,-0.043001637,0.8427143,2016-11-25 20:02:42,33.73217223056946
-0.068172,-1.074008,10.05836,1.0818057E-4,-6.5764785E-4,0.0021740198,0.0,-0.07020671,-1.038713,9.751233,0.005141299,0.028119083,-0.31071547,-0.03145452,-0.042850107,0.84300226,2016-11-25 20:02:43,38.68011361849887
-0.064584,-1.0620481,10.059556,1.1506118E-4,0.0018253177,0.0021718517,0.0,-0.064862095,-1.0386883,9.751274,0.0045059104,0.037711747,-0.30947864,-0.031175988,-0.043029692,0.8435932,2016-11-25 20:02:44,35.80824779306121
-0.068172,-1.05846,10.0655365,-0.0023089014,-5.9095025E-4,-0.002668582,0.0,-0.0642303,-1.041107,9.751019,0.003941701,0.017352995,-0.3145172,-0.031211251,-0.043154288,0.84363437,2016-11-25 20:02:45,31.94907385626862
-0.066976,-1.071616,10.061948,1.4974736E-4,-5.761981E-4,-2.1730363E-4,0.0,-0.06657642,-1.0406934,9.751048,0.0063795815,0.023746567,-0.3156839,-0.031358346,-0.043030687,0.84292424,2016-11-25 20:02:46,26.296902610443485
-0.069368005,-1.071616,10.061948,1.3018586E-4,-5.5262446E-4,-0.0026543885,0.0,-0.0694716,-1.042215,9.750865,-0.0072795944,0.03298903,-0.3170634,-0.03157926,-0.042977344,0.8422431,2016-11-25 20:02:47,38.392812892305386
-0.075348005,-1.078792,10.044008,1.3646297E-4,0.0018742085,-2.1301955E-4,0.0,-0.06841971,-1.0427524,9.750814,0.0021442866,0.028863618,-0.3063497,-0.03160738,-0.04298634,0.8415098,2016-11-25 20:02:48,30.28914618871054
-0.060996,-1.060852,10.064341,0.0025443975,0.0018483549,-0.002594687,0.0,-0.06781265,-1.0376403,9.751364,-0.006816649,0.02321173,-0.31297642,-0.03148586,-0.042748947,0.84094834,2016-11-25 20:02:49,42.72147270492778
-0.070564,-1.079988,10.055968,7.7793375E-5,0.0018525124,-8.172542E-5,0.0,-0.06776538,-1.0384685,9.751277,0.0027986222,0.04151954,-0.3046914,-0.03151548,-0.042779487,0.840836,2016-11-25 20:02:50,34.37209865818942
-0.064584,-1.078792,10.064341,3.8692728E-5,0.0018374324,-6.7949295E-6,0.0,-0.06615012,-1.0377421,9.751365,-0.0027621172,0.032677915,-0.31058338,-0.031428896,-0.04279049,0.8408009,2016-11-25 20:02:51,44.670925750060164
-0.084916,-1.079988,10.063145,1.6169623E-5,-5.571842E-4,1.5422702E-5,0.0,-0.06467139,-1.043313,9.75078,0.0058926065,0.023519043,-0.31236383,-0.031590447,-0.043019164,0.8398961,2016-11-25 20:02:52,26.882607494845153
-0.072956,-1.069224,10.069124,3.2538548E-5,-5.816221E-4,-0.0024018437,0.0,-0.06877923,-1.0398138,9.751125,-0.0053912234,0.040174264,-0.31201896,-0.03164294,-0.042775057,0.84024435,2016-11-25 20:02:53,45.456765803317
-0.080132,-1.0620481,10.072712,2.0895153E-5,-5.9099495E-4,-0.0048351586,0.0,-0.0685684,-1.0405645,9.751049,0.011563596,0.021483518,-0.321663,-0.031598397,-0.042854752,0.8409507,2016-11-25 20:02:54,40.76123981136156
-0.06578,-1.07042,10.064341,0.0025441106,0.0017976016,-0.0024014488,0.0,-0.06852971,-1.0413543,9.750963,0.0056222877,0.033849664,-0.31098554,-0.031632356,-0.04287969,0.84077543,2016-11-25 20:02:55,27.024195968153542
-0.078936,-1.065636,10.072712,0.0025161393,0.0017794967,7.8924E-5,0.0,-0.06525493,-1.0415142,9.750969,-0.0030629267,0.02531791,-0.30739188,-0.03144845,-0.043011554,0.8413706,2016-11-25 20:02:56,33.248886581815796
-0.082524,-1.065636,10.064341,5.1498413E-5,-6.982237E-4,8.907914E-5,0.0,-0.06772271,-1.0417433,9.750928,0.014801291,0.0430287,-0.31102058,-0.03159553,-0.04292816,0.84093624,2016-11-25 20:02:57,27.514069214665298
-0.068172,-1.065636,10.061948,3.24212E-5,-0.0031423867,1.2974441E-4,0.0,-0.069603994,-1.0418628,9.750902,-0.00980399,0.028557256,-0.3098504,-0.031665087,-0.042892348,0.8411196,2016-11-25 20:02:58,42.340234369493174
-0.08372,-1.068028,10.057164,2.0030886E-5,0.0017288625,1.4968961E-4,0.0,-0.06913144,-1.0383803,9.751276,0.0038245632,0.03323577,-0.31426,-0.0316037,-0.042714473,0.84043324,2016-11-25 20:02:59,39.23679505717489
-0.07176,-1.0764,10.076301,4.0547922E-5,0.0017303526,1.7653406E-4,0.0,-0.07124569,-1.0409557,9.750987,0.01725831,0.03424838,-0.3001976,-0.03177566,-0.042759825,0.8403027,2016-11-25 20:03:00,43.292622007385816
-0.07176,-1.0775961,10.061948,3.6837533E-5,0.0017382056,-0.0022293627,0.0,-0.069599606,-1.0447977,9.750587,-0.0026236037,0.02323036,-0.31853637,-0.031813525,-0.042969055,0.84026545,2016-11-25 20:03:01,39.707664299938784
-0.070564,-1.065636,10.067928,1.5158206E-5,-7.22453E-4,-0.0022286102,0.0,-0.06830091,-1.041337,9.750967,0.013027093,0.032670975,-0.30739304,-0.031647265,-0.042866636,0.84045845,2016-11-25 20:03:02,31.466266911243302
-0.082524,-1.069224,10.049988,3.501773E-5,-0.003164336,2.0810962E-4,0.0,-0.06700145,-1.0445305,9.750634,0.016718559,0.022301557,-0.30772623,-0.031685844,-0.043035567,0.8403748,2016-11-25 20:03:03,40.055465561290006
-0.080132,-1.068028,10.05836,4.855171E-5,-7.247478E-4,1.9139796E-4,0.0,-0.07083185,-1.04329,9.75074,-0.0074438453,0.02234598,-0.30881637,-0.031844858,-0.042855192,0.8400156,2016-11-25 20:03:04,31.65373599846047
-0.070564,-1.071616,10.077497,3.980659E-5,-7.26074E-4,1.8592179E-4,0.0,-0.07025255,-1.040224,9.751073,0.0027034504,0.039764076,-0.3204431,-0.031720962,-0.042749587,0.8402007,2016-11-25 20:03:05,40.9644608808985
-0.066976,-1.0728121,10.075104,-0.0024215095,-0.0031264126,-0.0022000223,0.0,-0.06936861,-1.0392398,9.7511835,-0.0059806043,0.040748265,-0.31674424,-0.031644646,-0.0427398,0.84034324,2016-11-25 20:03:06,42.326919302940524
-0.074152,-1.07042,10.066732,0.002450548,-6.9209933E-4,2.874732E-4,0.0,-0.06897618,-1.0432562,9.750758,-0.0031961794,0.033143926,-0.3183657,-0.03173168,-0.042929005,0.8404249,2016-11-25 20:03:07,28.422831087080368
-0.076544,-1.07042,10.052381,3.7290156E-5,-6.71193E-4,2.958551E-4,0.0,-0.06978746,-1.0429393,9.750785,-0.005203455,0.019108824,-0.3147516,-0.03181511,-0.042850483,0.83970356,2016-11-25 20:03:09,19.743713475816406
-0.069368005,-1.074008,10.072712,3.373064E-5,0.0017424524,3.396049E-4,0.0,-0.070986345,-1.0413723,9.750942,-0.0016183448,0.02665566,-0.30981004,-0.0318059,-0.042762753,0.83992505,2016-11-25 20:03:10,31.959755543831953
-0.070564,-1.068028,10.063145,-1.8753111E-5,0.0017621666,3.6484003E-4,0.0,-0.06789642,-1.040188,9.751093,0.0014715841,0.038604017,-0.31324762,-0.031542573,-0.04286918,0.8411592,2016-11-25 20:03:11,36.08384464500734
-0.07176,-1.07042,10.071516,-0.0024919193,-6.854981E-4,-0.0020652935,0.0,-0.06533548,-1.0470889,9.750371,0.0040325206,0.024527196,-0.312773,-0.031617258,-0.04324137,0.84121394,2016-11-25 20:03:12,43.47531961801071
-0.056212,-1.065636,10.064341,-1.28261745E-5,-6.211549E-4,-0.0044466704,0.0,-0.06708664,-1.0446748,9.750619,0.0022813661,0.04009718,-0.30893794,-0.03166899,-0.04305748,0.84068143,2016-11-25 20:03:13,36.98265485958144
-0.063388005,-1.0775961,10.0655365,0.002440637,-6.095022E-4,5.189255E-4,0.0,-0.0668159,-1.0436743,9.750728,-0.008211893,0.027941681,-0.3160048,-0.031577915,-0.043059837,0.8413315,2016-11-25 20:03:14,30.77930780217146
-0.07176,-1.0775961,10.0655365,-0.0024374202,0.0018129945,6.019622E-4,0.0,-0.07133414,-1.047404,9.750295,0.005209862,0.013448022,-0.32122108,-0.03182285,-0.043135177,0.8419748,2016-11-25 20:03:15,36.33411344151729
-0.066976,-1.069224,10.063145,-4.3634325E-5,-6.3993037E-4,6.1450154E-4,0.0,-0.07088914,-1.0446032,9.750599,0.008046866,0.034188833,-0.30058572,-0.03165706,-0.04307763,0.8428469,2016-11-25 20:03:16,43.98911825011403
-0.068172,-1.0728121,10.061948,-2.9908493E-5,-6.546527E-4,6.37494E-4,0.0,-0.07237338,-1.043008,9.750759,-0.00778938,0.025020022,-0.31477672,-0.031679858,-0.04296612,0.8428174,2016-11-25 20:03:17,36.76303694630968
-0.062192,-1.079988,10.077497,0.0024072807,0.001820758,6.627813E-4,0.0,-0.07269553,-1.0438528,9.750667,0.003848474,0.028959261,-0.3041063,-0.031694904,-0.043010063,0.8430899,2016-11-25 20:03:18,18.410868263838584
-0.058604002,-1.074008,10.07032,-3.8119033E-5,-6.095767E-4,6.9556385E-4,0.0,-0.076927505,-1.0431359,9.7507105,-0.0075594983,0.028480172,-0.30286652,-0.031831887,-0.042882476,0.8434127,2016-11-25 20:03:19,44.272793113864914
0.194948,-1.856192,10.157628,-0.11512402,-0.018093824,0.042409718,0.0,0.14812566,-1.6912713,9.658574,0.030917665,0.21993674,-0.36151394,-0.039550964,-0.077366106,0.8440818,2016-11-25 20:03:20,37.559652498752975
0.230828,-1.9231681,9.886136,-0.03392689,0.0163178,0.0228417,0.0,0.2550423,-1.8801992,9.621342,0.009862309,0.15180501,-0.3532979,-0.039714992,-0.08871801,0.8454955,2016-11-25 20:03:21,42.22967591850869
0.235612,-2.04516,9.966269,-0.004190419,0.0016123056,7.9035014E-4,0.0,0.23274858,-1.9728093,9.603347,-0.020803444,0.06995865,-0.3677052,-0.042999826,-0.09228588,0.8462868,2016-11-25 20:03:22,42.311100633306005
0.243984,-2.058316,9.9543085,8.252505E-4,-8.250624E-4,7.833764E-4,0.0,0.2303104,-1.9834567,9.601212,-0.011281601,0.07366335,-0.36386138,-0.043233622,-0.09276506,0.8471509,2016-11-25 20:03:23,42.90570319576953
0.241592,-2.0654922,9.947132,-0.0016887579,-8.0373883E-4,-0.0016899034,0.0,0.23114948,-1.9836524,9.60115,0.0027134602,0.06509572,-0.3543547,-0.04286386,-0.09295313,0.8490441,2016-11-25 20:03:24,43.10073993865937
0.232024,-2.047552,9.949524,7.0451386E-4,0.0016574413,-0.0016750321,0.0,0.23173568,-1.9849812,9.600861,-0.009856318,0.067354895,-0.34985858,-0.042797893,-0.09306265,0.84946156,2016-11-25 20:03:25,45.222177119384305
0.24518001,-2.052336,9.9567,6.833151E-4,0.0016369224,7.4985623E-4,0.0,0.23214068,-1.9877737,9.600275,0.0013126718,0.0609744,-0.35164195,-0.042738136,-0.09325088,0.85009855,2016-11-25 20:03:26,34.74009280453099
0.248768,-2.071472,9.953113,0.0030460227,-7.4519217E-4,7.959753E-4,0.0,0.23263913,-1.9895344,9.599897,-0.016128877,0.08193755,-0.3532149,-0.042676922,-0.09338182,0.85056937,2016-11-25 20:03:27,23.30154073486249
0.243984,-2.060708,9.94474,-0.0067378283,0.0016772598,8.129254E-4,0.0,0.22971214,-1.9904183,9.599786,-0.0118798595,0.06550562,-0.35811028,-0.042592168,-0.09345127,0.851871,2016-11-25 20:03:28,22.94855721210329
0.24637601,-2.084628,9.955504,0.0010325965,-6.213337E-4,7.570386E-4,0.0,0.23344204,-2.0243511,9.592595,-0.018913941,0.05908099,-0.355733,-0.04329795,-0.09507377,0.8519104,2016-11-25 20:03:29,36.11294833174413
0.248768,-2.09898,9.948328,9.351615E-4,-5.951226E-4,-0.0016701445,0.0,0.2332403,-2.018438,9.593846,-0.020311715,0.07575813,-0.35687342,-0.04326161,-0.094754376,0.8513276,2016-11-25 20:03:30,43.59284838648418
0.258336,-2.0906081,9.9567,0.0033356678,-5.7053566E-4,7.296279E-4,0.0,0.23593,-2.0171022,9.594063,-0.014034006,0.074701756,-0.36861762,-0.043126147,-0.09475823,0.85123354,2016-11-25 20:03:31,41.24533803668571
0.243984,-2.0810401,9.949524,7.731654E-4,0.0019289702,7.1564317E-4,0.0,0.23619135,-2.0197186,9.593507,-0.0077926633,0.067301415,-0.36199793,-0.04333906,-0.094810896,0.8503829,2016-11-25 20:03:32,38.27139040910836
0.24637601,-2.09898,9.936368,7.5791776E-4,-5.1884353E-4,0.0031229109,0.0,0.23504385,-2.016309,9.594251,-0.018508174,0.069515,-0.36364567,-0.04348513,-0.09454322,0.8493766,2016-11-25 20:03:33,36.65947883866618
0.24039601,-2.095392,9.9423485,-0.00174894,-4.733503E-4,0.003066726,0.0,0.23926666,-2.021887,9.592972,-0.008305344,0.08426921,-0.35894495,-0.043515164,-0.09487352,0.8489955,2016-11-25 20:03:34,44.51520510009385
0.25116,-2.1025681,9.945936,-0.0017425492,-0.002830252,6.440878E-4,0.0,0.23628268,-2.0226288,9.59289,-0.011289328,0.07037117,-0.34587097,-0.04380983,-0.09475998,0.8482049,2016-11-25 20:03:35,44.21810409273049
0.24518001,-2.10496,9.93278,-0.0014428478,-4.1772425E-4,6.038919E-4,0.0,0.2344662,-2.0370123,9.5898905,-0.0071257968,0.07990765,-0.34886956,-0.044469588,-0.09525827,0.8470921,2016-11-25 20:03:36,43.561415300887624
0.243984,-2.115724,9.949524,9.5961243E-4,0.0019814372,6.2762946E-4,0.0,0.23053835,-2.0403683,9.589273,-0.009857651,0.07057181,-0.35068274,-0.044566397,-0.0953784,0.84798205,2016-11-25 20:03:37,41.55945298476274
0.25116,-2.101372,9.943544,0.005612606,-0.0029097497,-0.0017788783,0.0,0.23288609,-2.0403335,9.589222,-0.007509919,0.077782474,-0.34953824,-0.04446716,-0.09543789,0.8479577,2016-11-25 20:03:38,37.90672950178118
0.23920001,-2.11692,9.947132,-0.001801962,-4.800856E-4,6.5963715E-4,3.0,0.23364371,-2.0388935,9.589511,-0.022300314,0.07324264,-0.36240593,-0.044443786,-0.09537186,0.84769887,2016-11-25 20:03:39,37.65138341215645
0.255944,-2.11692,9.953113,-0.0018859114,0.0019471049,6.693974E-4,0.0,0.235688,-2.0373588,9.5897875,-0.009492015,0.077169165,-0.36691317,-0.044383645,-0.09532604,0.84731936,2016-11-25 20:03:40,45.3348053922448
0.25474802,-2.114528,9.953113,5.178377E-4,-4.988462E-4,6.779209E-4,0.0,0.23555772,-2.0391672,9.589407,-0.013210286,0.07296894,-0.3649018,-0.044510696,-0.09536872,0.8469157,2016-11-25 20:03:41,38.75282256260948
0.243984,-2.1121361,9.945936,0.0029107947,0.0019574612,6.891638E-4,0.0,0.23532508,-2.0385797,9.589537,-0.008658925,0.06996844,-0.3635761,-0.044600632,-0.09529177,0.8463948,2016-11-25 20:03:42,33.99567764115525
0.25355202,-2.091804,9.953113,4.2213127E-4,-4.928708E-4,-0.0017394423,0.0,0.23536117,-2.0362628,9.590029,0.0045331684,0.07108926,-0.35471126,-0.044421226,-0.09524409,0.8470349,2016-11-25 20:03:43,46.64904847720803
0.242788,-2.109744,9.947132,3.907904E-4,-5.273372E-4,-0.0016798079,0.0,0.2333231,-2.0349376,9.590357,-0.008268902,0.076002456,-0.34959903,-0.044584967,-0.09507883,0.8464349,2016-11-25 20:03:45,37.604670280139786
0.25355202,-2.10496,9.94474,3.6483072E-4,0.0019204617,-0.0016007945,0.0,0.2379916,-2.0345628,9.590324,-0.013168402,0.068005174,-0.3508277,-0.04443334,-0.09515922,0.8460932,2016-11-25 20:03:46,38.74366062287524
0.247572,-2.100176,9.930388,3.0852295E-4,-5.096346E-4,8.6773187E-4,3.0,0.23504904,-2.0367515,9.589931,-0.011326957,0.077776484,-0.34643796,-0.04459446,-0.09518887,0.84623086,2016-11-25 20:03:47,39.08501511953997
0.24518001,-2.1181161,9.949524,-0.002148144,-5.595833E-4,9.147227E-4,0.0,0.23708318,-2.0377185,9.589677,-0.008096834,0.070829734,-0.36463177,-0.04465268,-0.095229976,0.8455632,2016-11-25 20:03:48,32.22853588709589
0.23920001,-2.1121361,9.948328,2.6128627E-4,-0.0029684305,8.8796765E-4,0.0,0.23325281,-2.037003,9.589922,-0.014319197,0.0739369,-0.36199442,-0.044679306,-0.09515164,0.84623235,2016-11-25 20:03:49,39.68265089983777
0.247572,-2.121704,9.955504,3.5553798E-4,-5.9586763E-4,9.070337E-4,0.0,0.23428945,-2.0472307,9.58772,-0.013282548,0.08164924,-0.35941198,-0.04507428,-0.095554836,0.84529674,2016-11-25 20:03:50,38.75301133528297
0.25116,-2.119312,9.955504,2.9067323E-4,-6.0227513E-4,-0.0015098155,0.0,0.23470761,-2.0400658,9.589235,-0.009276399,0.07326631,-0.36507368,-0.045004163,-0.09518248,0.84454024,2016-11-25 20:03:51,42.359195175182016
0.249964,-2.1085482,9.9543085,2.785083E-4,-5.798936E-4,9.854361E-4,0.0,0.2346108,-2.043948,9.588412,-0.015353198,0.06818828,-0.3670926,-0.045120165,-0.0953482,0.8444907,2016-11-25 20:03:52,40.69102289059461
0.25714,-2.109744,9.927997,2.416838E-4,-5.6652725E-4,-0.0014325231,0.0,0.23431042,-2.040163,9.589225,-0.013261578,0.073169135,-0.35551557,-0.045100547,-0.09513979,0.84411794,2016-11-25 20:03:53,44.95017057212421
0.249964,-2.1181161,9.9543085,1.9518845E-4,-5.1549077E-4,-0.0013852566,0.0,0.23944399,-2.0398765,9.58916,-0.0021480084,0.06986761,-0.35558045,-0.044873927,-0.0952645,0.8440918,2016-11-25 20:03:54,49.63274205444063
0.248768,-2.180308,9.939957,-0.013417846,0.009116679,-0.0012432337,0.0,0.23024333,-2.077713,9.581258,-0.006564674,0.120535284,-0.356307,-0.04612115,-0.09677135,0.84494114,2016-11-25 20:03:55,44.31046629761329
0.291824,-2.171936,9.965073,-0.030448308,-0.024786264,-0.0012414008,0.0,0.26743186,-2.1193974,9.5711565,-0.03037214,0.07287074,-0.3998948,-0.046189934,-0.099364795,0.841807,2016-11-25 20:03:56,43.959745075810666
0.441324,-2.2413042,9.97464,0.0037676934,-0.0101222545,-0.0036854,0.0,0.42327276,-2.1591039,9.556648,0.03337675,0.086984314,-0.19912498,-0.040891733,-0.10523539,0.83961195,2016-11-25 20:03:57,49.810483690363185
0.37315202,-2.186288,9.945936,0.0061900765,-0.002510652,0.0012029037,0.0,0.34561574,-2.1098475,9.570763,-0.0084002735,0.07883257,-0.37397712,-0.043028887,-0.10087355,0.8391951,2016-11-25 20:03:58,39.49328005080884
0.315744,-2.211404,9.856236,-0.08159463,-0.055417247,-0.0060938746,0.0,0.3119488,-2.1204026,9.569586,-0.049243193,-0.0860067,-0.22804654,-0.045065228,-0.10027988,0.8376438,2016-11-25 20:03:59,34.43088874079231
0.381524,-2.205424,9.927997,0.018534323,0.04976414,0.013448514,0.0,0.3417267,-2.1023123,9.572559,-0.031425323,0.0971319,-0.4032757,-0.04305055,-0.10040895,0.838903,2016-11-25 20:04:00,32.424285910994705
0.34803602,-2.20662,9.94474,0.0015148781,0.011140853,0.0036862418,0.0,0.36016983,-2.095898,9.57329,-0.008198176,0.09039032,-0.35590252,-0.04047358,-0.10129144,0.84726965,2016-11-25 20:04:01,24.836318651337344
0.315744,-2.177916,9.957896,0.00100483,0.0031709373,-0.001465328,0.0,0.30712476,-2.0900393,9.576419,-0.015795244,0.09026889,-0.37908524,-0.04149472,-0.10008355,0.85320497,2016-11-25 20:04:02,38.341308670353214
0.31096,-2.193464,9.951917,0.0058368985,0.0029993653,-0.0014568567,0.0,0.30378956,-2.0979843,9.574789,-0.009562486,0.07993162,-0.37951955,-0.040865984,-0.10075545,0.85813284,2016-11-25 20:04:03,47.82288780791959
0.31454802,-2.180308,9.95072,0.003192665,0.002867967,9.7996E-4,0.0,0.3060003,-2.096167,9.575116,-0.007351751,0.07098521,-0.37201545,-0.039407,-0.101252526,0.8645945,2016-11-25 20:04:04,49.519124931913154
0.31215602,-2.189876,9.929193,0.003154138,0.0027607083,0.0010090247,0.0,0.3056056,-2.1003952,9.574203,6.255663E-4,0.083500855,-0.3681459,-0.038465485,-0.10184299,0.8696767,2016-11-25 20:04:05,46.457358194435685
0.307372,-2.201836,9.9543085,7.103346E-4,2.1547079E-4,0.0010312498,0.0,0.30431926,-2.1057692,9.573062,0.0041232724,0.0757349,-0.37167817,-0.037699316,-0.10241313,0.8741268,2016-11-25 20:04:06,47.40073384800843
0.318136,-2.186288,9.959092,-0.0018045139,-0.0023001581,-0.0013854429,0.0,0.3020847,-2.1064522,9.572982,-0.0016992965,0.07744389,-0.3609943,-0.03701053,-0.102683805,0.8778197,2016-11-25 20:04:07,44.718842376198175
0.31454802,-2.187484,9.93876,0.0030141696,0.004910633,-0.001342617,0.0,0.3025828,-2.1042356,9.573455,-0.017945187,0.08922844,-0.35812956,-0.036280766,-0.10282702,0.8807797,2016-11-25 20:04:08,36.10337174539553
0.31694,-2.1982481,9.94474,0.002924189,0.0023616552,-0.0013072863,3.0,0.29972318,-2.1061969,9.573113,7.2318147E-4,0.08009119,-0.36564708,-0.035981767,-0.10301653,0.882893,2016-11-25 20:04:09,45.48713388851877
0.318136,-2.187484,9.953113,4.1115098E-4,-1.4100969E-4,-0.0012393817,0.0,0.30058613,-2.1048605,9.57338,-0.016353864,0.08740751,-0.38451546,-0.03555156,-0.103099816,0.8844857,2016-11-25 20:04:10,44.84880322883673
0.296608,-2.186288,9.93876,-0.0020804796,0.002200082,-0.0011979863,0.0,0.30063123,-2.1119947,9.571807,0.0052192328,0.074293464,-0.3633657,-0.03538258,-0.103545874,0.88591516,2016-11-25 20:04:11,45.565505611596095
0.308568,-2.183896,9.927997,3.1357445E-4,0.0021538138,0.0013041347,3.0,0.2990544,-2.1070182,9.572952,-0.01310162,0.08166166,-0.35504445,-0.035015292,-0.10338846,0.8873442,2016-11-25 20:04:12,41.690091132864126
0.308568,-2.187484,9.936368,0.002704883,0.0021324158,-0.001103133,0.0,0.29858348,-2.10975,9.572367,-0.014768567,0.07295009,-0.37117726,-0.034886453,-0.10357656,0.8882552,2016-11-25 20:04:13,32.971201265820575
0.309764,-2.197052,9.933976,2.3231097E-4,0.0021061152,0.0013688207,0.0,0.2968264,-2.1064057,9.573157,-0.01652564,0.07988252,-0.35723174,-0.034845274,-0.10339555,0.8884631,2016-11-25 20:04:14,38.429730588883885
0.31215602,-2.18868,9.933976,2.2014044E-4,-4.0976703E-4,-0.0010437965,0.0,0.29617965,-2.1092932,9.572541,-0.013584325,0.07579876,-0.36861062,-0.034950703,-0.10351173,0.8884111,2016-11-25 20:04:15,39.72108600316459
0.307372,-2.199444,9.933976,0.0025917068,0.002012685,0.0013982952,0.0,0.2945585,-2.1022482,9.5741415,-0.016401501,0.09001988,-0.35863927,-0.034568846,-0.103245646,0.88970864,2016-11-25 20:04:16,43.708094357682626
0.30498,-2.181504,9.931584,9.0962276E-5,0.0020017773,-0.0010344014,0.0,0.29811525,-2.104973,9.573434,-0.005668748,0.07533494,-0.36293492,-0.0343084,-0.103507206,0.8903774,2016-11-25 20:04:17,51.58685227284379
0.32292,-2.1707401,9.929193,-8.228235E-5,-4.6375394E-4,0.0014441758,0.0,0.2963765,-2.0988593,9.574829,-0.0014274938,0.088624775,-0.3699106,-0.03409081,-0.10323487,0.89107996,2016-11-25 20:04:18,53.26893922570128
0.308568,-2.179112,9.93876,-3.0027702E-5,0.001911208,-9.803846E-4,0.0,0.29772443,-2.103782,9.573707,-0.016823564,0.07054624,-0.34950495,-0.03405537,-0.10352328,0.8914215,2016-11-25 20:04:19,43.79400158729793
0.333684,-2.0631,9.9543085,0.04387175,0.021271288,-0.008265592,0.0,0.2909781,-2.114027,9.571656,3.5009207E-4,0.10574907,-0.3659078,-0.03449756,-0.10388098,0.8918079,2016-11-25 20:04:20,51.85973061679738
0.172224,-1.856192,10.060752,-0.0025642496,-0.003168717,0.0015104115,0.0,0.12933087,-1.7138296,9.654867,-0.023757126,0.095718384,-0.36043784,-0.032571565,-0.08171842,0.89495164,2016-11-25 20:04:21,72.47085997022174
0.16744,-1.814332,10.005736,-0.0047430918,0.0022343993,-8.062571E-4,0.0,0.16124369,-1.7368013,9.650281,0.008155688,0.082314715,-0.35784724,-0.03151494,-0.08354313,0.8954168,2016-11-25 20:04:22,58.273699647657935
0.148304,-1.804764,9.977033,-0.0020868815,-4.107207E-4,-7.300526E-4,0.0,0.15578857,-1.7477869,9.648387,-0.01165144,0.053389207,-0.34299746,-0.031880017,-0.083981395,0.8960672,2016-11-25 20:04:23,63.33047446965239
0.147108,-1.810744,9.9913845,3.4125708E-4,-4.043132E-4,-7.55623E-4,0.0,0.15376666,-1.7495399,9.648102,0.005462668,0.054028235,-0.33371466,-0.031994693,-0.08402437,0.896153,2016-11-25 20:04:24,45.66460843826838
0.16863601,-1.803568,9.993776,0.0027392246,-4.325211E-4,0.0016483739,0.0,0.15183702,-1.7492217,9.64819,-0.014406986,0.06032631,-0.34319502,-0.03201568,-0.08398959,0.89646894,2016-11-25 20:04:25,23.983791704257513
0.153088,-1.8227041,10.003345,0.0027070902,-0.0029024333,0.001607798,0.0,0.14998996,-1.7507603,9.647939,-0.0066860537,0.054003686,-0.32909343,-0.032380484,-0.083925664,0.89519256,2016-11-25 20:04:27,18.258911914233323
0.15069601,-1.8071561,9.981816,2.1672249E-4,0.0019621104,0.0015889108,0.0,0.15125473,-1.7518908,9.647714,-0.010205277,0.05765724,-0.34247488,-0.03235119,-0.08400525,0.89517,2016-11-25 20:04:28,17.96917013548637
0.160264,-1.8023721,9.9866,2.2225082E-4,-4.885942E-4,-8.5618347E-4,0.0,0.14844894,-1.7489227,9.648296,-0.020187067,0.052253336,-0.3418927,-0.032447457,-0.08379121,0.89500487,2016-11-25 20:04:29,29.90141496407439
0.166244,-1.814332,9.985404,2.0548888E-4,-4.6360493E-4,-8.801967E-4,0.0,0.15423852,-1.7470586,9.648542,0.0071305186,0.058901396,-0.34762627,-0.032108635,-0.0838466,0.89516896,2016-11-25 20:04:30,37.59873805438018
0.16265601,-1.8071561,9.99258,2.2446364E-4,-4.529506E-4,-8.529052E-4,0.0,0.15062757,-1.7500948,9.64805,-0.022792427,0.0522773,-0.34333414,-0.03241371,-0.083879165,0.89479107,2016-11-25 20:04:31,60.154087887679005
0.1495,-1.8227041,9.99258,2.1062419E-4,-4.4184923E-4,-8.325204E-4,0.0,0.1527187,-1.7512957,9.6477995,-0.0015653131,0.053468265,-0.3388,-0.032322425,-0.08399054,0.89490145,2016-11-25 20:04:32,39.71922686986573
0.165048,-1.80596,9.999756,2.2644736E-4,0.001963362,-8.193329E-4,0.0,0.14938948,-1.749607,9.648158,-0.012070524,0.053961016,-0.34322718,-0.032416422,-0.08384537,0.89501864,2016-11-25 20:04:33,21.571473515636725
0.160264,-1.8239,9.993776,0.0026169512,-6.605089E-4,0.004041463,0.0,0.13907117,-1.7467235,9.648834,-0.0056448467,0.06402049,-0.34853053,-0.032821644,-0.08348119,0.8950559,2016-11-25 20:04:34,51.065926647853395
0.172224,-1.7641001,9.987796,0.009153436,-0.007463053,0.003971167,0.0,0.16645631,-1.7150903,9.654074,-0.008159706,0.06934183,-0.34568274,-0.030891726,-0.08261307,0.8949417,2016-11-25 20:04:35,43.28350013889085
0.18059601,-1.78204,9.988993,-0.0028069448,-1.8681586E-4,0.0015126914,0.0,0.16703483,-1.7199506,9.6532,-0.011169154,0.058501437,-0.33459613,-0.030895833,-0.08288102,0.8953393,2016-11-25 20:04:36,47.228394575521904
0.16863601,-1.786824,9.996168,-0.005136052,0.0022080243,-9.340495E-4,0.0,0.16401203,-1.723024,9.652704,-0.011799981,0.054232087,-0.33748484,-0.031028911,-0.08298389,0.8957239,2016-11-25 20:04:37,46.49098364090827
0.175812,-1.78802,9.9866,-1.9002333E-4,-2.760142E-4,0.001527451,0.0,0.16357125,-1.7246058,9.652429,-0.0050647543,0.056238167,-0.33536768,-0.03108182,-0.083048545,0.89573336,2016-11-25 20:04:38,54.93613219666279
0.17461601,-1.8011761,9.985404,0.002285879,-3.0258298E-4,-8.852631E-4,0.0,0.16104934,-1.7229867,9.6527605,-4.1066317E-4,0.053073272,-0.32905602,-0.031406038,-0.08282449,0.89445096,2016-11-25 20:04:39,49.57380360952123
0.17461601,-1.78204,9.99258,0.0023034234,0.002130866,0.0015391186,0.0,0.1643962,-1.7172631,9.653725,-0.007827807,0.06836495,-0.34842357,-0.031065168,-0.08265632,0.89477706,2016-11-25 20:04:40,41.08721066312061
0.169832,-1.792804,9.985404,-0.002535142,0.002090156,-8.946806E-4,0.0,0.16159962,-1.7226766,9.652804,-0.015408381,0.05218743,-0.342168,-0.031217985,-0.082881376,0.8952743,2016-11-25 20:04:41,44.987986183811515
0.171028,-1.783236,9.985404,-5.1317737E-5,-3.8139522E-4,-8.8854134E-4,0.0,0.1632597,-1.7225289,9.652804,-0.00178829,0.05233517,-0.34455988,-0.030985156,-0.082969174,0.89607894,2016-11-25 20:04:42,43.866200001884785
0.165048,-1.792804,9.9866,-5.7922676E-5,-4.3265522E-4,-8.88668E-4,0.0,0.16290888,-1.7277849,9.651873,0.0074288896,0.05784312,-0.33951253,-0.031235449,-0.083161905,0.89545053,2016-11-25 20:04:43,34.62873624428118
0.16146,-1.78802,9.99258,-0.0022362396,0.0018376261,-8.581728E-4,0.0,0.16059099,-1.739007,9.649896,0.0063069914,0.06456103,-0.32593992,-0.03162715,-0.08361858,0.8952388,2016-11-25 20:04:44,44.30700349155758
0.145912,-1.819116,9.993776,0.0026389621,-0.008099914,-0.00328888,0.0,0.14348567,-1.7488366,9.648389,-0.014386345,-0.009852701,-0.3310358,-0.03254744,-0.08372481,0.89566547,2016-11-25 20:04:45,71.283770797679
0.154284,-1.766492,9.975836,-2.3072958E-4,-5.838424E-4,0.0015498623,3.0,0.15521091,-1.7155017,9.654189,-0.015817089,0.073714346,-0.33121467,-0.03125752,-0.08244004,0.8957945,2016-11-25 20:04:46,66.89885284099032
0.175812,-1.761708,9.9866,-0.007671848,-5.233735E-4,-0.003333725,0.0,0.15334387,-1.7066174,9.655793,-0.015292134,0.05509075,-0.33319968,-0.031290624,-0.081929795,0.89504683,2016-11-25 20:04:47,64.28094395287224
0.165048,-1.7593161,9.9913845,0.0069179647,-4.9853325E-4,-8.903742E-4,0.0,0.1608358,-1.7081298,9.655403,5.7180854E-4,0.066734284,-0.33358958,-0.030956155,-0.082177624,0.8951667,2016-11-25 20:04:48,72.65707627035945
0.16744,-1.7688841,9.988993,-0.0027143303,0.0018595159,0.0015279651,0.0,0.15624715,-1.7075242,9.655587,-0.0028208478,0.051791854,-0.33220834,-0.031161351,-0.082043365,0.89512897,2016-11-25 20:04:49,51.10530359634774
0.145912,-1.762904,9.98062,-2.800133E-4,0.0018318743,0.0014991909,0.0,0.1522453,-1.7148273,9.654356,-0.018782698,0.06482085,-0.3418126,-0.031467907,-0.08230824,0.89532626,2016-11-25 20:04:50,48.377214471810824
0.16265601,-1.777256,9.983012,-9.854324E-5,0.0017541796,0.00151553,0.0,0.15264022,-1.7172909,9.653913,-0.007623773,0.058769148,-0.33747196,-0.0314879,-0.08243805,0.8954086,2016-11-25 20:04:51,69.6247242586897
0.151892,-1.765296,9.978229,0.0023145545,-6.6654384E-4,-9.1388077E-4,0.0,0.15084888,-1.7121893,9.654846,-0.008219127,0.053106736,-0.33175358,-0.031592447,-0.0821085,0.89469934,2016-11-25 20:04:52,70.35859486212813
0.163852,-1.7796481,9.99856,-1.2535416E-4,-6.6147745E-4,0.0015418082,0.0,0.15470055,-1.7136592,9.654524,-0.006759448,0.0552249,-0.33805647,-0.031380005,-0.08228966,0.8950573,2016-11-25 20:04:53,46.67107795362323
0.15548,-1.777256,9.988993,-1.3582781E-4,-6.545484E-4,0.0015308559,0.0,0.15041761,-1.7102747,9.655192,-0.017022392,0.06817732,-0.3385843,-0.031518012,-0.08202962,0.8949789,2016-11-25 20:04:54,45.29654110493904
0.15667601,-1.771276,10.006932,-0.0025662035,0.0018429011,-9.1564655E-4,3.0,0.15129648,-1.7179053,9.653823,-0.0077715293,0.05576266,-0.3459335,-0.03159915,-0.08242276,0.8952181,2016-11-25 20:04:55,44.793641991048254
0.148304,-1.778452,10.002149,-0.0025440827,0.0018319488,0.0015261993,0.0,0.15414639,-1.7119509,9.654837,-0.0037256146,0.058129095,-0.3461159,-0.03154641,-0.08212924,0.89410704,2016-11-25 20:04:56,40.70195861572164
0.16265601,-1.765296,9.990189,0.0023629796,-5.722344E-4,0.0015133768,0.0,0.15060338,-1.7124779,9.654798,-0.0060726344,0.07793416,-0.33658758,-0.031776343,-0.08205222,0.89381033,2016-11-25 20:04:57,43.8358044400097
0.163852,-1.78204,9.999756,-7.67149E-5,0.0019056052,-9.4395876E-4,0.0,0.14938985,-1.7161944,9.654159,-0.007286175,0.057473555,-0.33244097,-0.031839672,-0.08222665,0.89420664,2016-11-25 20:04:58,49.510652071381045
0.165048,-1.761708,9.99856,-6.97393E-5,-5.3943694E-4,0.0015036687,0.0,0.15314065,-1.7156843,9.654189,-0.017887356,0.062767714,-0.3324106,-0.03168152,-0.08227784,0.8940701,2016-11-25 20:04:59,40.87669795893931
0.16146,-1.7748641,9.999756,-0.0024759676,-5.264282E-4,0.0015164912,0.0,0.15317465,-1.7154871,9.654224,-0.008285342,0.059376903,-0.34553194,-0.031596523,-0.082299836,0.8944919,2016-11-25 20:05:01,43.18950522369504
0.15069601,-1.7688841,9.981816,-0.0024822783,-0.0029702187,-9.3940645E-4,0.0,0.14857724,-1.7159723,9.654209,-0.002118764,0.05889175,-0.33239073,-0.031831853,-0.08221356,0.8944218,2016-11-25 20:05:02,53.094876973159124
0.14471601,-1.7700801,9.985404,0.00242218,-0.002966851,0.0015128702,3.0,0.15305483,-1.7138196,9.654523,-0.002425163,0.0610444,-0.34284195,-0.031683486,-0.08217398,0.8938619,2016-11-25 20:05:03,67.3328609344529
0.133952,-1.78802,10.002149,0.0022430215,-7.994622E-4,0.0015863404,0.0,0.13866687,-1.7065328,9.65603,-0.008441145,0.043215167,-0.32339492,-0.032198366,-0.08150328,0.89378923,2016-11-25 20:05:04,44.82485400110907
0.148304,-1.7641001,10.002149,-2.906751E-4,0.0017136931,-8.5406005E-4,0.0,0.14215325,-1.7025013,9.65669,-0.015718762,0.046050828,-0.32871467,-0.031900823,-0.0814135,0.8940516,2016-11-25 20:05:05,42.679474878318864
0.160264,-1.7581201,9.988993,-0.0028202143,0.004223898,0.0015537292,0.0,0.14488785,-1.6932092,9.658283,-0.0034161469,0.067302875,-0.33190557,-0.031533908,-0.081056856,0.8942522,2016-11-25 20:05:06,44.63403683262466
0.15667601,-1.74616,9.988993,-0.0027951524,-6.545633E-4,0.001579687,0.0,0.144938,-1.6984276,9.657367,-0.0033659877,0.04414441,-0.33282208,-0.03165547,-0.08129753,0.8942019,2016-11-25 20:05:07,42.42335921343012
0.142324,-1.760512,9.99258,0.0021479782,0.0018160194,-8.852482E-4,3.0,0.14608867,-1.6937929,9.658164,0.0073526734,0.07269903,-0.3392004,-0.031509265,-0.0811043,0.89415604,2016-11-25 20:05:08,48.749653065094776
0.15548,-1.750944,9.99258,-3.1089224E-4,-6.059408E-4,0.0015580058,0.0,0.14632297,-1.6944106,9.658051,0.003998961,0.058925506,-0.3273533,-0.03151104,-0.081138775,0.89416146,2016-11-25 20:05:09,45.97777056101275
0.15667601,-1.755728,9.996168,-3.1513348E-4,-6.201565E-4,-8.989349E-4,0.0,0.14590327,-1.6929517,9.658315,-0.001204727,0.06397241,-0.3354624,-0.031341434,-0.08112208,0.89500946,2016-11-25 20:05:10,47.3464927756921
0.157872,-1.747356,9.99258,-3.1853467E-4,-6.0902536E-4,-9.2464685E-4,0.0,0.14178741,-1.694502,9.658103,-0.007712593,0.057638098,-0.335674,-0.031578276,-0.08109641,0.89493674,2016-11-25 20:05:11,42.260092151693904
0.142324,-1.7533361,9.99258,-2.5167502E-4,0.0018367767,0.0015120655,0.0,0.14504834,-1.6952701,9.65792,-8.6366764E-4,0.065242,-0.33226913,-0.031385195,-0.081228845,0.8952586,2016-11-25 20:05:12,47.743615618918255
0.15667601,-1.755728,9.99258,-0.0027101375,-5.735457E-4,0.001508601,0.0,0.1456035,-1.6997938,9.657115,-0.0050925193,0.061914314,-0.34503275,-0.031319056,-0.08150607,0.8960046,2016-11-25 20:05:13,44.40720724632044
0.157872,-1.765296,9.994972,-0.002655346,-0.0030182898,-9.4780326E-4,0.0,0.14366749,-1.6946098,9.658057,-0.010616525,0.06709829,-0.3416992,-0.03142085,-0.0811722,0.8953314,2016-11-25 20:05:14,39.137018093202094
0.1495,-1.7593161,9.990189,-1.9738823E-4,-5.554706E-4,0.0014808252,0.0,0.14802085,-1.6956196,9.657813,9.128497E-4,0.06848054,-0.3299825,-0.031190418,-0.08133721,0.89561045,2016-11-25 20:05:15,45.40025936565161
0.147108,-1.747356,10.006932,-1.5557557E-4,-5.7564676E-4,0.0014375225,0.0,0.14566062,-1.6939723,9.658138,-0.006231378,0.061755616,-0.32726562,-0.031245641,-0.081214085,0.8957049,2016-11-25 20:05:16,46.69901775284536
0.14471601,-1.7485521,10.005736,-1.13712624E-4,-5.65663E-4,-0.0010363609,0.0,0.14320338,-1.6985769,9.657368,-0.015864637,0.057151046,-0.33042848,-0.031467617,-0.08137055,0.89565974,2016-11-25 20:05:17,53.36755183341812
0.151892,-1.7581201,9.990189,-9.0405345E-5,-5.22092E-4,0.0014080629,0.0,0.14611773,-1.6978679,9.657449,-0.003382272,0.05666399,-0.33154434,-0.03134027,-0.08139431,0.8955399,2016-11-25 20:05:18,54.28193560145716
0.16863601,-1.741376,10.054772,3.0126795E-4,0.008726835,-0.003587149,0.0,0.11175427,-1.7443926,9.649611,-0.05807773,-0.060424514,-0.29154083,-0.034045793,-0.08275054,0.8949658,2016-11-25 20:05:19,46.274403905322785
0.108836,-1.760512,9.9866,0.009683763,-8.9754164E-4,0.0012928694,0.0,0.11341617,-1.7163755,9.654614,0.005776163,0.047724605,-0.32361412,-0.03332577,-0.08149269,0.89513403,2016-11-25 20:05:20,71.23350364437518
0.145912,-1.755728,9.994972,-6.507933E-4,-0.010120764,0.0012943447,0.0,0.14228162,-1.6914158,9.658636,0.01072162,0.06311609,-0.3231804,-0.031359803,-0.08101338,0.8956284,2016-11-25 20:05:21,49.79060309706071
0.14471601,-1.78204,9.997364,-3.9325096E-4,-4.26203E-4,-0.0034384057,0.0,0.13584279,-1.7064397,9.656087,-0.0064812247,0.038524233,-0.34008184,-0.031977057,-0.081572674,0.895665,2016-11-25 20:05:22,62.73352776209649
0.139932,-1.771276,9.997364,-0.0027207304,-4.7589839E-4,-9.864271E-4,0.0,0.12962843,-1.7115222,9.6552725,-0.009107573,0.059753776,-0.3337205,-0.03242115,-0.08165176,0.8954134,2016-11-25 20:05:23,49.331360294419156
0.13754,-1.767688,9.996168,-0.0026590396,-4.8419833E-4,0.0014209524,0.0,0.12986444,-1.7107091,9.655414,0.003088422,0.045018855,-0.33357906,-0.032498788,-0.08157688,0.89484435,2016-11-25 20:05:24,44.619149101486386
0.136344,-1.771276,9.9913845,-0.0026379693,-4.825443E-4,0.001420021,0.0,0.13377477,-1.7109761,9.655313,0.008194778,0.03757599,-0.3300912,-0.03219819,-0.08172739,0.8955207,2016-11-25 20:05:25,41.60646201303669
0.112424,-1.773668,9.988993,-0.0024623666,-7.751882E-4,-9.188652E-4,0.0,0.12200229,-1.7161677,9.654548,-0.008361714,0.047932405,-0.33683717,-0.03298824,-0.08165106,0.8948005,2016-11-25 20:05:26,52.06925531787849
0.127972,-1.750944,9.9866,-3.470406E-4,0.0020387024,0.0015181825,0.0,0.13925047,-1.6982423,9.657484,0.0076904725,0.04911372,-0.33509648,-0.031908195,-0.081162155,0.8942278,2016-11-25 20:05:27,66.25685973008338
0.151892,-1.654068,9.985404,-0.014943268,0.014074951,-0.0033308864,0.0,0.13191892,-1.6976883,9.657683,-0.008013083,0.04847177,-0.32652503,-0.032142226,-0.08100674,0.89472044,2016-11-25 20:05:28,71.76965803999104
0.123188004,-1.736592,9.983012,-4.5497902E-4,-5.3690374E-4,0.004001826,0.0,0.13428755,-1.6792141,9.660881,0.017079547,0.06455401,-0.3388754,-0.031551637,-0.08022919,0.89513963,2016-11-25 20:05:29,66.34945517499006
0.120796,-1.7425721,9.9913845,-3.3977628E-4,-5.4621696E-4,-8.943975E-4,0.0,0.12504816,-1.6904335,9.659047,-0.0017278559,0.054530486,-0.32755262,-0.032209896,-0.08054937,0.8952069,2016-11-25 20:05:30,65.05459680678273
0.130364,-1.7377881,9.9913845,-0.0027982797,-5.5091083E-4,-9.3725324E-4,0.0,0.12052283,-1.6883308,9.659473,-0.0026651733,0.07098536,-0.34865445,-0.032352902,-0.08035722,0.8953121,2016-11-25 20:05:31,47.19571355902376
0.12558,-1.744964,9.993776,-2.7478673E-4,-0.00298734,-9.894595E-4,0.0,0.12130656,-1.6885456,9.659427,-0.007861445,0.051634472,-0.32597736,-0.03234646,-0.08037483,0.8951765,2016-11-25 20:05:32,45.01697455137525
0.133952,-1.74616,9.987796,-0.0026687477,-5.3595006E-4,-0.0010021329,0.0,0.12558106,-1.6884421,9.6593895,-0.008370947,0.05771803,-0.33079964,-0.032200363,-0.08044506,0.8948887,2016-11-25 20:05:33,44.94995323161702
0.12558,-1.74018,9.996168,-2.2178702E-4,-5.135834E-4,-0.00103309,0.0,0.123515576,-1.6883285,9.659435,-0.01282842,0.061419517,-0.3319494,-0.032305185,-0.080388285,0.8948219,2016-11-25 20:05:34,45.97616031867737
0.119600005,-1.729416,9.983012,-2.2248924E-4,-0.00296548,-0.0010697544,0.0,0.124868855,-1.6874937,9.659565,0.0016808567,0.05268632,-0.32703534,-0.03221475,-0.08038382,0.8948757,2016-11-25 20:05:35,49.18106020501127
0.141128,-1.750944,9.994972,-1.6957708E-4,0.0019040555,0.0013196841,0.0,0.12531029,-1.6936837,9.658474,0.0021222802,0.044104367,-0.3185586,-0.032428052,-0.08064306,0.8943427,2016-11-25 20:05:36,49.11947327483287
0.141128,-1.7425721,9.9913845,-0.0026098583,0.001901269,0.0037183315,0.0,0.12699714,-1.6858968,9.659815,-0.0069548697,0.0710273,-0.3255892,-0.03219664,-0.080311425,0.8942491,2016-11-25 20:05:37,44.46924902054633
0.106444,-1.750944,9.978229,-0.0071129166,0.001551196,-0.003631942,0.0,0.108171366,-1.7021977,9.657186,0.0077073686,0.046354488,-0.34974635,-0.033389475,-0.080658406,0.89441705,2016-11-25 20:05:38,46.55422246234689
0.118404,-1.767688,10.008128,-0.0024309102,-7.457286E-4,-0.0011087805,0.0,0.1130979,-1.69803,9.657861,-5.221059E-4,0.04215002,-0.3287392,-0.03311513,-0.0805574,0.894179,2016-11-25 20:05:39,68.80997391412753
0.121992,-1.760512,9.99258,1.00601465E-4,0.0017310977,-0.0035293028,0.0,0.10841566,-1.7003771,9.657503,-0.011184342,0.067310914,-0.33507776,-0.033454027,-0.08053106,0.8937859,2016-11-25 20:05:40,61.15512947929319
0.105248004,-1.762904,9.977033,-0.0023385342,-7.047504E-4,-0.0010401607,0.0,0.11333018,-1.7027588,9.657028,-0.0014858273,0.041009326,-0.32598436,-0.033222366,-0.08077728,0.89410275,2016-11-25 20:05:41,44.27009954209696
0.080132,-1.75214,10.005736,-0.024341205,0.0014010966,-0.0036148578,0.0,0.09756649,-1.6913254,9.659208,-0.0017015067,0.07277473,-0.36805707,-0.033526856,-0.07995899,0.89502895,2016-11-25 20:05:42,42.98603565039548
0.12558,-1.778452,10.000952,0.007851878,0.004044518,-0.0010972843,0.0,0.111050725,-1.6902082,9.659258,-0.008549281,0.0499718,-0.3357143,-0.03274157,-0.08026789,0.89579284,2016-11-25 20:05:43,56.581501041494356
0.114816,-1.736592,9.988993,7.151142E-4,-0.0056082755,0.0013178438,0.0,0.111946754,-1.6879374,9.659645,-0.006457241,0.058222763,-0.32695526,-0.0325788,-0.08021127,0.89618385,2016-11-25 20:05:44,40.46266203448341
0.18059601,-1.7007121,9.993776,-0.00548557,0.005493343,8.0284476E-4,0.0,0.16973259,-1.6297784,9.668785,-0.0036874015,0.039837506,-0.319011,-0.028498836,-0.07884789,0.8970162,2016-11-25 20:05:45,69.73841046426438
0.15667601,-1.7114761,9.977033,-0.0217209,0.02910377,-0.011190936,0.0,0.14765961,-1.6614444,9.663756,0.0029436066,0.04046353,-0.35274377,-0.03032329,-0.07978757,0.8963654,2016-11-25 20:05:46,60.68363469368515
0.13156,-1.7210441,9.988993,-0.0018582158,-0.0029637069,-0.0036704019,0.0,0.12113687,-1.6886532,9.659408,-0.008031139,0.058702804,-0.33915246,-0.03212273,-0.0804698,0.89644414,2016-11-25 20:05:47,72.5264794844816
0.127972,-1.738984,9.987796,0.0029395632,-4.158616E-4,-0.0012218133,0.0,0.12166849,-1.6821871,9.660531,-0.008695512,0.06158099,-0.32846156,-0.031967714,-0.0801757,0.8963901,2016-11-25 20:05:48,62.29921195536653
0.121992,-1.74616,9.984208,-0.004319679,0.002015695,-0.0011950731,0.0,0.1233506,-1.6875906,9.659567,-0.009405414,0.062157474,-0.32703298,-0.03210046,-0.08042871,0.8958878,2016-11-25 20:05:49,58.3021768656188
0.123188004,-1.738984,9.9913845,5.49268E-4,-4.2410195E-4,-0.0011838675,0.0,0.12402181,-1.6871725,9.659631,8.3381135E-4,0.053007513,-0.3269687,-0.03216681,-0.08038177,0.89531046,2016-11-25 20:05:50,44.41676053849477
0.124384,-1.7641001,10.026069,6.115064E-4,0.0068159252,0.0013849959,0.0,0.12077304,-1.6910548,9.658993,-0.0071989717,0.05630115,-0.3323919,-0.03243681,-0.08047547,0.89511704,2016-11-25 20:05:51,41.3799818431393
0.12558,-1.766492,9.988993,7.599108E-4,0.0018796027,-0.0010709018,0.0,0.119054034,-1.703461,9.656835,0.0030420346,0.037915014,-0.32139352,-0.032825034,-0.08100023,0.8949128,2016-11-25 20:05:52,47.235793294547236
0.1495,-1.7581201,9.993776,0.005191546,0.009571046,0.0011886954,0.0,0.13368867,-1.6856526,9.659767,-0.024183333,0.06529139,-0.33042204,-0.031690285,-0.08052767,0.89530104,2016-11-25 20:05:54,61.68459538471843
0.096876,-1.809548,9.99258,0.008031495,-0.019806534,-0.0031801015,0.0,0.12569194,-1.6983272,9.657652,0.0036999322,0.13035686,-0.35406363,-0.032313038,-0.08094799,0.8954213,2016-11-25 20:05:55,47.363271440933886
0.148304,-1.750944,9.985404,0.0051804148,-0.0024879426,-7.901937E-4,0.0,0.14127526,-1.6879919,9.65925,-0.009420758,0.06654007,-0.32974225,-0.03137041,-0.0808159,0.8954183,2016-11-25 20:05:56,60.58623859395658
0.15069601,-1.7533361,9.997364,2.1035224E-4,-6.726384E-5,0.0016476065,0.0,0.14125367,-1.684958,9.6597805,-0.0070503387,0.06479002,-0.3304086,-0.031318076,-0.080668874,0.89534837,2016-11-25 20:05:57,28.565636956901997
0.1495,-1.74616,9.987796,2.5756843E-4,-0.0024909675,-8.1378967E-4,0.0,0.13958423,-1.6834667,9.660066,-0.009915765,0.059105393,-0.3265338,-0.03132784,-0.08057518,0.8955355,2016-11-25 20:05:58,22.422035571668633
0.15069601,-1.749748,9.99856,0.0027048606,-0.0024812967,-0.0032939687,0.0,0.1440723,-1.6864442,9.65948,-0.0054276967,0.04895181,-0.31037587,-0.031255588,-0.080788136,0.8951599,2016-11-25 20:05:59,21.51681614510921
0.154284,-1.72822,9.990189,-0.004665643,-2.3975968E-5,-0.0033198744,0.0,0.14605923,-1.680511,9.660484,-0.008224771,0.04651304,-0.34166417,-0.030966694,-0.08058226,0.89552706,2016-11-25 20:06:00,66.4284011714447
0.166244,-1.729416,10.002149,1.0574609E-4,2.2634864E-5,-9.023398E-4,0.0,0.14971966,-1.6810167,9.660341,-0.021308344,0.041223407,-0.33702305,-0.030823652,-0.0806826,0.8954486,2016-11-25 20:06:01,50.735346640374175
0.163852,-1.7342,10.005736,-0.0023441873,-4.708767E-6,0.0015071109,0.0,0.14782332,-1.6789874,9.660722,-0.012440672,0.049232528,-0.33066288,-0.03090328,-0.08053128,0.89525,2016-11-25 20:06:02,64.17526055108966
0.15069601,-1.729416,9.981816,1.0745227E-4,0.0024080426,-9.506121E-4,0.0,0.14743929,-1.6797701,9.660592,0.0027232785,0.04964593,-0.31883216,-0.030935466,-0.080560125,0.89526415,2016-11-25 20:06:03,35.323259476878135
0.160264,-1.713868,9.96866,-0.019344384,0.0073830783,-9.806231E-4,0.0,0.1502831,-1.6852702,9.659591,-0.020744901,0.032185823,-0.32820553,-0.030937986,-0.080875546,0.8951924,2016-11-25 20:06:04,42.55096649982663
0.0,-1.988948,10.029656,-0.08881774,0.050280884,-0.015270151,0.0,0.09737572,-1.7510471,9.648562,0.048339725,0.22952889,-0.31770694,-0.03495253,-0.08269581,0.89443964,2016-11-25 20:06:05,51.27796195657736
0.205712,-1.857388,9.965073,0.008354822,-0.0030926764,-9.726137E-4,0.0,0.19975317,-1.8044603,9.637136,-0.0011748342,0.038575813,-0.33152446,-0.031066747,-0.08762206,0.896124,2016-11-25 20:06:06,54.478996033655875
0.20451601,-1.8274881,9.983012,-0.027951526,0.0068008155,0.0014100373,0.0,0.1942299,-1.8068224,9.636808,-0.012678097,0.067309745,-0.33185294,-0.031439163,-0.08758513,0.8957948,2016-11-25 20:06:07,34.66121520491748
0.23441601,-1.83586,9.96268,0.042361893,-0.007704109,0.00877247,0.0,0.21812932,-1.7832301,9.64069,-0.024658678,0.06937398,-0.33275372,-0.029969262,-0.08696823,0.8950757,2016-11-25 20:06:08,33.2711976707765
0.224848,-1.760512,9.9866,0.0067943037,0.004528299,0.0016294867,0.0,0.22144769,-1.7001559,9.655612,0.009755689,0.092648186,-0.35012394,-0.028004657,-0.083166145,0.8950897,2016-11-25 20:06:09,38.22042551083823
0.22724001,-1.765296,9.988993,0.0019798446,-0.002998367,-0.00313662,3.0,0.21016774,-1.7051675,9.65498,-0.018268282,0.036208503,-0.33281568,-0.028639318,-0.08314363,0.8950602,2016-11-25 20:06:10,40.90066348915687
0.23920001,-1.719848,9.99856,0.0015930459,-5.366653E-4,-3.996566E-4,0.0,0.21307887,-1.677387,9.659781,-0.015357144,0.035284955,-0.32203475,-0.027947031,-0.08189771,0.8948014,2016-11-25 20:06:11,29.28285808298313
0.194948,-1.754532,9.979424,0.014152006,0.0040504783,0.009259157,0.0,0.19936664,-1.6967126,9.656697,-0.012325357,0.09011136,-0.3454507,-0.02898337,-0.08249498,0.8948955,2016-11-25 20:06:12,34.69735890385563
0.19853601,-1.78802,9.993776,3.1652674E-4,0.0037985742,0.0018576682,0.0,0.18111444,-1.7129487,9.654192,-0.01861757,0.085835285,-0.339585,-0.030227024,-0.08282277,0.89464,2016-11-25 20:06:13,35.54717188018044
0.148304,-1.760512,9.969856,0.0045002904,0.005761206,0.00542102,0.0,0.14966139,-1.6917803,9.658462,-0.026150614,0.051987816,-0.34607846,-0.030969435,-0.081218466,0.89594173,2016-11-25 20:06:14,35.70341552245896
0.200928,-1.7641001,9.993776,-0.007410627,0.02341044,0.01274576,3.0,0.18343809,-1.7026526,9.65597,0.0052341013,0.06981953,-0.3617267,-0.02956586,-0.082513794,0.8963806,2016-11-25 20:06:15,57.84704075166681
2.279576,0.576472,7.653204,1.0453256,-5.0026026,-1.30047,0.0,0.58912444,-0.9988224,9.737847,1.7516365,1.5869298,2.431483,0.00434937,-0.059068125,0.89474547,2016-11-25 20:06:16,71.10644147464198
1.185236,-1.24384,9.983012,-0.037366398,-0.007066205,0.01195804,0.0,1.1901753,-1.182248,9.6621,-0.005824688,0.14052813,-0.36636078,0.024683515,-0.08222392,0.875724,2016-11-25 20:06:17,63.081768087605774
1.3706161,-1.437592,9.996168,0.025904566,-0.050263464,0.0409503,3.0,1.2553828,-1.2751842,9.642008,-0.042277154,0.04759192,-0.33861238,0.026289288,-0.08776855,0.8802342,2016-11-25 20:06:18,64.0278128910492
1.376596,-1.350284,9.99258,-0.02012951,0.008620396,-0.0029352233,0.0,1.3323292,-1.2889785,9.629839,-0.044266865,0.061305534,-0.36274144,0.02977803,-0.090155825,0.8816414,2016-11-25 20:06:19,67.57551961338771
1.35148,-1.394536,9.996168,-0.006752711,0.0033776462,-2.4288893E-6,0.0,1.3031182,-1.3466271,9.625946,-0.048361734,0.05628098,-0.35945758,0.02721733,-0.09204612,0.88221836,2016-11-25 20:06:20,65.11072236977044
1.3443041,-1.3921441,9.98062,-0.0016200785,-0.0039627403,1.4887005E-4,0.0,1.2963998,-1.3578581,9.6252775,-0.05268822,0.04504998,-0.3876339,0.026764134,-0.09236418,0.8827901,2016-11-25 20:06:21,32.07395029727692
1.337128,-1.420848,9.988993,7.9374015E-4,0.0011174679,2.912432E-4,0.0,1.2975886,-1.3670384,9.623818,-0.04312734,0.056201782,-0.37474167,0.026733937,-0.092774905,0.8834103,2016-11-25 20:06:22,23.501779578571117
1.3490881,-1.4184561,9.996168,-0.0016538166,0.0011889786,-0.0020672157,3.0,1.2969356,-1.3665178,9.6239805,-0.056936525,0.0507422,-0.37218848,0.026804933,-0.09270989,0.88385123,2016-11-25 20:06:23,21.257416931281654
1.3550681,-1.41128,9.993776,-0.001680309,-0.0011932105,-0.001983814,3.0,1.2916002,-1.3687872,9.624374,-0.053899787,0.05923691,-0.38136196,0.026558656,-0.092672154,0.8841077,2016-11-25 20:06:24,20.434927555591106
1.337128,-1.425632,9.990189,7.1356446E-4,-0.0035550147,-0.001874052,0.0,1.2947087,-1.3720652,9.623491,-0.038831398,0.053566758,-0.36071664,0.026748432,-0.09286068,0.88470155,2016-11-25 20:06:25,18.605953246847363
1.3490881,-1.4184561,9.987796,-0.0017938819,-0.0035093576,-0.0017698035,0.0,1.2936314,-1.3629847,9.624925,-0.05306465,0.043511372,-0.36167526,0.027060268,-0.09237508,0.88546723,2016-11-25 20:06:27,21.18351284872635
1.334736,-1.4184561,9.983012,6.18862E-4,-0.0010103881,-0.0017296225,0.0,1.29269,-1.3708144,9.62394,-0.049222004,0.046445526,-0.36385554,0.02683796,-0.09271129,0.88546,2016-11-25 20:06:28,21.75865005087603
1.295268,-1.510548,10.005736,0.0065591875,-0.0018857121,0.0023654103,0.0,1.235257,-1.433389,9.622367,-0.048051063,0.07955109,-0.37978142,0.022954296,-0.094175294,0.88637096,2016-11-25 20:06:29,19.601631498818634
1.288092,-1.5081561,10.00454,0.0014402643,6.852895E-4,-0.002316609,0.0,1.240076,-1.4244899,9.623069,-0.043232117,0.031042205,-0.3503747,0.023587175,-0.09382833,0.887379,2016-11-25 20:06:30,60.71651314441677
1.283308,-1.484236,9.99258,0.0013051853,-0.0015610754,-0.0021988899,0.0,1.2380642,-1.4241362,9.62338,-0.041655954,0.03737594,-0.37159285,0.023558727,-0.09375085,0.88765234,2016-11-25 20:06:31,46.60344243836314
1.292876,-1.4507481,10.036832,0.0035949424,0.0010402203,-0.0020795465,0.0,1.2346257,-1.4206284,9.624341,-0.033134356,0.049255613,-0.3622586,0.023474006,-0.0935107,0.88763416,2016-11-25 20:06:32,20.22741612436972
1.29168,-1.493804,9.987796,0.0010916367,-0.0012797415,-0.001975827,0.0,1.2393997,-1.4183443,9.624062,-0.05228037,0.07545973,-0.36373395,0.023881339,-0.09348299,0.88828254,2016-11-25 20:06:33,19.514722281703914
1.2904841,-1.479452,10.005736,-0.0014726296,-0.0012544543,-0.0042550564,0.0,1.2346187,-1.4237564,9.623878,-0.048689358,0.035363723,-0.35435063,0.023663795,-0.093588606,0.8888819,2016-11-25 20:06:34,40.39875598410488
1.2964641,-1.4603161,9.9866,8.747354E-4,-0.0010782778,6.922111E-4,0.0,1.2426629,-1.4186264,9.623601,-0.041841246,0.07158961,-0.3761556,0.024166366,-0.093535826,0.888953,2016-11-25 20:06:35,42.31749580791618
1.289288,-1.48304,9.994972,8.0356933E-4,0.001382649,-0.0016897842,0.0,1.2367203,-1.4208064,9.624043,-0.077683695,0.08615356,-0.26209262,0.023830786,-0.09350095,0.88889986,2016-11-25 20:06:36,41.28904410934766
1.284504,-1.4507481,9.978229,-0.009138171,-0.0033496916,8.7827444E-4,0.0,1.2393416,-1.4107431,9.625187,-0.04875044,0.06392492,-0.37696108,0.024218393,-0.09308877,0.8891014,2016-11-25 20:06:37,38.59444866368986
1.292876,-1.473472,9.999756,-0.0019432474,-7.8210235E-4,-0.001534693,0.0,1.2419983,-1.4095638,9.625018,-0.05326982,0.057928167,-0.37473816,0.024354983,-0.09309959,0.88903874,2016-11-25 20:06:38,34.196463402294334
1.288092,-1.4722761,9.981816,-0.0018854849,-7.66173E-4,9.26584E-4,3.0,1.2377228,-1.4117041,9.625255,-0.055153295,0.01512392,-0.35177755,0.024023784,-0.09312073,0.8886297,2016-11-25 20:06:39,26.09762147414168
1.298856,-1.4710801,9.99856,0.009798608,0.0021460503,-0.0014019981,0.0,1.2654396,-1.3892856,9.624913,-0.05494433,0.084186494,-0.38441083,0.025835734,-0.092728466,0.88875175,2016-11-25 20:06:40,20.27425265019046
1.3167961,-1.45314,9.9866,2.1848269E-4,-2.9724836E-4,0.0010631382,0.0,1.2620538,-1.3973013,9.624197,-0.0655062,0.053446785,-0.37436348,0.02552309,-0.09301142,0.8888636,2016-11-25 20:06:41,35.85748261864472
1.310816,-1.449552,9.99258,3.0560605E-4,0.0021790266,0.00108058,0.0,1.2630253,-1.4007804,9.623564,-0.034634676,0.054751582,-0.36662558,0.025539314,-0.093180366,0.8890968,2016-11-25 20:06:42,29.34012418948614
1.298856,-1.451944,9.99258,3.2289512E-4,0.0021716356,0.0011067837,0.0,1.261072,-1.3993084,9.624034,-0.052135848,0.06937954,-0.37333062,0.02550766,-0.09306029,0.8892236,2016-11-25 20:06:43,29.916050178297997
1.3060321,-1.4399841,9.9866,3.7019327E-4,-2.7175248E-4,0.003532663,0.0,1.264513,-1.4014878,9.623263,-0.055870943,0.040888183,-0.36692545,0.025617246,-0.09324059,0.8892144,2016-11-25 20:06:44,36.717754103268305
1.2964641,-1.463904,9.988993,3.7067384E-4,-3.220737E-4,-0.0037742779,0.0,1.2563705,-1.4021872,9.624229,-0.05324951,0.046168756,-0.3635662,0.025094375,-0.09311897,0.8885944,2016-11-25 20:06:45,41.40174852469858
1.32158,-1.45314,9.990189,3.8558803E-4,0.0020838678,-0.001295127,0.0,1.2609111,-1.4026681,9.623566,-0.04870894,0.04329583,-0.3606424,0.025362648,-0.09322798,0.88892186,2016-11-25 20:06:46,41.94250361431451
1.2904841,-1.454336,9.98062,0.0028150063,0.0020454228,-0.0012862608,0.0,1.2547587,-1.4032189,9.624289,-0.060841423,0.045137074,-0.3659002,0.024959816,-0.09313873,0.8884175,2016-11-25 20:06:47,39.93373663542287
1.29168,-1.4722761,10.01052,6.932635E-4,-5.797744E-4,0.0011029467,0.0,1.2503887,-1.4197731,9.62243,-0.04966332,0.053698856,-0.3880898,0.024430435,-0.09378575,0.8886218,2016-11-25 20:06:48,39.740886303431594
1.292876,-1.456728,9.973444,-0.0043920446,0.0019710064,0.0011941567,0.0,1.2472122,-1.4226476,9.622418,-0.042075787,0.037668493,-0.37016252,0.024195401,-0.093849994,0.8885096,2016-11-25 20:06:49,38.97296745974974
1.298856,-1.442376,9.984208,0.0077386014,-0.002929002,-0.001185216,3.0,1.2524706,-1.4132768,9.6231165,-0.046385467,0.051823273,-0.3658768,0.02470812,-0.09352629,0.8887957,2016-11-25 20:06:50,35.80697162462225
1.295268,-1.473472,9.999756,-0.002083147,-0.0028850883,-0.0011709332,0.0,1.2547827,-1.411291,9.623107,-0.03689736,0.052612964,-0.36588615,0.024893535,-0.093479775,0.8889577,2016-11-25 20:06:51,41.854699412847374
1.300052,-1.469884,9.99856,3.684163E-4,-0.0028740764,-0.0011543185,0.0,1.2550526,-1.413045,9.622814,-0.040215544,0.05085896,-0.3613935,0.02497775,-0.093537085,0.88948673,2016-11-25 20:06:52,38.295850432293925
1.2964641,-1.4710801,9.99258,3.5538338E-4,0.0020281225,0.0013095737,0.0,1.2524422,-1.4113911,9.623396,-0.041629795,0.057296883,-0.3691852,0.024852661,-0.09341149,0.8892932,2016-11-25 20:06:53,26.438476955090845
1.30962,-1.4615121,9.993776,-0.002120234,-4.5873225E-4,0.0013260096,0.0,1.2491745,-1.4132991,9.623542,-0.06283756,0.039840866,-0.37023443,0.024675202,-0.09341903,0.8893736,2016-11-25 20:06:54,40.80542536306283
1.2857001,-1.45912,9.97464,-0.0069505274,-4.7308207E-4,0.0013452843,0.0,1.2552339,-1.4149923,9.622505,-0.051994245,0.063263685,-0.37605566,0.024907684,-0.09364014,0.88931835,2016-11-25 20:06:55,37.33317897901923
1.29168,-1.474668,9.99258,5.509369E-4,-6.548017E-4,-0.0010995194,0.0,1.24314,-1.4271218,9.622283,-0.042560063,0.060702305,-0.36072952,0.024197228,-0.093886346,0.889893,2016-11-25 20:06:56,31.604456687170106
1.30962,-1.4507481,9.988993,0.0026938543,-0.0029574484,-0.0010832697,0.0,1.246516,-1.415178,9.6236105,-0.04037994,0.024806086,-0.35940146,0.024623768,-0.09341389,0.8899173,2016-11-25 20:06:57,55.16820971279681
1.286896,-1.4878241,10.002149,3.3628568E-4,-0.0029263347,-0.0010829568,3.0,1.2412391,-1.4244474,9.622925,-0.04565686,0.06337664,-0.3792238,0.024080286,-0.09374207,0.8894753,2016-11-25 20:06:58,48.70417508777265
1.29168,-1.4926081,9.987796,3.4428574E-4,-4.671663E-4,-0.0010929853,0.0,1.2449355,-1.4234759,9.622591,-0.04076456,0.07630817,-0.37238136,0.02440898,-0.09374782,0.89011896,2016-11-25 20:06:59,65.8494844514315
1.2904841,-1.473472,9.996168,2.0804256E-4,-4.0240586E-4,-0.0011517256,0.0,1.244965,-1.4267935,9.622095,-0.05747896,0.059834585,-0.37287703,0.024348902,-0.093897976,0.8901754,2016-11-25 20:07:00,69.76531678374765
1.314404,-1.45314,9.988993,-0.004932953,-2.297908E-4,-0.001043044,0.0,1.254746,-1.405499,9.623959,-0.042913992,0.038073126,-0.37340546,0.025250355,-0.093151025,0.8900584,2016-11-25 20:07:01,66.32280447091816
1.3060321,-1.467492,9.993776,-0.0073247068,-0.0027412176,0.0013996959,0.0,1.2523946,-1.412331,9.623266,-0.062009443,0.04200506,-0.37649056,0.024959339,-0.09341898,0.8899132,2016-11-25 20:07:02,37.227148022208716
1.300052,-1.468688,9.993776,1.4530495E-5,-3.4488738E-4,-0.0010521188,0.0,1.2521065,-1.4126681,9.623252,-0.055121586,0.045255877,-0.36574063,0.024811108,-0.09346174,0.88930476,2016-11-25 20:07:03,40.00598735346726
1.300052,-1.4770601,9.997364,3.4535304E-5,0.0021024346,-0.0010233745,0.0,1.2499949,-1.4132493,9.623444,-0.045273267,0.05424261,-0.36435238,0.024735346,-0.0934302,0.8894736,2016-11-25 20:07:04,31.175480158197075
1.3120121,-1.457924,9.993776,8.375943E-5,0.0020528883,-0.0010027662,0.0,1.2475283,-1.4184219,9.623,-0.057307698,0.047874242,-0.35761985,0.024530534,-0.09360436,0.8895909,2016-11-25 20:07:05,38.19228883253637
1.3120121,-1.45314,9.988993,0.002528252,-3.7552416E-4,0.001448892,0.0,1.2519908,-1.4185038,9.62241,-0.040885262,0.05138035,-0.37615037,0.024718361,-0.09371601,0.889506,2016-11-25 20:07:07,41.59815365106361
1.3060321,-1.457924,9.987796,-0.002357753,-3.78415E-4,-0.0010081157,0.0,1.2530078,-1.4172046,9.622469,-0.044652212,0.0407194,-0.35456398,0.024757449,-0.09368963,0.88932955,2016-11-25 20:07:08,52.68803524119243
1.1661,-1.6576561,9.996168,-0.004688306,-0.06637821,0.10630385,3.0,1.2487714,-1.422142,9.622291,0.0049314653,0.13385405,-0.27819735,0.024365606,-0.09384059,0.88892275,2016-11-25 20:07:09,45.60695697667556
1.367028,-1.821508,10.313108,0.024935532,0.028783962,-0.001318939,3.0,1.2500932,-1.50322,9.609786,-0.16238296,0.58978,-0.69375443,0.022904115,-0.097533,0.89018595,2016-11-25 20:07:10,58.942746299051755
1.319188,-1.547624,9.979424,-0.002350239,0.009808794,-9.567663E-4,0.0,1.2629621,-1.4762268,9.612289,-0.034697805,0.06182912,-0.36593935,0.024148151,-0.09657437,0.89041686,2016-11-25 20:07:11,62.830490538400056
1.337128,-1.35148,9.9567,-0.034334175,-0.04147081,0.02852355,0.0,1.3000923,-1.3721583,9.622751,-0.09444369,0.14676176,-0.47507602,0.02819969,-0.09263393,0.8905439,2016-11-25 20:07:12,38.80103399375128
1.320384,-1.5619761,9.972248,0.002032742,-0.0046028793,-7.6648593E-4,0.0,1.2714438,-1.4963788,9.608053,-0.052528206,0.06679317,-0.3785469,0.024438819,-0.09761361,0.8919508,2016-11-25 20:07:13,57.235416531830154
1.331148,-1.532076,9.96866,-0.0051148627,-0.009463891,0.001812309,3.0,1.2754265,-1.5018306,9.606675,-0.043761548,0.03263751,-0.36557287,0.024423521,-0.0979768,0.8915798,2016-11-25 20:07:14,67.60042626218768
1.314404,-1.5619761,9.983012,-0.019172413,0.004813701,0.0019442514,0.0,1.2657169,-1.5191646,9.605231,-0.06543124,0.026067484,-0.37299746,0.02352835,-0.09856912,0.8912959,2016-11-25 20:07:15,64.6129247872938
1.317992,-1.606228,9.978229,0.0051365346,0.0023096502,-0.0028843433,3.0,1.2646002,-1.5258424,9.604322,-0.06535189,0.08158158,-0.3894541,0.023458399,-0.098821186,0.8918681,2016-11-25 20:07:16,57.734642253072586
1.302444,-1.5942681,9.985404,4.4556335E-4,0.0019702613,0.0021644756,0.0,1.2530233,-1.5299107,9.605192,-0.05300883,0.07033727,-0.37303603,0.0229224,-0.09872245,0.8922842,2016-11-25 20:07:17,59.50044775388675
1.302444,-1.589484,9.978229,0.00288756,-4.8844516E-4,-3.2572448E-4,3.0,1.2510898,-1.5300834,9.605416,-0.04417831,0.051028617,-0.3692232,0.022942346,-0.09865983,0.892792,2016-11-25 20:07:18,40.36298052682314
1.3060321,-1.589484,9.990189,4.6759658E-4,0.0019272268,-3.33637E-4,0.0,1.2519468,-1.5359447,9.604367,-0.048105277,0.060715314,-0.37386137,0.022804912,-0.09896182,0.8925684,2016-11-25 20:07:19,35.53799024656015
1.30962,-1.60264,9.977033,-0.0044691265,0.0019308776,0.0021040663,0.0,1.252042,-1.5354944,9.604427,-0.04681392,0.05518559,-0.3642337,0.022788791,-0.098950185,0.89243364,2016-11-25 20:07:20,39.20897411809791
1.289288,-1.6050321,9.972248,0.0030648485,-6.9384277E-4,-3.4929812E-4,0.0,1.2432085,-1.5454803,9.603974,-0.056843586,0.052375793,-0.37784198,0.022120386,-0.0992185,0.892262,2016-11-25 20:07:21,26.28788911445724
1.280916,-1.6421081,9.979424,-0.004005797,0.016039595,0.0068895817,0.0,1.2357457,-1.5543658,9.603504,-0.03321049,0.061430328,-0.36396074,0.021609372,-0.09945181,0.8923978,2016-11-25 20:07:22,54.2350443231434
1.247428,-1.622972,9.99258,7.2163716E-4,0.0013287663,-6.049797E-4,3.0,1.2204832,-1.5610008,9.604379,-0.04368892,0.030875178,-0.35471362,0.020870129,-0.09938525,0.892918,2016-11-25 20:07:23,41.03542493997581
1.2964641,-1.50098,9.987796,0.027514784,-0.008356303,0.0066857636,0.0,1.2175555,-1.5588377,9.605102,-0.05020451,0.074898444,-0.33007073,0.02083367,-0.099207304,0.8931544,2016-11-25 20:07:24,42.18901080588991
1.271348,-1.6361281,9.979424,6.51611E-4,-0.0010050088,0.00178691,3.0,1.2197039,-1.5552948,9.605402,-0.050448038,0.060501378,-0.38359132,0.02109186,-0.09907512,0.89351267,2016-11-25 20:07:25,40.3500870193054
1.271348,-1.6732041,10.014109,0.003172407,-0.0010764748,-6.439239E-4,0.0,1.2162126,-1.5665292,9.604021,-0.04197934,0.057638828,-0.3538754,0.020683307,-0.09951614,0.89350104,2016-11-25 20:07:26,38.67950837291974
1.271348,-1.6421081,9.979424,-0.006607434,0.0038492382,-6.8995357E-4,3.0,1.2147578,-1.5696427,9.603697,-0.063766226,0.060505323,-0.40203884,0.02059767,-0.09961691,0.89371884,2016-11-25 20:07:27,44.164550105435474
1.260584,-1.6098161,9.981816,-0.0065344926,-0.010911107,0.012845546,3.0,1.1871873,-1.5799497,9.6054535,-0.07220058,0.07531433,-0.3512474,0.019451676,-0.09939728,0.8953194,2016-11-25 20:07:28,28.197418111187822
1.254604,-1.6445,9.975836,0.0057557933,0.0016152114,-0.0019445196,3.0,1.2088484,-1.585945,9.601764,-0.03738361,0.06692717,-0.3740712,0.02034495,-0.100161985,0.8953481,2016-11-25 20:07:29,41.97094499781596
1.252212,-1.655264,9.984208,0.0032785311,-0.0032102019,-0.0017995909,3.0,1.2034281,-1.5870321,9.602263,-0.06313582,0.052683983,-0.38194415,0.0199871,-0.10010644,0.89499867,2016-11-25 20:07:30,25.01782466027803
1.247428,-1.6468921,9.96866,0.0032205265,0.0017013252,-0.0016914532,3.0,1.2020928,-1.5906144,9.60184,-0.051315323,0.05029767,-0.36562487,0.020001939,-0.10021178,0.89566517,2016-11-25 20:07:31,22.619780474800827
1.240252,-1.6576561,9.979424,-0.0016864594,-0.003166005,-0.0015691668,3.0,1.2013639,-1.5868247,9.602558,-0.049652066,0.05289134,-0.36729777,0.019998252,-0.10002964,0.8954471,2016-11-25 20:07:32,24.236234128319808
1.251016,-1.65048,9.975836,7.56206E-4,-7.0267916E-4,9.887442E-4,3.0,1.2000383,-1.589319,9.602311,-0.06652561,0.05757307,-0.38668227,0.019726532,-0.10014641,0.8947695,2016-11-25 20:07:33,22.938371322400624
1.251016,-1.655264,9.9913845,7.2623417E-4,-7.503629E-4,0.0011142045,0.0,1.1987565,-1.5869626,9.6028595,-0.067807466,0.051557317,-0.38015258,0.019836813,-0.09998454,0.8952896,2016-11-25 20:07:34,25.59311520815905
1.252212,-1.655264,9.9913845,6.924551E-4,0.001654163,-0.0012254044,3.0,1.1970323,-1.5919485,9.602252,-0.046807636,0.07407953,-0.37836862,0.019571673,-0.100192145,0.89495283,2016-11-25 20:07:35,42.10475777391342
1.239056,-1.6624401,9.971052,6.491747E-4,-0.003213361,-0.0011606812,3.0,1.1990571,-1.5901905,9.602287,-0.048370942,0.061485566,-0.37354806,0.019792,-0.10013903,0.89533335,2016-11-25 20:07:36,39.573577025232936
1.239056,-1.643304,10.02248,0.0027242303,0.004157096,-0.010727197,3.0,1.2009296,-1.5781875,9.604034,-0.015402371,0.07588044,-0.37299803,0.020122403,-0.09962736,0.89527273,2016-11-25 20:07:37,32.605928303502175
1.246232,-1.6468921,9.973444,-0.0022241455,-6.3177943E-4,0.0018724203,0.0,1.2074139,-1.5710198,9.604398,-0.04360212,0.05195216,-0.3630676,0.020460023,-0.09946579,0.89475083,2016-11-25 20:07:38,39.40059639430482
1.2641721,-1.6205801,9.969856,0.0025187228,-4.621446E-4,-5.9392303E-4,0.0,1.2122071,-1.5615277,9.605341,-0.05076894,0.06264029,-0.37647536,0.02085277,-0.09914172,0.89459556,2016-11-25 20:07:39,40.63855436805067
1.234272,-1.6445,9.98062,0.00264268,0.001976654,-6.245747E-4,0.0,1.212975,-1.5667187,9.6044,-0.052392963,0.047881257,-0.3594763,0.02083915,-0.09938657,0.89486647,2016-11-25 20:07:40,37.65522090113421
1.266564,-1.6205801,9.971052,-0.0022214428,-4.7247112E-4,0.0018472373,3.0,1.2098858,-1.5694095,9.604351,-0.050698213,0.033230655,-0.35952482,0.020750714,-0.0994178,0.895364,2016-11-25 20:07:41,37.42406429108007
1.2318801,-1.6791841,9.977033,0.003226392,0.0016399175,-8.919388E-4,0.0,1.1909937,-1.606372,9.600598,-0.055238344,0.032147974,-0.3549065,0.01915299,-0.10069199,0.8956969,2016-11-25 20:07:42,37.743211868630226
1.236664,-1.6636361,9.977033,0.0031179003,-7.404685E-4,-8.0393255E-4,0.0,1.1908073,-1.6022639,9.60131,-0.06738464,0.05778408,-0.36376375,0.019217106,-0.10049994,0.8956336,2016-11-25 20:07:43,37.90376782607673
1.235468,-1.6624401,9.993776,0.003102295,-6.875098E-4,-7.6327473E-4,3.0,1.1872351,-1.6050338,9.601289,-0.061388973,0.05860241,-0.38052726,0.018917039,-0.100561984,0.89531666,2016-11-25 20:07:44,35.52366953855737
1.246232,-1.6744001,9.978229,6.5854564E-4,-6.8733096E-4,0.0017396659,3.0,1.1922061,-1.5996248,9.601574,-0.050437883,0.073579326,-0.37785015,0.0193069,-0.1004151,0.89549524,2016-11-25 20:07:45,43.418236864512735
1.2378601,-1.666028,9.981816,-0.0018139295,-6.3709915E-4,-6.933585E-4,3.0,1.1896484,-1.6006002,9.60173,-0.044623718,0.071407825,-0.37410513,0.019167831,-0.100402474,0.89550227,2016-11-25 20:07:46,35.4184472259313
1.229488,-1.664832,9.969856,5.5164285E-4,-6.262213E-4,-6.5549463E-4,0.0,1.1887559,-1.6012999,9.601723,-0.040732116,0.05516016,-0.37411273,0.019219745,-0.10039411,0.8959705,2016-11-25 20:07:48,25.706489558672658
1.24384,-1.672008,9.977033,5.4897927E-4,0.0018324405,-6.3434243E-4,3.0,1.193241,-1.600036,9.6013775,-0.044619188,0.06360007,-0.37326223,0.0194602,-0.10043555,0.8959844,2016-11-25 20:07:49,36.53959822052159
1.2534081,-1.658852,9.9866,0.007845195,-5.3590536E-4,-6.015599E-4,3.0,1.1955945,-1.6054032,9.600187,-0.04226561,0.059428927,-0.38402036,0.019364439,-0.10075528,0.8955899,2016-11-25 20:07:50,52.83644544959884
1.234272,-1.669616,9.977033,0.0028936882,-0.002968818,0.0018320456,3.0,1.192099,-1.5993292,9.601637,-0.04815306,0.04875877,-0.36343583,0.019389216,-0.10038336,0.8958446,2016-11-25 20:07:51,37.81329437805031
1.234272,-1.658852,9.98062,0.0028510578,-0.0028627515,-5.6228787E-4,3.0,1.1954716,-1.5944369,9.602032,-0.04358429,0.07637509,-0.37260816,0.019810848,-0.10020073,0.8965307,2016-11-25 20:07:52,31.525919886825182
1.24982,-1.63852,9.972248,9.3214214E-5,0.004604429,-3.79093E-4,3.0,1.2003632,-1.5852226,9.602947,-0.06261282,0.052101504,-0.37886897,0.020166488,-0.099896446,0.8962302,2016-11-25 20:07:53,44.853556875565005
1.265368,-1.59666,9.961484,0.004513314,0.0048069507,0.002137199,0.0,1.2133303,-1.5627143,9.605007,-0.04366583,0.05786577,-0.36843583,0.021303799,-0.09913191,0.8964478,2016-11-25 20:07:54,70.98920844816637
1.241448,-1.672008,9.978229,-0.0024961438,0.0022571087,-2.7035177E-4,0.0,1.209195,-1.5679,9.604683,-0.05976108,0.06583616,-0.3711527,0.020952864,-0.099289805,0.89624506,2016-11-25 20:07:55,45.46129182822141
1.26178,-1.666028,9.994972,1.7204136E-4,-2.5817752E-4,-3.0328333E-4,3.0,1.2070082,-1.5866978,9.601871,-0.049987875,0.04943024,-0.38233754,0.0204852,-0.10010612,0.89639556,2016-11-25 20:07:56,32.670880434584994
1.252212,-1.654068,9.983012,0.0074806735,-3.5586953E-4,0.002141662,3.0,1.2068697,-1.5883814,9.601609,-0.050126333,0.06449074,-0.36585575,0.020456199,-0.10017848,0.89645267,2016-11-25 20:07:57,28.72730299593265
1.272544,-1.658852,9.9913845,-0.0047188066,0.004522741,-3.016293E-4,0.0,1.2083963,-1.5824338,9.602398,-0.056971744,0.0465183,-0.3818097,0.02067269,-0.0999327,0.8965324,2016-11-25 20:07:58,44.22741251292061
1.2426441,-1.68636,9.979424,-0.0017876253,-6.548166E-4,-0.002955094,0.0,1.1883367,-1.6090736,9.600476,-0.047131315,0.05575842,-0.374163,0.01920592,-0.10071308,0.8967042,2016-11-25 20:07:59,28.79624441773192
1.236664,-1.6744001,9.965073,-0.004165424,0.0017789155,-4.566759E-4,3.0,1.1843044,-1.6193188,9.59925,-0.047575697,0.06704115,-0.37419337,0.018813437,-0.10109638,0.8967633,2016-11-25 20:08:00,27.698084405835175
1.230684,-1.675596,9.981816,-0.0018077232,-0.0030857176,-4.278794E-4,3.0,1.1854917,-1.6176705,9.599382,-0.04399638,0.054337595,-0.37047347,0.019098507,-0.10100975,0.89759,2016-11-25 20:08:01,36.83917889491808
1.235468,-1.691144,9.975836,6.013997E-4,-6.465614E-4,-4.144013E-4,3.0,1.1865984,-1.623263,9.598302,-0.03690956,0.055921063,-0.3703589,0.018967861,-0.10130673,0.8973159,2016-11-25 20:08:02,41.56876283344209
1.239056,-1.681576,9.984208,0.0029333588,0.0017960817,0.002047889,0.0,1.1872387,-1.6168547,9.599304,-0.050621424,0.074289374,-0.37892392,0.019274918,-0.10099605,0.89791703,2016-11-25 20:08:03,39.54795439802076
1.234272,-1.6899481,9.972248,0.002904594,-6.401092E-4,-3.624484E-4,0.0,1.1852363,-1.6211182,9.598833,-0.04425167,0.058065966,-0.3781997,0.018970853,-0.101172514,0.8974079,2016-11-25 20:08:04,40.41967829164931
1.240252,-1.688752,9.972248,0.0028771535,0.0017898083,-3.5189092E-4,0.0,1.1877823,-1.6184448,9.598969,-0.048881814,0.0655233,-0.3840426,0.01914499,-0.10110531,0.8973999,2016-11-25 20:08:05,41.25016968306415
1.228292,-1.6684201,9.972248,0.00255806,-5.608797E-4,-3.207773E-4,3.0,1.1858237,-1.604728,9.601514,-0.04844839,0.05292802,-0.38628188,0.01931899,-0.100428306,0.89729875,2016-11-25 20:08:06,36.823206829623956
1.2426441,-1.68038,9.969856,6.818399E-5,-4.9984455E-4,-3.0375272E-4,0.0,1.1883717,-1.6039807,9.601324,-0.04829247,0.06324337,-0.36614102,0.01938452,-0.10046394,0.8969996,2016-11-25 20:08:07,33.25708036193336
1.2486241,-1.6528721,9.981816,1.6421825E-4,0.001910314,-2.8827786E-4,0.0,1.1805322,-1.6024054,9.602553,-0.039387863,0.04807459,-0.37088966,0.019082267,-0.100209355,0.8971386,2016-11-25 20:08:08,35.163866174353956
1.2378601,-1.6851641,9.98062,1.9493699E-4,0.0018872619,-2.5443733E-4,0.0,1.1832961,-1.606832,9.601473,-0.060543828,0.06039207,-0.37197104,0.019047484,-0.100490324,0.89683515,2016-11-25 20:08:09,35.1513398536129
1.230684,-1.6851641,9.963876,-0.00452994,0.0018981546,-0.0027011111,3.0,1.1879214,-1.6120325,9.600031,-0.055918578,0.06834756,-0.374609,0.019198598,-0.10082706,0.8970237,2016-11-25 20:08:10,40.94803094909332
1.233076,-1.664832,9.971052,3.8529374E-4,-5.824268E-4,0.0021975562,3.0,1.1844434,-1.6166121,9.59969,-0.0402607,0.06496391,-0.37375265,0.01895812,-0.100958526,0.89710766,2016-11-25 20:08:11,32.951206364100145
1.234272,-1.672008,9.9913845,3.978461E-4,-5.521178E-4,-0.0026571006,0.0,1.187273,-1.6148882,9.59963,-0.050587084,0.069079965,-0.3893629,0.019135373,-0.10094009,0.8971413,2016-11-25 20:08:12,44.37642012784056
1.2259,-1.6851641,9.977033,0.002806263,0.0018649399,-2.034083E-4,0.0,1.1812048,-1.6207191,9.599397,-0.05545929,0.051289022,-0.3716554,0.018574817,-0.101103775,0.89649296,2016-11-25 20:08:13,35.72405732343229
1.230684,-1.677988,9.9913845,3.231112E-4,-5.7813525E-4,-1.8910319E-4,3.0,1.1832886,-1.6192975,9.59938,-0.04619944,0.06108254,-0.37884852,0.01869443,-0.10108595,0.8964575,2016-11-25 20:08:14,32.208073157617974
1.2211161,-1.666028,9.978229,-0.0021383725,-5.262643E-4,-1.9345433E-4,3.0,1.1856302,-1.6159301,9.599658,-0.049837798,0.064449966,-0.37976623,0.01897033,-0.10096423,0.89686084,2016-11-25 20:08:15,30.54933454117917
1.230684,-1.6947321,9.967464,0.004915202,-0.0053455085,-1.2362003E-4,3.0,1.1894212,-1.6064712,9.600778,-0.047242887,0.04879282,-0.39299864,0.019319506,-0.10061499,0.8967363,2016-11-25 20:08:16,35.85436934313189
1.236664,-1.661244,9.9866,5.353242E-5,-4.5518577E-4,-8.620322E-5,0.0,1.1885881,-1.6053969,9.60106,-0.036115855,0.070199184,-0.3687959,0.01929207,-0.100548565,0.8966887,2016-11-25 20:08:17,27.3412994459931
1.239056,-1.676792,9.966269,7.253513E-5,-4.6369433E-4,-7.729232E-5,0.0,1.1865398,-1.6111567,9.600349,-0.051320367,0.07161533,-0.37668344,0.019046333,-0.10077555,0.8965713,2016-11-25 20:08:18,43.566521624397566
1.233076,-1.654068,9.983012,8.539483E-5,-4.658401E-4,-6.955862E-5,0.0,1.1862483,-1.6112498,9.6003685,-0.052807607,0.0775022,-0.37905604,0.0190742,-0.100765124,0.8967572,2016-11-25 20:08:19,37.131194268923736
1.2270961,-1.68038,9.97464,1.409892E-4,-5.043298E-4,0.0023406968,3.0,1.1829854,-1.6143363,9.600254,-0.05487477,0.06484788,-0.3827578,0.018823413,-0.10084156,0.8966196,2016-11-25 20:08:20,28.929127012168255
1.2378601,-1.681576,9.96866,1.3158657E-4,-4.8814714E-4,-0.002536647,3.0,1.1838338,-1.6164517,9.599793,-0.0564182,0.057948332,-0.3748463,0.018975053,-0.100929536,0.8972871,2016-11-25 20:08:21,30.313512541792246
1.2270961,-1.6684201,9.977033,-0.0022349227,-5.078465E-4,-9.1187656E-5,3.0,1.1828921,-1.6116081,9.600723,-0.053771995,0.07475188,-0.37630877,0.01911619,-0.10066756,0.8976409,2016-11-25 20:08:22,41.52467421674651
1.222312,-1.670812,9.971052,1.9844063E-4,-4.964471E-4,-7.777661E-5,3.0,1.1816145,-1.6144409,9.600404,-0.049069446,0.057567224,-0.36825755,0.018870989,-0.10079444,0.89710665,2016-11-25 20:08:23,26.27052658271627
1.230684,-1.672008,9.967464,-0.0022461135,-4.6239793E-4,0.0023649037,0.0,1.1822654,-1.6125667,9.60064,-0.052006666,0.071401395,-0.3775883,0.018947791,-0.1007206,0.8971349,2016-11-25 20:08:24,37.02983890384147
1.234272,-1.6791841,9.973444,-0.0022592489,-4.46409E-4,-6.271899E-5,3.0,1.1843469,-1.6173444,9.59958,-0.05231712,0.06662381,-0.37745267,0.018975124,-0.10098347,0.8972651,2016-11-25 20:08:25,27.140988091034476
1.2318801,-1.6947321,9.967464,2.968479E-4,-0.005337447,0.0023013353,3.0,1.1796497,-1.6195004,9.599793,-0.06538637,0.05131167,-0.35451487,0.018792508,-0.10096337,0.89762,2016-11-25 20:08:26,42.64656652189095
1.234272,-1.676792,9.9567,-0.0021492373,0.0019777268,-1.4682859E-4,0.0,1.178859,-1.6177182,9.600191,-0.05541304,0.06864172,-0.38521278,0.018664006,-0.10088679,0.89707136,2016-11-25 20:08:27,21.540261267417883
1.224704,-1.670812,9.983012,3.0963495E-4,0.0019815117,-1.5095621E-4,3.0,1.1797756,-1.6243643,9.598957,-0.04732041,0.061995707,-0.37089902,0.018452113,-0.1012372,0.8965852,2016-11-25 20:08:28,25.94129151859773
1.224704,-1.682772,9.971052,3.1689182E-4,-4.208386E-4,-1.501441E-4,0.0,1.1790742,-1.6222618,9.5994,-0.045629825,0.060510293,-0.37165245,0.018459463,-0.101124555,0.8965669,2016-11-25 20:08:29,39.114835091154895
1.2378601,-1.669616,9.96866,3.3631176E-4,-0.0028382689,-1.3222545E-4,3.0,1.1771805,-1.6196567,9.60007,-0.055895492,0.05952742,-0.38294193,0.018467072,-0.10095355,0.8967427,2016-11-25 20:08:30,55.228345667174366
1.212744,-1.65646,9.9543085,0.005053347,0.0020175725,-1.3350695E-4,3.0,1.1790843,-1.6194165,9.599876,-0.05159962,0.0454156,-0.369979,0.018617332,-0.10097472,0.8969805,2016-11-25 20:08:31,36.28019942368577
1.2270961,-1.6791841,9.979424,1.8644147E-4,0.0019655377,-0.0025436133,0.0,1.1785856,-1.6197722,9.599878,-0.044922333,0.06539193,-0.36878306,0.018541636,-0.100988336,0.89678985,2016-11-25 20:08:33,40.662326098824586
1.2259,-1.6732041,9.978229,1.6495585E-4,-5.1368773E-4,0.0023762956,3.0,1.178002,-1.6163552,9.600527,-0.046702057,0.05326076,-0.37172085,0.018621689,-0.10080998,0.8969396,2016-11-25 20:08:34,26.404445557779322
1.2270961,-1.675596,9.97464,1.749564E-4,-5.572587E-4,0.00238166,3.0,1.1717254,-1.6189842,9.600851,-0.03503851,0.053023882,-0.3725924,0.018324584,-0.10078221,0.89716625,2016-11-25 20:08:35,18.40591227496112
1.20796,-1.677988,9.969856,1.5486963E-4,-5.2398443E-4,-6.0878694E-5,0.0,1.1727865,-1.6150775,9.601379,-0.049525592,0.059322543,-0.3636942,0.018401582,-0.10063441,0.89692944,2016-11-25 20:08:36,18.88392322606251
1.21394,-1.6947321,9.9866,1.8892065E-4,-5.593598E-4,-1.1019409E-5,0.0,1.1731935,-1.6150227,9.601339,-0.051510554,0.05459332,-0.37330022,0.018481389,-0.10063004,0.8971838,2016-11-25 20:08:37,41.111248511969166
1.21992,-1.669616,9.960288,-0.0022188611,-0.0029448867,-0.002444528,3.0,1.176172,-1.6178313,9.600503,-0.044944108,0.069724694,-0.3741367,0.018510021,-0.10083668,0.89696294,2016-11-25 20:08:38,38.02532881023832
1.228292,-1.677988,9.98062,0.0027194694,-4.1168928E-4,0.0024330914,0.0,1.177522,-1.6204038,9.599902,-0.042398077,0.056388244,-0.37713003,0.018457279,-0.10099774,0.89670014,2016-11-25 20:08:39,19.98074493654675
1.235468,-1.68636,9.978229,-0.0022042394,0.0021270216,-9.016693E-5,0.0,1.181191,-1.620467,9.599442,-0.041121043,0.053933106,-0.3692191,0.018578745,-0.10109189,0.89648974,2016-11-25 20:08:40,21.060321154555325
1.215136,-1.6744001,9.963876,2.80492E-4,0.002065912,-6.80387E-5,0.0,1.1756963,-1.6195923,9.600263,-0.051399786,0.06915975,-0.362417,0.01831864,-0.10093191,0.8964006,2016-11-25 20:08:41,19.688339562313054
1.224704,-1.688752,9.975836,0.0027178675,-4.0262938E-4,-0.002490908,0.0,1.1759677,-1.6214671,9.599915,-0.048736267,0.05891294,-0.3591782,0.018330766,-0.10101801,0.8965678,2016-11-25 20:08:42,18.209297372272516
1.21992,-1.6791841,9.975836,3.050249E-4,0.0020423234,-1.9803643E-5,3.0,1.1786817,-1.6256355,9.598875,-0.049610272,0.07507658,-0.3721762,0.018238228,-0.10129629,0.8960077,2016-11-25 20:08:43,24.050607428452572
1.2378601,-1.6947321,9.9866,-0.002117714,-4.348755E-4,2.6874244E-5,0.0,1.1748749,-1.6273801,9.599048,-0.04384915,0.052999917,-0.3672212,0.017929228,-0.10130839,0.89560914,2016-11-25 20:08:44,27.48880449494745
1.230684,-1.6851641,9.957896,3.0825473E-4,-4.1757524E-4,-0.0023610964,3.0,1.173652,-1.6198907,9.600464,-0.051051997,0.06407748,-0.37297934,0.017905487,-0.10095559,0.89506793,2016-11-25 20:08:45,20.08596013744905
1.224704,-1.691144,9.96866,2.5893003E-4,-3.7045777E-4,1.19909644E-4,3.0,1.1754441,-1.62498,9.599384,-0.049259853,0.058988195,-0.36927697,0.018032113,-0.101205304,0.89571625,2016-11-25 20:08:46,39.56852950194487
1.234272,-1.682772,9.973444,0.002487665,0.0020343065,-0.0022098944,0.0,1.1801158,-1.618055,9.59998,-0.056548256,0.055149056,-0.38422728,0.018487006,-0.1009727,0.8960946,2016-11-25 20:08:47,23.802978233702696
1.2426441,-1.6851641,9.993776,-0.004866956,-3.8786232E-4,2.3443997E-4,0.0,1.1803495,-1.6173002,9.600078,-0.045550622,0.047531858,-0.36379826,0.01851822,-0.10094212,0.89611256,2016-11-25 20:08:48,32.762766348324746
1.2259,-1.6744001,9.959092,8.46833E-5,-4.401505E-4,-0.0021639168,0.0,1.1768541,-1.616552,9.600633,-0.046653833,0.06023995,-0.3728104,0.018484637,-0.10080799,0.8966021,2016-11-25 20:08:49,40.614299105383786
1.2103521,-1.677988,9.967464,2.6333146E-4,-5.2282214E-4,-0.0023312941,0.0,1.1726097,-1.6289614,9.599055,-0.036546353,0.08490663,-0.3731921,0.018189915,-0.101259716,0.8973134,2016-11-25 20:08:50,19.30470456550066
1.215136,-1.6899481,9.967464,3.6028214E-4,-5.694032E-4,1.3340265E-4,0.0,1.1731728,-1.6307688,9.59868,-0.041963194,0.052003305,-0.36998132,0.018256279,-0.10134232,0.89764374,2016-11-25 20:08:51,40.0550752840504
1.223508,-1.7054961,9.966269,3.888216E-4,-5.649924E-4,1.7417967E-4,3.0,1.168003,-1.6302229,9.599402,-0.045937065,0.06690101,-0.3824141,0.018152734,-0.10117888,0.8981845,2016-11-25 20:08:52,21.820388604809224
1.2211161,-1.69234,9.972248,3.5780296E-4,0.0018919706,-0.0022338107,3.0,1.1709573,-1.630518,9.598994,-0.059726667,0.073782004,-0.36129415,0.01830181,-0.1012553,0.89825374,2016-11-25 20:08:53,35.199801874852156
1.218724,-1.6947321,9.965073,3.7401915E-4,0.0018507391,2.4011731E-4,3.0,1.1685258,-1.6331987,9.598834,-0.049002223,0.062729284,-0.369827,0.01811448,-0.101329096,0.8981833,2016-11-25 20:08:54,20.06566314189163
1.21992,-1.7054961,9.994972,0.005226543,-5.5515766E-4,0.0026879162,0.0,1.1701095,-1.635935,9.598176,-0.05579057,0.06477716,-0.36928925,0.017963244,-0.101521604,0.8974739,2016-11-25 20:08:55,45.83093629270281
1.2259,-1.664832,9.979424,0.0023662038,0.002073869,0.0028158426,3.0,1.1783514,-1.6108677,9.601406,-0.03678462,0.071904376,-0.38041037,0.018830929,-0.10054839,0.89726716,2016-11-25 20:08:56,30.828141110908863
1.254604,-1.6791841,10.000952,0.009259333,-0.012238577,3.7640333E-4,3.0,1.1898859,-1.5972781,9.602254,-0.061130177,0.006557897,-0.36162207,0.019612458,-0.10018337,0.8970637,2016-11-25 20:08:57,19.923714076034564
1.283308,-1.6361281,9.967464,-0.017244594,0.012458146,0.0032474324,3.0,1.2189004,-1.5976547,9.59855,-0.040487494,0.06358926,-0.3784826,0.020932345,-0.100856215,0.8969149,2016-11-25 20:08:58,27.81441906641849
1.3156,-1.624168,9.973444,-0.017066732,0.014743432,0.0056817457,0.0,1.2630073,-1.5711906,9.597217,-0.063356765,0.052977413,-0.375031,0.02309421,-0.10072146,0.89489233,2016-11-25 20:08:59,21.758395441384593
1.272544,-1.687556,9.975836,6.609224E-4,-4.4463575E-4,-0.0017819703,0.0,1.2302955,-1.6166089,9.593923,-0.050620474,0.06975114,-0.38071665,0.020417562,-0.10212369,0.8941626,2016-11-25 20:09:00,19.49390006644913
1.276132,-1.6899481,9.973444,6.614458E-4,-4.722327E-4,6.102994E-4,3.0,1.231847,-1.6180468,9.593482,-0.04428499,0.053961307,-0.37637365,0.020557817,-0.10220573,0.8945814,2016-11-25 20:09:01,47.18423994949567
1.283308,-1.6899481,9.977033,0.0030909237,0.0019806474,6.1858445E-4,3.0,1.2260263,-1.6211056,9.59371,-0.050105657,0.07243045,-0.38212535,0.020155732,-0.102228634,0.89430994,2016-11-25 20:09:02,37.71885336147094
1.2749361,-1.691144,9.977033,6.430242E-4,0.0019650906,6.143451E-4,0.0,1.2237298,-1.6247034,9.593395,-0.040442266,0.06285261,-0.37646073,0.019917434,-0.10235392,0.89408195,2016-11-25 20:09:03,21.144259235182652
1.262976,-1.681576,9.966269,5.9589185E-4,0.001970008,6.4110756E-4,0.0,1.2245896,-1.6234661,9.593494,-0.05393442,0.054521866,-0.3739707,0.019926885,-0.102327235,0.8938376,2016-11-25 20:09:04,41.24011627480881
1.278524,-1.69832,9.979424,0.0030025858,-4.619211E-4,6.451383E-4,3.0,1.2256359,-1.6264858,9.59285,-0.048104107,0.07183424,-0.3805939,0.019933369,-0.102486566,0.8939326,2016-11-25 20:09:05,28.008968875874896
1.2689561,-1.682772,9.9543085,4.8984215E-4,-0.0029169023,6.6787004E-4,0.0,1.2237742,-1.6240101,9.593506,-0.05355375,0.055174045,-0.37395957,0.019814169,-0.10234614,0.8935695,2016-11-25 20:09:06,42.98481379248928
1.2534081,-1.697124,9.969856,9.598192E-4,-0.0010074079,-0.0020550042,0.0,1.1918297,-1.6514968,9.592835,-0.047226228,0.07433131,-0.38060793,0.01777333,-0.10288652,0.89376146,2016-11-25 20:09:07,19.205777893957507
1.247428,-1.69234,9.975836,8.0992654E-4,0.0015646666,3.8783997E-4,3.0,1.2023778,-1.6427597,9.59302,-0.03548238,0.077088356,-0.38999185,0.018454554,-0.10272089,0.893761,2016-11-25 20:09:08,19.51377366765553
1.2486241,-1.6684201,9.96866,0.0031536203,0.0015492141,3.376305E-4,0.0,1.196152,-1.6423064,9.593875,-0.053668026,0.067973614,-0.37956864,0.018014416,-0.10258653,0.89308584,2016-11-25 20:09:09,36.67998214787987
1.245036,-1.7043,9.973444,-0.0018023755,-0.0032840967,3.4866482E-4,3.0,1.2010758,-1.639993,9.593655,-0.04396021,0.06430706,-0.37978843,0.018255837,-0.10259837,0.8929206,2016-11-25 20:09:11,38.59711384450525
1.2534081,-1.7043,9.967464,-0.001858009,-7.851571E-4,-0.0021313876,0.0,1.1944195,-1.6441464,9.593776,-0.054204617,0.06015359,-0.38205987,0.017922489,-0.1026273,0.8932084,2016-11-25 20:09:12,23.49948762212819
1.2426441,-1.723436,9.969856,0.007897638,-7.3611736E-4,3.549531E-4,0.0,1.1967025,-1.6424305,9.593785,-0.05431348,0.0738295,-0.37846273,0.018152516,-0.10258452,0.89357597,2016-11-25 20:09:13,32.85993731056255
1.241448,-1.7114761,9.98062,5.266834E-4,0.0017058998,-0.0020367727,0.0,1.1974386,-1.6404988,9.594024,-0.046401393,0.084133305,-0.38181204,0.018132001,-0.10252882,0.8931646,2016-11-25 20:09:14,37.23498081534942
1.254604,-1.701908,9.983012,4.0569156E-4,-6.33657E-4,3.9687008E-4,0.0,1.2056671,-1.6336075,9.594171,-0.042956952,0.06590864,-0.3888415,0.018795397,-0.10237309,0.8937195,2016-11-25 20:09:15,21.777534351704347
1.24384,-1.706692,9.972248,4.030019E-4,0.0018167943,4.3462962E-4,3.0,1.1978245,-1.639533,9.59414,-0.04242752,0.054002956,-0.37452072,0.01838701,-0.10245431,0.89408547,2016-11-25 20:09:16,37.826931643157515
1.2534081,-1.6851641,9.967464,3.9035454E-4,-5.849004E-4,4.3679774E-4,0.0,1.2001312,-1.638985,9.593946,-0.043708794,0.060531043,-0.37232232,0.018382994,-0.10250345,0.8935588,2016-11-25 20:09:17,37.378696124586746
1.260584,-1.69832,9.966269,3.631357E-4,-5.519092E-4,3.6282837E-4,3.0,1.2022667,-1.6343577,9.594467,-0.055925373,0.06635434,-0.37180153,0.018540213,-0.10234518,0.89337844,2016-11-25 20:09:18,20.692538989493844
1.2426441,-1.709084,9.972248,3.519468E-4,-5.6517124E-4,3.7631392E-4,0.0,1.2004776,-1.6368449,9.594269,-0.055322442,0.059083182,-0.37080434,0.018456688,-0.10241006,0.8936076,2016-11-25 20:09:19,24.340321909014158
1.241448,-1.715064,9.973444,3.4921058E-4,0.0019009113,-0.0020473674,0.0,1.1979643,-1.6363094,9.594672,-0.053051718,0.065598555,-0.38355625,0.018293973,-0.102338314,0.8933658,2016-11-25 20:09:20,27.41923710946288
1.24982,-1.688752,9.963876,3.491901E-4,-4.8795342E-4,3.6726147E-4,0.0,1.1978824,-1.6426609,9.5936,-0.045957524,0.079579294,-0.37625557,0.018246066,-0.102614306,0.89376014,2016-11-25 20:09:21,26.839216655009118
1.234272,-1.7222401,9.977033,3.177505E-4,0.001970902,-0.0020748451,0.0,1.1965598,-1.6441602,9.593507,-0.046084292,0.070903964,-0.38591713,0.018140951,-0.10265574,0.89371336,2016-11-25 20:09:22,33.799646544666786
1.24384,-1.717456,9.963876,0.005188152,-4.5366585E-4,0.0027431473,0.0,1.19634,-1.6454916,9.593306,-0.04749993,0.061200466,-0.38013798,0.018076666,-0.102716945,0.8936054,2016-11-25 20:09:23,29.082210444535278
1.230684,-1.715064,9.969856,0.002667863,0.00200063,2.694577E-4,0.0,1.1987845,-1.6369859,9.594456,-0.052231487,0.07209814,-0.39094812,0.018359877,-0.10238077,0.8935455,2016-11-25 20:09:24,24.805248416355813
1.233076,-1.706692,9.960288,2.5200658E-4,-4.261285E-4,2.465099E-4,0.0,1.1992044,-1.6404897,9.593806,-0.039851535,0.062614426,-0.3784411,0.018334487,-0.10254726,0.8936747,2016-11-25 20:09:25,38.54036659629344
1.245036,-1.715064,9.969856,2.5195256E-4,-4.4044852E-4,-0.0021555796,3.0,1.1979395,-1.6407326,9.593922,-0.042312518,0.071939304,-0.37473932,0.018387511,-0.102508806,0.89417404,2016-11-25 20:09:26,43.84265588976752
1.241448,-1.712672,9.978229,-0.0022376385,-4.209876E-4,3.0951202E-4,0.0,1.1957661,-1.636588,9.594901,-0.050465867,0.060536012,-0.37734687,0.017990297,-0.10233568,0.89253175,2016-11-25 20:09:27,23.38814315375622
1.2426441,-1.68636,9.939957,1.2261048E-4,0.0020205826,2.8578937E-4,0.0,1.1943353,-1.6308535,9.596056,-0.04711276,0.06866262,-0.38097677,0.018015949,-0.10204314,0.8923961,2016-11-25 20:09:28,54.797694265907055
1.251016,-1.712672,9.978229,2.1329522E-4,0.00202021,-0.0021041557,3.0,1.1943799,-1.6353748,9.595282,-0.043480173,0.046201196,-0.3721838,0.017885873,-0.102259405,0.8922488,2016-11-25 20:09:29,48.878783826255166
1.24384,-1.703104,9.979424,-0.0022572111,-3.9550662E-4,0.0027760938,0.0,1.1981319,-1.6394203,9.594122,-0.033748176,0.058899786,-0.3805179,0.01797056,-0.10253293,0.892236,2016-11-25 20:09:30,45.47281814805227
1.260584,-1.703104,9.96866,-0.0022427104,0.002050206,4.0764362E-4,0.0,1.2032831,-1.6336172,9.594467,-0.033380948,0.061114978,-0.38376144,0.018275434,-0.10239312,0.8919721,2016-11-25 20:09:31,37.10834545048813
1.240252,-1.69832,9.984208,2.2787973E-4,-4.310459E-4,0.0028323755,0.0,1.197274,-1.6403024,9.594079,-0.058525987,0.05323358,-0.36860126,0.017960211,-0.102545604,0.89244515,2016-11-25 20:09:32,43.99210614034993
1.252212,-1.6959281,9.966269,2.2795051E-4,-4.7844648E-4,-0.0019904226,0.0,1.1990153,-1.6376265,9.594318,-0.04960881,0.04036153,-0.3647738,0.018125009,-0.10245698,0.8925546,2016-11-25 20:09:33,40.110604621008655
1.230684,-1.691144,9.981816,2.1740422E-4,0.0019651502,4.952848E-4,0.0,1.1975533,-1.6435642,9.593484,-0.04748276,0.06073577,-0.38354808,0.017850734,-0.10271203,0.8922228,2016-11-25 20:09:34,30.801351648444925
1.239056,-1.7114761,9.972248,2.036225E-4,-0.0029429495,5.444586E-4,0.0,1.1994996,-1.6370379,9.5943575,-0.061084438,0.0648701,-0.34918636,0.018086962,-0.10245378,0.8922399,2016-11-25 20:09:35,59.74513889768058
1.260584,-1.699516,9.975836,-0.002227649,0.0019416511,5.206317E-4,0.0,1.1959175,-1.6417149,9.594006,-0.055098496,0.037469167,-0.36867434,0.017947666,-0.1025658,0.8927932,2016-11-25 20:09:36,60.209528576682054
1.246232,-1.706692,9.973444,2.1416508E-4,0.0019900352,5.604774E-4,0.0,1.1975366,-1.6434225,9.593512,-0.05467545,0.054897565,-0.3727578,0.017997438,-0.10267988,0.89283985,2016-11-25 20:09:37,35.53516094521274
1.2426441,-1.7102801,9.972248,-0.0022504665,0.002006948,-0.0019348264,3.0,1.1996244,-1.6368115,9.594382,-0.02627572,0.059116498,-0.38025722,0.018174924,-0.10243248,0.89257103,2016-11-25 20:09:38,38.79906656692066
1.235468,-1.7114761,9.973444,-0.0022686422,-4.3989718E-4,-0.0018537715,0.0,1.2016896,-1.635661,9.594317,-0.03258242,0.066246934,-0.37912557,0.018345062,-0.10241764,0.89277965,2016-11-25 20:09:39,29.896522683395045
1.2558,-1.688752,9.960288,1.7531402E-4,0.0020130277,6.14658E-4,3.0,1.1969699,-1.640753,9.59404,-0.04687011,0.052783057,-0.37342533,0.017829584,-0.1025781,0.89198816,2016-11-25 20:09:40,46.28971683020809
1.2259,-1.693536,9.985404,1.3279915E-4,-4.3408573E-4,0.0030036643,0.0,1.1989541,-1.638763,9.594132,-0.04847396,0.09902517,-0.39366323,0.017962102,-0.10253202,0.89197403,2016-11-25 20:09:41,46.50570698730295
1.241448,-1.7114761,9.959092,1.1561625E-4,0.0019904822,-0.0018239841,0.0,1.198145,-1.6398525,9.594046,-0.042106986,0.050095573,-0.3805939,0.018024301,-0.102542266,0.89250356,2016-11-25 20:09:42,45.994983737204905
1.239056,-1.7114761,9.973444,1.21431425E-4,-4.941523E-4,6.4592063E-4,0.0,1.2017028,-1.6417297,9.59328,-0.034961205,0.05898235,-0.38734046,0.018115517,-0.10271649,0.8923562,2016-11-25 20:09:43,44.27191917882935
1.259388,-1.706692,9.973444,8.3412975E-5,-4.891008E-4,6.856397E-4,0.0,1.1966285,-1.6414742,9.593959,-0.04601561,0.07000176,-0.37948447,0.017824648,-0.10259904,0.89210236,2016-11-25 20:09:44,29.920017739409953
1.251016,-1.69832,9.973444,-0.0023132544,-4.6882033E-4,-0.0017428324,0.0,1.2010396,-1.6424928,9.593233,-0.048780546,0.06539514,-0.3837994,0.017920125,-0.10276256,0.89172333,2016-11-25 20:09:45,45.484150562802874
1.24384,-1.713868,9.96866,0.002542276,-4.7934055E-4,-0.0017234385,3.0,1.2003673,-1.6378648,9.594109,-0.043472648,0.07241525,-0.3817267,0.018057393,-0.10252109,0.8920161,2016-11-25 20:09:46,40.62963484032064
1.24384,-1.712672,9.969856,0.002532281,0.0019355565,7.433668E-4,0.0,1.196719,-1.6413356,9.593971,-0.060276993,0.052200437,-0.38066813,0.01786067,-0.10258969,0.8922257,2016-11-25 20:09:47,46.74057402075938
1.245036,-1.7043,9.966269,0.004953837,0.0019312054,-0.0016765967,3.0,1.1979702,-1.6443907,9.59329,-0.043477908,0.071869306,-0.37656537,0.017868502,-0.10275701,0.89229196,2016-11-25 20:09:48,25.966260848463506
1.24982,-1.687556,9.967464,-0.0025269147,-4.4357777E-4,7.885024E-4,3.0,1.1995758,-1.6310071,9.595376,-0.04785225,0.06252894,-0.38165596,0.018293053,-0.10216358,0.8925491,2016-11-25 20:09:49,31.217566303174415
1.240252,-1.703104,9.979424,-2.5369227E-5,-4.877299E-4,7.0893764E-4,0.0,1.1986488,-1.6378047,9.594335,-0.0416032,0.06529928,-0.38509005,0.01825212,-0.10243059,0.89318794,2016-11-25 20:09:50,34.99802088642522
1.235468,-1.7318081,9.972248,-0.0049239434,-5.078465E-4,-0.0017394796,0.0,1.2053835,-1.6330212,9.594305,-0.057592504,0.06649492,-0.3635913,0.018732674,-0.10235086,0.89345473,2016-11-25 20:09:51,39.81891218200147
1.24982,-1.6851641,9.96268,-0.0025082268,-5.2915514E-4,7.396415E-4,0.0,1.2024232,-1.6315634,9.594924,-0.040220805,0.047620706,-0.36416826,0.018642737,-0.102212906,0.8935282,2016-11-25 20:09:52,53.36644159608048
1.247428,-1.6947321,9.973444,-0.0024853554,-0.0029850006,6.7391247E-4,0.0,1.1976357,-1.6425492,9.593649,-0.041420244,0.05577084,-0.3809902,0.018059019,-0.10263499,0.8930025,2016-11-25 20:09:54,38.393923565006155
1.239056,-1.712672,9.969856,0.0024235938,-5.2949786E-4,-0.0018118545,3.0,1.2024816,-1.642994,9.592966,-0.048534315,0.055326022,-0.3900462,0.018451983,-0.10273454,0.8937507,2016-11-25 20:09:55,38.54035531907846
1.245036,-1.7102801,9.972248,-1.8525869E-5,-0.0029607415,-0.0017751008,0.0,1.1995286,-1.6379217,9.594203,-0.052683543,0.058006346,-0.37924072,0.01840116,-0.10243627,0.8936589,2016-11-25 20:09:56,36.38526889499321
1.233076,-1.69234,9.972248,1.0453165E-5,-5.239248E-4,-0.0017328337,3.0,1.1977735,-1.6370729,9.594568,-0.046066463,0.07559899,-0.38007134,0.01815125,-0.102390215,0.8928642,2016-11-25 20:09:57,54.00934751731866
1.235468,-1.712672,9.972248,4.429929E-5,-5.412549E-4,0.0031729788,0.0,1.1987885,-1.6432077,9.593392,-0.05222747,0.055112377,-0.38483578,0.01808795,-0.102693655,0.89295655,2016-11-25 20:09:58,41.01684391564129
1.239056,-1.723436,9.97464,0.0024598166,-5.417466E-4,7.042065E-4,3.0,1.1980329,-1.6439035,9.593368,-0.05059125,0.058004446,-0.39084056,0.018091286,-0.10269923,0.89318526,2016-11-25 20:09:59,27.695294905957994
1.251016,-1.703104,9.981816,5.8611855E-5,-5.594343E-4,-0.0017248839,0.0,1.1965072,-1.6416564,9.593944,-0.044940893,0.063839726,-0.3771084,0.01795517,-0.102580264,0.8927021,2016-11-25 20:10:00,70.61684582960484
1.246232,-1.701908,9.97464,-0.0025007296,-0.00298509,7.426962E-4,0.0,1.1968856,-1.6344268,9.59513,-0.058914475,0.07346111,-0.3842945,0.018033301,-0.10227109,0.8922911,2016-11-25 20:10:01,68.81634709320583
1.254604,-1.682772,9.969856,-1.5981495E-5,-5.30079E-4,7.390976E-4,3.0,1.1973915,-1.638569,9.59436,-0.042860508,0.07290698,-0.37430093,0.018024694,-0.102464266,0.89253724,2016-11-25 20:10:02,50.44256080576953
1.24982,-1.69234,9.96866,-3.6509708E-5,-5.2943826E-4,-0.0016893074,3.0,1.1999815,-1.6370509,9.5942955,-0.047446594,0.052897185,-0.37436524,0.018075597,-0.10247132,0.89209586,2016-11-25 20:10:03,53.96495112202292
1.24384,-1.6851641,9.960288,-0.009939656,-0.0029180795,7.671043E-4,0.0,1.2006426,-1.6270703,9.595911,-0.05515746,0.060485743,-0.36437693,0.018375065,-0.10201529,0.892321,2016-11-25 20:10:04,43.79182604200439
1.2486241,-1.69832,9.979424,-0.0024787225,0.001906544,7.9029053E-4,0.0,1.2009146,-1.6361258,9.5943365,-0.040533524,0.05741028,-0.37551907,0.018191418,-0.10244062,0.8923197,2016-11-25 20:10:05,61.809878226951426
1.2378601,-1.7054961,9.96866,-4.2077154E-6,0.001911819,-0.0016397759,0.0,1.1955073,-1.6429048,9.593854,-0.048332654,0.051827364,-0.37839377,0.017766938,-0.10263515,0.8922122,2016-11-25 20:10:06,52.72135795544174
1.247428,-1.7054961,9.975836,-3.4909695E-5,-5.647093E-4,-0.0016152412,0.0,1.1979538,-1.6392645,9.59417,-0.051866237,0.049487524,-0.37449092,0.018071458,-0.10250305,0.89268917,2016-11-25 20:10:07,44.59574730912205
1.247428,-1.7007121,9.973444,-4.845485E-5,-5.5873394E-4,-0.0016102642,0.0,1.1985153,-1.6375445,9.594395,-0.032168653,0.07034341,-0.3670891,0.018220374,-0.10242103,0.893055,2016-11-25 20:10:08,49.282070747440216
1.251016,-1.7102801,9.960288,-4.6337023E-5,0.0018478334,8.227825E-4,0.0,1.1954349,-1.6412028,9.5941515,-0.060365036,0.059509296,-0.37450904,0.017889747,-0.1025392,0.89259464,2016-11-25 20:10:09,40.489521116153185
1.233076,-1.699516,9.97464,-2.235584E-4,-6.0372055E-4,-0.0016296953,0.0,1.1927241,-1.6416487,9.594413,-0.055900022,0.044711396,-0.3682669,0.017853683,-0.102480546,0.8930234,2016-11-25 20:10:10,51.381459136202714
1.239056,-1.7162601,9.977033,-2.0144507E-4,-0.0030140132,8.105561E-4,3.0,1.1990294,-1.6399689,9.593916,-0.049594637,0.049979255,-0.37115678,0.018034328,-0.10257292,0.89238036,2016-11-25 20:10:11,34.12112748171298
1.259388,-1.706692,9.977033,0.00466853,-5.378872E-4,8.2754344E-4,0.0,1.1971649,-1.6371439,9.59463,-0.041891076,0.07911621,-0.37881285,0.01796039,-0.10240798,0.89217466,2016-11-25 20:10:12,48.749583550754295
1.252212,-1.69832,9.977033,-0.0026285648,-0.0029738247,-0.0016160458,3.0,1.2011592,-1.6358156,9.59436,-0.045072705,0.06370047,-0.38027886,0.018298054,-0.102416076,0.89269894,2016-11-25 20:10:13,52.397116925711806
1.256996,-1.7007121,9.969856,-0.0026424043,-5.3046644E-4,-0.0016126484,0.0,1.1934109,-1.6381476,9.594928,-0.04923311,0.06256445,-0.37971127,0.017927479,-0.102339946,0.89287865,2016-11-25 20:10:14,46.03658506775132
1.2426441,-1.701908,9.966269,0.002287209,-5.5995584E-4,-0.001545243,0.0,1.1990126,-1.6383132,9.594203,-0.052003305,0.054026775,-0.36369362,0.018113384,-0.102488115,0.89256895,2016-11-25 20:10:15,33.46467203207007
1.228292,-1.72822,9.977033,4.5787543E-5,-0.0031496435,-0.0021126196,0.0,1.1818469,-1.6550337,9.59346,-0.046445087,0.069598295,-0.3763953,0.017194359,-0.10282991,0.8936093,2016-11-25 20:10:16,49.28640615064866
1.223508,-1.712672,9.975836,-0.0023136903,0.0017023832,3.1128526E-4,0.0,1.1793265,-1.6572207,9.593393,-0.037005495,0.05305939,-0.37765843,0.016899277,-0.10289551,0.8930563,2016-11-25 20:10:17,40.09599559839429
1.228292,-1.735396,9.973444,-0.002277827,-8.174926E-4,3.40119E-4,0.0,1.1748469,-1.6596594,9.593524,-0.05464111,0.058992725,-0.36078504,0.016603,-0.102912,0.8929104,2016-11-25 20:10:18,32.12395709483364
1.218724,-1.719848,9.96866,-0.0023376886,-0.0031886399,0.0027568936,0.0,1.1775011,-1.6645896,9.592342,-0.032850936,0.048082333,-0.37751347,0.016654003,-0.10319561,0.8930514,2016-11-25 20:10:19,27.753159912879113
1.2259,-1.7377881,9.96866,8.656271E-5,0.0017314404,3.6951154E-4,3.0,1.1785754,-1.6632186,9.592448,-0.046128567,0.068589404,-0.3666437,0.016891288,-0.103130855,0.8937188,2016-11-25 20:10:20,43.58340971057112
1.239056,-1.74616,9.969856,0.014639075,0.004157841,-0.0020300373,0.0,1.1774219,-1.6586757,9.593377,-0.046086118,0.08030819,-0.37647885,0.016814897,-0.10291366,0.89320946,2016-11-25 20:10:21,27.961432285958775
1.222312,-1.707888,9.961484,-2.0600483E-4,-6.8987906E-4,4.625395E-4,3.0,1.1758834,-1.648858,9.595258,-0.054800536,0.07338219,-0.37101126,0.016974427,-0.10242036,0.89329475,2016-11-25 20:10:22,33.541465328254006
