ACC_X,ACC_Y,ACC_Z,GYRO_X,GYRO_Y,GYRO_Z,LIGH_1,GRAV_X,GRAV_Y,GRAV_Z,LINACC_X,LINACC_Y,LINACC_Z,ROTVEC_X,ROTVEC_Y,ROTVEC_Z,TIME,VOICE
0.12210429,-0.055066638,9.953894,0.0010613832,-0.007465884,0.0010639689,104.0,0.010443865,-0.020460008,9.8066225,-0.025402837,-0.092134506,0.00989151,-8.557613E-4,-7.996392E-4,0.2759076,2017-06-17 22:02:26,55.807898743685335
0.6703765,0.6943185,9.939528,-0.0010704339,-0.010663609,-1.9393779E-6,102.0,-0.15168089,-0.16533902,9.804083,0.14510162,0.04675901,0.045949936,-0.010845366,0.0036424263,0.40620592,2017-06-17 22:02:27,69.38168155338973
8.775947,-0.9648633,7.273585,-1.3323901,0.2323635,-0.25262222,13.0,8.425113,-0.68723714,4.9714737,0.20419312,-0.009542584,1.1759262,0.14335069,-0.47536927,0.31734878,2017-06-17 22:02:28,68.39679729515228
3.4584243,-0.050278235,9.688137,-0.5958473,0.6939019,0.035173036,99.0,2.176751,-0.0707797,9.561754,0.33417273,-0.63318264,-0.80108356,0.03987923,-0.1043834,0.3846334,2017-06-17 22:02:29,58.57029563649127
2.6767175,-0.016759412,9.560047,-4.525384E-6,0.0010613832,0.0021298772,108.0,2.4858365,-0.17565449,9.484733,0.028678417,0.06186287,0.009760857,0.03978223,-0.12178099,0.37364674,2017-06-17 22:02:30,64.00548683805734
2.6743233,-0.031124622,9.589975,-4.525384E-6,-0.002136342,0.0021298772,108.0,2.4871225,-0.17359369,9.484433,0.028589487,0.05501367,-0.00789547,0.03990386,-0.12180382,0.37363082,2017-06-17 22:02:32,73.26013502600458
2.6874914,-0.023942016,9.595961,-0.0010704339,-0.0010704339,0.0021298772,108.0,2.4871225,-0.17359369,9.484433,0.028589487,0.053816564,-0.035429,0.03990386,-0.12180382,0.37363082,2017-06-17 22:02:33,67.56091303195001
2.6659436,-0.025139118,9.5732155,0.0021272912,-0.004268159,-0.001067848,108.0,2.4871225,-0.17359369,9.484433,0.030983686,0.053816564,-0.013881683,0.03990386,-0.12180382,0.37363082,2017-06-17 22:02:34,66.31965368235592
2.6647465,-0.025139118,9.592369,-4.525384E-6,0.0021272912,-0.001067848,105.0,2.4871225,-0.17359369,9.484433,0.034574986,0.05860497,-0.02944374,0.03990386,-0.12180382,0.37363082,2017-06-17 22:02:35,68.48506265457635
2.6743233,-0.02873042,9.606734,-4.525384E-6,-0.0010704339,-1.9393779E-6,101.0,2.4871225,-0.17359369,9.484433,0.033377886,0.04304266,-0.009093285,0.03990386,-0.12180382,0.37363082,2017-06-17 22:02:36,70.2681784662167
2.6539726,-0.02633622,9.580399,0.0010613832,0.004259108,0.0031957857,109.0,2.4871225,-0.17359369,9.484433,0.01781559,0.03825426,-7.133484E-4,0.03990386,-0.12180382,0.37363082,2017-06-17 22:02:37,64.54062125364172
2.681506,-0.035913024,9.592369,-0.0010704339,0.0010613832,0.0021298772,109.0,2.4871225,-0.17359369,9.484433,0.028589487,0.05501367,-0.010290146,0.03990386,-0.12180382,0.37363082,2017-06-17 22:02:38,64.58476112667208
2.681506,-0.020350715,9.578004,0.0010613832,0.0010613832,0.0031957857,101.0,2.4871225,-0.17359369,9.484433,0.036969185,0.03586006,0.011258125,0.03990386,-0.12180382,0.37363082,2017-06-17 22:02:39,72.95076317430026
2.6659436,-0.03232172,9.566033,0.0010613832,-0.003202251,0.0021298772,109.0,2.4871225,-0.17359369,9.484433,0.029786587,0.04783106,-0.00789547,0.03990386,-0.12180382,0.37363082,2017-06-17 22:02:40,72.02199032372762
2.6731262,-0.04189853,9.586384,-4.525384E-6,0.0010613832,0.0021298772,109.0,2.4871225,-0.17359369,9.484433,0.02020979,0.05501367,0.01006031,0.03990386,-0.12180382,0.37363082,2017-06-17 22:02:41,65.37543777507
2.6862943,-0.037110128,9.572019,0.0010613832,0.0010613832,-1.9393779E-6,110.0,2.4871225,-0.17359369,9.484433,0.032180786,0.05980207,-0.004304886,0.03990386,-0.12180382,0.37363082,2017-06-17 22:02:42,68.55951868998515
2.6779146,-0.046686932,9.588778,-4.525384E-6,0.004259108,0.0010646154,105.0,2.4871225,-0.17359369,9.484433,0.04894018,0.05621077,-0.022260666,0.03990386,-0.12180382,0.37363082,2017-06-17 22:02:43,71.73988730670098
2.6779146,-0.033518825,9.585187,-0.002136342,0.0021272912,-0.001067848,111.0,2.4871225,-0.17359369,9.484433,0.022603989,0.04543686,-0.00789547,0.03990386,-0.12180382,0.37363082,2017-06-17 22:02:44,64.26061270609172
2.670732,-0.04070143,9.630676,-4.525384E-6,-4.525384E-6,-1.9393779E-6,111.0,2.4871225,-0.17359369,9.484433,0.024998188,0.05740787,-0.019866943,0.03990386,-0.12180382,0.37363082,2017-06-17 22:02:45,65.23173345252904
2.6671407,-0.03232172,9.593566,0.0010613832,-4.525384E-6,0.0010646154,112.0,2.4871225,-0.17359369,9.484433,0.038166285,0.05621077,-0.00789547,0.03990386,-0.12180382,0.37363082,2017-06-17 22:02:46,71.82982899420684
2.6862943,-0.022744916,9.554062,-4.525384E-6,0.004259108,0.0010646154,111.0,2.4871225,-0.17359369,9.484433,0.027392387,0.053816564,4.8351288E-4,0.03990386,-0.12180382,0.37363082,2017-06-17 22:02:47,69.9592955667983
2.6779146,-0.038307227,9.591172,0.0010613832,0.005325016,-0.0010672013,111.0,2.4871225,-0.17359369,9.484433,0.038166285,0.04304266,-0.003107071,0.03990386,-0.12180382,0.37363082,2017-06-17 22:02:48,72.39163665834597
2.6839,-0.039504327,9.534908,-4.525384E-6,0.0010613832,-0.0021331098,111.0,2.4871225,-0.17359369,9.484433,0.027392387,0.05621077,-0.05578041,0.03990386,-0.12180382,0.37363082,2017-06-17 22:02:49,73.10005244609516
2.6683378,-0.031124622,9.604341,-0.0010704339,-0.003202251,-0.0010672013,112.0,2.4871225,-0.17359369,9.484433,0.028589487,0.052619465,-0.0066986084,0.03990386,-0.12180382,0.37363082,2017-06-17 22:02:50,70.32731751642879
2.693477,-0.034715924,9.600749,-4.525384E-6,0.0021272912,-0.0021331098,111.0,2.4871225,-0.17359369,9.484433,0.047743082,0.04304266,0.011258125,0.03990386,-0.12180382,0.37363082,2017-06-17 22:02:51,67.3527196718326
2.681506,-0.025139118,9.600749,-4.525384E-6,0.0021272912,0.0010646154,111.0,2.4871225,-0.17359369,9.484433,0.01901269,0.04543686,0.017243385,0.03990386,-0.12180382,0.37363082,2017-06-17 22:02:52,66.98047321620705
2.681506,-0.021547815,9.592369,-0.0010704339,-0.0010704339,-1.293003E-6,111.0,2.4871225,-0.17359369,9.484433,0.032180786,0.052619465,-0.0066986084,0.03990386,-0.12180382,0.37363082,2017-06-17 22:02:53,69.28941858063868
2.6743233,-0.031124622,9.601946,-0.002136342,0.0010613832,-1.293003E-6,112.0,2.4871225,-0.17359369,9.484433,0.026195288,0.04304266,-0.0019102097,0.03990386,-0.12180382,0.37363082,2017-06-17 22:02:54,66.43735179818059
2.6862943,-0.04189853,9.560047,0.0010613832,0.0021272912,-0.0010672013,111.0,2.4866142,-0.17359363,9.484567,0.039871693,0.051422305,0.0027446747,0.039893854,-0.12177922,0.3736319,2017-06-17 22:02:55,64.86246243010169
2.6874914,-0.03232172,9.621099,-4.525384E-6,0.004259108,0.0010646154,110.0,2.4866142,-0.17359363,9.484567,0.018323898,0.05621071,0.018306732,0.039893854,-0.12177922,0.3736319,2017-06-17 22:02:56,72.71593667452788
2.6886885,-0.044292733,9.579201,-4.525384E-6,0.0021272912,-0.0010672013,110.0,2.4866142,-0.17359363,9.484567,0.037477493,0.05740781,-0.01640892,0.039893854,-0.12177922,0.3736319,2017-06-17 22:02:57,71.48533858753983
2.6719291,-0.020350715,9.601946,0.0010613832,-0.003202251,-1.293003E-6,111.0,2.4866142,-0.17359363,9.484567,0.031491995,0.06099911,-0.0044384003,0.039893854,-0.12177922,0.3736319,2017-06-17 22:02:58,67.75411309363002
2.6850972,-0.035913024,9.586384,-4.525384E-6,-0.003202251,0.0010646154,111.0,2.4866142,-0.17359363,9.484567,0.031491995,0.05740781,-0.030774117,0.039893854,-0.12177922,0.3736319,2017-06-17 22:02:59,71.98023280349314
2.6779146,-0.038307227,9.591172,-4.525384E-6,-0.002136342,-0.0010672013,111.0,2.4866142,-0.17359363,9.484567,0.04585719,0.049028106,-0.017605782,0.039893854,-0.12177922,0.3736319,2017-06-17 22:03:00,66.38635936388002
2.6994624,-0.04309563,9.595961,-4.525384E-6,-0.006399976,-0.0010672013,111.0,2.4866142,-0.17359363,9.484567,0.04825139,0.0442397,-0.01042366,0.039893854,-0.12177922,0.3736319,2017-06-17 22:03:01,69.05715683431696
2.6719291,-0.02633622,9.604341,0.0010613832,0.0031931996,0.0010646154,112.0,2.4866142,-0.17359363,9.484567,0.035083294,0.047831,0.0075330734,0.039893854,-0.12177922,0.3736319,2017-06-17 22:03:02,61.15856731217342
2.669535,-0.034715924,9.598354,-0.0010704339,-0.0010704339,-0.0021331098,113.0,2.4866142,-0.17359363,9.484567,0.033886194,0.053816505,0.0027446747,0.039893854,-0.12177922,0.3736319,2017-06-17 22:03:03,65.93861301356614
2.6886885,-0.03232172,9.606734,0.0021272912,-0.003202251,0.0021305238,112.0,2.4871364,-0.17359364,9.484429,0.038152456,0.05142232,-0.013877869,0.039904136,-0.121804506,0.3736308,2017-06-17 22:03:04,60.531888087613915
2.6803088,-0.038307227,9.57561,0.0010613832,0.0010613832,0.0010646154,112.0,2.4871364,-0.17359364,9.484429,0.040546656,0.058604926,0.008867264,0.039904136,-0.121804506,0.3736308,2017-06-17 22:03:05,62.9606226052407
2.6791117,-0.04309563,9.5971575,-4.525384E-6,-0.0053340667,-0.0021331098,113.0,2.4871364,-0.17359364,9.484429,0.05132079,0.043042615,-0.010286331,0.039904136,-0.121804506,0.3736308,2017-06-17 22:03:06,68.9574464927894
2.6803088,-0.023942016,9.600749,0.0010613832,-0.002136342,-0.0010672013,114.0,2.4866283,-0.17359374,9.484564,0.047040224,0.04663402,-0.0044355392,0.03989412,-0.12177988,0.37363186,2017-06-17 22:03:07,66.99816042854987
2.6839,-0.04070143,9.578004,-4.525384E-6,0.004259108,-1.293003E-6,114.0,2.4866283,-0.17359374,9.484564,0.048237324,0.050225325,-0.0116176605,0.03989412,-0.12177988,0.37363186,2017-06-17 22:03:08,70.06490719608335
2.6910827,-0.029927522,9.586384,0.0010613832,-0.003202251,-1.293003E-6,113.0,2.4866283,-0.17359374,9.484564,0.019506931,0.04184562,0.006339073,0.03989412,-0.12177988,0.37363186,2017-06-17 22:03:09,72.96763660509731
2.6874914,-0.034715924,9.607931,-0.002136342,0.0010613832,-0.0010672013,113.0,2.4866283,-0.17359374,9.484564,0.043448925,0.05980213,-0.025982857,0.03989412,-0.12177988,0.37363186,2017-06-17 22:03:10,67.96129486539007
2.6862943,-0.02633622,9.588778,-4.525384E-6,0.0074568335,-1.293003E-6,114.0,2.4866283,-0.17359374,9.484564,0.043448925,0.049028225,-0.009223938,0.03989412,-0.12177988,0.37363186,2017-06-17 22:03:11,62.45340497536901
2.7006595,-0.038307227,9.57561,-4.525384E-6,-0.0010704339,-0.0010672013,113.0,2.4866283,-0.17359374,9.484564,0.044646025,0.051422425,0.008732796,0.03989412,-0.12177988,0.37363186,2017-06-17 22:03:12,71.3833886183954
2.6850972,-0.034715924,9.601946,-0.0010704339,0.0010613832,-0.0010672013,113.0,2.4866283,-0.17359374,9.484564,0.048237324,0.05621083,0.008732796,0.03989412,-0.12177988,0.37363186,2017-06-17 22:03:13,64.62075775311466
2.6922798,-0.033518825,9.580399,-0.0010704339,-0.002136342,-0.0021331098,113.0,2.4866283,-0.17359374,9.484564,0.035069227,0.053816624,-0.014012337,0.03989412,-0.12177988,0.37363186,2017-06-17 22:03:14,65.05704320872708
2.6982653,-0.038307227,9.579201,0.0021272912,-4.525384E-6,0.0010646154,114.0,2.4866283,-0.17359374,9.484564,0.041054726,0.05740793,0.0015506744,0.03989412,-0.12177988,0.37363186,2017-06-17 22:03:15,69.57253478387706
2.6886885,-0.034715924,9.57561,-0.0010704339,0.0021272912,-0.0010672013,114.0,2.4866283,-0.17359374,9.484564,0.044646025,0.06099923,0.0051412582,0.03989412,-0.12177988,0.37363186,2017-06-17 22:03:16,69.83690422468096
2.6994624,-0.04070143,9.598354,-0.002136342,0.0021272912,-1.293003E-6,113.0,2.4866283,-0.17359374,9.484564,0.02668953,0.05501373,0.003944397,0.03989412,-0.12177988,0.37363186,2017-06-17 22:03:17,69.4435377300799
2.6886885,-0.051475335,9.609129,-0.0010704339,0.0010613832,-1.293003E-6,113.0,2.4866283,-0.17359374,9.484564,0.050631523,0.03705722,0.0075359344,0.03989412,-0.12177988,0.37363186,2017-06-17 22:03:18,68.56591463617934
2.6922798,-0.017956512,9.583989,-4.525384E-6,0.0031931996,-1.293003E-6,114.0,2.4866283,-0.17359374,9.484564,0.035069227,0.04064852,0.0027475357,0.03989412,-0.12177988,0.37363186,2017-06-17 22:03:20,70.65986351162609
2.6982653,-0.02873042,9.589975,-4.525384E-6,0.0031931996,-1.293003E-6,114.0,2.4866283,-0.17359374,9.484564,0.048237324,0.06339344,-0.04393959,0.03989412,-0.12177988,0.37363186,2017-06-17 22:03:21,71.66616511515966
2.6982653,-0.027533319,9.587581,-0.0010704339,0.005325016,0.0010646154,111.0,2.4866283,-0.17359374,9.484564,0.02788663,0.05740793,-0.0056324005,0.03989412,-0.12177988,0.37363186,2017-06-17 22:03:22,59.021333407495206
2.6874914,-0.022744916,9.611523,0.0010613832,-4.525384E-6,0.0010646154,110.0,2.4866283,-0.17359374,9.484564,0.044646025,0.05621083,0.011127472,0.03989412,-0.12177988,0.37363186,2017-06-17 22:03:23,54.795149127143844
2.7042508,-0.04070143,9.582792,-4.525384E-6,-0.003202251,-1.293003E-6,111.0,2.4866283,-0.17359374,9.484564,0.044646025,0.04304272,-0.01640606,0.03989412,-0.12177988,0.37363186,2017-06-17 22:03:24,68.16242530864466
2.6910827,-0.034715924,9.594764,-4.525384E-6,-0.0010704339,-0.0021331098,112.0,2.4866283,-0.17359374,9.484564,0.048237324,0.04663402,0.012324333,0.03989412,-0.12177988,0.37363186,2017-06-17 22:03:25,71.7897664132588
2.695871,-0.04189853,9.561244,-4.525384E-6,-0.0010704339,-1.293003E-6,113.0,2.4866283,-0.17359374,9.484564,0.044646025,0.03586012,0.0027475357,0.03989412,-0.12177988,0.37363186,2017-06-17 22:03:26,74.82864324701487
2.6886885,-0.037110128,9.570822,-0.0010704339,0.004259108,0.0010646154,111.0,2.4866283,-0.17359374,9.484564,0.042251825,0.066984735,0.024294853,0.03989412,-0.12177988,0.37363186,2017-06-17 22:03:27,69.52950119856291
2.6910827,-0.03232172,9.588778,0.0010613832,-0.0010704339,-0.0021331098,111.0,2.4866283,-0.17359374,9.484564,0.042251825,0.050225325,-0.0056324005,0.03989412,-0.12177988,0.37363186,2017-06-17 22:03:28,71.13686042058937
2.694674,-0.017956512,9.581595,0.0010613832,-0.0010704339,-0.0010672013,111.0,2.4866283,-0.17359374,9.484564,0.041054726,0.034663007,-0.002040863,0.03989412,-0.12177988,0.37363186,2017-06-17 22:03:29,72.82415170051118
2.6874914,-0.025139118,9.589975,-4.525384E-6,0.0031931996,0.0010646154,112.0,2.4866283,-0.17359374,9.484564,0.070982456,0.05621083,-0.027180672,0.03989412,-0.12177988,0.37363186,2017-06-17 22:03:30,70.44720309391606
2.6910827,-0.04070143,9.568427,-4.525384E-6,-4.525384E-6,-0.0010672013,111.0,2.4866283,-0.17359374,9.484564,0.038660526,0.049028225,-0.012814522,0.03989412,-0.12177988,0.37363186,2017-06-17 22:03:31,72.97597679052693
2.694674,-0.033518825,9.585187,-0.0010704339,-4.525384E-6,-0.0010672013,113.0,2.4866283,-0.17359374,9.484564,0.05781436,0.053816624,-0.021194458,0.03989412,-0.12177988,0.37363186,2017-06-17 22:03:32,68.5302838453988
2.6922798,-0.027533319,9.589975,-4.525384E-6,0.004259108,-1.293003E-6,114.0,2.4866283,-0.17359374,9.484564,0.05901146,0.053816624,-0.010420799,0.03989412,-0.12177988,0.37363186,2017-06-17 22:03:33,69.45282383599414
2.6850972,-0.027533319,9.594764,0.0010613832,0.0010613832,-0.0010672013,114.0,2.4866283,-0.17359374,9.484564,0.044646025,0.047831118,-0.0116176605,0.03989412,-0.12177988,0.37363186,2017-06-17 22:03:34,66.0761481155677
2.6886885,-0.031124622,9.585187,-4.525384E-6,-0.006399976,-1.293003E-6,113.0,2.4866283,-0.17359374,9.484564,0.05422306,0.03705722,0.008732796,0.03989412,-0.12177988,0.37363186,2017-06-17 22:03:35,65.60276702914854
2.6839,-0.051475335,9.598354,-0.0010704339,0.0031931996,-0.0031990183,113.0,2.4866283,-0.17359374,9.484564,0.044646025,0.04304272,0.011127472,0.03989412,-0.12177988,0.37363186,2017-06-17 22:03:36,63.4733133979492
2.6874914,-0.04309563,9.580399,-0.002136342,-4.525384E-6,-1.293003E-6,114.0,2.4866283,-0.17359374,9.484564,0.03147793,0.049028225,-0.015209198,0.03989412,-0.12177988,0.37363186,2017-06-17 22:03:37,69.55175287106992
2.6850972,-0.029927522,9.613917,-0.0010704339,0.0010613832,-0.0010672013,113.0,2.4866283,-0.17359374,9.484564,0.047040224,0.050225325,-0.0044355392,0.03989412,-0.12177988,0.37363186,2017-06-17 22:03:38,74.21787742973609
2.693477,-0.034715924,9.598354,-4.525384E-6,-4.525384E-6,-0.0010672013,113.0,2.4866283,-0.17359374,9.484564,0.042251825,0.05501373,-0.0056324005,0.03989412,-0.12177988,0.37363186,2017-06-17 22:03:39,70.57181701702208
2.6910827,-0.04070143,9.598354,-4.525384E-6,0.0010613832,-1.293003E-6,113.0,2.4866283,-0.17359374,9.484564,0.047040224,0.047831118,-0.0116176605,0.03989412,-0.12177988,0.37363186,2017-06-17 22:03:40,70.74572584437027
2.6886885,-0.049081136,9.588778,-0.0010704339,-4.525384E-6,-1.293003E-6,114.0,2.4866283,-0.17359374,9.484564,0.042251825,0.05860503,-0.002040863,0.03989412,-0.12177988,0.37363186,2017-06-17 22:03:41,64.82203078773261
2.6862943,-0.04189853,9.599552,-4.525384E-6,0.0010613832,-1.293003E-6,113.0,2.4866283,-0.17359374,9.484564,0.043448925,0.051422425,-0.028377533,0.03989412,-0.12177988,0.37363186,2017-06-17 22:03:42,65.28385290262872
2.6970682,-0.034715924,9.579201,-0.0010704339,0.0010613832,-1.293003E-6,113.0,2.4866283,-0.17359374,9.484564,0.047040224,0.06339344,-0.002040863,0.03989412,-0.12177988,0.37363186,2017-06-17 22:03:43,71.25719817008007
2.7018566,-0.04309563,9.586384,-4.525384E-6,0.0021272912,-1.293003E-6,114.0,2.4866283,-0.17359374,9.484564,0.05661726,0.04423982,-0.009223938,0.03989412,-0.12177988,0.37363186,2017-06-17 22:03:44,72.17504580885351
2.6862943,-0.038307227,9.586384,-0.0010704339,0.004259108,-0.0031990183,114.0,2.4866283,-0.17359374,9.484564,0.03147793,0.049028225,0.014718056,0.03989412,-0.12177988,0.37363186,2017-06-17 22:03:45,60.75362806777026
2.6898856,-0.037110128,9.604341,-4.525384E-6,-0.0010704339,-0.0010672013,114.0,2.4866283,-0.17359374,9.484564,0.049434423,0.05740793,-0.0044355392,0.03989412,-0.12177988,0.37363186,2017-06-17 22:03:46,69.32889046603773
2.6922798,-0.021547815,9.594764,-4.525384E-6,-4.525384E-6,-0.0010672013,113.0,2.4866283,-0.17359374,9.484564,0.047040224,0.06339344,-0.006829262,0.03989412,-0.12177988,0.37363186,2017-06-17 22:03:47,62.88776587526131
2.6874914,-0.038307227,9.611523,-4.525384E-6,-0.002136342,-1.293003E-6,113.0,2.4866283,-0.17359374,9.484564,0.043448925,0.05621083,-0.018800735,0.03989412,-0.12177988,0.37363186,2017-06-17 22:03:48,72.04439651546755
2.6886885,-0.04070143,9.599552,-4.525384E-6,-0.0053340667,-0.0010672013,114.0,2.4866283,-0.17359374,9.484564,0.047040224,0.03945142,0.030281067,0.03989412,-0.12177988,0.37363186,2017-06-17 22:03:49,70.15549679617851
2.694674,-0.034715924,9.600749,-4.525384E-6,0.0021272912,-1.293003E-6,114.0,2.4866283,-0.17359374,9.484564,0.049434423,0.05501373,-0.0116176605,0.03989412,-0.12177988,0.37363186,2017-06-17 22:03:50,68.6743595667541
2.693477,-0.037110128,9.583989,-0.0010704339,0.0010613832,-0.0010672013,113.0,2.4866283,-0.17359374,9.484564,0.036266327,0.04184562,0.006339073,0.03989412,-0.12177988,0.37363186,2017-06-17 22:03:51,67.45709731222777
2.6922798,-0.039504327,9.586384,0.0010613832,0.0031931996,-0.0010672013,113.0,2.4866283,-0.17359374,9.484564,0.047040224,0.06339344,0.0027475357,0.03989412,-0.12177988,0.37363186,2017-06-17 22:03:52,65.731249126679
2.6862943,-0.038307227,9.594764,-0.0010704339,-0.0010704339,0.0010646154,114.0,2.4866283,-0.17359374,9.484564,0.047040224,0.05501373,-0.024785995,0.03989412,-0.12177988,0.37363186,2017-06-17 22:03:53,61.74235244122314
2.6898856,-0.034715924,9.623494,-0.002136342,-0.0010704339,-1.293003E-6,114.0,2.4866283,-0.17359374,9.484564,0.041054726,0.049028225,-0.021194458,0.03989412,-0.12177988,0.37363186,2017-06-17 22:03:54,73.02786465707906
2.6922798,-0.046686932,9.5971575,0.0010613832,0.0010613832,-0.0010672013,113.0,2.4866283,-0.17359374,9.484564,0.05302596,0.04423982,-0.009223938,0.03989412,-0.12177988,0.37363186,2017-06-17 22:03:55,71.72634280523162
2.6910827,-0.031124622,9.605537,-4.525384E-6,-0.002136342,-0.0021331098,113.0,2.4866283,-0.17359374,9.484564,0.037463427,0.05740793,-0.008026123,0.03989412,-0.12177988,0.37363186,2017-06-17 22:03:56,65.73009096321962
2.693477,-0.038307227,9.585187,-4.525384E-6,-4.525384E-6,-1.293003E-6,114.0,2.4866283,-0.17359374,9.484564,0.03147793,0.05621083,-0.0116176605,0.03989412,-0.12177988,0.37363186,2017-06-17 22:03:58,64.78867297968588
2.695871,-0.038307227,9.589975,-4.525384E-6,-0.002136342,-0.0010672013,115.0,2.4866283,-0.17359374,9.484564,0.033872128,0.049028225,-0.008026123,0.03989412,-0.12177988,0.37363186,2017-06-17 22:03:59,67.96087348618796
2.6767175,-0.02873042,9.562442,-4.525384E-6,0.0021272912,-0.001067848,114.0,2.4866283,-0.17359374,9.484564,0.044646025,0.04543692,0.029083252,0.03989412,-0.12177988,0.37363186,2017-06-17 22:04:00,70.54296779863333
2.6982653,-0.044292733,9.642648,-4.525384E-6,-0.0010704339,0.0021298772,113.0,2.4866283,-0.17359374,9.484564,0.038660526,0.05860503,-0.0032377243,0.03989412,-0.12177988,0.37363186,2017-06-17 22:04:01,71.35146126488823
2.7030537,-0.035913024,9.587581,-4.525384E-6,-4.525384E-6,-1.293003E-6,114.0,2.4871376,-0.17359376,9.484429,0.0513196,0.046634033,-0.029439926,0.039904155,-0.12180456,0.3736308,2017-06-17 22:04:02,71.32535908268912
2.6886885,-0.039504327,9.588778,0.0010613832,-0.0053340667,-0.0021331098,114.0,2.4871376,-0.17359376,9.484429,0.030968666,0.040648535,0.0076704025,0.039904155,-0.12180456,0.3736308,2017-06-17 22:04:03,67.57980345099487
2.6850972,-0.02633622,9.580399,-0.0010704339,0.0021272912,-1.293003E-6,114.0,2.4871376,-0.17359376,9.484429,0.039348364,0.05142244,-0.007891655,0.039904155,-0.12180456,0.3736308,2017-06-17 22:04:04,70.03516226374673
2.6982653,-0.017956512,9.579201,-4.525384E-6,0.0010613832,-0.0010672013,112.0,2.4871376,-0.17359376,9.484429,0.038151264,0.05142244,-0.004301071,0.039904155,-0.12180456,0.3736308,2017-06-17 22:04:05,68.3001523468915
2.6910827,-0.05267244,9.580399,-4.525384E-6,0.0021272912,-0.0010672013,113.0,2.4871376,-0.17359376,9.484429,0.036954165,0.038254336,-0.028243065,0.039904155,-0.12180456,0.3736308,2017-06-17 22:04:06,71.1930797508816
2.6779146,-0.038307227,9.591172,-0.0010704339,-0.004268159,0.0010646154,108.0,2.4871376,-0.17359376,9.484429,0.040545464,0.05261954,-0.00908947,0.039904155,-0.12180456,0.3736308,2017-06-17 22:04:07,65.6524680017973
2.6922798,-0.034715924,9.5732155,-0.0010704339,0.004259108,-1.293003E-6,111.0,2.4871376,-0.17359376,9.484429,0.045333862,0.05261954,0.0076704025,0.039904155,-0.12180456,0.3736308,2017-06-17 22:04:08,64.65780865436132
2.6719291,-0.025139118,9.586384,0.0010613832,0.005325016,-0.0021331098,112.0,2.4871376,-0.17359376,9.484429,0.0549109,0.047831133,-0.0066947937,0.039904155,-0.12180456,0.3736308,2017-06-17 22:04:09,67.68054381415612
2.6970682,-0.038307227,9.605537,-0.002136342,0.0010613832,-0.0010672013,112.0,2.4871376,-0.17359376,9.484429,0.0525167,0.047831133,-0.028243065,0.039904155,-0.12180456,0.3736308,2017-06-17 22:04:10,64.2325598177678
2.6743233,-0.04309563,9.599552,-0.0010704339,0.0010613832,-0.0031990183,111.0,2.4871376,-0.17359376,9.484429,0.036954165,0.05261954,-0.004301071,0.039904155,-0.12180456,0.3736308,2017-06-17 22:04:11,66.30380777600703
2.694674,-0.039504327,9.593566,-0.0010704339,-0.0053340667,-0.0010672013,113.0,2.4871376,-0.17359376,9.484429,0.032165766,0.05142244,0.0052757263,0.039904155,-0.12180456,0.3736308,2017-06-17 22:04:12,63.4270510352816
2.6839,-0.04189853,9.593566,-4.525384E-6,0.005325016,-1.293003E-6,113.0,2.4871376,-0.17359376,9.484429,0.030968666,0.040648535,0.0028820038,0.039904155,-0.12180456,0.3736308,2017-06-17 22:04:13,65.75588273590992
2.695871,-0.04070143,9.588778,-0.002136342,-0.004268159,-0.0010672013,108.0,2.4871376,-0.17359376,9.484429,0.042939663,0.04902824,-0.013877869,0.039904155,-0.12180456,0.3736308,2017-06-17 22:04:14,70.63860332760464
2.6922798,-0.044292733,9.605537,-4.525384E-6,-0.002136342,-1.293003E-6,108.0,2.4871376,-0.17359376,9.484429,0.04772806,0.06339345,-0.0031032562,0.039904155,-0.12180456,0.3736308,2017-06-17 22:04:15,67.6314797111002
2.6970682,-0.02873042,9.579201,0.0021272912,-0.0010704339,-0.0010672013,108.0,2.4871376,-0.17359376,9.484429,0.058502197,0.045436934,0.02921772,0.039904155,-0.12180456,0.3736308,2017-06-17 22:04:16,73.23560404058193
2.6994624,-0.029927522,9.5732155,-4.525384E-6,-0.002136342,0.0031964323,109.0,2.4871376,-0.17359376,9.484429,0.038151264,0.041845635,-0.01507473,0.039904155,-0.12180456,0.3736308,2017-06-17 22:04:17,56.2813222927181
2.6922798,-0.04309563,9.642648,0.0010613832,0.0010613832,-0.0021331098,109.0,2.4880135,-0.17359364,9.4842005,0.04924631,0.044239715,-0.0028743744,0.039921407,-0.121846974,0.37362894,2017-06-17 22:04:18,66.01683645897639
2.6994624,-0.044292733,9.578004,-4.525384E-6,-0.0010704339,0.0010646154,108.0,2.4880135,-0.17359364,9.4842005,0.032486916,0.040648416,-0.025619507,0.039921407,-0.121846974,0.37362894,2017-06-17 22:04:19,69.62652807705904
2.706645,-0.04309563,9.601946,0.0010613832,0.005325016,-0.0010672013,108.0,2.4880135,-0.17359364,9.4842005,0.030092716,0.046633914,0.006702423,0.039921407,-0.121846974,0.37362894,2017-06-17 22:04:20,72.13961630150405
2.6862943,-0.031124622,9.57561,-4.525384E-6,-0.0053340667,-0.0010672013,109.0,2.4880135,-0.17359364,9.4842005,0.04685211,0.056210726,-0.035196304,0.039921407,-0.121846974,0.37362894,2017-06-17 22:04:21,71.89078266054716
2.681506,-0.034715924,9.603143,0.0010613832,-4.525384E-6,-0.0021331098,109.0,2.4870403,-0.17359371,9.484453,0.04064274,0.0598021,-0.011507034,0.039902244,-0.12179986,0.37363097,2017-06-17 22:04:22,70.66009831853394
2.695871,-0.04070143,9.588778,-0.002136342,-0.0010704339,-0.0010672013,108.0,2.4870403,-0.17359371,9.484453,0.050219536,0.04543689,-0.009113312,0.039902244,-0.12179986,0.37363097,2017-06-17 22:04:23,69.98217893933297
2.682703,-0.045489833,9.5732155,-0.0010704339,-0.004268159,-0.0010672013,108.0,2.4870403,-0.17359371,9.484453,0.022686243,0.0609992,-0.01869011,0.039902244,-0.12179986,0.37363097,2017-06-17 22:04:24,54.249386788387625
2.682703,-0.027533319,9.5971575,-4.525384E-6,-0.0010704339,-1.293003E-6,109.0,2.4870403,-0.17359371,9.484453,0.051416874,0.0574079,-0.003127098,0.039902244,-0.12179986,0.37363097,2017-06-17 22:04:25,63.06915521030923
2.694674,-0.025139118,9.562442,-0.0010704339,0.0063909246,-1.293003E-6,110.0,2.4870403,-0.17359371,9.484453,0.023883343,0.04543689,-0.031858444,0.039902244,-0.12179986,0.37363097,2017-06-17 22:04:26,74.57013830188788
2.695871,-0.037110128,9.599552,-0.003202251,-4.525384E-6,-0.0010672013,109.0,2.4870403,-0.17359371,9.484453,0.053811073,0.03586009,-7.3337555E-4,0.039902244,-0.12179986,0.37363097,2017-06-17 22:04:27,73.5050498276201
2.681506,-0.044292733,9.581595,-4.525384E-6,0.0010613832,-0.0010672013,109.0,2.4870403,-0.17359371,9.484453,0.03465724,0.053816594,-0.012703896,0.039902244,-0.12179986,0.37363097,2017-06-17 22:04:28,72.6405846318604
2.6910827,-0.025139118,9.591172,-0.003202251,-0.0010704339,-0.0021331098,109.0,2.4870403,-0.17359371,9.484453,0.03944564,0.04783109,-0.012703896,0.039902244,-0.12179986,0.37363097,2017-06-17 22:04:29,64.57545921331581
2.6839,-0.035913024,9.595961,-0.0010704339,-0.0010704339,-1.293003E-6,112.0,2.4870403,-0.17359371,9.484453,0.03824854,0.050225295,0.0052518845,0.039902244,-0.12179986,0.37363097,2017-06-17 22:04:30,66.63016260536517
2.6874914,-0.031124622,9.581595,-0.003202251,-4.525384E-6,0.0010646154,114.0,2.4870403,-0.17359371,9.484453,0.04064274,0.053816594,-0.011507034,0.039902244,-0.12179986,0.37363097,2017-06-17 22:04:31,72.41684597129635
2.6862943,-0.046686932,9.53012,-4.525384E-6,-0.0010704339,-1.293003E-6,113.0,2.4870403,-0.17359371,9.484453,0.041839838,0.04783109,-0.011507034,0.039902244,-0.12179986,0.37363097,2017-06-17 22:04:32,61.866694023965835
2.6970682,-0.037110128,9.587581,-0.0010704339,-0.002136342,-0.0031990183,111.0,2.4870403,-0.17359371,9.484453,0.055008173,0.050225295,-0.011507034,0.039902244,-0.12179986,0.37363097,2017-06-17 22:04:33,71.54651337001863
2.681506,-0.04309563,9.578004,-4.525384E-6,-0.004268159,-1.293003E-6,111.0,2.4870403,-0.17359371,9.484453,0.04064274,0.04064849,-0.02587223,0.039902244,-0.12179986,0.37363097,2017-06-17 22:04:34,70.33750577802097
2.694674,-0.046686932,9.579201,-4.525384E-6,0.0031931996,-0.0021331098,112.0,2.4870403,-0.17359371,9.484453,0.041839838,0.0609992,0.014828682,0.039902244,-0.12179986,0.37363097,2017-06-17 22:04:35,73.35214228274369
2.694674,-0.04070143,9.579201,0.0010613832,0.0010613832,0.0010646154,113.0,2.4870403,-0.17359371,9.484453,0.03346014,0.051422395,-0.0019302368,0.039902244,-0.12179986,0.37363097,2017-06-17 22:04:36,69.16620467810435
2.6898856,-0.019153614,9.585187,-4.525384E-6,-0.004268159,-1.293003E-6,113.0,2.486477,-0.17359364,9.484603,0.04958582,0.059802026,-0.012853622,0.039891142,-0.12177255,0.3736322,2017-06-17 22:04:37,59.475182409753984
2.6862943,-0.038307227,9.579201,-0.0010704339,-4.525384E-6,-1.293003E-6,112.0,2.486477,-0.17359364,9.484603,0.04120612,0.040648416,-0.008065224,0.039891142,-0.12177255,0.3736322,2017-06-17 22:04:38,72.66638938062812
2.6719291,-0.047884032,9.593566,-0.0010704339,-4.525384E-6,-0.0021331098,111.0,2.486477,-0.17359364,9.484603,0.04240322,0.062196225,-0.0020799637,0.039891142,-0.12177255,0.3736322,2017-06-17 22:04:39,71.33771217069948
2.6898856,-0.050278235,9.568427,-4.525384E-6,-0.0053340667,0.0010646154,111.0,2.486477,-0.17359364,9.484603,0.055571556,0.05381652,-0.02243042,0.039891142,-0.12177255,0.3736322,2017-06-17 22:04:40,67.29999879656862
2.695871,-0.04309563,9.568427,-0.0010704339,-4.525384E-6,-0.0010672013,113.0,2.486477,-0.17359364,9.484603,0.07113385,0.05381652,-0.030810356,0.039891142,-0.12177255,0.3736322,2017-06-17 22:04:41,70.69902466723369
2.706645,-0.022744916,9.588778,-0.0010704339,-0.006399976,-1.293003E-6,113.0,2.486477,-0.17359364,9.484603,0.04719162,0.06459043,-0.020036697,0.039891142,-0.12177255,0.3736322,2017-06-17 22:04:42,72.116777508426
2.7006595,-0.027533319,9.595961,-0.0010704339,0.0021272912,-0.0010672013,113.0,2.486477,-0.17359364,9.484603,0.036417723,0.05142232,-0.024825096,0.039891142,-0.12177255,0.3736322,2017-06-17 22:04:43,68.6693448727844
2.694674,-0.04070143,9.56723,-4.525384E-6,-0.002136342,-0.0010672013,112.0,2.486477,-0.17359364,9.484603,0.04958582,0.059802026,0.0062999725,0.039891142,-0.12177255,0.3736322,2017-06-17 22:04:44,68.78090557756865
2.6982653,-0.037110128,9.593566,0.0010613832,-0.0053340667,0.0010646154,111.0,2.4870343,-0.17359371,9.484457,0.0394516,0.0550137,-0.011510849,0.03990212,-0.12179954,0.37363103,2017-06-17 22:04:45,72.49573034773783
2.670732,-0.02633622,9.568427,-4.525384E-6,0.0063909246,-0.0010672013,111.0,2.4870343,-0.17359371,9.484457,0.06459093,0.064590506,0.007642746,0.03990212,-0.12179954,0.37363103,2017-06-17 22:04:46,71.52938637993957
2.7030537,-0.023942016,9.599552,0.0010613832,-0.003202251,-1.293003E-6,112.0,2.4870343,-0.17359371,9.484457,0.046634197,0.04423979,0.013628006,0.03990212,-0.12179954,0.37363103,2017-06-17 22:04:47,69.41962953585335
2.6791117,-0.044292733,9.609129,-4.525384E-6,-4.525384E-6,0.0021305238,113.0,2.4870343,-0.17359371,9.484457,0.0406487,0.04064849,0.011234283,0.03990212,-0.12179954,0.37363103,2017-06-17 22:04:48,69.61488137180947
2.7114334,-0.045489833,9.583989,-4.525384E-6,-0.002136342,0.0021305238,112.0,2.4870343,-0.17359371,9.484457,0.0370574,0.0598021,0.0028543472,0.03990212,-0.12179954,0.37363103,2017-06-17 22:04:50,65.73385810515822
2.693477,-0.038307227,9.582792,-0.003202251,-0.0010704339,0.0010646154,111.0,2.4870343,-0.17359371,9.484457,0.0430429,0.04783109,-0.011510849,0.03990212,-0.12179954,0.37363103,2017-06-17 22:04:51,70.669603412913
2.694674,-0.021547815,9.588778,-0.0010704339,0.0010613832,-1.293003E-6,111.0,2.4865248,-0.1735937,9.484591,0.0351727,0.056210786,0.0027208328,0.039892085,-0.12177487,0.3736321,2017-06-17 22:04:52,67.81870736326545
2.6970682,-0.039504327,9.570822,0.0010613832,0.0010613832,-0.0021331098,111.0,2.4865248,-0.1735937,9.484591,0.06390333,0.05261948,-0.031995773,0.039892085,-0.12177487,0.3736321,2017-06-17 22:04:53,72.13947581675373
2.6910827,-0.035913024,9.604341,0.0010613832,0.0021272912,-1.293003E-6,112.0,2.4871747,-0.17359364,9.48442,0.052479506,0.055013627,-0.033021927,0.03990489,-0.121806346,0.37363073,2017-06-17 22:04:54,70.70992679140761
2.7018566,-0.033518825,9.601946,-4.525384E-6,-0.003202251,0.0010646154,114.0,2.4871747,-0.17359364,9.48442,0.04409957,0.046633914,-0.042598724,0.03990489,-0.121806346,0.37363073,2017-06-17 22:04:55,71.75586672279961
2.6994624,-0.039504327,9.585187,-0.002136342,0.0021272912,-0.0021331098,114.0,2.4871747,-0.17359364,9.48442,0.053676605,0.062196225,-0.013868332,0.03990489,-0.121806346,0.37363073,2017-06-17 22:04:56,72.85148876254952
2.681506,-0.038307227,9.576807,-0.0010704339,-0.002136342,0.0010646154,113.0,2.4871747,-0.17359364,9.48442,0.04529667,0.059802026,-0.009079933,0.03990489,-0.121806346,0.37363073,2017-06-17 22:04:57,66.58147519865523
2.7018566,-0.029927522,9.572019,-4.525384E-6,-0.0053340667,-1.293003E-6,113.0,2.4871747,-0.17359364,9.48442,0.04769087,0.055013627,-0.019853592,0.03990489,-0.121806346,0.37363073,2017-06-17 22:04:58,62.95456668204948
2.6874914,-0.017956512,9.568427,-4.525384E-6,-0.0010704339,-0.0021331098,113.0,2.4876912,-0.1735937,9.484285,0.038794756,0.05261948,-0.018522263,0.039915062,-0.121831365,0.37362966,2017-06-17 22:04:59,68.00846745888934
2.6803088,-0.03232172,9.587581,-4.525384E-6,-0.0053340667,-0.0010672013,113.0,2.4876912,-0.1735937,9.484285,0.049568653,0.058604985,-0.016127586,0.039915062,-0.121831365,0.37362966,2017-06-17 22:05:00,71.52655391940297
2.6779146,-0.031124622,9.631873,0.0010613832,-0.0010704339,-0.0010672013,113.0,2.4876912,-0.1735937,9.484285,0.045977354,0.059802085,-0.0053539276,0.039915062,-0.121831365,0.37362966,2017-06-17 22:05:01,69.94577038077692
2.6970682,-0.033518825,9.576807,-4.525384E-6,-0.0010704339,-0.0021331098,113.0,2.4876912,-0.1735937,9.484285,0.05076599,0.060999185,-0.017324448,0.039915062,-0.121831365,0.37362966,2017-06-17 22:05:02,72.64412990441348
2.6886885,-0.046686932,9.539697,-4.525384E-6,0.0010613832,-1.293003E-6,114.0,2.4876912,-0.1735937,9.484285,0.05675149,0.039451376,0.017391205,0.039915062,-0.121831365,0.37362966,2017-06-17 22:05:03,73.71535798481528
2.6862943,-0.038307227,9.585187,-0.002136342,0.0010613832,-1.293003E-6,113.0,2.488249,-0.17359379,9.4841385,0.039433956,0.03346595,-0.026755333,0.039926052,-0.12185839,0.3736285,2017-06-17 22:05:04,70.74893120956281
2.6910827,-0.029927522,9.5732155,0.0010613832,-0.011729517,-1.293003E-6,113.0,2.4883265,-0.17359383,9.484118,0.03696227,0.049028315,-0.0027923584,0.039927576,-0.121862136,0.37362835,2017-06-17 22:05:05,65.41559696099125
2.7114334,-0.02873042,9.55047,0.0010613832,-4.525384E-6,-0.0010672013,113.0,2.486869,-0.17359367,9.484499,0.043208122,0.057407856,-0.010355949,0.039898872,-0.12179155,0.3736314,2017-06-17 22:05:06,61.65947035798712
2.694674,-0.029927522,9.582792,-0.0010704339,-0.004268159,-1.293003E-6,113.0,2.4873052,-0.17359377,9.484385,0.040377855,0.06099926,-0.021015167,0.039907463,-0.12181268,0.37363046,2017-06-17 22:05:07,71.30229303538118
2.681506,-0.035913024,9.601946,-4.525384E-6,-4.525384E-6,-0.0010672013,113.0,2.4873052,-0.17359377,9.484385,0.043969154,0.06219636,-0.034183502,0.039907463,-0.12181268,0.37363046,2017-06-17 22:05:08,70.42868451446422
2.6922798,-0.039504327,9.615114,0.0010613832,-0.0053340667,-1.293003E-6,113.0,2.4873052,-0.17359377,9.484385,0.040377855,0.052619554,-0.018621445,0.039907463,-0.12181268,0.37363046,2017-06-17 22:05:09,65.90817447715881
2.682703,-0.055066638,9.581595,-4.525384E-6,0.005325016,-0.0010672013,111.0,2.4873052,-0.17359377,9.484385,0.061925888,0.05621086,-6.64711E-4,0.039907463,-0.12181268,0.37363046,2017-06-17 22:05:10,71.07048149634294
2.706645,-0.02633622,9.572019,0.0010613832,-4.525384E-6,0.0010646154,110.0,2.4873052,-0.17359377,9.484385,0.05234909,0.06099926,-0.012635231,0.039907463,-0.12181268,0.37363046,2017-06-17 22:05:11,74.078463422763
2.695871,-0.035913024,9.600749,-4.525384E-6,-0.002136342,-1.293003E-6,110.0,2.4873052,-0.17359377,9.484385,0.047560453,0.05621086,0.011306763,0.039907463,-0.12181268,0.37363046,2017-06-17 22:05:12,59.301690192568145
2.6982653,-0.035913024,9.589975,-0.0010704339,0.0010613832,-1.293003E-6,110.0,2.4873052,-0.17359377,9.484385,0.05594039,0.05621086,-0.019818306,0.039907463,-0.12181268,0.37363046,2017-06-17 22:05:13,56.441353524577494
2.6803088,-0.033518825,9.579201,-4.525384E-6,-4.525384E-6,0.0010646154,113.0,2.4873052,-0.17359377,9.484385,0.05713749,0.04663405,-0.03777504,0.039907463,-0.12181268,0.37363046,2017-06-17 22:05:14,70.38457054160061
2.7006595,-0.037110128,9.569624,-0.0010704339,-0.0010704339,-0.0021331098,110.0,2.4873052,-0.17359377,9.484385,0.034392357,0.04543695,-0.0030584335,0.039907463,-0.12181268,0.37363046,2017-06-17 22:05:15,64.47011076821853
2.693477,-0.02633622,9.587581,-0.0010704339,-4.525384E-6,-1.293003E-6,110.0,2.4867313,-0.17359376,9.484535,0.055317163,0.05261954,-0.015180588,0.03989616,-0.12178489,0.3736317,2017-06-17 22:05:16,69.67760844499148
2.6850972,-0.050278235,9.609129,-0.002136342,0.0031931996,-1.293003E-6,110.0,2.4867313,-0.17359376,9.484535,0.03616333,0.047831133,-0.022362709,0.03989616,-0.12178489,0.3736317,2017-06-17 22:05:17,70.57390208744711
2.6862943,-0.02633622,9.55885,-0.0010704339,-0.0010704339,-0.0010672013,111.0,2.4867313,-0.17359376,9.484535,0.04095173,0.059802145,-0.03912258,0.03989616,-0.12178489,0.3736317,2017-06-17 22:05:18,69.2122392779386
2.693477,-0.02873042,9.578004,-4.525384E-6,-0.002136342,-0.0010672013,111.0,2.4867313,-0.17359376,9.484535,0.048134327,0.05022534,-0.003209114,0.03989616,-0.12178489,0.3736317,2017-06-17 22:05:19,69.92308662480957
2.6791117,-0.03232172,9.581595,-0.0010704339,0.0031931996,-0.0021331098,113.0,2.4867313,-0.17359376,9.484535,0.056514263,0.06339345,-0.009195328,0.03989616,-0.12178489,0.3736317,2017-06-17 22:05:20,69.99879353286143
2.7018566,-0.035913024,9.606734,-0.0010704339,0.0021272912,-1.293003E-6,113.0,2.4867313,-0.17359376,9.484535,0.03736043,0.057407945,0.014746666,0.03989616,-0.12178489,0.3736317,2017-06-17 22:05:21,66.27032399522044
2.695871,-0.02633622,9.578004,-4.525384E-6,-4.525384E-6,0.0010646154,113.0,2.4867313,-0.17359376,9.484535,0.049331427,0.045436934,-0.022362709,0.03989616,-0.12178489,0.3736317,2017-06-17 22:05:22,65.94195194233748
2.7030537,-0.029927522,9.5732155,-4.525384E-6,0.0031931996,-1.293003E-6,113.0,2.4867313,-0.17359376,9.484535,0.051725864,0.06818185,0.002776146,0.03989616,-0.12178489,0.3736317,2017-06-17 22:05:23,71.28726901767196
2.6898856,-0.04189853,9.592369,-0.0010704339,-0.0010704339,-1.293003E-6,110.0,2.4867313,-0.17359376,9.484535,0.04334593,0.059802145,3.8146973E-4,0.03989616,-0.12178489,0.3736317,2017-06-17 22:05:24,67.78101870471002
2.6791117,-0.04189853,9.574412,0.0010613832,0.0021272912,0.0010646154,113.0,2.4867313,-0.17359376,9.484535,0.058908463,0.05142244,-0.029545784,0.03989616,-0.12178489,0.3736317,2017-06-17 22:05:25,67.8292826318843
2.6970682,-0.029927522,9.585187,-0.0010704339,-4.525384E-6,-1.293003E-6,114.0,2.4867313,-0.17359376,9.484535,0.03137493,0.056210846,-0.019968987,0.03989616,-0.12178489,0.3736317,2017-06-17 22:05:26,74.99023851135667
2.7006595,-0.02633622,9.578004,-0.002136342,-0.004268159,-1.293003E-6,114.0,2.4867313,-0.17359376,9.484535,0.057711363,0.044239834,0.0063676834,0.03989616,-0.12178489,0.3736317,2017-06-17 22:05:27,69.97363142832144
2.6910827,-0.037110128,9.591172,0.0021272912,-0.004268159,-0.0010672013,113.0,2.4867313,-0.17359376,9.484535,0.045740128,0.05142244,0.002776146,0.03989616,-0.12178489,0.3736317,2017-06-17 22:05:28,70.63032124510065
2.705448,-0.02873042,9.592369,-0.0010704339,0.004259108,-0.0010672013,113.0,2.4867313,-0.17359376,9.484535,0.03855753,0.056210846,-0.0056037903,0.03989616,-0.12178489,0.3736317,2017-06-17 22:05:29,72.32766780704053
2.6719291,-0.019153614,9.5971575,-4.525384E-6,0.0021272912,0.0021305238,113.0,2.4867313,-0.17359376,9.484535,0.04334593,0.05022534,-0.0139837265,0.03989616,-0.12178489,0.3736317,2017-06-17 22:05:30,71.01952362095042
2.694674,-0.022744916,9.583989,0.0021272912,0.0021272912,-1.293003E-6,113.0,2.4872377,-0.17359376,9.484404,0.048825026,0.06339345,-0.005472183,0.039906126,-0.12180939,0.3736306,2017-06-17 22:05:31,69.81477690812385
2.6922798,-0.04189853,9.552865,-0.0010704339,0.0031931996,0.0021305238,113.0,2.4872377,-0.17359376,9.484404,0.041642427,0.05261954,-0.005472183,0.039906126,-0.12180939,0.3736306,2017-06-17 22:05:32,67.43204348102188
2.695871,-0.029927522,9.594764,0.0021272912,-0.002136342,-1.293003E-6,114.0,2.4872377,-0.17359376,9.484404,0.046430826,0.06339345,-0.024625778,0.039906126,-0.12180939,0.3736306,2017-06-17 22:05:33,64.30758877306812
2.6862943,-0.034715924,9.583989,-0.0010704339,-0.004268159,0.0010646154,114.0,2.4872377,-0.17359376,9.484404,0.039248228,0.05381664,-0.022231102,0.039906126,-0.12180939,0.3736306,2017-06-17 22:05:34,63.13640350219786
2.6862943,-0.023942016,9.582792,-4.525384E-6,0.002126645,-1.293003E-6,113.0,2.487752,-0.17359377,9.484269,0.045916557,0.051422454,0.015012741,0.03991626,-0.12183431,0.37362954,2017-06-17 22:05:35,54.25648199372223
2.6886885,-0.02633622,9.5971575,-4.525384E-6,0.002126645,-1.293003E-6,113.0,2.487752,-0.17359377,9.484269,0.051902294,0.04304275,-0.026885986,0.03991626,-0.12183431,0.37362954,2017-06-17 22:05:36,55.96640787009651
2.669535,-0.029927522,9.568427,-0.0010704339,0.002126645,-1.293003E-6,113.0,2.487752,-0.17359377,9.484269,0.03753686,0.050225355,0.037757874,0.03991626,-0.12183431,0.37362954,2017-06-17 22:05:37,70.22364778757522
2.6910827,-0.044292733,9.592369,-4.525384E-6,-5.172012E-6,-1.293003E-6,113.0,2.487752,-0.17359377,9.484269,0.047113657,0.065787666,-0.014914513,0.03991626,-0.12183431,0.37362954,2017-06-17 22:05:38,72.25885509564098
2.6874914,-0.033518825,9.588778,0.0021272912,0.003192553,-1.293003E-6,113.0,2.487752,-0.17359377,9.484269,0.054296494,0.050225355,-0.012519836,0.03991626,-0.12183431,0.37362954,2017-06-17 22:05:39,59.511149720624665
2.6850972,-0.03232172,9.598354,-4.525384E-6,-0.0010704339,-1.293003E-6,114.0,2.487752,-0.17359377,9.484269,0.044719458,0.047831148,-0.010126114,0.03991626,-0.12183431,0.37362954,2017-06-17 22:05:40,62.87715195803283
2.695871,-0.02873042,9.586384,0.0010613832,-0.003202251,-1.293003E-6,114.0,2.487752,-0.17359377,9.484269,0.029157162,0.04423985,-0.011322975,0.03991626,-0.12183431,0.37362954,2017-06-17 22:05:41,72.4790694088698
2.694674,-0.039504327,9.586384,-0.0010704339,0.0021272912,0.0010646154,114.0,2.487752,-0.17359377,9.484269,0.03633976,0.053816654,-0.002943039,0.03991626,-0.12183431,0.37362954,2017-06-17 22:05:42,64.64417679346083
2.681506,-0.021547815,9.589975,-0.0010704339,0.0063909246,-0.0010672013,113.0,2.487752,-0.17359377,9.484269,0.043522358,0.052619554,-0.0077314377,0.03991626,-0.12183431,0.37362954,2017-06-17 22:05:43,67.56520403280027
2.6874914,-0.037110128,9.580399,-0.0010704339,0.0031931996,-0.0010672013,113.0,2.4872518,-0.17359374,9.484401,0.04043126,0.05621083,-0.005469322,0.0399064,-0.12181007,0.37363058,2017-06-17 22:05:44,72.45794989605234
2.706645,-0.034715924,9.605537,-4.525384E-6,-0.002136342,-1.293003E-6,113.0,2.4872518,-0.17359374,9.484401,0.058387995,0.06219633,-0.003074646,0.0399064,-0.12181007,0.37363058,2017-06-17 22:05:45,74.08996146187751
2.6922798,-0.034715924,9.588778,-0.0010704339,0.004259108,-1.293003E-6,114.0,2.4872518,-0.17359374,9.484401,0.04043126,0.04064852,0.0041074753,0.0399064,-0.12181007,0.37363058,2017-06-17 22:05:46,66.61557931431537
2.6898856,-0.04309563,9.624691,-4.525384E-6,0.0031931996,0.0010646154,114.0,2.4878047,-0.17359374,9.484255,0.056638002,0.04064852,-0.010111809,0.039917298,-0.12183686,0.37362942,2017-06-17 22:05:47,72.24053929613243
2.6874914,-0.047884032,9.582792,0.0021272912,-0.002136342,-1.293003E-6,111.0,2.4878047,-0.17359374,9.484255,0.042272568,0.03945142,-0.022082329,0.039917298,-0.12183686,0.37362942,2017-06-17 22:05:48,71.91432789497695
2.6886885,-0.033518825,9.57561,-0.0010704339,0.0021272912,-0.0010672013,106.0,2.4878047,-0.17359374,9.484255,0.048258066,0.050225325,0.010238647,0.039917298,-0.12183686,0.37362942,2017-06-17 22:05:50,72.85580912053473
2.6922798,-0.029927522,9.587581,-0.0010704339,-0.004268159,-1.293003E-6,108.0,2.4878047,-0.17359374,9.484255,0.050652504,0.04543692,-0.00532341,0.039917298,-0.12183686,0.37362942,2017-06-17 22:05:51,61.44851426483251
2.6898856,-0.04309563,9.5732155,-4.525384E-6,-0.004268159,0.0010646154,111.0,2.4878047,-0.17359374,9.484255,0.03628707,0.04184562,-0.024477005,0.039917298,-0.12183686,0.37362942,2017-06-17 22:05:52,55.951816492740214
2.693477,-0.031124622,9.589975,-4.525384E-6,0.0010613832,-0.0021331098,113.0,2.4878047,-0.17359374,9.484255,0.057835102,0.03705722,0.0030565262,0.039917298,-0.12183686,0.37362942,2017-06-17 22:05:53,66.3419166896024
2.705448,-0.04070143,9.578004,-0.0010704339,0.0021272912,-0.0021331098,113.0,2.4878047,-0.17359374,9.484255,0.026710272,0.03825432,-0.0065202713,0.039917298,-0.12183686,0.37362942,2017-06-17 22:05:54,71.21320343383061
2.6791117,-0.031124622,9.574412,-4.525384E-6,-4.525384E-6,-1.293003E-6,111.0,2.4878047,-0.17359374,9.484255,0.048258066,0.06099923,-0.023280144,0.039917298,-0.12183686,0.37362942,2017-06-17 22:05:55,70.44614442641168
2.6886885,-0.02873042,9.595961,0.0010613832,-0.002136342,-0.0010672013,111.0,2.4878047,-0.17359374,9.484255,0.043469667,0.03705722,0.0030565262,0.039917298,-0.12183686,0.37362942,2017-06-17 22:05:56,66.53111570659803
2.693477,-0.046686932,9.563639,-0.0010704339,0.0010613832,0.0010646154,107.0,2.4878047,-0.17359374,9.484255,0.03269577,0.04543692,-0.0436306,0.039917298,-0.12183686,0.37362942,2017-06-17 22:05:57,72.8630404694696
2.6862943,-0.029927522,9.583989,-4.525384E-6,0.0021272912,-1.293003E-6,107.0,2.4878047,-0.17359374,9.484255,0.0662148,0.04543692,0.007844925,0.039917298,-0.12183686,0.37362942,2017-06-17 22:05:58,74.21255612147677
2.6982653,-0.031124622,9.563639,-4.525384E-6,-0.0010704339,-0.0010672013,108.0,2.4872983,-0.1735937,9.484386,0.04277897,0.062196285,-0.03298855,0.03990733,-0.12181234,0.37363046,2017-06-17 22:05:59,70.07069192272944
2.6886885,-0.02873042,9.613917,-4.525384E-6,-0.003202251,0.0021305238,109.0,2.4872983,-0.1735937,9.484386,0.049961567,0.059802085,-0.015031815,0.03990733,-0.12181234,0.37363046,2017-06-17 22:06:00,70.80657716337372
2.6886885,-0.027533319,9.582792,-4.525384E-6,-4.525384E-6,-0.0010672013,109.0,2.4872983,-0.1735937,9.484386,0.046370268,0.043042675,-0.017425537,0.03990733,-0.12181234,0.37363046,2017-06-17 22:06:01,67.0514339804972
2.6898856,-0.037110128,9.598354,-4.525384E-6,-0.004268159,-1.293003E-6,108.0,2.4872983,-0.1735937,9.484386,0.04277897,0.056210786,-0.016228676,0.03990733,-0.12181234,0.37363046,2017-06-17 22:06:02,69.92076070198068
2.693477,-0.038307227,9.589975,0.0010613832,0.0010613832,0.0010646154,107.0,2.4872983,-0.1735937,9.484386,0.046370268,0.05022528,-0.04495907,0.03990733,-0.12181234,0.37363046,2017-06-17 22:06:03,74.69310750763587
2.6886885,-0.025139118,9.582792,-4.525384E-6,-0.0053340667,0.0010646154,108.0,2.4872983,-0.1735937,9.484386,0.04038477,0.04902818,-0.02820015,0.03990733,-0.12181234,0.37363046,2017-06-17 22:06:04,67.47356239218344
2.6886885,-0.021547815,9.605537,-0.0010704339,-0.004268159,-1.293003E-6,108.0,2.486597,-0.17359364,9.48457,0.043480158,0.06339333,0.0027418137,0.03989352,-0.121778384,0.37363192,2017-06-17 22:06:05,54.14766674524582
2.7006595,-0.023942016,9.598354,0.0021272912,0.0021272912,0.0021305238,109.0,2.486597,-0.17359364,9.48457,0.03988886,0.057407826,-8.497238E-4,0.03989352,-0.121778384,0.37363192,2017-06-17 22:06:06,68.883304745071
2.6910827,-0.046686932,9.580399,-4.525384E-6,-0.0010704339,0.0010646154,108.0,2.4876611,-0.1735937,9.484291,0.05199313,0.047831073,-0.013739586,0.039914474,-0.12182991,0.3736297,2017-06-17 22:06:07,73.82054114591763
2.681506,-0.023942016,9.574412,-0.0010704339,-0.0010704339,-0.0010672013,107.0,2.4876611,-0.1735937,9.484291,0.05438733,0.043042675,0.036539078,0.039914474,-0.12182991,0.3736297,2017-06-17 22:06:08,71.44877616705895
2.6862943,-0.038307227,9.583989,-4.525384E-6,-0.004268159,0.0010646154,106.0,2.4876611,-0.1735937,9.484291,0.05199313,0.046633974,-0.024513245,0.039914474,-0.12182991,0.3736297,2017-06-17 22:06:09,65.43739840149487
2.7030537,-0.034715924,9.580399,-0.002136342,-4.525384E-6,-0.0010672013,107.0,2.4876611,-0.1735937,9.484291,0.041218996,0.043042675,-0.018527985,0.039914474,-0.12182991,0.3736297,2017-06-17 22:06:10,66.8051982792048
2.682703,-0.033518825,9.56723,0.0010613832,-4.525384E-6,-1.293003E-6,108.0,2.4876611,-0.1735937,9.484291,0.049598694,0.045436874,-0.020921707,0.039914474,-0.12182991,0.3736297,2017-06-17 22:06:11,66.8079735788736
2.6874914,-0.046686932,9.585187,0.0021272912,-4.525384E-6,-1.293003E-6,108.0,2.4876611,-0.1735937,9.484291,0.048401594,0.05381658,-0.018527985,0.039914474,-0.12182991,0.3736297,2017-06-17 22:06:12,73.18869640038325
2.6982653,-0.04309563,9.582792,-0.0010704339,-0.0053340667,0.0021305238,109.0,2.4876611,-0.1735937,9.484291,0.041218996,0.062196285,-0.0053596497,0.039914474,-0.12182991,0.3736297,2017-06-17 22:06:13,68.07077716727976
2.6910827,-0.03232172,9.591172,-4.525384E-6,-4.525384E-6,-0.0010672013,110.0,2.4876611,-0.1735937,9.484291,0.049598694,0.055013686,-0.007753372,0.039914474,-0.12182991,0.3736297,2017-06-17 22:06:14,64.97739844863116
2.681506,-0.029927522,9.593566,0.0010613832,0.0010613832,0.0010646154,110.0,2.4876611,-0.1735937,9.484291,0.048401594,0.043042675,-0.029301643,0.039914474,-0.12182991,0.3736297,2017-06-17 22:06:15,57.155739899941295
2.6839,-0.034715924,9.586384,-4.525384E-6,-4.525384E-6,-1.293003E-6,111.0,2.4876611,-0.1735937,9.484291,0.034036398,0.05261948,-0.03768158,0.039914474,-0.12182991,0.3736297,2017-06-17 22:06:16,58.63919560481038
2.682703,-0.02633622,9.585187,-0.002136342,-4.525384E-6,-0.0031990183,111.0,2.4876611,-0.1735937,9.484291,0.049598694,0.040648475,-0.010148048,0.039914474,-0.12182991,0.3736297,2017-06-17 22:06:17,66.90450821937836
2.6898856,-0.020350715,9.598354,-4.525384E-6,0.0010613832,-1.293003E-6,111.0,2.4876611,-0.1735937,9.484291,0.046007395,0.06459049,0.009005547,0.039914474,-0.12182991,0.3736297,2017-06-17 22:06:18,72.60413362736143
2.681506,-0.034715924,9.594764,-0.0010704339,-0.002136342,-1.293003E-6,111.0,2.4876611,-0.1735937,9.484291,0.047204494,0.0729702,-0.012541771,0.039914474,-0.12182991,0.3736297,2017-06-17 22:06:19,72.8742413077601
2.6898856,-0.039504327,9.566033,-0.0010704339,-0.002136342,-1.293003E-6,111.0,2.4876611,-0.1735937,9.484291,0.037627697,0.045436874,-5.712509E-4,0.039914474,-0.12182991,0.3736297,2017-06-17 22:06:20,71.02473532038418
2.6910827,-0.031124622,9.603143,-0.0010704339,-0.004268159,-0.0031990183,112.0,2.4876611,-0.1735937,9.484291,0.043613195,0.044239774,-0.024513245,0.039914474,-0.12182991,0.3736297,2017-06-17 22:06:21,70.1719791361614
2.6886885,-0.02873042,9.588778,0.0010613832,-0.0010704339,-1.293003E-6,111.0,2.4876611,-0.1735937,9.484291,0.0280509,0.045436874,-5.712509E-4,0.039914474,-0.12182991,0.3736297,2017-06-17 22:06:22,64.16906366399957
2.707842,-0.035913024,9.582792,-4.525384E-6,-0.002136342,-1.293003E-6,111.0,2.4876611,-0.1735937,9.484291,0.041218996,0.06339339,-0.03768158,0.039914474,-0.12182991,0.3736297,2017-06-17 22:06:23,71.02587618335744
2.6970682,-0.037110128,9.599552,0.0010613832,0.0031931996,0.0010646154,110.0,2.4876611,-0.1735937,9.484291,0.042416096,0.044239774,0.009005547,0.039914474,-0.12182991,0.3736297,2017-06-17 22:06:24,67.16446525834121
2.6982653,-0.023942016,9.604341,-0.0010704339,0.004259108,0.0010646154,110.0,2.4876611,-0.1735937,9.484291,0.041218996,0.057407886,-0.0017681122,0.039914474,-0.12182991,0.3736297,2017-06-17 22:06:25,69.44612556547008
2.695871,-0.037110128,9.579201,-0.002136342,-0.0053340667,-1.293003E-6,111.0,2.4876611,-0.1735937,9.484291,0.05199313,0.062196285,-0.040075302,0.039914474,-0.12182991,0.3736297,2017-06-17 22:06:26,67.6532553116452
2.693477,-0.031124622,9.544485,-4.525384E-6,-4.525384E-6,-1.293003E-6,111.0,2.4876611,-0.1735937,9.484291,0.043613195,0.055013686,-0.019724846,0.039914474,-0.12182991,0.3736297,2017-06-17 22:06:27,70.19873530162374
2.7018566,-0.025139118,9.613917,-4.525384E-6,0.0031931996,-0.0010672013,81.0,2.4876611,-0.1735937,9.484291,0.034036398,0.056210786,-0.012541771,0.039914474,-0.12182991,0.3736297,2017-06-17 22:06:28,69.42927917047786
2.6755204,-0.038307227,9.635465,-0.0010704339,0.0010613832,-0.0031990183,51.0,2.4876611,-0.1735937,9.484291,0.040021896,0.06339339,-0.008951187,0.039914474,-0.12182991,0.3736297,2017-06-17 22:06:29,72.17896398675018
2.6791117,-0.022744916,9.578004,-4.525384E-6,-0.0010704339,-0.0021331098,103.0,2.4876611,-0.1735937,9.484291,0.047204494,0.06578759,-0.008951187,0.039914474,-0.12182991,0.3736297,2017-06-17 22:06:30,67.51336597972261
2.681506,-0.034715924,9.569624,-4.525384E-6,-4.525384E-6,-0.0010672013,110.0,2.4876611,-0.1735937,9.484291,0.047204494,0.060999185,-0.03169632,0.039914474,-0.12182991,0.3736297,2017-06-17 22:06:31,71.7815383515345
2.705448,-0.031124622,9.589975,-4.525384E-6,0.0031931996,-0.0010672013,110.0,2.4876611,-0.1735937,9.484291,0.044810295,0.047831073,-0.008951187,0.039914474,-0.12182991,0.3736297,2017-06-17 22:06:32,74.77406430136263
2.6850972,-0.037110128,9.619903,0.0010613832,-0.002136342,-0.0010672013,110.0,2.4876611,-0.1735937,9.484291,0.034036398,0.06578759,-0.013739586,0.039914474,-0.12182991,0.3736297,2017-06-17 22:06:33,71.23912470938735
2.6779146,-0.025139118,9.599552,-0.0010704339,0.0021272912,0.0010646154,110.0,2.4876611,-0.1735937,9.484291,0.038824797,0.05142238,-0.025710106,0.039914474,-0.12182991,0.3736297,2017-06-17 22:06:34,72.57470972779574
2.6779146,-0.045489833,9.563639,-0.0010704339,-0.0010704339,-0.0010672013,109.0,2.4871535,-0.17359361,9.484425,0.027361393,0.058604896,-0.030632019,0.03990448,-0.12180533,0.37363076,2017-06-17 22:06:35,71.92336123349315
2.6850972,-0.02633622,9.619903,-4.525384E-6,-0.002136342,-1.293003E-6,109.0,2.4871535,-0.17359361,9.484425,0.028558493,0.043042585,-0.036618233,0.03990448,-0.12180533,0.37363076,2017-06-17 22:06:36,69.25093638663525
2.6874914,-0.02873042,9.556456,0.0010613832,-4.525384E-6,-0.0021331098,112.0,2.4871535,-0.17359361,9.484425,0.04052949,0.041845486,0.01246357,0.03990448,-0.12180533,0.37363076,2017-06-17 22:06:37,72.97677086632098
2.6862943,-0.045489833,9.585187,-0.002136342,0.0010613832,-1.293003E-6,112.0,2.4871535,-0.17359361,9.484425,0.057289124,0.055013597,0.007675171,0.03990448,-0.12180533,0.37363076,2017-06-17 22:06:38,71.8090337611258
2.7006595,-0.047884032,9.593566,-0.0010704339,-4.525384E-6,0.0010646154,111.0,2.4871535,-0.17359361,9.484425,0.058486223,0.038254187,-0.022252083,0.03990448,-0.12180533,0.37363076,2017-06-17 22:06:39,73.5310212534533
2.6922798,-0.029927522,9.589975,0.0021272912,-0.0010704339,-1.293003E-6,112.0,2.4876618,-0.17359367,9.484291,0.034035683,0.06937886,0.014990807,0.039914493,-0.12182996,0.3736297,2017-06-17 22:06:40,71.59576925757611
2.6862943,-0.034715924,9.586384,-4.525384E-6,0.0021272912,-1.293003E-6,111.0,2.4876618,-0.17359367,9.484291,0.04600668,0.046633944,-0.0041627884,0.039914493,-0.12182996,0.3736297,2017-06-17 22:06:41,55.14045159158641
2.6982653,-0.038307227,9.591172,-4.525384E-6,0.0031931996,-0.0010672013,111.0,2.4876618,-0.17359367,9.484291,0.035232782,0.057407856,0.012597084,0.039914493,-0.12182996,0.3736297,2017-06-17 22:06:42,69.08786221046948
2.6922798,-0.04309563,9.586384,-4.525384E-6,0.0010613832,-0.0021331098,111.0,2.4876618,-0.17359367,9.484291,0.035232782,0.06578756,-0.018527985,0.039914493,-0.12182996,0.3736297,2017-06-17 22:06:43,70.57073064209649
2.6898856,-0.04189853,9.57561,-0.0010704339,-4.525384E-6,0.0010646154,111.0,2.4876618,-0.17359367,9.484291,0.04720378,0.04902815,-0.018527985,0.039914493,-0.12182996,0.3736297,2017-06-17 22:06:44,72.56124482723179
2.6982653,-0.044292733,9.592369,-0.002136342,0.0010613832,-1.293003E-6,113.0,2.4876618,-0.17359367,9.484291,0.04241538,0.041845545,-0.03169632,0.039914493,-0.12182996,0.3736297,2017-06-17 22:06:45,69.41602612572926
2.7006595,-0.03232172,9.588778,0.0010613832,-0.003202251,-0.0010672013,113.0,2.4876618,-0.17359367,9.484291,0.04241538,0.05022525,0.009005547,0.039914493,-0.12182996,0.3736297,2017-06-17 22:06:46,71.42090455213632
2.6910827,-0.03232172,9.582792,-4.525384E-6,-0.003202251,-1.293003E-6,113.0,2.4876618,-0.17359367,9.484291,0.04241538,0.046633944,-0.007753372,0.039914493,-0.12182996,0.3736297,2017-06-17 22:06:47,68.4601975028354
2.6922798,-0.027533319,9.5971575,0.0021272912,-0.002136342,-0.0021331098,113.0,2.4876618,-0.17359367,9.484291,0.050795317,0.040648445,-0.0041627884,0.039914493,-0.12182996,0.3736297,2017-06-17 22:06:48,58.80486667463274
2.6994624,-0.025139118,9.595961,-0.0010704339,0.0031931996,-1.293003E-6,113.0,2.4876618,-0.17359367,9.484291,0.056780815,0.047831044,0.005414009,0.039914493,-0.12182996,0.3736297,2017-06-17 22:06:49,67.26376307502693
2.6791117,-0.035913024,9.556456,-4.525384E-6,0.0021272912,-1.293003E-6,113.0,2.4876618,-0.17359367,9.484291,0.059175014,0.046633944,-0.013739586,0.039914493,-0.12182996,0.3736297,2017-06-17 22:06:50,70.10703564091506
2.6982653,-0.05865794,9.595961,-4.525384E-6,-0.004268159,-1.293003E-6,113.0,2.4876618,-0.17359367,9.484291,0.051992416,0.060999155,-0.028104782,0.039914493,-0.12182996,0.3736297,2017-06-17 22:06:51,73.45057099700625
2.694674,-0.02633622,9.593566,-0.0010704339,-4.525384E-6,0.0010646154,111.0,2.4876618,-0.17359367,9.484291,0.057977915,0.041845545,-0.02690792,0.039914493,-0.12182996,0.3736297,2017-06-17 22:06:52,64.22910525925194
2.6886885,-0.031124622,9.600749,-0.0010704339,-0.004268159,-0.0031990183,110.0,2.4876618,-0.17359367,9.484291,0.054386616,0.05261945,-0.012541771,0.039914493,-0.12182996,0.3736297,2017-06-17 22:06:53,67.64990656365676
2.6922798,-0.044292733,9.586384,-4.525384E-6,-0.0053340667,-0.0010672013,110.0,2.4876618,-0.17359367,9.484291,0.036429882,0.047831044,-0.0053596497,0.039914493,-0.12182996,0.3736297,2017-06-17 22:06:54,71.49646062584934
2.6898856,-0.020350715,9.564836,-4.525384E-6,-0.002136342,-0.0010672013,110.0,2.4876618,-0.17359367,9.484291,0.050795317,0.06818176,-0.01733017,0.039914493,-0.12182996,0.3736297,2017-06-17 22:06:55,69.19478587493788
2.6898856,-0.017956512,9.582792,0.0010613832,0.0085227415,-1.293003E-6,111.0,2.4876618,-0.17359367,9.484291,0.04361248,0.05142235,-0.008951187,0.039914493,-0.12182996,0.3736297,2017-06-17 22:06:56,73.15201283340372
2.6994624,-0.038307227,9.583989,0.0010613832,-0.003202251,-1.293003E-6,110.0,2.4876618,-0.17359367,9.484291,0.03882408,0.047831044,-0.007753372,0.039914493,-0.12182996,0.3736297,2017-06-17 22:06:58,68.721061842716
2.6970682,-0.035913024,9.606734,-4.525384E-6,0.0031931996,-0.0010672013,110.0,2.4876618,-0.17359367,9.484291,0.035232782,0.057407856,-0.01733017,0.039914493,-0.12182996,0.3736297,2017-06-17 22:06:59,69.10163095714985
2.693477,-0.02873042,9.588778,0.0010613832,-0.003202251,-1.293003E-6,110.0,2.4876618,-0.17359367,9.484291,0.053189516,0.045436844,-0.029301643,0.039914493,-0.12182996,0.3736297,2017-06-17 22:07:00,69.08090827148186
2.6922798,-0.059855044,9.591172,-4.525384E-6,0.0010613832,-0.0010672013,111.0,2.4876618,-0.17359367,9.484291,0.04600668,0.031071633,-0.0017681122,0.039914493,-0.12182996,0.3736297,2017-06-17 22:07:01,67.0214250804553
2.6898856,-0.023942016,9.585187,-0.0010704339,0.0063909246,-0.0010672013,110.0,2.4882174,-0.17359367,9.484145,0.045451164,0.06698466,0.009151459,0.039925434,-0.12185685,0.37362853,2017-06-17 22:07:02,70.75900811823885
2.6910827,-0.037110128,9.578004,-4.525384E-6,-0.003202251,-0.0010672013,109.0,2.4882174,-0.17359367,9.484145,0.041859865,0.059802055,-0.004016876,0.039925434,-0.12185685,0.37362853,2017-06-17 22:07:03,70.90707990950638
2.694674,-0.033518825,9.566033,-0.0010704339,-0.004268159,-1.293003E-6,113.0,2.4882174,-0.17359367,9.484145,0.0693934,0.04902815,-0.018382072,0.039925434,-0.12185685,0.37362853,2017-06-17 22:07:04,73.500499731968
2.695871,-0.045489833,9.585187,-4.525384E-6,-0.0053340667,-0.0010672013,112.0,2.4882174,-0.17359367,9.484145,0.0586195,0.05022525,-0.025564194,0.039925434,-0.12185685,0.37362853,2017-06-17 22:07:05,67.66444987430116
2.693477,-0.025139118,9.583989,-4.525384E-6,0.0021272912,0.0010646154,113.0,2.4882174,-0.17359367,9.484145,0.046648264,0.056210756,-0.00760746,0.039925434,-0.12185685,0.37362853,2017-06-17 22:07:06,66.30318400242508
2.694674,-0.033518825,9.598354,0.0010613832,-0.003202251,-1.293003E-6,113.0,2.4882174,-0.17359367,9.484145,0.047845364,0.058604956,-0.02795887,0.039925434,-0.12185685,0.37362853,2017-06-17 22:07:07,67.80553436638209
2.6982653,-0.03232172,9.5971575,-0.0010704339,0.0010613832,-0.0021331098,113.0,2.4882174,-0.17359367,9.484145,0.038268566,0.059802055,-0.030352592,0.039925434,-0.12185685,0.37362853,2017-06-17 22:07:08,66.48172218603888
2.6850972,-0.031124622,9.591172,-0.0010704339,-4.525384E-6,-0.0031990183,114.0,2.4882174,-0.17359367,9.484145,0.046648264,0.041845545,0.009151459,0.039925434,-0.12185685,0.37362853,2017-06-17 22:07:09,71.04788394173399
2.6779146,-0.046686932,9.576807,-0.0010704339,-0.004268159,0.0010646154,113.0,2.4882174,-0.17359367,9.484145,0.034677267,0.04902815,-0.024367332,0.039925434,-0.12185685,0.37362853,2017-06-17 22:07:10,72.94236269068053
2.7042508,-0.029927522,9.583989,-0.0010704339,-0.002136342,-1.293003E-6,113.0,2.4877033,-0.1735936,9.48428,0.020826101,0.055013582,0.0030317307,0.03991531,-0.12183195,0.3736296,2017-06-17 22:07:11,68.53980394981977
2.6874914,-0.04189853,9.563639,0.0031931996,-0.0053340667,-1.293003E-6,112.0,2.4877033,-0.1735936,9.48428,0.05913353,0.053816475,-0.048443794,0.03991531,-0.12183195,0.3736296,2017-06-17 22:07:12,71.38674242337557
2.707842,-0.035913024,9.582792,0.0010613832,-4.525384E-6,-0.0021331098,112.0,2.4877033,-0.1735936,9.48428,0.038782597,0.051422276,-0.008939743,0.03991531,-0.12183195,0.3736296,2017-06-17 22:07:13,71.09686028167314
2.6862943,-0.027533319,9.564836,0.0021272912,0.0021272912,-1.293003E-6,112.0,2.4877033,-0.1735936,9.48428,0.047162294,0.05621068,-0.013728142,0.03991531,-0.12183195,0.3736296,2017-06-17 22:07:14,69.85732649949745
2.695871,-0.031124622,9.594764,-4.525384E-6,0.0031931996,-1.293003E-6,112.0,2.4877033,-0.1735936,9.48428,0.050753832,0.055013582,-0.0017566681,0.03991531,-0.12183195,0.3736296,2017-06-17 22:07:15,69.86715953938015
2.705448,-0.021547815,9.583989,-0.0010704339,0.0010613832,-1.293003E-6,112.0,2.4877033,-0.1735936,9.48428,0.035191298,0.049028076,-0.006545067,0.03991531,-0.12183195,0.3736296,2017-06-17 22:07:16,71.49680916871914
2.6886885,-0.033518825,9.615114,-4.525384E-6,-0.003202251,0.0031964323,113.0,2.4877033,-0.1735936,9.48428,0.044768095,0.05980198,-0.0292902,0.03991531,-0.12183195,0.3736296,2017-06-17 22:07:17,70.79651768743761
2.6910827,-0.04189853,9.57561,-0.0010704339,-4.525384E-6,-0.0010672013,113.0,2.4877033,-0.1735936,9.48428,0.044768095,0.049028076,0.0018348694,0.03991531,-0.12183195,0.3736296,2017-06-17 22:07:18,65.04244875745498
2.695871,-0.02873042,9.587581,-0.0010704339,-4.525384E-6,0.0010646154,114.0,2.4877033,-0.1735936,9.48428,0.044768095,0.053816475,-0.028093338,0.03991531,-0.12183195,0.3736296,2017-06-17 22:07:19,71.75415008442906
2.681506,-0.027533319,9.604341,-0.0010704339,-4.525384E-6,-0.0010672013,113.0,2.4877033,-0.1735936,9.48428,0.05195093,0.055013582,-0.013728142,0.03991531,-0.12183195,0.3736296,2017-06-17 22:07:20,69.23413238722203
2.6910827,-0.038307227,9.5732155,0.0021272912,0.0010613832,-0.0021331098,113.0,2.4877033,-0.1735936,9.48428,0.041176796,0.06339329,-0.007741928,0.03991531,-0.12183195,0.3736296,2017-06-17 22:07:21,68.55763954182444
2.682703,-0.031124622,9.598354,-4.525384E-6,-0.006399976,-0.0010672013,112.0,2.4877033,-0.1735936,9.48428,0.05314803,0.05860488,-0.014925003,0.03991531,-0.12183195,0.3736296,2017-06-17 22:07:22,67.97484575626041
2.6922798,-0.039504327,9.583989,0.0010613832,-4.525384E-6,-0.0031990183,112.0,2.4877033,-0.1735936,9.48428,0.041176796,0.04184547,-0.0053482056,0.03991531,-0.12183195,0.3736296,2017-06-17 22:07:23,71.8457436430397
2.6994624,-0.03232172,9.595961,0.0010613832,-4.525384E-6,0.0021305238,113.0,2.4877033,-0.1735936,9.48428,0.05793643,0.06339329,-0.020910263,0.03991531,-0.12183195,0.3736296,2017-06-17 22:07:24,75.03018025097188
2.6886885,-0.03232172,9.572019,-0.0010704339,0.0021272912,-0.0010672013,113.0,2.4877033,-0.1735936,9.48428,0.048359394,0.04304257,-0.014925003,0.03991531,-0.12183195,0.3736296,2017-06-17 22:07:25,71.16945120767846
2.6886885,-0.034715924,9.578004,-0.0010704339,0.0031931996,-0.0010672013,114.0,2.4877033,-0.1735936,9.48428,0.035191298,0.04304257,-0.0017566681,0.03991531,-0.12183195,0.3736296,2017-06-17 22:07:26,56.12803136488289
2.6743233,-0.04070143,9.605537,-0.002136342,-4.525384E-6,-1.293003E-6,113.0,2.4877033,-0.1735936,9.48428,0.041176796,0.04423967,6.3705444E-4,0.03991531,-0.12183195,0.3736296,2017-06-17 22:07:27,61.98710582902979
2.6970682,-0.04189853,9.570822,-0.0010704339,-0.007465884,-0.0010672013,113.0,2.4877033,-0.1735936,9.48428,0.050753832,0.06339329,-0.037670135,0.03991531,-0.12183195,0.3736296,2017-06-17 22:07:28,69.82543278676002
2.7018566,-0.022744916,9.585187,-4.525384E-6,-4.525384E-6,-0.0010672013,113.0,2.4877033,-0.1735936,9.48428,0.049556494,0.04543677,0.0030317307,0.03991531,-0.12183195,0.3736296,2017-06-17 22:07:29,69.76769476311156
2.7102363,-0.039504327,9.560047,-0.0010704339,0.0010613832,-0.0010672013,113.0,2.4877033,-0.1735936,9.48428,0.037585497,0.04783097,-0.012530327,0.03991531,-0.12183195,0.3736296,2017-06-17 22:07:30,56.24282996450982
2.6970682,-0.025139118,9.594764,-0.002136342,-0.003202251,-1.293003E-6,114.0,2.4877033,-0.1735936,9.48428,0.05554223,0.05740778,-5.598068E-4,0.03991531,-0.12183195,0.3736296,2017-06-17 22:07:31,67.77292858272632
2.7150247,-0.03232172,9.561244,-0.0010704339,-0.002136342,0.0010646154,114.0,2.4877033,-0.1735936,9.48428,0.05434513,0.051422276,-0.013728142,0.03991531,-0.12183195,0.3736296,2017-06-17 22:07:32,72.66907096785856
2.695871,-0.049081136,9.583989,-4.525384E-6,-0.004268159,0.0021305238,113.0,2.4877033,-0.1735936,9.48428,0.045965195,0.06339329,-0.0292902,0.03991531,-0.12183195,0.3736296,2017-06-17 22:07:33,71.33030544834962
2.6994624,-0.025139118,9.636662,-0.0010704339,-0.0010704339,0.0010646154,113.0,2.4877033,-0.1735936,9.48428,0.05434513,0.049028076,0.005425453,0.03991531,-0.12183195,0.3736296,2017-06-17 22:07:34,73.64888570108978
2.682703,-0.021547815,9.568427,-4.525384E-6,-4.525384E-6,0.0010646154,111.0,2.4877033,-0.1735936,9.48428,0.048359394,0.051422276,-0.0041513443,0.03991531,-0.12183195,0.3736296,2017-06-17 22:07:35,72.27522264324
2.7042508,-0.044292733,9.579201,0.0010613832,0.0031931996,0.0010646154,109.0,2.4877033,-0.1735936,9.48428,0.049556494,0.051422276,-0.019713402,0.03991531,-0.12183195,0.3736296,2017-06-17 22:07:36,71.74299208833011
2.7018566,-0.033518825,9.5732155,-0.0010704339,0.0010613832,-0.0021331098,110.0,2.4877033,-0.1735936,9.48428,0.039979696,0.06459039,-0.007741928,0.03991531,-0.12183195,0.3736296,2017-06-17 22:07:37,72.0379192511113
2.694674,-0.031124622,9.594764,-0.002136342,-0.004268159,-1.293003E-6,111.0,2.4877033,-0.1735936,9.48428,0.05434513,0.04064837,-0.008939743,0.03991531,-0.12183195,0.3736296,2017-06-17 22:07:38,69.28099563306608
2.7018566,-0.033518825,9.570822,-0.0010704339,-4.525384E-6,-0.0010672013,112.0,2.4877033,-0.1735936,9.48428,0.06392193,0.06099908,-0.0041513443,0.03991531,-0.12183195,0.3736296,2017-06-17 22:07:39,72.52175593231595
2.7114334,-0.050278235,9.598354,0.0010613832,0.0021272912,0.0021305238,113.0,2.4871986,-0.17359367,9.484414,0.054849863,0.05022525,-0.012664795,0.039905366,-0.121807516,0.3736307,2017-06-17 22:07:40,65.80420791203242
2.6982653,-0.037110128,9.564836,-0.0010704339,-4.525384E-6,0.0010646154,113.0,2.4871986,-0.17359367,9.484414,0.051258564,0.045436844,-0.027030945,0.039905366,-0.121807516,0.3736307,2017-06-17 22:07:41,55.002220762340954
2.6886885,-0.020350715,9.592369,-0.003202251,0.0021272912,0.0010646154,112.0,2.4871986,-0.17359367,9.484414,0.045272827,0.057407856,-0.022241592,0.039905366,-0.121807516,0.3736307,2017-06-17 22:07:42,53.430518313967674
2.693477,-0.04070143,9.623494,-4.525384E-6,-0.002136342,-1.293003E-6,108.0,2.4871986,-0.17359367,9.484414,0.047667027,0.045436844,0.025642395,0.039905366,-0.121807516,0.3736307,2017-06-17 22:07:43,70.8263939660207
2.6874914,-0.04189853,9.574412,-0.002136342,-0.003202251,-0.0010672013,108.0,2.4871986,-0.17359367,9.484414,0.053652763,0.06339336,-0.015059471,0.039905366,-0.121807516,0.3736307,2017-06-17 22:07:44,70.5111159506875
2.7030537,-0.034715924,9.588778,0.0021272912,-0.0053340667,-1.293003E-6,109.0,2.4871986,-0.17359367,9.484414,0.056046963,0.05381655,-0.034213066,0.039905366,-0.121807516,0.3736307,2017-06-17 22:07:45,69.60138854673703
2.6803088,-0.038307227,9.594764,-4.525384E-6,-4.525384E-6,-1.293003E-6,108.0,2.4871986,-0.17359367,9.484414,0.042878628,0.05261945,0.017262459,0.039905366,-0.121807516,0.3736307,2017-06-17 22:07:46,74.62345996101698
2.7006595,-0.046686932,9.574412,-4.525384E-6,-0.003202251,-1.293003E-6,108.0,2.4871986,-0.17359367,9.484414,0.06322956,0.046633944,-0.017453194,0.039905366,-0.121807516,0.3736307,2017-06-17 22:07:47,70.23687450740643
2.6970682,-0.03232172,9.599552,-4.525384E-6,-0.002136342,-0.0021331098,109.0,2.4871986,-0.17359367,9.484414,0.044075727,0.04902815,-0.0042858124,0.039905366,-0.121807516,0.3736307,2017-06-17 22:07:48,70.2630476666779
2.7006595,-0.035913024,9.5971575,-0.0010704339,-0.004268159,-0.0021331098,109.0,2.4871986,-0.17359367,9.484414,0.05963826,0.05381655,-0.016256332,0.039905366,-0.121807516,0.3736307,2017-06-17 22:07:49,68.89903696354823
2.6839,-0.04070143,9.594764,0.0010613832,0.0021272912,-0.0021331098,108.0,2.4871986,-0.17359367,9.484414,0.056046963,0.058604956,-0.02583313,0.039905366,-0.121807516,0.3736307,2017-06-17 22:07:50,69.40057642060934
2.6755204,-0.047884032,9.585187,0.0010613832,0.004259108,0.0021305238,108.0,2.4889283,-0.17359371,9.48396,0.0435431,0.04064849,-0.009817123,0.039939433,-0.12189129,0.37362704,2017-06-17 22:07:51,61.271828742126246
2.7006595,-0.044292733,9.563639,-0.0010704339,-4.525384E-6,-1.293003E-6,109.0,2.4889283,-0.17359371,9.48396,0.06389403,0.03825429,-0.013408661,0.039939433,-0.12189129,0.37362704,2017-06-17 22:07:52,71.35280425103333
2.6970682,-0.037110128,9.633071,0.0010613832,0.004259108,-0.0010672013,109.0,2.4892647,-0.17359369,9.483871,0.052783728,0.04663396,-0.010925293,0.039946053,-0.12190757,0.37362632,2017-06-17 22:07:53,72.20029476879562
2.6910827,-0.035913024,9.560047,-4.525384E-6,-0.003202251,-1.293003E-6,109.0,2.4892647,-0.17359369,9.483871,0.058769226,0.06099917,-0.00853157,0.039946053,-0.12190757,0.37362632,2017-06-17 22:07:54,67.71882311883931
2.6982653,-0.037110128,9.599552,-0.0010704339,0.0021272912,-1.293003E-6,108.0,2.4897964,-0.17359369,9.483733,0.051054955,0.07656148,-0.003604889,0.039956525,-0.12193332,0.3736252,2017-06-17 22:07:55,62.31278004309771
2.6970682,-0.023942016,9.591172,-4.525384E-6,-0.004268159,-0.0021331098,109.0,2.4892817,-0.17359364,9.483868,0.070723295,0.044239715,-0.0013446808,0.03994639,-0.1219084,0.37362626,2017-06-17 22:07:56,74.08819934693302
2.6982653,-0.04070143,9.605537,-4.525384E-6,-4.525384E-6,-1.293003E-6,110.0,2.4892817,-0.17359364,9.483868,0.055161,0.05261942,-0.010921478,0.03994639,-0.1219084,0.37362626,2017-06-17 22:07:57,74.95154100465685
2.707842,-0.04070143,9.586384,-0.0010704339,0.0021272912,-1.293003E-6,110.0,2.4892817,-0.17359364,9.483868,0.0527668,0.043042615,-0.015709877,0.03994639,-0.1219084,0.37362626,2017-06-17 22:07:58,70.51133461571887
2.705448,-0.031124622,9.585187,-0.0010704339,-4.525384E-6,-1.293003E-6,111.0,2.4892817,-0.17359364,9.483868,0.067131996,0.047831014,0.0058374405,0.03994639,-0.1219084,0.37362626,2017-06-17 22:08:00,62.62771339242502
2.6922798,-0.025139118,9.606734,-4.525384E-6,-0.002136342,-0.0010672013,113.0,2.4892817,-0.17359364,9.483868,0.045583963,0.058604926,-0.008527756,0.03994639,-0.1219084,0.37362626,2017-06-17 22:08:01,65.7372133600405
2.7246015,-0.046686932,9.592369,-4.525384E-6,-0.0053340667,-0.0010672013,113.0,2.4892817,-0.17359364,9.483868,0.039598465,0.044239715,-0.052820206,0.03994639,-0.1219084,0.37362626,2017-06-17 22:08:02,69.22890900539704
2.707842,-0.04070143,9.591172,0.0010613832,-0.0053340667,-1.293003E-6,111.0,2.4887757,-0.1735936,9.484,0.053272724,0.05980198,-0.03140545,0.039936423,-0.12188389,0.37362733,2017-06-17 22:08:03,70.99062757377885
2.7042508,-0.034715924,9.576807,-4.525384E-6,0.0074568335,-0.0010672013,111.0,2.4887757,-0.1735936,9.484,0.054469824,0.05860488,9.16481E-4,0.039936423,-0.12188389,0.37362733,2017-06-17 22:08:04,74.10057735441325
2.6862943,-0.037110128,9.610326,-0.002136342,-4.525384E-6,-0.0010672013,112.0,2.4887757,-0.1735936,9.484,0.053272724,0.04663387,-0.034996033,0.039936423,-0.12188389,0.37362733,2017-06-17 22:08:05,69.21409618591204
2.7018566,-0.03232172,9.581595,0.0010613832,-0.003202251,-0.0010672013,113.0,2.4892845,-0.1735936,9.483867,0.057552338,0.055013582,-0.036060333,0.039946448,-0.12190854,0.37362626,2017-06-17 22:08:06,71.05583123552178
2.7006595,-0.02633622,9.581595,-0.0010704339,-0.0010704339,-0.0021331098,112.0,2.4892845,-0.1735936,9.483867,0.058749437,0.05980198,-0.007328987,0.039946448,-0.12190854,0.37362626,2017-06-17 22:08:07,71.85454381257331
2.6922798,-0.021547815,9.598354,-4.525384E-6,0.004259108,-1.293003E-6,111.0,2.4892845,-0.1735936,9.483867,0.05156684,0.04184547,-0.0037384033,0.039946448,-0.12190854,0.37362626,2017-06-17 22:08:08,71.83403361590176
2.695871,-0.023942016,9.560047,-0.0010704339,-0.003202251,-1.293003E-6,111.0,2.4892845,-0.1735936,9.483867,0.04917264,0.070575885,0.00823307,0.039946448,-0.12190854,0.37362626,2017-06-17 22:08:09,70.97273013946187
2.7090392,-0.019153614,9.552865,0.0010613832,0.0021272912,-1.293003E-6,112.0,2.4892845,-0.1735936,9.483867,0.058749437,0.068181686,-0.028877258,0.039946448,-0.12190854,0.37362626,2017-06-17 22:08:10,71.16210026723793
2.6982653,-0.033518825,9.570822,-4.525384E-6,-4.525384E-6,0.0010646154,112.0,2.4892845,-0.1735936,9.483867,0.04917264,0.06459039,0.00823307,0.039946448,-0.12190854,0.37362626,2017-06-17 22:08:11,68.59997744829973
2.6874914,-0.035913024,9.609129,0.0010613832,0.0021272912,0.0010646154,111.0,2.4892845,-0.1735936,9.483867,0.05276394,0.050225176,0.016613007,0.039946448,-0.12190854,0.37362626,2017-06-17 22:08:12,69.45908068877966
2.6994624,-0.021547815,9.574412,0.0021272912,-0.002136342,-0.0010672013,111.0,2.4892845,-0.1735936,9.483867,0.045581102,0.04663387,0.011824608,0.039946448,-0.12190854,0.37362626,2017-06-17 22:08:13,70.08427405928389
2.7042508,-0.049081136,9.5385,0.0010613832,0.005325016,-0.0021331098,111.0,2.4892845,-0.1735936,9.483867,0.05036974,0.04064837,0.011824608,0.039946448,-0.12190854,0.37362626,2017-06-17 22:08:14,70.57134117910182
2.706645,-0.038307227,9.603143,0.0010613832,-0.004268159,-1.293003E-6,113.0,2.4892845,-0.1735936,9.483867,0.05515814,0.04543677,0.007036209,0.039946448,-0.12190854,0.37362626,2017-06-17 22:08:15,72.0544875237223
2.695871,-0.025139118,9.600749,-4.525384E-6,0.0010613832,-0.0010672013,111.0,2.4892845,-0.1735936,9.483867,0.05036974,0.050225176,-0.014512062,0.039946448,-0.12190854,0.37362626,2017-06-17 22:08:16,72.61813122346047
2.7162218,-0.053869538,9.61272,-4.525384E-6,-0.002136342,-1.293003E-6,111.0,2.4892845,-0.1735936,9.483867,0.067129135,0.04064837,0.0010499954,0.039946448,-0.12190854,0.37362626,2017-06-17 22:08:17,72.03933014081389
2.707842,-0.027533319,9.606734,-4.525384E-6,-4.525384E-6,-0.0021331098,111.0,2.4892845,-0.1735936,9.483867,0.061143637,0.04783097,-0.013315201,0.039946448,-0.12190854,0.37362626,2017-06-17 22:08:18,71.26193941728972
2.7138276,-0.035913024,9.5732155,0.0010613832,-4.525384E-6,0.0010646154,112.0,2.4892845,-0.1735936,9.483867,0.065932035,0.050225176,-0.028877258,0.039946448,-0.12190854,0.37362626,2017-06-17 22:08:19,72.55923749946217
2.6982653,-0.03232172,9.621099,-4.525384E-6,-0.0010704339,0.0010646154,111.0,2.4892845,-0.1735936,9.483867,0.057552338,0.04423967,-0.040848732,0.039946448,-0.12190854,0.37362626,2017-06-17 22:08:20,73.00397661823483
2.7006595,-0.049081136,9.599552,-0.0010704339,0.0021272912,-1.293003E-6,111.0,2.4892845,-0.1735936,9.483867,0.05156684,0.050225176,0.004641533,0.039946448,-0.12190854,0.37362626,2017-06-17 22:08:21,70.43171852543182
2.707842,-0.038307227,9.605537,-4.525384E-6,0.0031931996,-1.293003E-6,112.0,2.4892845,-0.1735936,9.483867,0.04917264,0.052619375,-1.4686584E-4,0.039946448,-0.12190854,0.37362626,2017-06-17 22:08:22,73.38370966473371
2.6982653,-0.023942016,9.594764,0.0010613832,-0.002136342,-1.293003E-6,114.0,2.4887085,-0.17359371,9.484018,0.04974866,0.06339341,-0.0074806213,0.0399351,-0.12188064,0.37362748,2017-06-17 22:08:23,71.14721601002206
2.705448,-0.02873042,9.589975,-0.0010704339,-4.525384E-6,0.0010646154,113.0,2.4887085,-0.17359371,9.484018,0.064113855,0.0574079,8.983612E-4,0.0399351,-0.12188064,0.37362748,2017-06-17 22:08:24,70.46390479314975
2.6850972,-0.046686932,9.55885,-4.525384E-6,0.0021272912,-0.0010672013,112.0,2.4887085,-0.17359371,9.484018,0.056931257,0.03705719,-0.015860558,0.0399351,-0.12188064,0.37362748,2017-06-17 22:08:25,71.38137986539729
2.6994624,-0.04309563,9.570822,-0.002136342,-4.525384E-6,0.0021305238,113.0,2.4881492,-0.17359371,9.484164,0.057490587,0.0550137,0.0043439865,0.03992408,-0.12185355,0.37362868,2017-06-17 22:08:26,71.96937423810105
2.6970682,-0.02873042,9.5971575,-0.002136342,0.0010613832,-0.0010672013,114.0,2.4881492,-0.17359371,9.484164,0.061081886,0.04304269,-4.4441223E-4,0.03992408,-0.12185355,0.37362868,2017-06-17 22:08:27,72.02696123143217
2.6994624,-0.029927522,9.604341,-0.0010704339,-4.525384E-6,0.0010646154,113.0,2.4881492,-0.17359371,9.484164,0.04791355,0.049028195,-0.03635788,0.03992408,-0.12185355,0.37362868,2017-06-17 22:08:28,57.569910994898436
2.7102363,-0.034715924,9.592369,0.0010613832,-0.003202251,-1.293003E-6,113.0,2.4881492,-0.17359371,9.484164,0.05270219,0.03586009,-0.02199173,0.03992408,-0.12185355,0.37362868,2017-06-17 22:08:29,71.94043847828395
2.694674,-0.046686932,9.595961,-0.002136342,0.005325016,-0.0010672013,113.0,2.4881492,-0.17359371,9.484164,0.065870285,0.04783109,-0.0028381348,0.03992408,-0.12185355,0.37362868,2017-06-17 22:08:30,69.50442660489729
2.7090392,-0.02873042,9.595961,-0.0010704339,-0.004268159,-1.293003E-6,114.0,2.4881492,-0.17359371,9.484164,0.05389929,0.049028195,7.5244904E-4,0.03992408,-0.12185355,0.37362868,2017-06-17 22:08:31,73.16508040533832
2.6994624,-0.05865794,9.582792,-0.0010704339,0.0021272912,-0.0010672013,113.0,2.4881492,-0.17359371,9.484164,0.05150509,0.058605,0.001950264,0.03992408,-0.12185355,0.37362868,2017-06-17 22:08:32,70.63985258145988
2.707842,-0.03232172,9.582792,-0.0010704339,0.0010613832,-0.0010672013,113.0,2.4881492,-0.17359371,9.484164,0.059884787,0.053816594,-0.01600647,0.03992408,-0.12185355,0.37362868,2017-06-17 22:08:33,68.51495088439553
2.6862943,-0.016759412,9.583989,-4.525384E-6,-0.0010704339,0.0010646154,112.0,2.4881492,-0.17359371,9.484164,0.05389929,0.04423979,0.009132385,0.03992408,-0.12185355,0.37362868,2017-06-17 22:08:34,71.54725590314641
2.682703,-0.021547815,9.594764,0.0010613832,-0.002136342,-0.0010672013,113.0,2.4881492,-0.17359371,9.484164,0.05150509,0.053816594,0.015117645,0.03992408,-0.12185355,0.37362868,2017-06-17 22:08:35,71.70074225631966
2.7102363,-0.023942016,9.595961,-0.003202251,0.0063909246,-1.293003E-6,114.0,2.4881492,-0.17359371,9.484164,0.05270219,0.0609992,-0.0076265335,0.03992408,-0.12185355,0.37362868,2017-06-17 22:08:36,65.94946475943223
2.7042508,-0.039504327,9.604341,-0.002136342,-4.525384E-6,-1.293003E-6,113.0,2.4881492,-0.17359371,9.484164,0.055096388,0.065787606,-0.011218071,0.03992408,-0.12185355,0.37362868,2017-06-17 22:08:37,67.46499502921937
2.695871,-0.027533319,9.583989,-4.525384E-6,-0.0010704339,0.0010646154,112.0,2.4881492,-0.17359371,9.484164,0.044322252,0.0609992,-0.012414932,0.03992408,-0.12185355,0.37362868,2017-06-17 22:08:38,56.62123454829469
2.719813,-0.04189853,9.579201,-0.002136342,0.0031931996,0.0010646154,111.0,2.4881492,-0.17359371,9.484164,0.062278986,0.0550137,0.0103292465,0.03992408,-0.12185355,0.37362868,2017-06-17 22:08:39,61.6539975410878
2.705448,-0.03232172,9.572019,-0.0010704339,0.0021272912,-0.0021331098,112.0,2.4881492,-0.17359371,9.484164,0.061081886,0.065787606,-0.0064296722,0.03992408,-0.12185355,0.37362868,2017-06-17 22:08:40,73.0985618934019
2.6886885,-0.038307227,9.595961,-0.0010704339,-0.004268159,-1.293003E-6,111.0,2.4881492,-0.17359371,9.484164,0.032351255,0.0562108,0.0067386627,0.03992408,-0.12185355,0.37362868,2017-06-17 22:08:41,68.84099985440639
2.7150247,-0.04070143,9.586384,-0.0010704339,-4.525384E-6,-0.0010672013,111.0,2.4881492,-0.17359371,9.484164,0.055096388,0.058605,-4.4441223E-4,0.03992408,-0.12185355,0.37362868,2017-06-17 22:08:42,71.48800981834154
2.6994624,-0.021547815,9.576807,-0.0010704339,0.0010613832,-0.0021331098,113.0,2.4881492,-0.17359371,9.484164,0.059884787,0.0550137,0.0031471252,0.03992408,-0.12185355,0.37362868,2017-06-17 22:08:43,68.91059589755476
2.695871,-0.046686932,9.580399,-0.0010704339,-0.003202251,-1.293003E-6,112.0,2.4881492,-0.17359371,9.484164,0.04911065,0.04184559,-0.020794868,0.03992408,-0.12185355,0.37362868,2017-06-17 22:08:44,73.15526141597827
2.706645,-0.022744916,9.589975,-4.525384E-6,-0.002136342,-1.293003E-6,111.0,2.4881492,-0.17359371,9.484164,0.04671645,0.050225295,-4.4441223E-4,0.03992408,-0.12185355,0.37362868,2017-06-17 22:08:45,71.607554012606
2.7114334,-0.033518825,9.603143,-4.525384E-6,-0.003202251,0.0010646154,110.0,2.4881492,-0.17359371,9.484164,0.05389929,0.03705719,-0.008824348,0.03992408,-0.12185355,0.37362868,2017-06-17 22:08:47,68.28965189638684
2.7114334,-0.04189853,9.591172,-0.0010704339,-0.004268159,-0.0021331098,111.0,2.4881492,-0.17359371,9.484164,0.04911065,0.0574079,-0.012414932,0.03992408,-0.12185355,0.37362868,2017-06-17 22:08:48,69.50887802563935
2.705448,-0.029927522,9.582792,-4.525384E-6,0.0021272912,-1.293003E-6,113.0,2.4881492,-0.17359371,9.484164,0.05150509,0.06339341,-0.0064296722,0.03992408,-0.12185355,0.37362868,2017-06-17 22:08:49,69.06911477177884
2.7030537,-0.033518825,9.611523,-4.525384E-6,-0.002136342,0.0031964323,113.0,2.4881492,-0.17359371,9.484164,0.05030799,0.0609992,-0.017203331,0.03992408,-0.12185355,0.37362868,2017-06-17 22:08:50,70.05176891014128
2.7222073,-0.025139118,9.587581,-4.525384E-6,0.0063909246,-0.0010672013,113.0,2.4881492,-0.17359371,9.484164,0.041928053,0.0621963,0.015117645,0.03992408,-0.12185355,0.37362868,2017-06-17 22:08:51,73.55636191862337
2.6898856,-0.029927522,9.588778,-4.525384E-6,-4.525384E-6,-1.293003E-6,114.0,2.4881492,-0.17359371,9.484164,0.055096388,0.04663399,-0.0076265335,0.03992408,-0.12185355,0.37362868,2017-06-17 22:08:52,70.93319747216661
2.7114334,-0.046686932,9.57561,0.0010613832,-0.004268159,-1.293003E-6,113.0,2.4881492,-0.17359371,9.484164,0.067067385,0.053816594,-0.013612747,0.03992408,-0.12185355,0.37362868,2017-06-17 22:08:53,66.15690982857015
2.706645,-0.04070143,9.588778,-4.525384E-6,-0.002136342,-0.0021331098,112.0,2.4881492,-0.17359371,9.484164,0.055096388,0.04423979,-0.01002121,0.03992408,-0.12185355,0.37362868,2017-06-17 22:08:54,67.05192461036086
2.7090392,-0.04309563,9.586384,-0.002136342,0.004259108,-1.293003E-6,113.0,2.4881492,-0.17359371,9.484164,0.04791355,0.06339341,-0.0064296722,0.03992408,-0.12185355,0.37362868,2017-06-17 22:08:55,65.80763776952791
2.6874914,-0.027533319,9.578004,0.0021272912,-0.003202251,0.0010646154,114.0,2.4881492,-0.17359371,9.484164,0.04791355,0.052619494,0.009132385,0.03992408,-0.12185355,0.37362868,2017-06-17 22:08:56,68.78063758169444
2.7030537,-0.04070143,9.615114,0.0010613832,0.0021272912,0.0010646154,114.0,2.4881492,-0.17359371,9.484164,0.043125153,0.04304269,-0.033963203,0.03992408,-0.12185355,0.37362868,2017-06-17 22:08:57,69.58383919984948
2.7042508,-0.033518825,9.580399,-4.525384E-6,0.0031931996,-1.293003E-6,113.0,2.4881492,-0.17359371,9.484164,0.05030799,0.04663399,-0.0016412735,0.03992408,-0.12185355,0.37362868,2017-06-17 22:08:58,73.70674642561679
2.694674,-0.045489833,9.5971575,-0.0010704339,-0.0010704339,-0.0021331098,113.0,2.4881492,-0.17359371,9.484164,0.057490587,0.0574079,-0.013612747,0.03992408,-0.12185355,0.37362868,2017-06-17 22:08:59,70.84935729341495
2.7030537,-0.035913024,9.579201,0.0021272912,-0.0053340667,-0.0010672013,114.0,2.4881492,-0.17359371,9.484164,0.062278986,0.0574079,-0.026781082,0.03992408,-0.12185355,0.37362868,2017-06-17 22:09:00,73.23813718889443
2.694674,-0.061052144,9.588778,-4.525384E-6,0.0021272912,0.0010646154,113.0,2.4881492,-0.17359371,9.484164,0.057490587,0.065787606,0.0103292465,0.03992408,-0.12185355,0.37362868,2017-06-17 22:09:01,72.63240071282861
2.7150247,-0.034715924,9.588778,0.0010613832,0.0021272912,-0.0010672013,113.0,2.4881492,-0.17359371,9.484164,0.04911065,0.052619494,-0.008824348,0.03992408,-0.12185355,0.37362868,2017-06-17 22:09:02,71.3189227947101
2.718616,-0.04309563,9.588778,-0.0010704339,-0.006399976,-1.293003E-6,114.0,2.4881492,-0.17359371,9.484164,0.067067385,0.04184559,-0.014809608,0.03992408,-0.12185355,0.37362868,2017-06-17 22:09:03,72.0696404666009
2.7006595,-0.047884032,9.589975,-0.0010704339,0.0010613832,-0.0010672013,114.0,2.4871812,-0.17359382,9.484418,0.062049866,0.056210905,-0.0030918121,0.03990501,-0.121806666,0.37363073,2017-06-17 22:09:04,73.20197518102762
2.694674,-0.05267244,9.586384,-4.525384E-6,0.0010613832,0.0010646154,113.0,2.4871812,-0.17359382,9.484418,0.041698933,0.055013806,-0.016260147,0.03990501,-0.121806666,0.37363073,2017-06-17 22:09:05,70.49929207949135
2.7030537,-0.04309563,9.582792,-4.525384E-6,-0.0010704339,-1.293003E-6,106.0,2.487079,-0.17359386,9.484444,0.060955048,0.064590655,-0.00790596,0.039903004,-0.12180173,0.37363094,2017-06-17 22:09:06,55.47318706294661
2.7126305,-0.03232172,9.594764,0.0010613832,0.0010613832,-1.293003E-6,114.0,2.487079,-0.17359386,9.484444,0.042998314,0.04064864,4.7302246E-4,0.039903004,-0.12180173,0.37363094,2017-06-17 22:09:07,58.024059417722434
2.7114334,-0.033518825,9.600749,0.0010613832,-0.0053340667,-0.0010672013,113.0,2.487079,-0.17359386,9.484444,0.071728945,0.051422544,-0.010300636,0.039903004,-0.12180173,0.37363094,2017-06-17 22:09:08,56.91505461711965
2.6982653,-0.03232172,9.579201,-4.525384E-6,-0.0010704339,-1.293003E-6,113.0,2.487079,-0.17359386,9.484444,0.041801214,0.03825444,-0.006709099,0.039903004,-0.12180173,0.37363094,2017-06-17 22:09:09,56.75460031349512
2.706645,-0.038307227,9.587581,-4.525384E-6,-0.0010704339,-0.0021331098,114.0,2.487079,-0.17359386,9.484444,0.07651734,0.03945154,-0.027060509,0.039903004,-0.12180173,0.37363094,2017-06-17 22:09:10,56.993286716485045
2.706645,-0.022744916,9.593566,-0.0010704339,0.0010613832,0.0010646154,115.0,2.487079,-0.17359386,9.484444,0.071728945,0.05740805,-0.017482758,0.039903004,-0.12180173,0.37363094,2017-06-17 22:09:11,53.13985064280974
2.706645,-0.03232172,9.599552,0.0010613832,-4.525384E-6,0.0010646154,114.0,2.487079,-0.17359386,9.484444,0.060955048,0.051422544,-0.025862694,0.039903004,-0.12180173,0.37363094,2017-06-17 22:09:12,52.985933013907456
2.6994624,-0.04189853,9.593566,-4.525384E-6,0.0021272912,-0.0021331098,113.0,2.487079,-0.17359386,9.484444,0.066940546,0.06219645,-0.013892174,0.039903004,-0.12180173,0.37363094,2017-06-17 22:09:13,57.36233350898354
2.7126305,-0.04309563,9.592369,0.0010613832,-4.525384E-6,-1.293003E-6,114.0,2.487079,-0.17359386,9.484444,0.075320244,0.053816743,0.005261421,0.039903004,-0.12180173,0.37363094,2017-06-17 22:09:14,54.68425635451759
2.717419,-0.03232172,9.595961,-0.0010704339,0.0010613832,-0.0010672013,115.0,2.487079,-0.17359386,9.484444,0.059757948,0.068181954,4.7302246E-4,0.039903004,-0.12180173,0.37363094,2017-06-17 22:09:15,53.88941602503781
2.7126305,-0.046686932,9.598354,-0.0010704339,-4.525384E-6,-0.0010672013,114.0,2.487079,-0.17359386,9.484444,0.05616665,0.052619644,4.7302246E-4,0.039903004,-0.12180173,0.37363094,2017-06-17 22:09:16,54.85994318088176
2.6982653,-0.04070143,9.580399,0.0010613832,-0.008531793,-1.293003E-6,113.0,2.487079,-0.17359386,9.484444,0.069334745,0.06219645,-0.017482758,0.039903004,-0.12180173,0.37363094,2017-06-17 22:09:17,56.431349086829954
2.7162218,-0.037110128,9.587581,0.0010613832,0.0063909246,-1.293003E-6,113.0,2.487079,-0.17359386,9.484444,0.05616665,0.047831237,-0.009103775,0.039903004,-0.12180173,0.37363094,2017-06-17 22:09:18,54.26554437215137
2.719813,-0.03232172,9.594764,-4.525384E-6,0.0010613832,-0.0010672013,115.0,2.487079,-0.17359386,9.484444,0.06334925,0.051422544,0.017232895,0.039903004,-0.12180173,0.37363094,2017-06-17 22:09:19,55.476705238281845
2.7090392,-0.033518825,9.588778,-4.525384E-6,-0.0010704339,-1.293003E-6,114.0,2.487079,-0.17359386,9.484444,0.06334925,0.05980225,0.005261421,0.039903004,-0.12180173,0.37363094,2017-06-17 22:09:21,54.78795469679346
2.707842,-0.038307227,9.581595,-4.525384E-6,0.004259108,-1.293003E-6,114.0,2.487079,-0.17359386,9.484444,0.05496955,0.03705734,0.006459236,0.039903004,-0.12180173,0.37363094,2017-06-17 22:09:22,56.81996666512524
2.7150247,-0.04309563,9.594764,-4.525384E-6,0.0031931996,-0.0010672013,114.0,2.487079,-0.17359386,9.484444,0.05736375,0.05980225,-0.00790596,0.039903004,-0.12180173,0.37363094,2017-06-17 22:09:23,60.4152709245702
2.7090392,-0.046686932,9.600749,-4.525384E-6,-0.002136342,-1.293003E-6,115.0,2.487079,-0.17359386,9.484444,0.066940546,0.07057615,-0.006709099,0.039903004,-0.12180173,0.37363094,2017-06-17 22:09:24,58.10386803706932
2.6970682,-0.04189853,9.589975,-4.525384E-6,-0.002136342,-0.0010672013,113.0,2.487079,-0.17359386,9.484444,0.070531845,0.052619644,-0.013892174,0.039903004,-0.12180173,0.37363094,2017-06-17 22:09:25,54.775883520868646
2.7090392,-0.04070143,9.592369,-4.525384E-6,-0.002136342,0.0010646154,112.0,2.487079,-0.17359386,9.484444,0.05856085,0.047831237,-0.00790596,0.039903004,-0.12180173,0.37363094,2017-06-17 22:09:26,57.81477898235224
2.7006595,-0.02873042,9.587581,-4.525384E-6,0.0010613832,-0.0010672013,107.0,2.487079,-0.17359386,9.484444,0.06334925,0.046634138,-0.00790596,0.039903004,-0.12180173,0.37363094,2017-06-17 22:09:27,55.4435281494454
2.7102363,-0.031124622,9.580399,-4.525384E-6,-0.002136342,0.0010646154,110.0,2.487079,-0.17359386,9.484444,0.041801214,0.049028344,0.00406456,0.039903004,-0.12180173,0.37363094,2017-06-17 22:09:28,55.31841902529547
2.7162218,-0.04070143,9.588778,-4.525384E-6,-0.002136342,0.0010646154,111.0,2.487079,-0.17359386,9.484444,0.07771444,0.047831237,-0.013892174,0.039903004,-0.12180173,0.37363094,2017-06-17 22:09:29,59.21663112174919
2.6910827,-0.046686932,9.593566,-4.525384E-6,0.0010613832,-0.0021331098,111.0,2.487079,-0.17359386,9.484444,0.06454635,0.04423994,-0.011497498,0.039903004,-0.12180173,0.37363094,2017-06-17 22:09:30,56.21724380787761
2.7210102,-0.035913024,9.593566,-0.0010704339,-0.002136342,0.0010646154,111.0,2.487079,-0.17359386,9.484444,0.062152147,0.033466026,0.0028676987,0.039903004,-0.12180173,0.37363094,2017-06-17 22:09:31,56.44937929348026
2.7246015,-0.035913024,9.616311,0.0010613832,-0.0010704339,0.0021305238,113.0,2.487079,-0.17359386,9.484444,0.06574345,0.06099935,-0.0043153763,0.039903004,-0.12180173,0.37363094,2017-06-17 22:09:32,55.33619485184079
2.718616,-0.02633622,9.586384,-4.525384E-6,-0.004268159,-1.293003E-6,112.0,2.487079,-0.17359386,9.484444,0.066940546,0.05860515,-0.006709099,0.039903004,-0.12180173,0.37363094,2017-06-17 22:09:33,55.587073544206845
2.7030537,-0.037110128,9.587581,-4.525384E-6,0.0010613832,-0.0010672013,107.0,2.487079,-0.17359386,9.484444,0.048983812,0.046634138,0.005261421,0.039903004,-0.12180173,0.37363094,2017-06-17 22:09:34,55.41112316461157
2.705448,-0.027533319,9.601946,-4.525384E-6,-0.003202251,-1.293003E-6,108.0,2.487079,-0.17359386,9.484444,0.05856085,0.05860515,-0.00790596,0.039903004,-0.12180173,0.37363094,2017-06-17 22:09:35,57.031646241924236
2.707842,-0.025139118,9.601946,-4.525384E-6,-0.0010704339,-0.0010672013,109.0,2.487079,-0.17359386,9.484444,0.069334745,0.045437038,-0.013892174,0.039903004,-0.12180173,0.37363094,2017-06-17 22:09:36,58.06554033990767
2.707842,-0.047884032,9.564836,-0.0010704339,0.004259108,-0.0010672013,109.0,2.487079,-0.17359386,9.484444,0.068137646,0.050225444,0.006459236,0.039903004,-0.12180173,0.37363094,2017-06-17 22:09:37,56.66108553901584
2.706645,-0.04070143,9.568427,0.0010613832,0.0010613832,-0.0021331098,109.0,2.487079,-0.17359386,9.484444,0.06334925,0.050225444,-0.009103775,0.039903004,-0.12180173,0.37363094,2017-06-17 22:09:38,56.30930134279118
2.7042508,-0.02633622,9.599552,-0.002136342,0.0010613832,-1.293003E-6,108.0,2.487079,-0.17359386,9.484444,0.072926044,0.049028344,-0.0055122375,0.039903004,-0.12180173,0.37363094,2017-06-17 22:09:39,56.721367241449705
2.707842,-0.03232172,9.592369,-4.525384E-6,0.0010613832,-0.0010672013,109.0,2.487079,-0.17359386,9.484444,0.06574345,0.06099935,-0.018680573,0.039903004,-0.12180173,0.37363094,2017-06-17 22:09:40,58.21684162749156
2.7090392,-0.029927522,9.5732155,-4.525384E-6,0.0010613832,-0.0021331098,108.0,2.487079,-0.17359386,9.484444,0.040604115,0.053816743,-0.009103775,0.039903004,-0.12180173,0.37363094,2017-06-17 22:09:41,58.92751628064805
2.7018566,-0.029927522,9.586384,-4.525384E-6,0.0031931996,-0.0053308345,108.0,2.4875867,-0.17359385,9.48431,0.07361531,0.05261963,0.0018043518,0.03991301,-0.12182633,0.37362987,2017-06-17 22:09:42,55.11434879646701
2.7030537,-0.02873042,9.586384,-0.0010704339,-4.525384E-6,-0.0010672013,108.0,2.4875867,-0.17359385,9.48431,0.05206752,0.037057325,0.003001213,0.03991301,-0.12182633,0.37362987,2017-06-17 22:09:43,56.53270064819318
2.7257986,-0.045489833,9.583989,-0.0010704339,0.0031931996,-1.293003E-6,108.0,2.4875867,-0.17359385,9.48431,0.07241821,0.041845724,0.003001213,0.03991301,-0.12182633,0.37362987,2017-06-17 22:09:44,56.868897523237614
2.7042508,-0.04070143,9.576807,0.0010613832,-0.0053340667,-1.293003E-6,109.0,2.4875867,-0.17359385,9.48431,0.066432714,0.055013835,0.0053949356,0.03991301,-0.12182633,0.37362987,2017-06-17 22:09:45,55.81240654577569
2.719813,-0.02873042,9.587581,-0.0010704339,-0.004268159,-0.0010672013,108.0,2.4875867,-0.17359385,9.48431,0.066432714,0.044239923,-5.903244E-4,0.03991301,-0.12182633,0.37362987,2017-06-17 22:09:46,54.0448874519246
2.717419,-0.037110128,9.569624,0.0010613832,-4.525384E-6,-0.0010672013,108.0,2.4875867,-0.17359385,9.48431,0.07361531,0.035860226,-0.010167122,0.03991301,-0.12182633,0.37362987,2017-06-17 22:09:47,56.44662376415093
2.6982653,-0.03232172,9.599552,-0.002136342,0.0010613832,-0.0021331098,109.0,2.4875867,-0.17359385,9.48431,0.064038515,0.044239923,-0.018547058,0.03991301,-0.12182633,0.37362987,2017-06-17 22:09:48,56.18521721232584
2.7102363,-0.04189853,9.578004,-4.525384E-6,-4.525384E-6,-1.293003E-6,109.0,2.4875867,-0.17359385,9.48431,0.062841415,0.040648624,-0.017349243,0.03991301,-0.12182633,0.37362987,2017-06-17 22:09:49,54.39236673445171
2.718616,-0.034715924,9.552865,-0.002136342,-4.525384E-6,-0.0010672013,111.0,2.4875867,-0.17359385,9.48431,0.07600951,0.04902833,-0.011363983,0.03991301,-0.12182633,0.37362987,2017-06-17 22:09:50,56.25293370863402
2.7042508,-0.046686932,9.609129,-0.0010704339,0.0010613832,-1.293003E-6,111.0,2.4875867,-0.17359385,9.48431,0.060447216,0.045437023,-0.012560844,0.03991301,-0.12182633,0.37362987,2017-06-17 22:09:51,54.37198795486215
2.7018566,-0.031124622,9.587581,-4.525384E-6,-0.003202251,-0.0031990183,112.0,2.4875867,-0.17359385,9.48431,0.056855917,0.046634123,0.003001213,0.03991301,-0.12182633,0.37362987,2017-06-17 22:09:52,54.9213486380917
2.7234044,-0.031124622,9.5971575,-0.0010704339,-0.002136342,0.0010646154,112.0,2.4875867,-0.17359385,9.48431,0.053264618,0.055013835,-5.903244E-4,0.03991301,-0.12182633,0.37362987,2017-06-17 22:09:53,56.24797588519716
2.7006595,-0.025139118,9.588778,-0.0010704339,-0.0010704339,-0.0010672013,111.0,2.4875867,-0.17359385,9.48431,0.07481241,0.044239923,-0.02572918,0.03991301,-0.12182633,0.37362987,2017-06-17 22:09:54,59.18446621137839
2.7114334,-0.046686932,9.588778,-0.0010704339,-0.0010704339,-0.0021331098,111.0,2.4875867,-0.17359385,9.48431,0.065235615,0.056210935,-0.012560844,0.03991301,-0.12182633,0.37362987,2017-06-17 22:09:55,57.040680168233415
2.7126305,-0.02873042,9.586384,-4.525384E-6,-0.0010704339,-0.0021331098,111.0,2.4875867,-0.17359385,9.48431,0.061644316,0.06339354,-0.028123856,0.03991301,-0.12182633,0.37362987,2017-06-17 22:09:56,58.298539446065895
2.7162218,-0.038307227,9.589975,-0.0010704339,0.0021272912,-0.0010672013,111.0,2.4875867,-0.17359385,9.48431,0.064038515,0.05261963,-0.035305977,0.03991301,-0.12182633,0.37362987,2017-06-17 22:09:57,55.47926868984235
2.7114334,-0.031124622,9.601946,-4.525384E-6,0.004259108,-0.0010672013,112.0,2.4875867,-0.17359385,9.48431,0.07122111,0.04902833,0.02454853,0.03991301,-0.12182633,0.37362987,2017-06-17 22:09:58,55.89935554582647
2.7102363,-0.025139118,9.587581,-0.002136342,-0.0010704339,-1.293003E-6,112.0,2.4875867,-0.17359385,9.48431,0.059250116,0.05022543,-0.0065755844,0.03991301,-0.12182633,0.37362987,2017-06-17 22:09:59,56.53071288560429
2.7006595,-0.031124622,9.600749,-0.002136342,0.0010613832,0.0021305238,111.0,2.4875867,-0.17359385,9.48431,0.066432714,0.04902833,6.0653687E-4,0.03991301,-0.12182633,0.37362987,2017-06-17 22:10:00,56.740153729886046
2.7162218,-0.023942016,9.587581,-4.525384E-6,-0.0010704339,-1.293003E-6,111.0,2.4875867,-0.17359385,9.48431,0.07002401,0.04902833,-0.0077724457,0.03991301,-0.12182633,0.37362987,2017-06-17 22:10:01,54.89804791271421
2.705448,-0.033518825,9.586384,-4.525384E-6,0.0010613832,0.0021305238,113.0,2.4875867,-0.17359385,9.48431,0.07122111,0.047831222,-0.0017871857,0.03991301,-0.12182633,0.37362987,2017-06-17 22:10:02,57.57593443885101
2.7114334,-0.038307227,9.593566,-4.525384E-6,-0.006399976,-0.0010672013,113.0,2.4875867,-0.17359385,9.48431,0.07241821,0.044239923,-0.030517578,0.03991301,-0.12182633,0.37362987,2017-06-17 22:10:03,55.75380253260295
2.7269957,-0.029927522,9.607931,-4.525384E-6,-0.003202251,0.0021305238,113.0,2.4875867,-0.17359385,9.48431,0.08438921,0.062196434,-0.010167122,0.03991301,-0.12182633,0.37362987,2017-06-17 22:10:04,57.488216784666086
2.7102363,-0.023942016,9.586384,-0.0010704339,-4.525384E-6,-0.0010672013,112.0,2.4875867,-0.17359385,9.48431,0.08079791,0.05022543,-0.0017871857,0.03991301,-0.12182633,0.37362987,2017-06-17 22:10:06,56.96433776553999