ACC_X,ACC_Y,ACC_Z,GYRO_X,GYRO_Y,GYRO_Z,LIGH_1,GRAV_X,GRAV_Y,GRAV_Z,LINACC_X,LINACC_Y,LINACC_Z,ROTVEC_X,ROTVEC_Y,ROTVEC_Z,TIME,VOICE
5.482,1.853,8.031,0.49952003,-0.11836984,0.2684353,21.0,5.116079,1.526893,8.224931,0.325921,0.267107,-0.124931,0.0902,-0.2691,0.0321,2017-05-25 22:14:27,40.95154123878041
5.844,1.108,8.012,-0.08253774,-0.019600315,-0.030194607,22.0,5.702056,1.18602,7.888847,0.141944,-0.07802,0.123153,0.086,-0.3005,0.0699,2017-05-25 22:14:28,24.636896281821443
5.884,0.931,8.031,-0.062326554,-0.00385723,-0.068697095,23.0,5.752334,0.926849,7.887052,0.121666,0.014151,0.134948,0.0738,-0.3039,0.0744,2017-05-25 22:14:29,26.816686769626415
5.854,0.794,8.051,0.054402653,0.0056898505,0.09477267,24.0,5.759517,0.787986,7.897526,0.094483,0.006014,0.153474,0.0682,-0.3044,0.0803,2017-05-25 22:14:30,25.155064662350895
5.913,0.715,8.031,0.0445065,-0.008325334,0.088035606,24.0,5.788546,0.740402,7.880767,0.124454,0.023598,0.111233,0.0656,-0.3063,0.0795,2017-05-25 22:14:31,22.434704313942543
6.05,0.794,7.953,0.13015097,-0.061279345,0.047491055,22.0,5.883117,0.740701,7.810438,0.088883,0.072299,0.132562,0.0679,-0.3116,0.0845,2017-05-25 22:14:32,21.416839690985526
6.188,0.725,7.796,0.07957064,0.012287285,0.09815865,21.0,6.085725,0.731723,7.654217,0.112275,0.052277,0.190783,0.0682,-0.3241,0.0828,2017-05-25 22:14:33,21.011238748500823
5.903,0.107,8.071,-0.23209704,0.027262414,0.050754864,26.0,5.999235,0.511457,7.740108,0.021765,-0.306458,0.183892,0.0559,-0.3197,0.0833,2017-05-25 22:14:34,33.04790103405375
5.943,0.519,8.051,0.26963958,-0.03644297,-0.046635833,30.0,5.764904,0.108636,7.931943,0.207096,0.263364,0.021057,0.021,-0.3084,0.0468,2017-05-25 22:14:35,43.145688530215935
6.158,0.97,7.845,0.074229866,-0.057474475,0.059481632,21.0,6.002527,0.916674,7.699707,0.136473,0.044326,0.047293,0.0729,-0.3194,0.0686,2017-05-25 22:14:36,45.69540568823555
6.256,0.941,7.747,0.069238156,-0.031852692,0.003752509,20.0,6.119243,0.872681,7.612319,0.195757,0.117319,0.065681,0.0733,-0.3262,0.0747,2017-05-25 22:14:37,60.340252588771
6.217,0.706,7.767,-0.001151933,0.03925299,0.074962914,21.0,6.177303,0.789483,7.574909,0.078697,-0.044483,0.182091,0.0697,-0.33,0.0762,2017-05-25 22:14:38,57.99725854553571
6.296,0.872,7.718,-0.054053582,-0.019495593,-0.052482765,20.0,6.157251,0.87717,7.581493,0.157749,0.01483,0.136507,0.0743,-0.3284,0.0762,2017-05-25 22:14:39,48.98733720047118
5.913,0.588,8.061,-0.2069465,0.10068941,-0.21366611,24.0,5.900175,0.58897,7.809839,0.081825,-0.06997,0.261161,0.0542,-0.3143,0.0675,2017-05-25 22:14:40,42.03812098081677
5.295,-0.088,8.512,-0.054001223,0.189109,-0.13070948,39.0,5.397994,-0.130183,8.185727,-0.190994,0.052183,0.248273,0.0069,-0.2873,0.0462,2017-05-25 22:14:41,65.49808398103562
5.844,0.402,8.718,-0.27386335,0.30945107,-0.15589494,34.0,5.395301,0.177469,8.186325,-0.247301,-0.168469,0.717675,0.0169,-0.2868,0.0251,2017-05-25 22:14:42,70.07165971326327
5.972,0.078,7.992,0.082014136,-0.04297059,0.040474735,29.0,5.799021,-0.001496,7.908001,0.113979,0.079496,0.083999,0.012,-0.3108,0.037,2017-05-25 22:14:43,66.57235194112106
6.855,1.451,7.129,0.30913693,-0.24982983,-0.21153678,16.0,6.574139,1.027704,7.203212,0.280861,0.325296,-0.074212,0.0745,-0.3565,0.0475,2017-05-25 22:14:44,67.89763868422882
5.982,0.49,7.924,-0.03382494,0.074648745,0.0128283445,24.0,5.963921,0.539889,7.764948,0.028079,-0.039889,0.188052,0.0425,-0.3197,0.0397,2017-05-25 22:14:45,67.97385762920727
5.962,0.509,8.022,0.014050092,-0.0036652412,-0.04494284,26.0,5.822963,0.445019,7.877176,0.149037,0.054981,0.095824,0.034,-0.3117,0.0307,2017-05-25 22:14:46,59.23656344693303
6.099,0.529,7.875,0.0038223232,-0.012252378,0.033144254,24.0,5.985768,0.52702,7.748787,0.113232,-0.02702,0.096213,0.0411,-0.3212,0.0372,2017-05-25 22:14:47,60.622873555997
5.943,0.451,8.031,-0.05379178,0.05209879,-0.0701981,25.0,5.857978,0.449807,7.851139,0.075022,0.030193,0.219861,0.0334,-0.3139,0.028,2017-05-25 22:14:48,58.674337753944144
5.462,0.156,8.414,-0.032864995,0.13091893,0.059307095,30.0,5.495258,0.261265,8.117193,-0.013258,-0.075265,0.227807,0.019,-0.2928,0.0165,2017-05-25 22:14:49,66.13784739787158
6.041,1.284,10.895,0.2620124,-0.07951828,0.032812636,73.0,4.439422,-0.260367,8.739682,0.895578,0.407367,1.106318,-0.0116,-0.2328,0.0083,2017-05-25 22:14:50,65.45048082458482
5.276,0.0,8.453,0.63005495,-0.3001309,-0.10777555,58.0,4.787177,-0.619196,8.535278,0.566823,0.668196,0.388722,-0.0135,-0.2541,0.0728,2017-05-25 22:14:51,55.125407671000985
5.776,-1.167,8.13,0.051348284,-0.06342613,-0.11133607,45.0,5.600902,-1.140531,7.967856,0.185098,0.003531,0.191144,-0.0105,-0.3059,0.1576,2017-05-25 22:14:52,65.66119237388526
5.972,-1.284,7.963,0.0032114496,-0.012060389,-0.050789773,46.0,5.835233,-1.317401,7.770036,0.146767,0.023401,0.094964,-0.0216,-0.3214,0.1459,2017-05-25 22:14:53,68.89234135919834
4.481,-0.392,8.943,0.9056986,-0.016423771,0.2517148,40.0,4.899106,-0.248097,8.490686,-0.192106,0.267097,-0.204686,0.0328,-0.2568,0.1709,2017-05-25 22:14:54,65.89578552535306
4.864,-0.99,8.139,0.4567589,-0.06490968,0.18383802,45.0,4.861098,-1.54425,8.375167,0.012902,0.22125,0.479833,-0.0199,-0.2693,0.2229,2017-05-25 22:14:55,63.170543970907275
5.511,-1.775,8.169,-0.07398552,-0.19614276,-0.025918491,48.0,5.246861,-1.656478,8.116894,0.323139,0.078478,-0.094894,-0.0278,-0.2921,0.2,2017-05-25 22:14:56,67.47521641064546
4.344,-0.706,8.208,0.554935,-0.13751636,0.25791082,48.0,4.451692,-1.364088,8.630447,-0.117692,0.472088,-0.706447,-0.0057,-0.2447,0.262,2017-05-25 22:14:57,67.7355483458632
5.236,-1.755,8.326,-0.11386683,-0.0037350554,0.08197923,43.0,5.172043,-1.516119,8.192011,0.181957,-0.238881,0.172989,-0.0047,-0.2868,0.2543,2017-05-25 22:14:58,63.062459564238516
5.256,-1.814,8.365,0.016004886,0.0050266166,-0.029129941,44.0,5.13643,-1.806414,8.155201,0.14857,0.012414,0.189799,-0.0194,-0.2894,0.2563,2017-05-25 22:14:59,60.95319708994942
5.364,-1.647,8.522,0.04963784,-0.0023911337,0.054123398,39.0,5.233394,-1.561908,8.144128,0.051606,0.071908,0.200872,-0.0043,-0.291,0.2599,2017-05-25 22:15:00,28.961673470275464
5.884,-1.343,8.12,0.036809497,-0.0115542365,0.0018675277,32.0,5.691282,-1.337452,7.872986,0.202718,-0.074548,0.306014,0.0075,-0.3138,0.2393,2017-05-25 22:15:01,59.79991134007868
6.364,-1.117,7.698,0.039235536,-0.015760537,-0.0019373419,28.0,6.21112,-1.09115,7.509069,0.12388,-0.00685,0.198931,0.026,-0.3412,0.2325,2017-05-25 22:15:02,58.18764525438019
6.394,-1.108,7.62,0.057334848,-0.01794223,0.039218083,27.0,6.238354,-1.126165,7.481237,0.135646,0.028165,0.147763,0.0247,-0.3433,0.2326,2017-05-25 22:15:03,48.48776138382834
7.061,-1.127,7.021,-0.02837944,-0.04087617,0.047944847,22.0,6.777944,-1.121377,6.997611,0.283056,-0.025623,0.121389,0.0305,-0.3771,0.2243,2017-05-25 22:15:04,61.22333131235783
7.061,-0.97,7.08,0.015603456,-0.0067021553,-0.013631207,22.0,6.900347,-0.981916,6.898252,0.189653,0.001916,0.132748,0.0398,-0.3829,0.2239,2017-05-25 22:15:05,59.999777322943395
7.061,-0.951,7.08,0.04612968,-0.0021991448,0.038380314,22.0,6.897055,-0.915477,6.910223,0.163945,-0.015523,0.179777,0.0451,-0.3815,0.228,2017-05-25 22:15:06,64.0940528791552
7.09,-0.941,7.021,-0.027698752,-0.0031416353,-0.014992583,22.0,6.907829,-0.902608,6.901544,0.153171,-0.038392,0.168456,0.0431,-0.3824,0.2215,2017-05-25 22:15:07,67.4907849091232
7.031,-0.99,7.129,0.0041539404,0.016476132,0.009302732,22.0,6.850967,-0.995682,6.944939,0.161033,-0.004318,0.174061,0.0393,-0.3799,0.2264,2017-05-25 22:15:08,59.57765900044657
6.953,-0.755,7.345,-0.006091282,0.0645257,-0.20282747,22.0,6.830317,-0.956178,6.970377,0.151683,0.123178,0.217623,0.0396,-0.3781,0.2231,2017-05-25 22:15:09,52.44010555393031
6.884,-0.264,7.178,-0.061244436,0.006841784,-0.038956277,22.0,6.780638,-0.252287,7.079313,0.113362,-0.041713,0.108687,0.0609,-0.3678,0.1855,2017-05-25 22:15:10,64.03475291760314
6.972,-0.353,7.188,-0.16952613,7.8540883E-4,-0.06199494,24.0,6.739039,-0.400427,7.112532,0.193961,0.008427,0.104468,0.0478,-0.3674,0.1744,2017-05-25 22:15:11,58.70846061382128
6.864,-0.353,7.257,-0.028152544,0.02684353,-0.022602322,24.0,6.759689,-0.328003,7.096371,0.134311,-0.024997,0.199629,0.0498,-0.3683,0.1689,2017-05-25 22:15:13,58.751541673089555
6.237,-0.019,7.698,-0.11585653,0.42131075,-0.14573698,30.0,6.28564,-0.281915,7.52134,0.01036,0.242915,1.39266,0.015799,-0.3409,0.0858,2017-05-25 22:15:14,64.51385629662619
6.619,-1.059,6.629,-0.29760015,-0.32671264,-0.004084126,6.0,6.119243,-0.603933,7.638954,0.333757,-0.170067,-0.205954,-0.031399,-0.3309,0.0035,2017-05-25 22:15:15,63.63781450539068
6.59,-1.167,7.551,-0.017872415,0.04569334,-0.065049306,6.0,6.463109,-1.157888,7.283417,0.018891,0.040888,0.051583,-0.0538,-0.3545,0.0247,2017-05-25 22:15:16,64.83357660278483
6.433,-0.97,7.629,0.09976438,-0.037315648,0.034540534,7.0,6.196157,-0.996281,7.534807,-0.048157,0.094281,0.094193,-0.0465,-0.337,0.0209,2017-05-25 22:15:17,65.88447717823763
5.482,-0.196,7.62,0.046461295,0.30468628,-0.1609739,10.0,6.002527,-0.785293,7.714072,-0.226527,0.374293,1.052928,-0.0363,-0.3245,0.0174,2017-05-25 22:15:18,32.245226935235046
5.766,0.019,8.1,0.09402216,-0.019198883,0.10117811,28.0,5.629034,-0.031422,8.029207,0.165966,0.050423,0.247793,0.0131,-0.3006,0.0469,2017-05-25 22:15:19,49.075615337050024
5.766,-0.088,8.267,0.08920499,-0.014050092,0.072275065,29.0,5.702056,-0.114621,7.976834,0.063943,0.007621,0.162166,0.0135,-0.305,0.0614,2017-05-25 22:15:20,52.11341758017323
6.247,-0.313,7.825,-0.056933414,-0.14903569,0.030386595,27.0,5.939679,-0.212184,7.799365,0.248321,-0.051816,0.084635,0.0077,-0.3197,0.0567,2017-05-25 22:15:21,29.5379766706314
6.09,-1.127,7.394,0.26286763,-0.115716904,0.008098437,34.0,6.603468,-0.019452,7.2493,0.202532,0.175452,0.1247,0.0293,-0.3598,0.0786,2017-05-25 22:15:22,64.70618074494675
5.56,-1.098,8.718,0.04410507,-0.033545684,0.19375163,33.0,5.266015,-0.904703,8.222237,0.234985,-0.056297,0.328762,0.0168,-0.2836,0.2182,2017-05-25 22:15:23,65.63892832225638
5.511,-2.235,8.159,2.0944235E-4,-0.11580417,-0.2282398,41.0,5.235489,-2.337325,7.955286,0.226511,0.023325,0.213714,-0.032499,-0.3054,0.2937,2017-05-25 22:15:24,60.47160159558753
6.247,-0.48,8.865,0.10575094,-0.10765337,-0.36287636,35.0,5.542544,-0.741001,8.055242,0.478456,0.241001,0.436757,0.0186,-0.2981,0.1851,2017-05-25 22:15:25,61.128163369332896
6.139,-0.794,7.884,0.04696745,-0.018134218,0.078122,25.0,6.021381,-0.766738,7.701203,0.156619,-0.037262,0.192797,6.0E-4,-0.3275,0.1212,2017-05-25 22:15:26,56.905952075632406
5.756,-0.804,8.159,0.11100445,0.37420368,0.35985687,20.0,6.125827,-0.679051,7.626983,-0.310827,-0.330949,0.198017,0.0083,-0.3332,0.1271,2017-05-25 22:15:27,60.85031352768367
5.972,-0.598,7.982,-0.029182302,-0.032044683,-0.02225325,21.0,5.831941,-0.579393,7.862212,0.169059,0.001393,0.159788,0.0252,-0.3138,0.1693,2017-05-25 22:15:28,56.66729873366317
5.962,-0.598,8.022,0.034069292,0.0037699626,0.04415743,20.0,5.851094,-0.587773,7.847248,0.130906,-0.010227,0.193752,0.0223,-0.3152,0.1614,2017-05-25 22:15:29,59.8538401438513
5.992,-0.598,7.963,-0.05986561,0.18486778,-0.02303866,22.0,5.973497,-0.596152,7.753875,0.047503,-0.040848,0.317125,0.0132,-0.3232,0.1323,2017-05-25 22:15:30,59.00275973424858
5.972,-0.676,7.943,0.03564011,-0.0042586615,0.04523955,22.0,5.869051,-0.663189,7.827796,0.151949,-0.022811,0.203204,0.0077,-0.3175,0.1294,2017-05-25 22:15:31,58.51543169960663
6.011,-0.608,8.11,-0.022724496,0.011990575,-0.07597522,22.0,5.815182,-0.668277,7.867599,0.450818,0.139277,0.556401,0.0078,-0.3143,0.1318,2017-05-25 22:15:32,61.664774013262985
6.374,-0.647,9.336,-0.04602496,0.06895889,-0.013613753,22.0,5.826853,-0.655408,7.859519,1.047147,0.136408,1.692481,0.0072,-0.3149,0.1279,2017-05-25 22:15:33,63.34105789692672
6.011,-0.676,8.002,0.006161096,-0.0031241819,0.016737936,21.0,5.870547,-0.65481,7.827197,0.121453,-0.02119,0.174803,0.0119,-0.3174,0.1405,2017-05-25 22:15:34,66.95941922740369
6.001,-0.686,8.002,0.070931144,-0.0045902785,0.08573174,21.0,5.872941,-0.656007,7.825401,0.138059,-9.93E-4,0.186599,0.0109,-0.3175,0.1376,2017-05-25 22:15:35,65.55527441628969
5.982,-0.676,8.002,-0.022933938,0.0030020073,-0.024452396,21.0,5.860372,-0.65481,7.834978,0.111628,-0.01119,0.167022,0.0078,-0.3169,0.1286,2017-05-25 22:15:36,66.9159286576248
6.001,-0.666,7.992,0.0069290516,-9.5994415E-4,0.0019722488,21.0,5.882518,-0.651219,7.818817,0.118482,-0.005781,0.173183,0.0097,-0.3181,0.1332,2017-05-25 22:15:37,56.97464103561824
6.001,-0.676,8.002,0.044035256,0.002932193,0.06161096,21.0,5.884015,-0.654511,7.817321,0.136985,-0.021489,0.164679,0.0112,-0.3182,0.1379,2017-05-25 22:15:38,63.9775237523742
6.227,-0.186,8.453,0.18814905,0.15983942,0.29658782,20.0,5.058618,-1.283583,8.302144,0.550382,0.440583,0.219856,-0.0055,-0.2768,0.2177,2017-05-25 22:15:39,57.36796103851226
6.315,-0.617,7.806,0.07396806,-0.008168252,0.07703988,19.0,6.153361,-0.612912,7.610224,0.063639,-0.044088,0.136776,0.0388,-0.3323,0.2015,2017-05-25 22:15:40,56.2856787848775
5.835,-2.481,7.708,0.011903307,-0.078034736,0.10751375,28.0,5.611077,-2.432195,7.665889,0.174923,-0.067805,0.052111,-0.0211,-0.3296,0.319,2017-05-25 22:15:41,29.345445590498862
6.207,-1.902,7.678,0.018779999,-0.029356837,-0.085277945,27.0,5.977687,-1.962934,7.52134,0.210313,0.031934,0.16666,-4.0E-4,-0.3413,0.2921,2017-05-25 22:15:42,39.48002506794382
6.148,-1.892,7.718,-0.01680775,-0.013491578,-0.10070687,26.0,5.991454,-1.854298,7.538099,0.186546,0.011298,0.198901,0.0048,-0.34,0.2908,2017-05-25 22:15:43,40.593098728360395
6.266,-1.039,7.776,-0.048136834,-0.0050266166,-0.09758268,25.0,6.114156,-0.965456,7.605435,0.200844,0.034456,0.219565,0.0176,-0.3345,0.1958,2017-05-25 22:15:44,64.98813239475518
8.414,0.019,6.492,0.40450302,-0.6609652,0.105733484,20.0,7.019757,-0.572809,6.822835,1.796243,0.249809,0.110165,0.0339,-0.3885,0.1546,2017-05-25 22:15:45,62.78450822246356
6.521,-0.637,6.972,-0.206388,0.23735055,-0.1591762,25.0,6.924888,-0.867892,6.888376,0.332112,-0.730108,0.525624,-0.0087,-0.3855,0.0938,2017-05-25 22:15:46,63.39473566383627
7.11,-1.206,7.031,0.13657387,-0.062902525,0.123885155,26.0,6.931771,-1.100727,6.848274,0.197229,-0.075273,0.123726,-0.0202,-0.3878,0.0969,2017-05-25 22:15:47,62.08353238905484
7.07,-1.225,7.051,0.022288159,-0.024382582,-0.004799721,24.0,6.865631,-1.228816,6.892865,0.185369,-0.006184,0.148135,-0.0232,-0.3847,0.1074,2017-05-25 22:15:48,65.93983532035006
7.061,-1.225,7.031,0.026930796,-0.012426914,0.027122786,24.0,6.905734,-1.194699,6.858449,0.174266,-0.021301,0.153551,-0.0212,-0.387,0.1071,2017-05-25 22:15:49,63.288547203135664
7.08,-1.245,7.021,-0.041172877,0.014556244,-0.026459552,24.0,6.921296,-1.185422,6.844682,0.168704,-0.030578,0.176318,-0.0201,-0.388,0.1083,2017-05-25 22:15:50,65.56907143572231
7.139,-1.216,7.021,0.03317916,-7.3304825E-4,0.028414346,24.0,6.934464,-1.178838,6.832412,0.194536,-0.017162,0.188588,-0.0239,-0.3886,0.0982,2017-05-25 22:15:51,57.82632477965873
5.776,-2.363,7.875,-0.27428222,-0.0018675277,-0.31910288,46.0,5.520996,-2.343011,7.758065,0.245004,-0.264989,0.096935,-0.0675,-0.316,0.1794,2017-05-25 22:15:52,60.81780488011048
5.658,-1.333,8.237,-0.24817175,-0.120377,-0.8113448,46.0,5.500047,-1.324584,8.009754,0.157953,0.089584,0.276246,-0.0321,-0.3009,0.1234,2017-05-25 22:15:53,62.466715351902415
5.354,-1.392,8.1,0.0061087357,0.085190676,-0.079239026,61.0,5.44917,-1.455067,8.022024,0.07183,-0.201933,0.234976,-0.0595,-0.2956,0.0592,2017-05-25 22:15:54,64.63972589520114
5.129,-1.686,8.443,-0.040055852,0.030020071,0.018308753,83.0,5.065502,-1.636726,8.235406,0.063497,-0.089274,0.198594,-0.0867,-0.2693,0.001,2017-05-25 22:15:55,60.10090275038608
4.599,-1.99,8.698,-0.025918491,-0.006387992,-0.029479012,86.0,4.492992,-1.93181,8.499365,0.116008,-0.07819,0.169635,-0.0957,-0.2397,0.0253,2017-05-25 22:15:56,66.11083082943249
4.668,-1.922,8.708,0.0064403526,-0.005759665,0.006614888,85.0,4.53489,-1.901583,8.483803,0.11311,-0.049417,0.195197,-0.0933,-0.2422,0.0282,2017-05-25 22:15:57,64.18033481354078
4.648,-1.873,8.61,0.010140501,-0.017436076,0.03209704,85.0,4.557635,-1.818385,8.490387,0.119365,-0.054615,0.207613,-0.0897,-0.2429,0.0248,2017-05-25 22:15:59,63.01933631157179
4.697,-1.922,8.679,0.012933066,0.017191727,0.035343397,86.0,4.595044,-1.82467,8.468241,0.052956,-0.04833,0.131759,-0.0896,-0.2453,0.0267,2017-05-25 22:16:00,61.853264655794014
5.835,-2.02,7.894,-0.017244088,-0.2914216,-0.043546557,67.0,5.361782,-2.034161,7.954388,0.335218,-0.102839,-0.079388,-0.1026,-0.2896,0.0209,2017-05-25 22:16:01,57.82594753365352
5.913,-1.892,7.924,0.0071908543,0.010699014,0.0019897025,61.0,5.782262,-1.854597,7.699707,0.140738,-0.037403,0.204293,-0.0921,-0.3144,0.0238,2017-05-25 22:16:02,48.2740413497531
5.835,-1.863,7.894,-0.0016929924,0.0,0.008098437,62.0,5.726896,-1.812399,7.750882,0.147104,-0.060601,0.192118,-0.0876,-0.3116,0.0305,2017-05-25 22:16:03,56.235997336137416
6.227,-1.941,7.61,-0.046880182,-0.08189196,0.010367397,56.0,6.015695,-1.894101,7.50877,0.221305,-0.076899,0.130229,-0.0971,-0.3281,0.016,2017-05-25 22:16:04,57.82913005242084
6.217,-1.912,7.639,0.105628766,-0.024626931,0.11639759,54.0,6.082134,-1.871356,7.461485,0.144866,-0.030644,0.167515,-0.0971,-0.3318,0.0128,2017-05-25 22:16:05,64.16263928756125
6.217,-1.882,7.678,-0.10220787,0.024400035,-0.12343136,54.0,6.068068,-1.829458,7.482733,0.129932,-0.043542,0.156267,-0.0936,-0.3312,0.0162,2017-05-25 22:16:06,60.57001756729352
6.207,-1.873,7.659,-0.003717602,0.0024958549,-0.0061087357,54.0,6.074352,-1.819582,7.48004,0.142648,-0.033418,0.17896,-0.0927,-0.3316,0.0173,2017-05-25 22:16:07,63.20777339754418
6.08,-1.873,7.629,0.08498124,-0.022829218,0.09634349,54.0,6.081236,-1.792647,7.480938,0.125764,-0.021353,0.129062,-0.089,-0.3326,0.0236,2017-05-25 22:16:08,59.52848643012836
6.364,-1.922,7.639,-0.048189197,-0.011432062,0.008028624,54.0,6.06717,-1.802224,7.490215,0.00283,0.047224,-0.125214,-0.0912,-0.3312,0.0187,2017-05-25 22:16:09,46.62421091594616
6.198,-1.853,7.708,0.041591763,-0.011589144,0.01869273,52.0,6.089615,-1.791151,7.474054,0.009385,-0.061849,0.154946,-0.0899,-0.3328,0.0206,2017-05-25 22:16:10,56.77780962555797
5.815,-1.549,7.894,0.040265292,0.030246967,-0.0061785495,55.0,5.782262,-1.540659,7.768839,0.101738,-0.018341,0.164161,-0.0779,-0.3127,0.0152,2017-05-25 22:16:11,51.1740946740542
5.737,-1.52,8.08,0.013386858,0.017121913,0.022043807,57.0,5.633223,-1.482002,7.888249,0.122777,-0.037998,0.191751,-0.0753,-0.3034,0.0131,2017-05-25 22:16:12,49.02832554648728
5.717,-1.441,8.031,0.02225325,-0.004380836,0.02981063,56.0,5.599406,-1.459556,7.916979,0.097594,-0.060444,0.124021,-0.0753,-0.301,0.0093,2017-05-25 22:16:13,62.970401234772766
5.805,-1.49,8.022,-0.088838466,0.023998603,-0.10082904,28.0,5.691582,-1.419154,7.858022,0.123418,0.007154,0.231978,-0.0696,-0.3073,0.0205,2017-05-25 22:16:14,60.445805363610475
5.795,-1.402,7.58,0.082014136,-0.046600927,0.055432413,27.0,5.792437,-1.398504,7.788291,0.140563,-0.023496,0.184709,-0.0695,-0.3131,0.0173,2017-05-25 22:16:15,63.49543614691355
5.972,-1.431,7.953,-0.018256392,-0.0013788289,-0.041172877,26.0,5.804408,-1.391621,7.779613,0.157592,-3.79E-4,0.202387,-0.0711,-0.3134,0.0115,2017-05-25 22:16:16,62.9070067103836
5.982,-1.392,7.973,0.012653809,-0.013666114,0.021782005,26.0,5.839722,-1.363789,7.758364,0.122278,-0.028211,0.125636,-0.0702,-0.3153,0.0096,2017-05-25 22:16:17,64.75582667490714
5.639,-1.539,8.502,-0.11386683,0.122680865,-0.029723361,26.0,5.852292,-1.380847,7.746094,0.394708,0.066847,-0.009094,-0.072,-0.3159,0.0071,2017-05-25 22:16:18,60.24207267987617
6.168,-1.441,7.796,-0.048032116,-0.009948513,-0.06112226,27.0,5.994746,-1.406884,7.632071,0.173254,-0.044116,0.163929,-0.0751,-0.3243,0.0027,2017-05-25 22:16:19,57.85392946489769
6.453,-1.471,7.512,0.018134218,-0.009093289,0.037996333,24.0,6.311078,-1.410475,7.371404,0.160922,-0.040525,0.179596,-0.0729,-0.3446,0.0107,2017-05-25 22:16:20,65.40749580953964
6.109,-1.48,7.825,0.04583297,0.012147657,0.07635919,26.0,5.970205,-1.451476,7.642246,0.099795,-0.038524,0.163754,-0.0749,-0.3235,0.0102,2017-05-25 22:16:21,55.68012202724869
5.992,-1.49,7.649,-0.050109085,0.0025482154,-0.040771447,25.0,5.957636,-1.453271,7.651523,0.190364,-0.036729,0.242477,-0.0747,-0.3228,0.011,2017-05-25 22:16:22,52.33615787252056
6.06,-1.471,7.776,0.016877564,-0.004276115,0.02764639,26.0,5.938782,-1.451775,7.667086,0.180218,-0.048225,0.285914,-0.0726,-0.3221,0.0171,2017-05-25 22:16:23,56.069584434147146
6.041,-1.49,7.855,0.03342351,0.003787416,0.05028362,25.0,5.93519,-1.444293,7.671276,0.14481,-0.026707,0.193724,-0.0712,-0.3221,0.0198,2017-05-25 22:16:24,59.9841592854035
6.041,-1.48,7.835,-0.0056200367,-0.010768828,-0.012426914,26.0,5.91484,-1.444892,7.686838,0.17516,-0.045108,0.246162,-0.0731,-0.3204,0.0144,2017-05-25 22:16:25,63.16454014482942
6.05,-1.451,7.835,0.03604154,-0.017121913,0.03452308,26.0,5.922022,-1.436512,7.682648,0.176978,-0.043488,0.231352,-0.0732,-0.3207,0.0126,2017-05-25 22:16:26,62.99476598064986
6.109,-1.382,7.816,0.017662972,5.58513E-4,-0.0016755388,24.0,5.972899,-1.344336,7.660202,0.146101,-0.008664,0.174798,-0.0681,-0.3236,0.0132,2017-05-25 22:16:27,40.0612655435381
6.325,-1.392,8.228,-0.026511911,0.025272712,-0.042010646,24.0,5.950154,-1.346131,7.677261,0.090846,0.013131,0.079739,-0.0676,-0.3224,0.0147,2017-05-25 22:16:28,40.03957342580072
6.119,-1.353,7.796,0.027070425,-0.01087355,0.0165634,24.0,5.998936,-1.327876,7.642845,0.130063,-0.064124,0.192155,-0.0644,-0.3258,0.0212,2017-05-25 22:16:29,40.80305251970404
5.972,-1.422,7.472,-0.0062483638,-0.002740204,-0.011658958,23.0,5.970205,-1.347029,7.6614,0.403795,0.112029,0.0076,-0.0692,-0.3233,0.0103,2017-05-25 22:16:30,40.226678922335715
6.148,-1.353,7.796,-0.009704162,-0.0049742563,-0.011693865,24.0,6.001928,-1.327277,7.640151,0.127072,-0.025723,0.135849,-0.0672,-0.3254,0.0131,2017-05-25 22:16:31,41.36033389748804
6.041,-1.48,7.904,-0.063949734,0.012653809,-0.06234401,26.0,5.904964,-1.418256,7.699407,0.145036,-0.052744,0.194593,-0.0723,-0.3196,0.0125,2017-05-25 22:16:32,39.31094240414683
6.178,-1.343,7.835,0.07396806,-0.030089885,0.05007418,24.0,5.952548,-1.395512,7.667086,0.088452,-0.006488,0.177914,-0.0727,-0.3221,0.0076,2017-05-25 22:16:33,40.64013335946392
6.168,-1.235,7.718,-0.0056200367,-0.02956628,0.06244873,24.0,5.969008,-1.303934,7.670078,0.002992,-0.500065,0.027922,-0.0682,-0.3228,0.0062,2017-05-25 22:16:34,39.41978242723971
6.041,-1.608,7.943,-0.012200017,-0.007836635,-0.0019198883,25.0,5.874438,-1.554725,7.696115,0.077562,-0.092275,0.158885,-0.0798,-0.3181,0.0119,2017-05-25 22:16:35,39.3319394096505
5.982,-1.608,7.806,0.027838381,-0.019757396,0.03476743,24.0,5.864562,-1.567893,7.701203,0.136438,-0.020107,0.104797,-0.0802,-0.3176,0.013,2017-05-25 22:16:36,39.66381303485335
6.05,-1.5,7.806,-0.049568024,-0.0102975825,-0.09562789,24.0,5.889701,-1.569389,7.681451,0.102299,-0.028611,0.114549,-0.0815,-0.3188,0.0096,2017-05-25 22:16:37,43.50190976706113
6.129,-1.294,7.816,0.08691858,-0.031433806,0.11699101,22.0,5.975892,-1.265627,7.670677,0.123108,-0.057373,0.154323,-0.0658,-0.3233,0.0072,2017-05-25 22:16:38,42.1918959678933
6.139,-1.304,7.786,-0.01928615,0.0032463565,-0.02823981,22.0,6.008512,-1.278795,7.643742,0.149488,-0.035205,0.201258,-0.066,-0.3254,0.009,2017-05-25 22:16:39,38.032161831182854
6.188,-1.265,7.786,-0.0153242,0.0031241819,-0.02541234,22.0,6.046819,-1.250364,7.617706,0.121181,-0.043636,0.158294,-0.0638,-0.3278,0.011,2017-05-25 22:16:40,36.9173656323983
6.315,-1.294,7.698,0.069883935,-0.020001745,0.08180469,20.0,6.168025,-1.252758,7.519843,0.146975,-0.021242,0.168157,-0.0605,-0.336,0.0207,2017-05-25 22:16:41,38.00943370941792
6.305,-1.274,7.718,0.043022953,0.0160747,0.034680165,20.0,6.17431,-1.261736,7.51296,0.11169,-0.012264,0.20504,-0.0607,-0.3364,0.0215,2017-05-25 22:16:42,37.82899084910844
6.168,-1.304,7.816,0.010646653,-0.005428048,0.0013788289,21.0,6.03425,-1.28478,7.622195,0.16375,-0.00922,0.163805,-0.0602,-0.3282,0.0265,2017-05-25 22:16:43,36.67696135670796
6.188,-1.294,7.825,0.015167117,0.00118684,0.008744218,21.0,6.037841,-1.26832,7.622195,0.140159,-0.03568,0.193805,-0.0631,-0.3276,0.0156,2017-05-25 22:16:45,37.41964201248066
6.207,-1.255,7.776,0.047002356,-0.0118684005,0.051400647,20.0,6.065075,-1.233006,7.606034,0.122925,-0.021994,0.140966,-0.0596,-0.3295,0.0201,2017-05-25 22:16:46,37.501920008035
6.207,-1.245,7.776,0.024801467,-0.002042063,0.040998343,21.0,6.06717,-1.233904,7.604238,0.08083,-0.109096,0.142762,-0.0602,-0.3295,0.0186,2017-05-25 22:16:47,38.75786912554802
6.158,-1.343,7.688,-0.042010646,0.0067370627,-0.038397767,20.0,6.078842,-1.208765,7.599151,0.079158,-0.085235,0.049849,-0.0574,-0.3305,0.0228,2017-05-25 22:16:48,38.15782980903853
6.198,-1.274,7.757,-0.070931144,0.003717602,-0.029479012,20.0,6.073155,-1.19859,7.604837,0.124845,-0.11541,0.191163,-0.059,-0.3297,0.0166,2017-05-25 22:16:49,37.21532798991594
6.296,-1.206,7.806,0.024330221,0.0040317653,0.02481892,20.0,6.084827,-1.22313,7.591968,0.122173,-0.01187,0.175032,-0.0599,-0.3305,0.0179,2017-05-25 22:16:50,38.975534553406774
6.217,-1.304,7.776,-0.089623876,0.025569422,-0.07532944,20.0,6.10847,-1.205174,7.575508,0.11853,-0.049826,0.151492,-0.0601,-0.3318,0.0146,2017-05-25 22:16:51,40.74749908645507
6.158,-1.402,8.071,0.08841959,-0.18102801,0.14322367,21.0,6.063579,-1.251262,7.604538,0.134421,-0.091738,0.358462,-0.0633,-0.329,0.0126,2017-05-25 22:16:52,40.4159492197665
6.305,-1.216,7.727,0.031468716,0.03881665,0.02101405,10.0,6.229975,-1.206969,7.47585,0.144025,-0.038031,0.13415,-0.0586,-0.3396,0.0192,2017-05-25 22:16:53,40.625590703596316
6.492,-1.235,7.776,0.049620386,-0.054524828,0.04321494,8.0,6.245537,-1.167764,7.468667,-0.195537,0.010764,-0.260667,-0.0568,-0.3404,0.0182,2017-05-25 22:16:54,42.08829933409589
6.423,-1.196,7.61,0.01637141,-0.009407452,-0.03035169,10.0,6.278457,-1.188115,7.438142,0.164543,0.012115,0.132858,-0.0579,-0.3425,0.0182,2017-05-25 22:16:55,45.29155250025485
6.364,-1.235,7.571,0.06803386,-0.015568549,0.11337813,9.0,6.297012,-1.13245,7.431258,0.086988,-0.07355,0.080742,-0.0526,-0.3439,0.0244,2017-05-25 22:16:56,41.15710500471441
6.453,-1.167,7.551,0.033947118,-0.01008814,-0.016353957,9.0,6.311976,-1.170159,7.413003,0.131024,0.003159,0.137997,-0.0551,-0.3449,0.0231,2017-05-25 22:16:57,38.716218144103635
6.423,-1.235,7.561,-0.0031241819,0.023998603,-0.026442097,10.0,6.291625,-1.174947,7.429463,0.111375,-0.031053,0.209537,-0.057,-0.3434,0.0188,2017-05-25 22:16:58,37.9032791719112
6.315,-1.235,7.512,-0.043633826,0.018378567,0.019024348,9.0,6.290129,-1.16537,7.431857,0.103871,-0.07963,0.109143,-0.0546,-0.3435,0.0237,2017-05-25 22:16:59,39.88615647084808
6.384,-1.294,7.659,-0.006265817,0.00771446,0.10897984,9.0,6.279654,-1.175546,7.439638,0.153346,-0.157454,0.121362,-0.0547,-0.343,0.0252,2017-05-25 22:17:00,40.11260505562515
6.423,-1.216,7.571,-0.0073653897,0.001117026,0.023108473,10.0,6.28953,-1.174947,7.430959,0.18247,-0.050053,0.228041,-0.057,-0.3432,0.0187,2017-05-25 22:17:01,39.79832048343063
6.472,-1.216,7.61,0.06037176,-0.014905315,0.089554064,11.0,6.268282,-1.212356,7.44293,0.164718,-0.052644,0.17707,-0.0549,-0.3427,0.0302,2017-05-25 22:17:02,40.393840814497906
6.453,-1.186,7.6,-0.055170607,0.0016755388,-0.082485385,9.0,6.265289,-1.193203,7.448317,0.069711,-0.002797,0.102683,-0.054,-0.3424,0.0298,2017-05-25 22:17:03,40.49139175433001
6.462,-1.216,7.629,-0.0115542365,-0.00825552,0.0010297582,10.0,6.263793,-1.196794,7.449514,0.159207,-0.038206,0.170486,-0.0555,-0.3421,0.0261,2017-05-25 22:17:04,38.53539525498985
6.394,-1.235,7.629,-0.03703639,0.008220613,-0.029496465,10.0,6.265289,-1.194998,7.448018,0.167711,-0.011002,0.161982,-0.0553,-0.3422,0.0264,2017-05-25 22:17:05,38.95049476988102
6.433,-1.206,7.59,0.038624663,-0.0058469325,-0.0140849985,10.0,6.282048,-1.177042,7.437244,0.140952,0.010042,0.162756,-0.0548,-0.3432,0.0251,2017-05-25 22:17:06,37.929813229230774
6.384,-1.225,7.62,-0.04272624,0.0115542365,-0.04188847,10.0,6.269179,-1.199487,7.444426,0.143821,-0.074513,0.116574,-0.0554,-0.3425,0.0267,2017-05-25 22:17:07,37.1301304798301
6.374,-1.235,7.58,0.025517061,-0.017069552,0.03792652,10.0,6.282647,-1.190809,7.434251,0.140353,-0.034191,0.155749,-0.0551,-0.3433,0.0264,2017-05-25 22:17:08,38.016123676917516
6.443,-1.186,7.512,0.10744393,-0.038293045,0.12756786,9.0,6.326041,-1.167166,7.401331,0.135959,-0.038834,0.129668,-0.0514,-0.3463,0.0328,2017-05-25 22:17:09,36.98847884256576
6.443,-1.117,7.531,-5.0615234E-4,5.9342E-4,0.010629199,9.0,6.337713,-1.144122,7.394747,0.065287,-0.051878,0.117253,-0.0539,-0.3464,0.0226,2017-05-25 22:17:10,37.137002533546934
6.413,-1.147,7.482,0.02274195,-5.236059E-5,0.025290165,9.0,6.340107,-1.142925,7.392652,0.131893,-0.053075,0.128347,-0.053,-0.3467,0.0249,2017-05-25 22:17:11,36.856052568379106
6.482,-1.196,7.571,-0.009250371,0.008587137,-0.007539925,9.0,6.331428,-1.159385,7.39744,0.111572,-0.056615,0.16356,-0.055,-0.346,0.0218,2017-05-25 22:17:12,35.86228416068251
6.384,-1.108,7.355,0.05201152,-0.01680775,0.033702765,10.0,6.355669,-1.145917,7.378885,0.499331,-0.138083,0.721115,-0.0552,-0.3474,0.0193,2017-05-25 22:17:13,37.82340470323628
6.462,-1.206,7.531,-0.041504495,0.008412601,0.017767694,9.0,6.36794,-1.124669,7.371703,0.09406,-0.032331,0.100297,-0.0509,-0.3486,0.0278,2017-05-25 22:17:14,47.15526914652984
6.551,-1.196,7.571,-0.017034646,-0.004171394,0.0018500742,9.0,6.338012,-1.175845,7.389958,0.104988,-0.108155,0.112042,-0.0543,-0.3467,0.0261,2017-05-25 22:17:15,46.83559348412088
6.492,-1.157,7.571,0.07758094,-0.010995724,0.08953661,9.0,6.376918,-1.135742,7.362425,0.193082,0.008742,0.188575,-0.0512,-0.3492,0.0285,2017-05-25 22:17:16,39.7063859617453
6.658,-1.059,7.58,0.12341391,-0.04340693,0.13278645,8.0,6.358662,-1.155494,7.375294,0.113338,-0.050506,0.175706,-0.0546,-0.3478,0.0224,2017-05-25 22:17:17,41.29067966573409
6.266,-1.206,7.276,-0.04979492,0.021240946,-0.018657824,10.0,6.393079,-1.113596,7.351951,0.137921,-0.043404,0.346049,-0.0513,-0.35,0.0252,2017-05-25 22:17:18,44.395240512285
6.443,-1.206,7.512,0.032847542,-0.002565669,0.07367135,10.0,6.360458,-1.161779,7.372301,0.160542,-0.014221,0.109699,-0.0544,-0.348,0.0239,2017-05-25 22:17:19,40.65407481581676
6.502,-1.225,7.629,0.03040405,0.011449516,0.046496205,10.0,6.332625,-1.199487,7.390258,0.110375,-0.035513,0.140742,-0.0565,-0.3463,0.0237,2017-05-25 22:17:20,40.04596395005231
6.453,-1.206,7.561,-0.10250458,0.02773366,-0.11149315,10.0,6.320655,-1.191407,7.401929,0.141345,-0.033593,0.178071,-0.0578,-0.3453,0.0191,2017-05-25 22:17:21,51.79956369487368
6.453,-1.196,7.561,-0.0046251854,0.005393141,-0.0020769702,10.0,6.344297,-1.164472,7.385769,0.166703,-0.060528,0.204231,-0.0545,-0.347,0.024,2017-05-25 22:17:22,48.97788482957147
6.502,-1.186,7.6,0.06215202,-0.018204032,0.076551184,10.0,6.336815,-1.177341,7.390557,0.125185,-0.018659,0.111443,-0.0556,-0.3465,0.023,2017-05-25 22:17:23,40.77049471101952
6.482,-1.206,7.561,-0.035325944,0.011397155,-0.045257002,10.0,6.345793,-1.174348,7.383374,0.146207,-0.031652,0.177626,-0.056,-0.3469,0.0214,2017-05-25 22:17:24,42.01913251733135
6.511,-1.196,7.571,-0.07229252,0.017575705,-0.083427876,10.0,6.342202,-1.170159,7.386666,0.159798,-0.005841,0.164334,-0.0555,-0.3468,0.0221,2017-05-25 22:17:25,44.743133017242
6.443,-1.225,7.512,-0.048817523,0.011117899,-0.028257266,10.0,6.35118,-1.151903,7.381878,0.15982,-0.015097,0.208122,-0.0546,-0.3472,0.0217,2017-05-25 22:17:26,43.96780796744246
6.453,-1.196,7.561,-0.09861244,0.024050964,-0.064246446,10.0,6.343998,-1.172553,7.384871,0.138002,-0.052447,0.186129,-0.0569,-0.3467,0.0186,2017-05-25 22:17:27,41.184401834541106
6.492,-1.196,7.531,-0.042150274,-0.002234052,-0.04569334,10.0,6.352078,-1.176144,7.377688,0.158922,-0.029856,0.193312,-0.0544,-0.3476,0.026,2017-05-25 22:17:28,39.75876453501014
6.511,-1.186,7.571,0.026930796,-0.008482415,0.047229253,10.0,6.357764,-1.164772,7.374396,0.114236,-0.051228,0.127603,-0.0556,-0.3476,0.0209,2017-05-25 22:17:29,40.34863027545196
6.541,-1.206,7.58,0.0041015795,-0.0057771183,0.01823894,10.0,6.354772,-1.156392,7.378287,0.156228,-0.039608,0.152713,-0.0538,-0.3476,0.0245,2017-05-25 22:17:30,41.58353729894203
6.472,-1.196,7.561,0.032812636,-0.012880705,0.045117375,10.0,6.355669,-1.162976,7.376491,0.146331,-0.053024,0.194509,-0.0554,-0.3475,0.0212,2017-05-25 22:17:31,42.451004414190606
6.531,-1.167,7.512,-0.03190505,-0.0021816914,-0.06325159,10.0,6.356567,-1.168064,7.375294,0.194433,-0.047936,0.155706,-0.0568,-0.3474,0.0182,2017-05-25 22:17:32,42.66067050694097
6.443,-1.196,7.551,-0.025918491,0.005864386,-0.018308753,10.0,6.346093,-1.174348,7.382477,0.233907,-0.001652,0.207523,-0.056,-0.347,0.0214,2017-05-25 22:17:33,42.27474238228002
6.609,-1.049,7.571,0.0279431,-0.0066323415,-0.013631207,9.0,6.445751,-1.080077,7.310352,0.036249,-0.056923,0.034648,-0.0492,-0.3533,0.0257,2017-05-25 22:17:34,39.048587333443244
6.551,-1.127,7.521,-0.07524217,0.024138233,-0.022951392,9.0,6.433181,-1.093844,7.319929,0.097819,-0.023156,0.133071,-0.0509,-0.3523,0.0231,2017-05-25 22:17:35,41.708582483727916
6.502,-1.147,7.463,0.002007156,0.022672135,0.049707655,9.0,6.441561,-1.097734,7.311549,0.511439,0.195734,0.464451,-0.0516,-0.3528,0.0219,2017-05-25 22:17:36,41.14388201207214
6.57,-1.167,7.512,-0.05649708,0.015847806,-0.0153591065,9.0,6.464006,-1.0708,7.295388,0.076994,-0.1152,0.176612,-0.0502,-0.3542,0.0216,2017-05-25 22:17:38,42.96809419199364
6.59,-1.117,7.453,0.0018500742,-0.0031067284,-0.0102801295,9.0,6.445152,-1.087559,7.310352,0.144848,-0.010441,0.161648,-0.0491,-0.3533,0.027,2017-05-25 22:17:39,41.38428017841083
6.609,-1.098,7.502,-0.0027227507,-0.0024434943,-0.026564272,9.0,6.440065,-1.103121,7.312147,0.149935,-0.063879,0.169853,-0.0515,-0.3528,0.023,2017-05-25 22:17:40,39.834929983319334
6.6,-1.098,7.472,0.0729383,-1.9198883E-4,0.118108034,10.0,6.452933,-1.089654,7.30287,0.156067,-0.027346,0.20913,-0.0518,-0.3534,0.0202,2017-05-25 22:17:41,40.08996289762612
6.639,-1.098,7.482,-0.013055241,-0.0060389214,0.0043284753,9.0,6.465802,-1.061522,7.295388,0.143198,-0.075478,0.137612,-0.0483,-0.3544,0.0253,2017-05-25 22:17:42,40.943873039612654
6.658,-1.049,7.414,0.019565407,2.4434942E-4,0.032795183,9.0,6.464605,-1.077683,7.29449,0.125395,-0.039317,0.18751,-0.0505,-0.3542,0.022,2017-05-25 22:17:43,40.31362144401334
6.688,-1.039,7.502,0.0924688,-0.023317916,0.051435553,9.0,6.452933,-1.088158,7.302571,0.127067,-0.038842,0.179429,-0.0515,-0.3535,0.0208,2017-05-25 22:17:44,41.159797091060284
6.56,-1.176,7.463,-0.011152806,0.0109084565,-0.07299066,9.0,6.442459,-1.074391,7.314542,0.127541,-0.003609,0.197458,-0.0502,-0.3528,0.0223,2017-05-25 22:17:45,40.97480531775947
6.58,-1.137,7.482,0.012479274,-0.0027227507,0.017488437,10.0,6.434678,-1.103121,7.316936,0.125322,-0.063879,0.126064,-0.0523,-0.3523,0.0209,2017-05-25 22:17:46,41.26321583255578
6.511,-1.137,7.365,-0.08484161,0.03579719,-0.0010472118,10.0,6.41732,-1.139932,7.326513,0.14268,-0.056068,0.185487,-0.0526,-0.3516,0.0254,2017-05-25 22:17:47,39.97264700758989
6.502,-1.186,7.463,0.03738546,-0.012339646,0.057683915,10.0,6.377217,-1.154896,7.359433,0.173783,-0.021104,0.132567,-0.0552,-0.3488,0.0207,2017-05-25 22:17:48,41.22630497460403
6.511,-1.167,7.443,-0.043598916,0.0038223232,-0.047979753,10.0,6.397269,-1.146815,7.342673,0.153731,-0.049185,0.188327,-0.0534,-0.3503,0.0242,2017-05-25 22:17:49,42.81913558419835
6.58,-1.147,7.531,-0.028501615,-0.0038223232,-0.05408849,10.0,6.391882,-1.151005,7.347462,0.188118,0.063005,0.213538,-0.053,-0.35,0.026,2017-05-25 22:17:50,40.55110282961092
6.462,-1.216,7.463,0.030421503,0.00528842,0.046251856,21.0,6.379312,-1.150107,7.357936,0.073688,-0.016893,0.124064,-0.0537,-0.3491,0.0239,2017-05-25 22:17:51,40.0061332575855
6.511,-1.196,7.521,-0.042673882,0.007243215,-0.05592111,26.0,6.369436,-1.166268,7.363622,0.141564,-0.019732,0.177378,-0.056,-0.3483,0.0201,2017-05-25 22:17:52,41.72298475895823
6.551,-1.206,7.502,-0.054210663,0.0062832707,-0.038694475,26.0,6.378115,-1.145319,7.359732,0.093885,-0.099681,0.093268,-0.0531,-0.3491,0.0249,2017-05-25 22:17:53,40.706187330672286
6.541,-1.186,7.502,-0.031608343,-0.0030369142,-0.03614626,26.0,6.393976,-1.157888,7.34387,0.147024,-0.028112,0.15813,-0.0554,-0.3499,0.0205,2017-05-25 22:17:54,41.9011953377766
6.472,-1.216,7.472,-0.010751374,-0.0038397766,-0.04599005,26.0,6.390385,-1.147115,7.349257,0.169615,0.010115,0.171743,-0.0542,-0.3497,0.022,2017-05-25 22:17:55,40.27600838583558
6.502,-1.196,7.531,-0.10294092,0.038345404,-0.10205079,27.0,6.382305,-1.150407,7.355542,0.119695,-0.035593,0.156458,-0.0528,-0.3495,0.0264,2017-05-25 22:17:56,41.655529396328376
6.629,-1.049,7.541,0.021939088,0.0037001483,0.040823806,25.0,6.42151,-1.102224,7.328308,0.14849,0.014224,0.094692,-0.0505,-0.3518,0.0254,2017-05-25 22:17:57,39.71358579669368
6.551,-1.196,7.502,0.02654682,0.007016319,0.07798237,25.0,6.444853,-1.085764,7.310352,0.164147,-0.012236,0.161648,-0.0513,-0.3529,0.0209,2017-05-25 22:17:58,41.1498454698684
6.59,-1.098,7.472,-0.041574307,9.773977E-4,-0.057195216,24.0,6.454729,-1.082472,7.302271,0.154271,-0.025528,0.169729,-0.0512,-0.3536,0.0208,2017-05-25 22:17:59,43.70579665420636
6.59,-1.098,7.404,0.015690723,-0.012758531,-0.024941094,24.0,6.457123,-1.096537,7.298381,0.171877,0.135537,0.173619,-0.0503,-0.354,0.0251,2017-05-25 22:18:00,41.135455453844415
6.58,-1.127,7.433,-0.026913343,0.0052535124,-0.006545074,24.0,6.447846,-1.098932,7.306162,0.210154,0.020932,0.224838,-0.0506,-0.3534,0.0248,2017-05-25 22:18:01,39.425435868343726
6.619,-1.068,7.423,0.008150798,-0.0032638102,-0.002600576,24.0,6.4667,-1.07918,7.292096,0.1233,-0.09682,0.179904,-0.0511,-0.3543,0.0204,2017-05-25 22:18:02,39.078519446042975
6.541,-1.186,7.394,0.024696745,0.03495942,0.10056724,24.0,6.481364,-1.06242,7.281622,0.098636,-0.04558,0.249378,-0.0469,-0.3556,0.0292,2017-05-25 22:18:03,41.96981069590282
6.59,-1.098,7.423,0.079710275,-0.016476132,0.07286849,24.0,6.458919,-1.093245,7.297184,0.219081,0.044245,0.233816,-0.051,-0.354,0.0227,2017-05-25 22:18:04,40.53127608096345
6.619,-1.108,7.453,0.0694476,-6.8068766E-4,0.0682084,24.0,6.459218,-1.081873,7.298082,0.140782,-0.035127,0.183918,-0.0502,-0.354,0.0234,2017-05-25 22:18:05,41.744971680246266
6.668,-1.039,7.482,0.07248451,-0.009564535,0.038781743,24.0,6.466401,-1.09145,7.2906,0.142599,0.00345,0.1424,-0.0492,-0.3547,0.0274,2017-05-25 22:18:06,41.909086730212444
6.6,-1.147,7.453,-0.027559124,-0.010175408,0.006126189,25.0,6.453831,-1.098632,7.300476,0.146169,-0.058368,0.191524,-0.051,-0.3537,0.0236,2017-05-25 22:18:07,43.41502561319378
6.619,-1.078,7.463,-0.020682434,0.002042063,-0.013247229,24.0,6.449342,-1.089654,7.306162,0.052658,-0.145346,0.087838,-0.0504,-0.3534,0.024,2017-05-25 22:18:08,39.94293819233526
6.521,-1.216,7.502,0.06326905,0.009861245,0.09166594,26.0,6.428692,-1.126465,7.318432,0.141308,-0.010535,0.193568,-0.0513,-0.3524,0.0268,2017-05-25 22:18:09,38.92612177492897
6.521,-1.196,7.512,0.04890479,-0.012008029,0.018483289,27.0,6.3844,-1.158188,7.351951,0.0876,-0.047812,0.091049,-0.0539,-0.3495,0.0245,2017-05-25 22:18:10,39.26421408384207
6.57,-1.176,7.482,0.022235798,-0.00914565,0.033598047,27.0,6.396371,-1.151005,7.342973,0.144629,-0.044995,0.159027,-0.0539,-0.3502,0.0234,2017-05-25 22:18:11,41.49505251354361
6.531,-1.176,7.502,0.013159961,-1.3962825E-4,0.019513046,26.0,6.393976,-1.150407,7.345067,0.098024,-0.016593,0.175933,-0.0559,-0.3497,0.018,2017-05-25 22:18:12,42.92985802495827
6.531,-1.196,7.502,0.010053233,0.01157169,0.027820926,26.0,6.397269,-1.142625,7.34387,0.172731,-0.053375,0.15813,-0.054,-0.3501,0.0221,2017-05-25 22:18:13,41.47700910181587
6.541,-1.196,7.482,-0.002740204,0.004904442,0.0102801295,27.0,6.397568,-1.154896,7.341775,0.104432,-0.041104,0.170225,-0.0524,-0.3505,0.0282,2017-05-25 22:18:14,40.05016765432249
6.551,-1.196,7.531,0.022235798,7.8540883E-4,0.028117636,26.0,6.395772,-1.145917,7.34417,0.125228,-0.030083,0.14783,-0.052,-0.3504,0.0278,2017-05-25 22:18:15,40.91640118999333
6.541,-1.137,7.521,-0.0012741077,-0.0014311895,-0.006545074,24.0,6.400561,-1.14502,7.340279,0.120439,-0.06098,0.112721,-0.0513,-0.3508,0.0295,2017-05-25 22:18:16,40.257096876822736
6.57,-1.206,7.521,-0.012252378,0.008971115,-0.00528842,30.0,6.341903,-1.156392,7.38936,0.140097,-0.059608,0.13164,-0.0541,-0.3468,0.0239,2017-05-25 22:18:17,40.98646648995146
6.531,-1.147,7.531,0.04167903,-0.007016319,0.0025831223,30.0,6.357166,-1.133348,7.379783,0.153834,-0.042652,0.240217,-0.0513,-0.3479,0.028,2017-05-25 22:18:18,41.13507828166439
6.521,-1.147,7.571,0.07674317,-0.0019722488,0.07944847,30.0,6.360159,-1.143523,7.375294,0.141841,-0.023477,0.145706,-0.0527,-0.348,0.0257,2017-05-25 22:18:19,43.52196410034714
6.443,-1.176,7.561,0.05468191,-0.014905315,0.056584343,30.0,6.333224,-1.147115,7.398338,0.138776,-0.028885,0.172662,-0.0526,-0.3464,0.0265,2017-05-25 22:18:20,41.57264840675202
6.256,-1.157,7.796,-0.0025831223,0.038799196,-0.0057422114,36.0,6.146477,-1.119581,7.55815,0.109523,-0.037419,0.18885,-0.0515,-0.3345,0.0256,2017-05-25 22:18:21,39.49485946268733
6.207,-1.137,7.776,0.005532769,-0.004799721,0.020193733,37.0,6.086922,-1.116888,7.606632,0.140078,-0.069112,0.189368,-0.0554,-0.3302,0.0143,2017-05-25 22:18:22,38.6767920636564
6.354,-1.147,7.698,0.032271575,-0.0076271924,0.058451872,33.0,6.213215,-1.067508,7.511464,0.180785,0.048508,0.117536,-0.0517,-0.3381,0.0171,2017-05-25 22:18:23,41.145560118397796
6.296,-1.176,7.639,-0.027384588,0.01823894,0.0039444976,33.0,6.220697,-1.059427,7.505777,0.114303,-0.018573,0.163223,-0.052,-0.3384,0.015,2017-05-25 22:18:24,39.617880655860034
6.315,-1.059,7.629,0.06787678,-0.017470984,0.01755825,33.0,6.210821,-1.081274,7.511464,0.134179,-0.035726,0.206536,-0.0525,-0.338,0.017,2017-05-25 22:18:25,41.09368217635229
6.384,-1.108,7.678,-0.033388603,-0.0015533642,-0.052831836,33.0,6.218303,-1.071997,7.506376,0.145697,-0.016003,0.181624,-0.0517,-0.3385,0.0178,2017-05-25 22:18:26,42.010949367993945
6.354,-1.078,7.639,-0.014032638,-6.8068766E-4,-0.0195305,33.0,6.224288,-1.073793,7.500989,0.120712,-0.043207,0.138011,-0.0488,-0.3393,0.026,2017-05-25 22:18:27,42.6226090288533
6.354,-1.117,7.649,-0.09444105,0.006545074,-0.11644995,32.0,6.246135,-1.046559,7.486624,0.156865,-0.002441,0.142376,-0.0496,-0.3403,0.0199,2017-05-25 22:18:29,40.22680773542624
6.374,-1.117,7.669,-0.04658347,0.0073304824,-0.03333624,33.0,6.239551,-1.057333,7.490514,0.114449,-0.059667,0.158486,-0.05,-0.3399,0.0204,2017-05-25 22:18:30,38.24148883071474
6.364,-1.137,7.669,-0.022811763,-0.0035430666,-0.021834366,33.0,6.237157,-1.066311,7.491113,0.156843,0.017311,0.167887,-0.0507,-0.3397,0.0197,2017-05-25 22:18:31,38.57159251849316
6.364,-1.049,7.512,-2.2689589E-4,-0.012322192,0.046304215,32.0,6.258705,-1.036084,7.477646,0.066295,-0.110916,0.181354,-0.0484,-0.3411,0.0214,2017-05-25 22:18:32,40.55076043757019
6.394,-1.088,7.571,0.12683481,-0.3033947,-0.038973734,25.0,6.850668,-1.200385,6.912917,-0.211668,-0.348615,0.324083,-0.0472,-0.3811,0.0463,2017-05-25 22:18:33,45.35083037187447
7.129,-1.235,6.894,-0.11439043,-0.007435204,0.08327079,20.0,6.80847,-1.079479,6.973968,0.22253,-0.194521,0.136032,-0.0578,-0.3755,0.0042,2017-05-25 22:18:34,43.75781698504376
6.815,-1.176,7.286,-0.0042412076,0.08400384,-0.0051138843,22.0,6.737243,-1.164173,7.029334,0.058757,-0.031827,0.197666,-0.0606,-0.3713,0.0084,2017-05-25 22:18:35,41.47848200470605
6.776,-1.167,7.296,0.02684353,5.236059E-4,0.029740816,20.0,6.616935,-1.148611,7.145153,0.179065,-0.037389,0.199847,-0.0605,-0.3633,0.0061,2017-05-25 22:18:36,63.933505897241396
6.776,-1.147,7.345,0.03209704,-0.010629199,0.04494284,18.0,6.588504,-1.084866,7.181066,0.177496,-0.013134,0.163934,-0.0569,-0.3613,0.0064,2017-05-25 22:18:37,54.638642370702264
6.707,-1.078,7.404,-0.050789773,0.016004886,-0.06785932,19.0,6.534336,-1.052544,7.235833,0.143664,-0.025456,0.168167,-0.0563,-0.3576,0.0032,2017-05-25 22:18:38,66.14860518952264
6.531,-1.206,7.512,-0.055851296,0.028868139,-0.053983767,20.0,6.423605,-1.171655,7.316337,0.127395,-0.044345,0.195663,-0.0629,-0.3507,0.0025,2017-05-25 22:18:39,67.70975707713404
6.374,-1.186,7.639,-0.0506676,-0.03164325,-0.028868139,7.0,6.18239,-1.096837,7.531814,0.19161,-0.050163,0.156186,-0.0598,-0.3352,-0.001,2017-05-25 22:18:40,65.53892518143012
6.619,-1.137,7.521,0.008011171,0.024941094,-0.027070425,9.0,6.467897,-1.10761,7.287008,0.112103,0.00961,0.184992,-0.0611,-0.3531,-0.0016,2017-05-25 22:18:41,62.79827577118753
6.757,-0.902,7.374,-0.04850336,4.014312E-4,-0.073147744,9.0,6.587008,-0.890637,7.209796,0.169992,-0.021363,0.155204,-0.0524,-0.36,-0.0095,2017-05-25 22:18:42,64.51326191948756
6.707,-0.912,7.374,-0.035378307,-0.0049917097,-0.044017803,9.0,6.566657,-0.895426,7.227453,0.150343,-0.025574,0.176547,-0.0511,-0.3589,-0.0055,2017-05-25 22:18:43,63.67049351389488
6.315,-0.961,7.904,0.22420804,-0.15207261,0.21260145,8.0,6.716593,-1.197692,7.0434,0.089407,0.138692,0.1646,-0.0419,-0.3729,0.0596,2017-05-25 22:18:44,67.1031060412514
6.09,-1.52,7.835,0.055781484,-0.03269046,0.08395148,9.0,5.909752,-1.470031,7.686239,0.150248,-0.058969,0.158761,-0.07,-0.3212,0.0274,2017-05-25 22:18:45,61.88671588167969
6.099,-1.588,7.845,0.032899905,-0.014329348,0.015446374,9.0,5.936986,-1.568791,7.645239,0.162014,-0.019209,0.150761,-0.0746,-0.3234,0.0298,2017-05-25 22:18:46,62.766390457850264
6.188,-1.471,7.776,0.10243477,-0.043040406,0.06883672,9.0,6.007614,-1.491279,7.605136,0.170386,0.001279,0.180864,-0.0715,-0.3272,0.0264,2017-05-25 22:18:47,64.81532216223619
6.345,-1.176,7.649,8.55223E-4,0.0077493675,-0.04693254,9.0,6.197354,-1.160582,7.510266,0.166646,-0.035418,0.109734,-0.0543,-0.3377,0.0241,2017-05-25 22:18:48,65.22468097701268
6.394,-1.157,7.61,0.018727638,-0.007888995,0.009006022,9.0,6.25661,-1.142625,7.463879,0.13739,-0.014375,0.146121,-0.0508,-0.3418,0.0309,2017-05-25 22:18:49,59.56222280917223
6.394,-1.108,7.58,-0.066724844,0.028222358,-0.06859237,9.0,6.322151,-1.093545,7.415397,0.130849,-0.112455,0.155603,-0.0489,-0.3456,0.0287,2017-05-25 22:18:50,59.05697745502935
6.472,-1.147,7.786,0.015289293,6.981412E-4,0.020664979,9.0,6.235362,-1.126764,7.483631,0.089638,-0.040236,0.145369,-0.0501,-0.3404,0.0304,2017-05-25 22:18:51,64.02433172358701
6.345,-1.167,7.678,-0.038938824,0.011187713,-0.041853566,9.0,6.212916,-1.123173,7.502785,0.181084,-0.023827,0.234215,-0.051,-0.3388,0.0274,2017-05-25 22:18:52,62.37774915015339
6.354,-1.147,7.659,-0.01591762,0.011501877,-0.034435816,9.0,6.200047,-1.121377,7.514157,0.144953,-0.015623,0.173843,-0.05,-0.3381,0.0299,2017-05-25 22:18:53,64.40692216291711
6.354,-1.137,7.698,0.0020944236,-0.004345929,0.004607732,9.0,6.194062,-1.110903,7.520142,0.140938,-0.036097,0.148858,-0.0498,-0.3377,0.0289,2017-05-25 22:18:54,63.85839336371092
6.276,-1.147,7.629,0.027018065,-0.008360241,0.030596038,9.0,6.177602,-1.120479,7.533011,0.098398,-0.055521,0.164989,-0.0512,-0.3365,0.0265,2017-05-25 22:18:55,52.98081107538258
6.315,-1.147,7.688,-0.012636356,-0.006981412,-0.021275854,9.0,6.179098,-1.120779,7.530916,0.165902,-0.026221,0.167084,-0.0517,-0.3366,0.0252,2017-05-25 22:18:56,50.9234960766856
6.325,-1.137,7.678,-0.035762284,0.0033336242,-0.05033598,9.0,6.187478,-1.118684,7.524931,0.147522,-0.038316,0.193069,-0.0539,-0.3367,0.0188,2017-05-25 22:18:57,61.595696382067835
6.335,-1.147,7.698,-0.011693865,0.0019024347,-0.009756523,9.0,6.191668,-1.112698,7.522537,0.133332,-0.024302,0.146463,-0.0502,-0.3375,0.0282,2017-05-25 22:18:58,51.37572508493878
6.374,-1.078,7.639,0.034540534,-0.020089014,0.053180907,9.0,6.235362,-1.051646,7.495303,0.118638,-0.046354,0.182697,-0.0494,-0.3396,0.021,2017-05-25 22:18:59,56.78988408007777
6.384,-1.088,7.688,0.07930884,-0.012967973,0.0951741,9.0,6.245238,-1.060924,7.485427,0.128762,0.021924,0.153573,-0.0474,-0.3406,0.0279,2017-05-25 22:19:00,60.62664713243761
6.394,-1.108,7.571,-0.04831137,0.006196003,-0.026826076,9.0,6.254814,-1.007952,7.484828,0.374186,-0.011048,0.458172,-0.0436,-0.3412,0.0305,2017-05-25 22:19:01,61.98437754230036
4.481,0.784,9.699,0.05033598,0.42136312,-0.004084126,33.0,3.77683,0.339675,9.043145,-0.11883,0.130325,0.508855,0.0621,-0.1871,0.2245,2017-05-25 22:19:02,63.386637901089465
2.098,1.824,10.12,0.13816214,0.26368794,0.0054629548,8.0,2.426808,1.865371,9.315783,0.093192,0.801629,0.510217,0.1036,-0.1193,0.0591,2017-05-25 22:19:03,64.00355558140573
3.971,-1.039,9.159,-0.41300288,-0.5287547,-0.03598918,25.0,3.867211,-0.422574,9.001546,0.005789,-0.469426,-0.332546,-0.0019,-0.2025,0.0968,2017-05-25 22:19:04,59.94396931732568
5.501,-1.108,8.296,0.38055676,-0.3307793,-0.3747971,39.0,5.036771,-1.612186,8.257552,0.768229,0.916186,0.156448,-0.0379,-0.2784,0.1665,2017-05-25 22:19:05,60.69426277687907
5.952,-1.068,8.08,0.052343138,-0.16821712,-0.024539663,27.0,5.776276,-1.007055,7.859818,0.136724,0.037055,0.093182,-0.0109,-0.3148,0.1304,2017-05-25 22:19:06,56.82573597374325
6.139,-0.97,7.884,-0.06007505,-0.005497862,-0.068609826,29.0,5.971702,-0.940616,7.720955,0.137298,-0.029384,0.173045,-0.007899,-0.3259,0.1242,2017-05-25 22:19:07,55.28681057653685
6.335,-0.951,7.737,-0.0746662,-0.0077842744,-0.07841871,28.0,6.163237,-0.9472,7.567727,0.141763,-0.0138,0.159273,-0.0106,-0.3376,0.1136,2017-05-25 22:19:08,60.40248422804161
6.325,-0.921,7.718,-0.019635221,-0.006091282,-0.024504757,28.0,6.173113,-0.899615,7.565931,0.151887,-0.012385,0.171069,-0.0093,-0.3378,0.1097,2017-05-25 22:19:09,61.739843801653535
6.364,-0.921,7.718,0.009477267,-0.012741077,0.015114757,28.0,6.219799,-0.894528,7.527924,0.154201,0.002528,0.150076,-0.0097,-0.3406,0.1072,2017-05-25 22:19:10,51.27938993472885
6.335,-0.902,7.708,-0.06368793,0.005131338,-0.082502834,27.0,6.197055,-0.884353,7.547975,0.156945,-0.017647,0.179025,-0.0084,-0.3392,0.1096,2017-05-25 22:19:11,62.520108932558315
6.325,-0.892,7.727,0.0140675455,-0.0019024347,0.02145039,27.0,6.200945,-0.888542,7.544384,0.134055,-0.023458,0.173616,-0.0073,-0.3395,0.1133,2017-05-25 22:19:12,64.47616640274533
6.325,-0.882,7.737,-0.02635483,0.008325334,-0.04578061,28.0,6.192266,-0.878367,7.552464,0.142734,-0.013633,0.145536,-0.0093,-0.3388,0.1062,2017-05-25 22:19:13,64.80545420400277
6.325,-0.892,7.737,-0.004852081,-0.0030543678,-0.00474736,27.0,6.193164,-0.875674,7.552464,0.151836,-0.016326,0.165536,-0.0077,-0.3388,0.1103,2017-05-25 22:19:15,52.0053494074476
6.286,-0.951,7.757,0.04494284,-0.008185705,0.05815516,28.0,6.158448,-0.896323,7.577902,0.176552,0.014323,0.149098,-0.0101,-0.3368,0.1075,2017-05-25 22:19:16,54.91810892754954
6.286,-0.951,7.747,-0.020089014,0.0032114496,-0.02190418,28.0,6.140193,-0.919068,7.590172,0.135807,-0.021932,0.185828,-0.0092,-0.3359,0.1136,2017-05-25 22:19:17,43.35463493495578
6.276,-0.931,7.786,0.026564272,0.0046600923,0.032254122,28.0,6.134207,-0.920864,7.594662,0.121793,-0.020136,0.172338,-0.01,-0.3356,0.1119,2017-05-25 22:19:18,62.576419000825474
6.266,-0.912,7.786,0.054577187,0.0017977136,0.07175146,26.0,6.144083,-0.896922,7.589574,0.131917,-0.024078,0.186426,-0.0096,-0.336,0.1092,2017-05-25 22:19:19,65.24198247406095
6.286,-0.882,7.767,-0.020193733,0.006649795,-0.034837246,28.0,6.15366,-0.86909,7.585384,0.14234,-0.02291,0.161616,-0.007,-0.3364,0.1121,2017-05-25 22:19:20,63.542630146649245
6.286,-0.892,7.776,-0.0024784012,0.0032114496,-6.981412E-5,28.0,6.150966,-0.866097,7.587778,0.135034,-0.015903,0.169222,-0.0068,-0.3362,0.1121,2017-05-25 22:19:21,68.54612836941895
6.266,-0.912,7.757,-0.025045816,0.011030631,-0.025953399,27.0,6.151266,-0.875674,7.586581,0.114734,-0.026326,0.170419,-0.0084,-0.3363,0.1093,2017-05-25 22:19:22,62.038793760127724
6.276,-0.912,7.757,0.0096518025,8.028624E-4,0.011973121,26.0,6.151565,-0.875075,7.586581,0.124435,-0.016925,0.160419,-0.0086,-0.3363,0.1085,2017-05-25 22:19:23,42.850751757253825
6.247,-0.902,7.767,-0.09107252,0.008150798,-0.11758443,28.0,6.136003,-0.8646,7.600348,0.119997,-0.0274,0.175652,-0.0076,-0.3352,0.1102,2017-05-25 22:19:24,63.651086280057925
6.276,-0.882,7.757,0.017383715,-0.00385723,0.014207173,27.0,6.138397,-0.869389,7.597954,0.127602,-0.032611,0.159046,-0.0087,-0.3354,0.1078,2017-05-25 22:19:25,61.92022920203431
6.286,-0.882,7.757,-0.009808884,7.679553E-4,0.0054629548,27.0,6.143185,-0.867294,7.593764,0.142815,-0.024706,0.163236,-0.007899,-0.3357,0.1097,2017-05-25 22:19:26,56.19749203117184
6.286,-0.892,7.786,0.0032638102,-6.1087357E-4,0.0013439218,27.0,6.1372,-0.867593,7.598552,0.1188,-0.014407,0.138448,-0.01,-0.3353,0.1039,2017-05-25 22:19:27,65.83462976251937
6.247,-0.892,7.767,-0.014713326,0.0048695346,-0.023352822,28.0,6.121937,-0.872681,7.610523,0.134063,6.81E-4,0.175477,-0.0086,-0.3344,0.1088,2017-05-25 22:19:28,66.98852384814886
6.256,-0.872,7.757,-0.020734794,0.0020595165,-0.024644384,28.0,6.116251,-0.870287,7.615311,0.130749,-0.031713,0.180689,-0.0074,-0.3341,0.1118,2017-05-25 22:19:29,64.3222037034289
6.266,-0.892,7.767,-0.043930534,0.0021816914,-0.05150537,28.0,6.121638,-0.866097,7.611421,0.144362,-0.015903,0.164579,-0.0084,-0.3344,0.1083,2017-05-25 22:19:30,60.572873185754915
6.256,-0.882,7.776,0.0034034383,-6.981412E-5,0.0069639585,27.0,6.111762,-0.866995,7.619501,0.144238,-0.025005,0.196499,-0.007,-0.3338,0.1127,2017-05-25 22:19:31,63.41367618118802
6.247,-0.902,7.727,6.283271E-4,-9.0758357E-4,0.10274893,24.0,6.172813,-0.706883,7.58688,0.142187,-0.077117,0.17012,0.001,-0.3363,0.1101,2017-05-25 22:19:32,63.28280843738056
6.178,-0.951,7.865,-0.03155598,2.6180295E-4,-0.032550834,27.0,6.033951,-0.941514,7.672173,0.154049,-0.019486,0.192827,-0.012,-0.3296,0.1112,2017-05-25 22:19:33,62.33996538831626
6.099,-1.019,7.884,-0.04475085,0.006545074,-0.050510515,28.0,5.960928,-1.006456,7.720656,0.129071,-0.032543,0.173344,-0.0169,-0.3256,0.1086,2017-05-25 22:19:34,54.9487430620568
6.178,-0.941,7.884,0.030927654,-0.008744218,0.025534514,26.0,6.008213,-0.923258,7.69432,0.159787,-0.017742,0.17068,-0.0118,-0.3279,0.1098,2017-05-25 22:19:35,48.67652327287565
6.178,-0.941,7.894,-0.011309887,-0.009808884,-0.030316781,27.0,5.972599,-0.963361,7.717663,0.146401,-0.055639,0.225337,-0.0143,-0.326,0.1092,2017-05-25 22:19:36,43.79470634711643
6.198,-0.872,7.835,-0.032760277,0.02867615,-0.03169561,25.0,6.076747,-0.795768,7.654516,0.062253,-0.125232,0.200484,-0.0021,-0.3311,0.1163,2017-05-25 22:19:37,56.173399014585655
6.207,-0.813,7.806,-0.05304128,-0.0012566542,-0.083445325,24.0,6.043827,-0.843053,7.676064,0.134173,-0.019947,0.188936,-0.006,-0.3294,0.1132,2017-05-25 22:19:38,68.64310926231276
6.129,-0.951,7.845,0.015812898,0.018849812,0.0637752,26.0,6.047717,-0.862506,7.670976,0.091283,-0.039494,0.174024,-0.0068,-0.3298,0.114,2017-05-25 22:19:39,65.09617616288088
6.325,-0.745,7.747,0.0061087357,-0.020298455,-0.0024609477,25.0,6.158448,-0.717657,7.597056,0.166552,-0.017343,0.129944,2.0E-4,-0.3356,0.1097,2017-05-25 22:19:40,57.521700514137834
6.335,-0.715,7.737,-0.030369142,-9.250371E-4,-0.043441836,24.0,6.176704,-0.707781,7.583289,0.128296,-0.017219,0.163711,0.0029,-0.3366,0.1154,2017-05-25 22:19:41,60.87187480124502
6.374,-0.49,7.708,0.040370014,-0.12662536,0.11702592,26.0,6.116251,-0.406712,7.653918,0.237749,-0.034288,-0.014918,0.0102,-0.331,0.0916,2017-05-25 22:19:42,65.47098893142373
6.099,-1.49,7.865,0.19033074,-0.02986299,-0.16366175,46.0,5.870847,-1.467038,7.716466,0.042153,0.095038,-0.047466,-0.058,-0.3212,0.0625,2017-05-25 22:19:43,65.4633843267002
5.688,-3.059,7.894,0.004014312,0.016249236,0.05161009,70.0,5.504835,-2.928689,7.568026,-0.042835,-0.013311,-0.037026,-0.1489,-0.3031,0.0304,2017-05-25 22:19:44,42.16407542328332
5.639,-3.157,7.708,-0.025325071,0.016598307,-0.027419496,75.0,5.49466,-3.069946,7.519544,0.16334,-0.097054,0.227456,-0.1592,-0.302,0.0229,2017-05-25 22:19:45,61.39527662740666
5.658,-3.167,7.776,-0.012793438,-0.025133083,-0.014608605,82.0,5.436601,-3.069348,7.562041,0.172399,-0.097652,0.174959,-0.1584,-0.2988,0.025,2017-05-25 22:19:46,65.02218141247704
5.599,-3.246,7.727,-0.0848067,0.07025046,-0.105489135,81.0,5.46563,-3.14656,7.50877,0.17337,-0.11844,0.23823,-0.1641,-0.3003,0.0208,2017-05-25 22:19:47,64.0669310027611
5.619,-2.667,8.09,0.05724758,-0.034470722,0.05473427,90.0,5.366571,-2.598591,7.784999,0.301429,-0.146409,0.354001,-0.1504,-0.2835,-0.0348,2017-05-25 22:19:48,60.75904408657246
4.942,-1.431,9.336,0.9455799,0.028693603,-0.009547081,26.0,5.367768,-0.193031,8.204282,1.251232,0.663031,1.827718,-0.007899,-0.2856,0.0078,2017-05-25 22:19:49,57.07835421451382
6.188,0.951,7.796,0.28663933,-0.4648224,-0.27950084,16.0,5.324673,0.127191,8.23361,0.618327,0.597809,-0.04561,0.0538,-0.2779,0.1598,2017-05-25 22:19:50,63.08053204584091
5.943,0.019,8.09,0.1925648,-0.16999738,0.10257439,18.0,5.910351,0.049978,7.824504,0.159649,0.038022,0.050496,0.0457,-0.3145,0.1286,2017-05-25 22:19:51,47.274014471024195
6.05,0.127,8.09,0.044139978,-0.011711319,-0.009477267,20.0,5.837926,0.040701,7.878373,0.105074,-0.0317,0.201627,0.0437,-0.3104,0.1257,2017-05-25 22:19:52,45.77113117132467
6.188,0.941,7.767,0.24509992,-0.2697094,-0.4934113,20.0,6.019885,0.949893,7.682648,0.325115,0.442107,0.211352,0.0886,-0.3168,0.1095,2017-05-25 22:19:53,64.20902332229682
6.08,0.019,7.933,-0.06368793,0.0025133083,-0.061541148,30.0,5.977089,0.021248,7.773627,0.131911,-0.021248,0.159373,0.032499,-0.3202,0.0924,2017-05-25 22:19:54,59.02186791868787
6.237,0.117,7.816,-0.029129941,-0.018867265,-0.06859237,29.0,6.107572,0.123001,7.670976,0.139428,0.023999,0.145024,0.0409,-0.3273,0.0983,2017-05-25 22:19:55,45.37084969906946
6.345,0.196,7.727,0.024731653,-0.009564535,0.022619775,28.0,6.205434,0.175074,7.590771,0.129566,-0.009074,0.127229,0.0444,-0.3331,0.0982,2017-05-25 22:19:56,60.617572958211724
6.384,0.304,7.669,-2.4434942E-4,-0.0022864125,-0.031538527,28.0,6.268581,0.25887,7.536602,0.125419,0.015129,0.151398,0.0476,-0.3368,0.0931,2017-05-25 22:19:57,47.52616387593107
6.433,0.323,7.659,0.01211275,-0.00855223,-0.004852081,26.0,6.313472,0.338478,7.495602,0.099528,0.004522,0.153398,0.0516,-0.3393,0.0912,2017-05-25 22:19:58,54.41597550456082
6.423,0.323,7.639,-0.025237804,-0.0023911337,-0.020054106,27.0,6.312275,0.332792,7.497398,0.149725,0.020208,0.180602,0.0481,-0.3397,0.0827,2017-05-25 22:19:59,60.23952545058122
6.394,0.264,7.659,-0.0022165983,-0.0027227507,0.002338773,28.0,6.273669,0.250491,7.532413,0.120331,-0.005491,0.155587,0.0408,-0.338,0.0755,2017-05-25 22:20:00,54.69695090512188
6.453,0.264,7.62,0.029356837,-0.0021991448,0.036861856,27.0,6.333224,0.258572,7.482434,0.128776,0.005428,0.146566,0.0407,-0.3417,0.0729,2017-05-25 22:20:01,60.89527442401849
6.482,0.47,7.816,0.0598307,0.14228117,-0.18523431,26.0,6.399962,0.129585,7.428565,0.121038,0.066415,0.553435,0.0362,-0.3462,0.0787,2017-05-25 22:20:02,64.2199347821498
6.296,-0.107,7.806,0.008831486,0.19509555,0.19521773,28.0,6.373925,0.044891,7.451908,0.069075,-0.044891,0.324092,0.0278,-0.3453,0.0688,2017-05-25 22:20:03,64.52985078810278
6.472,0.0,7.62,-0.026913343,-0.033004627,-0.06136661,28.0,6.3018,-0.029029,7.512661,0.1602,2.9E-5,0.165339,0.0248,-0.341,0.0726,2017-05-25 22:20:04,50.83060050824149
6.482,0.019,7.649,-0.006196003,-0.013648661,-0.035622656,28.0,6.375122,0.066737,7.450412,0.126877,-0.037737,0.120588,0.0293,-0.3453,0.0695,2017-05-25 22:20:06,44.76897405319639
6.521,0.039,7.58,-0.001117026,-0.0045902785,-0.004852081,28.0,6.381706,0.052672,7.444726,0.129293,0.015328,0.126274,0.0284,-0.3457,0.069,2017-05-25 22:20:07,58.32485261374683
6.56,0.0,7.62,-0.012793438,-0.013543939,-0.016877564,28.0,6.39667,0.071526,7.432455,0.18333,0.026474,0.157545,0.0295,-0.3466,0.0691,2017-05-25 22:20:08,43.344300412577255
6.58,0.137,7.58,0.011309887,-0.004503011,0.01734881,27.0,6.431086,0.145446,7.40163,0.138914,-0.018446,0.16937,0.033,-0.3486,0.0672,2017-05-25 22:20:09,61.40956931090677
6.56,0.127,7.541,-0.041574307,0.002007156,-0.030753119,26.0,6.443057,0.157717,7.391156,0.116943,-0.010717,0.129843,0.0367,-0.3489,0.0751,2017-05-25 22:20:10,61.16166159569321
6.58,0.176,7.512,-0.07173401,0.002338773,-0.08857667,26.0,6.432583,0.138862,7.400433,0.157417,0.037138,0.160567,0.034,-0.3485,0.071,2017-05-25 22:20:11,59.28733985624124
6.541,0.137,7.512,0.011030631,0.0062832707,0.03649533,26.0,6.448145,0.160111,7.386367,0.121855,-0.082111,0.174633,0.0352,-0.3494,0.0707,2017-05-25 22:20:12,63.92187726460553
6.541,0.176,7.512,-0.045902785,0.0022864125,-0.024330221,27.0,6.440065,0.139162,7.393849,0.139935,-0.022162,0.167151,0.0346,-0.3489,0.0722,2017-05-25 22:20:13,62.05693478015489
6.57,0.186,7.541,-0.006213457,-2.6180295E-4,0.011152806,26.0,6.45443,0.196622,7.379783,0.12557,0.008378,0.122217,0.0388,-0.3495,0.0749,2017-05-25 22:20:14,61.546887339282705
6.609,0.196,7.61,0.03698403,0.0051836986,0.031224364,26.0,6.448145,0.204403,7.38517,0.141855,0.030597,0.14583,0.0401,-0.349,0.0775,2017-05-25 22:20:15,60.85370968246338
6.58,0.215,7.541,-0.0242255,0.0011344794,-0.02570905,26.0,6.455627,0.21817,7.377688,0.124373,0.01683,0.153312,0.0391,-0.3496,0.0727,2017-05-25 22:20:16,60.14953552088784
6.56,0.225,7.482,-0.014660965,2.0944235E-4,-0.03401693,26.0,6.449941,0.227747,7.382477,0.130059,0.017253,0.119523,0.0371,-0.3495,0.0659,2017-05-25 22:20:17,61.820478061835296
6.639,0.333,7.482,0.022305612,-0.07796492,0.052866742,25.0,6.397568,0.370799,7.42228,0.182432,0.021201,0.12872,0.0509,-0.3448,0.0829,2017-05-25 22:20:18,59.02784256591251
6.717,0.725,7.355,-0.017139366,-0.03248102,-0.06714373,23.0,6.589103,0.747884,7.223862,0.147897,-0.002884,0.141138,0.0656,-0.3568,0.064,2017-05-25 22:20:19,45.60342433463098
6.727,0.774,7.345,-0.0051138843,0.00356052,-0.004677546,22.0,6.605862,0.760154,7.207102,0.141138,0.003846,0.421898,0.0677,-0.3576,0.0675,2017-05-25 22:20:20,55.55251785312756
6.815,0.902,7.276,0.018134218,0.01270617,0.052151147,21.0,6.685469,0.895725,7.11732,0.120531,-0.032724,0.14868,0.0742,-0.3627,0.0636,2017-05-25 22:20:21,60.01344686829369
6.894,1.059,7.178,-0.011135352,-0.01181604,-0.038746838,20.0,6.745324,1.016631,7.044298,0.148676,0.032368,0.114702,0.0812,-0.3663,0.0636,2017-05-25 22:20:22,54.00991409707676
6.913,1.068,7.159,0.048416093,0.0016755388,0.045361724,20.0,6.766871,1.053143,7.018261,0.156129,0.024857,0.120739,0.0813,-0.3681,0.0583,2017-05-25 22:20:23,66.50180751533046
6.923,1.117,7.149,-0.05489135,-0.0048869886,-0.078034736,20.0,6.786623,1.071099,6.996414,0.126377,0.006901,0.132586,0.0819,-0.3695,0.057,2017-05-25 22:20:24,55.99260863356765
6.923,1.137,7.139,-0.05553713,-0.006946505,-0.06510167,20.0,6.784528,1.08726,6.996115,0.138472,0.03974,0.113885,0.0815,-0.3696,0.0537,2017-05-25 22:20:25,64.23065884430828
6.953,1.147,7.149,-0.03317916,-0.0039619515,-0.040719084,20.0,6.797397,1.105815,6.980852,0.115603,0.041185,0.129148,0.0833,-0.3702,0.0556,2017-05-25 22:20:26,52.93182513195581
6.962,1.147,7.09,0.08412602,-0.0010646654,0.07906449,20.0,6.814456,1.138735,6.958705,0.138544,0.037265,0.111295,0.0875,-0.3708,0.0613,2017-05-25 22:20:27,51.635727121709756
6.943,1.157,7.1,-0.028257266,-0.0015882712,-0.036914214,20.0,6.818646,1.151903,6.952421,0.114354,0.005097,0.127579,0.0862,-0.3715,0.056,2017-05-25 22:20:28,64.40048360080874
6.972,1.216,7.08,-0.08016406,0.0035430666,-0.07836635,20.0,6.822536,1.175546,6.94434,0.139464,0.030454,0.13566,0.0875,-0.3717,0.0559,2017-05-25 22:20:29,59.3212504941737
6.992,1.255,7.061,0.011379701,-0.006300724,-0.011763679,19.0,6.845879,1.203977,6.916807,0.116121,0.041023,0.104193,0.0882,-0.3735,0.0534,2017-05-25 22:20:30,42.699431856730364
7.002,1.235,7.07,0.10411031,0.02145039,0.09581988,18.0,6.85785,1.221933,6.901844,0.11415,0.043067,0.100156,0.0898,-0.3741,0.0546,2017-05-25 22:20:31,49.84630574339688
6.992,1.225,7.051,-0.021572564,0.0042412076,-0.0072083077,20.0,6.861142,1.223729,6.898252,0.120858,0.021271,0.093748,0.0888,-0.3746,0.0519,2017-05-25 22:20:32,62.261361328064034
6.972,1.225,7.041,0.05791081,0.0030892747,0.062117115,18.0,6.859945,1.233305,6.897654,0.132055,0.021695,0.123346,0.0902,-0.3743,0.0541,2017-05-25 22:20:33,63.75586572269117
7.012,1.265,7.041,0.05058033,0.004171394,0.05326817,19.0,6.869223,1.246174,6.885982,0.122777,0.008826,0.116018,0.0939,-0.3742,0.0613,2017-05-25 22:20:34,64.73911059263669
7.031,1.225,7.061,-0.044785757,-0.031433806,-0.065607816,19.0,6.877602,1.271014,6.873712,0.143398,0.012986,0.108288,0.0924,-0.3754,0.054,2017-05-25 22:20:35,61.47575502198045
7.012,1.284,6.992,-0.0496902,-0.012077843,-0.044192336,19.0,6.87431,1.262634,6.877902,0.12769,0.031366,0.114098,0.0934,-0.3749,0.0577,2017-05-25 22:20:36,63.1694494075234
7.021,1.323,6.982,-0.043546557,-0.0060389214,-0.04637403,19.0,6.896157,1.302737,6.848573,0.144843,0.020263,0.123427,0.092,-0.3772,0.0483,2017-05-25 22:20:37,65.36250861751064
7.031,1.353,6.982,-0.062221833,-0.004380836,-0.059010386,18.0,6.902442,1.329671,6.836901,0.128557,0.042329,0.096099,0.0965,-0.3768,0.0557,2017-05-25 22:20:38,59.24189910385488
7.031,1.382,6.923,-0.06571254,-0.014643512,-0.07011083,18.0,6.906033,1.33835,6.831814,0.134967,0.00465,0.140186,0.0963,-0.3773,0.0539,2017-05-25 22:20:39,60.75261438220865
7.051,1.353,6.972,0.07878523,0.017436076,0.06866219,18.0,6.901544,1.349723,6.833908,0.129456,0.022277,0.109092,0.0975,-0.3768,0.0553,2017-05-25 22:20:40,60.73076992902176
7.041,1.382,6.943,-0.088995546,-0.017872415,-0.08571429,18.0,6.905136,1.342241,6.832113,0.145864,0.039759,0.149887,0.0943,-0.3778,0.0485,2017-05-25 22:20:41,59.20435065841825
7.051,1.372,6.953,0.06936033,0.014451522,0.078610696,18.0,6.909924,1.363489,6.823135,0.141076,0.028511,0.148865,0.0953,-0.3781,0.0478,2017-05-25 22:20:42,45.36706118221233
7.051,1.382,6.982,-0.034941968,-0.0067196093,-0.036425516,18.0,6.909625,1.366781,6.822835,0.131375,0.025219,0.120165,0.0966,-0.3778,0.0506,2017-05-25 22:20:43,49.66335734945424
7.041,1.382,6.962,0.023248103,0.009529627,0.031573437,18.0,6.907829,1.361694,6.82523,0.133171,0.020306,0.14677,0.0956,-0.3779,0.0489,2017-05-25 22:20:44,52.85686386908931
7.041,1.402,6.953,0.03742037,0.004276115,0.03687931,18.0,6.910822,1.369774,6.820441,0.140178,0.032226,0.122559,0.0975,-0.3777,0.0525,2017-05-25 22:20:45,64.95774867788907
7.051,1.451,6.933,-0.02654682,-5.759665E-4,-0.03129418,18.0,6.922793,1.399701,6.802784,0.157207,0.012299,0.159216,0.098,-0.3788,0.0494,2017-05-25 22:20:46,47.78660883230043
7.061,1.5,6.953,-0.04633912,0.027070425,-0.06637578,18.0,6.894062,1.402096,6.830916,0.166938,0.038904,0.102084,0.0966,-0.3772,0.046,2017-05-25 22:20:47,49.58401688169434
6.904,1.402,6.776,0.12535125,0.032795183,0.13868575,18.0,6.919201,1.430527,6.799791,0.219799,0.030473,0.280209,0.0961,-0.3795,0.0408,2017-05-25 22:20:48,42.37378380081747
7.08,1.5,6.933,-0.113500305,-0.016092155,-0.09854263,17.0,6.926384,1.456264,6.786923,0.114616,0.014736,0.146077,0.0986,-0.3797,0.043,2017-05-25 22:20:49,62.8546777829395
7.07,1.49,6.904,0.04043983,0.0028274718,0.03035169,17.0,6.924289,1.467636,6.786623,0.145711,0.042364,0.146377,0.1004,-0.3793,0.0459,2017-05-25 22:20:50,54.796716842382615
7.07,1.51,6.884,-0.1547779,-0.033877302,-0.15067632,17.0,6.932968,1.475717,6.776448,0.128032,0.024283,0.117552,0.1014,-0.3797,0.0471,2017-05-25 22:20:51,60.41790456106925
7.051,1.51,6.884,-0.037210926,-0.011379701,-0.040474735,17.0,6.931172,1.483199,6.776448,0.148828,0.045801,0.136552,0.1002,-0.38,0.0433,2017-05-25 22:20:52,59.134357099419546
7.07,1.529,6.884,-0.01666812,-0.006196003,-0.020699887,17.0,6.938056,1.499958,6.765375,0.141944,0.029042,0.128625,0.1019,-0.3803,0.045,2017-05-25 22:20:54,67.60438473432207
7.07,1.52,6.874,-0.076219566,-0.01785496,-0.08143817,17.0,6.947034,1.506841,6.754302,0.122966,0.052159,0.119698,0.1048,-0.3802,0.0509,2017-05-25 22:20:55,60.54892756665544
7.061,1.539,6.884,0.07693516,0.018902173,0.08267737,17.0,6.938654,1.508338,6.763579,0.131346,0.050662,0.110421,0.1018,-0.3804,0.0435,2017-05-25 22:20:56,54.4774985021476
7.061,1.52,6.904,-0.12852779,-0.030578585,-0.13186142,17.0,6.926683,1.514323,6.773754,0.153317,0.034677,0.130246,0.1033,-0.3793,0.0466,2017-05-25 22:20:57,52.35929345817929
7.08,1.578,6.864,0.009372545,0.0015533642,0.012008029,17.0,6.940151,1.525097,6.757893,0.159849,0.033903,0.155107,0.1061,-0.3796,0.0517,2017-05-25 22:20:58,44.034908358626346
7.07,1.559,6.845,0.07944847,0.00741775,0.08119382,16.0,6.943742,1.539761,6.750411,0.136258,0.048239,0.113589,0.108,-0.3796,0.0543,2017-05-25 22:20:59,54.30723204794102
7.061,1.559,6.894,-0.036809497,-0.01057684,-0.031870145,17.0,6.931771,1.539163,6.763579,0.129228,0.038837,0.110421,0.1069,-0.379,0.0518,2017-05-25 22:21:00,60.47935469994875
7.061,1.588,6.884,0.10411031,0.016633214,0.08681386,16.0,6.929676,1.554725,6.761484,0.150324,0.033275,0.132516,0.1048,-0.3797,0.0446,2017-05-25 22:21:01,54.601460997454375
7.08,1.598,6.864,-0.0021642377,0.005009163,0.0016406318,17.0,6.935661,1.553229,6.756097,0.154339,0.024771,0.127903,0.1066,-0.3796,0.0491,2017-05-25 22:21:02,62.54609682212916
6.894,1.52,7.1,-0.09768741,1.0472118E-4,-0.102330044,18.0,6.795901,1.472724,6.914413,0.127099,0.007276,0.165587,0.1004,-0.3706,0.0473,2017-05-25 22:21:03,60.64330495410201
6.884,1.471,7.07,-0.048171744,-0.0069115977,-0.04113797,18.0,6.760586,1.446388,6.954216,0.123414,0.014612,0.145784,0.098,-0.3684,0.0455,2017-05-25 22:21:04,63.28028572669017
6.904,1.48,7.08,0.011205167,0.0040666726,0.0109084565,18.0,6.762382,1.461352,6.949428,0.121618,0.018648,0.130572,0.0979,-0.3688,0.0431,2017-05-25 22:21:05,51.96277217301634
6.894,1.5,7.07,-0.042708788,-0.009075835,-0.063077055,18.0,6.75909,1.482301,6.947932,0.12491,0.037699,0.122068,0.0958,-0.3695,0.035,2017-05-25 22:21:06,63.09387786907236
6.894,1.51,7.08,-0.063548304,-0.01300288,-0.05014399,18.0,6.7549,1.479607,6.95272,0.1391,0.020393,0.13728,0.1007,-0.3678,0.0476,2017-05-25 22:21:07,47.710185349819234
6.874,1.49,7.09,0.07309538,0.015394013,0.07340955,18.0,6.751309,1.465542,6.959005,0.112691,0.005458,0.120995,0.0997,-0.3677,0.0472,2017-05-25 22:21:08,44.38086993055123
6.884,1.49,7.08,0.067422986,0.015306746,0.06951741,18.0,6.745324,1.464344,6.96499,0.138676,0.035656,0.12501,0.1,-0.3672,0.0481,2017-05-25 22:21:09,51.85023688432891
6.894,1.52,7.09,0.026511911,-0.0042935684,0.007819181,18.0,6.742032,1.46614,6.968581,0.121968,0.04386,0.131419,0.1019,-0.3664,0.0529,2017-05-25 22:21:10,54.96416316089836
6.874,1.5,7.11,0.011170259,0.0064752595,0.010018326,18.0,6.739637,1.470031,6.969479,0.124363,0.039969,0.159521,0.1003,-0.3668,0.0482,2017-05-25 22:21:11,63.34010538769836
6.855,1.471,7.119,-0.020368269,4.014312E-4,-0.0059865606,18.0,6.729761,1.463746,6.980852,0.134239,0.016254,0.138148,0.1011,-0.3658,0.0512,2017-05-25 22:21:12,57.81829714370658
6.864,1.5,7.149,0.02516799,0.0034557988,0.025377432,18.0,6.727966,1.47033,6.980552,0.127033,0.02967,0.138448,0.1024,-0.3654,0.0536,2017-05-25 22:21:13,44.4175155547019
6.845,1.5,7.119,0.0015882712,-1.9198883E-4,0.01888472,18.0,6.727966,1.471527,6.980552,0.127033,0.018473,0.138448,0.0991,-0.3663,0.0451,2017-05-25 22:21:14,55.55615895780014
6.835,1.5,7.1,0.06778951,0.0102801295,0.070425,18.0,6.722878,1.470629,6.985341,0.132122,0.039371,0.133659,0.1007,-0.3656,0.0494,2017-05-25 22:21:15,47.79186543590376
6.855,1.52,7.139,-0.1050528,-0.022829218,-0.12042936,18.0,6.714498,1.467337,6.994618,0.120502,0.022663,0.134382,0.099,-0.3654,0.0457,2017-05-25 22:21:16,44.62029899636011
6.825,1.471,7.11,-6.6323415E-4,-0.014346802,-0.01157169,18.0,6.716593,1.484695,6.988633,0.147407,0.015305,0.130366,0.1001,-0.3655,0.0461,2017-05-25 22:21:17,53.82172802369283
6.835,1.5,7.1,-0.011606597,-0.004380836,-0.0034732525,18.0,6.71779,1.487089,6.986837,0.14621,0.012911,0.152163,0.1014,-0.3652,0.0491,2017-05-25 22:21:18,49.11347313545413
6.835,1.52,7.149,0.043738548,0.0047299066,0.043790907,18.0,6.71809,1.497863,6.984742,0.13691,0.002137,0.154258,0.1022,-0.3652,0.0494,2017-05-25 22:21:19,51.53490285641469
6.815,1.51,7.1,0.022357972,0.0056549436,0.04661838,18.0,6.704922,1.498462,6.997312,0.140078,0.001538,0.141688,0.103,-0.3641,0.0517,2017-05-25 22:21:20,46.06210026364268
6.874,1.588,7.07,-0.0044331965,-0.0032812636,0.001710446,18.0,6.724973,1.543951,6.967684,0.130027,0.015049,0.151316,0.1033,-0.3661,0.0455,2017-05-25 22:21:21,61.4508331142627
6.835,1.529,7.11,-0.09489484,-0.008482415,-0.07571341,18.0,6.728265,1.545747,6.963793,0.155735,0.023253,0.155207,0.1046,-0.3659,0.0486,2017-05-25 22:21:22,64.49631374129939
6.845,1.569,7.11,0.031852692,0.0070686797,0.03920063,18.0,6.716893,1.540659,6.976063,0.128107,0.028341,0.142937,0.1029,-0.3656,0.0453,2017-05-25 22:21:23,57.867596763843785
6.864,1.578,7.159,0.010541932,0.0055851294,0.01696483,18.0,6.718389,1.538864,6.975166,0.106611,0.020136,0.124834,0.1047,-0.3651,0.0501,2017-05-25 22:21:24,59.99184359637962
6.835,1.578,7.1,0.05241295,0.010646653,0.0712104,18.0,6.719586,1.539163,6.974268,0.144414,-0.010163,0.135732,0.105,-0.3651,0.0508,2017-05-25 22:21:25,42.83003903571376
6.855,1.578,7.11,0.013107601,0.004520464,0.022933938,18.0,6.720185,1.547842,6.971574,0.124815,0.011158,0.128426,0.1051,-0.3653,0.0498,2017-05-25 22:21:26,62.279885074279306
6.835,1.578,7.09,-0.077336594,-0.013631207,-0.072903395,18.0,6.714498,1.542156,6.978458,0.120502,0.006844,0.140542,0.1033,-0.3653,0.0459,2017-05-25 22:21:27,48.46052795104814
6.845,1.588,7.119,0.043110218,0.011484423,0.051103935,18.0,6.714498,1.555024,6.975465,0.120502,0.022976,0.114535,0.1063,-0.3647,0.0519,2017-05-25 22:21:28,44.34348635460629
6.845,1.627,7.1,0.0140675455,-0.0013439218,0.025831224,17.0,6.720783,1.564601,6.967684,0.134217,0.023399,0.142316,0.106,-0.3653,0.0497,2017-05-25 22:21:29,50.39249242435829
6.864,1.618,7.1,0.008744218,-0.005375687,-0.008883847,18.0,6.717192,1.569988,6.969779,0.127808,0.038012,0.149221,0.1065,-0.365,0.0501,2017-05-25 22:21:30,43.45675331956687
6.855,1.608,7.11,0.004503011,0.004084126,0.017174274,17.0,6.720783,1.568791,6.966187,0.124217,0.019209,0.152813,0.1057,-0.3655,0.0483,2017-05-25 22:21:31,58.56739774211634
6.864,1.598,7.119,-6.457806E-4,-0.006614888,-0.008430055,17.0,6.715396,1.577769,6.969479,0.129604,0.030231,0.149521,0.1077,-0.3647,0.0523,2017-05-25 22:21:32,47.10834446004144
6.913,1.794,7.012,0.05384414,-4.188847E-4,0.0069639585,16.0,6.765076,1.765713,6.875807,0.118924,0.058287,0.096193,0.1182,-0.368,0.0511,2017-05-25 22:21:33,62.02998620914009
6.904,1.873,6.962,0.050213806,-0.0042063007,0.035675015,16.0,6.777346,1.829458,6.846777,0.116654,0.043542,0.145223,0.1189,-0.3697,0.0437,2017-05-25 22:21:34,59.2106858640559
6.904,1.873,6.962,0.14526573,0.02991535,0.1500829,16.0,6.773156,1.834546,6.84977,0.120844,0.038454,0.12223,0.1231,-0.3681,0.0537,2017-05-25 22:21:35,42.462671909760196
6.894,1.941,6.972,-0.02333537,-9.773977E-4,-0.045553714,15.0,6.765674,1.860582,6.84977,0.108326,0.012418,0.14223,0.1233,-0.3681,0.0506,2017-05-25 22:21:36,45.65941016166526
6.874,1.922,6.992,0.10688542,0.03762981,0.10845623,16.0,6.760586,1.868962,6.852164,0.133414,0.053038,0.129835,0.1263,-0.3669,0.057,2017-05-25 22:21:37,42.82330598679295
6.874,1.912,6.972,-0.03199232,-0.006161096,-0.025639236,15.0,6.762681,1.885422,6.846179,0.111319,0.026578,0.115821,0.1258,-0.3675,0.0534,2017-05-25 22:21:38,61.5489898408288
6.874,1.931,6.972,-0.037682172,-0.009006022,-0.036006633,15.0,6.759389,1.87794,6.851266,0.134611,0.05306,0.130734,0.1263,-0.367,0.0557,2017-05-25 22:21:40,60.95610654586438
6.904,1.922,6.972,-0.07416005,-0.022148529,-0.07717951,15.0,6.7552,1.88213,6.854858,0.1288,0.03987,0.147142,0.126,-0.3668,0.0545,2017-05-25 22:21:41,54.5646479043954
6.864,1.892,7.002,-0.015882712,0.0016580854,-0.016144516,15.0,6.744725,1.879736,6.865332,0.119275,0.032264,0.116668,0.1237,-0.3669,0.0492,2017-05-25 22:21:42,53.25163731260807
6.864,1.922,6.972,-0.015062396,-0.007278122,-0.020193733,16.0,6.747418,1.886021,6.861442,0.136582,0.064979,0.120558,0.1242,-0.367,0.0495,2017-05-25 22:21:43,55.07743293241363
6.864,1.922,7.002,0.010960816,0.009459813,0.011117899,16.0,6.739637,1.893503,6.86623,0.115363,0.028497,0.13577,0.1239,-0.3667,0.0479,2017-05-25 22:21:44,56.75684461927442
6.864,1.922,7.021,-0.021240946,-0.0030543678,-0.019862117,16.0,6.740236,1.896196,6.865332,0.123764,0.054804,0.136668,0.129099,-0.365,0.0606,2017-05-25 22:21:45,48.126347341909785
6.884,1.981,6.943,-0.08025133,-0.037612356,-0.09583733,15.0,6.757893,1.934204,6.8375,0.136107,0.026796,0.1245,0.1268,-0.3677,0.0491,2017-05-25 22:21:46,54.366032466897245
6.874,1.981,6.972,-0.06981412,-0.017278995,-0.075364344,15.0,6.756397,1.937496,6.838098,0.107603,0.043504,0.084902,0.1293,-0.3669,0.0548,2017-05-25 22:21:47,47.2093455295143
6.855,1.892,7.012,-0.021624923,0.01666812,-0.0022515054,16.0,6.733951,1.903079,6.868923,0.111049,0.027921,0.143077,0.125,-0.3662,0.0493,2017-05-25 22:21:48,46.3642095829272
6.629,1.451,7.374,0.040649273,0.010472118,0.036669865,19.0,6.496627,1.42484,7.205905,0.142373,0.03616,0.129095,0.0979,-0.3507,0.0524,2017-05-25 22:21:49,65.35474968658656
6.58,1.333,7.404,0.0242255,0.006353085,0.03525613,20.0,6.445452,1.303635,7.274439,0.114548,0.010365,0.129561,0.0901,-0.3477,0.0505,2017-05-25 22:21:50,61.11541941272931
6.59,1.372,7.394,0.015114757,0.0019373419,0.024365127,20.0,6.468196,1.367081,7.242417,0.121804,0.034919,0.112583,0.0933,-0.3492,0.0493,2017-05-25 22:21:51,59.489634904642486
6.629,1.471,7.365,-0.008534776,0.005480408,-0.007313029,19.0,6.497226,1.434118,7.203511,0.111774,0.036882,0.112489,0.0975,-0.3509,0.05,2017-05-25 22:21:52,68.2441451401065
6.609,1.451,7.345,0.014573698,0.0048346277,0.013945371,20.0,6.494532,1.432921,7.205905,0.124468,0.047079,0.168095,0.0989,-0.3504,0.0539,2017-05-25 22:21:53,61.33615189015416
6.619,1.471,7.325,-0.010786282,-0.004311022,-0.017820055,19.0,6.498722,1.442497,7.200219,0.101278,0.047503,0.105781,0.099,-0.3507,0.0527,2017-05-25 22:21:54,61.898772569243064
6.6,1.461,7.306,0.022986298,0.013159961,0.036163714,19.0,6.500817,1.46225,7.194533,0.118183,0.00875,0.121467,0.096,-0.352,0.0419,2017-05-25 22:21:55,59.70837174544749
6.609,1.48,7.325,-0.039287895,-0.003717602,-0.028414346,19.0,6.500219,1.448782,7.197526,0.108781,0.022218,0.147474,0.0994,-0.3508,0.0529,2017-05-25 22:21:56,57.154446507823536
6.619,1.5,7.316,-0.0057422114,-0.0035430666,-0.015830351,19.0,6.494832,1.4413,7.20381,0.124168,0.0297,0.15119,0.0999,-0.3502,0.0553,2017-05-25 22:21:57,62.565838596543145
6.609,1.49,7.296,-0.02160747,-0.002303866,-0.019774849,19.0,6.508897,1.46225,7.18735,0.110103,0.04775,0.09865,0.1005,-0.3513,0.0536,2017-05-25 22:21:58,50.27633632578902
6.629,1.5,7.286,6.8068766E-4,-0.007086133,-0.0160747,19.0,6.508598,1.453571,7.188847,0.130402,0.046429,0.127152,0.0976,-0.3519,0.0474,2017-05-25 22:21:59,65.51850386584051
6.639,1.471,7.325,0.043424383,0.012269831,0.05829479,19.0,6.510095,1.458359,7.186453,0.128905,0.012641,0.158547,0.1008,-0.3512,0.055,2017-05-25 22:22:00,62.487016616856494
6.639,1.48,7.335,-0.09438869,-0.018605463,-0.09681473,19.0,6.506503,1.467038,7.188248,0.122497,0.022962,0.136752,0.102,-0.3507,0.057,2017-05-25 22:22:01,56.90721780751518
6.649,1.51,7.325,0.074090235,0.015114757,0.07899468,19.0,6.516978,1.483199,7.175379,0.122022,0.016801,0.110621,0.1007,-0.3521,0.0509,2017-05-25 22:22:02,64.27949181277268
6.639,1.51,7.266,-0.057282485,-0.016423771,-0.062256742,19.0,6.521168,1.486191,7.17089,0.127831,0.023809,0.10511,0.1029,-0.3518,0.0562,2017-05-25 22:22:03,64.89891760007593
6.619,1.5,7.286,-0.018902173,-0.010105594,-0.020211188,19.0,6.512489,1.468534,7.182861,0.116511,0.031466,0.133139,0.1,-0.3517,0.0514,2017-05-25 22:22:04,62.32117799878186
6.629,1.5,7.316,0.075922854,0.017436076,0.082572654,19.0,6.515482,1.478111,7.178073,0.123518,0.041889,0.127927,0.1002,-0.352,0.0505,2017-05-25 22:22:05,44.82100503117539
6.629,1.5,7.306,-0.024452396,-0.011117899,-0.035622656,19.0,6.519971,1.484695,7.172387,0.119029,0.035305,0.123613,0.0995,-0.3526,0.0476,2017-05-25 22:22:06,46.56945204351156
6.649,1.51,7.286,1.0472118E-4,-0.006457806,-0.0018849813,19.0,6.516379,1.49068,7.174182,0.132621,0.05832,0.131818,0.0988,-0.3527,0.0449,2017-05-25 22:22:07,62.97207507774595
6.639,1.549,7.276,-0.011676411,3.1416354E-4,6.283271E-4,19.0,6.510095,1.480804,7.181963,0.108905,0.029196,0.143037,0.1,-0.3518,0.0497,2017-05-25 22:22:08,49.171594456072185
6.649,1.5,7.325,-0.025063269,0.004520464,-0.009756523,19.0,6.525358,1.49906,7.164606,0.123642,-0.01906,0.180394,0.1014,-0.3526,0.0505,2017-05-25 22:22:09,65.04700441475033
6.629,1.529,7.296,0.066236146,0.008988568,0.057771184,19.0,6.522365,1.503549,7.166401,0.116635,0.045451,0.119599,0.1028,-0.3521,0.0535,2017-05-25 22:22:10,65.14027944777239
6.639,1.51,7.316,-0.040178027,-0.0012392006,-0.029479012,19.0,6.507401,1.484994,7.183759,0.121599,0.005006,0.122241,0.1012,-0.3513,0.0523,2017-05-25 22:22:11,62.153997356558826
6.629,1.51,7.335,-0.0056200367,-0.0032812636,-0.0021816914,19.0,6.505605,1.467337,7.188847,0.123395,0.032662,0.107153,0.0995,-0.3514,0.0502,2017-05-25 22:22:12,62.1412096957794
6.639,1.51,7.325,-0.03909591,-0.007243215,-0.040998343,19.0,6.508299,1.480206,7.183759,0.110701,0.039794,0.122241,0.0985,-0.3521,0.0458,2017-05-25 22:22:13,57.79110156389058
6.629,1.52,7.335,0.0623091,0.014660965,0.063548304,19.0,6.515482,1.486491,7.175679,0.133518,0.033509,0.149321,0.1017,-0.3517,0.0532,2017-05-25 22:22:14,62.00502020847278
6.629,1.52,7.306,-0.04054455,-0.013037787,-0.050807226,19.0,6.502313,1.467936,7.192139,0.116687,0.022064,0.123861,0.1,-0.3511,0.0516,2017-05-25 22:22:15,61.537585214572594
6.609,1.51,7.316,-0.019495593,-0.00178026,-0.02452221,19.0,6.502313,1.475418,7.190642,0.126687,0.014582,0.134358,0.1015,-0.3507,0.0546,2017-05-25 22:22:16,58.931509603635575
6.629,1.52,7.325,-0.03050877,-0.0037699626,-0.038031243,19.0,6.504408,1.481403,7.187051,0.124592,0.038597,0.128949,0.1033,-0.3504,0.0583,2017-05-25 22:22:17,43.594977901725855
6.639,1.549,7.306,0.033109345,0.002740204,0.026930796,19.0,6.51219,1.494571,7.177474,0.13681,0.064429,0.128526,0.103,-0.3512,0.0556,2017-05-25 22:22:18,65.195050226806
6.619,1.5,7.286,-0.0707217,-0.015376559,-0.07128022,19.0,6.51189,1.496367,7.177175,0.11711,0.062633,0.138825,0.1013,-0.3518,0.0506,2017-05-25 22:22:19,66.07446730783349
6.609,1.48,7.316,0.054315384,-3.490706E-5,0.045606073,19.0,6.498722,1.46614,7.19573,0.110278,0.01386,0.12027,0.1019,-0.3503,0.0569,2017-05-25 22:22:20,60.5878134826539
6.649,1.52,7.306,-0.0058120256,3.6652412E-4,8.028624E-4,19.0,6.522664,1.503849,7.165803,0.106336,0.016151,0.110197,0.1029,-0.3521,0.0538,2017-05-25 22:22:21,66.50042795830737
6.649,1.529,7.286,0.020909328,0.017174274,0.03050877,19.0,6.530146,1.502951,7.159518,0.118854,0.007049,0.156482,0.1026,-0.3527,0.0529,2017-05-25 22:22:22,55.82951075694697
6.668,1.578,7.276,0.060947727,0.011501877,0.052046426,19.0,6.543015,1.531382,7.141562,0.114985,0.046618,0.124438,0.104,-0.3535,0.0523,2017-05-25 22:22:23,40.50592385198471
6.688,1.608,7.237,0.056287635,-0.009250371,0.021415481,19.0,6.53673,1.518513,7.149941,0.12127,0.069487,0.116059,0.1026,-0.3533,0.0505,2017-05-25 22:22:24,58.017642589949354
6.678,1.559,7.276,0.024016058,0.012165111,0.033545684,18.0,6.556781,1.542754,7.126299,0.111219,0.006246,0.139701,0.1031,-0.3549,0.048,2017-05-25 22:22:25,63.38569054110408
6.678,1.598,7.266,-0.0032812636,-0.005759665,-0.016179422,18.0,6.551394,1.544849,7.131087,0.106606,0.004151,0.134913,0.1067,-0.3535,0.0573,2017-05-25 22:22:26,65.34256752891471
6.658,1.539,7.266,0.04777031,0.004014312,0.035221223,18.0,6.550197,1.553528,7.130189,0.127803,0.005472,0.145811,0.1047,-0.3542,0.0506,2017-05-25 22:22:28,65.69708746002021
6.658,1.549,7.266,0.014957675,0.0019373419,0.02853652,18.0,6.548402,1.555623,7.131686,0.139598,0.052377,0.105314,0.104,-0.3543,0.0486,2017-05-25 22:22:29,64.19207307490524
6.688,1.608,7.257,0.05710795,0.015411467,0.071332574,18.0,6.553489,1.564302,7.124503,0.104511,0.013698,0.141497,0.1043,-0.3547,0.0481,2017-05-25 22:22:30,51.89004712211664
6.678,1.627,7.247,-0.031468716,-0.008430055,-0.03970678,18.0,6.555883,1.582857,7.118517,0.122117,0.025143,0.157483,0.1026,-0.3556,0.0409,2017-05-25 22:22:31,63.668665130022156
6.688,1.618,7.247,0.019163975,0.011746226,0.029758269,18.0,6.549,1.582857,7.125102,0.119,0.025143,0.131898,0.1039,-0.3548,0.0443,2017-05-25 22:22:32,66.86874904689572
6.668,1.608,7.217,0.04113797,0.0065276204,0.05101667,18.0,6.554387,1.599616,7.115824,0.103613,0.027384,0.111176,0.1031,-0.3556,0.0398,2017-05-25 22:22:33,64.47616264798535
6.678,1.627,7.217,-0.053163454,-0.0073479363,-0.05696832,18.0,6.552591,1.603207,7.11732,0.135409,0.033793,0.14868,0.1047,-0.3551,0.0436,2017-05-25 22:22:34,66.48308676603875
6.668,1.618,7.266,0.02017628,0.008272973,0.034191467,18.0,6.543912,1.590339,7.128094,0.095088,0.017661,0.137906,0.1042,-0.3545,0.0441,2017-05-25 22:22:35,53.81453941249867
6.668,1.598,7.266,-0.057090495,-0.019984292,-0.06892399,18.0,6.550796,1.59393,7.120612,0.127204,0.03307,0.116388,0.1062,-0.3544,0.0489,2017-05-25 22:22:36,63.15452198893017
6.668,1.647,7.227,-0.061192077,-0.0118858535,-0.06635832,18.0,6.553489,1.605003,7.115824,0.114511,0.012997,0.111176,0.1053,-0.355,0.0447,2017-05-25 22:22:37,60.951915397810495
6.668,1.637,7.217,0.0370713,0.007313029,0.040562004,18.0,6.557978,1.615478,7.10924,0.130022,0.041522,0.14776,0.1044,-0.3558,0.0408,2017-05-25 22:22:38,64.40621057037114
6.668,1.627,7.276,0.05379178,0.0052186055,0.044663582,18.0,6.550497,1.600813,7.119415,0.127502,0.036187,0.097585,0.1046,-0.355,0.0435,2017-05-25 22:22:39,62.01319523819304
6.217,0.49,8.159,0.14777903,0.07969282,0.39134306,28.0,5.974395,0.66708,7.747291,0.203605,-0.02008,0.313709,0.0646,-0.3174,0.0848,2017-05-25 22:22:40,66.47087991003036
6.472,0.372,7.59,-0.12727115,-0.06534602,-0.77169037,35.0,6.292523,-0.029628,7.520442,0.571477,0.323628,0.530558,0.0355,-0.3395,0.1022,2017-05-25 22:22:41,61.21151828628384
5.913,-0.176,7.992,0.08686622,0.08218867,-0.1381796,40.0,5.886409,-0.286105,7.837672,0.026591,0.277105,0.321328,0.0107,-0.3166,0.0781,2017-05-25 22:22:42,61.30996744725981
6.168,-0.362,7.904,-0.097163804,0.09346365,0.15716904,36.0,6.17012,-0.250191,7.617107,0.08588,-0.170808,0.119893,0.0153,-0.3337,0.0814,2017-05-25 22:22:43,67.53547931528962
6.08,-0.274,7.943,-0.048189197,-0.0014311895,-0.058120254,36.0,5.94776,-0.263061,7.791583,0.15124,-9.39E-4,0.151417,0.0166,-0.32,0.091,2017-05-25 22:22:44,52.94027496979992
6.119,-0.264,7.963,-0.020036653,-5.9342E-4,-0.0068243304,36.0,5.994147,-0.242411,7.756868,0.114853,-0.011589,0.206132,0.0165,-0.3228,0.0867,2017-05-25 22:22:45,60.83014528613031
6.345,-0.235,7.737,0.008814032,-0.06175059,-0.029950257,34.0,6.132412,-0.256776,7.647334,0.182588,0.021776,0.168666,0.0162,-0.3313,0.0854,2017-05-25 22:22:46,61.71353676506553
6.786,-0.245,7.345,0.061576054,-0.0015359106,0.07779038,30.0,6.63968,-0.24271,7.211891,0.14632,-0.031289,0.172109,0.018,-0.3632,0.0802,2017-05-25 22:22:47,66.15886445354819
6.835,-0.225,7.316,0.01726154,-0.003752509,0.026127934,30.0,6.675294,-0.222659,7.179569,0.130706,-0.022341,0.136431,0.0194,-0.3654,0.0805,2017-05-25 22:22:48,56.576218091810404
6.874,-0.235,7.276,0.004939349,0.00385723,0.0160747,30.0,6.702228,-0.221761,7.15443,0.142772,0.025761,0.12157,0.0178,-0.3672,0.0759,2017-05-25 22:22:49,51.77554826695911
6.864,-0.215,7.306,-0.013421765,0.0019198883,-0.005864386,30.0,6.712104,-0.207396,7.145751,0.151896,-0.027604,0.179249,0.0196,-0.3677,0.0782,2017-05-25 22:22:50,47.988108021874574
6.864,-0.215,7.296,0.028309627,-0.012060389,0.022305612,29.0,6.727666,-0.19752,7.131386,0.136334,-0.01748,0.144614,0.0215,-0.3686,0.0814,2017-05-25 22:22:51,60.789982116289494
6.894,-0.196,7.276,-0.043337114,0.002042063,-0.044192336,29.0,6.744426,-0.18914,7.116423,0.149574,-0.03586,0.140577,0.0214,-0.3697,0.0798,2017-05-25 22:22:52,64.09753156198039
6.511,-0.912,7.423,0.11329086,5.58513E-4,0.19017366,35.0,6.332326,-0.693416,7.4552,0.482674,-0.325584,0.6648,0.0075,-0.3461,0.1224,2017-05-25 22:22:53,61.07749747075634
5.943,-2.794,7.257,-0.16825204,-0.092102274,0.038432673,48.0,5.917234,-2.248142,7.489617,0.289766,-0.192858,0.247383,-0.047,-0.3404,0.2101,2017-05-25 22:22:54,66.7047020810003
5.472,-3.079,7.806,-0.045815516,0.082485385,0.025447248,53.0,5.685596,-2.602781,7.553362,-0.007596,-0.191219,0.222638,-0.0707,-0.3314,0.2043,2017-05-25 22:22:55,63.159485814244334
6.07,-0.804,8.022,0.2355703,0.09355092,-0.17973645,52.0,5.99714,-1.159385,7.670976,0.17086,0.551385,0.311024,-0.0385,-0.3276,0.0696,2017-05-25 22:22:56,62.878115568422714
5.423,-0.931,8.335,-0.001151933,0.0017628066,-0.0017628066,60.0,5.334549,-0.909192,8.177347,0.127451,-0.021808,0.265653,-0.0268,-0.2868,0.0721,2017-05-25 22:22:57,64.49145249158576
5.452,-0.892,8.335,0.0195305,0.008220613,9.773977E-4,60.0,5.328563,-0.915776,8.180938,0.094437,-0.025224,0.213062,-0.0276,-0.2865,0.0707,2017-05-25 22:22:58,64.09527667969768
5.246,-1.922,7.973,-0.13739419,-0.027681299,0.30934638,63.0,5.209752,-1.558017,8.159989,0.007248,-0.323983,-0.128989,-0.0446,-0.2862,0.1296,2017-05-25 22:22:59,51.03561321288363
5.58,-1.922,8.139,-0.016772842,0.038380314,0.008639498,60.0,5.480594,-1.88213,7.910994,0.089406,-0.09887,0.209006,-0.0497,-0.3068,0.1608,2017-05-25 22:23:00,39.33315284265412
5.56,-2.392,7.894,0.46286762,-0.35912383,0.2195305,34.0,5.440192,-2.821549,7.655115,0.198808,0.487549,-0.026115,-0.0653,-0.3246,0.2605,2017-05-25 22:23:01,66.44361475165043
7.335,0.431,7.316,0.14704598,-0.13798761,-0.08651715,24.0,6.809967,0.211885,7.052378,0.427033,0.307115,0.115622,0.0507,-0.3712,0.0968,2017-05-25 22:23:02,66.80963296208553
7.316,-1.657,6.776,-0.06066847,-0.064647876,-0.09217209,30.0,7.008684,-1.66785,6.652549,0.238316,-0.06715,0.123451,-0.0201,-0.4004,0.1671,2017-05-25 22:23:03,64.99065932074897
7.747,-2.363,6.119,-0.0023562266,0.021973994,-0.03131163,28.0,7.563238,-2.28585,5.807401,0.163762,-0.02815,0.174599,-0.0445,-0.4493,0.1725,2017-05-25 22:23:04,63.67781030962209
7.061,-3.02,6.148,-0.098193556,0.117462255,-0.28854176,30.0,7.005991,-3.238437,6.048016,0.074009,0.149437,0.099984,-0.0785,-0.4306,0.2246,2017-05-25 22:23:05,65.39148245545388
6.962,-0.49,7.208,-0.28475434,0.004555371,0.17142858,26.0,6.991925,-0.089782,6.87461,-0.019925,-0.498218,0.24439,0.0237,-0.3858,0.0685,2017-05-25 22:23:06,66.2847396490706
7.09,-0.323,7.119,0.04187102,-0.01621433,0.015446374,27.0,6.899749,-0.335186,6.960202,0.180251,0.051186,0.158798,0.0103,-0.3807,0.07,2017-05-25 22:23:07,51.108797020262884
7.11,-0.284,7.1,-0.015882712,0.002111877,-0.024330221,26.0,6.94853,-0.276528,6.913814,0.16147,0.012528,0.127186,0.0148,-0.3837,0.0724,2017-05-25 22:23:08,44.472137459690586
7.061,-0.264,7.149,-0.07278122,-5.759665E-4,-0.06171568,26.0,6.900347,-0.248097,6.962895,0.160653,-0.035903,0.137105,0.0153,-0.3804,0.0704,2017-05-25 22:23:09,42.44686736922914
5.766,0.196,8.08,0.3765599,0.010611746,0.37559995,36.0,6.196456,-0.474049,7.585384,-0.508456,0.523049,0.387616,0.0051,-0.3364,0.0861,2017-05-25 22:23:10,60.55040693850106
7.129,0.029,7.031,0.064333715,-0.010803735,0.08072258,24.0,6.996115,0.084694,6.870719,0.171885,-0.006694,0.101281,0.0262,-0.3859,0.0513,2017-05-25 22:23:11,60.16659924161282
7.188,0.107,6.953,0.01898944,0.0024958549,0.014660965,24.0,7.035319,0.105044,6.830018,0.142681,0.021956,0.131982,0.0292,-0.3884,0.0554,2017-05-25 22:23:12,58.910678853068354
7.129,0.166,7.021,0.035971723,-0.0075922855,0.034488175,24.0,6.972771,0.159213,6.892865,0.146229,-0.003213,0.119135,0.0326,-0.384,0.0571,2017-05-25 22:23:13,64.37074869866404
6.992,0.166,6.962,-2.792565E-4,0.02314338,0.012636356,24.0,6.926384,0.168191,6.939552,0.163616,0.027809,0.228448,0.0317,-0.3809,0.0543,2017-05-25 22:23:15,64.22679073379469
7.08,0.264,7.306,-0.10416266,0.054926258,-0.11357012,24.0,6.902442,0.194527,6.962297,0.079558,-0.057527,0.088703,0.0347,-0.3791,0.0584,2017-05-25 22:23:16,65.37738480406779
7.031,0.235,7.119,-0.021712191,-0.0043284753,-0.025429793,24.0,6.887478,0.201411,6.976961,0.153522,0.043589,0.191039,0.0353,-0.3781,0.059,2017-05-25 22:23:17,62.27129780073952
7.021,0.284,7.139,0.23621607,1.2217471E-4,0.24134742,24.0,6.868923,0.261563,6.99372,0.172077,0.022436,0.23328,0.0361,-0.3769,0.0532,2017-05-25 22:23:18,55.719231580329975
7.012,0.284,7.159,0.10767083,0.00504407,0.10257439,24.0,6.85785,0.282514,7.003596,0.15415,0.011486,0.135404,0.0406,-0.3758,0.0615,2017-05-25 22:23:19,64.14554856743885
7.012,0.323,7.119,-0.06639323,-0.0038746838,-0.07953574,24.0,6.857252,0.285506,7.004195,0.154748,-0.001506,0.124805,0.0397,-0.3758,0.0589,2017-05-25 22:23:20,61.353439981636335
7.002,0.304,7.188,-0.04148704,0.007243215,-0.039532244,24.0,6.836003,0.292689,7.024845,0.165997,0.011311,0.153155,0.0398,-0.3744,0.0584,2017-05-25 22:23:21,62.52193826767329
6.972,0.313,7.031,-0.04756087,-0.011117899,-0.039427523,24.0,6.85396,0.31274,7.005991,0.15804,-0.00874,0.241009,0.0407,-0.3756,0.0578,2017-05-25 22:23:22,62.23167207014755
7.11,0.343,7.041,0.040020943,-0.048625536,0.026511911,23.0,6.924588,0.335485,6.935063,0.175412,0.017515,0.125937,0.0426,-0.3802,0.0582,2017-05-25 22:23:23,63.969456351911646
7.139,0.333,7.041,-0.006318178,5.58513E-4,-0.008796579,23.0,6.983545,0.331594,6.875507,0.145455,0.021406,0.145493,0.0405,-0.3843,0.0531,2017-05-25 22:23:24,55.201692535858356
7.11,0.353,7.031,-0.0019373419,0.015708176,0.0069639585,24.0,6.947932,0.330397,6.912019,0.152068,0.002603,0.118981,0.043,-0.3817,0.0596,2017-05-25 22:23:25,42.664615566471994
7.119,0.372,7.031,-0.011606597,-0.013945371,-0.02160747,24.0,6.957808,0.347157,6.901245,0.161192,0.034843,0.168755,0.0442,-0.3822,0.0602,2017-05-25 22:23:26,65.31632945575902
7.59,1.196,6.217,0.107950084,-0.12257614,-0.10067196,24.0,7.019757,0.484523,6.829719,0.531243,0.456477,-0.004719,0.0509,-0.3861,0.0573,2017-05-25 22:23:27,60.925512546823406
7.021,0.402,7.335,0.5022428,-0.46538094,-0.30297583,31.0,6.277858,-0.474946,7.517748,0.626142,0.640946,-0.162748,0.0043,-0.3415,0.0827,2017-05-25 22:23:28,61.471712251777895
6.962,0.264,7.198,0.07175146,0.0034383454,0.063234136,26.0,6.825529,0.267849,7.035918,0.136471,0.016151,0.142082,0.0479,-0.3727,0.082,2017-05-25 22:23:29,46.96003448507565
6.992,0.156,7.316,-0.11739244,0.024679292,0.006091282,26.0,6.85785,0.273835,7.004195,0.20315,-0.048835,0.369805,0.0492,-0.3747,0.0839,2017-05-25 22:23:30,58.358563180212144
6.894,-0.353,7.237,0.119120345,-0.2506327,-0.09292259,33.0,6.460116,-0.458486,7.362725,0.394884,0.125486,0.011275,-0.0145,-0.3526,0.0276,2017-05-25 22:23:31,58.13045467511173
7.776,-0.343,6.394,0.12816127,0.001448643,-0.08238066,20.0,7.534508,-0.594357,6.247931,0.192492,0.143357,0.048069,-0.0133,-0.4257,0.0428,2017-05-25 22:23:32,62.74306975225001
7.384,-0.402,6.815,-0.099153504,0.032166857,-0.08159525,27.0,7.205307,-0.44472,6.636089,0.188693,-0.01528,0.178911,-0.0122,-0.4018,0.0285,2017-05-25 22:23:33,60.8466187524629
7.414,-0.274,6.658,-6.457806E-4,-0.014678419,0.004852081,26.0,7.262767,-0.261563,6.583716,0.180233,-0.002436,0.153284,-0.0035,-0.4053,0.0248,2017-05-25 22:23:34,65.01905163341473
7.414,-0.225,6.727,-0.013683568,9.773977E-4,-0.028990313,26.0,7.254088,-0.223557,6.59449,0.149912,-0.021443,0.18151,-0.0011,-0.4046,0.0255,2017-05-25 22:23:35,62.1396904341585
7.365,-0.245,6.757,-0.027820926,8.55223E-4,0.0014835501,25.0,7.215183,-0.209491,6.636987,0.149817,-0.025509,0.120013,0.0015,-0.4019,0.0302,2017-05-25 22:23:36,62.714164403365075
7.472,-0.029,7.119,-0.05429793,0.15093812,-0.116031066,23.0,7.292096,-0.103847,6.554986,0.268904,0.064847,0.525014,0.0059,-0.407,0.0263,2017-05-25 22:23:37,55.46121054158882
7.306,-0.049,6.855,0.0514181,-0.013631207,0.042429533,24.0,7.158919,-0.023941,6.701031,0.176081,0.004941,0.123969,0.0144,-0.3976,0.0364,2017-05-25 22:23:38,44.09472135627658
7.306,0.0,6.757,0.04693254,-0.009529627,0.04232481,24.0,7.176277,-0.005386,6.683075,0.178723,-0.003614,0.249925,0.0171,-0.3986,0.04,2017-05-25 22:23:39,61.39645426003153
7.306,0.019,6.845,0.029252116,-2.6180295E-4,0.038903918,24.0,7.152036,0.031422,6.708513,0.143964,-0.002423,0.136487,0.0184,-0.3969,0.0385,2017-05-25 22:23:40,62.97709820011179
7.365,0.127,6.874,0.06572999,-0.012793438,0.03968933,23.0,7.150839,0.066438,6.70971,0.135161,0.011562,0.04729,0.0197,-0.3968,0.0371,2017-05-25 22:23:41,63.14534792514557
7.296,0.137,6.815,0.0049917097,-5.9342E-4,-0.016720481,23.0,7.137671,0.109534,6.722878,0.178329,0.027466,0.230122,0.0227,-0.3958,0.0386,2017-05-25 22:23:42,57.89040976440393
7.296,0.107,6.923,0.12650318,-0.00385723,0.12864996,23.0,7.127196,0.128088,6.73425,0.138804,0.018911,0.07175,0.0205,-0.3952,0.031,2017-05-25 22:23:43,62.333264662122254
7.247,0.274,6.874,0.028152544,0.012985426,0.016580854,22.0,7.103554,0.214878,6.756696,0.133446,-0.009878,0.137304,0.0293,-0.3932,0.0405,2017-05-25 22:23:44,65.20914718240896
7.296,0.353,6.953,0.11383192,0.005305873,0.07129767,22.0,7.091284,0.273835,6.76717,0.145716,-0.019835,0.18583,0.0302,-0.3924,0.0351,2017-05-25 22:23:45,62.858603733412615
7.217,0.304,7.012,0.04290078,-0.016685575,0.046949994,22.0,7.075123,0.310346,6.782433,0.092877,-0.036346,-0.006433,0.0354,-0.391,0.0428,2017-05-25 22:23:46,58.24846582251222
7.188,0.392,6.943,-0.018675277,-0.0016580854,-0.026791168,22.0,7.045195,0.368106,6.811164,0.152805,-0.015106,0.121836,0.04,-0.3887,0.0463,2017-05-25 22:23:47,63.7861967368617
7.178,0.421,6.923,-0.02145039,0.019460686,-0.040911075,22.0,7.030531,0.440829,6.821339,0.177469,0.019171,0.180661,0.0463,-0.3873,0.0519,2017-05-25 22:23:48,61.13943297498034
7.188,0.49,6.992,-0.027541671,-0.0059865606,-0.02516799,21.0,7.038911,0.462377,6.811463,0.149089,-0.002377,0.111537,0.0464,-0.3879,0.0491,2017-05-25 22:23:49,63.99214420162277
7.198,0.46,6.972,0.0160747,-0.0016231783,0.023422638,22.0,7.042203,0.447713,6.809368,0.155797,0.032287,0.113632,0.0456,-0.3882,0.0492,2017-05-25 22:23:50,61.000398526954065
7.188,0.5,6.982,-0.013962824,0.010315036,-0.010175408,21.0,7.046692,0.470457,6.803383,0.161308,-0.019457,0.129617,0.0482,-0.3883,0.0524,2017-05-25 22:23:51,63.86985673263893
7.139,0.421,6.874,0.09868226,0.002862379,0.09924077,21.0,7.06824,0.471654,6.780339,0.16876,0.008346,0.191661,0.0477,-0.3898,0.0507,2017-05-25 22:23:52,67.9886660014345
7.159,0.49,6.884,-0.006091282,0.010733921,-0.016720481,21.0,7.061955,0.487516,6.786324,0.126045,0.012484,0.058676,0.05,-0.3891,0.0542,2017-05-25 22:23:53,65.3810216285456
7.217,0.48,6.943,-0.1676237,-0.01418972,-0.18612444,21.0,7.053874,0.491706,6.794404,0.134126,-0.021706,0.040596,0.0465,-0.389,0.0454,2017-05-25 22:23:54,58.074960743993415
7.198,0.509,6.874,0.102085695,-0.005201152,0.08784362,21.0,7.065845,0.51475,6.77974,0.151155,0.02425,0.13326,0.049,-0.3897,0.0481,2017-05-25 22:23:55,53.59838992855476
7.237,0.568,6.845,0.019478139,0.0018500742,0.0118858535,20.0,7.106547,0.53929,6.735148,0.120453,0.01871,0.050852,0.0523,-0.3922,0.0522,2017-05-25 22:23:56,60.27241266150871
7.188,0.666,6.972,0.024016058,0.012426914,0.0044855573,20.0,7.036816,0.608422,6.802185,0.141184,0.028578,0.189815,0.0567,-0.3872,0.0544,2017-05-25 22:23:57,62.33507428356711
7.168,0.657,6.943,0.03703639,7.679553E-4,0.022916485,20.0,7.021852,0.619496,6.81685,0.156148,0.017504,0.15515,0.0581,-0.386,0.0566,2017-05-25 22:23:58,57.54412789048377
7.188,0.686,6.992,-0.024504757,0.0062832707,-0.029339384,20.0,7.007487,0.630269,6.830616,0.151513,0.006731,0.161384,0.0578,-0.3851,0.0545,2017-05-25 22:23:59,64.0463698857822
7.168,0.666,6.923,0.038973734,-0.0069988654,0.031049829,21.0,7.020356,0.632065,6.81685,0.138644,-0.024065,0.15515,0.0598,-0.3857,0.0589,2017-05-25 22:24:00,61.38468746273301
7.159,0.637,6.982,-0.0087093115,-0.011973121,-0.0016231783,20.0,7.02275,0.623087,6.815054,0.16525,0.013913,0.146946,0.0571,-0.3862,0.0537,2017-05-25 22:24:02,65.88526119135074
7.168,0.657,6.923,-0.0076271924,0.0024085871,-0.009704162,20.0,7.029334,0.631766,6.807872,0.158666,-0.014766,0.135128,0.0581,-0.3866,0.0549,2017-05-25 22:24:03,60.81439944522276
7.119,0.627,6.825,-0.02907758,0.0016406318,-0.022567414,20.0,7.037115,0.636255,6.800091,0.121885,0.010745,0.181909,0.0562,-0.3874,0.0497,2017-05-25 22:24:04,49.87194262708683
7.178,0.657,6.913,0.029095035,0.0039095907,0.030788027,20.0,7.025443,0.629671,6.811762,0.162557,0.017329,0.160238,0.0588,-0.3862,0.0568,2017-05-25 22:24:05,50.51092035565937
7.198,0.647,6.943,-0.021345668,-0.001745353,-0.013980278,20.0,7.0434,0.636255,6.793507,0.1646,0.020745,0.168493,0.0585,-0.3875,0.055,2017-05-25 22:24:06,60.5459862914735
7.178,0.676,6.913,-0.01507985,0.00267039,0.006894144,20.0,7.049685,0.645233,6.785426,0.148315,-0.047233,0.167574,0.0608,-0.3876,0.0591,2017-05-25 22:24:07,64.25335945649528
7.178,0.637,6.894,-0.012793438,0.0035081594,-0.0064752595,20.0,7.048787,0.639846,6.787521,0.168213,0.036154,0.233479,0.0593,-0.3878,0.0563,2017-05-25 22:24:08,67.33763897034548
7.149,0.617,6.776,-0.09300986,-0.007505018,-0.08494633,20.0,7.052079,0.641342,6.783331,0.213921,0.064658,0.306669,0.0587,-0.3881,0.0547,2017-05-25 22:24:09,65.99949318422885
7.208,0.666,6.874,-0.04880007,-0.006213457,-0.051191203,20.0,7.060758,0.647328,6.773754,0.137242,0.018672,0.188246,0.0613,-0.3883,0.0598,2017-05-25 22:24:10,61.05269548211655
7.198,0.666,6.904,-0.023230648,0.002862379,-0.022829218,20.0,7.053575,0.651219,6.780937,0.154425,0.014781,0.162063,0.0595,-0.3881,0.0552,2017-05-25 22:24:11,59.03523189546374
7.198,0.666,6.992,0.048520815,0.016929924,0.041923378,20.0,7.052079,0.653313,6.782733,0.164921,0.003687,0.179267,0.0596,-0.388,0.0551,2017-05-25 22:24:12,45.413406316055614
7.198,0.657,7.002,-0.16331267,0.01888472,-0.15037961,20.0,7.023049,0.663489,6.811164,0.046951,-0.026489,-0.133164,0.059,-0.3862,0.0529,2017-05-25 22:24:13,56.98326746059517
7.237,0.637,6.835,0.06171568,0.0160747,0.053477615,20.0,7.106547,0.643138,6.726769,0.120453,-0.016138,0.079231,0.0591,-0.3918,0.0546,2017-05-25 22:24:14,58.01018047804716
7.257,0.657,6.845,-0.0059342002,0.0051836986,-0.0055153156,20.0,7.111933,0.656007,6.719586,0.154067,0.029993,0.135414,0.0589,-0.3923,0.0523,2017-05-25 22:24:15,57.339056364674875
7.306,0.657,6.835,-0.039183173,-0.049114235,-0.023562266,20.0,7.118517,0.653014,6.712703,0.059483,-0.055014,-0.181703,0.06,-0.3925,0.0553,2017-05-25 22:24:16,63.58653771636544
7.266,0.637,6.776,0.04028275,0.0075224712,0.013351951,20.0,7.114627,0.652416,6.716893,0.171373,0.062583,0.196107,0.0586,-0.3925,0.0521,2017-05-25 22:24:17,63.060233659825364
7.257,0.686,6.904,-0.08271228,-0.0036303343,-0.088838466,20.0,7.117021,0.651817,6.714199,0.178979,0.034183,0.130801,0.0567,-0.3929,0.0477,2017-05-25 22:24:18,55.72970964317973
7.247,0.666,6.845,0.051121388,8.028624E-4,0.04483812,20.0,7.122109,0.661394,6.707914,0.153891,-0.014394,0.186086,0.0592,-0.393,0.0523,2017-05-25 22:24:19,50.22844165949504
7.227,0.647,6.747,0.0010297582,-0.011030631,0.0056025833,20.0,7.116423,0.649722,6.715396,0.130577,-0.002722,0.119604,0.0566,-0.3929,0.0478,2017-05-25 22:24:20,62.63286227912283
7.296,0.686,6.766,0.0016755388,-0.009023475,0.037682172,20.0,7.127496,0.663788,6.701929,0.099504,-0.085788,0.005071,0.06,-0.3932,0.0537,2017-05-25 22:24:21,65.90266394823263
6.09,-0.657,7.806,0.13475871,0.1782878,0.05176717,35.0,6.379611,-0.32112,7.439937,-0.034611,-0.07088,0.336063,0.0129,-0.347,0.0821,2017-05-25 22:24:22,60.126490729919254
5.599,-1.745,8.188,-0.058329698,0.042830963,0.13463654,34.0,5.497054,-1.574477,7.96606,0.033946,-0.170523,0.26194,-0.0047,-0.3062,0.2477,2017-05-25 22:24:23,60.40890068508603
6.178,-0.539,7.767,-0.14990836,-0.0028798324,-0.02803037,45.0,5.916037,-0.549765,7.800861,0.075963,0.040765,-0.190861,-0.0139,-0.3194,0.0463,2017-05-25 22:24:24,59.348766315276805
6.6,-0.637,7.512,0.06951741,-0.049847282,0.112453096,34.0,6.400561,-0.565327,7.407316,0.189439,0.007327,0.163684,-0.0068,-0.3496,0.0642,2017-05-25 22:24:25,59.297136711608466
6.717,-0.843,7.453,-0.08452745,0.016633214,-0.07129767,33.0,6.551694,-0.789483,7.252891,0.175306,-0.023517,0.210109,-0.0134,-0.3605,0.0769,2017-05-25 22:24:26,64.61290491076932
6.825,-0.784,7.276,0.0558862,-0.026581727,0.013875556,33.0,6.650753,-0.821206,7.159219,0.184247,0.027206,0.205781,-0.0143,-0.367,0.0779,2017-05-25 22:24:27,61.10616704096175
6.835,-0.735,7.296,-0.024784012,-0.033737674,0.0012042936,33.0,6.648658,-0.728431,7.17089,0.206342,-0.026569,0.14511,-0.0114,-0.3663,0.0724,2017-05-25 22:24:28,57.03780761083447
6.855,-0.549,7.247,0.008814032,-0.014521337,-1.9198883E-4,30.0,6.705221,-0.526421,7.135576,0.168779,0.036421,0.160424,9.0E-4,-0.3689,0.0751,2017-05-25 22:24:29,63.34971515431535
6.874,-0.558,7.306,-0.019739943,1.2217471E-4,-0.013631207,30.0,6.728265,-0.524027,7.114328,0.155735,-0.033973,0.181672,9.0E-4,-0.3704,0.0744,2017-05-25 22:24:30,59.63558541973063
6.884,-0.568,7.325,0.024714198,-0.006684702,0.023754254,30.0,6.707316,-0.550064,7.132284,0.186684,0.001064,0.183716,-5.0E-4,-0.3692,0.0746,2017-05-25 22:24:31,60.21355710583941
6.874,-0.47,7.296,0.11156297,-0.010105594,0.11798586,30.0,6.713301,-0.50607,7.130189,0.150699,0.046071,0.106811,0.0023,-0.3693,0.0756,2017-05-25 22:24:32,57.6893979774548
6.874,-0.509,7.296,-0.022584869,-0.0019547953,0.0035081594,30.0,6.717192,-0.466268,7.128693,0.166808,-0.013732,0.137307,0.0065,-0.3694,0.0809,2017-05-25 22:24:33,54.07416755669972
6.894,-0.49,7.306,-0.0014660965,0.008656951,0.021869274,29.0,6.719586,-0.490509,7.124802,0.144414,-0.028491,0.171198,0.0035,-0.3697,0.0764,2017-05-25 22:24:34,58.346204025972696
6.855,-0.5,7.316,0.041068155,-0.004503011,0.040509645,30.0,6.699834,-0.506669,7.142759,0.155166,-0.002331,0.123241,0.0042,-0.3684,0.0808,2017-05-25 22:24:35,45.32442025498196
6.864,-0.519,7.266,-0.04653111,0.00949472,-0.049515665,30.0,6.711206,-0.516845,7.131087,0.162794,-0.012155,0.134913,0.0041,-0.3692,0.0817,2017-05-25 22:24:36,62.42621216348987
6.884,-0.49,7.306,0.03035169,0.0016929924,0.019513046,30.0,6.72198,-0.490509,7.122707,0.15202,-0.009491,0.163293,0.0032,-0.3698,0.0757,2017-05-25 22:24:37,63.91655058384099
6.884,-0.529,7.276,-0.011606597,0.005236059,0.025848677,30.0,6.723477,-0.500085,7.120313,0.170523,-0.038915,0.195687,0.0034,-0.37,0.0775,2017-05-25 22:24:38,62.97706404559639
6.894,-0.568,7.257,-0.01562091,-0.0076621,-0.010035779,30.0,6.727068,-0.543779,7.114028,0.146932,-0.044221,0.151972,0.0015,-0.3704,0.0786,2017-05-25 22:24:39,62.39464293068524
6.207,-2.412,6.923,0.1700323,-0.4635483,0.5355441,27.0,6.379911,-1.365285,7.320527,0.259089,-0.301715,-0.250527,0.002,-0.3559,0.2007,2017-05-25 22:24:40,60.754655966177815
7.031,-0.764,7.571,-0.0064752595,-0.075364344,-0.08046077,26.0,6.979355,-0.585678,6.863237,0.002645,0.223678,-0.420237,-0.005,-0.3873,0.064999,2017-05-25 22:24:41,63.107091735663005
7.266,-0.902,6.953,-0.075364344,-0.085504845,-0.014748232,25.0,7.014969,-0.802651,6.804879,0.202031,-0.069349,0.059121,-0.0177,-0.3907,0.0629,2017-05-25 22:24:42,67.70297855755334
7.355,-1.019,6.796,-0.03633825,0.020089014,-0.02921721,24.0,7.196927,-0.985507,6.586709,0.158073,-0.024493,0.140291,-0.026,-0.4042,0.0656,2017-05-25 22:24:43,55.56518268449512
7.198,-0.794,6.874,0.0014311895,0.026267562,-0.020158827,25.0,7.046692,-0.817315,6.769864,0.170308,-0.005685,0.192136,-0.0172,-0.393,0.0657,2017-05-25 22:24:44,54.3452025664165
7.394,-0.715,6.894,0.030194607,-0.049969457,-0.0031067284,22.0,7.147248,-0.670971,6.680381,0.207752,0.151971,-0.080381,-0.0078,-0.3991,0.0678,2017-05-25 22:24:45,54.430178902380355
7.217,-0.411,6.953,-0.03471507,0.012967973,-0.05106903,22.0,7.044896,-0.421676,6.808171,0.172104,0.010676,0.173829,0.0054,-0.3909,0.0679,2017-05-25 22:24:46,60.54855512418919
7.208,-0.343,7.051,-0.020891875,0.006056375,-0.01507985,22.0,7.015567,-0.326507,6.843485,0.162433,-0.016493,0.128515,0.0099,-0.3885,0.0663,2017-05-25 22:24:47,54.60428269006569
7.178,-0.323,6.972,-0.030072432,0.01211275,-0.048730254,22.0,7.005691,-0.315134,6.85396,0.162309,0.002134,0.18704,0.0112,-0.3877,0.0682,2017-05-25 22:24:48,61.13411667095838
7.188,-0.284,6.992,0.008360241,-0.0022515054,0.0024434943,22.0,7.017962,-0.290295,6.843186,0.160038,-0.013705,0.177814,0.0143,-0.3884,0.0719,2017-05-25 22:24:50,61.4932154271579
7.159,-0.264,7.08,0.07002356,0.0010821188,0.067283355,22.0,6.994918,-0.265754,6.867427,0.134082,-0.028246,0.114573,0.0155,-0.3867,0.0719,2017-05-25 22:24:51,60.07330771695008
7.129,-0.294,7.012,-0.07272886,0.0016755388,-0.055397503,22.0,6.983844,-0.264557,6.8785,0.194156,5.57E-4,0.2215,0.0161,-0.386,0.0734,2017-05-25 22:24:52,58.81207682264271
7.178,-0.304,7.012,-0.005236059,0.0021293308,0.007836635,22.0,6.99402,-0.275331,6.867726,0.19398,0.001331,0.193274,0.013,-0.3868,0.0672,2017-05-25 22:24:53,61.333776307286946
7.266,-0.392,6.874,-0.06499694,-0.011746226,-0.043092765,22.0,7.098765,-0.357033,6.7552,0.177235,-0.024967,0.1778,0.011,-0.3942,0.0718,2017-05-25 22:24:54,63.11989762230236
7.247,-0.421,6.796,-0.002740204,-0.002234052,-0.00178026,22.0,7.108641,-0.377383,6.743827,0.207359,-0.004617,0.218173,0.009,-0.395,0.0696,2017-05-25 22:24:55,60.738602026491584
7.257,-0.431,6.855,-0.008569683,-0.013212322,-0.0012566542,22.0,7.11343,-0.380077,6.739039,0.19257,0.047077,0.222961,0.0088,-0.3953,0.0695,2017-05-25 22:24:56,66.27350976428359
6.541,-0.215,8.1,0.22885068,0.014870408,0.030962562,28.0,6.352976,-0.027832,7.469865,0.100024,-0.168168,0.552135,0.0232,-0.3443,0.0672,2017-05-25 22:24:57,68.95833640987976
6.443,-0.098,7.639,-0.016249236,-0.015533642,-0.016319051,28.0,6.294917,-0.106242,7.517748,0.158083,0.008242,0.200252,0.0188,-0.341,0.0678,2017-05-25 22:24:58,68.56632990685345
6.59,-0.245,7.521,-0.026965704,-0.011973121,-0.0047648135,27.0,6.448145,-0.233134,7.383973,0.141855,-0.011866,0.177027,0.0104,-0.3512,0.0615,2017-05-25 22:24:59,65.50326411751827
6.394,-0.166,7.718,0.027524216,0.014154813,0.023474997,28.0,6.28564,-0.173578,7.524332,0.12736,-0.002422,0.183668,0.0145,-0.3407,0.066,2017-05-25 22:25:00,64.55893505600623
6.472,-0.117,7.639,-0.025988307,-0.01923379,-0.015690723,26.0,6.325742,-0.129884,7.492011,0.195258,-0.017116,0.254989,0.0137,-0.3432,0.0569,2017-05-25 22:25:01,55.762931423367654
6.678,0.186,7.453,-0.022235798,0.031782877,-0.025726503,23.0,6.566657,0.162505,7.281023,0.131343,-0.006505,0.181977,0.033,-0.3572,0.062799,2017-05-25 22:25:02,66.50342500452679
6.757,0.147,7.453,-0.054961167,0.0014137359,-0.037123658,22.0,6.596884,0.177768,7.25349,0.150116,-0.021768,0.17951,0.0372,-0.3588,0.0711,2017-05-25 22:25:03,64.00690748055774
6.707,0.186,7.404,-0.02921721,0.014591151,-0.026494458,22.0,6.571745,0.186148,7.275636,0.145255,-1.48E-4,0.206364,0.0346,-0.3575,0.063699,2017-05-25 22:25:04,66.76043515190696
6.531,0.186,7.639,-0.0373331,0.007609739,-0.03766472,24.0,6.407145,0.182556,7.421083,0.103855,-0.016556,0.080917,0.0343,-0.347,0.0655,2017-05-25 22:25:05,62.2193957293695
6.482,0.284,7.61,0.15479536,0.03392966,-0.012217471,24.0,6.434079,0.186746,7.398039,0.272921,0.352254,0.319961,0.0338,-0.3487,0.063199,2017-05-25 22:25:06,54.019056338280095
6.325,0.284,7.737,-0.016336504,0.021939088,-2.9671E-4,24.0,6.222493,0.298674,7.573114,0.102507,-0.004674,0.193886,0.0386,-0.3352,0.062799,2017-05-25 22:25:07,59.109155531050455
6.482,0.147,7.61,-0.019163975,-0.009477267,-0.03253338,24.0,6.370035,0.144848,7.454003,0.131965,0.021152,0.165997,0.0296,-0.345,0.059,2017-05-25 22:25:08,66.17813476413517
6.472,0.225,7.58,-0.003298717,-0.013247229,0.008534776,24.0,6.349983,0.232236,7.468667,0.142017,0.002764,0.151333,0.0366,-0.3432,0.0655,2017-05-25 22:25:09,66.49420395614446
6.433,0.294,7.541,-0.04864299,0.007906449,-0.049777467,24.0,6.322749,0.259769,7.491113,0.247251,0.102231,0.343887,0.0377,-0.3414,0.0646,2017-05-25 22:25:10,49.49747862859781
6.482,0.353,7.875,-0.025272712,0.019931931,-0.06340867,24.0,6.305092,0.273835,7.505777,0.097908,1.65E-4,0.074223,0.0386,-0.3403,0.0655,2017-05-25 22:25:11,49.683900846491476
6.413,0.333,7.669,0.01745353,0.018169126,0.018500742,24.0,6.3018,0.289397,7.507573,0.1112,0.004603,0.121427,0.0397,-0.34,0.0662,2017-05-25 22:25:12,48.46944109638942
6.423,0.343,7.659,0.053215813,0.0024085871,0.04653111,24.0,6.295516,0.316631,7.511164,0.147484,0.016369,0.225836,0.041,-0.3395,0.0658,2017-05-25 22:25:13,64.08186156440226
6.374,0.323,7.62,-0.06635832,-0.0061785495,-0.08245048,24.0,6.291026,0.322916,7.514756,0.151974,0.020084,0.252244,0.0411,-0.3392,0.064999,2017-05-25 22:25:14,65.88149051514863
6.413,0.313,7.629,-0.047787767,0.0010995724,-0.051400647,24.0,6.287136,0.339974,7.517449,0.086864,-0.026974,0.102551,0.0439,-0.3387,0.0703,2017-05-25 22:25:15,64.4797280283005
6.374,0.353,7.561,0.0037350554,0.0015533642,-0.009232918,24.0,6.280552,0.365412,7.522237,0.122448,0.026588,0.185763,0.0439,-0.3384,0.0667,2017-05-25 22:25:16,44.26231207068898
6.423,0.402,7.541,-0.025551967,-0.043284755,-0.039305348,23.0,6.272471,0.361223,7.529121,0.336529,0.098777,0.335879,0.0435,-0.3379,0.0663,2017-05-25 22:25:17,46.34992913963539
6.403,0.392,7.708,0.06342613,0.01893708,0.057282485,24.0,6.276961,0.373193,7.524632,0.107039,0.018807,0.104368,0.0439,-0.3382,0.065399,2017-05-25 22:25:18,44.728438412030116
6.433,0.382,7.727,-0.03598918,0.0041364864,-0.029723361,24.0,6.290727,0.383668,7.512062,0.093273,-0.021668,0.136938,0.0451,-0.3389,0.0669,2017-05-25 22:25:19,45.249768229316196
6.394,0.382,7.659,-0.024609478,-0.0015533642,-0.024138233,24.0,6.284742,0.376785,7.517748,0.099258,-0.004785,0.102252,0.0447,-0.3386,0.067,2017-05-25 22:25:20,42.626443669978386
6.433,0.411,7.727,-0.09314949,-0.0026529366,-0.108491145,24.0,6.287734,0.389654,7.514456,0.155266,0.021346,0.173544,0.0463,-0.3386,0.0696,2017-05-25 22:25:21,47.07656329568059
6.305,0.372,7.453,-0.025534514,-0.0058120256,-0.01893708,23.0,6.287734,0.369303,7.515653,0.292266,0.100697,0.329347,0.0424,-0.339,0.0619,2017-05-25 22:25:22,43.90374205460276
6.403,0.402,7.659,-0.0038397766,-0.0018849813,-0.011170259,24.0,6.280851,0.383369,7.520442,0.132149,0.008631,0.167558,0.0443,-0.3384,0.064999,2017-05-25 22:25:23,44.31991355153489
6.394,0.392,7.62,0.004345929,-0.007278122,-0.007138494,23.0,6.28953,0.391449,7.51296,0.09447,5.51E-4,0.05804,0.0447,-0.3389,0.0648,2017-05-25 22:25:24,44.63870725984383
6.403,0.402,7.6,0.014329348,-0.005916747,0.014800593,24.0,6.286537,0.398632,7.515354,0.175463,0.042368,0.221646,0.0436,-0.3389,0.0608,2017-05-25 22:25:25,48.61856199519343
6.384,0.392,7.61,0.02131076,0.005480408,0.023649532,23.0,6.287734,0.394442,7.514157,0.115266,0.016558,0.163843,0.0437,-0.339,0.0615,2017-05-25 22:25:26,46.191260964069336
6.423,0.421,7.678,0.012741077,-0.011484423,0.010699014,24.0,6.276961,0.39504,7.523434,0.156039,0.02596,0.252566,0.0429,-0.3384,0.0594,2017-05-25 22:25:27,44.06704731098077
6.433,0.46,7.718,0.0150449425,0.012252378,0.03159089,23.0,6.282946,0.404617,7.517748,0.120054,-0.012617,0.160252,0.0428,-0.3388,0.0577,2017-05-25 22:25:28,44.43623840204994
6.502,0.509,7.904,0.048782617,-0.0025133083,0.0768828,23.0,6.291625,0.397435,7.510865,0.102375,0.033565,0.060135,0.0456,-0.339,0.0665,2017-05-25 22:25:29,49.319500625201584
6.453,0.421,7.659,0.031730518,-0.013910463,0.028012916,23.0,6.288632,0.407909,7.51296,0.134368,0.062091,0.28304,0.045,-0.3389,0.0631,2017-05-25 22:25:30,45.36105654202216
6.521,0.5,7.816,0.069238156,-0.012863251,0.07721442,23.0,6.288333,0.410004,7.51296,0.124667,0.020996,0.12604,0.0453,-0.3388,0.0638,2017-05-25 22:25:31,45.26196139998944
6.394,0.441,7.639,0.02951392,9.5994415E-4,0.025429793,23.0,6.293121,0.410902,7.50877,0.100879,0.030098,0.15023,0.044,-0.3393,0.0598,2017-05-25 22:25:32,45.35547717874218
6.354,0.382,7.571,-0.02956628,0.0028449253,-0.037961427,23.0,6.288932,0.416289,7.512062,0.114068,0.024711,0.156938,0.0444,-0.339,0.0603,2017-05-25 22:25:33,44.38513185023937
6.403,0.451,7.659,0.04780522,-9.250371E-4,0.045361724,23.0,6.287136,0.425267,7.513259,0.125864,0.005733,0.164741,0.0452,-0.3388,0.0612,2017-05-25 22:25:34,45.34011931431522
6.403,0.441,7.698,-0.05853914,1.3962825E-4,-0.06161096,23.0,6.281749,0.425267,7.518048,0.112251,0.025733,0.110952,0.0449,-0.3385,0.0604,2017-05-25 22:25:35,45.350446980742575
6.384,0.441,7.62,0.046199493,0.007278122,0.060144864,23.0,6.28564,0.445019,7.513259,0.12736,0.005981,0.194741,0.0447,-0.3389,0.0569,2017-05-25 22:25:36,45.23786387724516
6.021,-0.313,7.708,0.23132908,-0.1340082,-0.08517323,32.0,5.70445,-0.614707,7.952293,0.35555,0.330707,0.177707,-0.0021,-0.3074,0.0951,2017-05-25 22:25:38,40.883264489603036
6.247,0.039,7.825,-0.0077842744,-0.03698403,-0.021520203,25.0,6.071659,0.029328,7.700305,0.135341,0.009672,0.124695,0.035,-0.3258,0.0963,2017-05-25 22:25:39,43.35938932056072
6.296,0.107,7.825,0.1352125,-0.057038136,0.0736539,24.0,6.190171,0.132578,7.604238,0.095829,-0.034578,0.171762,0.0392,-0.3327,0.0903,2017-05-25 22:25:40,46.88361124072778
6.276,0.176,7.718,-0.013386858,-9.0758357E-4,-0.0143991625,24.0,6.176704,0.17298,7.614414,0.109296,0.01302,0.161586,0.0403,-0.3318,0.0874,2017-05-25 22:25:41,43.56020177368567
6.247,0.176,7.698,-0.060336854,-0.008168252,-0.069011256,24.0,6.174908,0.193629,7.615012,0.160092,0.021371,0.180988,0.0403,-0.3317,0.0842,2017-05-25 22:25:42,45.93477006939003
6.325,0.196,7.776,-0.061576054,-0.009459813,-0.071315125,24.0,6.176105,0.190637,7.614414,0.089895,-0.014637,0.054586,0.0439,-0.3313,0.095,2017-05-25 22:25:43,45.50525622110691
6.256,0.176,7.669,0.044436686,0.002234052,0.053913955,24.0,6.180295,0.192432,7.610822,0.154705,0.012568,0.244178,0.0422,-0.3318,0.0899,2017-05-25 22:25:44,42.42946733034372
6.296,0.205,7.757,-0.030421503,-4.188847E-4,-0.037647266,24.0,6.173113,0.196323,7.616808,0.131887,0.008677,0.140192,0.0451,-0.331,0.0974,2017-05-25 22:25:45,42.685721562487046
6.364,0.274,7.992,-0.0224976,0.009215464,-0.019198883,24.0,6.184485,0.199914,7.60753,-0.006485,-0.003914,-0.01753,0.0426,-0.332,0.0897,2017-05-25 22:25:46,42.817514495402534
6.266,0.196,7.649,-0.042673882,0.0,-0.051278472,24.0,6.184485,0.207396,7.607231,0.111515,-0.031396,0.139769,0.0439,-0.3319,0.0921,2017-05-25 22:25:47,44.47052981839836
6.276,0.235,7.708,-0.030962562,0.002600576,-0.04148704,24.0,6.177901,0.220265,7.612319,0.118099,0.004735,0.193681,0.0452,-0.3313,0.0941,2017-05-25 22:25:48,43.11333793764503
6.335,0.225,7.825,0.043284755,0.0062309103,0.052028973,24.0,6.189573,0.208892,7.603041,0.125426,0.016108,0.212959,0.0444,-0.3321,0.0935,2017-05-25 22:25:49,42.903563307419546
6.325,0.215,7.688,-0.035133954,0.0015533642,-0.045414086,24.0,6.213215,0.192732,7.584187,0.121785,0.012268,0.172813,0.0432,-0.3338,0.0919,2017-05-25 22:25:50,44.77684517862584
6.315,0.215,7.776,-0.03965442,3.1416354E-4,-0.048101928,24.0,6.192865,0.198418,7.600946,0.112135,-0.002418,0.156054,0.0435,-0.3324,0.0923,2017-05-25 22:25:51,47.67567128776931
6.315,0.215,7.786,-0.08220612,-2.9671E-4,-0.11644995,24.0,6.193164,0.208593,7.600348,0.151836,0.036407,0.205652,0.0432,-0.3325,0.0899,2017-05-25 22:25:52,44.21603685894932
6.374,0.235,7.806,-0.0060040145,-0.004572825,0.003193996,24.0,6.210522,0.215177,7.585683,0.075478,-0.019177,0.014317,0.0427,-0.3337,0.0873,2017-05-25 22:25:53,45.93308797729065
6.305,0.225,7.816,0.03822323,-0.0019024347,0.038450126,24.0,6.161441,0.20171,7.626385,0.124559,-0.00571,0.140615,0.0416,-0.3307,0.0871,2017-05-25 22:25:54,44.18877770652432
6.325,0.215,7.796,0.017331356,-0.003525613,0.013247229,24.0,6.197055,0.206498,7.596756,0.137945,0.028502,0.140244,0.043,-0.3328,0.0895,2017-05-25 22:25:55,43.46862388141295
6.325,0.205,7.688,0.058521684,-0.0023213194,0.07299066,23.0,6.204237,0.207995,7.59137,0.110763,0.017005,0.18463,0.0433,-0.3332,0.0899,2017-05-25 22:25:56,45.37517038113389
6.394,0.205,7.669,0.06984903,-0.005270966,0.07609739,23.0,6.25242,0.216973,7.551267,0.12158,-0.001972,0.156733,0.0435,-0.3362,0.0883,2017-05-25 22:25:57,45.37400124885799
6.413,0.215,7.688,0.011536784,-1.0472118E-4,0.021223493,23.0,6.285041,0.213681,7.523734,0.117959,0.001319,0.125266,0.0435,-0.3383,0.0881,2017-05-25 22:25:58,44.96272196810721
6.443,0.196,7.659,0.004084126,-0.010402304,0.013910463,23.0,6.307786,0.192732,7.505478,0.135214,-0.016732,0.153522,0.0411,-0.3399,0.0844,2017-05-25 22:25:59,46.362361651019796
6.727,0.196,7.394,0.010157955,-0.03385985,-0.004311022,22.0,6.555285,0.169688,7.290899,0.171715,0.026312,0.152101,0.0391,-0.3559,0.078,2017-05-25 22:26:00,45.06439078065523
6.943,0.245,7.188,0.12154638,0.013334497,0.121267125,20.0,6.814456,0.237024,7.04759,0.138544,0.007976,0.14041,0.0455,-0.3722,0.0806,2017-05-25 22:26:01,44.80814707495972
6.894,0.284,7.178,0.0370713,0.0067370627,0.037559997,20.0,6.794704,0.295382,7.06405,0.148296,0.017618,0.20195,0.0497,-0.3705,0.0832,2017-05-25 22:26:02,45.475807763398414
6.933,0.284,7.149,0.018570555,2.2689589E-4,0.019094162,20.0,6.814456,0.297178,7.045195,0.157544,0.015822,0.201805,0.0466,-0.3722,0.0751,2017-05-25 22:26:03,46.38002333256828
6.962,0.313,7.178,-0.04717689,-0.005201152,-0.05531024,20.0,6.81266,0.287601,7.04729,0.16934,0.006399,0.16971,0.0484,-0.3719,0.0808,2017-05-25 22:26:04,45.92000534655714
6.923,0.304,7.08,-0.05707304,0.003159089,-0.056881055,20.0,6.81266,0.298375,7.04729,0.18934,0.024625,0.23871,0.0508,-0.3716,0.0852,2017-05-25 22:26:05,44.00604873106019
6.972,0.323,7.227,-0.036774587,0.0021293308,-0.033807486,20.0,6.818346,0.317229,7.040407,0.153654,0.015771,0.147593,0.0481,-0.3724,0.076,2017-05-25 22:26:06,43.77652654906367
