ACC_X,ACC_Y,ACC_Z,GYRO_X,GYRO_Y,GYRO_Z,LIGH_1,GRAV_X,GRAV_Y,GRAV_Z,LINACC_X,LINACC_Y,LINACC_Z,ROTVEC_X,ROTVEC_Y,ROTVEC_Z,TIME,VOICE
9.522,0.147,-3.275,-0.011002445,0.0073349634,0.013447433,0.0,9.0389,0.3928,-3.7832,-0.528021,0.163872,-0.068238,-0.768551,-0.319718,-0.520426,2017-07-24 01:10:01,8.507562879370616
9.62,0.0,-3.353,0.18581907,-0.019559903,0.04400978,0.0,9.0798,0.3234,-3.6907,-0.468114,0.103462,0.187276,-0.755701,-0.342183,-0.516572,2017-07-24 01:10:02,48.64424227151374
7.031,2.059,1.598,-0.25061125,0.28728607,-0.121026896,0.0,9.6672,1.4048,0.8614,0.397201,-0.376189,-0.957541,-0.48834,-0.466477,-0.601015,2017-07-24 01:10:03,41.28817376749795
9.64,0.5,2.373,-0.07457212,-0.001222494,0.039119806,0.0,9.6975,0.6621,1.3,-0.559482,0.442107,-0.748929,-0.508072,-0.419018,-0.611818,2017-07-24 01:10:04,20.90724983712883
9.355,0.813,5.08,0.71271396,1.1210269,0.011002445,0.0,9.3508,0.9408,2.8013,-0.590184,0.337832,-0.128664,-0.43767,-0.406959,-0.638865,2017-07-24 01:10:05,2.013544439133705
3.726,9.963,1.951,1.7787286,0.2567237,-1.103912,0.0,5.0434,7.8196,3.0962,0.954423,-0.033308,-0.628756,0.216207,-0.543497,-0.470844,2017-07-24 01:10:06,12.944490028472838
2.902,8.63,-2.598,-0.02200489,-0.10757946,0.29951102,0.0,2.9114,9.0592,-2.3715,-0.401531,0.24923,0.56849,0.495561,-0.612643,-0.337265,2017-07-24 01:10:07,15.698492077442932
3.922,8.316,-1.824,0.10880195,-0.1589242,0.21515892,0.0,3.2556,8.7304,-3.0579,-0.412339,-0.290596,0.437041,0.351319,-0.729717,-0.406304,2017-07-24 01:10:08,-0.5365137743460864
3.157,8.414,-3.275,-0.20782396,-0.028117359,-0.22371638,0.0,3.6485,8.7857,-2.3809,-0.83347,-0.053236,-2.218965,0.30436,-0.727158,-0.433077,2017-07-24 01:10:09,0.18677748568966066
2.461,9.542,-2.108,0.0,-0.040342297,0.048899755,0.0,2.6673,8.6919,-3.6751,0.082355,-0.329093,0.806899,0.301604,-0.772277,-0.438227,2017-07-24 01:10:10,6.804275872305549
2.304,9.924,-1.892,0.8789731,-0.12591687,-0.16381419,0.0,3.4401,8.7381,-2.8248,-0.495829,-0.47482,1.819142,0.15636,-0.787133,-0.501935,2017-07-24 01:10:12,56.12932106401962
4.207,8.022,-4.785,0.35819072,-0.9767726,0.4180929,0.0,2.7752,8.5042,-4.0181,-1.102722,-0.277724,-0.427151,0.096975,-0.833945,-0.49353,2017-07-24 01:10:13,49.233038866849064
2.265,-1.726,-9.13,0.24327628,0.057457212,-0.06845966,0.0,1.9587,-1.5363,-9.4854,0.40779,-0.033395,1.374589,-0.047116,-0.990657,0.07411,2017-07-24 01:10:14,47.598337123230934
-0.058,-1.245,-9.659,-0.57334965,-1.9229829,0.5391198,0.0,-0.0873,-1.2563,-9.7254,-0.383301,0.064624,0.454555,0.003529,0.997921,-0.064205,2017-07-24 01:10:15,31.942077321659955
-0.813,-1.843,-9.414,0.19315404,2.1735942,-0.5330073,1.0,-1.8677,-1.0742,-9.567,-0.939733,0.361796,0.171969,-0.162275,0.980535,-0.038722,2017-07-24 01:10:16,44.45027737955559
1.985,-2.324,-9.283,-0.004889976,0.0036674817,-0.002444988,0.0,1.7246,-1.8682,-9.4713,-0.247319,0.410771,0.584696,0.293907,-0.946847,0.118053,2017-07-24 01:10:17,46.77893991303546
2.304,-2.137,-9.365,-0.1002445,-0.086797066,0.056234717,0.0,2.0676,-1.6855,-9.4368,-1.025357,0.784407,0.532155,0.486489,-0.862828,0.127849,2017-07-24 01:10:18,18.564657291593292
1.923,-2.105,-9.368,-0.024449877,-0.040342297,-0.02200489,0.0,1.7428,-1.8098,-9.4792,-0.287133,0.325107,0.6907,0.62736,-0.767937,0.128761,2017-07-24 01:10:19,43.68665245576026
2.726,-2.451,-8.355,-0.13447432,0.17726162,0.40464547,0.0,2.0184,-1.5963,-9.4629,0.37146,0.39564,1.062027,0.742152,-0.657029,0.132169,2017-07-24 01:10:20,27.05823636510042
1.759,-2.478,-9.458,-0.001222494,-0.0085574575,-0.045232274,0.0,1.3899,-2.1,-9.4777,-0.33304,0.31298,0.712218,-0.844755,0.519249,-0.117432,2017-07-24 01:10:21,49.46741824135984
1.72,-2.47,-9.4,0.002444988,0.0,-0.004889976,0.0,1.4436,-2.1794,-9.4517,-0.19339,0.233567,0.642203,-0.914411,0.381784,-0.111749,2017-07-24 01:10:22,21.638325667792977
1.708,-2.471,-9.373,-0.0036674817,-0.004889976,-0.0036674817,0.0,1.4608,-2.2018,-9.4439,-0.100173,0.19213,0.650052,-0.951035,0.277557,-0.103915,2017-07-24 01:10:23,75.55149862505432
1.882,-2.51,-9.326,-0.014669927,-0.0073349634,-0.0036674817,0.0,1.5088,-2.2877,-9.4159,0.168856,0.297236,0.678061,-0.968182,0.206642,-0.100589,2017-07-24 01:10:24,45.38979938911177
1.654,-2.546,-9.286,0.001222494,-0.004889976,-0.004889976,0.0,1.5289,-2.2791,-9.4147,-0.166043,0.248877,0.641208,-0.976906,0.160231,-0.096706,2017-07-24 01:10:25,25.42183310401299
1.735,-2.557,-9.34,-0.0036674817,-0.011002445,-0.0061124694,0.0,1.5452,-2.3026,-9.4063,-0.043719,0.177359,0.677601,-0.981799,0.125148,-0.093963,2017-07-24 01:10:26,8.569317578790821
1.745,-2.554,-9.326,0.002444988,0.0036674817,-0.014669927,0.0,1.5748,-2.2888,-9.4048,-0.139176,0.201142,0.651137,-0.984316,0.103133,-0.092974,2017-07-24 01:10:27,7.7410334511319645
1.75,-2.549,-9.32,-0.011002445,-0.004889976,-0.0061124694,0.0,1.5733,-2.2862,-9.4057,-0.140672,0.212759,0.640248,-0.985888,0.087084,-0.091098,2017-07-24 01:10:28,0.8277134973625151
1.753,-2.548,-9.316,-0.0061124694,-0.011002445,-0.001222494,0.0,1.5794,-2.2901,-9.4037,-0.143539,0.189892,0.652219,-0.986657,0.077243,-0.09033,2017-07-24 01:10:29,-0.7178023146332004
1.755,-2.548,-9.317,-0.0073349634,-0.013447433,-0.0036674817,0.0,1.5776,-2.2867,-9.4048,-0.145301,0.203239,0.631109,-0.987169,0.070795,-0.089495,2017-07-24 01:10:30,2.1163564318819335
1.754,-2.549,-9.316,-0.004889976,-0.004889976,-0.004889976,0.0,1.5831,-2.2851,-9.4043,-0.139812,0.213819,0.641644,-0.987521,0.065504,-0.089173,2017-07-24 01:10:31,-0.11604798328156232
1.755,-2.547,-9.315,0.0,-0.0061124694,-0.002444988,0.0,1.5841,-2.2867,-9.4038,-0.138845,0.212278,0.652183,-0.987674,0.062925,-0.088937,2017-07-24 01:10:32,-0.48404482971961565
1.755,-2.548,-9.314,-0.002444988,-0.004889976,-0.002444988,0.0,1.5866,-2.2838,-9.404,-0.136323,0.19615,0.64191,-0.987803,0.060981,-0.088835,2017-07-24 01:10:33,-1.4996195006881827
1.754,-2.549,-9.315,-0.011002445,0.0085574575,-0.001222494,0.0,1.5851,-2.2912,-9.4025,-0.137818,0.207789,0.662449,-0.987846,0.059626,-0.088631,2017-07-24 01:10:34,-2.0821069875807927
1.755,-2.549,-9.314,-0.012224939,0.0036674817,-0.004889976,0.0,1.5859,-2.2841,-9.4041,-0.166017,0.205843,0.651868,-0.987949,0.058587,-0.088528,2017-07-24 01:10:35,-1.7779104393357565
1.756,-2.549,-9.318,-0.0036674817,-0.004889976,-0.0036674817,0.0,1.5807,-2.2877,-9.4041,-0.14229,0.211257,0.660852,-0.988004,0.057673,-0.088163,2017-07-24 01:10:36,0.1254065423671585
1.75,-2.549,-9.314,-0.0085574575,-0.0036674817,-0.0073349634,0.0,1.5633,-2.2831,-9.4081,-0.159641,0.196801,0.647848,-0.988158,0.056786,-0.087146,2017-07-24 01:10:37,-1.6211083964841324
1.75,-2.542,-9.32,-0.01589242,-0.009779952,-0.011002445,0.0,1.5601,-2.3154,-9.4007,-0.220874,0.2605,0.664209,-0.98805,0.055338,-0.086925,2017-07-24 01:10:38,12.399248132621514
1.748,-2.542,-9.316,-0.004889976,0.001222494,-0.001222494,0.0,1.5889,-2.2821,-9.4041,-0.115075,0.197872,0.64187,-0.98815,0.055094,-0.088274,2017-07-24 01:10:39,21.059756309407327
1.745,-2.544,-9.315,-0.002444988,-0.004889976,-0.004889976,0.0,1.5746,-2.2917,-9.4041,-0.139314,0.207288,0.651808,-0.988113,0.055778,-0.087648,2017-07-24 01:10:40,-0.4651212929425668
1.744,-2.547,-9.317,-0.0073349634,-0.001222494,-0.004889976,0.0,1.5842,-2.2862,-9.4039,-0.129768,0.203739,0.661084,-0.988124,0.055459,-0.088087,2017-07-24 01:10:41,1.7467523405844907
1.912,-2.559,-9.277,-0.001222494,-0.011002445,0.0,0.0,1.5451,-2.2785,-9.4122,0.051187,0.211434,0.719723,-0.988354,0.055212,-0.086008,2017-07-24 01:10:42,10.719466981038572
1.729,-2.581,-9.327,-0.002444988,0.002444988,0.001222494,0.0,1.5682,-2.2831,-9.4073,-0.049707,0.091852,0.667657,-0.988262,0.05457,-0.087148,2017-07-24 01:10:44,15.912276978248796
1.67,-2.541,-9.346,-0.0061124694,-0.001222494,0.001222494,0.0,1.5606,-2.2845,-9.4082,-0.15332,0.195417,0.656739,-0.988304,0.054241,-0.086721,2017-07-24 01:10:45,18.64981293564098
1.739,-2.493,-9.295,0.004889976,-0.0061124694,0.001222494,0.0,1.5989,-2.3884,-9.3759,-0.249055,0.091506,0.603025,-0.987087,0.060825,-0.089851,2017-07-24 01:10:46,16.910175677400904
1.84,-2.69,-9.266,-0.011002445,-0.018337408,-0.019559903,0.0,1.5929,-2.3876,-9.3772,-0.025007,0.312367,0.620796,-0.987428,0.055575,-0.088911,2017-07-24 01:10:47,25.201725311667925
1.804,-2.853,-9.238,0.0,-0.0036674817,-0.011002445,0.0,1.6045,-2.2455,-9.4102,-0.511412,0.100438,0.654731,-0.988581,0.049962,-0.088383,2017-07-24 01:10:48,10.463762584808492
1.832,-2.587,-9.305,-0.0085574575,-0.0061124694,-0.013447433,0.0,1.5802,-2.3219,-9.3958,-0.152755,0.168033,0.660166,-0.988126,0.051581,-0.087553,2017-07-24 01:10:49,23.48990893877771
1.791,-2.585,-9.306,-0.013447433,-0.0085574575,-0.011002445,0.0,1.5742,-2.3198,-9.3973,-0.129747,0.208158,0.658635,-0.988141,0.052053,-0.087291,2017-07-24 01:10:50,20.568192757022562
1.771,-2.585,-9.306,-0.0061124694,-0.018337408,-0.011002445,0.0,1.5767,-2.3217,-9.3964,-0.166216,0.235266,0.649524,-0.988069,0.05296,-0.087534,2017-07-24 01:10:51,4.813418368377742
1.76,-2.584,-9.305,-0.0036674817,0.001222494,-0.004889976,0.0,1.5764,-2.3213,-9.3966,-0.16651,0.206609,0.639394,-0.987994,0.054405,-0.087686,2017-07-24 01:10:52,-0.41350275658469327
1.748,-2.584,-9.301,0.001222494,-0.0073349634,-0.001222494,0.0,1.5632,-2.3408,-9.3939,-0.102712,0.187181,0.642009,-0.987799,0.056681,-0.087335,2017-07-24 01:10:53,0.03800364879808627
1.734,-2.589,-9.3,-0.0073349634,0.0073349634,-0.0073349634,0.0,1.6176,-2.3183,-9.3903,-0.220349,0.266622,0.626647,-0.987743,0.056021,-0.089998,2017-07-24 01:10:54,0.01270486957466245
1.951,-2.902,-9.493,0.041564792,-0.06479218,0.051344745,0.0,1.6034,-2.4486,-9.3596,0.646452,0.318376,0.925321,-0.987639,0.042188,-0.088015,2017-07-24 01:10:55,19.46295832182475
1.598,-3.746,-8.963,0.017114915,0.020782396,0.07823961,0.0,1.2723,-2.791,-9.3145,-0.268676,0.196942,0.53041,-0.979316,0.125898,-0.08354,2017-07-24 01:10:56,48.535366078853485
1.092,-3.354,-9.082,-0.001222494,-0.0036674817,-0.001222494,0.0,0.9745,-3.0565,-9.267,-0.068474,0.285496,0.701936,-0.979296,0.116046,-0.06863,2017-07-24 01:10:57,48.69609013042875
1.039,-3.049,-9.267,-0.009779952,-0.024449877,-0.0085574575,0.0,1.0721,-2.8426,-9.3241,-0.09584,0.269373,0.654819,-0.981931,0.105881,-0.070763,2017-07-24 01:10:58,82.42417958528304
1.269,-3.146,-9.211,-0.013447433,-0.0085574575,-0.0061124694,0.0,1.0687,-2.8137,-9.3333,-0.176239,0.164276,0.683665,-0.982682,0.101012,-0.069721,2017-07-24 01:10:59,56.52930816205222
1.069,-3.104,-9.226,-0.017114915,0.020782396,-0.0036674817,0.0,1.0602,-2.8046,-9.337,-0.126704,0.173385,0.67996,-0.982833,0.10047,-0.069154,2017-07-24 01:11:00,60.1185748166013
1.16,-3.102,-9.228,-0.0085574575,-0.002444988,-0.0085574575,0.0,1.071,-2.7878,-9.3408,-0.10594,0.257103,0.628183,-0.983073,0.099074,-0.069415,2017-07-24 01:11:01,44.1093795583876
1.176,-3.096,-9.232,-0.0085574575,-0.0073349634,-0.0036674817,0.0,1.0684,-2.7896,-9.3406,-0.118556,0.25538,0.638398,-0.983236,0.097383,-0.069054,2017-07-24 01:11:02,61.62921975795107
1.188,-3.09,-9.23,-0.0036674817,-0.013447433,-0.004889976,0.0,1.077,-2.7818,-9.3419,-0.061954,0.253142,0.656072,-0.983342,0.096665,-0.069353,2017-07-24 01:11:03,45.32038800364503
1.192,-3.087,-9.233,-0.002444988,0.002444988,-0.001222494,0.0,1.0705,-2.7778,-9.3438,-0.087419,0.248166,0.64413,-0.98346,0.09597,-0.068899,2017-07-24 01:11:04,1.079647694496674
1.193,-3.082,-9.231,-0.0073349634,-0.011002445,-0.0061124694,0.0,1.0734,-2.7801,-9.3428,-0.084525,0.235813,0.636162,-0.98349,0.095383,-0.06898,2017-07-24 01:11:05,1.6694787961581148
1.196,-3.079,-9.235,-0.0061124694,-0.002444988,0.001222494,0.0,1.0708,-2.7827,-9.3423,-0.078181,0.243226,0.636628,-0.983477,0.095392,-0.068858,2017-07-24 01:11:06,-1.6026669895004295
1.196,-3.079,-9.238,0.002444988,-0.0061124694,-0.0036674817,0.0,1.0719,-2.7821,-9.3424,-0.096028,0.23389,0.626563,-0.983452,0.095667,-0.068953,2017-07-24 01:11:07,-3.447189656218588
1.198,-3.079,-9.235,-0.012224939,-0.004889976,-0.0061124694,0.0,1.0769,-2.781,-9.3421,-0.09102,0.244961,0.636818,-0.983512,0.094986,-0.06911,2017-07-24 01:11:08,-0.7630679280856966
1.197,-3.083,-9.234,-0.0061124694,-0.012224939,-0.001222494,0.0,1.0604,-2.7802,-9.3443,-0.337579,0.254781,0.682683,-0.98347,0.095988,-0.068391,2017-07-24 01:11:09,-0.5605744720048708
1.196,-3.083,-9.237,-0.002444988,-0.017114915,-0.0061124694,0.0,1.0643,-2.7886,-9.3413,-0.093626,0.25639,0.637632,-0.983405,0.095874,-0.068626,2017-07-24 01:11:10,15.119094596226672
1.196,-3.08,-9.238,-0.004889976,-0.012224939,-0.002444988,0.0,1.0752,-2.7695,-9.3457,-0.11175,0.256462,0.623204,-0.983481,0.096262,-0.069134,2017-07-24 01:11:11,-1.6644453401665085
1.195,-3.075,-9.236,-0.0061124694,-0.0061124694,-0.0036674817,0.0,1.0677,-2.7785,-9.3439,-0.10925,0.247433,0.654025,-0.983464,0.095958,-0.068755,2017-07-24 01:11:12,9.183518900138827
1.195,-3.076,-9.238,-0.0061124694,-0.002444988,-0.0085574575,0.0,1.0732,-2.7827,-9.342,-0.046736,0.233255,0.6369,-0.983472,0.09537,-0.068981,2017-07-24 01:11:13,1.732545769790497
1.198,-3.076,-9.238,-0.011002445,-0.013447433,-0.0085574575,0.0,1.0661,-2.7746,-9.3453,-0.082847,0.241307,0.642691,-0.983554,0.095387,-0.068572,2017-07-24 01:11:14,7.2441988501586785
1.197,-3.078,-9.24,-0.012224939,-0.014669927,-0.0085574575,0.0,1.0683,-2.7773,-9.3442,-0.118633,0.24861,0.624744,-0.98358,0.094832,-0.068624,2017-07-24 01:11:15,-1.4638257968195152
1.203,-3.079,-9.238,-0.002444988,-0.012224939,-0.004889976,0.0,1.0686,-2.7801,-9.3434,-0.080371,0.245873,0.644589,-0.983671,0.093659,-0.068488,2017-07-24 01:11:17,-2.6444476146608302
1.201,-3.079,-9.238,-0.0085574575,-0.0073349634,-0.004889976,0.0,1.0647,-2.7824,-9.3431,-0.103208,0.233529,0.635849,-0.983698,0.093305,-0.068254,2017-07-24 01:11:17,-1.329286107700379
1.2,-3.08,-9.238,-0.0073349634,-0.0085574575,-0.004889976,0.0,1.077,-2.7752,-9.3438,-0.08091,0.240778,0.644102,-0.983713,0.093346,-0.068854,2017-07-24 01:11:19,-0.9701605487939348
1.196,-3.08,-9.239,-0.0061124694,-0.009779952,-0.0036674817,0.0,1.0752,-2.7814,-9.3422,-0.073795,0.234528,0.645743,-0.983573,0.094366,-0.068934,2017-07-24 01:11:20,-1.4578887558142009
1.196,-3.079,-9.239,0.002444988,-0.009779952,-0.001222494,0.0,1.0765,-2.7785,-9.3429,-0.09148,0.25642,0.636034,-0.983593,0.094355,-0.068984,2017-07-24 01:11:21,-2.438871095274125
1.196,-3.08,-9.24,-0.0061124694,-0.019559903,-0.0036674817,0.0,1.0712,-2.7816,-9.3426,-0.067733,0.234387,0.636334,-0.983547,0.094748,-0.068785,2017-07-24 01:11:22,1.0096255701925334
1.196,-3.079,-9.238,-0.0061124694,-0.01589242,-0.0085574575,0.0,1.0697,-2.779,-9.3436,-0.088203,0.246995,0.644389,-0.983657,0.093861,-0.068571,2017-07-24 01:11:23,1.959860877726205
1.196,-3.08,-9.239,-0.0073349634,-0.014669927,-0.0061124694,0.0,1.0661,-2.7824,-9.3429,-0.091877,0.252529,0.645001,-0.983713,0.0931,-0.068294,2017-07-24 01:11:24,-2.582515088203734
1.196,-3.08,-9.24,-0.002444988,-0.0085574575,-0.001222494,0.0,1.064,-2.7852,-9.3424,-0.093967,0.259793,0.636577,-0.983826,0.09174,-0.06801,2017-07-24 01:11:25,-2.054792779186496
1.198,-3.08,-9.238,-0.0036674817,-0.004889976,-0.0036674817,0.0,1.0722,-2.7866,-9.341,-0.085799,0.239365,0.656937,-0.983878,0.090796,-0.068307,2017-07-24 01:11:26,-2.409226305636735
1.197,-3.079,-9.238,-0.004889976,-0.0036674817,0.002444988,0.0,1.0739,-2.778,-9.3434,-0.075008,0.2569,0.6256,-0.98385,0.091751,-0.068487,2017-07-24 01:11:27,-1.6894048618495705
1.195,-3.08,-9.238,-0.002444988,-0.001222494,-0.004889976,0.0,1.076,-2.774,-9.3443,-0.091921,0.260993,0.624625,-0.983748,0.093105,-0.068762,2017-07-24 01:11:28,-1.5781996300295558
1.197,-3.079,-9.238,-0.0073349634,-0.01589242,-0.0073349634,0.0,1.0695,-2.7791,-9.3435,-0.088421,0.255859,0.625403,-0.983688,0.093529,-0.068514,2017-07-24 01:11:29,-2.431440905576315
1.197,-3.082,-9.239,-0.011002445,0.001222494,-0.004889976,0.0,1.0708,-2.7808,-9.3429,-0.087178,0.254194,0.645042,-0.983592,0.094364,-0.068704,2017-07-24 01:11:30,-2.3944794499766777
1.197,-3.081,-9.239,-0.0073349634,-0.002444988,-0.0036674817,0.0,1.0683,-2.7842,-9.3422,-0.089631,0.27075,0.617786,-0.983685,0.093183,-0.068431,2017-07-24 01:11:31,-1.6272729749769974
1.196,-3.079,-9.238,-0.0061124694,-0.0073349634,-0.009779952,0.0,1.0671,-2.774,-9.3453,-0.12983,0.270932,0.633622,-0.98383,0.092514,-0.06822,2017-07-24 01:11:32,-0.08133894883304277
1.194,-3.08,-9.239,-0.0085574575,-0.012224939,-0.004889976,0.0,1.0738,-2.7865,-9.3409,-0.084116,0.220494,0.628093,-0.983791,0.091693,-0.068519,2017-07-24 01:11:33,1.5016857447922551
1.367,-3.15,-9.2,-0.001222494,0.009779952,-0.011002445,0.0,1.1207,-2.7508,-9.3459,-0.219288,0.284123,0.585033,-0.984053,0.090284,-0.070549,2017-07-24 01:11:34,5.603597133817221
1.143,-3.13,-9.229,-0.011002445,-0.0085574575,-0.0036674817,0.0,1.1434,-2.7472,-9.3442,0.109471,0.364788,0.615712,-0.983982,0.090583,-0.071746,2017-07-24 01:11:35,17.384925596516617
1.292,-2.982,-9.238,-0.001222494,0.004889976,-0.009779952,0.0,1.1206,-2.7575,-9.3439,-0.028304,0.201428,0.644005,-0.983756,0.092919,-0.070949,2017-07-24 01:11:36,13.238118540913353
1.252,-3.193,-9.21,-0.01589242,-0.017114915,-0.002444988,0.0,1.095,-2.749,-9.3495,-0.350932,0.276908,0.600468,-0.983971,0.092163,-0.069475,2017-07-24 01:11:37,12.624696299119476
1.243,-3.109,-9.227,-0.0061124694,0.0,-0.0036674817,0.0,1.1034,-2.7472,-9.349,-0.083504,0.22073,0.638925,-0.98394,0.092362,-0.069927,2017-07-24 01:11:38,16.83655508196449
1.236,-3.074,-9.239,0.0036674817,-0.0073349634,-0.0073349634,0.0,1.0962,-2.747,-9.3499,-0.100705,0.240974,0.638005,-0.983965,0.092352,-0.069553,2017-07-24 01:11:39,6.454145929788978
1.234,-3.055,-9.239,-0.0061124694,-0.017114915,-0.004889976,0.0,1.0978,-2.7508,-9.3486,-0.089164,0.246121,0.65932,-0.98401,0.091504,-0.069536,2017-07-24 01:11:40,-2.365135116586184
1.23,-3.047,-9.241,-0.0036674817,-0.0061124694,-0.0036674817,0.0,1.0883,-2.744,-9.3517,-0.108636,0.23393,0.636211,-0.984085,0.091567,-0.069019,2017-07-24 01:11:41,-3.9120662601306924
1.231,-3.046,-9.246,-0.001222494,-0.002444988,-0.0036674817,0.0,1.0942,-2.7532,-9.3484,-0.092745,0.22479,0.611585,-0.984063,0.090856,-0.069274,2017-07-24 01:11:42,-3.5516152182842986
1.231,-3.042,-9.249,-0.012224939,-0.013447433,-0.002444988,0.0,1.0989,-2.7464,-9.3498,-0.078027,0.241537,0.629154,-0.98395,0.092469,-0.069704,2017-07-24 01:11:43,-2.739034543631695
1.23,-3.039,-9.248,-0.004889976,-0.026894866,-0.0061124694,0.0,1.0934,-2.7478,-9.35,-0.103509,0.2201,0.628934,-0.98385,0.093586,-0.069583,2017-07-24 01:11:45,-1.0127910242865592
1.228,-3.041,-9.249,-0.002444988,-0.0085574575,-0.0073349634,0.0,1.0976,-2.7435,-9.3508,-0.089367,0.244473,0.647137,-0.983854,0.093762,-0.069797,2017-07-24 01:11:45,-3.9540274060667735
1.225,-3.041,-9.248,-0.001222494,-0.002444988,-0.0085574575,0.0,1.0963,-2.7466,-9.3501,-0.090666,0.221375,0.637892,-0.983739,0.094755,-0.069884,2017-07-24 01:11:46,-3.6586136717197344
1.226,-3.04,-9.248,-0.011002445,-0.004889976,-0.0073349634,0.0,1.1011,-2.7495,-9.3486,-0.09581,0.257426,0.639331,-0.983825,0.093476,-0.069975,2017-07-24 01:11:48,-2.8275869961125553
1.227,-3.04,-9.248,-0.0036674817,-0.011002445,-0.0061124694,0.0,1.1029,-2.744,-9.35,-0.084045,0.243908,0.628928,-0.983977,0.092244,-0.069866,2017-07-24 01:11:49,-3.8089035753709304
1.225,-3.04,-9.248,-0.004889976,-0.001222494,-0.013447433,0.0,1.0982,-2.7459,-9.35,-0.098752,0.251001,0.637933,-0.983859,0.093496,-0.069806,2017-07-24 01:11:50,-0.7731913471661379
1.226,-3.04,-9.249,-0.004889976,-0.009779952,0.0,0.0,1.102,-2.7474,-9.3491,-0.084935,0.240579,0.648801,-0.983814,0.093728,-0.070043,2017-07-24 01:11:51,-3.2099109751619173
1.225,-3.04,-9.247,-0.011002445,-0.0061124694,-0.0085574575,0.0,1.1005,-2.7452,-9.35,-0.10544,0.242731,0.628991,-0.983803,0.094061,-0.069999,2017-07-24 01:11:52,-0.9967555175061071
1.226,-3.04,-9.25,0.0,-0.0085574575,0.0,0.0,1.0941,-2.7469,-9.3502,-0.082817,0.241081,0.647726,-0.983793,0.094246,-0.069705,2017-07-24 01:11:53,0.17457248050741506
1.228,-3.04,-9.248,-0.0036674817,0.0,-0.002444988,0.0,1.0964,-2.7482,-9.3496,-0.071553,0.258728,0.658392,-0.983947,0.092442,-0.06958,2017-07-24 01:11:54,-1.198789378388977
1.228,-3.04,-9.245,0.002444988,-0.013447433,-0.004889976,0.0,1.093,-2.7473,-9.3502,-0.093913,0.249699,0.628711,-0.984056,0.091459,-0.069266,2017-07-24 01:11:55,-0.839575100141569
1.225,-3.04,-9.247,-0.001222494,-0.001222494,-0.004889976,0.0,1.0968,-2.7485,-9.3494,-0.090134,0.248448,0.648522,-0.984087,0.0909,-0.06939,2017-07-24 01:11:56,-1.4283246878076048
1.226,-3.041,-9.248,-0.0085574575,-0.0036674817,-0.004889976,0.0,1.1009,-2.7441,-9.3502,-0.096026,0.243864,0.637708,-0.984132,0.090636,-0.069542,2017-07-24 01:11:57,-3.2905871926422474
1.226,-3.04,-9.247,-0.0085574575,0.0,-0.0085574575,0.0,1.1023,-2.7482,-9.3489,-0.103638,0.239735,0.630083,-0.983985,0.091837,-0.069802,2017-07-24 01:11:58,-2.582515088203734
1.225,-3.04,-9.247,-0.004889976,0.0073349634,-0.0085574575,0.0,1.1008,-2.7511,-9.3482,-0.0961,0.245846,0.630761,-0.98397,0.09181,-0.069738,2017-07-24 01:11:59,-3.2815488026598016
1.226,-3.04,-9.243,-0.001222494,-0.004889976,0.0,0.0,1.1004,-2.7465,-9.3496,-0.096584,0.241418,0.638361,-0.983941,0.092514,-0.069786,2017-07-24 01:12:00,-1.6026669895004295
1.225,-3.04,-9.246,-0.001222494,-0.0036674817,-0.004889976,0.0,1.099,-2.7499,-9.3488,-0.087945,0.23809,0.639178,-0.983934,0.092361,-0.069712,2017-07-24 01:12:01,-4.082399653118496
1.226,-3.038,-9.248,-0.001222494,-0.012224939,-0.0036674817,0.0,1.0969,-2.7499,-9.349,-0.090028,0.247089,0.648935,-0.983988,0.091845,-0.069534,2017-07-24 01:12:02,-2.9262945363754977
1.228,-3.04,-9.248,-0.002444988,-0.0036674817,-0.0036674817,0.0,1.096,-2.7462,-9.3502,-0.080938,0.250799,0.647736,-0.983947,0.092615,-0.069573,2017-07-24 01:12:03,-2.3724526327554933
1.228,-3.04,-9.247,-0.004889976,-0.01589242,-0.0061124694,0.0,1.0962,-2.7471,-9.3499,-0.109793,0.24982,0.629039,-0.983899,0.093047,-0.069645,2017-07-24 01:12:04,-2.9262945363754977
1.226,-3.04,-9.248,-0.0085574575,-0.018337408,-0.0073349634,0.0,1.1001,-2.7475,-9.3493,-0.086884,0.240401,0.648623,-0.983825,0.093659,-0.069934,2017-07-24 01:12:05,-1.002094110457438
1.226,-3.04,-9.249,-0.0061124694,-0.0036674817,-0.0036674817,0.0,1.0971,-2.7463,-9.35,-0.08984,0.250666,0.647903,-0.983903,0.093035,-0.069688,2017-07-24 01:12:06,-2.8766603410599965
1.227,-3.04,-9.248,-0.009779952,-0.009779952,-0.0036674817,0.0,1.0971,-2.7484,-9.3494,-0.099894,0.229565,0.648515,-0.983947,0.092399,-0.069609,2017-07-24 01:12:07,-1.4224359481677038
1.226,-3.04,-9.248,-0.0073349634,-0.002444988,-0.004889976,0.0,1.0985,-2.7487,-9.3492,-0.088417,0.248281,0.629771,-0.984026,0.091484,-0.06956,2017-07-24 01:12:08,-3.7582268647908035
1.225,-3.04,-9.248,-0.011002445,-0.0036674817,-0.0073349634,0.0,1.0945,-2.7463,-9.3503,-0.082419,0.231668,0.637601,-0.983955,0.09257,-0.069491,2017-07-24 01:12:09,-1.5296746020854348
1.225,-3.04,-9.249,-0.002444988,-0.0036674817,-0.0036674817,0.0,1.1015,-2.7476,-9.3492,-0.075404,0.240388,0.6488,-0.9839,0.092825,-0.069895,2017-07-24 01:12:10,-4.2371265196805705
1.225,-3.04,-9.247,-0.004889976,-0.0085574575,-0.012224939,0.0,1.0971,-2.749,-9.3492,-0.09983,0.247927,0.629709,-0.983896,0.092891,-0.069684,2017-07-24 01:12:11,-1.900984971541717
1.226,-3.04,-9.248,-0.002444988,-0.004889976,-0.004889976,0.0,1.0963,-2.751,-9.3487,-0.100668,0.226907,0.630206,-0.983906,0.092652,-0.069619,2017-07-24 01:12:12,-1.4757242832183735
1.226,-3.04,-9.247,-0.0073349634,-0.001222494,-0.0073349634,0.0,1.1014,-2.7493,-9.3487,-0.085543,0.238691,0.630283,-0.983847,0.093253,-0.069956,2017-07-24 01:12:13,-2.513880642418384
1.226,-3.04,-9.248,-0.001222494,-0.0085574575,-0.0036674817,0.0,1.0991,-2.7456,-9.35,-0.087897,0.242377,0.628923,-0.983832,0.093782,-0.069887,2017-07-24 01:12:14,-1.9939567597111156
1.226,-3.04,-9.249,-0.0036674817,-0.018337408,-0.0073349634,0.0,1.0933,-2.7461,-9.3505,-0.103647,0.241801,0.637418,-0.983904,0.093163,-0.069508,2017-07-24 01:12:15,-4.552055080614928
1.225,-3.04,-9.246,-0.004889976,-0.004889976,-0.001222494,0.0,1.0988,-2.7537,-9.3477,-0.088148,0.234265,0.640279,-0.983872,0.092715,-0.069772,2017-07-24 01:12:16,-2.438871095274125
1.225,-3.041,-9.244,-0.002444988,-0.009779952,-0.0073349634,0.0,1.0967,-2.7502,-9.3489,-0.09023,0.246727,0.639018,-0.983943,0.092309,-0.069589,2017-07-24 01:12:17,-2.6444476146608302
1.225,-3.042,-9.246,-0.0036674817,-0.002444988,-0.011002445,0.0,1.1032,-2.7501,-9.3482,-0.073779,0.237869,0.630734,-0.983957,0.091959,-0.069873,2017-07-24 01:12:18,-1.2043823538162353
1.225,-3.04,-9.248,-0.002444988,-0.009779952,-0.004889976,0.0,1.1034,-2.7532,-9.3473,-0.073598,0.243776,0.631665,-0.983901,0.092305,-0.069947,2017-07-24 01:12:19,-0.5799194697768675
1.226,-3.04,-9.248,0.0036674817,-0.0085574575,-0.0061124694,0.0,1.099,-2.7546,-9.3474,-0.087937,0.242333,0.621578,-0.983904,0.092289,-0.069729,2017-07-24 01:12:20,-1.159838939553735
1.226,-3.04,-9.246,-0.0036674817,-0.0061124694,-0.0073349634,0.0,1.1019,-2.7446,-9.35,-0.09503,0.24333,0.628981,-0.983972,0.092287,-0.069824,2017-07-24 01:12:21,-2.9346223334028747
1.229,-3.04,-9.248,-0.0036674817,-0.0073349634,-0.011002445,0.0,1.0965,-2.749,-9.3493,-0.090473,0.238907,0.638641,-0.983997,0.091835,-0.069505,2017-07-24 01:12:22,-0.11604798328156232
1.23,-3.041,-9.248,-0.004889976,-0.020782396,-0.0085574575,0.0,1.1023,-2.75,-9.3484,-0.103663,0.246993,0.630592,-0.983961,0.09196,-0.069827,2017-07-24 01:12:23,-0.5413152616444864
1.23,-3.039,-9.247,-0.009779952,0.001222494,0.0,0.0,1.1008,-2.7466,-9.3495,-0.086131,0.260356,0.62943,-0.983952,0.092369,-0.069789,2017-07-24 01:12:25,-1.746093851473864
1.228,-3.04,-9.246,-0.009779952,-0.013447433,-0.0036674817,0.0,1.0987,-2.7502,-9.3487,-0.088278,0.246733,0.649244,-0.983979,0.091859,-0.069628,2017-07-24 01:12:26,0.6888128940781288
1.225,-3.041,-9.248,-0.0061124694,-0.012224939,-0.002444988,0.0,1.0917,-2.7554,-9.348,-0.105272,0.241532,0.630955,-0.984017,0.091248,-0.06921,2017-07-24 01:12:27,-1.3756112916714316
1.226,-3.04,-9.246,-0.0073349634,-0.0085574575,-0.0085574575,0.0,1.099,-2.7541,-9.3475,-0.087934,0.242852,0.650427,-0.983927,0.092084,-0.069698,2017-07-24 01:12:28,-1.1543029989455942
1.229,-3.04,-9.245,-0.001222494,-0.004889976,-0.004889976,0.0,1.1038,-2.7465,-9.3492,-0.093198,0.241456,0.619747,-0.983856,0.093302,-0.070069,2017-07-24 01:12:29,-1.3989605136078487
1.227,-3.04,-9.246,0.0,-0.014669927,-0.004889976,0.0,1.0956,-2.7515,-9.3487,-0.091327,0.245447,0.620264,-0.983858,0.093145,-0.069655,2017-07-24 01:12:30,-1.9939567597111156
1.227,-3.04,-9.246,-0.011002445,-0.0036674817,-0.011002445,0.0,1.0967,-2.7478,-9.3497,-0.090231,0.249174,0.638297,-0.983925,0.092694,-0.069629,2017-07-24 01:12:31,-2.307034653819874
1.226,-3.041,-9.247,-0.001222494,-0.0061124694,0.0,0.0,1.091,-2.7517,-9.3492,-0.085905,0.236259,0.648784,-0.983938,0.092428,-0.069321,2017-07-24 01:12:32,-3.4284700374985806
1.228,-3.041,-9.247,0.0,0.002444988,-0.0061124694,0.0,1.0961,-2.7571,-9.347,-0.090863,0.220849,0.650969,-0.983921,0.092007,-0.069552,2017-07-24 01:12:33,-3.7987208161478807
1.227,-3.042,-9.246,-0.0073349634,-0.002444988,0.002444988,0.0,1.097,-2.752,-9.3484,-0.089993,0.235972,0.61156,-0.984044,0.091076,-0.06944,2017-07-24 01:12:34,-2.379782499168922
1.225,-3.042,-9.246,-0.012224939,-0.014669927,0.002444988,0.0,1.0899,-2.7525,-9.3491,-0.107078,0.235496,0.638873,-0.984109,0.090562,-0.069006,2017-07-24 01:12:35,-2.7470105694163207
1.226,-3.043,-9.248,-0.0061124694,0.001222494,-0.011002445,0.0,1.0983,-2.7543,-9.3475,-0.088611,0.252642,0.640408,-0.984043,0.09085,-0.069493,2017-07-24 01:12:36,-2.3214870625616832
1.229,-3.041,-9.248,0.0,-0.0073349634,-0.0036674817,0.0,1.0934,-2.7551,-9.3479,-0.09356,0.241853,0.650061,-0.984002,0.091384,-0.069316,2017-07-24 01:12:37,-0.03833914390580229
1.228,-3.04,-9.246,-0.002444988,-0.012224939,-0.0073349634,0.0,1.0947,-2.7553,-9.3477,-0.082224,0.22261,0.621288,-0.983986,0.091491,-0.069401,2017-07-24 01:12:38,-0.9595679952037118
1.226,-3.042,-9.243,-0.001222494,-0.0085574575,-0.0036674817,0.0,1.0959,-2.7541,-9.3479,-0.091092,0.233845,0.640058,-0.983989,0.091524,-0.069457,2017-07-24 01:12:39,-0.7378621416091867
1.225,-3.04,-9.244,-0.009779952,-0.0061124694,-0.0061124694,0.0,1.0994,-2.7509,-9.3484,-0.077539,0.256039,0.620534,-0.983933,0.092275,-0.069727,2017-07-24 01:12:40,-3.580536156364888
1.225,-3.04,-9.243,0.001222494,-0.0085574575,-0.0061124694,0.0,1.0984,-2.7482,-9.3493,-0.088549,0.248749,0.62962,-0.983968,0.092152,-0.069643,2017-07-24 01:12:41,-2.007402420045442
1.226,-3.04,-9.244,-0.002444988,0.0036674817,-0.004889976,0.0,1.1023,-2.7462,-9.3495,-0.084659,0.250733,0.629494,-0.983984,0.092011,-0.069814,2017-07-24 01:12:42,-0.6042225260293717
1.226,-3.041,-9.244,-0.0073349634,-0.013447433,-0.0073349634,0.0,1.0937,-2.7486,-9.3498,-0.103291,0.25836,0.638178,-0.983945,0.092519,-0.069451,2017-07-24 01:12:43,-3.3820209870409452
1.226,-3.041,-9.247,-0.0036674817,-0.011002445,0.001222494,0.0,1.096,-2.7478,-9.3497,-0.090954,0.240102,0.629233,-0.983896,0.093021,-0.069637,2017-07-24 01:12:44,-2.6993726714556807
1.226,-3.042,-9.247,-0.0073349634,-0.001222494,-0.0061124694,0.0,1.0933,-2.748,-9.35,-0.103611,0.229961,0.637964,-0.983871,0.093359,-0.069547,2017-07-24 01:12:45,-2.446314018807979
1.224,-3.04,-9.247,0.001222494,0.0,0.0,0.0,1.0953,-2.7517,-9.3487,-0.091603,0.245226,0.649298,-0.98384,0.093327,-0.069667,2017-07-24 01:12:46,-1.2043823538162353
1.225,-3.04,-9.248,-0.0073349634,-0.009779952,-0.002444988,0.0,1.0927,-2.753,-9.3486,-0.094247,0.224933,0.649369,-0.983879,0.092895,-0.069478,2017-07-24 01:12:47,-2.9597019689457893
1.225,-3.042,-9.247,-0.009779952,-0.001222494,-0.011002445,0.0,1.0917,-2.7492,-9.3498,-0.095261,0.228727,0.629134,-0.984036,0.091552,-0.06922,2017-07-24 01:12:48,-2.2213158549864427
1.226,-3.041,-9.248,-0.0073349634,-0.001222494,-0.004889976,0.0,1.0974,-2.7471,-9.3498,-0.079509,0.230842,0.667184,-0.984123,0.090606,-0.069374,2017-07-24 01:12:49,-0.7128018019114548
1.227,-3.045,-9.248,-0.0036674817,-0.01589242,-0.004889976,0.0,1.0911,-2.7561,-9.3479,-0.095836,0.240876,0.640084,-0.984126,0.090034,-0.069016,2017-07-24 01:12:50,0.09646725039030382
1.226,-3.046,-9.247,-0.004889976,0.002444988,-0.002444988,0.0,1.0984,-2.7488,-9.3491,-0.098511,0.25813,0.648805,-0.984219,0.089381,-0.069266,2017-07-24 01:12:51,0.09646725039030382
1.226,-3.044,-9.248,-0.004889976,-0.0073349634,-0.004889976,0.0,1.0947,-2.7516,-9.3488,-0.082227,0.236343,0.639188,-0.9842,0.08948,-0.069102,2017-07-24 01:12:52,-1.8487383887198883
1.224,-3.046,-9.247,-0.0073349634,-0.004889976,-0.004889976,0.0,1.0909,-2.7499,-9.3497,-0.086037,0.228083,0.638233,-0.984122,0.090605,-0.069052,2017-07-24 01:12:53,-1.9538677536473803
1.226,-3.044,-9.248,-0.0036674817,-0.009779952,-0.0061124694,0.0,1.0964,-2.7488,-9.3494,-0.090599,0.258164,0.638552,-0.983982,0.092022,-0.069523,2017-07-24 01:12:54,-2.4240234062172132
1.224,-3.043,-9.248,-0.013447433,-0.0085574575,-0.001222494,0.0,1.0898,-2.7535,-9.3488,-0.087149,0.22444,0.639175,-0.984003,0.091624,-0.069155,2017-07-24 01:12:55,-2.8275869961125553
1.225,-3.043,-9.248,-0.0085574575,-0.01589242,-0.001222494,0.0,1.0882,-2.754,-9.3488,-0.098767,0.242981,0.63912,-0.984009,0.091575,-0.069067,2017-07-24 01:12:56,-1.9805525983944272
1.224,-3.044,-9.248,-0.002444988,-0.0073349634,-0.009779952,0.0,1.0928,-2.7528,-9.3486,-0.104188,0.244139,0.630314,-0.984037,0.091212,-0.069247,2017-07-24 01:12:57,-2.041199826559248
1.225,-3.045,-9.247,-0.004889976,0.0061124694,-0.0085574575,0.0,1.0946,-2.7522,-9.3486,-0.073379,0.254782,0.611336,-0.984017,0.091426,-0.069367,2017-07-24 01:12:58,-1.0074392739863665
1.226,-3.044,-9.244,-0.011002445,-0.012224939,-0.002444988,0.0,1.0945,-2.7487,-9.3496,-0.082458,0.23922,0.629316,-0.984088,0.090949,-0.069278,2017-07-24 01:13:00,-1.523646919203829
1.226,-3.044,-9.248,-0.004889976,-0.0061124694,-0.009779952,0.0,1.0976,-2.75,-9.3489,-0.079319,0.237926,0.649066,-0.983994,0.091754,-0.069558,2017-07-24 01:13:01,-2.2926301801868014
1.226,-3.045,-9.25,-0.0036674817,-0.009779952,-0.011002445,0.0,1.0924,-2.7533,-9.3485,-0.113528,0.224632,0.620423,-0.983954,0.092077,-0.069352,2017-07-24 01:13:02,-2.9262945363754977
1.225,-3.045,-9.246,-0.004889976,-0.01589242,-0.014669927,0.0,1.0879,-2.7551,-9.3485,-0.089,0.222819,0.639436,-0.984044,0.091111,-0.068997,2017-07-24 01:13:03,-2.357829909112624
1.226,-3.045,-9.246,-0.002444988,-0.017114915,-0.0073349634,0.0,1.0947,-2.7517,-9.3487,-0.12121,0.245264,0.620214,-0.984122,0.090323,-0.06922,2017-07-24 01:13:04,-3.5228855998269952
1.224,-3.046,-9.248,-0.002444988,-0.01589242,-0.002444988,0.0,1.0902,-2.7527,-9.349,-0.115758,0.23522,0.638991,-0.984183,0.089721,-0.068908,2017-07-24 01:13:05,-2.544251009673206
1.225,-3.047,-9.247,-0.0036674817,-0.0085574575,-0.001222494,0.0,1.0883,-2.7537,-9.3489,-0.098612,0.253261,0.630057,-0.984243,0.08904,-0.068723,2017-07-24 01:13:06,-3.2905871926422474
1.226,-3.049,-9.248,-0.0036674817,-0.0085574575,-0.0085574575,0.0,1.0968,-2.749,-9.3493,-0.090173,0.247986,0.638652,-0.984189,0.089745,-0.069231,2017-07-24 01:13:07,-2.350536968995755
1.226,-3.048,-9.248,-0.001222494,-0.017114915,-0.0036674817,0.0,1.0936,-2.7549,-9.3479,-0.083368,0.242099,0.650012,-0.984019,0.091212,-0.069301,2017-07-24 01:13:08,-2.2854458198734307
1.225,-3.05,-9.248,0.0,-0.0061124694,-0.0061124694,0.0,1.0904,-2.7495,-9.3499,-0.115524,0.238468,0.629062,-0.984028,0.091664,-0.069171,2017-07-24 01:13:09,-3.1132995230379312
1.225,-3.048,-9.248,-0.002444988,0.0,-0.002444988,0.0,1.0998,-2.7507,-9.3484,-0.058181,0.246238,0.639518,-0.983942,0.092181,-0.069732,2017-07-24 01:13:10,-2.307034653819874
1.225,-3.049,-9.248,-0.0061124694,-0.012224939,-0.009779952,0.0,1.095,-2.7519,-9.3487,-0.072925,0.245092,0.649298,-0.983987,0.091759,-0.069435,2017-07-24 01:13:11,-1.5417551239751162
1.225,-3.049,-9.247,-0.0085574575,-0.0061124694,-0.0036674817,0.0,1.0923,-2.7548,-9.3481,-0.113647,0.233199,0.639833,-0.984009,0.091369,-0.069256,2017-07-24 01:13:12,-3.148182801496145
1.226,-3.049,-9.247,-0.0036674817,-0.009779952,-0.004889976,0.0,1.0926,-2.7502,-9.3494,-0.094328,0.237731,0.648535,-0.984026,0.091552,-0.069273,2017-07-24 01:13:13,-1.9939567597111156
1.225,-3.048,-9.248,-0.0073349634,-0.0036674817,-0.002444988,0.0,1.0869,-2.7531,-9.3492,-0.110079,0.234841,0.619715,-0.984167,0.089969,-0.068773,2017-07-24 01:13:14,-2.4537697198992348
1.227,-3.049,-9.248,-0.0073349634,-0.01589242,-0.002444988,0.0,1.0856,-2.7481,-9.3508,-0.101318,0.248809,0.62811,-0.984303,0.08893,-0.068539,2017-07-24 01:13:15,-2.4687196307687467
1.226,-3.049,-9.248,-0.002444988,-0.009779952,0.001222494,0.0,1.0982,-2.7554,-9.3472,-0.069784,0.241564,0.631706,-0.984283,0.088124,-0.069112,2017-07-24 01:13:16,-1.9405865664802888
1.223,-3.05,-9.249,0.0,-0.012224939,-0.004889976,0.0,1.0839,-2.7505,-9.3503,-0.093034,0.246458,0.657602,-0.984368,0.088074,-0.068344,2017-07-24 01:13:17,-2.6914835778802693
1.224,-3.047,-9.248,-0.011002445,-0.014669927,-0.0085574575,0.0,1.0895,-2.7546,-9.3485,-0.09743,0.233329,0.63047,-0.984325,0.088015,-0.068646,2017-07-24 01:13:18,-2.491241434840805
1.226,-3.048,-9.248,-0.0061124694,-0.002444988,-0.0085574575,0.0,1.0953,-2.7545,-9.3479,-0.08167,0.233494,0.640093,-0.984238,0.088797,-0.069051,2017-07-24 01:13:19,-2.1720835646323176
1.226,-3.049,-9.248,0.0,-0.0073349634,-0.004889976,0.0,1.0966,-2.7512,-9.3486,-0.090305,0.255719,0.630304,-0.984081,0.090746,-0.069375,2017-07-24 01:13:20,-1.0612558835564845
1.225,-3.05,-9.248,-0.001222494,0.0,-0.0061124694,0.0,1.0971,-2.7543,-9.3477,-0.089894,0.252672,0.631249,-0.984022,0.091121,-0.069464,2017-07-24 01:13:21,-2.976502550126006
1.226,-3.048,-9.248,-0.001222494,-0.0073349634,-0.0073349634,0.0,1.0951,-2.7458,-9.3504,-0.10188,0.24213,0.637528,-0.984109,0.090941,-0.069291,2017-07-24 01:13:22,-2.068428409913981
1.228,-3.046,-9.246,-0.002444988,-0.004889976,-0.002444988,0.0,1.0929,-2.7525,-9.3487,-0.113014,0.235425,0.620251,-0.984068,0.090897,-0.069211,2017-07-24 01:13:23,-2.1860930761969395
1.227,-3.049,-9.247,-0.0085574575,-0.011002445,-0.012224939,0.0,1.0947,-2.7513,-9.3488,-0.082253,0.245609,0.620107,-0.984003,0.091643,-0.069399,2017-07-24 01:13:24,-1.914145420458021
1.226,-3.049,-9.248,-0.0036674817,-0.004889976,-0.002444988,0.0,1.0891,-2.7569,-9.3479,-0.097826,0.24008,0.621086,-0.984077,0.090571,-0.068992,2017-07-24 01:13:25,-2.6056364107075085
1.226,-3.049,-9.246,-0.0085574575,-0.0085574575,-0.004889976,0.0,1.0887,-2.755,-9.3485,-0.098207,0.232965,0.649485,-0.984161,0.089825,-0.068859,2017-07-24 01:13:26,-1.8878642823503884
1.225,-3.05,-9.248,-0.0085574575,-0.001222494,-0.001222494,0.0,1.093,-2.7527,-9.3486,-0.083915,0.254224,0.630321,-0.984179,0.089668,-0.069047,2017-07-24 01:13:27,-1.8813187727179446
1.227,-3.05,-9.248,-0.0061124694,-0.011002445,0.0,0.0,1.0916,-2.7551,-9.3481,-0.095383,0.241863,0.659845,-0.984247,0.088768,-0.068859,2017-07-24 01:13:28,-2.3432562551044285
1.225,-3.049,-9.249,-0.004889976,-0.001222494,-0.004889976,0.0,1.0887,-2.7521,-9.3493,-0.098263,0.235876,0.629623,-0.984347,0.088007,-0.068589,2017-07-24 01:13:29,-2.2926301801868014
1.225,-3.045,-9.248,-0.0085574575,0.004889976,-0.011002445,0.0,1.0919,-2.7563,-9.3477,-0.095036,0.240633,0.621248,-0.984374,0.08723,-0.06867,2017-07-24 01:13:30,-1.7843018235931027
1.226,-3.046,-9.246,-0.002444988,-0.0073349634,-0.0036674817,0.0,1.0925,-2.7535,-9.3485,-0.104408,0.243472,0.639485,-0.98435,0.087723,-0.068756,2017-07-24 01:13:31,-0.2577264329601939
1.225,-3.044,-9.246,0.001222494,-0.014669927,-0.0061124694,0.0,1.094,-2.7476,-9.35,-0.092977,0.249312,0.618933,-0.98431,0.088625,-0.068924,2017-07-24 01:13:32,-0.46040326442963025
1.227,-3.045,-9.247,-0.009779952,-0.004889976,-0.002444988,0.0,1.0984,-2.7502,-9.3487,-0.088527,0.246731,0.649215,-0.984156,0.08995,-0.069351,2017-07-24 01:13:34,-2.314254846370724
1.225,-3.045,-9.248,-0.009779952,-0.014669927,-0.0061124694,0.0,1.0913,-2.7572,-9.3475,-0.085618,0.230792,0.631429,-0.9842,0.089125,-0.068907,2017-07-24 01:13:35,-2.1027059739567764
1.225,-3.045,-9.247,-0.004889976,-0.002444988,-0.001222494,0.0,1.0855,-2.7532,-9.3494,-0.111458,0.243709,0.648595,-0.984297,0.088576,-0.068509,2017-07-24 01:13:36,-2.6444476146608302
1.224,-3.048,-9.247,-0.004889976,-0.0061124694,-0.002444988,0.0,1.0964,-2.7538,-9.3479,-0.090543,0.243195,0.63102,-0.984279,0.08836,-0.069045,2017-07-24 01:13:37,-1.0127910242865592
1.225,-3.049,-9.245,-0.002444988,-0.012224939,-0.0036674817,0.0,1.0985,-2.7538,-9.3477,-0.088463,0.234185,0.631266,-0.984175,0.089444,-0.069303,2017-07-24 01:13:38,-2.299826444996606
1.225,-3.05,-9.248,-0.002444988,-0.0061124694,0.002444988,0.0,1.0995,-2.7502,-9.3486,-0.077495,0.246745,0.630332,-0.984124,0.090266,-0.069448,2017-07-24 01:13:39,-2.3287313425050056
1.228,-3.049,-9.245,-0.001222494,-0.017114915,-0.0036674817,0.0,1.0959,-2.7567,-9.3471,-0.081003,0.240247,0.640835,-0.984164,0.089409,-0.069183,2017-07-24 01:13:40,-1.8813187727179446
1.227,-3.05,-9.242,-0.002444988,-0.004889976,-0.0036674817,0.0,1.0919,-2.7577,-9.3473,-0.114071,0.249211,0.621663,-0.984234,0.088683,-0.068877,2017-07-24 01:13:41,-3.2099109751619173
1.227,-3.049,-9.239,-0.004889976,-0.01589242,-0.0036674817,0.0,1.0899,-2.7573,-9.3476,-0.087008,0.239636,0.631313,-0.984288,0.088184,-0.068706,2017-07-24 01:13:42,-2.6914835778802693
1.225,-3.049,-9.242,-0.0036674817,-0.0061124694,-0.0036674817,0.0,1.0928,-2.7558,-9.3478,-0.113117,0.232182,0.640193,-0.984295,0.088136,-0.06884,2017-07-24 01:13:43,-1.187624989672475
1.226,-3.05,-9.245,0.0,-0.011002445,-0.004889976,0.0,1.0929,-2.7502,-9.3494,-0.094078,0.237766,0.629554,-0.984192,0.089745,-0.069036,2017-07-24 01:13:44,-0.2712488460199899
1.226,-3.049,-9.248,-0.001222494,-0.001222494,-0.002444988,0.0,1.0953,-2.7517,-9.3487,-0.101626,0.245226,0.639294,-0.984076,0.090799,-0.069317,2017-07-24 01:13:45,-0.1996110185221051
1.226,-3.048,-9.246,-0.002444988,-0.017114915,-0.0085574575,0.0,1.0956,-2.7486,-9.3495,-0.101389,0.24832,0.658413,-0.98407,0.091116,-0.069356,2017-07-24 01:13:46,-0.6335668594198652
1.226,-3.049,-9.24,-0.004889976,-0.014669927,0.0,0.0,1.0969,-2.7521,-9.3484,-0.1,0.235838,0.630599,-0.984104,0.09041,-0.069349,2017-07-24 01:13:47,-2.9933683764453622
1.225,-3.048,-9.238,-0.009779952,-0.012224939,-0.0085574575,0.0,1.098,-2.7569,-9.3468,-0.078922,0.231084,0.632126,-0.98404,0.090675,-0.069466,2017-07-24 01:13:48,-1.4224359481677038
1.225,-3.05,-9.238,-0.011002445,-0.011002445,-0.0036674817,0.0,1.0956,-2.7563,-9.3473,-0.091385,0.231621,0.621678,-0.984074,0.090433,-0.069303,2017-07-24 01:13:49,-1.6644453401665085
1.225,-3.05,-9.237,-0.012224939,-0.0073349634,-0.002444988,0.0,1.096,-2.7527,-9.3483,-0.080902,0.254225,0.630674,-0.984039,0.091093,-0.0694,2017-07-24 01:13:50,-0.4181700808587684
1.226,-3.049,-9.241,0.002444988,-0.0073349634,0.001222494,0.0,1.1005,-2.7588,-9.346,-0.086496,0.238178,0.641975,-0.983954,0.091364,-0.069698,2017-07-24 01:13:51,-1.2777541868493147
1.225,-3.049,-9.239,-0.002444988,-0.012224939,-0.0085574575,0.0,1.0943,-2.7519,-9.3487,-0.092644,0.226076,0.630219,-0.98404,0.091212,-0.069322,2017-07-24 01:13:52,0.7212634422095994
1.225,-3.05,-9.243,0.002444988,-0.0036674817,0.002444988,0.0,1.0828,-2.7537,-9.3495,-0.094186,0.243282,0.658403,-0.984152,0.090225,-0.068599,2017-07-24 01:13:53,2.6753837636223547
1.224,-3.048,-9.245,-0.009779952,-0.0073349634,-0.0036674817,0.0,1.0877,-2.7529,-9.3492,-0.109233,0.235026,0.63876,-0.984298,0.088513,-0.068613,2017-07-24 01:13:54,0.9961590638398133
1.224,-3.049,-9.243,0.0,-0.0085574575,-0.001222494,0.0,1.0945,-2.7537,-9.3482,-0.102498,0.243254,0.630773,-0.984305,0.088144,-0.068914,2017-07-24 01:13:55,-0.6433925306224336
1.225,-3.047,-9.242,-0.0061124694,-0.018337408,-0.0061124694,0.0,1.0943,-2.7534,-9.3483,-0.092613,0.262568,0.639668,-0.984215,0.089175,-0.069049,2017-07-24 01:13:56,-0.5750751359571986
1.225,-3.05,-9.24,-0.004889976,-0.02200489,-0.001222494,0.0,1.0972,-2.7531,-9.348,-0.070757,0.234811,0.63093,-0.984098,0.090386,-0.069363,2017-07-24 01:13:57,-0.8550396084189977
1.225,-3.049,-9.242,-0.001222494,-0.011002445,-0.0073349634,0.0,1.0964,-2.7519,-9.3485,-0.08053,0.245077,0.639466,-0.984053,0.090999,-0.069402,2017-07-24 01:13:58,-0.3902410790170673
1.225,-3.05,-9.243,-0.0036674817,-0.0073349634,-0.001222494,0.0,1.0971,-2.7536,-9.3479,-0.108831,0.234343,0.621058,-0.984035,0.091032,-0.069452,2017-07-24 01:13:59,-0.8447238201506962
1.226,-3.049,-9.248,0.001222494,-0.0061124694,-0.0085574575,0.0,1.0888,-2.7546,-9.3486,-0.108168,0.233363,0.630372,-0.984038,0.091187,-0.069048,2017-07-24 01:14:00,-0.5654026490658318
1.225,-3.051,-9.248,-0.002444988,-0.014669927,-0.0061124694,0.0,1.0981,-2.7516,-9.3484,-0.069822,0.245389,0.649574,-0.984019,0.09134,-0.069535,2017-07-24 01:14:01,0.2029976532613913
1.224,-3.05,-9.247,-0.0073349634,-0.014669927,-0.001222494,0.0,1.0926,-2.7511,-9.3492,-0.09435,0.245899,0.619777,-0.984038,0.091351,-0.069249,2017-07-24 01:14:02,-1.572104267879464
1.225,-3.049,-9.246,-0.0085574575,-0.013447433,-0.0073349634,0.0,1.0934,-2.7515,-9.3489,-0.093562,0.245417,0.649012,-0.983997,0.09173,-0.069344,2017-07-24 01:14:03,-1.300581807443316
1.225,-3.049,-9.244,-0.004889976,-0.004889976,-0.0085574575,0.0,1.0822,-2.755,-9.3492,-0.114717,0.251926,0.629741,-0.984101,0.090681,-0.068642,2017-07-24 01:14:04,-0.8809367920079556
1.225,-3.048,-9.244,-0.0061124694,-0.0073349634,-0.0036674817,0.0,1.0949,-2.7566,-9.3473,-0.092098,0.240343,0.640678,-0.984171,0.089372,-0.06912,2017-07-24 01:14:05,-0.6978347170724474
1.225,-3.049,-9.238,-0.009779952,-0.0036674817,-0.004889976,0.0,1.101,-2.7547,-9.3471,-0.08598,0.233262,0.621831,-0.984047,0.090679,-0.069607,2017-07-24 01:14:06,-1.2493873660829995
1.227,-3.05,-9.24,-0.0073349634,-0.014669927,-0.011002445,0.0,1.0968,-2.7538,-9.3479,-0.090139,0.243142,0.650084,-0.98401,0.091289,-0.069472,2017-07-24 01:14:07,-1.5904160792073665
1.226,-3.049,-9.238,-0.0036674817,-0.0085574575,-0.0085574575,0.0,1.0932,-2.7552,-9.3479,-0.103767,0.241725,0.640074,-0.983985,0.091561,-0.06933,2017-07-24 01:14:09,-2.047990984814118
1.226,-3.049,-9.239,-0.0036674817,-0.013447433,-0.0073349634,0.0,1.096,-2.7546,-9.3477,-0.100944,0.252317,0.631231,-0.983958,0.091813,-0.069508,2017-07-24 01:14:10,-2.2213158549864427
1.225,-3.049,-9.239,-0.0036674817,-0.017114915,-0.009779952,0.0,1.0936,-2.7538,-9.3482,-0.103342,0.26211,0.630716,-0.984062,0.090838,-0.069245,2017-07-24 01:14:11,-1.1267286534937053
1.228,-3.05,-9.24,-0.004889976,-0.020782396,-0.004889976,0.0,1.088,-2.7525,-9.3493,-0.088958,0.235471,0.62966,-0.98417,0.089951,-0.068825,2017-07-24 01:14:12,-1.63344631619988
1.226,-3.05,-9.243,-0.004889976,0.0061124694,-0.004889976,0.0,1.0888,-2.7542,-9.3487,-0.108118,0.252707,0.630277,-0.984228,0.089143,-0.068765,2017-07-24 01:14:13,-0.055488010488108884
1.225,-3.048,-9.244,-0.0036674817,-0.014669927,-0.001222494,0.0,1.0926,-2.7585,-9.347,-0.094332,0.229401,0.650989,-0.984221,0.08873,-0.068926,2017-07-24 01:14:14,-2.5290392784678777
1.226,-3.05,-9.242,0.0,-0.013447433,-0.004889976,0.0,1.0926,-2.7532,-9.3485,-0.084331,0.253716,0.649423,-0.984314,0.088145,-0.068817,2017-07-24 01:14:15,-1.9939567597111156
1.225,-3.05,-9.243,-0.0085574575,-0.0085574575,-0.0085574575,0.0,1.0918,-2.7577,-9.3473,-0.095131,0.239231,0.640652,-0.984308,0.087859,-0.06876,2017-07-24 01:14:16,-2.9680941354586943
1.225,-3.05,-9.245,-0.0036674817,-0.013447433,-0.004889976,0.0,1.0911,-2.7529,-9.3488,-0.10583,0.244004,0.649162,-0.9844,0.087261,-0.068616,2017-07-24 01:14:17,-0.9754665296848896
1.227,-3.05,-9.247,-0.0036674817,-0.001222494,0.001222494,0.0,1.0854,-2.7514,-9.3499,-0.10152,0.226562,0.63804,-0.984361,0.088016,-0.068419,2017-07-24 01:14:18,-0.839575100141569
1.226,-3.049,-9.248,-0.009779952,-0.009779952,-0.0036674817,0.0,1.098,-2.7552,-9.3473,-0.07893,0.24171,0.631646,-0.984299,0.087961,-0.069081,2017-07-24 01:14:19,-2.8931421248607285
1.226,-3.049,-9.248,-0.002444988,0.002444988,-0.0085574575,0.0,1.0926,-2.7527,-9.3487,-0.084322,0.235292,0.639254,-0.984177,0.089715,-0.069032,2017-07-24 01:14:20,-1.7271151840430066
1.227,-3.049,-9.248,-0.0036674817,-0.019559903,-0.0036674817,0.0,1.0936,-2.7542,-9.3481,-0.09331,0.252743,0.639829,-0.984086,0.090538,-0.069207,2017-07-24 01:14:21,-1.9939567597111156
1.224,-3.049,-9.248,-0.004889976,-0.01589242,-0.009779952,0.0,1.0848,-2.7544,-9.3491,-0.102115,0.252506,0.629872,-0.984144,0.090185,-0.068705,2017-07-24 01:14:22,-2.299826444996606
1.224,-3.05,-9.247,0.002444988,-0.004889976,-0.011002445,0.0,1.0957,-2.7542,-9.3479,-0.091278,0.242793,0.660051,-0.984135,0.08994,-0.069228,2017-07-24 01:14:23,-0.6139819566959825
1.225,-3.049,-9.247,-0.001222494,-0.0036674817,-0.0036674817,0.0,1.0922,-2.7528,-9.3487,-0.104715,0.244126,0.620257,-0.984175,0.089734,-0.069015,2017-07-24 01:14:24,-1.0666744055557429
1.225,-3.049,-9.248,-0.009779952,-0.0036674817,-0.001222494,0.0,1.092,-2.756,-9.3478,-0.104914,0.25098,0.63116,-0.984221,0.088971,-0.068916,2017-07-24 01:14:25,0.08400542026431401
1.226,-3.049,-9.247,-0.011002445,-0.0061124694,-0.0061124694,0.0,1.0889,-2.7587,-9.3473,-0.079002,0.23825,0.621605,-0.984295,0.088011,-0.068638,2017-07-24 01:14:26,-1.6149525558800821
1.226,-3.048,-9.245,-0.0061124694,-0.013447433,-0.001222494,0.0,1.0893,-2.7601,-9.3469,-0.097621,0.227872,0.641057,-0.984296,0.087879,-0.068646,2017-07-24 01:14:27,-2.6056364107075085
1.225,-3.049,-9.244,0.001222494,-0.013447433,-0.0061124694,0.0,1.098,-2.7578,-9.3466,-0.098987,0.239169,0.651388,-0.984231,0.088508,-0.069167,2017-07-24 01:14:28,-1.6272729749769974
1.225,-3.05,-9.246,-0.011002445,-0.009779952,-0.0036674817,0.0,1.0957,-2.7551,-9.3476,-0.091281,0.260878,0.64032,-0.984102,0.090226,-0.069273,2017-07-24 01:14:29,-3.139435679064798
1.227,-3.05,-9.246,-0.011002445,-0.011002445,-0.004889976,0.0,1.094,-2.7542,-9.3481,-0.102966,0.25277,0.639861,-0.984042,0.091007,-0.069289,2017-07-24 01:14:30,-1.1157477505031845
1.226,-3.051,-9.247,-0.002444988,-0.0085574575,-0.009779952,0.0,1.0919,-2.7525,-9.3488,-0.095038,0.235435,0.620128,-0.984075,0.090859,-0.069153,2017-07-24 01:14:31,-3.2635282588829977
1.226,-3.049,-9.248,-0.017114915,-0.01589242,-0.0073349634,0.0,1.0901,-2.7573,-9.3476,-0.106844,0.249611,0.640339,-0.984097,0.090274,-0.069004,2017-07-24 01:14:32,-1.4165551824498621
1.226,-3.051,-9.248,-0.011002445,-0.01589242,-0.0036674817,0.0,1.0932,-2.7566,-9.3475,-0.093788,0.231342,0.631481,-0.984069,0.090539,-0.069195,2017-07-24 01:14:33,-1.8878642823503884
1.227,-3.05,-9.247,-0.011002445,-0.013447433,-0.011002445,0.0,1.0958,-2.7554,-9.3475,-0.081107,0.232504,0.63145,-0.98409,0.090323,-0.069297,2017-07-24 01:14:34,-1.5904160792073665
1.223,-3.049,-9.248,-0.004889976,-0.0085574575,-0.001222494,0.0,1.0831,-2.7552,-9.3491,-0.093846,0.241748,0.648894,-0.984259,0.088915,-0.068443,2017-07-24 01:14:35,-0.12476875894086498
1.226,-3.05,-9.248,-0.001222494,-0.017114915,-0.004889976,0.0,1.0892,-2.7561,-9.3481,-0.08777,0.2318,0.639881,-0.984234,0.088908,-0.068761,2017-07-24 01:14:36,-0.7078070402119342
1.226,-3.048,-9.248,0.0,-0.0085574575,-0.0036674817,0.0,1.0874,-2.7574,-9.3479,-0.099552,0.249559,0.660039,-0.984254,0.088642,-0.068638,2017-07-24 01:14:37,-1.9805525983944272
1.225,-3.05,-9.248,0.0,-0.018337408,-0.0061124694,0.0,1.0876,-2.761,-9.3468,-0.109387,0.235948,0.651123,-0.984288,0.087947,-0.068569,2017-07-24 01:14:38,-1.5296746020854348
1.226,-3.05,-9.247,-0.0061124694,-0.004889976,-0.0036674817,0.0,1.0999,-2.7595,-9.3458,-0.087097,0.247448,0.65212,-0.984183,0.088825,-0.069318,2017-07-24 01:14:40,-0.5557516566074898
1.226,-3.05,-9.248,-0.009779952,-0.01589242,-0.0085574575,0.0,1.0954,-2.7567,-9.3472,-0.091503,0.240219,0.640784,-0.984115,0.089959,-0.069233,2017-07-24 01:14:41,0.2272148804309872
1.226,-3.05,-9.247,-0.0036674817,-0.012224939,-0.0085574575,0.0,1.0933,-2.7559,-9.3477,-0.10361,0.232066,0.640287,-0.984135,0.089883,-0.069109,2017-07-24 01:14:42,-2.498774732165999
1.225,-3.051,-9.246,-0.0036674817,-0.020782396,-0.004889976,0.0,1.0922,-2.7581,-9.3471,-0.104709,0.248844,0.640814,-0.98413,0.089783,-0.069051,2017-07-24 01:14:43,-2.660069735171357
1.223,-3.05,-9.245,0.002444988,-0.011002445,-0.0036674817,0.0,1.0866,-2.759,-9.3475,-0.100301,0.247967,0.650422,-0.984275,0.088288,-0.068559,2017-07-24 01:14:44,-0.6384769162673887
1.224,-3.05,-9.248,-0.017114915,-0.0061124694,-0.0085574575,0.0,1.0941,-2.7575,-9.3471,-0.102803,0.23045,0.612858,-0.984364,0.087164,-0.068782,2017-07-24 01:14:45,-1.446038967237414
1.225,-3.049,-9.248,-0.0036674817,-0.013447433,-0.0073349634,0.0,1.0955,-2.76,-9.3462,-0.072426,0.236994,0.641745,-0.984233,0.088376,-0.069035,2017-07-24 01:14:46,0.26727923115963004
1.227,-3.049,-9.244,-0.0036674817,-0.0085574575,0.002444988,0.0,1.0957,-2.7583,-9.3467,-0.081221,0.238662,0.632276,-0.984181,0.089094,-0.069136,2017-07-24 01:14:47,-0.05119444136031642
1.226,-3.05,-9.242,-0.0061124694,-0.0085574575,-0.0085574575,0.0,1.091,-2.7554,-9.3481,-0.09593,0.241572,0.649867,-0.984198,0.08931,-0.068907,2017-07-24 01:14:48,-2.207192444753865
1.226,-3.049,-9.24,0.001222494,-0.0073349634,-0.0036674817,0.0,1.0964,-2.7561,-9.3472,-0.080567,0.240857,0.640705,-0.984166,0.089415,-0.069203,2017-07-24 01:14:49,-1.3872702109393327
1.227,-3.05,-9.24,-0.012224939,-0.014669927,-0.009779952,0.0,1.0951,-2.7534,-9.3482,-0.091811,0.243531,0.639772,-0.984265,0.088591,-0.06901,2017-07-24 01:14:50,-1.9405865664802888
1.225,-3.049,-9.241,-0.012224939,-0.012224939,-0.0061124694,0.0,1.0905,-2.756,-9.348,-0.096487,0.24091,0.639997,-0.984215,0.089085,-0.068851,2017-07-24 01:14:51,-2.2354853449425076
1.226,-3.051,-9.241,-0.002444988,-0.01589242,-0.0036674817,0.0,1.0907,-2.7572,-9.3476,-0.096241,0.249791,0.650356,-0.984195,0.089199,-0.068885,2017-07-24 01:14:52,-0.727820646224653
1.225,-3.05,-9.246,-0.0061124694,0.0,-0.0036674817,0.0,1.099,-2.7563,-9.3469,-0.097987,0.231608,0.622081,-0.984204,0.088889,-0.069264,2017-07-24 01:14:53,-2.357829909112624
1.226,-3.049,-9.245,-0.011002445,-0.009779952,-0.0085574575,0.0,1.0992,-2.7562,-9.3469,-0.097755,0.250797,0.632053,-0.984192,0.089037,-0.069296,2017-07-24 01:14:54,-2.4240234062172132
1.228,-3.051,-9.245,0.002444988,-0.001222494,-0.001222494,0.0,1.0938,-2.7567,-9.3474,-0.083194,0.250289,0.631566,-0.984239,0.088646,-0.068963,2017-07-24 01:14:55,0.8799757985488568
1.227,-3.049,-9.246,-0.0036674817,-0.013447433,-0.0085574575,0.0,1.0922,-2.7579,-9.3472,-0.104725,0.230072,0.621744,-0.984285,0.088087,-0.068813,2017-07-24 01:14:56,-0.9595679952037118
1.228,-3.05,-9.244,0.0,-0.011002445,-0.001222494,0.0,1.0935,-2.7608,-9.3462,-0.103402,0.236191,0.61375,-0.9843,0.087631,-0.068833,2017-07-24 01:14:57,-2.461238242494812
1.226,-3.051,-9.243,-0.009779952,-0.012224939,-0.0085574575,0.0,1.0951,-2.7528,-9.3484,-0.081877,0.254167,0.639576,-0.984277,0.08851,-0.068992,2017-07-24 01:14:58,-1.9605236090789173
1.225,-3.049,-9.246,-0.004889976,-0.020782396,-0.0073349634,0.0,1.0882,-2.7557,-9.3483,-0.098718,0.25123,0.639644,-0.984226,0.089059,-0.068731,2017-07-24 01:14:59,-2.299826444996606
1.224,-3.051,-9.248,-0.004889976,-0.002444988,-0.004889976,0.0,1.0902,-2.7533,-9.3488,-0.106746,0.253606,0.620173,-0.984298,0.088399,-0.068728,2017-07-24 01:15:00,-1.002094110457438
1.226,-3.052,-9.248,-0.0036674817,-0.014669927,-0.0061124694,0.0,1.0936,-2.7562,-9.3475,-0.103368,0.240726,0.631416,-0.984212,0.088993,-0.069,2017-07-24 01:15:01,-0.6042225260293717
1.224,-3.051,-9.246,-0.001222494,-0.0085574575,0.0,0.0,1.095,-2.7594,-9.3464,-0.091918,0.218572,0.632515,-0.98423,0.088477,-0.06902,2017-07-24 01:15:02,-0.6090994999489917
1.226,-3.05,-9.245,-0.0085574575,-0.012224939,-0.0036674817,0.0,1.0947,-2.7574,-9.3471,-0.082204,0.239588,0.631888,-0.984261,0.088318,-0.068973,2017-07-24 01:15:03,-0.10299956639811952
1.226,-3.049,-9.248,-0.004889976,-0.013447433,-0.001222494,0.0,1.0947,-2.7555,-9.3476,-0.111294,0.232485,0.621317,-0.984283,0.088231,-0.068946,2017-07-24 01:15:04,0.6597629876440567
1.225,-3.05,-9.248,-0.002444988,-0.009779952,-0.004889976,0.0,1.1016,-2.758,-9.3461,-0.085367,0.238936,0.651883,-0.984238,0.088286,-0.069325,2017-07-24 01:15:05,-0.7128018019114548
1.226,-3.05,-9.247,-0.009779952,-0.02200489,-0.011002445,0.0,1.0919,-2.7601,-9.3466,-0.09506,0.236892,0.64135,-0.984247,0.08834,-0.068842,2017-07-24 01:15:06,-2.1234031290261584
1.225,-3.049,-9.248,-0.004889976,-0.009779952,-0.0073349634,0.0,1.0964,-2.7575,-9.3468,-0.100504,0.230442,0.65113,-0.984238,0.088498,-0.069086,2017-07-24 01:15:07,0.6815686141348063
1.225,-3.049,-9.248,-0.001222494,-0.0085574575,-0.0085574575,0.0,1.0979,-2.7568,-9.3469,-0.08904,0.221169,0.641089,-0.984265,0.088215,-0.069119,2017-07-24 01:15:08,-0.33949977636538536
1.229,-3.05,-9.245,-0.004889976,-0.013447433,-0.009779952,0.0,1.0974,-2.7584,-9.3464,-0.089587,0.248543,0.632503,-0.984216,0.088636,-0.069157,2017-07-24 01:15:09,-0.7681266879110651
1.229,-3.05,-9.243,-0.002444988,-0.011002445,-0.0061124694,0.0,1.0947,-2.7567,-9.3472,-0.082204,0.240202,0.621706,-0.984208,0.088957,-0.069058,2017-07-24 01:15:10,-1.8422515393898553
1.227,-3.049,-9.243,-0.0061124694,-0.012224939,-0.0061124694,0.0,1.0919,-2.7592,-9.3469,-0.114021,0.237792,0.632089,-0.984224,0.088665,-0.068885,2017-07-24 01:15:11,-0.021257726333855573
1.225,-3.051,-9.24,-0.0061124694,-0.012224939,-0.0061124694,0.0,1.0911,-2.7538,-9.3485,-0.095882,0.243167,0.630402,-0.984277,0.088567,-0.068799,2017-07-24 01:15:12,-0.19517264836674125
1.226,-3.049,-9.238,-0.009779952,-0.0073349634,-0.012224939,0.0,1.0979,-2.7567,-9.3469,-0.108015,0.231272,0.63206,-0.984275,0.088108,-0.069105,2017-07-24 01:15:13,0.17457248050741506
1.225,-3.051,-9.238,0.001222494,-0.012224939,-0.011002445,0.0,1.0943,-2.7634,-9.3453,-0.07361,0.233594,0.623612,-0.984315,0.087203,-0.068828,2017-07-24 01:15:14,-0.48404482971961565
1.226,-3.051,-9.241,-0.001222494,-0.0061124694,-0.001222494,0.0,1.0984,-2.7575,-9.3466,-0.098555,0.239481,0.632347,-0.98426,0.088187,-0.069143,2017-07-24 01:15:15,-0.4651212929425668
1.225,-3.05,-9.24,-0.004889976,-0.014669927,-0.001222494,0.0,1.0932,-2.7617,-9.346,-0.083731,0.226216,0.642,-0.984178,0.088912,-0.068999,2017-07-24 01:15:16,-0.5847692132389998
1.227,-3.049,-9.244,-0.0036674817,-0.0085574575,-0.0073349634,0.0,1.0912,-2.7504,-9.3495,-0.095784,0.237536,0.638422,-0.984253,0.089111,-0.068861,2017-07-24 01:15:17,-1.746093851473864
1.227,-3.049,-9.243,-0.0036674817,-0.012224939,-0.002444988,0.0,1.0978,-2.751,-9.3486,-0.07918,0.255917,0.630378,-0.984205,0.089372,-0.069242,2017-07-24 01:15:19,-0.7782619196265872
1.226,-3.05,-9.248,-0.0036674817,-0.004889976,-0.0061124694,0.0,1.0955,-2.7576,-9.3469,-0.101423,0.239367,0.641044,-0.984134,0.089669,-0.069202,2017-07-24 01:15:20,-0.839575100141569
1.225,-3.05,-9.248,-0.0073349634,-0.011002445,-0.002444988,0.0,1.0928,-2.7578,-9.3472,-0.094187,0.249129,0.650791,-0.984145,0.089627,-0.069054,2017-07-24 01:15:21,-0.5993510226368889
1.227,-3.05,-9.248,-0.0085574575,-0.0073349634,-0.0085574575,0.0,1.096,-2.7545,-9.3478,-0.090982,0.233401,0.6212,-0.984205,0.089137,-0.069135,2017-07-24 01:15:22,-0.39953080409718594
1.226,-3.049,-9.249,0.0,-0.0036674817,-0.012224939,0.0,1.0882,-2.7577,-9.3477,-0.108724,0.239238,0.631229,-0.984266,0.088445,-0.068655,2017-07-24 01:15:23,-0.37634364373701035
1.225,-3.05,-9.248,-0.0061124694,-0.024449877,-0.002444988,0.0,1.0904,-2.7551,-9.3482,-0.086541,0.23286,0.639712,-0.984262,0.088638,-0.068781,2017-07-24 01:15:24,0.13363961557981502
1.226,-3.051,-9.248,-0.011002445,-0.0061124694,-0.0073349634,0.0,1.1009,-2.7594,-9.3457,-0.086083,0.256534,0.642214,-0.984167,0.088979,-0.069391,2017-07-24 01:15:25,-0.6631108156604005
1.225,-3.05,-9.247,-0.004889976,-0.0036674817,-0.0036674817,0.0,1.0894,-2.7572,-9.3477,-0.087568,0.239767,0.650208,-0.984298,0.088096,-0.068664,2017-07-24 01:15:26,0.7712650039647351
1.225,-3.049,-9.248,-0.009779952,-0.013447433,-0.0036674817,0.0,1.0859,-2.7581,-9.3479,-0.082026,0.238808,0.640091,-0.984406,0.086913,-0.068326,2017-07-24 01:15:27,-1.4283246878076048
1.225,-3.046,-9.247,-0.004889976,0.004889976,-0.0061124694,0.0,1.0928,-2.757,-9.3474,-0.094151,0.249998,0.640538,-0.984308,0.08789,-0.068811,2017-07-24 01:15:28,-0.5413152616444864
1.225,-3.049,-9.247,-0.011002445,-0.0085574575,-0.009779952,0.0,1.0883,-2.7552,-9.3484,-0.08862,0.241733,0.649507,-0.984234,0.089011,-0.068726,2017-07-24 01:15:29,-1.300581807443316
1.224,-3.05,-9.245,-0.0036674817,-0.001222494,-0.001222494,0.0,1.0881,-2.754,-9.3488,-0.09886,0.242983,0.630109,-0.984203,0.089468,-0.068771,2017-07-24 01:15:30,-1.8293068358598672
1.224,-3.05,-9.246,-0.004889976,-0.012224939,-0.0036674817,0.0,1.0976,-2.7568,-9.3469,-0.089331,0.24011,0.632069,-0.984116,0.089864,-0.069333,2017-07-24 01:15:31,-0.4368896995787762
1.226,-3.049,-9.244,0.002444988,-0.011002445,-0.0061124694,0.0,1.0906,-2.7558,-9.348,-0.077313,0.232188,0.639937,-0.984263,0.088561,-0.068786,2017-07-24 01:15:32,0.4469590488932957
1.226,-3.049,-9.243,0.001222494,-0.0085574575,-0.0073349634,0.0,1.0877,-2.7602,-9.3471,-0.109287,0.22775,0.621898,-0.984368,0.087105,-0.068453,2017-07-24 01:15:33,-1.645819386731533
1.226,-3.049,-9.238,-0.001222494,-0.009779952,-0.0085574575,0.0,1.0907,-2.7594,-9.3469,-0.106268,0.237547,0.632015,-0.98443,0.086371,-0.068503,2017-07-24 01:15:34,0.02115418122620977
1.225,-3.05,-9.239,-0.002444988,-0.004889976,-0.0036674817,0.0,1.0913,-2.7549,-9.3482,-0.105696,0.242021,0.649762,-0.984459,0.086411,-0.068515,2017-07-24 01:15:35,-0.37634364373701035
1.226,-3.05,-9.241,-0.001222494,-0.004889976,-0.0085574575,0.0,1.0978,-2.755,-9.3474,-0.079193,0.241996,0.62153,-0.984352,0.087397,-0.068988,2017-07-24 01:15:36,-1.5056139044266506
1.225,-3.05,-9.242,-0.002444988,-0.0036674817,-0.0085574575,0.0,1.0894,-2.7584,-9.3474,-0.087595,0.248536,0.631568,-0.984331,0.087625,-0.068603,2017-07-24 01:15:37,-2.7951768097342278
1.225,-3.049,-9.242,-0.004889976,-0.013447433,-0.0036674817,0.0,1.0969,-2.7548,-9.3476,-0.080057,0.242129,0.63139,-0.984251,0.088566,-0.069105,2017-07-24 01:15:38,-4.03918591529207
1.225,-3.051,-9.243,-0.004889976,-0.011002445,-0.001222494,0.0,1.0952,-2.7594,-9.3464,-0.091748,0.237514,0.632553,-0.984277,0.087946,-0.068955,2017-07-24 01:15:39,-1.5116165934528114
1.225,-3.05,-9.248,-0.001222494,-0.011002445,-0.004889976,0.0,1.0874,-2.7543,-9.3488,-0.118564,0.242664,0.649121,-0.984451,0.086695,-0.068351,2017-07-24 01:15:40,-2.0889624662245683
1.227,-3.05,-9.248,-0.0061124694,-0.014669927,-0.0085574575,0.0,1.0825,-2.7592,-9.348,-0.114463,0.237794,0.649989,-0.984456,0.086376,-0.068079,2017-07-24 01:15:41,-0.016997848778943912
1.226,-3.053,-9.247,-0.002444988,-0.009779952,-0.0061124694,0.0,1.093,-2.7598,-9.3465,-0.103967,0.228121,0.63241,-0.984466,0.085847,-0.068551,2017-07-24 01:15:42,-0.727820646224653
1.225,-3.049,-9.247,-0.001222494,-0.0061124694,-0.0036674817,0.0,1.0857,-2.7577,-9.348,-0.111201,0.239251,0.620938,-0.984541,0.085414,-0.068106,2017-07-24 01:15:43,-2.75500127050965
1.225,-3.053,-9.244,-0.009779952,-0.0073349634,-0.002444988,0.0,1.0897,-2.7592,-9.3471,-0.087297,0.237742,0.650837,-0.984529,0.085293,-0.068299,2017-07-24 01:15:44,-1.7334321958026153
1.225,-3.051,-9.245,-0.004889976,-0.009779952,-0.0036674817,0.0,1.0889,-2.7608,-9.3467,-0.088098,0.246143,0.632216,-0.98456,0.084818,-0.068199,2017-07-24 01:15:45,-3.148182801496145
1.225,-3.05,-9.246,-0.0073349634,-0.0036674817,-0.014669927,0.0,1.0967,-2.7522,-9.3484,-0.080297,0.22576,0.639587,-0.98449,0.086106,-0.068737,2017-07-24 01:15:46,-1.907560210979433
1.225,-3.049,-9.242,-0.0073349634,-0.017114915,0.0,0.0,1.0812,-2.7541,-9.3496,-0.086701,0.242861,0.638352,-0.984431,0.087142,-0.068096,2017-07-24 01:15:47,-0.48404482971961565
1.221,-3.05,-9.244,-0.004889976,-0.018337408,-0.0085574575,0.0,1.0827,-2.7604,-9.3476,-0.104296,0.236534,0.650381,-0.984522,0.085511,-0.067974,2017-07-24 01:15:48,-1.3756112916714316
1.225,-3.05,-9.243,-0.0073349634,-0.0073349634,-0.004889976,0.0,1.0877,-2.757,-9.348,-0.089281,0.239988,0.639943,-0.984552,0.085294,-0.068185,2017-07-24 01:15:49,-2.2001479260657026
1.225,-3.049,-9.246,-0.0073349634,-0.0061124694,-0.002444988,0.0,1.0879,-2.7558,-9.3483,-0.099068,0.241144,0.630627,-0.984656,0.084179,-0.068035,2017-07-24 01:15:51,0.7320266319045544
1.223,-3.047,-9.247,-0.0036674817,-0.014669927,-0.002444988,0.0,1.0949,-2.7568,-9.3472,-0.102035,0.231134,0.621745,-0.984536,0.085235,-0.06855,2017-07-24 01:15:52,-0.11169415352440842
1.225,-3.05,-9.247,0.001222494,-0.0061124694,-0.004889976,0.0,1.088,-2.7555,-9.3484,-0.098909,0.232462,0.630553,-0.984449,0.086587,-0.068376,2017-07-24 01:15:53,-0.526926695797167
1.226,-3.051,-9.247,-0.009779952,0.0,-0.0085574575,0.0,1.089,-2.7607,-9.3468,-0.087941,0.236271,0.641198,-0.984446,0.08613,-0.068389,2017-07-24 01:15:54,-1.3639835877535058
1.227,-3.051,-9.245,-0.0061124694,-0.0073349634,-0.0036674817,0.0,1.0917,-2.7589,-9.3469,-0.1142,0.238,0.641007,-0.984441,0.086249,-0.068539,2017-07-24 01:15:55,-0.0943223510858504
1.226,-3.053,-9.243,-0.002444988,-0.004889976,-0.011002445,0.0,1.0936,-2.7542,-9.3481,-0.083378,0.233791,0.630806,-0.984484,0.086114,-0.068589,2017-07-24 01:15:56,1.0330919443321593
1.227,-3.051,-9.239,-0.0085574575,-0.012224939,-0.0061124694,0.0,1.0933,-2.7556,-9.3478,-0.103645,0.251375,0.660192,-0.984454,0.086344,-0.068615,2017-07-24 01:15:57,-1.1157477505031845
1.225,-3.05,-9.239,-0.012224939,-0.018337408,-0.011002445,0.0,1.093,-2.757,-9.3474,-0.093953,0.239937,0.62158,-0.9844,0.086841,-0.068675,2017-07-24 01:15:58,-1.2493873660829995
1.225,-3.051,-9.24,-0.0073349634,-0.012224939,-0.0036674817,0.0,1.0875,-2.759,-9.3474,-0.109413,0.237955,0.631529,-0.98442,0.086632,-0.068375,2017-07-24 01:15:59,-0.5557516566074898
1.226,-3.05,-9.238,-0.0036674817,-0.004889976,0.002444988,0.0,1.0915,-2.757,-9.3476,-0.085487,0.249998,0.640384,-0.984393,0.086977,-0.068615,2017-07-24 01:16:00,-1.1487741060040406
1.226,-3.05,-9.242,-0.0073349634,0.0036674817,-0.0073349634,0.0,1.0917,-2.7595,-9.3468,-0.105215,0.237452,0.641165,-0.984345,0.087293,-0.068686,2017-07-24 01:16:01,0.1254065423671585
1.226,-3.051,-9.245,-0.011002445,-0.0061124694,-0.001222494,0.0,1.0888,-2.7553,-9.3484,-0.09815,0.232678,0.620577,-0.984362,0.087564,-0.06855,2017-07-24 01:16:02,-0.9701605487939348
1.226,-3.049,-9.244,-0.011002445,-0.014669927,-0.0036674817,0.0,1.0863,-2.7543,-9.3489,-0.100685,0.25264,0.659001,-0.984361,0.087746,-0.068439,2017-07-24 01:16:03,-2.5214533467242193
1.225,-3.05,-9.246,0.0,-0.009779952,-0.004889976,0.0,1.0847,-2.7611,-9.3471,-0.102276,0.245845,0.650817,-0.984398,0.086795,-0.06826,2017-07-24 01:16:04,-1.7971128795466764
1.226,-3.049,-9.247,-0.002444988,-0.012224939,-0.0061124694,0.0,1.0923,-2.7603,-9.3465,-0.104669,0.236603,0.62248,-0.984401,0.086561,-0.068617,2017-07-24 01:16:05,-1.187624989672475
1.226,-3.049,-9.245,-0.0061124694,-0.01589242,-0.004889976,0.0,1.0915,-2.7572,-9.3475,-0.085458,0.239759,0.631457,-0.984329,0.087682,-0.068715,2017-07-24 01:16:06,-1.8617412272326297
1.226,-3.052,-9.245,-0.001222494,-0.012224939,0.0,0.0,1.0904,-2.7588,-9.3471,-0.086587,0.238109,0.631811,-0.984309,0.087804,-0.068683,2017-07-24 01:16:07,-3.3820209870409452
1.225,-3.05,-9.245,-0.009779952,-0.0073349634,-0.004889976,0.0,1.0936,-2.7583,-9.3469,-0.074372,0.219647,0.632028,-0.984329,0.087517,-0.068806,2017-07-24 01:16:08,-2.357829909112624
1.225,-3.05,-9.243,-0.0061124694,-0.001222494,-0.001222494,0.0,1.0942,-2.7579,-9.347,-0.092797,0.258056,0.621975,-0.984308,0.087758,-0.068867,2017-07-24 01:16:09,-0.6384769162673887
1.225,-3.049,-9.242,-0.009779952,0.0061124694,-0.0036674817,0.0,1.0874,-2.7573,-9.3479,-0.099544,0.239624,0.640021,-0.984339,0.087696,-0.068507,2017-07-24 01:16:10,0.9724917310487435
1.226,-3.051,-9.243,-0.0061124694,-0.001222494,-0.0036674817,0.0,1.0959,-2.7553,-9.3475,-0.091024,0.251601,0.640432,-0.984303,0.08798,-0.068976,2017-07-24 01:16:11,0.04220582118111749
1.225,-3.049,-9.241,-0.004889976,0.002444988,0.0,0.0,1.0951,-2.7606,-9.3461,-0.08184,0.227317,0.661896,-0.984186,0.08886,-0.069084,2017-07-24 01:16:12,-1.8617412272326297
1.225,-3.05,-9.238,-0.011002445,-0.004889976,-0.0073349634,0.0,1.0913,-2.7576,-9.3474,-0.076664,0.230324,0.640561,-0.984183,0.089268,-0.068927,2017-07-24 01:16:13,-2.242587463972577
1.226,-3.051,-9.24,-0.002444988,-0.0036674817,-0.004889976,0.0,1.0963,-2.7563,-9.3472,-0.100627,0.250642,0.631761,-0.984218,0.088826,-0.069119,2017-07-24 01:16:14,-0.1774643880767633
1.226,-3.05,-9.24,-0.001222494,-0.009779952,-0.004889976,0.0,1.086,-2.7582,-9.3478,-0.100984,0.238756,0.650109,-0.984262,0.088526,-0.068553,2017-07-24 01:16:15,1.646316368886306
1.226,-3.049,-9.241,-0.011002445,-0.014669927,-0.0036674817,0.0,1.0848,-2.7635,-9.3464,-0.121114,0.26244,0.641549,-0.984298,0.087704,-0.068408,2017-07-24 01:16:16,-1.4224359481677038
1.225,-3.05,-9.241,-0.001222494,-0.009779952,0.0,0.0,1.0891,-2.7575,-9.3477,-0.107895,0.249484,0.612253,-0.984404,0.086896,-0.068482,2017-07-24 01:16:17,-1.0127910242865592
1.225,-3.049,-9.241,-0.004889976,-0.013447433,-0.001222494,0.0,1.0797,-2.7603,-9.3479,-0.107215,0.236629,0.640016,-0.984428,0.086694,-0.067987,2017-07-24 01:16:18,-0.628662347527612
1.226,-3.05,-9.245,-0.012224939,-0.011002445,-0.001222494,0.0,1.0825,-2.7532,-9.3497,-0.10445,0.272741,0.648238,-0.984528,0.086075,-0.068007,2017-07-24 01:16:19,-2.787111914530733
1.225,-3.05,-9.247,-0.0061124694,-0.009779952,-0.002444988,0.0,1.0878,-2.7598,-9.3471,-0.089131,0.237117,0.621809,-0.984533,0.085256,-0.068202,2017-07-24 01:16:20,1.1485587294071822
1.225,-3.049,-9.242,-0.002444988,-0.0061124694,-0.0061124694,0.0,1.0838,-2.7601,-9.3475,-0.093169,0.236894,0.631404,-0.984601,0.084582,-0.067901,2017-07-24 01:16:21,-0.0255217863907201
1.226,-3.052,-9.246,-0.0061124694,-0.011002445,-0.004889976,0.0,1.0929,-2.7579,-9.3471,-0.094045,0.239016,0.640841,-0.984565,0.084871,-0.068402,2017-07-24 01:16:22,-2.2926301801868014
1.225,-3.049,-9.248,-0.0073349634,-0.0073349634,-0.0036674817,0.0,1.0847,-2.7589,-9.3478,-0.092284,0.24808,0.640157,-0.984568,0.085037,-0.068004,2017-07-24 01:16:23,-0.38560365752033693
1.225,-3.05,-9.244,-0.002444988,-0.019559903,-0.0073349634,0.0,1.086,-2.7553,-9.3487,-0.090993,0.241621,0.639263,-0.984543,0.085602,-0.068131,2017-07-24 01:16:24,0.4046635459323033
1.225,-3.051,-9.241,-0.0061124694,-0.011002445,-0.011002445,0.0,1.0937,-2.7583,-9.3469,-0.083216,0.248626,0.632051,-0.984502,0.085539,-0.068539,2017-07-24 01:16:25,-0.34868148130549004
1.226,-3.05,-9.241,-0.0036674817,-0.0073349634,-0.004889976,0.0,1.0907,-2.7548,-9.3483,-0.106237,0.252146,0.630663,-0.984412,0.086975,-0.068565,2017-07-24 01:16:26,-1.1653819458186856
1.225,-3.051,-9.24,-0.0073349634,-0.02200489,-0.0036674817,0.0,1.0919,-2.7515,-9.3491,-0.095079,0.245415,0.638835,-0.984371,0.087675,-0.068705,2017-07-24 01:16:27,-0.7428916092460236
1.226,-3.05,-9.24,-0.013447433,-0.0061124694,-0.0061124694,0.0,1.0867,-2.7565,-9.3483,-0.100212,0.221452,0.630699,-0.984278,0.088472,-0.068576,2017-07-24 01:16:28,-0.9860979788595081
1.226,-3.049,-9.243,-0.009779952,-0.013447433,-0.0085574575,0.0,1.0812,-2.7592,-9.3481,-0.10577,0.237721,0.63986,-0.984293,0.088258,-0.068274,2017-07-24 01:16:29,-3.5999243350787546
1.226,-3.05,-9.242,-0.011002445,-0.0085574575,-0.009779952,0.0,1.0871,-2.7593,-9.3474,-0.099868,0.2376,0.631581,-0.984397,0.086879,-0.068387,2017-07-24 01:16:30,-0.783338419116393
1.225,-3.05,-9.243,-0.0036674817,-0.012224939,-0.0085574575,0.0,1.0971,-2.7563,-9.3471,-0.079825,0.240664,0.631849,-0.984318,0.087689,-0.069003,2017-07-24 01:16:32,-0.7128018019114548
1.226,-3.05,-9.243,-0.009779952,0.001222494,-0.01589242,0.0,1.0916,-2.7572,-9.3475,-0.085387,0.230776,0.63146,-0.98431,0.087885,-0.068747,2017-07-24 01:16:33,-0.34868148130549004
1.226,-3.049,-9.242,-0.004889976,-0.004889976,-0.002444988,0.0,1.0881,-2.7569,-9.348,-0.098862,0.250052,0.639974,-0.984439,0.086581,-0.068385,2017-07-24 01:16:34,1.241958991948616
1.225,-3.051,-9.243,-0.002444988,-0.018337408,-0.0073349634,0.0,1.0921,-2.7591,-9.3469,-0.104867,0.247872,0.641083,-0.984383,0.086885,-0.068645,2017-07-24 01:16:35,0.6084533381127089
1.225,-3.05,-9.24,-0.004889976,-0.0073349634,-0.0061124694,0.0,1.0958,-2.7546,-9.3477,-0.081166,0.242304,0.631208,-0.984332,0.087717,-0.068929,2017-07-24 01:16:36,-0.6730036327377144
1.225,-3.051,-9.24,-0.0061124694,0.001222494,0.001222494,0.0,1.0824,-2.7614,-9.3473,-0.094534,0.226566,0.64064,-0.984479,0.085927,-0.068024,2017-07-24 01:16:37,-0.23976179589046626
1.225,-3.05,-9.24,-0.001222494,-0.0085574575,-0.004889976,0.0,1.0901,-2.7553,-9.3482,-0.096825,0.251632,0.649745,-0.984434,0.086706,-0.0685,2017-07-24 01:16:38,-1.1487741060040406
1.225,-3.05,-9.246,-0.004889976,-0.013447433,-0.004889976,0.0,1.0965,-2.7574,-9.3468,-0.100443,0.249506,0.632118,-0.984317,0.087624,-0.068968,2017-07-24 01:16:39,-0.5605744720048708
1.225,-3.05,-9.248,-0.0085574575,-0.011002445,0.0,0.0,1.0936,-2.7577,-9.3471,-0.083358,0.268278,0.631845,-0.984171,0.089319,-0.069054,2017-07-24 01:16:40,-0.27576568971266596
1.225,-3.049,-9.248,-0.0036674817,-0.009779952,-0.002444988,0.0,1.09,-2.7582,-9.3474,-0.10691,0.238769,0.64058,-0.984208,0.088986,-0.068827,2017-07-24 01:16:41,-3.3543881590200035
1.226,-3.052,-9.247,-0.004889976,-0.0073349634,-0.0073349634,0.0,1.0941,-2.757,-9.3473,-0.11189,0.23996,0.640697,-0.984235,0.088664,-0.068983,2017-07-24 01:16:42,-2.0344192712099454
1.23,-3.047,-9.246,-0.012224939,-0.019559903,-0.0085574575,0.0,1.0828,-2.7534,-9.3496,-0.047142,0.224556,0.648328,-0.984392,0.087593,-0.068235,2017-07-24 01:16:43,-1.2891529986923913
1.391,-2.922,-9.221,-0.014669927,0.001222494,-0.012224939,0.0,1.0563,-2.7076,-9.366,-0.39863,0.10736,0.612935,-0.984946,0.086122,-0.06643,2017-07-24 01:16:44,6.41559312607137
1.293,-2.995,-9.265,-0.002444988,-0.0073349634,-0.0073349634,0.0,1.1257,-2.6464,-9.3754,-0.032241,0.264584,0.622524,-0.985138,0.086711,-0.069778,2017-07-24 01:16:45,13.802289128397959
1.28,-2.962,-9.268,0.0,-0.014669927,-0.0073349634,0.0,1.117,-2.6594,-9.3728,-0.146957,0.222533,0.625177,-0.984987,0.087639,-0.069519,2017-07-24 01:16:46,9.859051495385124
1.274,-2.955,-9.27,0.001222494,0.0073349634,-0.0061124694,0.0,1.1317,-2.665,-9.3694,-0.084242,0.245911,0.666537,-0.984917,0.08745,-0.070282,2017-07-24 01:16:47,-0.43220222495314875
1.273,-2.95,-9.268,-0.0036674817,-0.004889976,0.001222494,0.0,1.1412,-2.6629,-9.3689,-0.103763,0.21903,0.629084,-0.984889,0.087606,-0.070782,2017-07-24 01:16:48,0.7068709027107524
1.274,-2.945,-9.268,-0.0061124694,-0.009779952,-0.004889976,0.0,1.1328,-2.6587,-9.3711,-0.09211,0.233253,0.636874,-0.985055,0.086373,-0.070164,2017-07-24 01:16:49,-0.5993510226368889
1.275,-2.942,-9.266,-0.0061124694,-0.009779952,0.0,0.0,1.1305,-2.6617,-9.3705,-0.104425,0.239244,0.627448,-0.98508,0.085921,-0.07,2017-07-24 01:16:50,-0.5993510226368889
1.274,-2.942,-9.269,-0.0073349634,-0.019559903,-0.002444988,0.0,1.1278,-2.6635,-9.3703,-0.107119,0.21842,0.637642,-0.985107,0.085552,-0.069821,2017-07-24 01:16:51,-0.05119444136031642
1.274,-2.942,-9.267,-0.002444988,-0.011002445,-0.009779952,0.0,1.142,-2.6597,-9.3697,-0.102958,0.241254,0.638268,-0.984952,0.08713,-0.070743,2017-07-24 01:16:52,-0.9331990931942974
1.274,-2.942,-9.269,-0.009779952,-0.009779952,-0.0036674817,0.0,1.1384,-2.6577,-9.3707,-0.106536,0.253228,0.637272,-0.984934,0.087625,-0.070614,2017-07-24 01:16:53,-0.7328384917499774
1.274,-2.943,-9.268,0.001222494,-0.017114915,-0.0061124694,0.0,1.1356,-2.6625,-9.3697,-0.10937,0.238494,0.628271,-0.984878,0.087966,-0.070538,2017-07-24 01:16:54,0.645164840053628
1.282,-2.942,-9.267,-0.0073349634,-0.0061124694,-0.002444988,0.0,1.1349,-2.663,-9.3696,-0.090098,0.228922,0.647345,-0.984941,0.087238,-0.070406,2017-07-24 01:16:55,-0.9542813909976156
1.274,-2.942,-9.267,-0.0036674817,-0.017114915,-0.002444988,0.0,1.1377,-2.6608,-9.3699,-0.097288,0.231123,0.647059,-0.98494,0.087325,-0.070551,2017-07-24 01:16:56,-1.1487741060040406
1.274,-2.942,-9.269,-0.0073349634,-0.018337408,-0.001222494,0.0,1.1379,-2.6599,-9.3701,-0.116038,0.241088,0.627818,-0.984952,0.087263,-0.070551,2017-07-24 01:16:57,-0.19517264836674125
1.274,-2.943,-9.267,-0.004889976,-0.0061124694,-0.004889976,0.0,1.144,-2.6655,-9.3678,-0.090947,0.235446,0.649162,-0.984933,0.086796,-0.070832,2017-07-24 01:16:58,0.13363961557981502
1.274,-2.942,-9.266,-0.009779952,0.002444988,-0.002444988,0.0,1.1411,-2.6596,-9.3698,-0.093811,0.241378,0.638129,-0.984949,0.087203,-0.070708,2017-07-24 01:16:59,-0.5847692132389998
1.274,-2.942,-9.267,-0.0061124694,-0.0085574575,-0.004889976,0.0,1.1346,-2.6625,-9.3698,-0.100377,0.229436,0.647166,-0.984937,0.087331,-0.070401,2017-07-24 01:17:00,-1.018149377611622
1.274,-2.944,-9.267,-0.011002445,-0.018337408,-0.002444988,0.0,1.1391,-2.6595,-9.3701,-0.08588,0.241437,0.627858,-0.984965,0.087107,-0.070588,2017-07-24 01:17:01,-0.5125856431871835
1.274,-2.942,-9.268,-0.002444988,-0.0085574575,-0.0061124694,0.0,1.1345,-2.6617,-9.37,-0.110459,0.23027,0.637919,-0.984985,0.086861,-0.07033,2017-07-24 01:17:02,-1.3350498043911139
1.274,-2.942,-9.267,-0.0085574575,-0.004889976,-0.0036674817,0.0,1.1335,-2.6626,-9.3699,-0.11143,0.23831,0.638075,-0.985092,0.085586,-0.070114,2017-07-24 01:17:03,-1.7082190926561356
1.273,-2.942,-9.269,-0.011002445,-0.002444988,-0.009779952,0.0,1.1414,-2.6605,-9.3695,-0.08351,0.240412,0.638438,-0.985075,0.085676,-0.070525,2017-07-24 01:17:04,-1.018149377611622
1.274,-2.941,-9.266,-0.001222494,-0.001222494,-0.002444988,0.0,1.1415,-2.6643,-9.3684,-0.083458,0.217661,0.639512,-0.984994,0.086289,-0.070628,2017-07-24 01:17:05,-0.15103665042632547
1.274,-2.942,-9.267,-0.0085574575,-0.014669927,-0.0061124694,0.0,1.135,-2.6616,-9.37,-0.089927,0.230367,0.646956,-0.985067,0.085918,-0.070231,2017-07-24 01:17:06,-1.4936333593971822
1.273,-2.944,-9.268,-0.0061124694,-0.017114915,0.001222494,0.0,1.128,-2.6675,-9.3692,-0.116962,0.24342,0.647798,-0.985107,0.085207,-0.069803,2017-07-24 01:17:07,-1.002094110457438
1.273,-2.942,-9.268,-0.0036674817,-0.0073349634,-0.004889976,0.0,1.1444,-2.6631,-9.3684,-0.080597,0.218839,0.639526,-0.985097,0.085106,-0.070612,2017-07-24 01:17:08,0.45078374735188115
1.274,-2.942,-9.269,-0.002444988,-0.0036674817,-0.011002445,0.0,1.1334,-2.6594,-9.3708,-0.091574,0.232554,0.637135,-0.985106,0.085708,-0.070107,2017-07-24 01:17:09,-0.3029658505606561
1.274,-2.942,-9.267,-0.0061124694,-0.011002445,-0.0073349634,0.0,1.1362,-2.66,-9.3703,-0.088732,0.221945,0.637653,-0.984975,0.087047,-0.070435,2017-07-24 01:17:11,-2.0889624662245683
1.274,-2.942,-9.27,-0.0061124694,-0.011002445,-0.004889976,0.0,1.1301,-2.6624,-9.3704,-0.123823,0.238569,0.617591,-0.985,0.086791,-0.070099,2017-07-24 01:17:11,-1.9738659999695638
1.274,-2.942,-9.268,-0.0036674817,-0.01589242,-0.004889976,0.0,1.1352,-2.6607,-9.3702,-0.118769,0.240295,0.646711,-0.984941,0.087422,-0.070435,2017-07-24 01:17:13,-1.5599391483873135
1.274,-2.942,-9.269,-0.013447433,0.002444988,-0.0036674817,0.0,1.1322,-2.6615,-9.3704,-0.102709,0.230467,0.656592,-0.985073,0.085951,-0.070091,2017-07-24 01:17:14,-3.2905871926422474
1.273,-2.943,-9.268,0.001222494,-0.0061124694,-0.0036674817,0.0,1.1282,-2.6633,-9.3703,-0.096727,0.237614,0.637633,-0.985194,0.084548,-0.069706,2017-07-24 01:17:15,-2.3214870625616832
1.274,-2.943,-9.267,-0.012224939,-0.0036674817,-0.011002445,0.0,1.1289,-2.6634,-9.3702,-0.106032,0.237567,0.63773,-0.985291,0.083376,-0.069585,2017-07-24 01:17:16,-0.41350275658469327
1.274,-2.942,-9.268,0.0,-0.0036674817,-0.004889976,0.0,1.1383,-2.6595,-9.3702,-0.106641,0.213426,0.627771,-0.985309,0.083154,-0.070021,2017-07-24 01:17:17,-0.9490012142754212
1.273,-2.942,-9.267,-0.004889976,-0.002444988,-0.004889976,0.0,1.1393,-2.6591,-9.3702,-0.095679,0.232867,0.637761,-0.985169,0.084795,-0.070288,2017-07-24 01:17:18,-2.409226305636735
1.274,-2.943,-9.268,-0.004889976,-0.0085574575,0.001222494,0.0,1.1379,-2.6621,-9.3695,-0.107095,0.229831,0.647452,-0.985026,0.086236,-0.070422,2017-07-24 01:17:19,-1.9738659999695638
1.274,-2.942,-9.268,-0.0073349634,-0.01589242,-0.009779952,0.0,1.1383,-2.6628,-9.3692,-0.096624,0.238136,0.628707,-0.984978,0.086708,-0.070513,2017-07-24 01:17:20,-1.9605236090789173
1.274,-2.942,-9.268,-0.009779952,-0.0073349634,0.001222494,0.0,1.132,-2.6609,-9.3706,-0.102991,0.231021,0.627399,-0.984991,0.08695,-0.070207,2017-07-24 01:17:21,-3.8395958926476963
1.274,-2.942,-9.267,-0.011002445,-0.017114915,-0.0036674817,0.0,1.1287,-2.662,-9.3706,-0.106245,0.219985,0.646301,-0.985134,0.085342,-0.06983,2017-07-24 01:17:22,-0.5896243784389428
1.274,-2.945,-9.267,-0.004889976,-0.004889976,-0.009779952,0.0,1.1349,-2.6666,-9.3686,-0.100088,0.234372,0.639356,-0.985124,0.084841,-0.070104,2017-07-24 01:17:23,-2.852054355583429
1.274,-2.943,-9.268,0.0073349634,-0.0073349634,-0.0061124694,0.0,1.1368,-2.6635,-9.3692,-0.117179,0.237439,0.628716,-0.985229,0.083805,-0.070048,2017-07-24 01:17:24,-3.629169865251921
1.275,-2.943,-9.267,-0.002444988,-0.009779952,-0.004889976,0.0,1.1341,-2.6611,-9.3702,-0.110863,0.249804,0.617719,-0.985235,0.084039,-0.069929,2017-07-24 01:17:25,-1.2720659806412202
1.274,-2.947,-9.268,0.0,-0.009779952,-0.001222494,0.0,1.1378,-2.6627,-9.3693,-0.107137,0.238263,0.628609,-0.985186,0.084345,-0.07017,2017-07-24 01:17:26,-1.0558441136113101
1.274,-2.948,-9.267,-0.0073349634,0.001222494,-0.0085574575,0.0,1.1381,-2.6587,-9.3704,-0.09688,0.242233,0.637512,-0.985112,0.085526,-0.070321,2017-07-24 01:17:27,-2.675748253351137
1.274,-2.948,-9.268,-0.002444988,-0.009779952,-0.002444988,0.0,1.1359,-2.6612,-9.37,-0.099025,0.230795,0.646943,-0.985048,0.08614,-0.070305,2017-07-24 01:17:28,-0.2712488460199899
1.274,-2.948,-9.267,0.002444988,-0.013447433,-0.004889976,0.0,1.1312,-2.6592,-9.3711,-0.103768,0.232788,0.636805,-0.985097,0.085914,-0.07002,2017-07-24 01:17:29,-1.746093851473864
1.272,-2.947,-9.268,-0.0073349634,-0.011002445,-0.0061124694,0.0,1.128,-2.6626,-9.3705,-0.106902,0.248323,0.656411,-0.98507,0.086039,-0.069892,2017-07-24 01:17:30,-1.6894048618495705
1.272,-2.948,-9.269,-0.009779952,-0.013447433,-0.014669927,0.0,1.1371,-2.661,-9.3699,-0.087877,0.230991,0.647028,-0.985049,0.086096,-0.070357,2017-07-24 01:17:31,-0.1598280397017522
1.264,-2.947,-9.269,-0.0085574575,-0.0073349634,-0.0061124694,0.0,1.133,-2.6619,-9.3702,-0.091923,0.230085,0.637794,-0.985119,0.08537,-0.070056,2017-07-24 01:17:32,-2.2001479260657026
1.265,-2.946,-9.267,-0.001222494,-0.0061124694,0.0,0.0,1.1299,-2.6614,-9.3706,-0.105006,0.230514,0.627302,-0.985178,0.084823,-0.069822,2017-07-24 01:17:33,-0.046905112795315236
1.265,-2.946,-9.267,-0.0036674817,-0.011002445,-0.0036674817,0.0,1.1315,-2.6603,-9.3708,-0.093473,0.250632,0.646167,-0.985258,0.08394,-0.069777,2017-07-24 01:17:34,-2.551876902447408
1.266,-2.945,-9.269,-0.0073349634,-0.001222494,-0.002444988,0.0,1.135,-2.661,-9.3702,-0.099931,0.230969,0.617785,-0.985246,0.083888,-0.069956,2017-07-24 01:17:35,-1.9671896807162002
1.267,-2.945,-9.267,-0.0036674817,0.0036674817,-0.0073349634,0.0,1.1403,-2.6623,-9.3692,-0.10466,0.229661,0.647795,-0.985217,0.08392,-0.070239,2017-07-24 01:17:36,0.0042390875196115195
1.269,-2.946,-9.267,-0.0085574575,-0.012224939,-0.009779952,0.0,1.1447,-2.6628,-9.3685,-0.090211,0.238115,0.648493,-0.985115,0.084901,-0.070603,2017-07-24 01:17:37,-1.4578887558142009
1.27,-2.947,-9.267,-0.004889976,-0.0073349634,-0.0061124694,0.0,1.1304,-2.6595,-9.3712,-0.123575,0.241478,0.636796,-0.985204,0.084681,-0.069815,2017-07-24 01:17:38,-0.8705593800953544
1.27,-2.945,-9.265,-0.0036674817,-0.011002445,-0.0036674817,0.0,1.1332,-2.6627,-9.3699,-0.120789,0.219212,0.628058,-0.985177,0.084608,-0.069965,2017-07-24 01:17:39,-0.27576568971266596
1.273,-2.946,-9.266,-0.002444988,-0.017114915,-0.0085574575,0.0,1.1366,-2.6647,-9.3689,-0.117328,0.236206,0.629049,-0.985115,0.085037,-0.070212,2017-07-24 01:17:40,0.6010736510030773
1.273,-2.946,-9.267,-0.014669927,-0.013447433,-0.0061124694,0.0,1.1402,-2.6605,-9.3697,-0.094774,0.240416,0.628285,-0.985128,0.085113,-0.070384,2017-07-24 01:17:41,0.1908382104539769
1.274,-2.946,-9.269,-0.004889976,0.014669927,-0.002444988,0.0,1.1426,-2.6616,-9.3691,-0.111344,0.230328,0.638888,-0.985154,0.084632,-0.070451,2017-07-24 01:17:42,-0.4228424264617019
1.274,-2.945,-9.267,-0.009779952,-0.0036674817,-0.0073349634,0.0,1.1363,-2.6593,-9.3705,-0.079687,0.232658,0.656457,-0.985179,0.084766,-0.07013,2017-07-24 01:17:43,-0.8913390600207325
1.268,-2.942,-9.266,-0.0061124694,-0.020782396,-0.0036674817,0.0,1.1417,-2.6605,-9.3695,-0.093277,0.231432,0.638461,-0.985076,0.08566,-0.070534,2017-07-24 01:17:44,-1.6582278089413056
1.27,-2.942,-9.268,-0.012224939,-0.002444988,-0.013447433,0.0,1.1359,-2.6672,-9.3683,-0.109015,0.21472,0.639672,-0.985083,0.085224,-0.070214,2017-07-24 01:17:45,-0.2802872360024354
1.272,-2.944,-9.266,-0.0073349634,-0.009779952,-0.002444988,0.0,1.1313,-2.6656,-9.3693,-0.093616,0.235368,0.647646,-0.985204,0.084116,-0.069819,2017-07-24 01:17:46,-0.6433925306224336
1.274,-2.945,-9.268,-0.011002445,-0.018337408,-0.0073349634,0.0,1.1342,-2.6599,-9.3706,-0.090767,0.232054,0.637375,-0.985252,0.083944,-0.069915,2017-07-24 01:17:47,-1.2155899595691935
1.275,-2.945,-9.267,-0.002444988,-0.0085574575,-0.0073349634,0.0,1.1267,-2.662,-9.3709,-0.108212,0.238913,0.627085,-0.985343,0.082954,-0.069409,2017-07-24 01:17:48,-2.909686696560853
1.274,-2.945,-9.267,-0.011002445,-0.001222494,-0.0061124694,0.0,1.1357,-2.6604,-9.3703,-0.128265,0.231565,0.627697,-0.985371,0.08243,-0.069793,2017-07-24 01:17:50,-0.5317175896299888
1.274,-2.945,-9.268,-0.002444988,0.001222494,-0.002444988,0.0,1.134,-2.6653,-9.3691,-0.100914,0.226643,0.638897,-0.985387,0.08187,-0.069657,2017-07-24 01:17:51,-0.8241654630910504
1.274,-2.945,-9.266,-0.0036674817,-0.0073349634,-0.002444988,0.0,1.1431,-2.6628,-9.3687,-0.110854,0.229186,0.639272,-0.985357,0.082119,-0.070145,2017-07-24 01:17:52,-0.1774643880767633
1.274,-2.946,-9.268,0.0,-0.01589242,-0.0036674817,0.0,1.1426,-2.6631,-9.3686,-0.092315,0.228883,0.639303,-0.985164,0.084394,-0.070428,2017-07-24 01:17:53,-4.316607466717396
1.275,-2.947,-9.267,-0.0073349634,-0.001222494,-0.0073349634,0.0,1.1458,-2.6619,-9.3686,-0.08911,0.230063,0.648359,-0.98508,0.085346,-0.070715,2017-07-24 01:17:54,-2.835727476132397
1.274,-2.945,-9.267,-0.0061124694,-0.0073349634,-0.004889976,0.0,1.1366,-2.6622,-9.3696,-0.09837,0.238757,0.638318,-0.985114,0.085268,-0.070227,2017-07-24 01:17:55,-0.34868148130549004
1.271,-2.946,-9.267,-0.0061124694,-0.012224939,-0.0061124694,0.0,1.1429,-2.6605,-9.3693,-0.102085,0.240408,0.647614,-0.985077,0.085598,-0.070588,2017-07-24 01:17:56,-1.3466001963564356
1.274,-2.944,-9.267,-0.0061124694,-0.009779952,-0.011002445,0.0,1.1456,-2.6607,-9.369,-0.089365,0.240294,0.647979,-0.985013,0.086227,-0.070813,2017-07-24 01:17:57,-3.5038375656996172
1.274,-2.942,-9.264,-0.0061124694,-0.0036674817,-0.0085574575,0.0,1.1373,-2.6642,-9.369,-0.097696,0.2177,0.638985,-0.985036,0.085968,-0.070366,2017-07-24 01:17:58,-2.917982677725377
1.274,-2.942,-9.268,-0.0061124694,-0.0061124694,0.001222494,0.0,1.1312,-2.6628,-9.3701,-0.122748,0.229149,0.637841,-0.98517,0.084759,-0.069885,2017-07-24 01:17:59,1.0129856824058208
1.274,-2.942,-9.266,-0.001222494,-0.0036674817,-0.002444988,0.0,1.1443,-2.6602,-9.3693,-0.080639,0.240737,0.618697,-0.985057,0.085813,-0.070689,2017-07-24 01:18:00,-1.7843018235931027
1.273,-2.942,-9.27,-0.0061124694,-0.0061124694,-0.011002445,0.0,1.1432,-2.6593,-9.3696,-0.091736,0.241651,0.628303,-0.985012,0.086445,-0.070713,2017-07-24 01:18:01,-0.3029658505606561
1.274,-2.942,-9.267,0.0,-0.009779952,-0.0061124694,0.0,1.1371,-2.6643,-9.369,-0.116868,0.227655,0.618976,-0.98502,0.086146,-0.070381,2017-07-24 01:18:02,-3.5324410378270805
1.274,-2.943,-9.267,-0.002444988,-0.0085574575,0.0036674817,0.0,1.1378,-2.6662,-9.3683,-0.107198,0.225708,0.619613,-0.985079,0.085287,-0.070311,2017-07-24 01:18:03,-1.645819386731533
1.274,-2.944,-9.268,-0.011002445,-0.009779952,-0.0061124694,0.0,1.1384,-2.6632,-9.3691,-0.106552,0.228751,0.638826,-0.985165,0.084521,-0.070227,2017-07-24 01:18:04,-0.49353760905980537
1.274,-2.946,-9.268,-0.004889976,-0.0036674817,-0.0085574575,0.0,1.1353,-2.6625,-9.3697,-0.099698,0.229402,0.638258,-0.98527,0.083466,-0.06992,2017-07-24 01:18:05,-0.7782619196265872
1.273,-2.943,-9.268,-0.0061124694,-0.02200489,-0.0036674817,0.0,1.1359,-2.6597,-9.3704,-0.099037,0.232248,0.63753,-0.985363,0.082588,-0.069822,2017-07-24 01:18:06,-2.335987726514011
1.272,-2.942,-9.266,-0.014669927,-0.012224939,-0.004889976,0.0,1.1456,-2.6631,-9.3683,-0.079357,0.228801,0.629687,-0.985297,0.082705,-0.070355,2017-07-24 01:18:07,-0.8241654630910504
1.273,-2.945,-9.267,-0.0085574575,-0.019559903,-0.002444988,0.0,1.1359,-2.657,-9.3712,-0.099095,0.243985,0.645745,-0.985274,0.083877,-0.069978,2017-07-24 01:18:08,-0.3532796234174298
1.274,-2.947,-9.268,-0.002444988,-0.013447433,-0.0061124694,0.0,1.1412,-2.6584,-9.3702,-0.083758,0.252599,0.637788,-0.985163,0.084858,-0.070391,2017-07-24 01:18:09,-0.7986036187311184
1.274,-2.945,-9.268,-0.004889976,-0.009779952,-0.0073349634,0.0,1.1321,-2.6565,-9.3718,-0.112805,0.235402,0.636179,-0.985128,0.085744,-0.070033,2017-07-24 01:18:10,-0.628662347527612
1.274,-2.945,-9.267,-0.0073349634,-0.0036674817,-0.002444988,0.0,1.1325,-2.6632,-9.3698,-0.102441,0.228767,0.628107,-0.985102,0.085472,-0.07005,2017-07-24 01:18:11,-0.9017663034908802
1.275,-2.944,-9.267,0.0,-0.01589242,-0.0085574575,0.0,1.1418,-2.661,-9.3694,-0.093165,0.239991,0.6286,-0.98514,0.084879,-0.070438,2017-07-24 01:18:12,-3.4943447863594272
1.274,-2.943,-9.267,-0.011002445,-0.0061124694,-0.0036674817,0.0,1.1454,-2.6618,-9.3687,-0.099596,0.220114,0.629286,-0.985037,0.085867,-0.070759,2017-07-24 01:18:13,-1.8552349416426628
1.274,-2.945,-9.268,-0.0036674817,0.002444988,-0.0061124694,0.0,1.1436,-2.6574,-9.3701,-0.110385,0.23451,0.656819,-0.984994,0.086792,-0.070767,2017-07-24 01:18:14,-0.29388018862968385
1.279,-2.943,-9.267,-0.002444988,-0.0036674817,-0.0073349634,0.0,1.1399,-2.6625,-9.3691,-0.095031,0.238409,0.647823,-0.984981,0.086646,-0.070586,2017-07-24 01:18:15,-0.7228085916360166
1.275,-2.943,-9.268,-0.0085574575,-0.004889976,-0.0036674817,0.0,1.1465,-2.6609,-9.3688,-0.107481,0.240036,0.63916,-0.984958,0.086804,-0.070937,2017-07-24 01:18:16,-1.4996195006881827
1.274,-2.944,-9.269,-0.004889976,-0.0036674817,-0.001222494,0.0,1.1295,-2.6655,-9.3695,-0.13443,0.235426,0.628411,-0.984967,0.086917,-0.070101,2017-07-24 01:18:17,-0.29388018862968385
1.274,-2.943,-9.267,-0.0036674817,-0.0073349634,-0.001222494,0.0,1.1358,-2.6643,-9.3691,-0.08919,0.227694,0.638805,-0.985045,0.085912,-0.070282,2017-07-24 01:18:18,-1.352386932481119
1.273,-2.944,-9.269,-0.0061124694,-0.004889976,-0.002444988,0.0,1.1422,-2.66,-9.3696,-0.073749,0.231933,0.628383,-0.985109,0.085303,-0.070511,2017-07-24 01:18:19,0.5039788371379973
1.275,-2.942,-9.267,-0.012224939,-0.0085574575,-0.009779952,0.0,1.1355,-2.6619,-9.3699,-0.099464,0.220074,0.638096,-0.985082,0.085706,-0.070228,2017-07-24 01:18:20,-0.029790037170673547
1.275,-2.942,-9.266,-0.001222494,-0.009779952,-0.001222494,0.0,1.1335,-2.6623,-9.37,-0.120418,0.219694,0.617967,-0.985143,0.085033,-0.070039,2017-07-24 01:18:21,-1.9805525983944272
1.274,-2.943,-9.268,-0.002444988,-0.004889976,-0.004889976,0.0,1.1415,-2.6613,-9.3693,-0.083438,0.239679,0.647655,-0.985115,0.085148,-0.070462,2017-07-24 01:18:22,-2.9346223334028747
1.274,-2.942,-9.269,-0.0036674817,-0.012224939,-0.0061124694,0.0,1.142,-2.6598,-9.3697,-0.11198,0.232194,0.647281,-0.985044,0.086078,-0.070602,2017-07-24 01:18:23,-0.7078070402119342
1.275,-2.944,-9.268,-0.0036674817,-0.011002445,-0.0085574575,0.0,1.1426,-2.6539,-9.3713,-0.102372,0.228062,0.626693,-0.985031,0.086701,-0.070686,2017-07-24 01:18:24,-1.0938688890214292
1.274,-2.945,-9.268,0.0,-0.014669927,0.001222494,0.0,1.1371,-2.6601,-9.3702,-0.097891,0.231897,0.637767,-0.985006,0.08667,-0.070429,2017-07-24 01:18:26,3.8169311561990087
1.275,-2.943,-9.266,-0.009779952,-0.0036674817,-0.0085574575,0.0,1.1355,-2.6579,-9.371,-0.109412,0.234056,0.626972,-0.985054,0.086349,-0.070296,2017-07-24 01:18:27,-0.06839424530305466
1.274,-2.943,-9.268,-0.0036674817,-0.011002445,-0.0085574575,0.0,1.1426,-2.6653,-9.368,-0.092371,0.235675,0.629924,-0.985094,0.085022,-0.07052,2017-07-24 01:18:28,-1.1543029989455942
1.274,-2.944,-9.265,0.0,-0.009779952,-0.004889976,0.0,1.1288,-2.6645,-9.3699,-0.116121,0.236496,0.647023,-0.9852,0.08436,-0.069717,2017-07-24 01:18:29,-0.9967555175061071
1.274,-2.946,-9.267,-0.002444988,-0.011002445,-0.009779952,0.0,1.1353,-2.6598,-9.3705,-0.109681,0.24118,0.64647,-0.985241,0.084045,-0.069984,2017-07-24 01:18:30,-2.6993726714556807
1.275,-2.946,-9.267,-0.0085574575,-0.01589242,-0.0061124694,0.0,1.1339,-2.6606,-9.3704,-0.111043,0.231394,0.637529,-0.985265,0.08374,-0.069877,2017-07-24 01:18:31,-1.0558441136113101
1.274,-2.943,-9.267,-0.0061124694,-0.0073349634,-0.0036674817,0.0,1.1336,-2.6648,-9.3693,-0.120317,0.227187,0.64769,-0.985287,0.083131,-0.069802,2017-07-24 01:18:32,1.2355816856352273
1.276,-2.942,-9.267,-0.0061124694,-0.0085574575,-0.0036674817,0.0,1.1399,-2.6634,-9.3689,-0.085002,0.228582,0.639061,-0.985239,0.083577,-0.070181,2017-07-24 01:18:33,-1.121234731421354
1.274,-2.943,-9.267,-0.0085574575,-0.018337408,-0.002444988,0.0,1.1296,-2.663,-9.3702,-0.105318,0.237941,0.63771,-0.98526,0.083741,-0.069669,2017-07-24 01:18:34,-0.46040326442963025
1.274,-2.945,-9.269,-0.0036674817,-0.0085574575,-0.0085574575,0.0,1.1409,-2.6575,-9.3704,-0.104007,0.234436,0.63752,-0.985162,0.084955,-0.070387,2017-07-24 01:18:35,-0.21740999761196425
1.274,-2.942,-9.267,-0.0036674817,-0.012224939,-0.0061124694,0.0,1.1388,-2.663,-9.3691,-0.09619,0.237919,0.638821,-0.985065,0.08568,-0.070399,2017-07-24 01:18:36,0.7356084422676102
1.274,-2.942,-9.267,-0.0036674817,-0.013447433,-0.0073349634,0.0,1.1372,-2.6615,-9.3697,-0.107744,0.249433,0.647202,-0.98507,0.085807,-0.070328,2017-07-24 01:18:37,-1.3466001963564356
1.274,-2.943,-9.267,-0.009779952,-0.013447433,-0.0085574575,0.0,1.1438,-2.663,-9.3685,-0.081104,0.24799,0.658421,-0.985046,0.085722,-0.070667,2017-07-24 01:18:38,0.6084533381127089
1.27,-2.945,-9.267,0.0061124694,-0.002444988,-0.009779952,0.0,1.1326,-2.6605,-9.3706,-0.102385,0.240493,0.627339,-0.985147,0.085174,-0.069999,2017-07-24 01:18:39,3.29350200973872
1.278,-2.944,-9.264,-0.001222494,-0.012224939,0.001222494,0.0,1.1886,-2.6768,-9.359,-0.180388,0.244126,0.609943,-0.984794,0.085789,-0.073056,2017-07-24 01:18:40,0.12952502993899517
1.29,-2.95,-9.332,-0.0073349634,0.07701711,-0.02200489,0.0,1.3009,-2.6532,-9.3508,-0.07801,0.276752,0.676166,-0.984897,0.082074,-0.078251,2017-07-24 01:18:41,14.071053002038742
1.447,-2.936,-9.274,0.0085574575,-0.0085574575,-0.0085574575,0.0,1.1398,-2.7017,-9.3579,-0.267165,0.171215,0.650033,-0.985275,0.079726,-0.069839,2017-07-24 01:18:42,18.72753608733631
1.512,-3.016,-9.215,-0.0036674817,-0.020782396,-0.004889976,0.0,1.3371,-2.7234,-9.3255,-0.060896,0.187507,0.643489,-0.984571,0.07802,-0.079915,2017-07-24 01:18:43,13.721853668467428
1.541,-3.021,-9.215,-0.012224939,-0.001222494,-0.0085574575,0.0,1.3809,-2.7191,-9.3203,-0.141072,0.229863,0.648605,-0.984638,0.075461,-0.081816,2017-07-24 01:18:44,18.154506247082157
1.603,-3.027,-9.1,0.0085574575,-0.0061124694,-0.004889976,0.0,1.4314,-2.6939,-9.32,0.033459,0.274079,0.658909,-0.984705,0.074482,-0.084186,2017-07-24 01:18:45,19.13021792709624
1.591,-3.001,-9.157,-0.009779952,-0.017114915,-0.0073349634,0.0,1.4103,-2.6936,-9.3233,-0.111697,0.227335,0.645609,-0.984743,0.075106,-0.083172,2017-07-24 01:18:46,18.159044668594408
1.555,-2.967,-9.241,-0.014669927,-0.0085574575,-0.0073349634,0.0,1.4576,-2.6369,-9.3323,-0.246351,0.264051,0.608681,-0.984927,0.075722,-0.085446,2017-07-24 01:18:47,13.505962594351086
1.581,-2.933,-9.238,-0.009779952,-0.013447433,-0.0036674817,0.0,1.4636,-2.5989,-9.342,-0.116366,0.21607,0.655958,-0.985281,0.074372,-0.085404,2017-07-24 01:18:48,15.942608710864171
1.59,-2.876,-9.246,0.014669927,-0.0061124694,0.002444988,0.0,1.4421,-2.5165,-9.3679,-0.079832,0.298461,0.525097,-0.985838,0.075844,-0.084101,2017-07-24 01:18:49,7.778684145013557
1.596,-2.877,-9.246,-0.002444988,-0.013447433,-0.004889976,0.0,1.4641,-2.5834,-9.3462,0.009188,0.260559,0.66175,-0.985174,0.077177,-0.085724,2017-07-24 01:18:50,4.116328566386964
1.602,-2.878,-9.24,-0.0061124694,-0.004889976,-0.002444988,0.0,1.4464,-2.5879,-9.3477,-0.114549,0.227048,0.621236,-0.985275,0.076395,-0.084725,2017-07-24 01:18:51,4.914437729881826
1.602,-2.88,-9.238,0.001222494,-0.004889976,-0.001222494,0.0,1.4448,-2.5957,-9.3458,-0.096152,0.248265,0.633147,-0.985278,0.075717,-0.08459,2017-07-24 01:18:52,-0.668054407337094
1.607,-2.883,-9.239,-0.0036674817,-0.014669927,-0.0085574575,0.0,1.4378,-2.5981,-9.3462,-0.123135,0.245822,0.632748,-0.985316,0.075351,-0.084192,2017-07-24 01:18:53,0.48505530036094846
1.607,-2.884,-9.237,-0.001222494,-0.0085574575,-0.0073349634,0.0,1.4484,-2.5991,-9.3443,-0.112596,0.244837,0.624649,-0.985232,0.075799,-0.084801,2017-07-24 01:18:54,-1.3989605136078487
1.608,-2.885,-9.238,-0.0085574575,-0.0061124694,-0.0061124694,0.0,1.4486,-2.5975,-9.3447,-0.121396,0.236498,0.624219,-0.98516,0.076871,-0.084943,2017-07-24 01:18:56,-0.5365137743460864
1.607,-2.886,-9.238,-0.0036674817,-0.018337408,-0.0061124694,0.0,1.4433,-2.5971,-9.3456,-0.145636,0.246827,0.623316,-0.985146,0.077353,-0.084732,2017-07-24 01:18:57,-1.5478080097201183
1.609,-2.885,-9.237,-0.0085574575,-0.0061124694,-0.0073349634,0.0,1.4514,-2.5974,-9.3443,-0.099507,0.227554,0.643653,-0.985092,0.077599,-0.085186,2017-07-24 01:18:58,-1.5357106625692936
1.607,-2.891,-9.238,-0.0036674817,-0.0085574575,0.002444988,0.0,1.4338,-2.5961,-9.3474,-0.117141,0.247839,0.621571,-0.985212,0.077084,-0.0842,2017-07-24 01:18:59,-0.6090994999489917
1.607,-2.893,-9.238,-0.0061124694,-0.012224939,-0.0085574575,0.0,1.4398,-2.5991,-9.3456,-0.13017,0.225816,0.642331,-0.985186,0.076839,-0.084492,2017-07-24 01:19:00,0.13363961557981502
1.605,-2.892,-9.24,0.0036674817,-0.0061124694,-0.0061124694,0.0,1.4457,-2.596,-9.3456,-0.105262,0.228996,0.642359,-0.985154,0.077244,-0.084835,2017-07-24 01:19:01,-1.317781611386054
1.604,-2.893,-9.239,-0.014669927,-0.01589242,-0.0036674817,0.0,1.4432,-2.6015,-9.3445,-0.126798,0.232497,0.634495,-0.985058,0.078087,-0.084839,2017-07-24 01:19:02,-0.4368896995787762
1.606,-2.893,-9.237,-0.002444988,-0.009779952,0.002444988,0.0,1.4327,-2.6013,-9.3461,-0.128268,0.232675,0.632835,-0.985143,0.077555,-0.084227,2017-07-24 01:19:03,-0.5125856431871835
1.607,-2.893,-9.238,-0.0036674817,-0.009779952,-0.004889976,0.0,1.4442,-2.6034,-9.3438,-0.096797,0.23055,0.654194,-0.985054,0.077904,-0.084877,2017-07-24 01:19:04,-1.1653819458186856
1.605,-2.893,-9.238,-0.0036674817,-0.0085574575,-0.004889976,0.0,1.446,-2.5983,-9.3449,-0.114924,0.235629,0.634068,-0.985079,0.077954,-0.084956,2017-07-24 01:19:05,-0.08999023619393834
1.607,-2.893,-9.241,-0.004889976,-0.0085574575,-0.0036674817,0.0,1.4375,-2.5978,-9.3463,-0.151416,0.217166,0.622611,-0.985084,0.078365,-0.084567,2017-07-24 01:19:06,0.029587086437045947
1.603,-2.893,-9.238,-0.009779952,-0.0061124694,-0.004889976,0.0,1.4418,-2.6003,-9.345,-0.12819,0.224624,0.642968,-0.985017,0.078773,-0.084851,2017-07-24 01:19:07,0.36195207694896364
1.606,-2.893,-9.24,-0.0061124694,-0.011002445,-0.0061124694,0.0,1.441,-2.5959,-9.3463,-0.099913,0.238035,0.632629,-0.985088,0.078308,-0.084732,2017-07-24 01:19:08,14.215139536131256
1.606,-2.893,-9.239,-0.0073349634,-0.017114915,-0.0073349634,0.0,1.4395,-2.5948,-9.3469,-0.140481,0.239183,0.63207,-0.985092,0.078445,-0.084663,2017-07-24 01:19:09,0.13363961557981502
1.606,-2.894,-9.238,0.0,-0.004889976,0.0036674817,0.0,1.4423,-2.6011,-9.3447,-0.127672,0.232872,0.653256,-0.985047,0.078301,-0.08482,2017-07-24 01:19:10,-1.002094110457438
1.603,-2.893,-9.238,-0.001222494,-0.01589242,-0.0061124694,0.0,1.4399,-2.5997,-9.3454,-0.121016,0.225238,0.623515,-0.985081,0.078107,-0.084667,2017-07-24 01:19:11,5.2877614215296465
1.604,-2.893,-9.239,-0.013447433,-0.0085574575,-0.013447433,0.0,1.4409,-2.6012,-9.3449,-0.129099,0.232724,0.653078,-0.985123,0.077391,-0.084629,2017-07-24 01:19:12,-0.9595679952037118
1.604,-2.893,-9.24,-0.0073349634,-0.019559903,-0.001222494,0.0,1.4454,-2.6006,-9.3443,-0.124502,0.252303,0.634627,-0.98508,0.077764,-0.084913,2017-07-24 01:19:13,1.6434123602063648
1.604,-2.893,-9.238,0.001222494,-0.004889976,-0.0036674817,0.0,1.442,-2.6037,-9.344,-0.127949,0.240235,0.615948,-0.985136,0.076939,-0.084641,2017-07-24 01:19:14,13.462803720004464
1.607,-2.893,-9.238,-0.004889976,-0.01589242,-0.002444988,0.0,1.4372,-2.6011,-9.3455,-0.142798,0.223898,0.614459,-0.985261,0.075827,-0.084233,2017-07-24 01:19:15,-0.3211943970239802
1.607,-2.893,-9.238,-0.009779952,-0.004889976,-0.002444988,0.0,1.4442,-2.6003,-9.3446,-0.1257,0.243622,0.653352,-0.985272,0.075379,-0.084539,2017-07-24 01:19:16,0.8834376917724498
1.606,-2.894,-9.24,-0.004889976,-0.004889976,-0.0036674817,0.0,1.4402,-2.6021,-9.3447,-0.129738,0.231806,0.643235,-0.985255,0.075647,-0.084373,2017-07-24 01:19:17,6.981209434949007
1.606,-2.894,-9.238,-0.012224939,-0.002444988,-0.0036674817,0.0,1.4408,-2.6,-9.3452,-0.120142,0.233922,0.642739,-0.985278,0.075513,-0.084377,2017-07-24 01:19:18,-0.2218711637146004
1.606,-2.893,-9.238,-0.004889976,-0.018337408,0.0,0.0,1.4394,-2.6001,-9.3454,-0.121552,0.233844,0.642542,-0.985328,0.074927,-0.084228,2017-07-24 01:19:19,-0.4181700808587684
1.607,-2.892,-9.238,-0.0073349634,-0.01589242,0.001222494,0.0,1.4473,-2.6017,-9.3437,-0.122663,0.2232,0.644218,-0.985209,0.075912,-0.084772,2017-07-24 01:19:20,-1.2043823538162353
1.607,-2.891,-9.238,-0.004889976,-0.0036674817,-0.004889976,0.0,1.4483,-2.5969,-9.3449,-0.112628,0.247089,0.643019,-0.985188,0.076588,-0.084891,2017-07-24 01:19:21,5.8881860841555085
1.607,-2.892,-9.237,-0.012224939,0.001222494,-0.0085574575,0.0,1.4369,-2.601,-9.3455,-0.114019,0.232924,0.642419,-0.985293,0.07542,-0.084168,2017-07-24 01:19:22,-0.9754665296848896
1.607,-2.893,-9.238,-0.0036674817,-0.014669927,-0.009779952,0.0,1.442,-2.6004,-9.3449,-0.098957,0.233577,0.643017,-0.985267,0.075558,-0.084446,2017-07-24 01:19:23,-0.18188468852862283
1.608,-2.893,-9.238,-0.004889976,-0.0036674817,-0.0061124694,0.0,1.4379,-2.6031,-9.3448,-0.151007,0.240895,0.643139,-0.98515,0.077033,-0.08444,2017-07-24 01:19:24,-1.0450407627194345
1.607,-2.894,-9.238,-0.004889976,-0.011002445,-0.002444988,0.0,1.4395,-2.5996,-9.3455,-0.130482,0.234351,0.623412,-0.985131,0.077509,-0.084565,2017-07-24 01:19:25,-1.3063075100775843
1.607,-2.893,-9.238,-0.011002445,-0.013447433,-0.0036674817,0.0,1.4362,-2.603,-9.3451,-0.152796,0.230946,0.623849,-0.985178,0.076767,-0.084313,2017-07-24 01:19:26,-1.2212046272148704
1.604,-2.893,-9.238,-0.0085574575,-0.013447433,0.001222494,0.0,1.4391,-2.6045,-9.3442,-0.101873,0.229481,0.634707,-0.985154,0.076787,-0.084474,2017-07-24 01:19:27,-0.2532283022431861
1.6,-2.893,-9.239,-0.004889976,-0.017114915,-0.009779952,0.0,1.4406,-2.6042,-9.3441,-0.120314,0.22978,0.634864,-0.985246,0.075547,-0.084391,2017-07-24 01:19:28,-0.5993510226368889
1.6,-2.894,-9.237,0.0,-0.0073349634,-0.002444988,0.0,1.4417,-2.6031,-9.3442,-0.119266,0.230888,0.624717,-0.985227,0.075847,-0.08448,2017-07-24 01:19:29,-0.8344324769011962
1.598,-2.893,-9.238,0.0061124694,-0.001222494,-0.002444988,0.0,1.4428,-2.6019,-9.3444,-0.108155,0.232061,0.643563,-0.985207,0.076163,-0.084573,2017-07-24 01:19:31,-0.2040539292103888
1.601,-2.893,-9.238,-0.0061124694,-0.0085574575,-0.0061124694,0.0,1.4409,-2.6011,-9.3449,-0.139056,0.2239,0.643036,-0.985275,0.075446,-0.084377,2017-07-24 01:19:32,-1.0074392739863665
1.6,-2.893,-9.238,-0.0036674817,-0.0085574575,-0.0073349634,0.0,1.4446,-2.6022,-9.344,-0.12531,0.222743,0.624936,-0.985273,0.075165,-0.08454,2017-07-24 01:19:33,-0.6188699086121093
1.602,-2.893,-9.239,-0.0073349634,-0.017114915,-0.001222494,0.0,1.4442,-2.6053,-9.3432,-0.125724,0.228622,0.654742,-0.985257,0.075104,-0.084525,2017-07-24 01:19:34,-0.6532404822776404
1.599,-2.893,-9.238,-0.0085574575,-0.013447433,-0.0036674817,0.0,1.4381,-2.6059,-9.344,-0.131865,0.209046,0.624954,-0.985313,0.074634,-0.084148,2017-07-24 01:19:35,0.029587086437045947
1.599,-2.893,-9.238,0.0,-0.01589242,-0.0036674817,0.0,1.4375,-2.6039,-9.3446,-0.132463,0.230015,0.634313,-0.985357,0.074281,-0.084062,2017-07-24 01:19:36,-0.26222922736981175
1.602,-2.894,-9.238,-0.004889976,-0.009779952,-0.001222494,0.0,1.4468,-2.6034,-9.3434,-0.104152,0.22156,0.625599,-0.985229,0.075529,-0.084705,2017-07-24 01:19:37,6.311741538642876
1.605,-2.893,-9.238,-0.0073349634,-0.012224939,-0.002444988,0.0,1.446,-2.605,-9.343,-0.123916,0.228964,0.625924,-0.98518,0.076054,-0.084741,2017-07-24 01:19:38,-1.7019386218305415
1.605,-2.893,-9.24,-0.004889976,-0.011002445,-0.0085574575,0.0,1.4426,-2.6007,-9.3448,-0.118301,0.224291,0.624196,-0.985185,0.076562,-0.084612,2017-07-24 01:19:39,0.17049651134944577
1.605,-2.893,-9.239,-0.002444988,-0.009779952,-0.0061124694,0.0,1.4462,-2.6009,-9.3441,-0.114718,0.243088,0.643807,-0.985123,0.07715,-0.084875,2017-07-24 01:19:40,-2.582515088203734
1.604,-2.893,-9.238,-0.0061124694,-0.01589242,-0.004889976,0.0,1.4408,-2.5986,-9.3456,-0.120117,0.226352,0.642344,-0.985179,0.07692,-0.084554,2017-07-24 01:19:41,-2.179082671415581
1.605,-2.893,-9.238,-0.0036674817,-0.01589242,-0.009779952,0.0,1.4427,-2.602,-9.3444,-0.137222,0.222921,0.643591,-0.985152,0.076859,-0.084661,2017-07-24 01:19:42,0.7284418650324029
1.606,-2.893,-9.238,-0.0085574575,-0.013447433,-0.0073349634,0.0,1.4413,-2.6021,-9.3446,-0.109698,0.231861,0.63438,-0.985192,0.076405,-0.084525,2017-07-24 01:19:43,0.25529868613016193
1.607,-2.895,-9.239,-0.004889976,0.0,-0.004889976,0.0,1.44,-2.6028,-9.3446,-0.129922,0.222134,0.634393,-0.985157,0.076852,-0.084523,2017-07-24 01:19:44,12.507724947510109
1.605,-2.893,-9.238,-0.0036674817,-0.014669927,-0.004889976,0.0,1.4427,-2.6013,-9.3446,-0.137212,0.23265,0.63439,-0.985158,0.076843,-0.084656,2017-07-24 01:19:45,-0.012742145529017049
1.607,-2.894,-9.24,-0.0073349634,-0.0036674817,-0.0085574575,0.0,1.4418,-2.6032,-9.3442,-0.109199,0.230768,0.653761,-0.985137,0.076997,-0.084633,2017-07-24 01:19:46,0.09646725039030382
1.606,-2.893,-9.238,-0.0085574575,-0.01589242,-0.0036674817,0.0,1.4399,-2.6042,-9.3442,-0.140077,0.229776,0.643748,-0.98519,0.076314,-0.084452,2017-07-24 01:19:47,5.549573867804018
1.605,-2.893,-9.238,0.0036674817,-0.013447433,-0.0036674817,0.0,1.4391,-2.6032,-9.3446,-0.130815,0.24073,0.624369,-0.985182,0.076543,-0.084439,2017-07-24 01:19:48,-0.2667366951527744
1.605,-2.894,-9.238,-0.0085574575,-0.014669927,-0.0061124694,0.0,1.439,-2.5982,-9.346,-0.111936,0.245798,0.64194,-0.985156,0.077355,-0.084514,2017-07-24 01:19:49,-1.7587925295827938
1.603,-2.893,-9.24,-0.002444988,-0.02200489,-0.0085574575,0.0,1.439,-2.6012,-9.3452,-0.130977,0.242729,0.614786,-0.985129,0.077409,-0.084534,2017-07-24 01:19:50,2.337296323902098
1.601,-2.895,-9.238,-0.004889976,-0.02200489,-0.001222494,0.0,1.4445,-2.5994,-9.3448,-0.106422,0.253571,0.643133,-0.985083,0.077883,-0.084874,2017-07-24 01:19:51,-0.628662347527612
1.603,-2.893,-9.237,-0.0061124694,-0.004889976,-0.0073349634,0.0,1.4416,-2.6012,-9.3447,-0.147302,0.232704,0.634205,-0.985131,0.077246,-0.084651,2017-07-24 01:19:52,0.1088934243012612
1.607,-2.896,-9.238,-0.0061124694,-0.002444988,-0.0073349634,0.0,1.4518,-2.6033,-9.3426,-0.128136,0.230688,0.626341,-0.985053,0.077542,-0.085226,2017-07-24 01:19:53,-0.1598280397017522
1.607,-2.893,-9.238,-0.0036674817,-0.012224939,-0.004889976,0.0,1.4469,-2.6032,-9.3434,-0.104061,0.240793,0.644549,-0.985061,0.077695,-0.08499,2017-07-24 01:19:54,12.011142884381636
1.608,-2.894,-9.239,-0.004889976,-0.004889976,-0.0036674817,0.0,1.4419,-2.6012,-9.3447,-0.109012,0.232739,0.643242,-0.985131,0.077239,-0.084665,2017-07-24 01:19:55,-0.05119444136031642
1.607,-2.893,-9.239,-0.0061124694,-0.011002445,-0.0073349634,0.0,1.446,-2.6026,-9.3437,-0.09495,0.241337,0.654259,-0.985033,0.078153,-0.085001,2017-07-24 01:19:56,0.3423980375259899
1.606,-2.893,-9.238,0.0,-0.0036674817,-0.004889976,0.0,1.4421,-2.6048,-9.3437,-0.137817,0.220197,0.616257,-0.984989,0.078708,-0.084883,2017-07-24 01:19:57,11.03041648155293
1.607,-2.892,-9.238,-0.014669927,-0.0036674817,-0.012224939,0.0,1.4462,-2.5996,-9.3445,-0.114785,0.244376,0.653438,-0.984997,0.078872,-0.085088,2017-07-24 01:19:58,-0.24873482556810278
1.607,-2.894,-9.238,-0.002444988,-0.0073349634,-0.0036674817,0.0,1.4409,-2.6005,-9.3451,-0.100029,0.224401,0.6429,-0.985094,0.077823,-0.084685,2017-07-24 01:19:59,-0.6928571293424223
1.607,-2.893,-9.239,-0.0073349634,-0.013447433,-0.004889976,0.0,1.4433,-2.6016,-9.3444,-0.117613,0.232315,0.634576,-0.985027,0.078451,-0.084897,2017-07-24 01:20:00,5.871758332305656
1.604,-2.893,-9.239,-0.012224939,-0.017114915,-0.011002445,0.0,1.4448,-2.5978,-9.3452,-0.135141,0.227152,0.633734,-0.985009,0.078948,-0.085019,2017-07-24 01:20:02,-0.4462798541970525
1.604,-2.893,-9.238,-0.0036674817,-0.011002445,0.0,0.0,1.4317,-2.6006,-9.3464,-0.148241,0.224321,0.632508,-0.985062,0.078678,-0.084319,2017-07-24 01:20:03,0.8799757985488568
1.605,-2.893,-9.238,-0.0073349634,-0.0061124694,-0.009779952,0.0,1.4413,-2.6016,-9.3447,-0.119662,0.242383,0.61524,-0.985027,0.078561,-0.084805,2017-07-24 01:20:04,0.0
1.603,-2.893,-9.238,-0.009779952,-0.018337408,-0.0085574575,0.0,1.4364,-2.6058,-9.3443,-0.1245,0.247137,0.643679,-0.985071,0.077853,-0.084482,2017-07-24 01:20:05,-0.6139819566959825
1.606,-2.893,-9.238,-0.0085574575,-0.004889976,-0.0085574575,0.0,1.4344,-2.6058,-9.3446,-0.135589,0.24717,0.634348,-0.985153,0.07692,-0.084253,2017-07-24 01:20:06,-1.25504592690831
1.607,-2.893,-9.238,-0.004889976,-0.0061124694,-0.004889976,0.0,1.4428,-2.6045,-9.3437,-0.098198,0.229407,0.635295,-0.985243,0.075442,-0.084489,2017-07-24 01:20:07,1.4926723659380836
1.609,-2.893,-9.239,0.0,-0.014669927,-0.004889976,0.0,1.4311,-2.6035,-9.3457,-0.109819,0.240457,0.633213,-0.985354,0.074694,-0.083785,2017-07-24 01:20:08,9.502659461783857
1.607,-2.893,-9.238,0.001222494,-0.013447433,-0.0085574575,0.0,1.4389,-2.6077,-9.3434,-0.131025,0.236203,0.635599,-0.985332,0.074162,-0.084139,2017-07-24 01:20:09,-0.8139226639585928
1.607,-2.893,-9.237,-0.009779952,0.0036674817,-0.002444988,0.0,1.4402,-2.6,-9.3453,-0.120739,0.243911,0.642649,-0.985325,0.074929,-0.08427,2017-07-24 01:20:10,-1.3466001963564356
1.606,-2.893,-9.238,-0.0061124694,-0.0073349634,-0.004889976,0.0,1.4386,-2.6037,-9.3445,-0.141374,0.221268,0.63441,-0.985235,0.075841,-0.084321,2017-07-24 01:20:11,-0.48404482971961565
1.606,-2.894,-9.238,-0.002444988,-0.018337408,-0.004889976,0.0,1.4355,-2.6016,-9.3456,-0.134498,0.242332,0.642357,-0.98526,0.075876,-0.084154,2017-07-24 01:20:12,-3.2905871926422474
1.603,-2.894,-9.238,-0.009779952,-0.009779952,-0.004889976,0.0,1.438,-2.6086,-9.3433,-0.122993,0.225336,0.62569,-0.985276,0.074881,-0.084186,2017-07-24 01:20:13,-1.2663852148619434
1.602,-2.893,-9.238,-0.004889976,-0.011002445,-0.009779952,0.0,1.4503,-2.6014,-9.3434,-0.090646,0.251572,0.644582,-0.985262,0.075091,-0.08482,2017-07-24 01:20:14,-1.6211083964841324
1.601,-2.893,-9.238,-0.0061124694,-0.017114915,-0.009779952,0.0,1.4447,-2.6025,-9.3439,-0.12523,0.231492,0.644018,-0.985168,0.076507,-0.08472,2017-07-24 01:20:15,4.3514855762623785
1.605,-2.894,-9.238,-0.0036674817,-0.019559903,-0.004889976,0.0,1.4413,-2.6035,-9.3442,-0.119689,0.230438,0.624779,-0.985125,0.07714,-0.084628,2017-07-24 01:20:16,-2.835727476132397
1.605,-2.893,-9.238,-0.0085574575,-0.0085574575,-0.0036674817,0.0,1.4425,-2.6046,-9.3437,-0.118488,0.220325,0.635273,-0.985068,0.0777,-0.084768,2017-07-24 01:20:17,-2.6522516505775453
1.606,-2.894,-9.238,-0.012224939,-0.012224939,-0.0073349634,0.0,1.4374,-2.6036,-9.3447,-0.132502,0.240356,0.634214,-0.98513,0.077258,-0.084446,2017-07-24 01:20:18,0.5115252244738129
1.604,-2.896,-9.238,-0.0036674817,-0.020782396,-0.0061124694,0.0,1.4377,-2.6023,-9.3451,-0.132255,0.241624,0.633897,-0.985226,0.076136,-0.084307,2017-07-24 01:20:19,-1.5660174486363756
1.604,-2.893,-9.236,-0.0061124694,-0.0085574575,-0.0061124694,0.0,1.4417,-2.6011,-9.3448,-0.128206,0.242881,0.624172,-0.985231,0.075971,-0.08449,2017-07-24 01:20:20,-2.8275869961125553
1.605,-2.893,-9.233,-0.0085574575,-0.004889976,-0.001222494,0.0,1.4416,-2.6071,-9.3431,-0.138315,0.21789,0.635824,-0.985246,0.075223,-0.084414,2017-07-24 01:20:21,-4.093270609530637
1.607,-2.894,-9.235,-0.009779952,-0.01589242,-0.0073349634,0.0,1.4438,-2.6054,-9.3433,-0.117186,0.228597,0.635678,-0.985287,0.074734,-0.084453,2017-07-24 01:20:22,-1.6769071702924985
1.606,-2.894,-9.237,-0.002444988,-0.0061124694,-0.004889976,0.0,1.4414,-2.6051,-9.3437,-0.147546,0.247853,0.635243,-0.985286,0.074903,-0.084352,2017-07-24 01:20:23,-2.1720835646323176
1.606,-2.895,-9.237,-0.0061124694,-0.009779952,-0.0036674817,0.0,1.4419,-2.6036,-9.344,-0.109076,0.240334,0.6249,-0.985293,0.07492,-0.084371,2017-07-24 01:20:24,-2.6522516505775453
1.607,-2.894,-9.238,-0.009779952,-0.011002445,-0.0036674817,0.0,1.4404,-2.6033,-9.3444,-0.139501,0.240691,0.643583,-0.985322,0.074649,-0.084261,2017-07-24 01:20:25,5.227090658556735
1.608,-2.894,-9.237,-0.009779952,-0.014669927,-0.0073349634,0.0,1.4322,-2.6051,-9.3451,-0.14778,0.247822,0.63383,-0.985403,0.073832,-0.083734,2017-07-24 01:20:26,-0.5944849775126553
1.603,-2.893,-9.238,-0.004889976,-0.004889976,-0.004889976,0.0,1.4422,-2.6033,-9.3441,-0.12778,0.240665,0.634854,-0.985379,0.073797,-0.084239,2017-07-24 01:20:27,-0.9226961985493181
1.601,-2.893,-9.238,-0.004889976,-0.0085574575,-0.004889976,0.0,1.442,-2.6055,-9.3435,-0.127959,0.219498,0.635432,-0.985277,0.07495,-0.08439,2017-07-24 01:20:28,1.6317768681318259
1.604,-2.896,-9.238,-0.002444988,-0.012224939,-0.0073349634,0.0,1.4442,-2.6048,-9.3434,-0.12572,0.229199,0.635581,-0.985224,0.075589,-0.084586,2017-07-24 01:20:29,-0.5509341909787022
1.603,-2.897,-9.238,-0.004889976,-0.012224939,-0.0085574575,0.0,1.4386,-2.6034,-9.3446,-0.12231,0.221504,0.624354,-0.985269,0.075426,-0.084269,2017-07-24 01:20:30,0.4431309791707582
1.603,-2.897,-9.238,-0.0061124694,-0.0061124694,-0.0061124694,0.0,1.4347,-2.6035,-9.3452,-0.135233,0.240479,0.63376,-0.985251,0.075853,-0.084121,2017-07-24 01:20:31,0.7068709027107524
1.602,-2.896,-9.238,-0.0061124694,-0.013447433,-0.0061124694,0.0,1.4384,-2.6059,-9.344,-0.131585,0.228099,0.624981,-0.985267,0.075238,-0.084241,2017-07-24 01:20:32,-2.249701216290449
1.602,-2.897,-9.238,-0.004889976,-0.009779952,-0.0061124694,0.0,1.446,-2.602,-9.3439,-0.123964,0.231953,0.625085,-0.985284,0.074983,-0.084585,2017-07-24 01:20:33,0.17049651134944577
1.603,-2.896,-9.238,0.0,-0.009779952,-0.011002445,0.0,1.4421,-2.6038,-9.344,-0.098838,0.221125,0.634995,-0.985326,0.074448,-0.084323,2017-07-24 01:20:34,14.843832639313684
1.603,-2.894,-9.238,-0.002444988,-0.009779952,-0.0061124694,0.0,1.4375,-2.6015,-9.3453,-0.132405,0.232475,0.633637,-0.985357,0.074513,-0.084084,2017-07-24 01:20:35,-2.307034653819874
1.601,-2.894,-9.239,-0.001222494,-0.0085574575,-0.011002445,0.0,1.4411,-2.6047,-9.3439,-0.128849,0.229286,0.625074,-0.985236,0.075603,-0.084425,2017-07-24 01:20:36,-1.9605236090789173
1.604,-2.895,-9.238,-0.001222494,-0.012224939,-0.001222494,0.0,1.4409,-2.6008,-9.345,-0.129074,0.233132,0.652968,-0.985238,0.075953,-0.084441,2017-07-24 01:20:37,13.644483893702919
1.603,-2.895,-9.239,-0.002444988,-0.019559903,-0.002444988,0.0,1.4436,-2.6008,-9.3446,-0.117352,0.243169,0.624379,-0.985217,0.076094,-0.0846,2017-07-24 01:20:38,0.2312379884713775
1.599,-2.894,-9.238,-0.002444988,-0.002444988,-0.0085574575,0.0,1.4442,-2.606,-9.343,-0.096752,0.208951,0.654924,-0.985139,0.076583,-0.084719,2017-07-24 01:20:39,2.1681512594931327
1.601,-2.894,-9.238,-0.0036674817,-0.018337408,-0.0073349634,0.0,1.4397,-2.6024,-9.3447,-0.121269,0.250538,0.643228,-0.985272,0.075429,-0.084318,2017-07-24 01:20:41,12.315203618782181
1.601,-2.894,-9.237,-0.001222494,0.0,-0.004889976,0.0,1.438,-2.6024,-9.345,-0.093935,0.241522,0.614975,-0.985273,0.075494,-0.084241,2017-07-24 01:20:42,-2.2354853449425076
1.602,-2.893,-9.238,-0.0061124694,-0.009779952,-0.0036674817,0.0,1.4401,-2.6024,-9.3447,-0.120827,0.231535,0.643298,-0.985263,0.075524,-0.084354,2017-07-24 01:20:43,0.27524793948529924
1.603,-2.894,-9.238,-0.0085574575,0.002444988,-0.0073349634,0.0,1.4443,-2.6041,-9.3436,-0.116694,0.229872,0.654398,-0.985344,0.074078,-0.084387,2017-07-24 01:20:44,9.492660899981157
1.605,-2.894,-9.238,-0.0073349634,-0.020782396,-0.002444988,0.0,1.437,-2.6035,-9.3448,-0.123961,0.240472,0.624111,-0.985393,0.073863,-0.08398,2017-07-24 01:20:45,-0.14226302154536624
1.605,-2.893,-9.238,-0.004889976,-0.0073349634,-0.0085574575,0.0,1.4355,-2.6048,-9.3447,-0.125447,0.239144,0.643252,-0.985418,0.073484,-0.083859,2017-07-24 01:20:46,-0.6139819566959825
1.607,-2.893,-9.238,-0.001222494,-0.0073349634,-0.0036674817,0.0,1.4465,-2.6055,-9.3428,-0.123418,0.219471,0.626141,-0.985368,0.073496,-0.084436,2017-07-24 01:20:47,13.230666988699047
1.607,-2.894,-9.237,-0.004889976,-0.013447433,-0.013447433,0.0,1.4429,-2.6028,-9.3441,-0.127009,0.22218,0.634831,-0.985412,0.073364,-0.08422,2017-07-24 01:20:48,0.6268478798811841
1.606,-2.893,-9.24,0.001222494,-0.004889976,-0.001222494,0.0,1.4423,-2.6023,-9.3444,-0.146643,0.231684,0.643593,-0.985403,0.073571,-0.084212,2017-07-24 01:20:49,1.177760560289034
1.606,-2.895,-9.239,-0.0073349634,-0.009779952,-0.013447433,0.0,1.4441,-2.6065,-9.3429,-0.106856,0.237436,0.617052,-0.98525,0.075096,-0.084523,2017-07-24 01:20:50,7.436659092253484
1.607,-2.894,-9.238,-0.001222494,-0.01589242,-0.0036674817,0.0,1.4441,-2.6015,-9.3443,-0.11686,0.232459,0.624652,-0.985185,0.076412,-0.084671,2017-07-24 01:20:51,-2.6522516505775453
1.606,-2.894,-9.238,0.0,-0.014669927,-0.0061124694,0.0,1.4454,-2.6044,-9.3433,-0.124598,0.229575,0.61665,-0.985174,0.076216,-0.084724,2017-07-24 01:20:52,0.02115418122620977
1.604,-2.893,-9.239,-0.002444988,0.0036674817,-0.0073349634,0.0,1.4434,-2.6009,-9.3446,-0.117588,0.243026,0.643382,-0.985188,0.076461,-0.084637,2017-07-24 01:20:53,12.277461464889834
1.607,-2.894,-9.238,-0.011002445,-0.011002445,-0.0073349634,0.0,1.4415,-2.6031,-9.3442,-0.128461,0.230818,0.643707,-0.985146,0.0769,-0.084607,2017-07-24 01:20:54,-0.7731913471661379
1.606,-2.894,-9.239,-0.002444988,-0.019559903,-0.0073349634,0.0,1.4414,-2.6052,-9.3437,-0.109578,0.238723,0.635273,-0.985182,0.076238,-0.084525,2017-07-24 01:20:55,0.3148736233193982
1.606,-2.893,-9.238,0.001222494,-0.004889976,-0.004889976,0.0,1.4397,-2.6045,-9.3441,-0.130239,0.22949,0.624803,-0.98516,0.07668,-0.084492,2017-07-24 01:20:56,4.05674454736754
1.605,-2.893,-9.236,-0.009779952,-0.01589242,-0.009779952,0.0,1.4373,-2.6057,-9.3442,-0.142615,0.228246,0.624784,-0.985166,0.076608,-0.084366,2017-07-24 01:20:57,0.0
1.604,-2.893,-9.238,-0.0061124694,-0.017114915,-0.0085574575,0.0,1.4445,-2.6008,-9.3444,-0.135408,0.233192,0.653518,-0.985157,0.076815,-0.084743,2017-07-24 01:20:58,-1.104794542127157
1.606,-2.893,-9.238,-0.011002445,-0.0073349634,-0.0061124694,0.0,1.4473,-2.6016,-9.3438,-0.103615,0.232302,0.625198,-0.985107,0.077231,-0.084946,2017-07-24 01:20:59,-2.868442846046262
1.608,-2.893,-9.238,-0.0085574575,-0.009779952,-0.004889976,0.0,1.4427,-2.6032,-9.344,-0.137275,0.230778,0.6249,-0.985166,0.076573,-0.084626,2017-07-24 01:21:00,-2.2001479260657026
1.606,-2.893,-9.237,-0.0036674817,-0.014669927,-0.0061124694,0.0,1.4401,-2.6036,-9.3443,-0.110886,0.221302,0.615631,-0.985142,0.076975,-0.084545,2017-07-24 01:21:01,-3.299644432252487
1.607,-2.893,-9.238,-0.0061124694,-0.018337408,-0.011002445,0.0,1.4414,-2.603,-9.3443,-0.128524,0.24099,0.624649,-0.985204,0.076171,-0.084508,2017-07-24 01:21:02,-1.0235143502753965
1.606,-2.893,-9.238,-0.002444988,-0.012224939,-0.002444988,0.0,1.4343,-2.6065,-9.3444,-0.145646,0.227439,0.615542,-0.985258,0.075497,-0.084068,2017-07-24 01:21:03,-1.7397584093306027
1.607,-2.894,-9.239,0.002444988,-0.018337408,-0.011002445,0.0,1.4352,-2.6046,-9.3448,-0.134744,0.248373,0.643143,-0.985328,0.074716,-0.084004,2017-07-24 01:21:04,-2.0006743864472787
1.604,-2.894,-9.238,-0.002444988,0.0,-0.0061124694,0.0,1.4402,-2.6066,-9.3435,-0.148739,0.227368,0.635471,-0.985333,0.074192,-0.084204,2017-07-24 01:21:05,0.36195207694896364
1.604,-2.893,-9.237,0.001222494,0.0036674817,-0.0073349634,0.0,1.4454,-2.6034,-9.3436,-0.124564,0.240593,0.644371,-0.985277,0.074974,-0.084559,2017-07-24 01:21:06,1.786285271210415
1.603,-2.893,-9.238,-0.0036674817,-0.004889976,-0.0073349634,0.0,1.4489,-2.6045,-9.3427,-0.14007,0.248492,0.636219,-0.985166,0.076127,-0.084896,2017-07-24 01:21:07,-2.75500127050965
1.607,-2.893,-9.238,0.001222494,0.002444988,-0.002444988,0.0,1.4476,-2.602,-9.3436,-0.113395,0.241989,0.644319,-0.985177,0.076296,-0.084837,2017-07-24 01:21:08,-0.2532283022431861
1.607,-2.893,-9.237,0.002444988,-0.013447433,0.001222494,0.0,1.4385,-2.6033,-9.3447,-0.122441,0.230664,0.61529,-0.98521,0.076212,-0.084364,2017-07-24 01:21:09,-1.159838939553735
1.606,-2.893,-9.238,-0.004889976,-0.0061124694,-0.002444988,0.0,1.443,-2.6034,-9.3439,-0.136936,0.22159,0.606006,-0.98529,0.074918,-0.084429,2017-07-24 01:21:10,-2.0141408927999986
1.608,-2.894,-9.238,-0.0073349634,-0.013447433,-0.009779952,0.0,1.44,-2.6045,-9.3441,-0.148994,0.239426,0.634858,-0.985332,0.074426,-0.084212,2017-07-24 01:21:11,-0.03406248691911502
1.607,-2.893,-9.237,-0.002444988,-0.0073349634,-0.0061124694,0.0,1.4431,-2.6027,-9.3441,-0.11784,0.241258,0.643834,-0.985244,0.07559,-0.084518,2017-07-24 01:21:12,0.5527975808863645
1.606,-2.893,-9.238,-0.0073349634,-0.009779952,-0.0085574575,0.0,1.4401,-2.6046,-9.344,-0.139879,0.229307,0.63491,-0.985197,0.076175,-0.084446,2017-07-24 01:21:14,7.135660078036919
1.607,-2.893,-9.24,-0.004889976,-0.013447433,0.001222494,0.0,1.4459,-2.5961,-9.3455,-0.124094,0.256884,0.633416,-0.985232,0.076214,-0.084711,2017-07-24 01:21:15,-2.715193981554428
1.606,-2.894,-9.238,0.0,-0.0061124694,-0.0036674817,0.0,1.4389,-2.6069,-9.3436,-0.102022,0.237072,0.635356,-0.985207,0.075896,-0.084361,2017-07-24 01:21:16,0.377532164757971
1.608,-2.893,-9.238,0.0036674817,-0.011002445,-0.0073349634,0.0,1.4332,-2.6061,-9.3447,-0.127708,0.218861,0.634261,-0.985364,0.0742,-0.083842,2017-07-24 01:21:17,-1.7524385491969574
1.606,-2.895,-9.238,-0.0036674817,-0.013447433,-0.0061124694,0.0,1.4454,-2.6047,-9.3432,-0.105584,0.239247,0.635742,-0.985293,0.074638,-0.084521,2017-07-24 01:21:18,0.1088934243012612
1.604,-2.893,-9.238,-0.009779952,-0.002444988,-0.014669927,0.0,1.4374,-2.6035,-9.3448,-0.142547,0.230423,0.624187,-0.985317,0.074846,-0.08413,2017-07-24 01:21:19,0.48505530036094846
1.603,-2.893,-9.237,-0.009779952,-0.0073349634,-0.0073349634,0.0,1.439,-2.6053,-9.344,-0.130997,0.219696,0.634907,-0.985336,0.074352,-0.084154,2017-07-24 01:21:20,0.21512314690558418
1.603,-2.895,-9.238,-0.004889976,-0.002444988,-0.001222494,0.0,1.4398,-2.6043,-9.3442,-0.121138,0.220615,0.615783,-0.985398,0.073562,-0.084091,2017-07-24 01:21:21,0.08400542026431401
1.602,-2.895,-9.238,-0.002444988,-0.0085574575,-0.004889976,0.0,1.4374,-2.6067,-9.3439,-0.123504,0.227273,0.635072,-0.985429,0.073054,-0.083913,2017-07-24 01:21:22,-0.6188699086121093
