ACC_X,ACC_Y,ACC_Z,GYRO_X,GYRO_Y,GYRO_Z,LIGH_1,GRAV_X,GRAV_Y,GRAV_Z,LINACC_X,LINACC_Y,LINACC_Z,ROTVEC_X,ROTVEC_Y,ROTVEC_Z,TIME,VOICE
3.8283691,0.13719177,8.99176,2.2888184E-4,7.324219E-4,-0.0024719238,124.0,3.8445795,0.14206578,9.0205,0.002806425,-0.0041033626,0.005282402,-0.048716143,-0.19418871,-0.27333272,2017-05-27 09:35:55,41.38665281363344
3.8283691,0.13598633,9.0013275,0.0014343262,-4.8828125E-4,-0.0024719238,124.0,3.8414416,0.14076616,9.021856,0.001988411,-0.0067985654,0.009608269,-0.04779272,-0.19424003,-0.26877818,2017-05-27 09:35:56,53.683236984013504
3.8295593,0.13000488,8.9965515,0.0014343262,-4.8828125E-4,-0.0024719238,123.0,3.8415225,0.13708468,9.021879,-7.0667267E-4,-0.0066781193,0.0011081696,-0.047375537,-0.19433926,-0.26585475,2017-05-27 09:35:57,58.35764486402445
3.8259735,0.13479614,9.008514,0.0014343262,7.324219E-4,-0.0024719238,123.0,3.8396573,0.14146264,9.022605,-0.006207466,-0.009800345,-0.0020179749,-0.047125325,-0.19430482,-0.2658419,2017-05-27 09:35:58,50.12704023713827
3.819992,0.12760925,8.994156,-6.5612793E-4,-3.8146973E-4,-2.89917E-4,124.0,3.8418484,0.13558374,9.021763,-0.009183884,-0.007527262,0.0021514893,-0.04746327,-0.19433309,-0.26589182,2017-05-27 09:35:59,46.499541052194566
3.8271637,0.13719177,8.985779,5.493164E-4,-3.8146973E-4,9.460449E-4,125.0,3.8414295,0.13617046,9.021933,-0.007273197,-0.0019177794,-0.005171776,-0.047430784,-0.19431879,-0.2659077,2017-05-27 09:36:00,46.05759594926718
3.8211823,0.1335907,9.0013275,5.493164E-4,0.0020751953,9.460449E-4,124.0,3.8370705,0.1367881,9.023778,0.0049362183,8.4741414E-4,0.0032367706,-0.047420695,-0.194079,-0.2663324,2017-05-27 09:36:01,50.69081354635066
3.8271637,0.12283325,8.985779,-6.5612793E-4,-3.8146973E-4,-2.89917E-4,124.0,3.8369923,0.13914953,9.023775,-0.0013628006,-0.0074589998,0.003917694,-0.047279995,-0.19411369,-0.26622865,2017-05-27 09:36:02,50.94754862491904
3.803238,0.1288147,9.006119,-6.5612793E-4,0.0032806396,9.460449E-4,125.0,3.80218,0.13508658,9.038561,0.013091564,-0.0066230446,-7.915497E-5,-0.047667883,-0.19214293,-0.26984504,2017-05-27 09:36:03,54.73169285184152
3.7864838,0.13000488,9.014496,-6.5612793E-4,8.392334E-4,9.460449E-4,125.0,3.7950041,0.13500859,9.041577,7.662773E-4,-0.008173928,-0.0040397644,-0.047768343,-0.19164051,-0.2707637,2017-05-27 09:36:04,52.35144979642602
3.7852936,0.13598633,9.019272,-6.5612793E-4,8.392334E-4,-2.89917E-4,125.0,3.796918,0.13692842,9.040744,-6.4611435E-4,-5.4620206E-4,0.004667282,-0.047643438,-0.1917823,-0.27047527,2017-05-27 09:36:05,49.877887769407785
3.7745209,0.13838196,9.0168915,5.493164E-4,-3.8146973E-4,-2.89917E-4,125.0,3.7954912,0.13648465,9.041349,4.9853325E-4,-0.0048463494,2.9182434E-4,-0.04767761,-0.19169326,-0.2706429,2017-05-27 09:36:06,50.28194124792161
3.791275,0.1335907,9.024063,0.0017852783,8.392334E-4,-2.89917E-4,125.0,3.7936168,0.13668667,9.042133,-0.0049943924,-0.006302893,-0.004968643,-0.047675587,-0.19158952,-0.2708255,2017-05-27 09:36:07,57.981839100736956
3.791275,0.14077759,9.015686,5.493164E-4,-3.8146973E-4,9.460449E-4,125.0,3.7950058,0.13331994,9.0416,0.0062754154,-0.0053168237,-3.9291382E-4,-0.047869142,-0.19161214,-0.27084446,2017-05-27 09:36:08,57.82654151416497
3.7817078,0.1335907,9.006119,5.493164E-4,-3.8146973E-4,9.460449E-4,125.0,3.7933018,0.13501187,9.042292,-0.009901524,2.2794306E-4,-0.002872467,-0.047777243,-0.19154325,-0.27093813,2017-05-27 09:36:09,54.50024563732694
3.7817078,0.13598633,9.015686,5.493164E-4,8.392334E-4,-2.89917E-4,124.0,3.7923388,0.1344475,9.042704,-0.0056946278,8.2063675E-4,0.0047283173,-0.04781605,-0.19147868,-0.27106392,2017-05-27 09:36:10,48.80408001906568
3.7852936,0.13719177,9.01329,5.493164E-4,8.392334E-4,9.460449E-4,124.0,3.7928903,0.1395273,9.042395,0.004615307,-0.0018863082,9.536743E-6,-0.047509916,-0.1915959,-0.27076387,2017-05-27 09:36:11,50.78992354734429
3.7721252,0.13957214,9.0216675,5.493164E-4,-3.8146973E-4,9.460449E-4,125.0,3.7883775,0.13681644,9.044328,-0.0029833317,0.007939637,0.004504204,-0.04769556,-0.19129235,-0.27135596,2017-05-27 09:36:12,50.34258924831667
3.7721252,0.13121033,9.018082,5.493164E-4,-3.8146973E-4,-2.89917E-4,125.0,3.7904782,0.13658817,9.043451,-0.0067219734,-0.0054944456,0.0017051697,-0.047667872,-0.19140346,-0.2711515,2017-05-27 09:36:13,47.60765692998662
3.7745209,0.13598633,9.01091,5.493164E-4,-3.8146973E-4,-0.0014953613,124.0,3.7885518,0.13645865,9.044261,-0.009043694,-0.0060158223,0.008829117,-0.047716,-0.19129623,-0.2713553,2017-05-27 09:36:14,55.30615095837171
3.7673492,0.13838196,9.018082,0.0017852783,8.392334E-4,9.460449E-4,121.0,3.7859843,0.13706423,9.045326,-0.006964922,0.0017402172,6.3705444E-4,-0.04769327,-0.19115981,-0.27158886,2017-05-27 09:36:15,55.72184906608431
3.7769165,0.12641907,9.009705,5.493164E-4,8.392334E-4,9.460449E-4,122.0,3.7846103,0.13687985,9.045903,0.0023715496,-0.0052188486,-0.005209923,-0.047711402,-0.19107825,-0.27173817,2017-05-27 09:36:16,60.28364111573748
3.7685394,0.13838196,9.019272,5.493164E-4,8.392334E-4,9.460449E-4,123.0,3.7877166,0.13663834,9.044608,-0.0030500889,-0.0026816577,9.536743E-5,-0.04770965,-0.19125156,-0.27143216,2017-05-27 09:36:17,49.39111356262521
3.7781067,0.12641907,9.014496,5.493164E-4,8.392334E-4,-2.89917E-4,123.0,3.7847762,0.13608572,9.045846,0.0046491623,-0.009259686,-0.00429821,-0.047757927,-0.19107428,-0.27175936,2017-05-27 09:36:18,52.19417098699718
3.7757263,0.13479614,9.008514,5.493164E-4,8.392334E-4,-0.0014953613,123.0,3.7830186,0.139056,9.046536,0.0033874512,-0.0061748624,4.1675568E-4,-0.04758979,-0.19102415,-0.27179632,2017-05-27 09:36:19,49.495568607826435
3.7529907,0.1443634,9.0168915,5.493164E-4,-3.8146973E-4,-2.89917E-4,129.0,3.7667034,0.14010784,9.053326,-6.406307E-4,0.004741788,-0.005015373,-0.04760882,-0.19011119,-0.2734072,2017-05-27 09:36:20,51.54433497929689
3.7589722,0.1443634,9.020477,0.0017852783,0.0032806396,9.460449E-4,125.0,3.7604945,0.13981734,9.055911,-0.006336689,-0.00927946,-0.004497528,-0.047656026,-0.18975236,-0.27405104,2017-05-27 09:36:21,49.44172964992689
3.7434235,0.13719177,9.0216675,5.493164E-4,-3.8146973E-4,9.460449E-4,121.0,3.7519505,0.1350251,9.059526,-0.007844448,-0.008107558,0.009944916,-0.047981605,-0.18918368,-0.27514747,2017-05-27 09:36:22,51.94792728366234
3.742218,0.13240051,9.026459,5.493164E-4,8.392334E-4,9.460449E-4,123.0,3.749751,0.13920413,9.060373,0.005906582,-0.006304696,-0.0014410019,-0.04774268,-0.18912995,-0.27516732,2017-05-27 09:36:23,47.19613740348958
3.7350464,0.12641907,9.019272,5.493164E-4,-3.8146973E-4,9.460449E-4,123.0,3.7469075,0.13723351,9.06158,0.0037641525,-0.010383293,-0.0017681122,-0.047858015,-0.18899284,-0.27544278,2017-05-27 09:36:24,56.59207349782281
3.7242737,0.13838196,9.026459,5.493164E-4,8.392334E-4,0.0021514893,123.0,3.7462382,0.13403492,9.061905,0.004286766,0.0037537962,-0.002275467,-0.04806658,-0.18884131,-0.2757724,2017-05-27 09:36:25,55.83205770603308
3.7326508,0.1335907,9.0216675,5.493164E-4,8.392334E-4,0.0021514893,123.0,3.7457092,0.13067374,9.062173,0.0018167496,0.0034359097,-0.0045166016,-0.048269227,-0.18875346,-0.27598903,2017-05-27 09:36:27,54.49802415381494
3.7398224,0.13598633,9.042007,5.493164E-4,8.392334E-4,9.460449E-4,123.0,3.7435539,0.13395828,9.063015,9.448528E-4,0.009607539,0.0025453568,-0.04808315,-0.18868715,-0.27604684,2017-05-27 09:36:28,58.429129192042815
3.7194824,0.1443634,9.030045,5.493164E-4,0.0020751953,9.460449E-4,127.0,3.736705,0.13501556,9.065825,-0.0041236877,0.009821132,-0.0040006638,-0.048050243,-0.18831547,-0.27668506,2017-05-27 09:36:29,52.24924155325695
3.7147064,0.12641907,9.034836,0.0017852783,8.392334E-4,9.460449E-4,123.0,3.7346785,0.13683164,9.066633,-0.0019025803,0.0031833947,-0.006052971,-0.047950845,-0.18823144,-0.27680048,2017-05-27 09:36:30,55.53566286760666
3.7194824,0.13240051,9.037231,0.0017852783,-3.8146973E-4,-2.89917E-4,123.0,3.7351124,0.13509738,9.066481,-0.010421276,-0.010626167,-0.0015926361,-0.048052248,-0.18822625,-0.2768412,2017-05-27 09:36:31,45.0514015993035
3.7206879,0.13719177,9.034836,5.493164E-4,0.0032806396,9.460449E-4,125.0,3.7308328,0.13645692,9.068222,0.0028793812,0.0012112111,-0.0017290115,-0.04798957,-0.18800625,-0.27720484,2017-05-27 09:36:32,45.097779089308254
3.713501,0.1443634,9.037231,0.0017852783,8.392334E-4,9.460449E-4,124.0,3.7274504,0.13927345,9.069571,-6.1917305E-4,0.005439773,-4.644394E-4,-0.047828566,-0.18785365,-0.27742,2017-05-27 09:36:33,50.65885985269552
3.7123108,0.13719177,9.043213,5.493164E-4,-3.8146973E-4,9.460449E-4,123.0,3.7271345,0.13792633,9.069721,-0.0017900467,-2.5223196E-4,0.005208969,-0.04791765,-0.18782131,-0.2775042,2017-05-27 09:36:34,56.624168297800324
3.7075195,0.1288147,9.040817,5.493164E-4,-3.8146973E-4,9.460449E-4,123.0,3.7263346,0.13829851,9.070044,-0.005803108,-0.008136004,5.750656E-4,-0.047954645,-0.18772967,-0.27767518,2017-05-27 09:36:35,52.93232343542783
3.717102,0.13479614,9.026459,5.493164E-4,-0.0016021729,9.460449E-4,123.0,3.7283485,0.13801506,9.069221,0.0047545433,0.0020166785,0.002986908,-0.047907285,-0.18789186,-0.2773782,2017-05-27 09:36:36,51.09242599089065
3.7123108,0.14317322,9.042007,5.493164E-4,-0.0016021729,9.460449E-4,124.0,3.7264867,0.1384526,9.069979,-0.001584053,0.0051884353,0.0026760101,-0.047889024,-0.18779358,-0.27754346,2017-05-27 09:36:37,57.64006659775434
3.7099152,0.13719177,9.030045,5.493164E-4,-3.8146973E-4,9.460449E-4,123.0,3.7306824,0.13770449,9.068265,0.0064401627,-0.005371362,-0.008368492,-0.047915936,-0.1880192,-0.27715924,2017-05-27 09:36:38,58.4747033495832
3.7158966,0.13598633,9.036026,5.493164E-4,8.392334E-4,9.460449E-4,123.0,3.728014,0.13882877,9.069345,0.001627922,-0.0023305714,1.20162964E-4,-0.047860254,-0.18788688,-0.27737215,2017-05-27 09:36:39,47.380664915178194
3.721878,0.13121033,9.03363,0.0017852783,8.392334E-4,-2.89917E-4,124.0,3.7270935,0.14102383,9.069689,0.008243322,-0.009304255,-0.0033073425,-0.047707133,-0.18785264,-0.27738374,2017-05-27 09:36:40,54.65302954644305
3.7182922,0.13598633,9.042007,0.0017852783,-3.8146973E-4,9.460449E-4,123.0,3.7220316,0.13889574,9.071801,0.0029182434,0.0023535043,0.0034065247,-0.04788104,-0.18754807,-0.2779678,2017-05-27 09:36:41,58.955159398724845
3.7063293,0.13957214,9.037231,5.493164E-4,8.392334E-4,9.460449E-4,123.0,3.7249713,0.14077875,9.070565,-0.0067448616,-7.56979E-4,-0.00436306,-0.047756884,-0.18774758,-0.27758202,2017-05-27 09:36:42,46.508916090667036
3.7123108,0.13838196,9.043213,5.493164E-4,8.392334E-4,9.460449E-4,123.0,3.724305,0.13850647,9.070875,8.099079E-4,3.516525E-4,0.003522873,-0.04784243,-0.18767783,-0.27773014,2017-05-27 09:36:43,46.556735716989046
3.7182922,0.14077759,9.044403,5.493164E-4,8.392334E-4,-2.89917E-4,123.0,3.725509,0.13896964,9.070373,0.0051648617,0.0022698045,0.004175186,-0.047862317,-0.18774693,-0.27761623,2017-05-27 09:36:44,47.121437032403634
3.713501,0.14317322,9.03363,0.0017852783,-3.8146973E-4,9.460449E-4,123.0,3.7222967,0.14182463,9.071647,-0.0021848679,-0.0101804435,0.0064888,-0.047705676,-0.1876137,-0.2777987,2017-05-27 09:36:45,47.30758461468473
3.7194824,0.13957214,9.039612,0.0017852783,-3.8146973E-4,9.460449E-4,122.0,3.7239528,0.14125827,9.070977,0.006850958,-0.0014912486,-0.0033302307,-0.04771754,-0.18771122,-0.27763292,2017-05-27 09:36:46,43.58128468456947
3.7075195,0.1443634,9.044403,5.493164E-4,-3.8146973E-4,9.460449E-4,122.0,3.7243395,0.14184621,9.070808,-0.0034341812,0.0037382692,0.00438118,-0.047742516,-0.18768124,-0.27769288,2017-05-27 09:36:47,54.9014567586454
3.7027435,0.12641907,9.040817,5.493164E-4,-3.8146973E-4,9.460449E-4,123.0,3.7227886,0.13175325,9.071597,-0.0064747334,-0.004853919,0.002286911,-0.048303034,-0.18746758,-0.27824038,2017-05-27 09:36:48,49.591123545964976
3.7099152,0.12162781,9.039612,5.493164E-4,-3.8146973E-4,9.460449E-4,123.0,3.7230551,0.12959059,9.071519,0.0014503002,-0.0035415143,-0.004383087,-0.04843069,-0.18744528,-0.27831936,2017-05-27 09:36:49,47.76350413577842
3.7230835,0.12641907,9.028854,0.0017852783,8.392334E-4,0.0021514893,123.0,3.725717,0.13014044,9.070418,0.0071537495,-0.0020219535,-0.007276535,-0.048387025,-0.1876062,-0.27802578,2017-05-27 09:36:50,44.89301600026653
3.7063293,0.12522888,9.038422,5.493164E-4,8.392334E-4,9.460449E-4,122.0,3.7222295,0.13206448,9.071822,6.427765E-4,0.0043815672,0.0065555573,-0.048286792,-0.18744117,-0.27828115,2017-05-27 09:36:51,51.613125465898236
3.717102,0.1335907,9.036026,5.493164E-4,8.392334E-4,9.460449E-4,123.0,3.7195568,0.13298674,9.072905,0.002904892,0.0010525435,0.0068941116,-0.04824273,-0.18730523,-0.27850348,2017-05-27 09:36:52,56.56449441206692
3.7039337,0.12162781,9.034836,5.493164E-4,-3.8146973E-4,9.460449E-4,121.0,3.72057,0.12854941,9.072553,-0.00288105,-0.0057079196,-0.004716873,-0.048548013,-0.1872623,-0.27867433,2017-05-27 09:36:53,53.53911463675969
3.6979523,0.12641907,9.046799,0.0017852783,-3.8146973E-4,-2.89917E-4,121.0,3.7193198,0.13088827,9.073032,-0.0075814724,-0.003984049,0.007396698,-0.048368577,-0.18725538,-0.27862972,2017-05-27 09:36:54,46.05556773719316
3.6955566,0.11923218,9.042007,0.0017852783,8.392334E-4,9.460449E-4,122.0,3.7224634,0.13281956,9.071714,0.0072472095,-0.0070977807,-8.1825256E-4,-0.04824089,-0.18746756,-0.27822086,2017-05-27 09:36:55,47.374166547248684
3.7063293,0.13121033,9.034836,0.0017852783,8.392334E-4,9.460449E-4,122.0,3.7188601,0.13258152,9.073196,0.012604713,0.008749306,0.00669384,-0.048269648,-0.1872586,-0.27859294,2017-05-27 09:36:56,58.1239090780354
3.7099152,0.1288147,9.049194,5.493164E-4,8.392334E-4,-2.89917E-4,122.0,3.7197874,0.1318775,9.072826,0.0029633045,-0.002607733,0.007675171,-0.048307817,-0.1872991,-0.27853462,2017-05-27 09:36:57,63.177458221490795
3.7123108,0.1335907,9.046799,8.087158E-4,-6.866455E-4,-0.0014038086,123.0,3.7209775,0.13119079,9.072349,0.003754139,0.0018836707,0.0059604645,-0.048284262,-0.18739599,-0.27835888,2017-05-27 09:36:58,57.60212138254374
3.7123108,0.1335907,9.038422,-4.272461E-4,5.340576E-4,-1.6784668E-4,123.0,3.7214007,0.1309788,9.072179,0.0036358833,0.0030598044,-0.0027332306,-0.048354786,-0.18737523,-0.27841717,2017-05-27 09:36:59,51.06576170112717
3.7075195,0.12402344,9.036026,8.087158E-4,5.340576E-4,-1.6784668E-4,122.0,3.720098,0.13125609,9.072707,-0.0011208057,0.0075721294,0.010918617,-0.048343547,-0.18730602,-0.2785339,2017-05-27 09:37:00,58.326399047853755
3.717102,0.13240051,9.055176,-4.272461E-4,5.340576E-4,-1.6784668E-4,123.0,3.7168305,0.12908009,9.074079,0.010976076,0.0039224625,0.01252079,-0.048488617,-0.1871855,-0.27878898,2017-05-27 09:37:01,57.803213093595254
3.7063293,0.12522888,9.042007,8.087158E-4,5.340576E-4,-1.6784668E-4,123.0,3.7183318,0.1315489,9.073427,0.0063886642,-0.0011470914,0.00433445,-0.048333224,-0.1872107,-0.2786962,2017-05-27 09:37:02,53.14539773433195
3.7075195,0.1288147,9.05397,-4.272461E-4,5.340576E-4,0.0010375977,122.0,3.7196975,0.13126121,9.072871,-7.696152E-4,-0.0019758642,0.00971508,-0.048347216,-0.18729815,-0.27854872,2017-05-27 09:37:03,47.186576835279794
3.7051392,0.12760925,9.039612,8.087158E-4,5.340576E-4,-1.6784668E-4,126.0,3.7172978,0.1283735,9.073897,-0.0075013638,0.0015334487,0.0038013458,-0.048526343,-0.18709679,-0.27895495,2017-05-27 09:37:05,45.92607211263926
3.700348,0.12402344,9.047989,-4.272461E-4,5.340576E-4,-1.6784668E-4,124.0,3.7081428,0.13195585,9.077591,0.0031626225,-0.007542491,-0.0027780533,-0.048338212,-0.18656795,-0.2798125,2017-05-27 09:37:06,54.47046796995926
3.696762,0.12760925,9.042007,-4.272461E-4,5.340576E-4,-1.6784668E-4,124.0,3.7057235,0.1306788,9.078597,-2.0503998E-4,0.006779775,-0.0025053024,-0.04843412,-0.18647926,-0.2799965,2017-05-27 09:37:07,56.81820475722316
3.696762,0.13121033,9.0503845,8.087158E-4,0.0029754639,-1.6784668E-4,124.0,3.7042084,0.13285315,9.079184,0.002420187,-0.0012889504,-0.0046157837,-0.04831052,-0.18643111,-0.28004068,2017-05-27 09:37:08,72.13039376652384
3.6895752,0.14077759,9.0503845,-4.272461E-4,-6.866455E-4,-0.0014038086,123.0,3.701024,0.13296202,9.080481,6.968975E-4,-0.006771788,0.007940292,-0.048315953,-0.18625227,-0.28035188,2017-05-27 09:37:09,74.67401131598226
3.6955566,0.11804199,9.063538,-4.272461E-4,-6.866455E-4,-1.6784668E-4,123.0,3.7001667,0.1325896,9.080836,0.0058977604,-0.014171064,0.008489609,-0.048341278,-0.1861971,-0.28045535,2017-05-27 09:37:10,63.828835858355404
3.6943665,0.13000488,9.049194,8.087158E-4,-6.866455E-4,-0.0014038086,124.0,3.7006757,0.13195293,9.080638,0.001789093,-0.005159676,0.0014791489,-0.048377253,-0.1862149,-0.280436,2017-05-27 09:37:11,50.05285398905808
3.696762,0.12043762,9.046799,8.087158E-4,5.340576E-4,-1.6784668E-4,124.0,3.7002704,0.13168938,9.080806,0.0070142746,-0.010877281,-0.008184433,-0.048394423,-0.18618733,-0.28048918,2017-05-27 09:37:12,58.61954915062283
3.6895752,0.13479614,9.045593,-4.272461E-4,5.340576E-4,-1.6784668E-4,124.0,3.6994133,0.13216558,9.081149,-0.0052399635,6.554276E-4,-0.005457878,-0.04836927,-0.18614696,-0.280551,2017-05-27 09:37:13,56.52647281294698
3.6991425,0.1288147,9.043213,8.087158E-4,5.340576E-4,0.0010375977,124.0,3.701197,0.12856707,9.080474,0.007037878,-0.014917806,0.00522995,-0.04857668,-0.1861854,-0.28055045,2017-05-27 09:37:14,54.032165826487535
3.6835938,0.12402344,9.069534,-4.272461E-4,5.340576E-4,-1.6784668E-4,123.0,3.6922913,0.13148953,9.084057,2.2959709E-4,8.109212E-5,-4.0340424E-4,-0.04843526,-0.18573111,-0.2812906,2017-05-27 09:37:15,51.60561215862889
3.6656494,0.11685181,9.068329,8.087158E-4,5.340576E-4,-1.6784668E-4,124.0,3.685968,0.13368724,9.086592,-0.00957489,-0.016445756,0.00822258,-0.04832684,-0.18541107,-0.28180817,2017-05-27 09:37:16,43.976000945392535
3.6788177,0.1335907,9.068329,8.087158E-4,5.340576E-4,-1.6784668E-4,124.0,3.6850996,0.13349491,9.0869465,0.005090952,-0.010335892,0.0035562515,-0.048341263,-0.1853585,-0.28190345,2017-05-27 09:37:17,54.43565372183281
3.6847992,0.13479614,9.057556,-4.272461E-4,5.340576E-4,-1.6784668E-4,124.0,3.688509,0.13393897,9.085558,0.0048532486,0.007193342,-0.005129814,-0.048303034,-0.18555948,-0.2815446,2017-05-27 09:37:18,50.96512956974459
3.659668,0.12283325,9.045593,8.087158E-4,5.340576E-4,0.0010375977,124.0,3.6861129,0.13319722,9.086541,-0.011261463,-0.00981532,-0.0035190582,-0.048355456,-0.18541068,-0.281818,2017-05-27 09:37:19,51.14793814532051
3.6811981,0.1443634,9.047989,-4.272461E-4,5.340576E-4,-1.6784668E-4,123.0,3.6895869,0.13792725,9.08506,0.0038759708,0.007044062,-0.00548172,-0.048068352,-0.18571557,-0.28120044,2017-05-27 09:37:20,53.814449565643
3.6740265,0.1335907,9.062347,-4.272461E-4,-6.866455E-4,-1.6784668E-4,123.0,3.6900806,0.13465056,9.0849085,-0.004552126,-6.401539E-4,0.005756378,-0.048255216,-0.18566103,-0.28135413,2017-05-27 09:37:21,51.40416925325107
3.6740265,0.13719177,9.055176,8.087158E-4,-6.866455E-4,-0.0014038086,122.0,3.6873264,0.13745995,9.085984,-0.0055589676,-0.0022415519,0.006668091,-0.04809795,-0.18555406,-0.2814885,2017-05-27 09:37:22,43.41725059666157
3.6692352,0.12641907,9.069534,8.087158E-4,-6.866455E-4,-1.6784668E-4,121.0,3.6832583,0.13413443,9.087685,-0.0058169365,-0.0081406385,0.004696846,-0.048261408,-0.18532982,-0.28192732,2017-05-27 09:37:23,45.80143561809837
3.672821,0.14077759,9.067139,8.087158E-4,-6.866455E-4,-1.6784668E-4,123.0,3.683347,0.13844928,9.087584,0.0018680096,-9.2701614E-4,0.004834175,-0.048052948,-0.18534592,-0.28183296,2017-05-27 09:37:24,55.810738114421305
3.6811981,0.14077759,9.056366,8.087158E-4,5.340576E-4,-1.6784668E-4,121.0,3.6837034,0.1370822,9.08746,0.0066461563,0.0052704215,-0.0031852722,-0.048132934,-0.1853422,-0.28186494,2017-05-27 09:37:25,58.019553633153144
3.672821,0.1335907,9.063538,8.087158E-4,-6.866455E-4,-1.6784668E-4,122.0,3.6830986,0.1354689,9.0877285,-5.874634E-4,-0.0038583875,-0.0045166016,-0.048230845,-0.18527968,-0.28200394,2017-05-27 09:37:26,44.49591947913602
3.6656494,0.13598633,9.059952,8.087158E-4,-6.866455E-4,-1.6784668E-4,123.0,3.6836429,0.13595898,9.087502,-0.0067658424,4.4173002E-4,1.487732E-4,-0.04819987,-0.18531908,-0.28192616,2017-05-27 09:37:27,44.873907048823995
3.6752167,0.13121033,9.063538,8.087158E-4,5.340576E-4,0.0010375977,124.0,3.6816661,0.13657288,9.088293,-0.0036420822,-0.0049476624,-7.314682E-4,-0.048170142,-0.18521787,-0.28209105,2017-05-27 09:37:28,59.47767394751463
3.6824036,0.14317322,9.05397,8.087158E-4,-6.866455E-4,-1.6784668E-4,125.0,3.6806004,0.1371669,9.088716,-0.006873369,-0.0031415373,-0.010720253,-0.048138466,-0.18516792,-0.28216693,2017-05-27 09:37:29,62.78178837405982
3.6716309,0.13000488,9.065933,8.087158E-4,-6.866455E-4,-1.6784668E-4,123.0,3.6792822,0.13543686,9.089276,0.0027406216,-0.0050494373,0.0023298264,-0.048245665,-0.18506292,-0.28238207,2017-05-27 09:37:30,55.81066737644555
3.672821,0.13121033,9.058762,-4.272461E-4,5.340576E-4,0.0010375977,122.0,3.6795895,0.13205144,9.089201,0.0034210682,0.003110379,0.005502701,-0.048445735,-0.18502094,-0.28251848,2017-05-27 09:37:31,51.05969857144956
3.6632538,0.12402344,9.055176,8.087158E-4,-6.866455E-4,-1.6784668E-4,122.0,3.6759918,0.1325739,9.090649,-0.0021035671,-0.008166939,-0.009174347,-0.04842663,-0.18482633,-0.28284732,2017-05-27 09:37:32,51.213729237779795
3.668045,0.13479614,9.069534,8.087158E-4,5.340576E-4,-1.6784668E-4,121.0,3.6766794,0.13395591,9.090349,0.0016031265,-0.0012257695,0.007534027,-0.04834228,-0.18488957,-0.28271142,2017-05-27 09:37:33,52.232851714996556
3.6668396,0.12043762,9.0503845,8.087158E-4,5.340576E-4,0.0010375977,122.0,3.6786425,0.12997173,9.089615,-0.0017871857,6.413162E-4,0.0036582947,-0.048572443,-0.18493074,-0.28271443,2017-05-27 09:37:34,50.95146164458298
3.6608582,0.13000488,9.065933,-4.272461E-4,-6.866455E-4,-1.6784668E-4,123.0,3.67902,0.1326527,9.089422,-0.008094072,-0.00228481,0.0013847351,-0.048411917,-0.18499924,-0.28254497,2017-05-27 09:37:35,57.02735679431051
3.672821,0.13719177,9.069534,8.087158E-4,5.340576E-4,0.0010375977,122.0,3.6768785,0.13390295,9.09027,-0.0054922104,0.004862398,0.0016908646,-0.04834477,-0.1848999,-0.28269443,2017-05-27 09:37:36,55.22475498241639
3.6788177,0.12641907,9.07312,8.087158E-4,-6.866455E-4,-1.6784668E-4,122.0,3.6812465,0.13417833,9.088499,0.0075347424,-0.007396087,0.009220123,-0.048313808,-0.18515213,-0.28225026,2017-05-27 09:37:37,46.265563860555815
3.6656494,0.1335907,9.0707245,8.087158E-4,5.340576E-4,-1.6784668E-4,121.0,3.6783125,0.13622251,9.089657,-0.0036613941,1.4126301E-4,0.007443428,-0.048202243,-0.18502179,-0.28243896,2017-05-27 09:37:38,51.21731600481851
3.6668396,0.1335907,9.0707245,8.087158E-4,5.340576E-4,0.0010375977,121.0,3.6741683,0.13666274,9.091325,0.0081009865,-0.0039556175,-0.0025997162,-0.04818978,-0.18479492,-0.2828253,2017-05-27 09:37:39,44.588075211665874
3.676422,0.13598633,9.067139,8.087158E-4,5.340576E-4,0.0010375977,122.0,3.6761034,0.13668309,9.090544,0.00936532,-3.604144E-4,-0.001033783,-0.04818222,-0.18490478,-0.2826339,2017-05-27 09:37:40,55.06657188503951
3.672821,0.14675903,9.067139,8.087158E-4,5.340576E-4,0.0010375977,121.0,3.6761556,0.13497503,9.090547,0.0014312267,1.2774765E-4,-0.0027561188,-0.048283484,-0.18487778,-0.28271282,2017-05-27 09:37:42,54.11532606878047
3.6668396,0.13121033,9.069534,8.087158E-4,-6.866455E-4,-1.6784668E-4,121.0,3.6780417,0.13483086,9.089787,-0.002671957,-0.0033078343,8.2969666E-4,-0.048285797,-0.18498205,-0.28253412,2017-05-27 09:37:43,56.36096629448783
3.6620636,0.1288147,9.063538,8.087158E-4,5.340576E-4,-1.6784668E-4,122.0,3.678842,0.13748279,9.089423,0.0054974556,-0.0035511702,0.0014457703,-0.04812562,-0.18507388,-0.28232476,2017-05-27 09:37:44,53.041922383582886
3.6656494,0.13121033,9.063538,8.087158E-4,-6.866455E-4,-1.6784668E-4,121.0,3.6786432,0.1354188,9.089534,0.0047795773,9.134263E-4,-0.0039691925,-0.048248872,-0.18502644,-0.28244588,2017-05-27 09:37:45,58.97085236458919
3.6716309,0.13598633,9.061157,8.087158E-4,5.340576E-4,-1.6784668E-4,121.0,3.680951,0.13493119,9.088606,-0.003955126,-0.004466757,-0.0012865067,-0.04827008,-0.18514863,-0.2822423,2017-05-27 09:37:46,55.14752966831316
3.6716309,0.11923218,9.062347,8.087158E-4,5.340576E-4,0.0010375977,122.0,3.6770353,0.13261692,9.090226,0.0057115555,-0.012983829,-3.9863586E-4,-0.048420638,-0.18488619,-0.28274238,2017-05-27 09:37:47,53.36841421872292
3.6704407,0.12760925,9.056366,8.087158E-4,-0.0019073486,-1.6784668E-4,121.0,3.6819522,0.13389428,9.088218,-2.5367737E-4,-0.005875632,-0.0040636063,-0.0483783,-0.18520454,-0.2821806,2017-05-27 09:37:48,45.179483720551985
3.668045,0.13000488,9.056366,8.087158E-4,-6.866455E-4,-1.6784668E-4,121.0,3.6799922,0.1345015,9.089002,-0.003272295,0.0018894523,0.009064674,-0.04829884,-0.18508676,-0.28235805,2017-05-27 09:37:49,38.82407392849993
3.6656494,0.1335907,9.065933,8.087158E-4,-6.866455E-4,0.0010375977,122.0,3.6777902,0.13552955,9.089878,-0.0030870438,-0.0016052127,-0.0015678406,-0.04824514,-0.18498006,-0.28252453,2017-05-27 09:37:50,59.67718708456073
3.6692352,0.13838196,9.067139,8.087158E-4,5.340576E-4,-1.6784668E-4,126.0,3.681191,0.13396914,9.088524,-4.479885E-4,0.004831612,0.0070257187,-0.048315343,-0.18520635,-0.28215733,2017-05-27 09:37:51,55.61569554426094
3.6453094,0.14077759,9.063538,8.087158E-4,-6.866455E-4,-1.6784668E-4,125.0,3.6708837,0.1321001,9.092719,-0.013659477,0.009106249,3.30925E-4,-0.04847134,-0.18452875,-0.2833734,2017-05-27 09:37:52,57.27904219518928
3.6620636,0.12283325,9.056366,8.087158E-4,-6.866455E-4,-1.6784668E-4,123.0,3.6657755,0.13957931,9.094669,-0.015389919,-0.003217265,0.0077085495,-0.04804352,-0.18437131,-0.28350616,2017-05-27 09:37:53,59.5419917056875
3.651291,0.13121033,9.07431,8.087158E-4,-6.866455E-4,-1.6784668E-4,123.0,3.6693492,0.13625516,9.093277,4.5108795E-4,-0.0046685785,-0.0034246445,-0.048229534,-0.18451501,-0.28331918,2017-05-27 09:37:54,49.20245038597416
3.6572723,0.12641907,9.07312,8.087158E-4,-6.866455E-4,-1.6784668E-4,122.0,3.6666613,0.13449693,9.094388,1.8715858E-4,-0.007726595,0.002483368,-0.048342414,-0.18433197,-0.2836699,2017-05-27 09:37:55,57.367501426582365
3.668045,0.12283325,9.061157,8.087158E-4,-6.866455E-4,-1.6784668E-4,121.0,3.6687086,0.13306808,9.093583,0.009117365,-0.009448543,-0.007115364,-0.048444495,-0.18443643,-0.28352338,2017-05-27 09:37:56,48.26255420703245
3.6656494,0.12402344,9.05278,0.0020141602,5.340576E-4,-1.6784668E-4,121.0,3.665512,0.13445276,9.094852,0.009802818,-0.010074794,-0.018090248,-0.048348628,-0.18426616,-0.2837849,2017-05-27 09:37:57,53.13222507839782
3.6620636,0.12283325,9.062347,8.087158E-4,5.340576E-4,-1.6784668E-4,122.0,3.6695952,0.13245201,9.093235,0.0075502396,-0.008056596,-0.0017642975,-0.048454557,-0.184462,-0.2834827,2017-05-27 09:37:58,56.12851066203415
3.6608582,0.14077759,9.0707245,-2.4414063E-4,0.0017242432,-2.593994E-4,121.0,3.6697233,0.12934288,9.093227,-0.0010919571,0.00581114,0.0014667511,-0.048638772,-0.18441448,-0.2836237,2017-05-27 09:37:59,52.58941484555776
3.659668,0.12641907,9.051575,-2.4414063E-4,4.8828125E-4,-2.593994E-4,127.0,3.661303,0.13206573,9.096581,0.007721901,-0.0055335164,-0.018691063,-0.048484392,-0.18405083,-0.2841982,2017-05-27 09:38:00,53.864270379315016
3.6141968,0.14555359,9.075516,-2.4414063E-4,4.8828125E-4,-2.593994E-4,126.0,3.6539485,0.13446464,9.0995035,0.002048254,-0.0016708225,0.0026273727,-0.04838285,-0.18361247,-0.28491664,2017-05-27 09:38:01,54.20923969207945
3.6249695,0.13957214,9.077896,-2.4414063E-4,-7.324219E-4,9.460449E-4,124.0,3.6486797,0.13298671,9.10164,0.004881859,0.0033437759,-0.0025701523,-0.04848568,-0.18328853,-0.28550437,2017-05-27 09:38:02,51.00654241046463
3.630951,0.1288147,9.07431,-2.4414063E-4,4.8828125E-4,9.460449E-4,123.0,3.64773,0.13272215,9.102023,-0.005998373,-0.0035151988,-8.125305E-4,-0.048504055,-0.1832302,-0.28561008,2017-05-27 09:38:03,47.96549541381609
3.639328,0.13479614,9.082687,-2.4414063E-4,4.8828125E-4,9.460449E-4,124.0,3.6448317,0.13353297,9.103172,0.003813982,3.913492E-4,0.001625061,-0.048393954,-0.18307911,-0.28583258,2017-05-27 09:38:04,51.4719400025826
3.6381378,0.13719177,9.081497,-2.4414063E-4,4.8828125E-4,-2.593994E-4,127.0,3.6448925,0.13547513,9.10312,7.5149536E-4,0.0010330379,-0.0010223389,-0.04828834,-0.18317214,-0.2856393,2017-05-27 09:38:05,59.68762001077736
3.6285553,0.12522888,9.089859,-2.4414063E-4,-7.324219E-4,-2.593994E-4,126.0,3.6383162,0.13625129,9.105739,1.320839E-4,0.0036462098,0.0022773743,-0.048320606,-0.18276119,-0.2863516,2017-05-27 09:38:06,58.29546053622242
3.6297607,0.13598633,9.09346,9.613037E-4,-7.324219E-4,-2.593994E-4,124.0,3.6358933,0.13511378,9.106723,-0.006668091,0.0011639595,0.009963989,-0.04839445,-0.18260425,-0.28664342,2017-05-27 09:38:07,60.6178139053828
3.618988,0.13121033,9.080292,-2.4414063E-4,4.8828125E-4,9.460449E-4,124.0,3.637584,0.13711163,9.106018,0.0028619766,-0.004353225,0.004023552,-0.048271563,-0.18273516,-0.28638005,2017-05-27 09:38:08,60.053064173895486
3.6345367,0.13121033,9.079102,-2.4414063E-4,4.8828125E-4,0.0021820068,124.0,3.6351218,0.13596645,9.107018,0.008692741,-0.0044091046,-0.004673958,-0.04834593,-0.18257587,-0.286676,2017-05-27 09:38:09,55.86199214442398
3.6237793,0.13479614,9.087479,-2.4414063E-4,4.8828125E-4,-2.593994E-4,124.0,3.6328127,0.13733667,9.10792,6.5016747E-4,-0.0023618788,0.0035104752,-0.04826014,-0.18246682,-0.2868339,2017-05-27 09:38:10,60.489060195691984
3.626175,0.13719177,9.09465,-2.4414063E-4,4.8828125E-4,9.460449E-4,123.0,3.631744,0.13694102,9.108351,0.0028159618,5.669445E-4,0.007328987,-0.048290577,-0.18236314,-0.28702053,2017-05-27 09:38:11,56.75481162895978
3.6154022,0.12402344,9.088669,-2.4414063E-4,4.8828125E-4,-2.593994E-4,123.0,3.6326358,0.13534246,9.108019,0.0031182766,-0.005472183,-2.2697449E-4,-0.04838936,-0.18242452,-0.2869482,2017-05-27 09:38:12,54.552486494399716
3.6201935,0.13838196,9.075516,-2.4414063E-4,4.8828125E-4,9.460449E-4,128.0,3.6373966,0.13487121,9.106126,-0.005759716,0.003304422,-0.002445221,-0.04836819,-0.1826863,-0.28649488,2017-05-27 09:38:13,60.746808463966474
3.6141968,0.1335907,9.083878,-2.4414063E-4,0.0017242432,9.460449E-4,128.0,3.631263,0.13747363,9.108535,0.011214018,-0.0034922063,0.0012302399,-0.048266593,-0.182385,-0.28697547,2017-05-27 09:38:14,61.419582150952905
3.618988,0.13719177,9.075516,-2.4414063E-4,4.8828125E-4,-2.593994E-4,125.0,3.6256464,0.13630743,9.110789,0.003112793,0.0012516826,-0.010721207,-0.048349775,-0.1820475,-0.28757736,2017-05-27 09:38:16,49.80285180737507
3.618988,0.12402344,9.080292,-2.4414063E-4,-7.324219E-4,-2.593994E-4,124.0,3.628357,0.13702403,9.1097,0.0013360977,-0.012596309,-0.0025310516,-0.048300415,-0.18218116,-0.2873337,2017-05-27 09:38:17,54.52569487790116
3.6321564,0.1443634,9.086273,-2.4414063E-4,-7.324219E-4,9.460449E-4,124.0,3.63125,0.13894603,9.108518,0.010040522,0.0053484887,-0.0015907288,-0.048158303,-0.18237334,-0.28695998,2017-05-27 09:38:18,44.23325197134747
3.6118164,0.13479614,9.080292,-2.4414063E-4,-7.324219E-4,-2.593994E-4,123.0,3.630638,0.13755584,9.108784,-0.005481243,-0.004740089,-0.008167267,-0.04826332,-0.18235119,-0.287032,2017-05-27 09:38:19,42.96113129256945
3.6249695,0.13957214,9.086273,-2.4414063E-4,4.8828125E-4,-2.593994E-4,123.0,3.6263142,0.13922316,9.11048,-0.0019750595,0.0031340122,-0.00710392,-0.04817541,-0.18213709,-0.28736788,2017-05-27 09:38:20,54.95552686448076
3.610611,0.13598633,9.081497,-2.4414063E-4,4.8828125E-4,-2.593994E-4,124.0,3.6260333,0.1374306,9.110619,-0.004814625,-9.1166794E-4,-0.0010976791,-0.048287813,-0.182114,-0.2874439,2017-05-27 09:38:21,61.12376774658233
3.6177979,0.14196777,9.089859,-2.4414063E-4,4.8828125E-4,-2.593994E-4,124.0,3.628746,0.13642624,9.109555,-2.808571E-4,0.005942583,0.007083893,-0.048335034,-0.18222436,-0.28727144,2017-05-27 09:38:22,63.55262081725865
3.6213837,0.13479614,9.081497,-2.4414063E-4,-7.324219E-4,-0.0014953613,123.0,3.6312482,0.13597421,9.108563,-0.0024235249,-0.0020151734,-1.1444092E-5,-0.04835548,-0.18235748,-0.28705138,2017-05-27 09:38:23,53.35644228711598
3.6118164,0.1335907,9.076706,-2.4414063E-4,-7.324219E-4,-0.0014953613,124.0,3.6302104,0.13845098,9.10894,-0.0070211887,-0.004426539,-0.0036973953,-0.048227917,-0.18231876,-0.28707567,2017-05-27 09:38:24,56.38671120244585
3.6094208,0.13838196,9.081497,9.613037E-4,-7.324219E-4,-2.593994E-4,124.0,3.6287644,0.13951227,9.1095,-0.008430719,-5.829185E-4,-0.0014476776,-0.048161134,-0.18226159,-0.28715125,2017-05-27 09:38:25,59.140253530989185
3.6213837,0.13121033,9.0707245,9.613037E-4,4.8828125E-4,-2.593994E-4,123.0,3.6324434,0.13822165,9.108054,3.414154E-4,-0.0065774918,-0.008742332,-0.04821924,-0.18246485,-0.28682396,2017-05-27 09:38:26,58.50972694705356
3.6141968,0.15034485,9.076706,-2.4414063E-4,-7.324219E-4,9.460449E-4,123.0,3.6298232,0.1402985,9.109067,0.009201288,9.2972815E-4,0.0136528015,-0.048102897,-0.18235402,-0.28697482,2017-05-27 09:38:27,56.57063580288602
3.6237793,0.1288147,9.085083,-2.4414063E-4,-7.324219E-4,-2.593994E-4,124.0,3.6283624,0.13630828,9.109709,0.0045394897,-0.0071508735,-0.0017213821,-0.048342984,-0.18220066,-0.28731444,2017-05-27 09:38:28,57.43282969896661
3.6237793,0.13121033,9.076706,-0.0014801025,4.8828125E-4,-2.593994E-4,123.0,3.628056,0.1398021,9.109778,-0.006371498,0.0025923848,-4.7588348E-4,-0.04813677,-0.18224557,-0.28717056,2017-05-27 09:38:29,52.70755271214091
3.6141968,0.13479614,9.087479,9.613037E-4,-7.324219E-4,-2.593994E-4,124.0,3.627115,0.14143622,9.110127,-0.00407815,9.22665E-4,0.0025434494,-0.048042327,-0.1822216,-0.2871805,2017-05-27 09:38:30,53.98237555871688
3.6141968,0.14555359,9.071915,-2.4414063E-4,-7.324219E-4,9.460449E-4,124.0,3.6302242,0.14023456,9.108908,-0.0021066666,-0.0014545172,0.0024280548,-0.048105665,-0.1823755,-0.28693914,2017-05-27 09:38:31,55.73519153479424
3.6118164,0.13957214,9.086273,-2.4414063E-4,-7.324219E-4,9.460449E-4,123.0,3.630013,0.13662799,9.109046,0.009766579,-0.002614826,0.0065984726,-0.048319884,-0.18229944,-0.28713864,2017-05-27 09:38:32,60.161806193330875
3.6165924,0.13957214,9.083878,9.613037E-4,4.8828125E-4,9.460449E-4,123.0,3.6276362,0.1349536,9.110019,0.0076258183,-0.0045215487,-0.0020809174,-0.04842506,-0.18213555,-0.28745213,2017-05-27 09:38:33,58.17272052554269
3.6141968,0.14077759,9.0707245,9.613037E-4,-7.324219E-4,-2.593994E-4,126.0,3.63155,0.13664502,9.108433,-0.0027861595,0.004680693,-0.0011720657,-0.04831496,-0.18238644,-0.2869888,2017-05-27 09:38:34,57.342624239668154
3.6165924,0.13598633,9.077896,-2.4414063E-4,4.8828125E-4,-2.593994E-4,123.0,3.629183,0.13888869,9.109343,0.0017976761,-0.0024272352,4.0912628E-4,-0.04819058,-0.18221036,-0.28724808,2017-05-27 09:38:35,57.121903565007734
3.6130066,0.14196777,9.083878,-2.4414063E-4,-7.324219E-4,-2.593994E-4,127.0,3.6286106,0.13954493,9.109561,-0.004429579,0.0029770732,0.0032024384,-0.048156627,-0.18228646,-0.2871074,2017-05-27 09:38:36,56.45926380346851
3.6249695,0.13719177,9.085083,-2.4414063E-4,4.8828125E-4,-2.593994E-4,124.0,3.6307175,0.13955264,9.108721,0.0012729168,-0.0030665398,0.005396843,-0.048144806,-0.18239121,-0.28692514,2017-05-27 09:38:37,56.752984887846836
3.6177979,0.13240051,9.089859,-2.4414063E-4,4.8828125E-4,-2.593994E-4,124.0,3.6292622,0.13822941,9.109322,-0.0016527176,-0.005363956,0.0064020157,-0.0482269,-0.18228559,-0.28713185,2017-05-27 09:38:38,57.45297543480039
3.6225739,0.12641907,9.065933,9.613037E-4,-7.324219E-4,-2.593994E-4,125.0,3.6293452,0.14004835,9.109261,-0.0024113655,6.121397E-5,0.0059871674,-0.04811893,-0.18232264,-0.2870335,2017-05-27 09:38:39,58.98336097534021
3.6297607,0.1335907,9.086273,-2.4414063E-4,4.8828125E-4,-2.593994E-4,124.0,3.6283312,0.1361489,9.109724,0.013160944,-0.0021179914,0.00600338,-0.048352506,-0.18219604,-0.28732538,2017-05-27 09:38:40,58.26871222162695
3.6130066,0.13479614,9.081497,9.613037E-4,4.8828125E-4,9.460449E-4,123.0,3.6267917,0.1371415,9.110322,-0.0021266937,-0.0019045025,4.606247E-4,-0.04828824,-0.18214038,-0.28739914,2017-05-27 09:38:41,52.3443080275252
3.6177979,0.14794922,9.082687,9.613037E-4,4.8828125E-4,-2.593994E-4,124.0,3.6252537,0.14133741,9.110869,0.004988909,-0.01318343,-0.0063295364,-0.048052806,-0.18211496,-0.28736544,2017-05-27 09:38:42,53.1794735972036
3.6177979,0.13719177,9.080292,-0.0014801025,-7.324219E-4,-2.593994E-4,123.0,3.6279888,0.1373383,9.109842,2.4318695E-4,2.4846196E-4,-0.0033502579,-0.048282895,-0.18219793,-0.28729942,2017-05-27 09:38:43,51.722539490252174
3.6225739,0.14077759,9.080292,-2.4414063E-4,4.8828125E-4,-2.593994E-4,124.0,3.627278,0.13635871,9.110139,0.008000374,0.004684642,-5.092621E-4,-0.04833429,-0.18209359,-0.28749385,2017-05-27 09:38:44,48.45500613033923
3.6177979,0.14675903,9.080292,-0.0014801025,-7.324219E-4,9.460449E-4,127.0,3.6236165,0.13665795,9.111592,0.006242037,0.010555923,-9.737015E-4,-0.048333976,-0.1819393,-0.2877563,2017-05-27 09:38:45,57.05228695019819
3.605835,0.13479614,9.088669,-2.4414063E-4,4.8828125E-4,-2.593994E-4,127.0,3.6242626,0.13701808,9.11133,0.005322933,-0.0101078,-0.0067510605,-0.048311073,-0.18198214,-0.28767592,2017-05-27 09:38:46,60.615701799845354
3.597458,0.15991211,9.07431,-2.4414063E-4,4.8828125E-4,9.460449E-4,128.0,3.6183093,0.14107932,9.113634,-0.0011491776,-0.012340456,-0.005599022,-0.04808484,-0.18171914,-0.28804898,2017-05-27 09:38:47,49.514840198922826
3.6070251,0.14555359,9.083878,-2.4414063E-4,-7.324219E-4,9.460449E-4,126.0,3.614352,0.13829495,9.115247,-0.0058574677,0.0053922236,-0.0022697449,-0.048258856,-0.18144655,-0.28856903,2017-05-27 09:38:49,44.807904958462466
3.6082153,0.13957214,9.076706,-2.4414063E-4,-7.324219E-4,-2.593994E-4,126.0,3.6157494,0.1404974,9.114658,-0.0073263645,7.531047E-4,0.0034999847,-0.048125263,-0.1815646,-0.2883247,2017-05-27 09:38:50,49.73632615183779
3.6070251,0.13838196,9.098236,-2.4414063E-4,-7.324219E-4,-2.593994E-4,125.0,3.6123989,0.14005768,9.1159935,-2.3150444E-4,0.0011973232,0.0013532639,-0.04815894,-0.1813681,-0.28866935,2017-05-27 09:38:51,46.132367498504145
3.590271,0.12162781,9.087479,9.613037E-4,-0.001953125,-0.0014953613,125.0,3.606438,0.13848267,9.118378,-0.00594306,-0.016462266,-0.005048752,-0.048265293,-0.18100438,-0.28932118,2017-05-27 09:38:52,50.101952470800896
3.598648,0.13838196,9.085083,-2.4414063E-4,4.8828125E-4,9.460449E-4,126.0,3.603793,0.13861482,9.119422,0.0031104088,0.008645445,-0.0061540604,-0.048263114,-0.18085788,-0.28956866,2017-05-27 09:38:53,53.92655752671498
3.593872,0.13719177,9.088669,-2.4414063E-4,-7.324219E-4,9.460449E-4,129.0,3.604346,0.13785328,9.119215,0.0014185905,-5.829632E-4,-1.6307831E-4,-0.048284233,-0.18088776,-0.28952503,2017-05-27 09:38:54,50.58847853212676
3.6082153,0.14555359,9.092255,-2.4414063E-4,0.0017242432,9.460449E-4,125.0,3.5981224,0.1375359,9.121677,0.019890785,0.008651286,-0.0018110275,-0.048349943,-0.18056895,-0.2900865,2017-05-27 09:38:55,53.055010590100466
3.5914764,0.14196777,9.091064,-2.4414063E-4,-7.324219E-4,-2.593994E-4,128.0,3.599787,0.13813904,9.121011,0.005405426,0.004355088,0.004807472,-0.048299585,-0.180624,-0.28997672,2017-05-27 09:38:56,54.96582151301145
3.5807037,0.1335907,9.092255,9.613037E-4,4.8828125E-4,9.460449E-4,125.0,3.592997,0.13596232,9.12372,-1.6117096E-4,-0.002229154,-0.0011053085,-0.04842367,-0.18019994,-0.29073492,2017-05-27 09:38:57,43.722177100146254
3.581894,0.13479614,9.086273,-2.4414063E-4,-7.324219E-4,-2.593994E-4,126.0,3.5947206,0.13806458,9.123011,0.0010604858,-0.0027350783,-0.001493454,-0.048314136,-0.18033771,-0.29046574,2017-05-27 09:38:58,48.72430680553772
3.5807037,0.14555359,9.097046,-3.0517578E-5,1.2207031E-4,1.6784668E-4,127.0,3.589169,0.14055617,9.125157,-0.0049333572,-0.0052470565,4.005432E-4,-0.048177473,-0.18007052,-0.29087192,2017-05-27 09:38:59,39.20233990077111
3.573532,0.1443634,9.095856,0.0011749268,1.2207031E-4,1.6784668E-4,125.0,3.5848503,0.13927229,9.126875,6.5112114E-4,0.0055651367,-0.003063202,-0.04826538,-0.17975575,-0.2914323,2017-05-27 09:39:00,41.29059276669085
3.5687408,0.13957214,9.100632,-3.0517578E-5,-0.0010986328,-0.0010375977,123.0,3.5857701,0.14218543,9.126469,0.0027985573,0.0038221925,-0.0038642883,-0.04808747,-0.17990892,-0.29111487,2017-05-27 09:39:01,47.250417901546086
3.569931,0.15393066,9.097046,-3.0517578E-5,-0.0010986328,-0.0010375977,124.0,3.5850363,0.14510877,9.12671,-0.002715826,0.009323373,0.001876831,-0.047916044,-0.17992035,-0.29103872,2017-05-27 09:39:02,51.52245027465148
3.573532,0.14317322,9.098236,-3.0517578E-5,1.2207031E-4,1.6784668E-4,124.0,3.5829544,0.14238584,9.127571,0.0018398762,0.0010711551,-7.047653E-4,-0.048071094,-0.17975615,-0.29136708,2017-05-27 09:39:03,48.39203541205454
3.578308,0.14196777,9.09465,-3.0517578E-5,0.0013580322,1.6784668E-4,124.0,3.583291,0.1452179,9.127394,0.007525921,-0.0023436993,-7.2288513E-4,-0.047936216,-0.17982028,-0.2912142,2017-05-27 09:39:04,38.97614636068352
3.5723267,0.1335907,9.104218,-3.0517578E-5,0.0013580322,1.6784668E-4,127.0,3.5771055,0.13996732,9.129902,0.0064673424,-0.005936578,0.003019333,-0.04823377,-0.17938241,-0.29205102,2017-05-27 09:39:05,34.05407996841589
3.5627594,0.14675903,9.091064,-3.0517578E-5,-0.0010986328,-0.0010375977,124.0,3.5770464,0.14111152,9.129908,-0.0012280941,0.005420193,-0.006292343,-0.04812333,-0.1793979,-0.2919882,2017-05-27 09:39:06,48.98611803662284
3.5627594,0.13838196,9.105423,-3.0517578E-5,-0.0010986328,-0.0010375977,124.0,3.5770464,0.1403239,9.129919,-0.0021409988,-0.0014654845,0.006504059,-0.0482128,-0.17938556,-0.29203874,2017-05-27 09:39:07,55.628912467055045
3.565155,0.14794922,9.098236,-3.0517578E-5,-0.0010986328,-0.0010375977,124.0,3.5755634,0.14162801,9.130481,-0.001912117,-0.0027674884,-1.8692017E-4,-0.048138242,-0.17932586,-0.29211444,2017-05-27 09:39:08,41.04308839436464
3.565155,0.14555359,9.095856,-3.0517578E-5,1.2207031E-4,1.6784668E-4,124.0,3.5777004,0.1412402,9.12965,5.2928925E-5,-0.005852133,0.0044670105,-0.04815756,-0.17943878,-0.2919307,2017-05-27 09:39:09,42.24654074255503
3.5591736,0.13719177,9.111404,-3.0517578E-5,-0.0010986328,1.6784668E-4,123.0,3.5782156,0.1394706,9.129475,-0.007290125,-0.0018207729,0.0119133,-0.048261236,-0.17943576,-0.2919703,2017-05-27 09:39:10,51.67935750029752
3.5627594,0.14915466,9.104218,-3.0517578E-5,0.0013580322,1.6784668E-4,124.0,3.5755434,0.14082783,9.130501,0.008636713,-0.004422128,0.0021133423,-0.048185542,-0.17931028,-0.29215643,2017-05-27 09:39:11,55.38935936581255
3.5603638,0.13838196,9.106613,0.0011749268,1.2207031E-4,1.6784668E-4,127.0,3.5737417,0.1434943,9.131165,-0.001812458,-0.0046479553,0.0049991608,-0.048031013,-0.17925736,-0.29219404,2017-05-27 09:39:12,55.48752983702041
3.5555878,0.14317322,9.087479,-3.0517578E-5,-0.0010986328,-0.0010375977,124.0,3.5725534,0.1430977,9.131636,-0.0011014938,-0.0070114285,0.009114265,-0.048056375,-0.17918353,-0.2923267,2017-05-27 09:39:13,54.66086863361351
3.5543823,0.14675903,9.101837,0.0011749268,1.2207031E-4,-0.0010375977,124.0,3.5725517,0.14372307,9.131627,0.0068609715,0.0035616755,-0.003575325,-0.048019446,-0.17919473,-0.29229558,2017-05-27 09:39:14,56.5948710156826
3.5543823,0.1335907,9.112595,0.0011749268,1.2207031E-4,-0.0010375977,124.0,3.564887,0.14254335,9.134641,-9.849072E-4,-0.008137196,0.0016822815,-0.04812766,-0.17872298,-0.29312474,2017-05-27 09:39:15,55.45925144023876
3.5519867,0.14077759,9.1138,0.0011749268,1.2207031E-4,-0.0010375977,124.0,3.5670226,0.1435792,9.133791,0.008551836,0.00832732,-0.007130623,-0.04803667,-0.17888205,-0.2928271,2017-05-27 09:39:16,56.46627555672222
3.5531921,0.13000488,9.100632,0.0011749268,0.0025634766,-0.0010375977,125.0,3.5618248,0.14193511,9.135844,0.0014474392,-0.011528552,-0.009358406,-0.048141476,-0.17856088,-0.29340154,2017-05-27 09:39:17,58.34643506593574
3.5519867,0.13000488,9.103027,-3.0517578E-5,1.2207031E-4,-0.0010375977,125.0,3.559778,0.14007525,9.13667,3.130436E-4,-0.009934559,-0.010342598,-0.048240177,-0.17846382,-0.29359755,2017-05-27 09:39:18,36.22130284938954
3.5412292,0.14794922,9.11499,-3.0517578E-5,-0.0010986328,-0.0010375977,125.0,3.560077,0.14067931,9.136544,-0.0074357986,-7.032454E-4,0.0022830963,-0.048218098,-0.17844015,-0.29362985,2017-05-27 09:39:19,48.11133240163163
3.549591,0.13240051,9.109009,-3.0517578E-5,1.2207031E-4,-0.0010375977,125.0,3.5623755,0.14113748,9.135642,-0.0020515919,-0.008996561,-0.0014839172,-0.048150286,-0.17854379,-0.2934332,2017-05-27 09:39:20,58.554973239849815
3.5436096,0.13719177,9.1197815,-3.0517578E-5,-0.0010986328,1.6784668E-4,125.0,3.5587168,0.1416426,9.137059,-0.006975651,-0.0041271895,0.0035991669,-0.048163153,-0.17838141,-0.29371,2017-05-27 09:39:21,62.33048486068999
3.5412292,0.12760925,9.112595,-3.0517578E-5,1.2207031E-4,1.6784668E-4,124.0,3.5604725,0.1414808,9.136378,-0.0049746037,-0.003911823,0.0053663254,-0.04817023,-0.17847686,-0.29355222,2017-05-27 09:39:22,40.7731957824864
3.5460052,0.13479614,9.107819,0.0011749268,-0.0010986328,1.6784668E-4,125.0,3.5584662,0.13847438,9.137206,-0.002919197,-0.0033069104,-0.0048856735,-0.0483505,-0.17830981,-0.29389295,2017-05-27 09:39:24,48.28336612658586
3.5507965,0.13957214,9.1197815,-3.0517578E-5,1.2207031E-4,1.6784668E-4,125.0,3.5568025,0.13950889,9.137837,0.0041368008,-0.004408866,0.0030374527,-0.04829172,-0.17823538,-0.29399806,2017-05-27 09:39:25,42.436095839944116
3.5436096,0.14317322,9.111404,-3.0517578E-5,-0.0010986328,1.6784668E-4,124.0,3.559974,0.13822281,9.136622,0.009774208,0.0017136931,0.0024528503,-0.04836325,-0.17838976,-0.29376307,2017-05-27 09:39:26,53.42191335812419
3.5579681,0.14317322,9.118576,0.0011749268,1.2207031E-4,1.6784668E-4,124.0,3.5591016,0.13969308,9.13694,0.0010504723,-0.0034335703,0.0018997192,-0.048277684,-0.17836757,-0.29377162,2017-05-27 09:39:27,61.120342250348315
3.5400238,0.13479614,9.106613,-0.0012664795,1.2207031E-4,1.6784668E-4,125.0,3.5565193,0.14044611,9.137934,-0.0066440105,-0.0052609295,-0.006008148,-0.048236795,-0.17823653,-0.2939777,2017-05-27 09:39:28,57.58296695399388
3.5436096,0.15034485,9.110199,-3.0517578E-5,1.2207031E-4,1.6784668E-4,124.0,3.5579884,0.14381021,9.13731,0.0050280094,-0.0026355386,0.012476921,-0.048036247,-0.17837991,-0.29367,2017-05-27 09:39:29,51.79147364550386
3.5424194,0.14794922,9.11618,0.0011749268,1.2207031E-4,-0.0010375977,124.0,3.5578275,0.14081378,9.137419,-0.0055804253,0.007068515,0.003665924,-0.048186757,-0.17831823,-0.2938239,2017-05-27 09:39:30,55.73588077585116
3.5460052,0.14555359,9.1138,0.0011749268,1.2207031E-4,1.6784668E-4,125.0,3.555133,0.14399342,9.138418,5.0640106E-4,0.0019503981,1.4686584E-4,-0.048029345,-0.1782233,-0.2939303,2017-05-27 09:39:31,60.227257854039735
3.5460052,0.14196777,9.1138,-3.0517578E-5,1.2207031E-4,1.6784668E-4,125.0,3.5532105,0.1454683,9.139142,0.002765417,-0.012561515,0.005259514,-0.047944892,-0.17814241,-0.29403752,2017-05-27 09:39:32,50.25374582576574
3.5460052,0.13479614,9.1138,0.0011749268,1.2207031E-4,-0.0010375977,125.0,3.5536008,0.14260544,9.139036,0.0032196045,-0.00737527,0.0025787354,-0.048116706,-0.17811185,-0.2941464,2017-05-27 09:39:33,46.53865093566954
3.5424194,0.13957214,9.101837,0.0011749268,1.2207031E-4,1.6784668E-4,127.0,3.5560796,0.13899583,9.138127,0.0038638115,-0.006144166,-0.004248619,-0.04832298,-0.17818552,-0.29409215,2017-05-27 09:39:34,48.48228935118817
3.5400238,0.14196777,9.1138,0.0011749268,-0.0010986328,-0.0010375977,125.0,3.5539722,0.14538328,9.138847,-0.0019600391,-0.002925098,0.00578022,-0.047948897,-0.17818353,-0.29397,2017-05-27 09:39:35,55.03904245064717
3.5316467,0.14675903,9.109009,0.0011749268,1.2207031E-4,1.6784668E-4,125.0,3.554123,0.14365494,9.138817,-0.00907445,0.008020133,4.5871735E-4,-0.048050668,-0.17816056,-0.2940426,2017-05-27 09:39:36,55.16408227474478
3.5400238,0.14555359,9.112595,-3.0517578E-5,1.2207031E-4,1.6784668E-4,125.0,3.553123,0.14059062,9.139253,0.0040421486,-5.7691336E-4,-0.002729416,-0.048232786,-0.17804888,-0.2942909,2017-05-27 09:39:37,54.28665282989985
3.536438,0.14555359,9.11618,0.0011749268,-0.0010986328,1.6784668E-4,125.0,3.5524156,0.14234672,9.139501,-0.0047495365,0.002729997,0.0047864914,-0.048076235,-0.17804281,-0.29424846,2017-05-27 09:39:38,57.914559541198585
3.544815,0.13719177,9.109009,-3.0517578E-5,-0.0010986328,1.6784668E-4,125.0,3.554519,0.1422266,9.138684,9.036064E-5,-0.0046429336,-0.004494667,-0.048134416,-0.17815681,-0.29407698,2017-05-27 09:39:39,53.82843732105722
3.544815,0.13719177,9.109009,-3.0517578E-5,1.2207031E-4,1.6784668E-4,126.0,3.5510182,0.14295056,9.140034,-0.00889349,-0.0017511696,0.0043210983,-0.04809627,-0.17797391,-0.29437062,2017-05-27 09:39:40,55.0854160088694
3.5472107,0.14915466,9.110199,-3.0517578E-5,-0.0010986328,1.6784668E-4,125.0,3.5508342,0.14313903,9.140102,-0.010133982,0.003984958,-0.005393982,-0.048085388,-0.17796703,-0.2943785,2017-05-27 09:39:41,60.38616118979051
3.5316467,0.15274048,9.1197815,0.0011749268,1.2207031E-4,1.6784668E-4,126.0,3.5496273,0.13944231,9.140629,-0.0029966831,-0.0018501431,-0.0041828156,-0.04830499,-0.17783217,-0.29467815,2017-05-27 09:39:42,53.53097182735259
3.5412292,0.14317322,9.105423,-3.0517578E-5,1.2207031E-4,1.6784668E-4,125.0,3.5495849,0.14258136,9.140597,-0.0030808449,-0.002299726,-0.0049762726,-0.048119865,-0.17788692,-0.29452422,2017-05-27 09:39:43,55.48972412143488
3.5388336,0.13240051,9.107819,0.0011749268,1.2207031E-4,-0.0010375977,125.0,3.5540397,0.14255717,9.138865,0.010972023,-0.010824382,-0.014307976,-0.048115548,-0.17813598,-0.29410556,2017-05-27 09:39:44,52.248207367688124
3.544815,0.13479614,9.122162,0.0011749268,1.2207031E-4,-0.0010375977,125.0,3.549204,0.14597447,9.140691,0.0074219704,-0.010692552,0.011889458,-0.047920205,-0.17792732,-0.2943895,2017-05-27 09:39:45,56.884890808319824
3.5376282,0.14915466,9.105423,-3.0517578E-5,1.2207031E-4,-0.0010375977,125.0,3.5515213,0.13986021,9.139886,-0.0019288063,0.0049743354,0.0047035217,-0.048277944,-0.17794588,-0.29447863,2017-05-27 09:39:46,53.05933591367314
3.5292664,0.14915466,9.111404,0.0011749268,1.2207031E-4,1.6784668E-4,125.0,3.549045,0.14458783,9.140775,-0.012969494,-9.420067E-4,-6.980896E-4,-0.04800219,-0.1778932,-0.29447415,2017-05-27 09:39:47,54.16365731251989
3.5328522,0.13719177,9.1197815,0.0011749268,-0.0010986328,1.6784668E-4,126.0,3.5491056,0.14572607,9.140733,-0.004996538,-0.008072078,0.008041382,-0.04793498,-0.17791729,-0.29441124,2017-05-27 09:39:48,56.76788979649573
3.5412292,0.14196777,9.110199,-3.0517578E-5,1.2207031E-4,1.6784668E-4,126.0,3.550687,0.13999493,9.140208,6.148815E-4,0.0024727732,-0.0043754578,-0.048277497,-0.17789406,-0.2945653,2017-05-27 09:39:49,60.76567868245497
3.5376282,0.13719177,9.112595,0.0011749268,1.2207031E-4,-0.0010375977,126.0,3.5500703,0.14620385,9.140351,-5.428791E-4,-0.008522019,0.00288105,-0.04790558,-0.17797996,-0.29429644,2017-05-27 09:39:50,61.93493880017698
3.5388336,0.13838196,9.125763,0.0011749268,1.2207031E-4,-0.0010375977,126.0,3.5497844,0.14164059,9.140533,-0.006619215,-0.002847135,0.0010128021,-0.04817511,-0.177881,-0.2945527,2017-05-27 09:39:51,58.21431024882492
3.5340424,0.13957214,9.118576,0.0011749268,-0.0010986328,-0.0010375977,125.0,3.545144,0.144231,9.142294,-0.0016386509,-0.0045358837,0.001657486,-0.048011325,-0.1776917,-0.29481444,2017-05-27 09:39:52,61.14194824208298
3.528061,0.14196777,9.1245575,0.0011749268,1.2207031E-4,1.6784668E-4,125.0,3.5462897,0.1441549,9.14185,-0.009407759,-0.0018285662,0.0054454803,-0.04803111,-0.17773111,-0.29475516,2017-05-27 09:39:53,55.33029699756982
3.5292664,0.15153503,9.11499,0.0011749268,-0.0010986328,-0.0010375977,125.0,3.549811,0.14546715,9.140464,-0.009677172,0.006840527,0.001707077,-0.047969718,-0.17793079,-0.29440033,2017-05-27 09:39:54,49.15074140670512
3.5268707,0.14794922,9.110199,0.0011749268,-0.0010986328,1.6784668E-4,128.0,3.5478227,0.14544405,9.141235,-0.009772539,0.0029634684,-0.0022325516,-0.04795321,-0.17784037,-0.29454616,2017-05-27 09:39:55,51.07694050498288
3.536438,0.14555359,9.112595,-3.0517578E-5,1.2207031E-4,1.6784668E-4,126.0,3.547342,0.1437999,9.141448,-0.0023138523,-0.008131057,0.0029888153,-0.04805077,-0.17778355,-0.294674,2017-05-27 09:39:56,57.106616896114744
3.5304565,0.13000488,9.1197815,0.0011749268,1.2207031E-4,-0.0010375977,126.0,3.5458593,0.14599602,9.141989,-0.005069256,-0.005949393,0.0027122498,-0.04792306,-0.17774051,-0.29470307,2017-05-27 09:39:57,60.8153543656903
3.5328522,0.14675903,9.122162,3.0517578E-4,6.2561035E-4,0.0017852783,125.0,3.5448945,0.14097172,9.142442,0.003201723,-0.0021734834,-0.0040397644,-0.0482205,-0.17759503,-0.29504657,2017-05-27 09:39:58,63.244144367719855
3.5436096,0.13838196,9.11499,3.0517578E-4,6.2561035E-4,5.493164E-4,126.0,3.5435915,0.142564,9.142922,0.0090305805,-0.0038194656,-0.004678726,-0.04812812,-0.17755112,-0.2950889,2017-05-27 09:40:00,62.47594419231724
3.5232697,0.15753174,9.109009,-9.0026855E-4,6.2561035E-4,5.493164E-4,130.0,3.5453892,0.14157,9.1422415,0.00648427,-0.0068757236,-0.009208679,-0.048184633,-0.17763361,-0.29496995,2017-05-27 09:40:01,63.57931884132913
3.5220795,0.13838196,9.1138,-9.0026855E-4,6.2561035E-4,5.493164E-4,131.0,3.538959,0.13917223,9.144769,-0.0042595863,-0.0027364194,0.0033426285,-0.048333295,-0.17723,-0.29569483,2017-05-27 09:40:02,62.646486372268235
3.5196838,0.1335907,9.123367,-9.0026855E-4,-5.950928E-4,5.493164E-4,126.0,3.537773,0.13946804,9.145223,-0.0068511963,-0.0054343343,0.007194519,-0.048317116,-0.17716904,-0.2957912,2017-05-27 09:40:03,56.08669978407252
3.5172882,0.13957214,9.132935,-9.0026855E-4,-5.950928E-4,5.493164E-4,127.0,3.5395052,0.14155218,9.144521,0.0029346943,0.0068286806,0.010317802,-0.04819238,-0.17730401,-0.29552358,2017-05-27 09:40:04,54.14252277596097
3.5304565,0.14077759,9.11499,-9.0026855E-4,-5.950928E-4,-6.5612793E-4,127.0,3.5382926,0.14119191,9.144995,0.003421545,3.489852E-5,-9.088516E-4,-0.04821493,-0.17722961,-0.2956555,2017-05-27 09:40:05,56.95517296644276
3.5172882,0.13957214,9.120972,3.0517578E-4,6.2561035E-4,5.493164E-4,128.0,3.5346947,0.14037882,9.1463995,-0.0019185543,-0.012297481,-0.0054416656,-0.048266616,-0.17701347,-0.29603386,2017-05-27 09:40:06,50.29611861906883
3.5208893,0.14675903,9.1138,3.0517578E-4,6.2561035E-4,5.493164E-4,127.0,3.5282993,0.1387866,9.148891,0.0020532608,-0.0047762543,-0.0014467239,-0.048366588,-0.17662671,-0.29671282,2017-05-27 09:40:07,49.073636808334555
3.5316467,0.15872192,9.104218,-9.0026855E-4,0.0043029785,0.0017852783,127.0,3.528584,0.13962714,9.148769,0.013940573,0.0040236115,0.0023021698,-0.0483168,-0.17665802,-0.29664376,2017-05-27 09:40:08,60.13266128339438
3.5172882,0.1443634,9.123367,3.0517578E-4,-5.950928E-4,-6.5612793E-4,126.0,3.527054,0.14192082,9.149324,-0.0024456978,0.00772056,-0.0017662048,-0.048183043,-0.17661451,-0.2966709,2017-05-27 09:40:09,58.42439292937277
3.5101166,0.13838196,9.118576,3.0517578E-4,6.2561035E-4,5.493164E-4,130.0,3.5247092,0.14150989,9.150234,-0.0026845932,-0.0018831491,-0.0010414124,-0.048254937,-0.17645639,-0.29695874,2017-05-27 09:40:10,34.235489548704926
3.5149078,0.1335907,9.129349,-9.0026855E-4,6.2561035E-4,5.493164E-4,127.0,3.52035,0.13907415,9.15195,0.0055043697,-0.005051002,0.005856514,-0.04835637,-0.17618768,-0.29744056,2017-05-27 09:40:11,52.51263704315243
3.5017395,0.1443634,9.120972,3.0517578E-4,-5.950928E-4,-6.5612793E-4,126.0,3.5213714,0.1412629,9.151523,0.0030801296,-1.02460384E-4,0.006214142,-0.04822664,-0.17628492,-0.2972346,2017-05-27 09:40:12,57.92668298854906
3.5220795,0.15274048,9.130539,3.0517578E-4,6.2561035E-4,5.493164E-4,126.0,3.5194395,0.14077166,9.152273,0.01065588,0.012211606,-0.0015306473,-0.048253182,-0.17615722,-0.29745612,2017-05-27 09:40:13,55.41695299644683
3.5065308,0.14077759,9.137726,-9.0026855E-4,-5.950928E-4,-6.5612793E-4,127.0,3.5181804,0.14129981,9.152749,-0.004303932,-2.272129E-4,0.0040864944,-0.04822696,-0.17610736,-0.29753014,2017-05-27 09:40:14,53.013115070552004
3.507721,0.13838196,9.132935,3.0517578E-4,-5.950928E-4,5.493164E-4,127.0,3.5169802,0.13962539,9.153237,-5.9342384E-4,-0.0017191768,0.0015106201,-0.048278846,-0.17601037,-0.2977091,2017-05-27 09:40:15,60.89392914692673
3.5113068,0.13598633,9.132935,-9.0026855E-4,6.2561035E-4,5.493164E-4,127.0,3.5183246,0.13760366,9.15275,1.3184547E-4,-0.001337707,-0.0012168884,-0.048444524,-0.17604752,-0.29770374,2017-05-27 09:40:16,52.7714364165176
3.516098,0.13838196,9.126953,3.0517578E-4,6.2561035E-4,-6.5612793E-4,127.0,3.5192864,0.137986,9.152375,0.004814863,0.0014942884,-9.756088E-4,-0.04846384,-0.17616308,-0.29751807,2017-05-27 09:40:17,46.25248736471197
3.5196838,0.14555359,9.118576,3.0517578E-4,-5.950928E-4,5.493164E-4,127.0,3.5193665,0.13755657,9.15235,7.9870224E-5,0.0012836903,-0.002076149,-0.048446514,-0.17610486,-0.29760903,2017-05-27 09:40:18,55.15975427195816
3.5137024,0.1443634,9.128159,3.0517578E-4,0.0018615723,5.493164E-4,127.0,3.5165327,0.1391793,9.153416,0.008413076,0.0056290925,0.004009247,-0.048353054,-0.17597637,-0.2977909,2017-05-27 09:40:19,51.464847473686675
3.502945,0.14555359,9.130539,3.0517578E-4,-5.950928E-4,-6.5612793E-4,130.0,3.5158975,0.14097916,9.153632,-0.0033147335,0.0049608946,0.0019989014,-0.048306476,-0.17598543,-0.29775998,2017-05-27 09:40:20,55.616807920365055
3.5089264,0.1335907,9.132935,-9.0026855E-4,-5.950928E-4,-6.5612793E-4,129.0,3.5137155,0.14159134,9.15446,0.005079031,-0.007602975,0.004184723,-0.048213024,-0.1758634,-0.297931,2017-05-27 09:40:21,45.935776222518285
3.4969635,0.14077759,9.129349,3.0517578E-4,-5.950928E-4,-6.5612793E-4,128.0,3.5169084,0.13899389,9.153274,-0.008579493,0.0025326312,0.005247116,-0.04838182,-0.17598075,-0.29779345,2017-05-27 09:40:22,39.9650127435436
3.5053253,0.13957214,9.128159,-9.0026855E-4,-5.950928E-4,5.493164E-4,127.0,3.5158503,0.13905661,9.153679,-2.3913383E-4,6.419867E-4,-3.8528442E-4,-0.048345894,-0.17590988,-0.297899,2017-05-27 09:40:23,46.1273489652572
3.507721,0.13000488,9.1245575,-9.0026855E-4,0.0018615723,0.0017852783,131.0,3.5110185,0.14104022,9.155504,0.010052681,-0.009828746,0.004767418,-0.048285957,-0.17570761,-0.29821467,2017-05-27 09:40:24,51.5348699590254
3.4993439,0.13957214,9.11499,-9.0026855E-4,6.2561035E-4,5.493164E-4,129.0,3.509809,0.14292622,9.155938,0.002623558,-0.002821058,-0.006802559,-0.04813703,-0.1756699,-0.2982265,2017-05-27 09:40:25,60.07640975034352
3.495758,0.1443634,9.117386,3.0517578E-4,-5.950928E-4,5.493164E-4,130.0,3.5114489,0.14605108,9.155259,0.008633614,0.0012220889,0.013489723,-0.047952045,-0.17581885,-0.29791614,2017-05-27 09:40:26,58.03202855621762
3.4993439,0.13598633,9.128159,3.0517578E-4,6.2561035E-4,-6.5612793E-4,128.0,3.5071871,0.14241415,9.15695,0.0034189224,-0.005970508,6.122589E-4,-0.048168767,-0.17551419,-0.29849577,2017-05-27 09:40:27,53.80153184873539
3.4933624,0.15034485,9.1245575,3.0517578E-4,-5.950928E-4,5.493164E-4,129.0,3.5059764,0.14707279,9.157341,0.0051500797,-0.00695464,-0.005824089,-0.04789536,-0.17553236,-0.2983724,2017-05-27 09:40:28,57.59321657837677
3.4861908,0.15393066,9.129349,3.0517578E-4,6.2561035E-4,-6.5612793E-4,129.0,3.5018368,0.14396165,9.158974,-0.0044822693,0.0044960678,-0.0044612885,-0.048080668,-0.17524427,-0.29891336,2017-05-27 09:40:29,58.37050344061513
3.487381,0.15393066,9.129349,3.0517578E-4,-5.950928E-4,-6.5612793E-4,130.0,3.5039904,0.14657746,9.158109,-0.007258415,-0.0065139383,-0.0016441345,-0.047925636,-0.1754125,-0.29858148,2017-05-27 09:40:30,60.27835020483869
3.4778137,0.1288147,9.141312,3.0517578E-4,-5.950928E-4,-6.5612793E-4,130.0,3.4964693,0.14262122,9.161045,-0.0064253807,-0.013307646,0.012310982,-0.048162032,-0.1749203,-0.29947788,2017-05-27 09:40:31,54.36777124593852
3.4730225,0.14196777,9.132935,3.0517578E-4,6.2561035E-4,5.493164E-4,127.0,3.4902174,0.14429015,9.163403,0.008867264,0.005298525,6.799698E-4,-0.048066277,-0.17460276,-0.29997045,2017-05-27 09:40:32,56.03782403249554
3.4861908,0.15513611,9.131744,3.0517578E-4,-5.950928E-4,5.493164E-4,127.0,3.4937103,0.14644231,9.162038,-2.3555756E-4,8.228719E-4,-0.007003784,-0.047938474,-0.17483707,-0.29953906,2017-05-27 09:40:33,59.1726972379292
3.4861908,0.14317322,9.160461,3.0517578E-4,-0.0030517578,-6.5612793E-4,132.0,3.4879434,0.14632092,9.164236,0.0077517033,-0.002748996,0.021196365,-0.047947634,-0.17451365,-0.30007705,2017-05-27 09:40:34,56.97917782828565
3.392868,0.18145752,9.143707,-0.0045776367,0.039718628,0.017669678,131.0,3.3421378,0.1320639,9.218626,-0.23169374,-0.17750911,0.027570724,-0.04610364,-0.16689923,-0.29952174,2017-05-27 09:40:35,62.67522908972863
3.2720337,-0.10328674,9.180786,-9.0026855E-4,-0.060455322,-0.02998352,148.0,3.2920055,-0.09395951,9.237112,-0.008129597,-0.009665228,-0.023098946,-0.051216435,-0.1625275,-0.26922527,2017-05-27 09:40:37,59.14797544092092
3.355774,0.042663574,9.184387,0.018630981,-0.12397766,-0.18392944,121.0,3.3642712,0.05108959,9.211377,-0.027787209,-0.033417128,2.975464E-4,-0.04830783,-0.16738237,-0.28738403,2017-05-27 09:40:38,52.92259751626551
3.3629608,0.052246094,9.195145,-0.0021362305,0.0018615723,-0.0018920898,127.0,3.3717225,0.051214047,9.208651,-0.0033257008,-0.015603151,0.011483192,-0.048713777,-0.1676796,-0.28902528,2017-05-27 09:40:39,49.535486903331915
3.4167938,0.1288147,9.162842,0.0015411377,-0.0018157959,0.0017852783,119.0,3.4226348,0.13214882,9.189042,3.156662E-4,-0.0030964017,-0.009671211,-0.046533637,-0.17124213,-0.29451865,2017-05-27 09:40:40,54.620577250051944
3.4203796,0.13598633,9.172424,3.0517578E-4,-5.950928E-4,-6.5612793E-4,131.0,3.4231598,0.1390951,9.188745,0.004395008,-0.002176389,0.004668236,-0.045068957,-0.17170782,-0.28810668,2017-05-27 09:40:41,41.432341377756494
3.4024353,0.12402344,9.160461,-9.0026855E-4,-5.950928E-4,-6.5612793E-4,130.0,3.4200811,0.13618524,9.189935,-0.009212017,-0.011825994,-0.006811142,-0.04423057,-0.17171903,-0.28320605,2017-05-27 09:40:42,41.35257115383322
3.3952637,0.1335907,9.160461,3.0517578E-4,6.2561035E-4,-6.5612793E-4,132.0,3.4174492,0.1413707,9.190835,-0.012640715,-0.007967919,-0.0056762695,-0.043993775,-0.1716297,-0.28372976,2017-05-27 09:40:43,45.18775013848842
3.404831,0.1335907,9.181992,3.0517578E-4,0.0018615723,-6.5612793E-4,133.0,3.4049282,0.135763,9.195565,-0.0018837452,-0.0062293857,-0.009329796,-0.04437425,-0.17084375,-0.2852065,2017-05-27 09:40:44,55.40525760553655
2.6929626,-2.4554443,9.19754,0.5292969,1.02565,1.5338135,180.0,2.3513298,-1.1464072,9.451317,0.3480513,-1.3121663,-0.22797775,-0.065629534,-0.11751481,-0.05515055,2017-05-27 09:40:45,61.013906995670936
2.5793152,-0.761322,9.7981415,0.002746582,-0.0030517578,0.69325256,134.0,0.001980475,0.21660282,9.804257,2.556189,-0.99521387,0.036585808,0.011978168,0.0011790443,0.19539206,2017-05-27 09:40:46,59.79710231904317
-0.04800415,0.1288147,9.789764,-0.0033416748,-0.0018157959,0.010345459,210.0,0.0419135,0.22566527,9.803964,-0.089876324,-0.09662807,-0.004532814,0.011662161,9.804368E-4,0.26431575,2017-05-27 09:40:47,51.15761448534046
-0.05039978,0.11206055,9.811295,3.0517578E-4,-5.950928E-4,0.0017852783,208.0,-0.047008045,0.1264836,9.805721,-0.008171767,-0.013263077,0.011608124,0.0060925926,0.0031960679,0.12693995,2017-05-27 09:40:48,50.11944614237805
-0.051605225,0.11325073,9.81369,3.0517578E-4,6.2561035E-4,5.493164E-4,210.0,-0.053911157,0.11795006,9.805793,0.0025818981,-0.004399717,-2.7656555E-5,0.005771374,0.0031996449,0.07452854,2017-05-27 09:40:49,44.76484116399832
-0.04800415,0.12641907,9.820877,3.0517578E-4,-5.950928E-4,5.493164E-4,210.0,-0.05294605,0.119343415,9.805781,-0.004594434,0.0021802858,-0.012607574,0.005901216,0.0030805739,0.063510485,2017-05-27 09:40:50,45.90330384011168
-0.049209595,0.12402344,9.829254,3.0517578E-4,-5.950928E-4,0.0017852783,209.0,-0.051463492,0.117117316,9.805816,-0.0012015589,-0.005353421,0.0045814514,0.0057924897,0.0029984065,0.063593656,2017-05-27 09:40:51,46.71751569309048
-0.05758667,0.11804199,9.836426,-9.3078613E-4,-2.2888184E-4,-1.373291E-4,209.0,-0.05250605,0.121436775,9.8057575,-0.007323932,0.002234377,0.0034122467,0.0060091373,0.0030650168,0.063518964,2017-05-27 09:40:52,47.54807977178547
-0.05519104,0.11445618,9.844803,-9.3078613E-4,-2.2888184E-4,-1.373291E-4,209.0,-0.05377795,0.116298735,9.805813,-0.0012086071,-0.0022847578,0.0017051697,0.0057436596,0.003112919,0.06348908,2017-05-27 09:40:53,51.43211540489812
-0.058776855,0.11923218,9.845993,2.746582E-4,9.918213E-4,-1.373291E-4,210.0,-0.054725874,0.11667849,9.805803,-0.0074158385,0.011665121,-0.0041770935,0.005760065,0.0031621116,0.06344203,2017-05-27 09:40:54,51.5506671227286
-0.04562378,0.11685181,9.85437,2.746582E-4,-2.2888184E-4,-1.373291E-4,209.0,-0.052529775,0.11571268,9.805827,0.0047751702,-0.0018061996,0.005545616,0.0057176864,0.0030478658,0.06355153,2017-05-27 09:40:55,51.57636813229202
-0.058776855,0.12402344,9.844803,-9.3078613E-4,9.918213E-4,0.0010986328,209.0,-0.05152848,0.11305441,9.805863,0.003803473,7.893145E-4,-0.014181137,0.005585474,0.002988652,0.063614555,2017-05-27 09:40:56,51.13847050400814
-0.058776855,0.13000488,9.850784,2.746582E-4,9.918213E-4,-1.373291E-4,210.0,-0.054663,0.11470416,9.805826,-0.0038331896,0.014711775,-0.0053901672,0.005659757,0.0031526065,0.06345661,2017-05-27 09:40:57,48.60228005691806
-0.0599823,0.11445618,9.863937,2.746582E-4,-2.2888184E-4,0.0010986328,209.0,-0.05046457,0.11213364,9.80588,0.0075324066,0.008836478,-0.0018358231,0.0055419067,0.0029318382,0.06367031,2017-05-27 09:40:58,49.424222964203295
-0.056381226,0.11206055,9.865143,2.746582E-4,-2.2888184E-4,-1.373291E-4,209.0,-0.053332455,0.11352998,9.805848,0.0032211468,-0.0020835102,0.0014648438,0.0056040958,0.0030814938,0.06352644,2017-05-27 09:40:59,48.06137645173793
-0.0599823,0.104888916,9.872314,2.746582E-4,9.918213E-4,-1.373291E-4,210.0,-0.053751096,0.112103984,9.805862,-0.005895734,-0.007914729,0.0052518845,0.005530213,0.0030981125,0.06351503,2017-05-27 09:41:00,48.21767611318347
-0.061172485,0.11325073,9.869919,2.746582E-4,-2.2888184E-4,0.0010986328,208.0,-0.055313174,0.11392849,9.805832,-0.0067043155,-0.0013887212,0.006494522,0.0056182668,0.0031830324,0.06343042,2017-05-27 09:41:01,44.97049723751013
-0.056381226,0.11445618,9.869919,-9.3078613E-4,9.918213E-4,-1.373291E-4,208.0,-0.055505496,0.111709595,9.805857,-5.290285E-4,0.0020488203,0.0028123856,0.005504722,0.0031856615,0.063434355,2017-05-27 09:41:02,46.875808761441775
-0.049209595,0.1060791,9.881897,2.746582E-4,-2.2888184E-4,-1.373291E-4,210.0,-0.051065926,0.11491194,9.805844,-0.004974127,0.0023623258,0.0021629333,0.0056814626,0.0029712045,0.06362546,2017-05-27 09:41:03,47.55654485800315
-0.05039978,0.13000488,9.878296,-9.3078613E-4,9.918213E-4,-0.0013427734,208.0,-0.05259521,0.115236916,9.805833,0.0037383437,0.013235182,2.5844574E-4,0.0057242857,0.0031098884,0.06349301,2017-05-27 09:41:04,48.47517655563404
-0.061172485,0.12162781,9.879501,2.746582E-4,9.918213E-4,-1.373291E-4,208.0,-0.055145122,0.11287376,9.805845,-0.005627986,0.007936589,0.0026397705,0.0055650943,0.0031711475,0.06344456,2017-05-27 09:41:05,50.25157402595963
-0.05758667,0.11325073,9.878296,-9.3078613E-4,-2.2888184E-4,-1.373291E-4,210.0,-0.054509282,0.11363336,9.8058405,-0.007477179,0.010811254,0.0011920929,0.0056057223,0.0031413948,0.06347017,2017-05-27 09:41:06,51.361056608304814
-0.039642334,0.11325073,9.859161,2.746582E-4,-2.2888184E-4,-1.373291E-4,208.0,-0.049327023,0.11266288,9.805879,0.009989694,-1.08771026E-4,-0.007349968,0.0055723838,0.0028759574,0.06372097,2017-05-27 09:41:07,51.46526976773436
-0.03604126,0.11445618,9.857956,-9.3078613E-4,-2.2888184E-4,-0.0013427734,209.0,-0.05109181,0.11502633,9.805843,-0.008560099,-0.0037096292,0.0030603409,0.0056872047,0.0029728818,0.06362356,2017-05-27 09:41:08,57.41968990993386
-0.044418335,0.11804199,9.860352,-9.3078613E-4,9.918213E-4,-1.373291E-4,209.0,-0.051685084,0.10898187,9.805909,0.002793964,-0.001178667,-0.0047740936,0.0053776847,0.0029834968,0.06363119,2017-05-27 09:41:09,47.32715026422636
-0.053985596,0.10847473,9.871124,-9.3078613E-4,9.918213E-4,-0.0013427734,207.0,-0.051956363,0.11141106,9.80588,-0.0017272234,-0.0035839304,0.008245468,0.0055004964,0.0030050345,0.06360401,2017-05-27 09:41:10,50.058592643104376
-0.04562378,0.10966492,9.872314,2.746582E-4,9.918213E-4,-0.0013427734,209.0,-0.051538754,0.11008214,9.805897,0.0059024915,-9.812117E-4,0.005695343,0.0054292167,0.0029625632,0.063647896,2017-05-27 09:41:11,50.10369241016242
-0.053985596,0.1060791,9.859161,-9.3078613E-4,9.918213E-4,-1.373291E-4,210.0,-0.051087763,0.11342948,9.8058605,-0.0026222616,-0.007962227,4.0721893E-4,0.0056059337,0.0029675486,0.06363318,2017-05-27 09:41:12,51.39909066044174
-0.05279541,0.12402344,9.8519745,-9.3078613E-4,-2.2888184E-4,-1.373291E-4,207.0,-0.052806206,0.111395285,9.805876,0.009788778,0.007356569,0.0031175613,0.0054970607,0.0030480057,0.063563906,2017-05-27 09:41:13,50.173606071842734
-0.053985596,0.1060791,9.862747,-9.3078613E-4,-2.2888184E-4,-1.373291E-4,210.0,-0.050428133,0.11088055,9.805893,0.0050985664,0.008910157,-0.007528305,0.005478236,0.0029259655,0.063679434,2017-05-27 09:41:14,50.65315114304219
-0.04800415,0.10847473,9.857956,2.746582E-4,-2.2888184E-4,-1.373291E-4,210.0,-0.053114083,0.10873793,9.8059025,0.0042121783,-9.511262E-4,-0.006649971,0.0053664586,0.0029939974,0.063621975,2017-05-27 09:41:16,54.283305647515164
-0.05279541,0.12283325,9.867538,-9.3078613E-4,-2.2888184E-4,-0.0013427734,208.0,-0.045865655,0.11139346,9.805911,0.0041120537,0.0035993382,-6.971359E-4,0.00551857,0.0026966517,0.06389219,2017-05-27 09:41:17,55.83173763045665
-0.053985596,0.1060791,9.860352,2.746582E-4,-2.2888184E-4,-0.0013427734,207.0,-0.050794333,0.11146308,9.805885,-0.010073114,-7.18981E-5,0.006351471,0.0055067497,0.002946376,0.06365867,2017-05-27 09:41:18,54.487788886419615
-0.053985596,0.11206055,9.861557,-9.3078613E-4,9.918213E-4,-1.373291E-4,209.0,-0.054730598,0.109261245,9.805889,0.0010522343,0.002185963,6.227493E-4,0.005382481,0.003138585,0.06348542,2017-05-27 09:41:19,51.6416408443775
-0.05279541,0.11206055,9.872314,-9.3078613E-4,-2.2888184E-4,-0.0013427734,207.0,-0.05283599,0.11044987,9.805885,3.3952296E-4,-0.002600059,0.0013799667,0.0054488443,0.0030464793,0.06356807,2017-05-27 09:41:20,49.975687994639856
-0.04322815,0.12283325,9.862747,-9.3078613E-4,9.918213E-4,-0.0013427734,207.0,-0.052905526,0.108765185,9.805903,-0.004382465,0.0014911443,-0.0021018982,0.0053628734,0.0030445915,0.06357472,2017-05-27 09:41:21,52.10070006304066
-0.053985596,0.10847473,9.863937,2.746582E-4,-2.2888184E-4,-0.0025787354,208.0,-0.049363386,0.11045924,9.805904,-0.0019648336,-0.002604358,-5.788803E-4,0.0054601007,0.0028707075,0.063732296,2017-05-27 09:41:22,53.208494320937056
-0.049209595,0.10847473,9.85437,-9.3078613E-4,9.918213E-4,-0.0013427734,207.0,-0.051718257,0.10666689,9.805934,0.0027724952,0.0012637004,-0.0015869141,0.005259744,0.0029777358,0.0636433,2017-05-27 09:41:23,53.239535900880995
-0.05519104,0.10726929,9.868729,-9.3078613E-4,9.918213E-4,-0.0013427734,206.0,-0.05125389,0.10661606,9.805937,-0.0043911003,0.008490138,0.004442215,0.005258598,0.0029540595,0.063665584,2017-05-27 09:41:24,57.47600117522508
-0.04800415,0.11206055,9.865143,-9.3078613E-4,9.918213E-4,-0.0013427734,209.0,-0.05236294,0.106404044,9.805933,0.0022443011,-0.0020864308,0.0041646957,0.005244365,0.0030095344,0.06361433,2017-05-27 09:41:25,60.562406499311294
-0.05279541,0.11087036,9.860352,-9.3078613E-4,-2.2888184E-4,-0.0013427734,206.0,-0.050271273,0.107578404,9.805931,-0.0022502393,0.0062916353,-0.010969162,0.005310637,0.0029074023,0.0637064,2017-05-27 09:41:26,65.01662079078706
-0.05758667,0.11087036,9.859161,-9.3078613E-4,-2.2888184E-4,-1.373291E-4,207.0,-0.050888643,0.108093895,9.8059225,-0.0063745975,0.0019325837,-7.686615E-4,0.0053474046,0.0029432857,0.063670635,2017-05-27 09:41:27,55.99213694901014
-0.058776855,0.10966492,9.861557,-9.3078613E-4,-2.2888184E-4,-1.373291E-4,209.0,-0.052602317,0.10774699,9.805917,-0.005892027,0.0013392493,0.0029754639,0.005311983,0.0030259697,0.06359507,2017-05-27 09:41:28,56.49292785917838
-0.042022705,0.11923218,9.855576,-0.002166748,9.918213E-4,-1.373291E-4,208.0,-0.05260186,0.10643455,9.805931,0.0072622485,0.0050510094,-0.0081214905,0.0052451775,0.0030217303,0.06360284,2017-05-27 09:41:29,56.306428157124444
-0.049209595,0.10847473,9.850784,-0.002166748,-2.2888184E-4,-1.373291E-4,207.0,-0.052796192,0.107655115,9.805917,-0.003333047,0.002701424,-0.0055208206,0.005306706,0.0030354909,0.06358644,2017-05-27 09:41:30,56.68367281410616
-0.049209595,0.10726929,9.860352,-0.002166748,9.918213E-4,-0.0013427734,210.0,-0.05340582,0.10661011,9.805925,0.00444844,1.5569478E-4,0.008116722,0.005251624,0.0030630026,0.06356375,2017-05-27 09:41:31,56.92519941169703
-0.053985596,0.10726929,9.860352,-0.002166748,-2.2888184E-4,-0.0013427734,207.0,-0.0531369,0.10995167,9.80589,0.008967087,0.002784811,0.002617836,0.005422552,0.003060114,0.06355677,2017-05-27 09:41:32,57.472717394125766
-0.04800415,0.11206055,9.85437,-9.3078613E-4,-2.2888184E-4,-0.0013427734,208.0,-0.053642564,0.10711616,9.805918,0.005886007,0.004449986,0.003191948,0.0052766516,0.0030766148,0.063549556,2017-05-27 09:41:33,54.13472399549569
-0.044418335,0.11445618,9.850784,-0.002166748,9.918213E-4,-1.373291E-4,210.0,-0.05153627,0.10677231,9.805934,0.0073679015,0.008356169,-0.002711296,0.005265675,0.0029688599,0.06365129,2017-05-27 09:41:34,53.662305320707645
-0.04322815,0.11087036,9.85437,-9.3078613E-4,9.918213E-4,-1.373291E-4,207.0,-0.054666296,0.10893372,9.805892,0.0021079294,0.0026544705,0.004767418,0.0053660073,0.0031342797,0.06349039,2017-05-27 09:41:35,52.69401714980561
-0.05279541,0.12043762,9.836426,-9.3078613E-4,-2.2888184E-4,-0.0013427734,207.0,-0.05052765,0.10725016,9.805934,-0.0020301454,0.012683108,-0.015621185,0.005231021,0.002906333,0.063711934,2017-05-27 09:41:36,53.11002046746921
-0.049209595,0.10847473,9.856766,-9.3078613E-4,-2.2888184E-4,-0.0013427734,209.0,-0.052035954,0.10690282,9.80593,-0.0011576787,0.0012684464,-0.0052804947,0.0052707675,0.0029945804,0.06362687,2017-05-27 09:41:37,51.23115604801597
-0.061172485,0.12283325,9.841217,-9.3078613E-4,9.918213E-4,-1.373291E-4,207.0,-0.05311863,0.1090487,9.805901,-0.007801421,0.013266318,-0.0112838745,0.005376645,0.0030562906,0.06356296,2017-05-27 09:41:38,49.8403459210151
-0.051605225,0.10726929,9.8519745,-9.3078613E-4,-2.2888184E-4,-0.0013427734,207.0,-0.053408228,0.109309174,9.805896,0.0023599304,-0.0029723123,3.681183E-4,0.005409482,0.0030886566,0.063530736,2017-05-27 09:41:39,51.41016595631005
-0.0599823,0.11087036,9.850784,-9.3078613E-4,-2.2888184E-4,-1.373291E-4,209.0,-0.054837294,0.10689652,9.805914,0.0034985319,0.004644595,0.009184837,0.005261778,0.0031364043,0.063494295,2017-05-27 09:41:40,48.44557666539213
-0.05758667,0.11206055,9.855576,-0.002166748,-2.2888184E-4,-0.0013427734,207.0,-0.052331906,0.10745955,9.805922,-0.0074003637,0.011259213,-0.009159088,0.00529819,0.0030113547,0.06360957,2017-05-27 09:41:41,49.147382924088745
-0.058776855,0.12283325,9.842407,-9.3078613E-4,9.918213E-4,-1.373291E-4,207.0,-0.055826876,0.108506784,9.805891,-0.0027236417,0.013886549,-0.0032396317,0.005340694,0.0031916718,0.063437976,2017-05-27 09:41:42,47.17249615340574
-0.053985596,0.11445618,9.843613,-9.3078613E-4,9.918213E-4,-0.0013427734,208.0,-0.054200448,0.10721394,9.805915,-0.005528845,0.006741762,-0.0068855286,0.005279903,0.0031051761,0.06352257,2017-05-27 09:41:43,44.09518328278449
-0.049209595,0.11325073,9.8519745,-9.3078613E-4,9.918213E-4,-0.0013427734,208.0,-0.053338513,0.10880975,9.805902,0.004351653,0.0039866194,0.005125046,0.005363801,0.0030666562,0.06355396,2017-05-27 09:41:44,42.665550621430114
-0.05519104,0.11685181,9.838821,-9.3078613E-4,-2.2888184E-4,-0.0013427734,209.0,-0.05415121,0.10986399,9.805885,-0.0020377152,0.0065976754,-0.0018863678,0.0054149525,0.0031111846,0.06350929,2017-05-27 09:41:45,40.774800986751
-0.053985596,0.100097656,9.835236,-9.3078613E-4,9.918213E-4,-0.0013427734,207.0,-0.054534,0.110340744,9.805877,0.004309941,0.002554439,-0.0010490417,0.0054380395,0.0031320932,0.06348837,2017-05-27 09:41:46,43.72984686006485
-0.05039978,0.10966492,9.842407,-9.3078613E-4,-2.2888184E-4,-0.0013427734,206.0,-0.05209523,0.10757399,9.805922,7.0501864E-4,0.0028523803,0.005580902,0.0053047487,0.002999739,0.0636201,2017-05-27 09:41:47,46.09116903060809
-0.0599823,0.12043762,9.840012,-0.002166748,9.918213E-4,-0.0013427734,207.0,-0.054679334,0.107368656,9.80591,-0.00507544,0.0126221925,-0.006702423,0.005286299,0.0031299205,0.06349899,2017-05-27 09:41:48,43.89606719509089
0.86964417,-2.7521515,9.884277,-0.024154663,-0.0026855469,-3.0532074,141.0,-0.09255268,0.13221182,9.805323,-0.62144196,-3.7667103,0.046221733,0.0074648717,0.003462387,-0.1755377,2017-05-27 09:41:49,58.20238950465641
-0.10662842,0.16589355,9.840012,-9.3078613E-4,9.918213E-4,-0.0013427734,54.0,-0.09120451,0.118132815,9.805514,-0.016296655,0.048535258,0.008310318,0.006879779,0.0032516853,-0.21426009,2017-05-27 09:41:50,63.64011439290502
-0.08030701,0.17666626,9.838821,-9.3078613E-4,-0.0026855469,-0.0013427734,54.0,-0.07941076,0.17179143,9.804824,-6.1662495E-4,0.0042699277,-5.264282E-4,0.009326028,0.0024790324,-0.17231205,2017-05-27 09:41:51,47.7303376314324
-0.0982666,0.16589355,9.825653,-0.002166748,-2.2888184E-4,-0.0013427734,53.0,-0.09795681,0.15916823,9.80487,0.008326963,3.219247E-4,-0.011190414,0.00878441,0.0036939036,-0.15301822,2017-05-27 09:41:53,50.6446819713323
-0.10185242,0.17068481,9.848389,-0.002166748,9.918213E-4,-0.0013427734,51.0,-0.1015787,0.16241159,9.804779,1.08130276E-4,0.0076627135,0.006752014,0.008939956,0.003934316,-0.14383234,2017-05-27 09:41:54,53.34878118128445
-0.09347534,0.167099,9.843613,-9.3078613E-4,9.918213E-4,-0.0013427734,123.0,-0.094420746,0.16310136,9.804839,0.0037511587,0.005684823,9.613037E-4,0.008820461,0.0038127645,-0.116489194,2017-05-27 09:41:55,40.27121058796417
-0.09945679,0.1826477,9.859161,-9.3078613E-4,9.918213E-4,-0.0013427734,127.0,-0.09453092,0.15630624,9.804949,0.007465765,0.004102394,-0.015389442,0.008488959,0.0038322695,-0.11958271,2017-05-27 09:41:56,50.472878302967494
-0.08628845,0.16589355,9.871124,-9.3078613E-4,9.918213E-4,-0.0013427734,127.0,-0.08983436,0.15759213,9.804972,0.0040749833,0.0073732883,0.008406639,0.008525146,0.0035873079,-0.11950934,2017-05-27 09:41:57,60.252871192661246
-0.08509827,0.13479614,9.878296,-0.002166748,0.0022277832,-0.0013427734,126.0,-0.0912949,0.15959476,9.804926,0.013925314,0.0029446334,0.003976822,0.008635607,0.003648638,-0.11955594,2017-05-27 09:41:58,67.56462699170689
-0.07672119,0.12043762,9.868729,-9.3078613E-4,9.918213E-4,-0.0013427734,163.0,-0.079392806,0.13492636,9.8054,0.0031823814,-0.015356779,2.4604797E-4,0.0072197323,0.0034044466,-0.09110114,2017-05-27 09:41:59,41.401253233144814
-0.07672119,0.13000488,9.87471,-9.3078613E-4,-2.2888184E-4,-0.0013427734,165.0,-0.08054629,0.13959485,9.805326,7.379204E-4,0.009885803,-0.0104522705,0.0074917097,0.003376497,-0.099732846,2017-05-27 09:42:00,44.791903906507066
-0.08270264,0.1335907,9.885483,-0.002166748,-2.2888184E-4,-0.0013427734,163.0,-0.07986497,0.13547893,9.805389,0.0036910623,0.012747362,-0.00983429,0.007287937,0.0033443568,-0.10225985,2017-05-27 09:42:01,57.23502634257233
-0.08390808,0.13479614,9.87471,-0.002166748,-2.2888184E-4,-0.0013427734,163.0,-0.08449819,0.13308533,9.805384,0.0012019873,7.470995E-4,-0.0016775131,0.0071915733,0.003590071,-0.10250389,2017-05-27 09:42:02,61.350749936645585
-0.077926636,0.14077759,9.884277,-9.3078613E-4,9.918213E-4,-0.0013427734,164.0,-0.081734754,0.13733545,9.805347,0.00426054,0.0011736751,0.007906914,0.007455438,0.0034155063,-0.10231068,2017-05-27 09:42:03,43.90249001355366
-0.070739746,0.1563263,9.863937,6.866455E-4,-7.7819824E-4,-0.0010986328,163.0,-0.08135491,0.1352512,9.80538,-0.007909521,-0.0062855184,-0.0036144257,0.0072844084,0.0034205802,-0.10233287,2017-05-27 09:42:04,44.005952673731734
-0.07911682,0.15153503,9.87471,-5.493164E-4,-7.7819824E-4,1.373291E-4,164.0,-0.0816871,0.14079659,9.805299,0.0031717047,0.009701833,-0.0027809143,0.0075672823,0.003408803,-0.10229295,2017-05-27 09:42:05,36.14377095318936
-0.0874939,0.13479614,9.877106,6.866455E-4,4.4250488E-4,1.373291E-4,166.0,-0.0818986,0.14001384,9.805308,0.003414549,0.0044579655,0.0020208359,0.007528744,0.0034234768,-0.10231084,2017-05-27 09:42:06,39.69240770043801
-0.08151245,0.14077759,9.869919,6.866455E-4,-7.7819824E-4,-0.0010986328,165.0,-0.07757324,0.14290357,9.805303,-0.0034154803,-0.003090784,-0.0015830994,0.0076519963,0.003190821,-0.102076694,2017-05-27 09:42:07,43.40768010681896
-0.075531006,0.13719177,9.871124,6.866455E-4,4.4250488E-4,1.373291E-4,164.0,-0.082398094,0.14081366,9.805294,-0.006888002,-0.013030201,0.009572029,0.0075719734,0.00344452,-0.1023265,2017-05-27 09:42:08,46.050046473059865
-0.08390808,0.13957214,9.880692,-5.493164E-4,-7.7819824E-4,1.373291E-4,164.0,-0.081624806,0.1405154,9.805305,-2.6383996E-4,-0.0015606433,-0.004511833,0.0075526936,0.0034071105,-0.10229281,2017-05-27 09:42:09,45.642073240886454
-0.08509827,0.14077759,9.886673,-5.493164E-4,4.4250488E-4,1.373291E-4,164.0,-0.07869049,0.141228,9.805318,-0.007605806,-0.0010934025,0.006583214,0.0075730504,0.0032556783,-0.10214647,2017-05-27 09:42:10,47.83604776278544
-0.08390808,0.13240051,9.883087,6.866455E-4,-7.7819824E-4,1.373291E-4,166.0,-0.08104024,0.1399441,9.805317,-0.0010321066,9.352565E-4,0.0015096664,0.0075205914,0.0033806066,-0.10227082,2017-05-27 09:42:11,49.14978933273395
-0.07911682,0.1443634,9.881897,6.866455E-4,-7.7819824E-4,-0.0010986328,166.0,-0.08027653,0.14010204,9.805321,0.00107719,0.0029609203,0.004518509,0.0075345356,0.0033063337,-0.10219863,2017-05-27 09:42:12,45.80857343435178
-0.08030701,0.15393066,9.871124,6.866455E-4,-7.7819824E-4,-0.0010986328,164.0,-0.078286715,0.14438678,9.805275,-0.0014831051,0.0085531175,-0.0014324188,0.007731008,0.0032191437,-0.1020957,2017-05-27 09:42:13,50.14467692530719
-0.073135376,0.1563263,9.863937,6.866455E-4,-7.7819824E-4,-0.0010986328,165.0,-0.07864107,0.14001907,9.805336,-0.005929582,0.0022147298,0.0023994446,0.007511503,0.0032593934,-0.10215623,2017-05-27 09:42:14,46.08188147288091
-0.08628845,0.13838196,9.883087,6.866455E-4,4.4250488E-4,-0.0010986328,167.0,-0.07795905,0.1433529,9.805293,-0.0073164403,-0.004467845,0.011228561,0.0076051014,0.0032396659,-0.10212797,2017-05-27 09:42:15,38.79709041586268
-0.07194519,0.15153503,9.865143,-5.493164E-4,4.4250488E-4,1.373291E-4,166.0,-0.07907937,0.14215733,9.805301,0.00811711,0.009755641,-0.0028572083,0.0075599807,0.0033009434,-0.10219092,2017-05-27 09:42:16,46.991709004916274
-0.068344116,0.15393066,9.861557,-5.493164E-4,4.4250488E-4,1.373291E-4,166.0,-0.07668589,0.14475036,9.805282,0.008847944,0.008224875,-0.00844574,0.007740863,0.0031366742,-0.10201614,2017-05-27 09:42:17,48.43554125499088
-0.073135376,0.14675903,9.866333,6.866455E-4,4.4250488E-4,-0.0010986328,165.0,-0.077460594,0.14442335,9.805281,-0.0059539527,-0.0033757538,0.005765915,0.0077284346,0.0031773585,-0.10205615,2017-05-27 09:42:18,46.5307597606649
-0.08509827,0.1335907,9.872314,-5.493164E-4,-7.7819824E-4,-0.0010986328,167.0,-0.07823045,0.14189276,9.805311,-0.0051712915,-0.0032390058,0.010725975,0.0076042805,0.0032291005,-0.102117985,2017-05-27 09:42:19,32.27956966620491
-0.08390808,0.1443634,9.87471,-5.493164E-4,4.4250488E-4,-0.0010986328,166.0,-0.07993355,0.13857295,9.805346,-0.0033989847,0.0047926754,-0.0012378693,0.0074451393,0.0033319134,-0.10223206,2017-05-27 09:42:20,26.552825351772135
-0.06954956,0.15153503,9.865143,-5.493164E-4,-7.7819824E-4,-0.0010986328,165.0,-0.07812689,0.14311601,9.805295,-4.8327446E-4,0.007490903,-0.0049448013,0.0076657333,0.0032176117,-0.102100834,2017-05-27 09:42:21,41.96495318086601
-0.08988953,0.14555359,9.87471,6.866455E-4,4.4250488E-4,-0.0010986328,166.0,-0.07606114,0.14400013,9.805298,0.003390953,-0.0017076135,-0.003709793,0.007699488,0.0031090584,-0.10199401,2017-05-27 09:42:22,40.756449175084406
-0.0874939,0.12641907,9.8519745,6.866455E-4,-7.7819824E-4,-0.0010986328,166.0,-0.077096745,0.14231616,9.805315,0.005606577,0.0047931075,-0.006419182,0.007619667,0.0031698374,-0.10205997,2017-05-27 09:42:23,40.546399218671176
-0.07672119,0.14794922,9.8519745,-5.493164E-4,-7.7819824E-4,-0.0010986328,166.0,-0.07689133,0.14250734,9.805313,6.2543154E-4,0.004598066,-0.011398315,0.0076282583,0.0031585135,-0.102048315,2017-05-27 09:42:24,44.762551050601814
-0.07672119,0.14915466,9.859161,-5.493164E-4,4.4250488E-4,1.373291E-4,164.0,-0.0804519,0.13721046,9.80536,-0.0017675757,0.0027430952,-0.005085945,0.0073788622,0.003365022,-0.10227033,2017-05-27 09:42:25,46.9513793836728
-0.070739746,0.14555359,9.863937,6.866455E-4,-7.7819824E-4,1.373291E-4,167.0,-0.07753602,0.14263418,9.805306,0.0075432286,0.0027917773,0.0030555725,0.0076054693,0.0032091993,-0.102098905,2017-05-27 09:42:26,32.81882721611232
-0.08390808,0.1335907,9.857956,-5.493164E-4,-7.7819824E-4,-0.0010986328,165.0,-0.07946305,0.14122517,9.805311,-3.9301068E-4,0.014299676,-0.0077753067,0.0075770537,0.003294599,-0.10218315,2017-05-27 09:42:27,40.91136128101227
-0.07194519,0.1563263,9.861557,-5.493164E-4,4.4250488E-4,1.373291E-4,165.0,-0.08085234,0.13697486,9.80536,0.009381309,0.018548146,-0.0013065338,0.0073690736,0.0033864025,-0.1022917,2017-05-27 09:42:28,52.61244132002236
-0.08390808,0.1443634,9.857956,6.866455E-4,4.4250488E-4,1.373291E-4,166.0,-0.07927138,0.14213261,9.8053,-0.0033602044,0.0018659085,-0.003768921,0.00760357,0.0033236751,-0.10220817,2017-05-27 09:42:29,56.989842394615344
-0.08390808,0.14196777,9.85318,-5.493164E-4,-7.7819824E-4,1.373291E-4,164.0,-0.079963036,0.14000352,9.805325,5.413592E-5,0.0012672395,-0.004547119,0.0075178132,0.0033260512,-0.10221911,2017-05-27 09:42:31,29.822556818519608
-0.08509827,0.13000488,9.855576,6.866455E-4,-7.7819824E-4,-0.0010986328,164.0,-0.07776454,0.13848838,9.805364,-0.010520473,-0.00321275,-0.0013122559,0.0074292095,0.003223103,-0.102129966,2017-05-27 09:42:32,39.22606101413245
-0.07194519,0.1443634,9.859161,6.866455E-4,4.4250488E-4,1.373291E-4,166.0,-0.075817674,0.13835098,9.805381,0.0042709634,0.005285293,0.002245903,0.0074118124,0.003125749,-0.102038935,2017-05-27 09:42:33,41.81582254058286
-0.08151245,0.14077759,9.850784,6.866455E-4,-7.7819824E-4,-0.0010986328,166.0,-0.07999276,0.1389201,9.80534,0.006060362,0.008346349,8.382797E-4,0.0074630547,0.0033331127,-0.10223139,2017-05-27 09:42:34,47.15762026540205
-0.077926636,0.1443634,9.855576,-5.493164E-4,-7.7819824E-4,1.373291E-4,165.0,-0.08224104,0.13628785,9.805358,0.0047523454,0.007349819,-0.0019960403,0.0073417258,0.0034598836,-0.10236452,2017-05-27 09:42:35,44.57775012335753
-0.07432556,0.1443634,9.8471985,-5.493164E-4,-7.7819824E-4,-0.0010986328,165.0,-0.08116445,0.13634808,9.8053665,-0.0035373569,-0.0034233928,0.009485245,0.007338982,0.0034053456,-0.10231281,2017-05-27 09:42:36,45.8202136676497
-0.08270264,0.14555359,9.844803,-5.493164E-4,4.4250488E-4,-0.0010986328,167.0,-0.08080282,0.1381148,9.805345,-0.0027408972,0.005730927,-0.012709618,0.007468854,0.0033094012,-0.102208205,2017-05-27 09:42:37,51.23285730390728
-0.073135376,0.13121033,9.842407,-5.493164E-4,4.4250488E-4,-0.0010986328,165.0,-0.081798315,0.13736594,9.8053465,-0.0041218996,-0.0103750825,-0.007081032,0.0073939874,0.0034320392,-0.10233267,2017-05-27 09:42:38,51.74956654187942
-0.08030701,0.13838196,9.849594,6.866455E-4,4.4250488E-4,-0.0010986328,164.0,-0.078638166,0.13857822,9.805355,-0.0012989044,-8.481741E-4,-0.0018882751,0.007438451,0.0032666435,-0.102170534,2017-05-27 09:42:39,48.45941574062428
-0.075531006,0.13838196,9.8471985,-5.493164E-4,-7.7819824E-4,-0.0010986328,165.0,-0.08036296,0.13823484,9.8053465,-7.863417E-4,-0.001667738,-0.003663063,0.007430309,0.0033552782,-0.10225583,2017-05-27 09:42:40,50.19746929506137
-0.077926636,0.14317322,9.8519745,-5.493164E-4,-7.7819824E-4,-0.0010986328,166.0,-0.08058433,0.13799709,9.805347,-0.002949424,-2.5615096E-4,0.0046806335,0.0074194483,0.0033676499,-0.10226872,2017-05-27 09:42:41,44.52940581409818
-0.07672119,0.14794922,9.842407,-5.493164E-4,-7.7819824E-4,-0.0010986328,166.0,-0.08025614,0.13813432,9.805348,0.0038946941,0.009195715,-0.006893158,0.0074246395,0.0033504148,-0.10225177,2017-05-27 09:42:42,44.127248920310066
-0.07911682,0.13957214,9.85318,6.866455E-4,4.4250488E-4,1.373291E-4,165.0,-0.081421964,0.1398788,9.805315,-0.004503198,0.0014648587,5.302429E-4,0.0075193336,0.0034001665,-0.10228958,2017-05-27 09:42:43,37.68979918112138
-0.08628845,0.1335907,9.856766,-5.493164E-4,-7.7819824E-4,1.373291E-4,165.0,-0.08002394,0.13574508,9.805384,-0.00581713,-0.0029132813,-0.0034370422,0.007302283,0.0033509966,-0.102264725,2017-05-27 09:42:44,66.73999559828337
-0.08628845,0.13598633,9.866333,-5.493164E-4,4.4250488E-4,-0.0010986328,166.0,-0.07664893,0.14002405,9.805351,0.0027511418,0.007143706,-9.126663E-4,0.0075010755,0.0031590369,-0.10206165,2017-05-27 09:42:45,64.05624887275535
-0.08868408,0.12641907,9.85318,-5.493164E-4,4.4250488E-4,-0.0010986328,164.0,-0.08092356,0.1391005,9.80533,-0.0049271286,-0.0062622875,0.006770134,0.0074772025,0.0033790646,-0.10227375,2017-05-27 09:42:46,45.10677984154786
-0.08151245,0.14675903,9.850784,-5.493164E-4,4.4250488E-4,1.373291E-4,165.0,-0.07936578,0.13669255,9.805376,-0.0017544478,0.0022040755,-0.006635666,0.007346773,0.0033129759,-0.10222397,2017-05-27 09:42:47,52.21568626212932
-0.077926636,0.15034485,9.848389,-5.493164E-4,-7.7819824E-4,1.373291E-4,166.0,-0.0805062,0.1386372,9.80534,0.0022757053,0.010859638,-0.0034561157,0.0074574184,0.0033250807,-0.102224305,2017-05-27 09:42:48,55.21077198904449
-0.0874939,0.14675903,9.845993,-5.493164E-4,4.4250488E-4,1.373291E-4,167.0,-0.081751525,0.13996659,9.805309,-0.0017640963,-0.008238018,-4.0721893E-4,0.0075255586,0.003416313,-0.10230433,2017-05-27 09:42:49,47.65847440906937
-0.08030701,0.13957214,9.85437,-0.0017547607,-7.7819824E-4,-0.0010986328,167.0,-0.07872599,0.13769062,9.805367,-0.0011937097,0.0012041479,7.648468E-4,0.0073939287,0.003275624,-0.102183595,2017-05-27 09:42:50,50.14640213133837
-0.08151245,0.14196777,9.8519745,6.866455E-4,4.4250488E-4,1.373291E-4,166.0,-0.08103392,0.13965188,9.805322,-0.001452893,0.0019844174,-3.232956E-4,0.0074814386,0.0033152238,-0.10221248,2017-05-27 09:42:51,46.71047857999845
-0.0874939,0.1335907,9.849594,-5.493164E-4,-7.7819824E-4,1.373291E-4,166.0,-0.079672046,0.13751897,9.805362,-0.0062339082,-0.0033830553,0.0067243576,0.007390309,0.0033241569,-0.10223022,2017-05-27 09:42:52,47.916996821110786
-0.08868408,0.12760925,9.850784,-5.493164E-4,4.4250488E-4,1.373291E-4,166.0,-0.08146774,0.13767059,9.805346,-0.0068031326,-0.009848952,-0.0014438629,0.0073638647,0.0034194686,-0.10232375,2017-05-27 09:42:53,57.97218755720649
-0.09107971,0.13121033,9.8519745,-5.493164E-4,4.4250488E-4,1.373291E-4,166.0,-0.081517726,0.13579018,9.80537,-0.0091739595,-0.0052262098,-6.9618225E-5,0.0073126056,0.0034260098,-0.102335185,2017-05-27 09:42:54,43.914082864949776
-0.073135376,0.1443634,9.85318,-5.493164E-4,0.0016784668,-0.0010986328,166.0,-0.08371948,0.13662891,9.805341,0.0038245618,-1.09657645E-4,0.004350662,0.007366981,0.003532596,-0.10243125,2017-05-27 09:42:55,38.08051375840381
-0.0874939,0.14196777,9.845993,-5.493164E-4,-7.7819824E-4,-0.0010986328,165.0,-0.081633165,0.13622595,9.805365,5.039722E-4,-0.0056551993,5.750656E-4,0.007335314,0.0034295828,-0.10233629,2017-05-27 09:42:56,41.54414414802687
-0.08151245,0.13240051,9.85437,6.866455E-4,4.4250488E-4,-0.0010986328,164.0,-0.08172064,0.1372143,9.80535,6.0017407E-4,-0.0054719597,0.0019874573,0.007385882,0.0034289062,-0.102330506,2017-05-27 09:42:57,36.22517741490042
-0.09107971,0.1335907,9.85318,-5.493164E-4,4.4250488E-4,1.373291E-4,164.0,-0.08006072,0.14141276,9.805304,-0.0070824474,0.0047267675,-0.0034561157,0.0075897723,0.0033237345,-0.10220962,2017-05-27 09:42:58,43.74723091601459
-0.09107971,0.13121033,9.85437,-5.493164E-4,4.4250488E-4,1.373291E-4,166.0,-0.082577415,0.13566083,9.805365,-0.008088678,-0.005130008,-1.077652E-4,0.007311755,0.0034800526,-0.10238679,2017-05-27 09:42:59,48.89687326597698
-0.09347534,0.15153503,9.838821,-5.493164E-4,4.4250488E-4,1.373291E-4,164.0,-0.08183472,0.13951944,9.805316,-0.012257434,0.01019007,-0.011859894,0.007557542,0.0033668617,-0.10225397,2017-05-27 09:43:00,45.521826518596114
-0.07672119,0.13598633,9.850784,-5.493164E-4,-7.7819824E-4,-0.0010986328,163.0,-0.08138626,0.13682236,9.805359,-0.0033885315,-1.7440319E-4,-0.0031137466,0.0073642153,0.0034140793,-0.10231858,2017-05-27 09:43:01,38.209444953022526
-0.07911682,0.14555359,9.8471985,-5.493164E-4,-7.7819824E-4,-0.0010986328,164.0,-0.080392405,0.13615246,9.805375,0.0016316473,0.0087981075,-0.0016050339,0.007324914,0.0033674631,-0.10227813,2017-05-27 09:43:02,67.61402437671902
-0.08390808,0.13121033,9.83284,-5.493164E-4,-7.7819824E-4,1.373291E-4,166.0,-0.08227841,0.13785419,9.805335,-8.396059E-5,-0.007401213,-0.0104599,0.0074391873,0.003514126,-0.10240631,2017-05-27 09:43:03,71.99743843534432
-0.08030701,0.14794922,9.8519745,-0.0011901855,-5.187988E-4,5.950928E-4,165.0,-0.07936991,0.1395541,9.805335,-6.142929E-4,0.007827535,0.0067596436,0.007491847,0.0032984875,-0.10219548,2017-05-27 09:43:04,62.65318258851592
-0.08509827,0.1443634,9.837616,1.5258789E-5,7.019043E-4,5.950928E-4,164.0,-0.083810054,0.14020225,9.805289,-7.426515E-4,0.0024745911,-0.0032186508,0.007609383,0.0035248548,-0.10239924,2017-05-27 09:43:05,34.28638123821067
-0.08151245,0.1288147,9.843613,1.5258789E-5,7.019043E-4,-6.4086914E-4,164.0,-0.082991295,0.14190955,9.805272,0.0029399693,-0.013493955,0.0049762726,0.0076328074,0.0035283412,-0.102400176,2017-05-27 09:43:06,31.046471254927187
-0.077926636,0.13719177,9.844803,0.0012512207,-5.187988E-4,5.950928E-4,166.0,-0.08176297,0.14166746,9.805285,-0.0054212883,-0.0038219988,0.0047798157,0.007611834,0.0034081491,-0.10228781,2017-05-27 09:43:08,55.20089092643596
-0.08868408,0.12402344,9.8471985,0.0012512207,-5.187988E-4,-6.4086914E-4,166.0,-0.079760194,0.14264488,9.805288,-0.008629233,-0.01914841,0.00568676,0.0076506147,0.003302276,-0.102183014,2017-05-27 09:43:09,54.979185963839484
-0.073135376,0.13719177,9.850784,1.5258789E-5,-5.187988E-4,-6.4086914E-4,164.0,-0.08264684,0.1366416,9.80535,-0.01287137,-0.021578476,-0.0035896301,0.007361842,0.003478503,-0.102380216,2017-05-27 09:43:10,58.837173194742356
-0.07911682,0.14794922,9.8316345,1.5258789E-5,7.019043E-4,5.950928E-4,164.0,-0.08210293,0.13977587,9.80531,-2.636984E-4,-7.7575445E-4,0.0041561127,0.0075177816,0.0034349905,-0.10232292,2017-05-27 09:43:11,63.702822555421164
-0.08030701,0.13719177,9.845993,1.5258789E-5,-5.187988E-4,5.950928E-4,166.0,-0.08338346,0.14051059,9.805289,0.0034003928,-0.0038646758,0.002612114,0.007561919,0.0034957014,-0.10237628,2017-05-27 09:43:12,55.089326809710776
-0.073135376,0.13598633,9.837616,1.5258789E-5,7.019043E-4,5.950928E-4,166.0,-0.08169544,0.13858339,9.80533,0.008335978,-0.0036143214,-0.0021238327,0.0074792206,0.0033922424,-0.1022861,2017-05-27 09:43:13,52.08798403234853
-0.07911682,0.1443634,9.829254,1.5258789E-5,7.019043E-4,-6.4086914E-4,165.0,-0.081856646,0.1418782,9.805282,0.003049828,0.0019478947,-0.013161659,0.00762302,0.0034117836,-0.10229014,2017-05-27 09:43:14,64.21325743842202
-0.08628845,0.13240051,9.848389,1.5258789E-5,7.019043E-4,5.950928E-4,164.0,-0.08072105,0.14189284,9.805291,0.004287742,0.00555034,-0.0062303543,0.007617655,0.0033545226,-0.10223613,2017-05-27 09:43:15,66.55771049325095
-0.08628845,0.12760925,9.841217,1.5258789E-5,-5.187988E-4,-6.4086914E-4,167.0,-0.083899446,0.13494036,9.805363,-0.004450731,-0.0018866956,-0.0019798279,0.007282365,0.0035503546,-0.102456786,2017-05-27 09:43:16,58.29865526162472
-0.08509827,0.13957214,9.8471985,1.5258789E-5,7.019043E-4,5.950928E-4,167.0,-0.08296319,0.13778657,9.805331,-0.0018045232,0.0012365878,0.0027999878,0.0074215815,0.0034885467,-0.10238372,2017-05-27 09:43:17,59.20143317176859
-0.07672119,0.13240051,9.842407,-0.0011901855,7.019043E-4,5.950928E-4,164.0,-0.08111317,0.13885221,9.805332,0.0039172694,-0.0070253015,0.0050754547,0.0074677635,0.0033521557,-0.102249056,2017-05-27 09:43:18,54.66205687893603
-0.0874939,0.14317322,9.836426,1.5258789E-5,7.019043E-4,5.950928E-4,165.0,-0.08428219,0.13742651,9.805325,-0.0029158294,0.0052642673,-0.003320694,0.007410444,0.0035568327,-0.10244993,2017-05-27 09:43:19,52.2206808486409
-0.08988953,0.13719177,9.841217,1.5258789E-5,7.019043E-4,5.950928E-4,166.0,-0.07985768,0.14242016,9.805291,0.008123629,0.009943768,-0.007943153,0.007639746,0.003308338,-0.10218989,2017-05-27 09:43:20,47.08192312170037
-0.08270264,0.13719177,9.844803,1.5258789E-5,-5.187988E-4,-6.4086914E-4,166.0,-0.07905749,0.14264898,9.805293,-0.0027164817,-0.006356597,0.0071468353,0.007672267,0.003298187,-0.102176934,2017-05-27 09:43:21,31.60244310365192
-0.07432556,0.14675903,9.8268585,1.5258789E-5,7.019043E-4,5.950928E-4,164.0,-0.08231845,0.14134052,9.805286,0.008239448,0.0049951524,-0.0077962875,0.0075982506,0.0034378015,-0.10231743,2017-05-27 09:43:22,37.99153952318823
-0.07432556,0.15274048,9.819672,1.5258789E-5,-5.187988E-4,5.950928E-4,165.0,-0.07585394,0.14311782,9.805312,-0.0030961111,0.0045167357,-0.0012168884,0.007653652,0.0031031445,-0.101992995,2017-05-27 09:43:23,38.191813580843885
-0.08151245,0.13719177,9.83403,1.5258789E-5,-5.187988E-4,-6.4086914E-4,166.0,-0.08016608,0.14259356,9.805285,-0.0011715144,-0.005712807,0.0073575974,0.0076501933,0.0033229783,-0.10220278,2017-05-27 09:43:24,38.55537231966564
-0.08509827,0.13838196,9.841217,1.5258789E-5,-5.187988E-4,5.950928E-4,166.0,-0.08170894,0.13944013,9.805319,-0.010315172,-0.002693832,0.003367424,0.007498643,0.0034168737,-0.102307595,2017-05-27 09:43:25,52.81328462158377
-0.08628845,0.13719177,9.836426,1.5258789E-5,-5.187988E-4,5.950928E-4,165.0,-0.07959396,0.14121316,9.80531,0.0031243265,0.00868538,-0.005856514,0.007577148,0.003301253,-0.10218948,2017-05-27 09:43:26,57.21725976970322
-0.070739746,0.13121033,9.836426,1.5258789E-5,7.019043E-4,-6.4086914E-4,166.0,-0.077132806,0.14278428,9.805307,-3.047362E-4,-0.008472964,0.007478714,0.00764359,0.0031692537,-0.102056995,2017-05-27 09:43:27,56.17075650983706
-0.08270264,0.13719177,9.838821,1.5258789E-5,-5.187988E-4,5.950928E-4,165.0,-0.078683175,0.14343107,9.805286,-0.0038247034,-0.004213944,0.010456085,0.0076846867,0.0032440077,-0.102124065,2017-05-27 09:43:28,25.592780585305807
-0.073135376,0.15274048,9.829254,1.5258789E-5,-5.187988E-4,5.950928E-4,164.0,-0.07790065,0.14282258,9.805301,0.0042505935,0.0052562207,-0.008049011,0.007649646,0.0032077238,-0.10209304,2017-05-27 09:43:29,35.08116479762671
-0.08270264,0.14077759,9.843613,1.5258789E-5,-5.187988E-4,5.950928E-4,163.0,-0.078666165,0.14219278,9.805304,-0.0038506314,-0.001751095,0.015145302,0.0076218257,0.0032495034,-0.10213565,2017-05-27 09:43:30,37.005382298035926
-0.08270264,0.13957214,9.825653,-0.0011901855,7.019043E-4,5.950928E-4,165.0,-0.08073042,0.14270094,9.805279,0.006535113,0.0050180554,9.689331E-4,0.0076586683,0.0033508453,-0.10222847,2017-05-27 09:43:31,42.36920194069612
-0.075531006,0.15513611,9.830444,1.5258789E-5,-5.187988E-4,5.950928E-4,164.0,-0.07933477,0.14113419,9.805313,0.004002303,-0.003105417,0.0077648163,0.007571753,0.0032886062,-0.10217797,2017-05-27 09:43:32,43.550413916716295
-0.070739746,0.14675903,9.820877,1.5258789E-5,-5.187988E-4,5.950928E-4,163.0,-0.07686161,0.14469394,9.805282,0.0027208924,0.0029073209,0.002773285,0.0077389437,0.0031458111,-0.10202505,2017-05-27 09:43:33,61.51381002461689
-0.070739746,0.14915466,9.822067,1.5258789E-5,7.019043E-4,5.950928E-4,163.0,-0.0788674,0.14366156,9.80528,0.008269824,0.005234137,-8.8882446E-4,0.00769736,0.0032521028,-0.102130495,2017-05-27 09:43:34,64.87452052311876
-0.07672119,0.14555359,9.829254,1.5258789E-5,7.019043E-4,5.950928E-4,164.0,-0.08214212,0.13936478,9.805316,8.6096674E-4,0.0010203868,0.015462875,0.0074971546,0.0034390774,-0.102328904,2017-05-27 09:43:35,45.41146059468773
-0.08509827,0.14196777,9.824463,1.5258789E-5,-5.187988E-4,-6.4086914E-4,163.0,-0.080039404,0.14223753,9.805291,-0.0045415014,6.4849854E-4,-0.0061836243,0.007568119,0.0033406094,-0.10222789,2017-05-27 09:43:36,49.87843498649882
-0.07911682,0.14794922,9.819672,1.5258789E-5,-5.187988E-4,-6.4086914E-4,163.0,-0.0782009,0.14194399,9.80531,-7.779002E-4,0.0057546943,-0.0029459,0.0076067196,0.0032273498,-0.10211607,2017-05-27 09:43:37,51.47326588958326
-0.073135376,0.1563263,9.8268585,-0.0011901855,-5.187988E-4,5.950928E-4,164.0,-0.07824122,0.1434275,9.805289,0.0037247762,0.012363762,5.226135E-4,0.0076853526,0.0031427783,-0.10202756,2017-05-27 09:43:38,51.86855793515249
-0.07432556,0.15153503,9.8316345,0.0012512207,-5.187988E-4,5.950928E-4,166.0,-0.07933966,0.14339529,9.805281,0.0052495375,0.007714212,-0.002743721,0.0076863957,0.003277249,-0.10215556,2017-05-27 09:43:39,53.22638522563103
-0.070739746,0.14317322,9.822067,1.5258789E-5,-5.187988E-4,5.950928E-4,164.0,-0.07743578,0.14192736,9.805317,0.003296703,-0.0038872063,0.006304741,0.0076017748,0.0031889044,-0.10207994,2017-05-27 09:43:40,49.705866542685115
-0.08390808,0.14077759,9.8316345,1.5258789E-5,-5.187988E-4,5.950928E-4,164.0,-0.07696658,0.14498408,9.805276,0.0075921193,2.3965538E-4,4.644394E-4,0.007754214,0.00314961,-0.102027126,2017-05-27 09:43:41,38.822593374363365
-0.075531006,0.14317322,9.83284,1.5258789E-5,7.019043E-4,5.950928E-4,166.0,-0.08195174,0.13845396,9.80533,0.0066681206,0.0043012947,-0.002090454,0.0074499627,0.003434172,-0.10232902,2017-05-27 09:43:42,34.74663944984065
-0.08628845,0.14196777,9.83284,-0.0011901855,-5.187988E-4,-6.4086914E-4,165.0,-0.08004919,0.14019006,9.805321,0.007225156,1.5440583E-4,-0.008221626,0.0075277323,0.003329432,-0.10222133,2017-05-27 09:43:43,41.139466408223136
-0.073135376,0.15034485,9.830444,-0.0011901855,7.019043E-4,5.950928E-4,165.0,-0.081392735,0.13778298,9.805344,0.008530341,0.012099773,-0.007785797,0.0074129435,0.003409467,-0.102309234,2017-05-27 09:43:44,40.18737741253091
-0.092285156,0.15153503,9.83403,1.5258789E-5,-5.187988E-4,-6.4086914E-4,165.0,-0.079380214,0.14419773,9.805268,0.0052807033,0.009322301,-0.005142212,0.00772729,0.0032751744,-0.10214945,2017-05-27 09:43:45,43.843129155883325
-0.0874939,0.13121033,9.820877,1.5258789E-5,7.019043E-4,5.950928E-4,166.0,-0.08047771,0.14175832,9.805295,-0.005796857,-0.011090472,-0.009070396,0.0076243817,0.0033930868,-0.10227218,2017-05-27 09:43:47,47.02989470789588
-0.08030701,0.13838196,9.840012,1.5258789E-5,-5.187988E-4,-6.4086914E-4,164.0,-0.0814532,0.14372277,9.805259,6.9174916E-4,-0.0061072707,0.00908947,0.007730502,0.003346465,-0.102217026,2017-05-27 09:43:48,50.64224264917457
-0.07194519,0.14555359,9.830444,0.0012512207,-5.187988E-4,-6.4086914E-4,166.0,-0.08110696,0.14437495,9.805251,-0.0045703277,-0.00720042,0.0050992966,0.007745547,0.003361211,-0.10222955,2017-05-27 09:43:49,50.48583991806029
-0.070739746,0.14794922,9.828049,1.5258789E-5,-5.187988E-4,5.950928E-4,167.0,-0.078161046,0.14531274,9.805263,0.008323632,0.003303945,-0.0031776428,0.0077278,0.0032483735,-0.102123864,2017-05-27 09:43:50,44.75648379094912
-0.07432556,0.14794922,9.8268585,1.5258789E-5,-5.187988E-4,5.950928E-4,166.0,-0.07862369,0.14463593,9.805268,0.004471801,0.0029938072,-6.866455E-5,0.0077454443,0.003234834,-0.10210919,2017-05-27 09:43:51,57.322822036945325
-0.070739746,0.14317322,9.829254,1.5258789E-5,-5.187988E-4,-6.4086914E-4,164.0,-0.07940583,0.14458093,9.8052635,0.0052752793,0.010200098,-0.007276535,0.0077468515,0.0032744983,-0.10214683,2017-05-27 09:43:52,56.239322579721254
-0.070739746,0.1443634,9.814896,1.5258789E-5,-5.187988E-4,5.950928E-4,166.0,-0.07985505,0.14204164,9.805296,-0.0014913455,-3.6925077E-4,-0.0012235641,0.0076205456,0.0033101486,-0.102193564,2017-05-27 09:43:53,46.16590127956131
-0.073135376,0.14675903,9.8268585,1.5258789E-5,-5.187988E-4,-6.4086914E-4,165.0,-0.07861046,0.14371614,9.805282,0.006836623,-8.562058E-4,-0.0010023117,0.0076987483,0.0032388845,-0.10211776,2017-05-27 09:43:54,49.47041704225068
-0.07194519,0.15153503,9.823273,1.5258789E-5,-5.187988E-4,-6.4086914E-4,164.0,-0.07824025,0.14695078,9.805238,0.0064657107,0.0042637438,-0.0033502579,0.007860732,0.0032036616,-0.10206786,2017-05-27 09:43:55,40.95243362683539
-0.077926636,0.14555359,9.8268585,1.5258789E-5,-5.187988E-4,-6.4086914E-4,166.0,-0.0786702,0.14351486,9.805284,8.9318305E-4,0.005366862,-0.0054502487,0.0076888655,0.0032429255,-0.10212261,2017-05-27 09:43:56,37.56829895537387
-0.08390808,0.13121033,9.818481,1.5258789E-5,-5.187988E-4,-6.4086914E-4,166.0,-0.07936809,0.14177877,9.805305,-0.0046059936,-0.0114068985,-0.0030326843,0.007634114,0.003273964,-0.10215771,2017-05-27 09:43:57,29.873533887357937
-0.08151245,0.14317322,9.8125,1.5258789E-5,-5.187988E-4,5.950928E-4,164.0,-0.08070308,0.1412455,9.805301,-7.3620677E-4,0.0017996728,-0.0016899109,0.0075847455,0.003356942,-0.10224177,2017-05-27 09:43:58,41.418724462258965
-0.07432556,0.14317322,9.825653,1.5258789E-5,-5.187988E-4,-6.4086914E-4,166.0,-0.07884706,0.1434187,9.8052845,0.0022367015,0.0043289065,-5.865097E-4,0.007684939,0.003252324,-0.10213196,2017-05-27 09:43:59,43.87261821871615
-0.08509827,0.13598633,9.837616,1.5258789E-5,7.019043E-4,5.950928E-4,166.0,-0.078684054,0.14522585,9.80526,-0.0062639713,-0.009516835,0.013633728,0.007775672,0.0032348484,-0.10210615,2017-05-27 09:44:00,42.07027002546867
-0.08151245,0.14317322,9.820877,-0.0011901855,-5.187988E-4,5.950928E-4,164.0,-0.07897791,0.14332178,9.8052845,-0.0023554415,-1.3564527E-4,2.670288E-4,0.007669038,0.0032634228,-0.102144144,2017-05-27 09:44:01,42.322079988854846
-0.08151245,0.14555359,9.816086,1.5258789E-5,-5.187988E-4,5.950928E-4,165.0,-0.07952959,0.14274703,9.805288,-0.001848504,-0.011777863,-0.0021820068,0.0076545547,0.0032901394,-0.102171056,2017-05-27 09:44:02,44.980369008447816
-0.08151245,0.14317322,9.823273,1.5258789E-5,7.019043E-4,5.950928E-4,166.0,-0.08059448,0.14120996,9.805302,-7.8350306E-4,0.0017276406,0.0016107559,0.007582361,0.0033516558,-0.10223697,2017-05-27 09:44:03,50.00765603458764
-0.07672119,0.15393066,9.820877,2.2888184E-4,-6.2561035E-4,3.5095215E-4,164.0,-0.08100121,0.14010575,9.805315,0.001984939,0.008874983,-0.0014009476,0.007528575,0.0033778104,-0.10226734,2017-05-27 09:44:04,44.01745082237063
-0.07672119,0.14555359,9.822067,2.2888184E-4,-6.2561035E-4,3.5095215E-4,164.0,-0.079550944,0.14192852,9.805301,0.002957143,0.0033977926,0.0010643005,0.0076131783,0.003295415,-0.10218027,2017-05-27 09:44:05,47.733069896517335
-0.075531006,0.14555359,9.814896,2.2888184E-4,-6.2561035E-4,-8.8500977E-4,166.0,-0.077423885,0.1459377,9.805259,0.002067037,-2.5629997E-6,-0.0063467026,0.007773918,0.0031733317,-0.10204773,2017-05-27 09:44:06,45.449404677718206
-0.08030701,0.13719177,9.819672,-9.765625E-4,-6.2561035E-4,3.5095215E-4,164.0,-0.07920436,0.1427618,9.805291,0.002585739,0.008588374,-0.0030927658,0.007653557,0.003273686,-0.102155484,2017-05-27 09:44:07,48.11830039188117
-0.08509827,0.14196777,9.807709,2.2888184E-4,-6.2561035E-4,3.5095215E-4,164.0,-0.080638036,0.14248367,9.805284,0.00245177,-0.0017685294,-0.0045804977,0.0076471576,0.0033473084,-0.102226265,2017-05-27 09:44:08,49.150521747589515
-0.075531006,0.14196777,9.814896,-9.765625E-4,-6.2561035E-4,-8.8500977E-4,165.0,-0.0774203,0.14344688,9.805296,7.4374676E-4,0.0032294393,0.00513649,0.007678719,0.0031803343,-0.102064006,2017-05-27 09:44:09,46.65210909220611
-0.07672119,0.14915466,9.818481,2.2888184E-4,-6.2561035E-4,-8.8500977E-4,164.0,-0.07836454,0.14185679,9.805311,0.0017496571,0.007105455,-1.3065338E-4,0.007603176,0.003236038,-0.102124706,2017-05-27 09:44:10,48.8466411265489
-0.07432556,0.14915466,9.822067,2.2888184E-4,-6.2561035E-4,-8.8500977E-4,165.0,-0.07796751,0.14582616,9.805256,0.0037643611,0.0030995458,0.0014162064,0.007836513,0.003188123,-0.1020555,2017-05-27 09:44:11,54.54169652732307
-0.08270264,0.15872192,9.822067,0.0014648438,-6.2561035E-4,-8.8500977E-4,166.0,-0.080633566,0.14423521,9.805257,-0.0024089739,0.014739633,-0.0018644333,0.007706589,0.0033159978,-0.10219043,2017-05-27 09:44:12,58.31334406544581
-0.07911682,0.14915466,9.808914,2.2888184E-4,-6.2561035E-4,-8.8500977E-4,164.0,-0.07770875,0.14367905,9.80529,-0.0060580596,-0.0067484826,0.0037431717,0.0076920334,0.0031936693,-0.10207537,2017-05-27 09:44:13,53.63406590297892
-0.08030701,0.15393066,9.817291,2.2888184E-4,-6.2561035E-4,-8.8500977E-4,165.0,-0.08036384,0.14074789,9.805311,-0.0082318485,-0.009692356,-0.0024051666,0.007557698,0.0033424133,-0.10223066,2017-05-27 09:44:14,47.994978234681696
-0.08151245,0.13240051,9.836426,2.2888184E-4,5.950928E-4,-8.8500977E-4,166.0,-0.08095295,0.14000289,9.805316,-0.0012526959,-0.0084665865,0.01337719,0.0075495127,0.0033305686,-0.10222021,2017-05-27 09:44:15,51.75919018094983
-0.08390808,0.13838196,9.825653,-9.765625E-4,5.950928E-4,3.5095215E-4,165.0,-0.07948271,0.14539804,9.80525,-0.0042727888,-0.0072951913,0.0015802383,0.0077886847,0.0032741784,-0.10214229,2017-05-27 09:44:16,53.51507791273485
-0.08151245,0.14196777,9.814896,2.2888184E-4,5.950928E-4,-8.8500977E-4,164.0,-0.08133374,0.1457112,9.80523,0.0011166036,-0.0026989728,0.0012264252,0.0078145,0.00336577,-0.102226906,2017-05-27 09:44:17,55.24334832108955
-0.08509827,0.13957214,9.83284,2.2888184E-4,5.950928E-4,-8.8500977E-4,166.0,-0.08227038,0.14061621,9.805297,-0.0050934926,0.0011293292,0.0072546005,0.007561278,0.0034391035,-0.10232242,2017-05-27 09:44:18,49.68109646604646
-0.07911682,0.13598633,9.835236,2.2888184E-4,-6.2561035E-4,-8.8500977E-4,165.0,-0.07995356,0.1439459,9.805267,-0.0025972351,-0.007027507,0.0029687881,0.0077176024,0.0033053362,-0.102179155,2017-05-27 09:44:19,43.29107055161768
-0.07432556,0.14794922,9.819672,2.2888184E-4,-6.2561035E-4,-8.8500977E-4,164.0,-0.07724507,0.14581308,9.805263,0.0030567795,0.0018770099,-0.0030155182,0.0077977288,0.003159385,-0.10203204,2017-05-27 09:44:20,44.5172022646574
-0.07194519,0.14675903,9.817291,2.2888184E-4,-6.2561035E-4,-8.8500977E-4,166.0,-0.0753888,0.14595982,9.805274,0.0028925836,0.0011969209,-0.0031929016,0.0077600935,0.0030347824,-0.10191715,2017-05-27 09:44:21,52.16120234612269
-0.070739746,0.15034485,9.817291,0.0014648438,-6.2561035E-4,-8.8500977E-4,165.0,-0.07870449,0.14511323,9.80526,-0.008643329,-0.008190781,0.0021944046,0.0077700736,0.0032364554,-0.10210824,2017-05-27 09:44:23,62.33917352422453
-0.08030701,0.15753174,9.825653,2.2888184E-4,-6.2561035E-4,-8.8500977E-4,164.0,-0.07784101,0.14619356,9.805251,-0.0023473576,0.011115357,0.005457878,0.0078202095,0.0031874413,-0.102056496,2017-05-27 09:44:24,43.771891622725825
-0.08390808,0.13719177,9.825653,0.0014648438,-6.2561035E-4,-8.8500977E-4,166.0,-0.080029845,0.14507994,9.80525,-0.0041782632,-0.007893488,0.009899139,0.0077658324,0.0032847268,-0.10215465,2017-05-27 09:44:25,46.787486670381526
-0.08270264,0.13838196,9.8268585,2.2888184E-4,5.950928E-4,-8.8500977E-4,167.0,-0.08159786,0.14459458,9.805244,-0.0010318533,-0.006341845,0.012850761,0.0077593187,0.0033848006,-0.10225062,2017-05-27 09:44:26,42.412336507147344
-0.07911682,0.13121033,9.820877,2.2888184E-4,5.950928E-4,-8.8500977E-4,165.0,-0.07787829,0.14381512,9.805286,-0.007111639,-0.01042448,-0.0028409958,0.00769984,0.003201509,-0.10208205,2017-05-27 09:44:27,44.26542800449447
-0.08030701,0.14915466,9.816086,2.2888184E-4,-6.2561035E-4,-8.8500977E-4,164.0,-0.08011841,0.14044632,9.805317,0.0046842024,0.004937589,-0.0046634674,0.0075410935,0.003331602,-0.10222205,2017-05-27 09:44:28,44.504359677843574
-0.077926636,0.13121033,9.811295,0.0014648438,-6.2561035E-4,-8.8500977E-4,166.0,-0.0775424,0.14164606,9.80532,-3.0029565E-4,-0.010589063,-0.0046396255,0.0075880866,0.0031957165,-0.10208782,2017-05-27 09:44:29,44.2741368006973
-0.07432556,0.14317322,9.823273,-9.765625E-4,5.950928E-4,3.5095215E-4,166.0,-0.07919859,0.14267607,9.805293,-0.0021908656,-0.009306952,0.0015468597,0.0076491805,0.0032738352,-0.102156065,2017-05-27 09:44:30,44.16884937181821
-0.07672119,0.14675903,9.808914,2.2888184E-4,-6.2561035E-4,3.5095215E-4,165.0,-0.07898059,0.14189142,9.8053055,0.0023285002,0.0047434717,-0.0049705505,0.0076082363,0.0032668833,-0.102153584,2017-05-27 09:44:31,38.5362511991667
-0.077926636,0.1443634,9.814896,2.2888184E-4,-6.2561035E-4,3.5095215E-4,167.0,-0.07938453,0.14058045,9.805322,-0.006841898,-0.010685414,-0.0016889572,0.0075439503,0.003293954,-0.10218588,2017-05-27 09:44:32,45.1494117453458
-0.075531006,0.14794922,9.820877,2.2888184E-4,-6.2561035E-4,-8.8500977E-4,166.0,-0.08158192,0.14216286,9.80528,-0.0033978522,-0.003987372,0.008527756,0.0076359715,0.0033964869,-0.10227425,2017-05-27 09:44:33,49.887450750478166
-0.08030701,0.14555359,9.811295,2.2888184E-4,-6.2561035E-4,3.5095215E-4,165.0,-0.07848096,0.14236929,9.805304,-0.0017495006,0.0030454397,-0.003572464,0.0076297787,0.003239271,-0.1021251,2017-05-27 09:44:34,41.18202238013083
-0.073135376,0.14675903,9.819672,2.2888184E-4,-6.2561035E-4,3.5095215E-4,166.0,-0.07921759,0.14142214,9.80531,0.0025860444,-8.045882E-4,-3.2138824E-4,0.00758572,0.0032812268,-0.10216953,2017-05-27 09:44:35,40.755618443911594
-0.075531006,0.15393066,9.820877,2.2888184E-4,5.950928E-4,3.5095215E-4,166.0,-0.080569364,0.14190504,9.805292,0.0051555634,0.011819184,0.0013208389,0.0076174587,0.0033468213,-0.10222881,2017-05-27 09:44:36,43.737241363760944
-0.08030701,0.13719177,9.820877,-9.765625E-4,-6.2561035E-4,3.5095215E-4,164.0,-0.08037381,0.13806953,9.805348,-3.7243217E-4,-0.001528576,0.006011963,0.0074453806,0.0033279946,-0.1022283,2017-05-27 09:44:37,41.9745213086935
-0.077926636,0.1443634,9.817291,-9.765625E-4,5.950928E-4,3.5095215E-4,166.0,-0.079133496,0.1403245,9.805326,-0.0046570674,0.0026403219,0.016537666,0.0075296294,0.0032826257,-0.10217654,2017-05-27 09:44:38,40.60680137772093
-0.09107971,0.13598633,9.822067,2.2888184E-4,-6.2561035E-4,-8.8500977E-4,166.0,-0.07772919,0.14396864,9.805285,0.003330253,-0.0030852407,-0.0031194687,0.0077068233,0.0031932138,-0.10207344,2017-05-27 09:44:39,41.16064172698451
-0.073135376,0.13957214,9.802933,2.2888184E-4,-6.2561035E-4,-8.8500977E-4,164.0,-0.081082076,0.1392465,9.8053255,-0.003943771,-0.014141977,-0.006374359,0.007485456,0.0033862984,-0.102279805,2017-05-27 09:44:40,48.54423350003352
-0.073135376,0.14675903,9.814896,2.2888184E-4,-6.2561035E-4,3.5095215E-4,164.0,-0.07774083,0.14360492,9.80529,0.0047008395,0.0029779226,-0.00242424,0.0076459623,0.0032576348,-0.10214096,2017-05-27 09:44:41,51.5623305888996
-0.0874939,0.13240051,9.816086,2.2888184E-4,5.950928E-4,-8.8500977E-4,166.0,-0.08080683,0.14112717,9.805302,-0.006585017,-0.008904874,-0.0015983582,0.007579305,0.0033627744,-0.10224787,2017-05-27 09:44:42,42.74153698324177
-0.08030701,0.14196777,9.820877,-9.765625E-4,5.950928E-4,3.5095215E-4,166.0,-0.07910923,0.14369693,9.805278,0.0036811307,0.01004681,-0.0019464493,0.0077004503,0.0032640984,-0.10214161,2017-05-27 09:44:43,43.45748735807304
-0.07672119,0.14915466,9.819672,2.2888184E-4,-6.2561035E-4,-8.8500977E-4,165.0,-0.0785212,0.14472686,9.805268,0.001981914,0.0040173233,-0.0030021667,0.007757501,0.003230557,-0.1021039,2017-05-27 09:44:44,39.06810044112148
-0.08151245,0.13598633,9.817291,2.2888184E-4,-6.2561035E-4,3.5095215E-4,166.0,-0.0794227,0.14261967,9.805291,0.0016449913,0.004471302,-0.007183075,0.007647525,0.00328541,-0.10216726,2017-05-27 09:44:45,47.54716025722815
-0.075531006,0.14317322,9.814896,2.2888184E-4,-6.2561035E-4,3.5095215E-4,165.0,-0.080222934,0.14284435,9.805281,-0.0035977438,-0.0010322034,0.00730896,0.0076632113,0.003324554,-0.10220297,2017-05-27 09:44:46,44.6276159068401
-0.07432556,0.14317322,9.819672,2.2888184E-4,-6.2561035E-4,3.5095215E-4,164.0,-0.08031409,0.1432795,9.805274,1.2674183E-4,-0.0015251786,0.0033903122,0.007685758,0.0033269105,-0.10220293,2017-05-27 09:44:47,46.48003584695236
-0.08270264,0.14196777,9.810104,-9.765625E-4,5.950928E-4,-8.8500977E-4,164.0,-0.08024092,0.14424857,9.805262,-0.0023745298,-0.002437532,-0.0058107376,0.0077344873,0.003318252,-0.10218975,2017-05-27 09:44:48,37.95148810242735
-0.08390808,0.13240051,9.8268585,2.2888184E-4,5.950928E-4,3.5095215E-4,166.0,-0.07940793,0.14231749,9.805295,0.0027725399,0.0018921345,0.004986763,0.0076321284,0.0032862173,-0.10216959,2017-05-27 09:44:49,40.5576834264943
-0.07194519,0.15393066,9.818481,-9.765625E-4,-6.2561035E-4,-8.8500977E-4,164.0,-0.077509075,0.14439625,9.805281,0.0048319474,0.008447468,-0.003088951,0.0077655837,0.0031323368,-0.10200952,2017-05-27 09:44:50,41.30041375828416
-0.08628845,0.13957214,9.828049,-9.765625E-4,5.950928E-4,-8.8500977E-4,164.0,-0.080292575,0.14344524,9.805272,-0.0070371777,-0.0017707199,0.007522583,0.007694044,0.0033249764,-0.10220025,2017-05-27 09:44:51,48.21323605868052
-0.070739746,0.14915466,9.819672,2.2888184E-4,-6.2561035E-4,3.5095215E-4,164.0,-0.077888325,0.1431914,9.805296,0.007309906,0.005666673,-0.0059337616,0.007668276,0.0032052118,-0.102088764,2017-05-27 09:44:52,39.16969449433024
-0.08270264,0.1335907,9.8268585,-9.765625E-4,5.950928E-4,3.5095215E-4,166.0,-0.07619358,0.14420444,9.805294,0.004387714,0.0070669204,-0.0023460388,0.0077105537,0.0031146808,-0.101998255,2017-05-27 09:44:53,48.874193052473586
-0.077926636,0.1443634,9.817291,2.2888184E-4,5.950928E-4,-8.8500977E-4,164.0,-0.080319665,0.14282706,9.805281,0.007301949,0.0032752156,-9.95636E-4,0.0076628546,0.0033295136,-0.10220773,2017-05-27 09:44:54,47.56017656504606
-0.08509827,0.13838196,9.838821,2.2888184E-4,5.950928E-4,-8.8500977E-4,163.0,-0.08137234,0.14299482,9.805269,-0.0035801306,-0.0048690736,0.015983582,0.007677016,0.0033816602,-0.10225597,2017-05-27 09:44:55,50.230996771400385
-0.07911682,0.15274048,9.81369,2.2888184E-4,5.950928E-4,-8.8500977E-4,164.0,-0.07767291,0.14324355,9.805296,0.0022484958,0.0021134615,9.202957E-4,0.007669766,0.0031940974,-0.10207802,2017-05-27 09:44:56,54.86215472455612
-0.077926636,0.15034485,9.820877,2.2888184E-4,-6.2561035E-4,-8.8500977E-4,168.0,-0.079938784,0.14329387,9.805277,0.0021441877,0.006814301,-5.9604645E-4,0.0076844716,0.0033079383,-0.10218499,2017-05-27 09:44:57,58.985556007352535
-0.08509827,0.13957214,9.840012,2.2888184E-4,5.950928E-4,3.5095215E-4,165.0,-0.08007037,0.14256287,9.805286,-0.010875203,-0.004419729,0.012316704,0.0076481234,0.0033183163,-0.10219855,2017-05-27 09:44:58,53.90592242171981
-0.07432556,0.15153503,9.814896,2.2888184E-4,-6.2561035E-4,3.5095215E-4,164.0,-0.07841516,0.14286137,9.805296,0.002984196,0.001319781,-0.0029096603,0.0076543707,0.0032334342,-0.102117054,2017-05-27 09:45:00,46.38491986886227
-0.075531006,0.13957214,9.808914,2.2888184E-4,-6.2561035E-4,3.5095215E-4,164.0,-0.07901223,0.14577965,9.805249,0.0029323548,-0.0057058185,-0.0039510727,0.0077710985,0.0032209854,-0.102093406,2017-05-27 09:45:01,41.16454516510857
-0.0982666,0.1443634,9.802933,2.2888184E-4,-6.2561035E-4,3.5095215E-4,165.0,-0.0818706,0.14565594,9.805226,-0.016276829,-0.0015399009,-0.0032930374,0.007826961,0.0033974678,-0.10225583,2017-05-27 09:45:02,48.959744650636964
-0.08030701,0.1443634,9.811295,-9.765625E-4,5.950928E-4,3.5095215E-4,164.0,-0.08290018,0.13991782,9.805303,0.0026212782,0.0049465746,-0.003025055,0.00749713,0.0034752279,-0.102363355,2017-05-27 09:45:03,53.73225192194073
-0.07672119,0.14196777,9.825653,2.2888184E-4,-6.2561035E-4,3.5095215E-4,163.0,-0.07854221,0.14099349,9.805323,0.0031018034,0.007998541,0.00543499,0.0075603668,0.003249414,-0.10214178,2017-05-27 09:45:04,62.42575692778185
-0.08030701,0.13479614,9.819672,0.0015258789,5.950928E-4,1.6784668E-4,163.0,-0.081365936,0.14244094,9.805278,0.0011323765,-0.0077733845,0.005542755,0.0076489053,0.0033841822,-0.102261215,2017-05-27 09:45:05,65.74748284527834
-0.08270264,0.14077759,9.818481,2.89917E-4,5.950928E-4,1.6784668E-4,166.0,-0.07983915,0.14281628,9.805285,8.0630183E-4,0.0037925392,-7.02858E-4,0.0076597263,0.0033053719,-0.10218505,2017-05-27 09:45:06,67.98036124892161
-0.070739746,0.14794922,9.807709,2.89917E-4,-6.2561035E-4,1.6784668E-4,166.0,-0.08166811,0.13966481,9.805316,0.011021413,0.0081252605,-0.008779526,0.007509812,0.0034136625,-0.10230341,2017-05-27 09:45:07,64.14381442236403
-0.07911682,0.14196777,9.8125,2.89917E-4,5.950928E-4,1.6784668E-4,163.0,-0.08103733,0.14184067,9.805289,-0.0027975142,-0.0047770888,0.009120941,0.007616711,0.0033707176,-0.10225166,2017-05-27 09:45:08,54.15548065816413
-0.0874939,0.1443634,9.822067,-9.1552734E-4,-6.2561035E-4,1.6784668E-4,163.0,-0.08244619,0.1387853,9.805321,-0.0049551353,0.0054222792,0.005736351,0.0074694203,0.0034573711,-0.102349155,2017-05-27 09:45:09,58.642408876993954
-0.07911682,0.1563263,9.810104,2.89917E-4,-6.2561035E-4,-0.0010681152,164.0,-0.07859446,0.14401782,9.805277,4.936904E-4,0.012007207,-0.006319046,0.007725879,0.003282434,-0.102156505,2017-05-27 09:45:10,63.329031912775974
-0.07432556,0.14675903,9.818481,2.89917E-4,-6.2561035E-4,1.6784668E-4,166.0,-0.07807702,0.1446009,9.805274,0.004123941,0.0024929196,0.0011234283,0.0077162473,0.003224009,-0.102101825,2017-05-27 09:45:11,66.21567811842826
-0.077926636,0.14675903,9.814896,0.0015258789,-6.2561035E-4,1.6784668E-4,166.0,-0.07990286,0.14301817,9.805282,-0.001514554,-1.5065074E-5,-0.0044441223,0.007670303,0.003307544,-0.10218605,2017-05-27 09:45:12,58.85575643285024
