ACC_X,ACC_Y,ACC_Z,GYRO_X,GYRO_Y,GYRO_Z,LIGH_1,GRAV_X,GRAV_Y,GRAV_Z,LINACC_X,LINACC_Y,LINACC_Z,ROTVEC_X,ROTVEC_Y,ROTVEC_Z,TIME,VOICE
0.3184288,0.12449849,9.976639,-0.0021816615,0.0010908308,0.0054541538,10.678054,0.35913026,0.06703765,9.801862,0.011971008,-0.047884032,0.06464344,0.36671546,-0.03250757,0.39186883,2016-12-15 10:42:33,52.65797346820684
0.31364042,0.090979666,9.742006,0.0021816615,-0.0021816615,-0.0054541538,11.211956,0.36870706,0.06703765,9.799467,0.011971008,-0.062249243,0.15322891,0.11299965,-0.028318826,0.6009209,2016-12-15 10:42:34,53.42140513678316
0.4237737,0.076614454,9.976639,-0.0010908308,-0.0141808,0.004363323,10.678054,0.38307226,0.06703765,9.799467,-0.016759412,-0.019153614,0.18674773,0.07936813,-0.020280857,0.671397,2016-12-15 10:42:35,54.849370147855566
0.39025488,-0.009576807,9.85214,0.0076358155,-0.0032724924,-0.0109083075,10.144152,0.3878607,0.079008654,9.799467,0.021547815,-0.016759412,-0.009576807,0.06754754,-0.017203426,0.7120228,2016-12-15 10:42:36,54.07843636600941
0.29927522,0.1340753,9.464279,0.0054541538,-0.0109083075,-0.0010908308,13.347568,0.37349546,0.062249243,9.799467,0.055066638,0.08619126,0.1388637,0.059305288,-0.015769327,0.7412418,2016-12-15 10:42:37,53.36689388255198
0.20829555,0.05746084,9.85214,0.0032724924,-0.0021816615,0.0109083075,13.347568,0.3854665,0.059855044,9.799467,-0.023942016,-0.016759412,0.0047884034,0.05220083,-0.015281646,0.7476696,2016-12-15 10:42:38,56.37315981659481
0.45729253,0.06703765,9.813833,-0.0076358155,0.01308997,0.008726646,13.347568,0.39743748,0.06464344,9.799467,-0.06464344,-0.0023942017,0.02873042,0.047006827,-0.01466959,0.7486041,2016-12-15 10:42:39,54.052722031427365
0.36631286,-0.023942016,9.880871,0.008726646,-0.0032724924,-0.009817477,13.347568,0.40222588,0.05746084,9.799467,0.007182605,0.02873042,0.033518825,0.042844858,-0.01448652,0.7494408,2016-12-15 10:42:40,50.623675160064636
0.4333505,0.01436521,9.828198,-0.009817477,0.008726646,-0.0010908308,11.745859,0.41180268,0.045489833,9.799467,0.074220255,0.074220255,0.12449849,0.039391026,-0.014705857,0.7496727,2016-12-15 10:42:41,50.27594912317065
0.29927522,0.090979666,9.78989,0.009817477,0.004363323,0.009817477,12.813664,0.4141969,0.047884032,9.799467,-0.095768064,0.033518825,0.047884032,0.036917172,-0.014140084,0.7501774,2016-12-15 10:42:42,58.892498730218186
0.39504328,0.06703765,10.000581,0.0076358155,-0.0032724924,-0.0054541538,12.813664,0.40940848,0.050278235,9.799467,-0.02873042,-0.050278235,0.1436521,0.034606375,-0.013388701,0.7512187,2016-12-15 10:42:43,59.72446871632857
0.33758244,-0.023942016,9.895236,-0.0010908308,-0.0032724924,0.0010908308,12.813664,0.39983168,0.04309563,9.799467,0.019153614,0.12928689,-0.05267244,0.032188088,-0.013073586,0.7518125,2016-12-15 10:42:44,53.161943781081874
0.4237737,0.08140286,9.876082,-0.006544985,-0.0054541538,-0.0076358155,12.279761,0.4189853,0.04070143,9.799467,-0.01436521,0.031124622,0.10534488,0.031376638,-0.01348537,0.7520754,2016-12-15 10:42:45,49.48070879201918
0.39025488,-0.009576807,9.775525,-0.0054541538,0.0054541538,0.004363323,11.745859,0.39983168,0.04070143,9.799467,-0.10055647,0.08379706,0.10055647,0.029377691,-0.012458935,0.7530205,2016-12-15 10:42:46,49.3609330319982
0.37110126,0.1388637,9.76116,0.0010908308,-0.0010908308,0.0032724924,11.745859,0.40940848,0.047884032,9.799467,-0.047884032,-0.009576807,0.10534488,0.028873336,-0.012284506,0.7531321,2016-12-15 10:42:47,57.68079630912589
0.39025488,0.01436521,9.837775,0.0054541538,0.0010908308,0.0032724924,13.347568,0.41180268,0.04070143,9.799467,-0.050278235,0.035913024,0.08619126,0.027620956,-0.012384029,0.75336224,2016-12-15 10:42:49,56.42316257320616
0.30406362,0.1388637,9.928755,0.0076358155,0.011999139,-0.004363323,12.813664,0.4165911,0.04070143,9.799467,-0.035913024,0.011971008,0.062249243,0.026915058,-0.012335021,0.7536402,2016-12-15 10:42:50,51.74725519668195
0.3184288,0.05746084,9.900024,-0.0010908308,0.0,-0.0010908308,12.813664,0.4237737,0.031124622,9.799467,-0.16280572,0.08379706,0.110133275,0.026121989,-0.012725446,0.7537704,2016-12-15 10:42:51,51.728989360402196
0.32321724,0.047884032,9.895236,-0.004363323,-0.0010908308,0.0054541538,12.279761,0.4333505,0.02873042,9.797073,-0.090979666,0.04309563,0.12689269,0.025721569,-0.012917981,0.75405854,2016-12-15 10:42:52,48.76638738344957
0.37588966,0.023942016,9.900024,0.0010908308,0.011999139,-0.008726646,12.279761,0.4261679,0.035913024,9.799467,0.016759412,0.09816227,0.10055647,0.025014162,-0.012102015,0.75431967,2016-12-15 10:42:53,49.52744697379036
0.38067806,0.04309563,9.991004,-0.008726646,-0.0054541538,-0.006544985,12.279761,0.4189853,0.021547815,9.799467,0.0,0.04070143,0.02873042,0.023754777,-0.012337105,0.7547313,2016-12-15 10:42:54,53.76863131584176
0.37110126,0.1340753,9.885659,0.011999139,-0.008726646,-0.009817477,12.279761,0.4237737,0.021547815,9.799467,-0.08619126,0.007182605,-0.10534488,0.023406679,-0.012273671,0.75484526,2016-12-15 10:42:55,50.61274325736655
0.32800564,0.08619126,9.923966,0.0010908308,-0.0021816615,0.0021816615,11.745859,0.4309563,0.02633622,9.799467,-0.16519992,0.1364695,0.24420857,0.02333766,-0.012171397,0.7548115,2016-12-15 10:42:56,51.115587946066924
0.39025488,0.095768064,9.957485,-0.008726646,0.0,0.0109083075,12.279761,0.4285621,0.02873042,9.799467,0.019153614,0.076614454,0.16280572,0.022880886,-0.01182846,0.7547803,2016-12-15 10:42:57,52.18201988395719
0.39504328,0.11971009,9.952697,-0.004363323,0.0021816615,-0.009817477,12.279761,0.4357447,0.019153614,9.797073,-0.10295067,0.076614454,0.06464344,0.022519574,-0.012236178,0.75429463,2016-12-15 10:42:58,53.2810668506588
0.35194764,0.08140286,9.78989,0.0,0.006544985,-0.0021816615,11.745859,0.4333505,0.016759412,9.797073,-0.18195933,0.031124622,0.06943185,0.02194649,-0.012133801,0.7544342,2016-12-15 10:42:59,54.157783924907854
0.40940848,0.038307227,9.923966,0.008726646,-0.006544985,-0.011999139,12.279761,0.45489833,0.01436521,9.797073,-0.08379706,0.110133275,0.088585466,0.02239632,-0.01272968,0.7544798,2016-12-15 10:43:00,55.81555078893119
0.34237084,0.15322891,9.78989,0.004363323,-0.0021816615,0.006544985,12.279761,0.45250413,-0.0023942017,9.797073,-0.21068975,0.050278235,0.074220255,0.021427087,-0.01310958,0.75437945,2016-12-15 10:43:01,56.18249256331076
0.32321724,0.05746084,9.82341,-0.0021816615,-0.0032724924,-0.0076358155,11.745859,0.4357447,-0.016759412,9.797073,-0.059855044,0.11731588,0.093373865,0.020124465,-0.012860093,0.7548769,2016-12-15 10:43:02,55.527325780883956
0.38067806,0.16280572,9.923966,0.0010908308,-0.01308997,-0.01308997,12.279761,0.4261679,-0.0047884034,9.799467,-0.011971008,0.08619126,0.019153614,0.019848483,-0.011869809,0.75519395,2016-12-15 10:43:03,52.903159764308
0.39983168,0.1436521,9.871294,0.008726646,-0.016362462,-0.006544985,12.279761,0.45968673,0.0,9.797073,-0.035913024,0.047884032,0.1604115,0.021143723,-0.012580104,0.75525755,2016-12-15 10:43:04,51.94513955977654
0.39504328,0.10055647,9.813833,0.0021816615,-0.004363323,0.008726646,12.279761,0.47405192,-0.01436521,9.797073,-0.12210429,0.14844051,0.16998832,0.020935807,-0.013495337,0.75537974,2016-12-15 10:43:05,52.39202178285198
0.31364042,0.095768064,10.110714,0.011999139,-0.006544985,-0.004363323,10.678054,0.47165772,-0.021547815,9.797073,-0.1388637,0.011971008,-0.02633622,0.02040706,-0.013432844,0.75541896,2016-12-15 10:43:06,52.62396910784339
0.39983168,0.0,9.799467,0.0,0.0054541538,-0.009817477,10.678054,0.47165772,-0.016759412,9.797073,0.038307227,0.20350714,0.21308395,0.020440867,-0.012965063,0.7557566,2016-12-15 10:43:07,50.58108895555663
0.48602295,0.038307227,9.91439,-0.008726646,0.0054541538,0.0010908308,11.211956,0.46208093,0.0023942017,9.797073,-0.06703765,0.10295067,0.24181437,0.020523097,-0.0118416995,0.75582194,2016-12-15 10:43:08,55.244596305936675
0.37588966,0.02873042,10.053253,-0.004363323,-0.01308997,-0.0010908308,11.211956,0.47165772,-0.01436521,9.797073,-0.08140286,0.05746084,0.35673606,0.020196723,-0.012615958,0.75596356,2016-12-15 10:43:09,51.20671209882517
0.4333505,0.023942016,9.78989,0.0032724924,0.004363323,0.009817477,12.813664,0.45968673,-0.02633622,9.797073,-0.093373865,0.12689269,0.107739076,0.019136244,-0.012462074,0.7561052,2016-12-15 10:43:10,51.33722716141684
0.29448682,0.05746084,9.981427,-0.0032724924,0.0021816615,-0.0021816615,14.949276,0.46208093,-0.021547815,9.797073,-0.076614454,0.011971008,-0.031124622,0.01930319,-0.012189334,0.7561486,2016-12-15 10:43:11,52.45035020609117
0.4429273,0.07182605,9.813833,-0.004363323,0.015271631,-0.0032724924,9.610249,0.49081135,-0.023942016,9.794679,-0.095768064,0.16759412,0.1436521,0.020155458,-0.01292493,0.7557718,2016-12-15 10:43:12,53.05381263116055
0.4429273,0.06703765,9.880871,0.0054541538,-0.0010908308,-0.0010908308,11.745859,0.48841715,-0.035913024,9.794679,-0.045489833,0.10295067,0.08619126,0.019511707,-0.013168175,0.755944,2016-12-15 10:43:13,56.239456807032255
0.33758244,0.01436521,9.85214,0.006544985,-0.004363323,0.01308997,13.347568,0.48362875,-0.04070143,9.794679,-0.12210429,0.107739076,0.0047884034,0.01913549,-0.013001194,0.75631636,2016-12-15 10:43:14,55.85565620813854
0.3854665,0.10055647,9.928755,0.01308997,-0.0032724924,-0.0076358155,13.347568,0.49320555,-0.02873042,9.794679,0.04070143,0.08619126,0.24899697,0.019803947,-0.012651343,0.75603867,2016-12-15 10:43:15,58.59463774149175
0.4333505,0.06703765,9.923966,-0.009817477,0.0141808,0.0,13.347568,0.48362875,-0.033518825,9.794679,-0.06464344,0.047884032,0.18674773,0.019138984,-0.012300782,0.7558653,2016-12-15 10:43:16,56.0026377044716
0.29448682,0.033518825,9.799467,-0.006544985,0.004363323,-0.0076358155,13.347568,0.48123455,-0.033518825,9.797073,-0.11492168,0.0047884034,0.16998832,0.01906037,-0.012066726,0.7559421,2016-12-15 10:43:17,54.954795896285134
0.37588966,0.076614454,9.909601,0.006544985,-0.006544985,0.0032724924,13.347568,0.49559975,-0.035913024,9.794679,-0.01436521,0.11252748,0.033518825,0.019477459,-0.012542935,0.75583476,2016-12-15 10:43:18,61.09365146159042
0.30406362,0.05267244,9.957485,-0.0109083075,-0.0141808,0.0,13.347568,0.49799395,-0.033518825,9.794679,-0.10295067,0.11971009,0.062249243,0.019520745,-0.0123951845,0.7562547,2016-12-15 10:43:19,58.37479738572961
0.45729253,0.019153614,9.991004,-0.0054541538,0.0141808,0.0076358155,13.347568,0.49081135,-0.031124622,9.794679,-0.18674773,0.06464344,0.08140286,0.019195743,-0.011983668,0.75583005,2016-12-15 10:43:20,51.44867694993012
0.35194764,0.1436521,9.775525,0.0032724924,0.0,0.0076358155,13.347568,0.49081135,-0.033518825,9.794679,-0.05267244,0.05267244,0.1436521,0.019058123,-0.011842122,0.75600857,2016-12-15 10:43:21,51.566152539315596
0.45250413,0.07182605,9.871294,0.0032724924,0.023998277,0.0010908308,12.813664,0.49799395,-0.023942016,9.794679,-0.16998832,0.17717093,0.0047884034,0.019595306,-0.011760015,0.7564261,2016-12-15 10:43:22,52.23526960888975
0.40462008,0.019153614,9.900024,0.0021816615,-0.0021816615,-0.0010908308,12.279761,0.49799395,-0.038307227,9.794679,-0.093373865,0.05746084,0.10534488,0.019126745,-0.012141557,0.75659597,2016-12-15 10:43:23,52.65997723985258
0.39504328,0.047884032,9.885659,0.0010908308,-0.0076358155,-0.0141808,12.279761,0.50038815,-0.055066638,9.794679,-0.090979666,0.18914193,0.17717093,0.018579297,-0.012670383,0.75658345,2016-12-15 10:43:24,55.49777180806403
0.2801216,0.11971009,9.976639,-0.0021816615,0.0,0.008726646,12.813664,0.51235914,-0.04309563,9.794679,-0.11252748,0.05267244,0.22984336,0.019394057,-0.012508811,0.7570527,2016-12-15 10:43:25,55.18896559096439
0.4285621,-0.0047884034,9.737218,0.0010908308,0.0010908308,0.0032724924,13.88147,0.51954174,-0.035913024,9.794679,-0.07182605,0.08379706,0.038307227,0.01981825,-0.012252007,0.75699073,2016-12-15 10:43:26,54.83298598444354
0.4237737,0.10055647,9.91439,-0.009817477,0.0021816615,0.0,12.813664,0.51235914,-0.047884032,9.794679,-0.09816227,0.18674773,-0.009576807,0.019075181,-0.012315042,0.757174,2016-12-15 10:43:27,50.99681957281908
0.31364042,-0.033518825,9.900024,0.0021816615,0.0054541538,0.0076358155,12.813664,0.51235914,-0.04309563,9.794679,-0.17477672,0.062249243,0.21068975,0.01916906,-0.0120038595,0.75683475,2016-12-15 10:43:28,56.25389662904332
0.37588966,0.08619126,9.976639,0.008726646,0.0,-0.0010908308,12.813664,0.51475334,-0.038307227,9.794679,-0.15322891,0.11971009,0.12449849,0.019392772,-0.011774808,0.75668097,2016-12-15 10:43:29,58.31971543129224
0.37588966,-0.009576807,9.957485,0.0032724924,-0.0054541538,-0.011999139,12.813664,0.5267244,-0.04070143,9.794679,-0.11252748,0.088585466,0.23942018,0.01972736,-0.012126274,0.75665325,2016-12-15 10:43:30,53.49378265180958
0.40940848,0.1340753,10.038888,-0.0054541538,0.004363323,0.0054541538,12.813664,0.51954174,-0.06464344,9.794679,-0.15801731,0.1412579,-0.023942016,0.018494606,-0.012632571,0.75663185,2016-12-15 10:43:31,51.57664619493321
0.34237084,-0.009576807,9.832987,-0.0010908308,-0.004363323,-0.01308997,14.415372,0.49799395,-0.07182605,9.794679,-0.1412579,0.18674773,0.1388637,0.01750409,-0.011979358,0.7568629,2016-12-15 10:43:32,53.2613316314763
0.39983168,0.05746084,10.019734,0.009817477,0.0010908308,-0.0109083075,14.415372,0.50517654,-0.062249243,9.794679,-0.10534488,0.11971009,0.22505496,0.018047713,-0.011732081,0.75688463,2016-12-15 10:43:33,55.479376698029974
0.34715924,0.02873042,9.904813,0.0141808,0.008726646,-0.006544985,13.347568,0.50996494,-0.06464344,9.794679,-0.20590134,0.079008654,0.12928689,0.018218651,-0.011898434,0.75677085,2016-12-15 10:43:34,54.34064539783379
0.37588966,0.009576807,9.919178,-0.009817477,0.0032724924,0.0054541538,13.88147,0.5243302,-0.06464344,9.794679,-0.15322891,0.06943185,0.10055647,0.018656895,-0.012156693,0.75631833,2016-12-15 10:43:35,59.141925330429935
0.37588966,0.05746084,9.94312,-0.0076358155,-0.0010908308,-0.009817477,13.88147,0.5243302,-0.06703765,9.794679,-0.1340753,0.21547815,0.076614454,0.018481562,-0.012052361,0.75642246,2016-12-15 10:43:36,53.25401430534293
0.35673606,0.08140286,9.928755,0.004363323,0.004363323,0.020725785,11.211956,0.545878,-0.08140286,9.792285,-0.18435353,0.02873042,0.16519992,0.018816752,-0.0131588485,0.7566315,2016-12-15 10:43:37,54.755394365853
0.35194764,0.12928689,9.890448,0.0076358155,0.0010908308,-0.0141808,11.211956,0.5482722,-0.09816227,9.792285,-0.062249243,0.25139117,0.18914193,0.018361913,-0.013553118,0.7564997,2016-12-15 10:43:38,55.392857153126094
0.3854665,0.06703765,9.876082,0.0010908308,0.0032724924,-0.006544985,12.279761,0.5434838,-0.095768064,9.792285,-0.090979666,0.095768064,0.031124622,0.01817656,-0.0130224135,0.75652665,2016-12-15 10:43:40,52.170782734599925
0.33758244,0.1388637,9.957485,0.009817477,0.0,0.0032724924,11.745859,0.5482722,-0.088585466,9.792285,-0.15322891,0.12210429,0.17477672,0.018596135,-0.012818329,0.75671333,2016-12-15 10:43:41,54.52664590589929
0.36631286,0.08140286,9.837775,-0.0076358155,0.0010908308,-0.0076358155,12.813664,0.545878,-0.08140286,9.792285,-0.15562311,0.16759412,0.21787235,0.018744837,-0.012250217,0.7569605,2016-12-15 10:43:42,53.409828591053284
0.4237737,0.10534488,9.952697,0.009817477,0.006544985,-0.0109083075,13.88147,0.545878,-0.090979666,9.792285,-0.21787235,0.11971009,0.02633622,0.018397165,-0.012378737,0.7571192,2016-12-15 10:43:43,55.00555577820684
0.37110126,0.1436521,9.78989,-0.0010908308,-0.0032724924,0.0076358155,14.415372,0.5722142,-0.08619126,9.78989,-0.1388637,0.18195933,0.090979666,0.0194731,-0.012844065,0.7566101,2016-12-15 10:43:44,51.2152509800804
0.4189853,0.019153614,9.885659,0.004363323,0.017453292,0.004363323,12.813664,0.5434838,-0.090979666,9.792285,-0.1388637,0.095768064,0.20829555,0.018212968,-0.01197087,0.75656605,2016-12-15 10:43:45,51.2178828212424
0.4381389,0.019153614,9.895236,0.0,0.0054541538,-0.0054541538,13.347568,0.5434838,-0.09816227,9.792285,-0.110133275,0.1316811,0.021547815,0.018017028,-0.012141453,0.7570197,2016-12-15 10:43:46,49.97792369420359
0.33279404,0.038307227,9.85214,-0.011999139,-0.023998277,0.0,12.813664,0.5530606,-0.10534488,9.792285,-0.20111294,0.10534488,0.045489833,0.018121677,-0.012556057,0.7569327,2016-12-15 10:43:47,52.910171031158775
0.5291186,0.22984336,9.904813,-0.0076358155,-0.0010908308,-0.008726646,12.813664,0.5626374,-0.090979666,9.792285,-0.16759412,0.24420857,-0.021547815,0.018906731,-0.012163809,0.756813,2016-12-15 10:43:48,56.62520013953611
0.2801216,0.11971009,9.933543,-0.015271631,0.0010908308,0.0,12.813664,0.56982,-0.10055647,9.78989,-0.12689269,0.15322891,0.11492168,0.018914249,-0.012586184,0.75682354,2016-12-15 10:43:49,60.529420835169496
0.38067806,0.095768064,9.861717,0.0,0.0032724924,0.008726646,12.813664,0.5602432,-0.11252748,9.792285,-0.055066638,0.15083471,-0.04070143,0.018026002,-0.012638738,0.75665873,2016-12-15 10:43:50,57.56808047404731
0.2896984,0.090979666,9.866506,-0.0032724924,0.0,0.0,12.813664,0.5626374,-0.11252748,9.78989,-0.19153613,0.23223756,0.14844051,0.018177653,-0.012536995,0.75719225,2016-12-15 10:43:51,53.90723494230073
0.4141969,0.05746084,9.947908,0.0054541538,-0.0141808,-0.0021816615,12.813664,0.58657944,-0.107739076,9.78989,-0.21068975,0.19871874,-0.009576807,0.019268341,-0.013031747,0.756696,2016-12-15 10:43:52,54.344068466339294
0.31364042,0.047884032,9.847352,-0.0109083075,0.0054541538,0.0032724924,12.813664,0.58657944,-0.10055647,9.78989,-0.20111294,0.23463176,0.090979666,0.01935585,-0.012498414,0.75681204,2016-12-15 10:43:53,53.06911439661721
0.44771573,-0.023942016,9.890448,0.0032724924,0.0010908308,-0.017453292,12.813664,0.58657944,-0.110133275,9.78989,-0.23463176,0.24899697,0.0047884034,0.019069342,-0.01259958,0.7567935,2016-12-15 10:43:54,56.33180169548636
0.37588966,0.16280572,9.876082,-0.004363323,0.0032724924,-0.0010908308,12.813664,0.59615624,-0.11252748,9.78989,-0.23463176,0.22266077,0.10055647,0.019309314,-0.012887711,0.75677687,2016-12-15 10:43:55,53.540705688430634
0.32800564,0.1340753,9.8042555,0.0010908308,-0.0076358155,-0.0141808,12.813664,0.5793968,-0.12449849,9.78989,-0.23223756,0.18674773,0.1388637,0.018183962,-0.012575524,0.75694245,2016-12-15 10:43:56,53.1220533560071
0.36631286,0.21068975,9.842564,-0.0054541538,-0.0054541538,0.004363323,12.813664,0.59376204,-0.11492168,9.78989,-0.12210429,0.24420857,0.110133275,0.01907341,-0.012408009,0.75678563,2016-12-15 10:43:57,56.522371520473634
0.32800564,0.019153614,9.890448,-0.017453292,0.0032724924,-0.01308997,10.678054,0.60094464,-0.12449849,9.787497,-0.22026655,0.20590134,0.06464344,0.018983899,-0.012894409,0.7565177,2016-12-15 10:43:58,57.917488379074285
0.260968,0.095768064,9.928755,0.011999139,0.004363323,-0.0032724924,11.211956,0.60333884,-0.12928689,9.787497,-0.25617957,0.19632454,0.11731588,0.018809332,-0.012860579,0.7562208,2016-12-15 10:43:59,54.94294616624133
0.4381389,0.009576807,9.938332,0.0021816615,-0.0141808,-0.01308997,10.144152,0.61291564,-0.1316811,9.787497,-0.1604115,0.25617957,0.021547815,0.019058889,-0.013028152,0.7560384,2016-12-15 10:44:00,54.66616967160291
0.32321724,0.047884032,9.828198,0.016362462,-0.01308997,0.0032724924,14.415372,0.61770403,-0.12689269,9.787497,-0.2657564,0.25617957,0.12210429,0.019287657,-0.0127813965,0.7558838,2016-12-15 10:44:01,52.990063039053965
0.3854665,-0.02873042,9.967062,0.009817477,0.0054541538,-0.0032724924,15.483178,0.62009823,-0.12928689,9.787497,-0.21068975,0.2873042,0.11731588,0.019269738,-0.012741961,0.7552507,2016-12-15 10:44:02,54.66529606723398
0.45729253,0.12449849,9.91439,0.0010908308,-0.0032724924,0.0076358155,13.88147,0.60573304,-0.12928689,9.787497,-0.16280572,0.15322891,0.079008654,0.018582715,-0.012012752,0.7559179,2016-12-15 10:44:03,53.057579538975574
0.48602295,0.05267244,9.933543,0.004363323,0.0032724924,0.0076358155,14.415372,0.59376204,-0.1388637,9.78989,-0.19393034,0.19153613,0.062249243,0.017833963,-0.011904642,0.75595176,2016-12-15 10:44:04,57.279867711852866
0.38067806,0.11492168,9.837775,0.004363323,-0.004363323,0.0021816615,13.88147,0.59615624,-0.12449849,9.78989,-0.21547815,0.23942018,0.047884032,0.018359108,-0.011329407,0.75615937,2016-12-15 10:44:05,63.712994934202065
0.37588966,0.04309563,9.900024,0.0010908308,0.0076358155,-0.004363323,13.88147,0.61770403,-0.12689269,9.787497,-0.25139117,0.30406362,0.22266077,0.0191064,-0.011976825,0.7560776,2016-12-15 10:44:06,59.826471591340095
0.4141969,0.07182605,9.885659,0.0032724924,-0.0054541538,-0.0054541538,14.415372,0.61770403,-0.1412579,9.787497,-0.23223756,0.33758244,-0.0023942017,0.018619578,-0.012420198,0.7562757,2016-12-15 10:44:07,56.23641500246109
0.4429273,0.02873042,9.986216,0.0,-0.0021816615,0.0010908308,13.88147,0.61770403,-0.15801731,9.787497,-0.25139117,0.20590134,0.18435353,0.01808182,-0.012785086,0.75597584,2016-12-15 10:44:08,59.81677761291721
0.37110126,0.090979666,9.947908,-0.004363323,0.009817477,-0.0076358155,13.88147,0.61770403,-0.15322891,9.787497,-0.260968,0.22984336,0.19871874,0.018267328,-0.012398502,0.7562953,2016-12-15 10:44:09,59.53410026073699
0.38067806,0.07182605,9.876082,0.0076358155,0.0010908308,-0.0141808,14.415372,0.62967503,-0.14844051,9.787497,-0.35434186,0.1388637,0.18914193,0.018779766,-0.012422157,0.7561225,2016-12-15 10:44:10,60.907641880075936
0.3854665,0.08140286,10.101137,0.004363323,-0.011999139,-0.0076358155,13.88147,0.62488663,-0.15083471,9.787497,-0.12449849,0.31364042,0.1316811,0.018535895,-0.01224146,0.7561073,2016-12-15 10:44:11,60.20576694886843
0.36152446,0.18195933,9.861717,0.0010908308,0.009817477,0.0076358155,13.88147,0.62728083,-0.1412579,9.787497,-0.25139117,0.22744916,0.12210429,0.018933833,-0.011803621,0.75580394,2016-12-15 10:44:12,61.94433361132699
0.4285621,0.11971009,9.962274,0.004363323,-0.006544985,0.004363323,14.415372,0.63206923,-0.14844051,9.787497,-0.14604631,0.19632454,0.12689269,0.018866587,-0.012004536,0.7565393,2016-12-15 10:44:13,62.974697431260516
0.34715924,0.1436521,9.91439,0.0021816615,0.0010908308,-0.0032724924,13.88147,0.6344634,-0.16759412,9.785102,-0.15801731,0.1436521,0.038307227,0.018284807,-0.012614859,0.75586843,2016-12-15 10:44:14,61.06825911020569
0.32800564,0.16280572,9.900024,-0.0021816615,-0.0076358155,-0.006544985,13.88147,0.61770403,-0.16759412,9.787497,-0.21787235,0.31603462,0.2801216,0.017629651,-0.011889642,0.7558089,2016-12-15 10:44:15,60.9333834636565
0.39025488,0.062249243,9.904813,-0.004363323,-0.009817477,0.0021816615,14.415372,0.61770403,-0.16519992,9.787497,-0.25139117,0.2753332,0.11731588,0.017799545,-0.011801252,0.7559595,2016-12-15 10:44:16,61.34223699761521
0.4237737,0.10055647,9.866506,-0.0032724924,-0.0032724924,-0.009817477,13.88147,0.6368576,-0.17238252,9.785102,-0.22266077,0.2633622,-0.047884032,0.018301388,-0.012519127,0.7561897,2016-12-15 10:44:17,65.03180589388171
0.35194764,0.047884032,9.82341,0.0,0.004363323,-0.008726646,13.88147,0.6536171,-0.17956513,9.785102,-0.2633622,0.28491,0.02873042,0.018589899,-0.013082229,0.7559469,2016-12-15 10:44:18,59.819777044691634
0.33758244,0.11971009,9.813833,-0.0109083075,-0.0054541538,0.0010908308,14.415372,0.6607997,-0.17477672,9.785102,-0.33279404,0.260968,0.16759412,0.019038796,-0.012901492,0.75572896,2016-12-15 10:44:19,59.9083877785164
0.46686932,0.08140286,9.895236,-0.0032724924,0.0,-0.0010908308,14.415372,0.6464345,-0.17477672,9.785102,-0.20829555,0.1604115,0.24899697,0.018430108,-0.012275239,0.75570357,2016-12-15 10:44:20,56.106549389508935
0.30406362,0.18674773,9.847352,0.0141808,0.0021816615,-0.0010908308,14.949276,0.6464345,-0.17477672,9.785102,-0.29448682,0.19393034,0.07182605,0.018344434,-0.012131283,0.75584257,2016-12-15 10:44:21,59.98756746605014
0.50996494,0.1436521,9.957485,-0.0021816615,-0.004363323,-0.015271631,15.483178,0.6631939,-0.16280572,9.785102,-0.25378537,0.21547815,0.07182605,0.01936074,-0.01206943,0.7554447,2016-12-15 10:44:22,60.91049565297675
0.38067806,0.04309563,9.871294,0.009817477,-0.0032724924,0.0032724924,15.483178,0.6727707,-0.17717093,9.782708,-0.23942018,0.29209262,0.079008654,0.019160785,-0.012711253,0.7555976,2016-12-15 10:44:23,63.88742265743911
0.36631286,0.062249243,9.871294,0.0054541538,-0.006544985,0.018544123,15.483178,0.6799533,-0.18195933,9.782708,-0.260968,0.25857377,0.06464344,0.019272858,-0.013015779,0.75584626,2016-12-15 10:44:24,56.981823665785214
0.46686932,0.05746084,9.856929,-0.0021816615,0.0054541538,-0.018544123,15.483178,0.6847417,-0.16519992,9.782708,-0.4381389,0.23702596,0.23223756,0.01984605,-0.012385426,0.75512654,2016-12-15 10:44:25,54.53996443295098
0.34715924,0.08619126,9.928755,-0.0054541538,-0.008726646,0.0010908308,15.483178,0.6775591,-0.16280572,9.782708,-0.35913026,0.23463176,0.18914193,0.019499123,-0.011881318,0.75531983,2016-12-15 10:44:26,54.746381891024186
0.29927522,0.10534488,9.770737,0.006544985,-0.009817477,0.0054541538,15.483178,0.6751649,-0.16519992,9.782708,-0.24181437,0.24181437,0.050278235,0.019323057,-0.0118067,0.75546885,2016-12-15 10:44:27,58.18254698494236
0.34715924,0.10055647,9.866506,0.009817477,-0.0021816615,-0.0054541538,15.483178,0.7015011,-0.17238252,9.7803135,-0.33518824,0.25378537,0.110133275,0.01997157,-0.012760211,0.754896,2016-12-15 10:44:28,55.13695703933965
0.4333505,0.033518825,9.7084875,-0.0010908308,0.0054541538,-0.009817477,15.483178,0.6943185,-0.16280572,9.782708,-0.24660277,0.25857377,0.21787235,0.019858748,-0.011855179,0.75507504,2016-12-15 10:44:29,55.13654468187035
0.36631286,0.05267244,9.981427,0.0109083075,0.0021816615,-0.0076358155,15.483178,0.6943185,-0.18195933,9.782708,-0.29448682,0.25378537,0.055066638,0.019144766,-0.012451351,0.75519073,2016-12-15 10:44:31,55.73728737799277
0.35194764,0.07182605,9.876082,-0.0109083075,-0.0010908308,0.0021816615,15.483178,0.7015011,-0.17717093,9.7803135,-0.32561144,0.272939,0.22505496,0.019506993,-0.012307711,0.75475115,2016-12-15 10:44:32,57.57690193078822
0.2896984,0.07182605,9.919178,0.0054541538,-0.0109083075,-0.004363323,15.483178,0.7134721,-0.18435353,9.7803135,-0.34237084,0.23702596,0.023942016,0.019594634,-0.01290161,0.7545909,2016-12-15 10:44:33,56.169022728592225
0.35194764,0.10534488,9.842564,-0.0032724924,0.0076358155,-0.0021816615,15.483178,0.7182605,-0.18195933,9.7803135,-0.34237084,0.25378537,0.11971009,0.019713808,-0.012694288,0.7546999,2016-12-15 10:44:34,57.117137442083234
0.3854665,0.019153614,9.991004,-0.0010908308,0.0,0.0054541538,15.483178,0.7062895,-0.18674773,9.7803135,-0.320823,0.20590134,0.21068975,0.01899736,-0.012258153,0.75480944,2016-12-15 10:44:35,60.213191052832656
0.581791,-0.05746084,9.880871,0.0021816615,-0.029452432,-0.011999139,13.88147,0.7302315,-0.19153613,9.77792,-0.45010993,0.1340753,0.90261406,0.019691998,-0.013072254,0.7551023,2016-12-15 10:44:36,53.54710728020522
0.47644615,0.009576807,9.991004,-0.01308997,0.0010908308,-0.016362462,12.279761,0.7254431,-0.19632454,9.77792,-0.34476504,0.33518824,0.074220255,0.019298982,-0.012852082,0.75501925,2016-12-15 10:44:37,54.9863114122908
0.2657564,0.08140286,9.962274,0.0076358155,-0.0021816615,-0.0032724924,13.347568,0.7326257,-0.19393034,9.77792,-0.40462008,0.2705448,0.10295067,0.019593222,-0.012831682,0.75471836,2016-12-15 10:44:38,58.687243700196134
0.36152446,-0.019153614,9.962274,-0.0032724924,0.0010908308,0.0,12.813664,0.7302315,-0.18914193,9.77792,-0.2873042,0.25617957,0.18435353,0.019602107,-0.012409525,0.7549762,2016-12-15 10:44:39,57.57136441056111
0.40940848,0.062249243,9.97185,-0.0032724924,0.0109083075,0.0109083075,12.813664,0.7469909,-0.18195933,9.77792,-0.32321724,0.35434186,0.21787235,0.020317316,-0.012435272,0.7549495,2016-12-15 10:44:40,56.08825702667086
0.39025488,0.10534488,9.909601,-0.0109083075,-0.004363323,0.0010908308,14.415372,0.7445967,-0.18674773,9.77792,-0.320823,0.29209262,0.10295067,0.01992567,-0.01251954,0.7548131,2016-12-15 10:44:41,57.63772379331119
0.29927522,0.08140286,10.077195,0.0,0.015271631,-0.0010908308,13.347568,0.7326257,-0.19871874,9.77792,-0.34715924,0.34237084,0.007182605,0.019037072,-0.012299681,0.7550836,2016-12-15 10:44:42,57.14290318796314
0.39025488,0.06703765,10.0341,0.0010908308,0.008726646,-0.0032724924,13.347568,0.7230489,-0.20350714,9.77792,-0.24181437,0.25139117,0.088585466,0.018519038,-0.012010189,0.75554204,2016-12-15 10:44:43,59.48841816164819
0.39025488,0.090979666,10.005369,0.004363323,-0.0032724924,-0.0010908308,11.745859,0.7326257,-0.21068975,9.77792,-0.3184288,0.30645782,0.1604115,0.018529912,-0.012499571,0.7552488,2016-12-15 10:44:44,56.3580745262417
0.35194764,0.1436521,9.861717,-0.008726646,-0.0054541538,0.0,12.813664,0.7374141,-0.22266077,9.77792,-0.38067806,0.29448682,0.25617957,0.018330311,-0.012861934,0.75506735,2016-12-15 10:44:45,62.20962332879889
0.45250413,0.15801731,9.91439,-0.0054541538,-0.0076358155,-0.0054541538,12.813664,0.7541735,-0.21068975,9.775525,-0.37349546,0.34955344,0.11492168,0.019342415,-0.012893997,0.7547479,2016-12-15 10:44:46,62.411975948222164
0.48123455,0.019153614,10.0341,0.009817477,-0.011999139,0.01308997,12.813664,0.7613561,-0.22026655,9.775525,-0.30406362,0.34955344,0.038307227,0.019235766,-0.013161324,0.7547597,2016-12-15 10:44:47,55.89195574594023
0.37588966,-0.038307227,9.938332,0.006544985,0.011999139,-0.0021816615,12.813664,0.7517793,-0.24181437,9.775525,-0.37110126,0.34237084,0.1340753,0.018175403,-0.013423746,0.7553866,2016-12-15 10:44:48,64.43958813844753
0.34237084,0.06703765,9.809045,-0.009817477,0.0,-0.009817477,12.813664,0.7326257,-0.24660277,9.77792,-0.30406362,0.37588966,0.18914193,0.017344804,-0.012790682,0.7556411,2016-12-15 10:44:49,48.73461864441063
0.3854665,0.07182605,9.856929,-0.0054541538,-0.0032724924,0.0010908308,12.813664,0.7422025,-0.23942018,9.775525,-0.36631286,0.272939,0.019153614,0.017976042,-0.0127059985,0.7552397,2016-12-15 10:44:50,50.17381646527368
0.34237084,0.1388637,9.866506,-0.0021816615,-0.0010908308,0.0021816615,12.813664,0.7565677,-0.23463176,9.775525,-0.51475334,0.40701428,0.20590134,0.018658182,-0.012744829,0.7545639,2016-12-15 10:44:51,55.510841627939996
0.4285621,0.15322891,9.847352,0.0010908308,0.009817477,0.008726646,12.813664,0.7445967,-0.24899697,9.775525,-0.30166942,0.33039984,0.22505496,0.017817881,-0.012712039,0.75490934,2016-12-15 10:44:52,52.33664799319476
0.33279404,0.0047884034,9.895236,-0.0021816615,-0.0032724924,0.0032724924,12.813664,0.7469909,-0.25857377,9.775525,-0.40462008,0.4213795,0.2825158,0.0176539,-0.012842732,0.7556495,2016-12-15 10:44:53,52.84066066005407
0.45729253,0.11492168,10.038888,0.009817477,0.0032724924,-0.004363323,12.813664,0.770933,-0.25617957,9.773131,-0.46686932,0.2753332,0.2896984,0.018534934,-0.013382273,0.7551526,2016-12-15 10:44:54,57.272159735138175
0.33279404,0.1436521,9.947908,0.011999139,0.006544985,0.006544985,12.279761,0.7589619,-0.2657564,9.775525,-0.4405331,0.3184288,0.17238252,0.017790733,-0.013052277,0.75528526,2016-12-15 10:44:55,60.101808002293104
0.35673606,0.18195933,9.856929,0.0109083075,-0.008726646,0.0021816615,11.745859,0.7565677,-0.25617957,9.775525,-0.37110126,0.3184288,0.009576807,0.017992813,-0.012449494,0.7549126,2016-12-15 10:44:56,59.46000263365579
0.30885202,0.14844051,9.938332,0.0,-0.0032724924,-0.0010908308,11.745859,0.7685388,-0.25378537,9.775525,-0.45010993,0.272939,0.17238252,0.018512694,-0.012528436,0.7548722,2016-12-15 10:44:57,60.10971013216743
0.3854665,0.1436521,9.832987,0.0032724924,-0.0021816615,-0.0076358155,12.279761,0.770933,-0.2705448,9.773131,-0.44771573,0.25139117,0.18435353,0.018096525,-0.01311061,0.75501686,2016-12-15 10:44:58,59.17064304467539
0.2753332,0.08140286,9.947908,-0.0021816615,-0.008726646,0.0010908308,12.279761,0.7685388,-0.28491,9.773131,-0.41180268,0.39504328,0.016759412,0.01759288,-0.013336193,0.7552174,2016-12-15 10:44:59,53.51822130398703
0.35673606,0.1388637,9.895236,0.0010908308,-0.0109083075,0.0,12.279761,0.7613561,-0.2801216,9.773131,-0.40462008,0.4189853,0.12210429,0.01748103,-0.0126718115,0.7547928,2016-12-15 10:45:00,59.626671790062886
0.32800564,0.0,9.94312,-0.0021816615,-0.009817477,0.01308997,11.745859,0.7757214,-0.272939,9.773131,-0.37110126,0.34955344,0.24181437,0.018253136,-0.012729203,0.75464714,2016-12-15 10:45:01,58.7528801809688
0.49081135,0.1388637,9.986216,-0.006544985,-0.018544123,-0.006544985,12.279761,0.78290397,-0.2825158,9.773131,-0.48841715,0.34476504,0.21787235,0.01821846,-0.013124419,0.7549851,2016-12-15 10:45:02,62.00005984251939
0.37588966,0.08140286,9.976639,0.0021816615,0.0021816615,-0.0032724924,12.279761,0.79248077,-0.29448682,9.770737,-0.40701428,0.45729253,0.14844051,0.018179517,-0.013543192,0.7548779,2016-12-15 10:45:03,63.34798911996557
0.34715924,0.05267244,9.76116,-0.0032724924,0.0076358155,0.004363323,11.745859,0.7685388,-0.2873042,9.773131,-0.4357447,0.30166942,0.08379706,0.017471232,-0.012247818,0.75478935,2016-12-15 10:45:04,58.23602214288477
0.34237084,0.10055647,9.799467,0.0076358155,-0.0032724924,0.019634955,12.279761,0.7757214,-0.2681506,9.773131,-0.50996494,0.30645782,0.1604115,0.018329304,-0.011574233,0.75552976,2016-12-15 10:45:05,56.178378528605734
0.34237084,0.08619126,9.885659,0.0010908308,-0.0109083075,-0.0109083075,11.745859,0.78769237,-0.2753332,9.773131,-0.45968673,0.37588966,0.08379706,0.018569311,-0.012138829,0.7550151,2016-12-15 10:45:06,58.383770474916616
0.40940848,0.11492168,10.038888,-0.004363323,-0.004363323,-0.009817477,12.279761,0.79008657,-0.2777274,9.773131,-0.33758244,0.2873042,0.25139117,0.018610038,-0.012119278,0.7547253,2016-12-15 10:45:07,51.90093055218571
0.37110126,-0.04309563,9.794679,0.0032724924,0.008726646,-0.0054541538,11.745859,0.79726917,-0.2777274,9.770737,-0.46926352,0.29688102,0.29209262,0.018734945,-0.012235818,0.7547994,2016-12-15 10:45:08,54.53519080773407
0.4189853,0.1388637,9.938332,-0.015271631,-0.0021816615,-0.0054541538,11.745859,0.81163436,-0.2777274,9.770737,-0.49799395,0.35913026,0.06703765,0.019350981,-0.012524338,0.7546674,2016-12-15 10:45:09,55.82546946091946
0.40462008,0.1436521,9.85214,-0.015271631,0.01308997,0.0021816615,12.279761,0.79487497,-0.2825158,9.770737,-0.39025488,0.4261679,0.08140286,0.018507306,-0.011919294,0.7554889,2016-12-15 10:45:10,59.53828440778146
0.37588966,0.12928689,9.933543,0.0010908308,0.0032724924,-0.0054541538,12.813664,0.79966336,-0.29927522,9.770737,-0.34715924,0.2896984,0.16759412,0.018130124,-0.0126005355,0.75576127,2016-12-15 10:45:11,68.12182958940664
0.35194764,0.19632454,9.97185,-0.0021816615,0.0054541538,-0.009817477,12.813664,0.81163436,-0.29688102,9.770737,-0.45010993,0.34476504,0.04309563,0.018626813,-0.012671528,0.7552872,2016-12-15 10:45:12,65.04141906208395
0.35673606,0.076614454,9.938332,-0.0010908308,-0.0021816615,-0.004363323,12.813664,0.82599956,-0.29927522,9.768343,-0.521936,0.37110126,0.1364695,0.019033555,-0.013026513,0.75517166,2016-12-15 10:45:13,49.82729078990391
0.3184288,-0.095768064,9.981427,-0.0141808,-0.0010908308,0.0054541538,12.813664,0.830788,-0.30406362,9.768343,-0.45010993,0.34237084,0.107739076,0.01892233,-0.01323778,0.7551642,2016-12-15 10:45:14,53.375977641670644
0.2657564,0.110133275,9.885659,0.009817477,-0.0010908308,0.0010908308,12.813664,0.82360536,-0.31603462,9.768343,-0.50038815,0.36870706,0.3184288,0.01820268,-0.013206193,0.7551811,2016-12-15 10:45:15,59.363120498397194
0.40940848,-0.02873042,9.933543,0.0109083075,-0.0010908308,-0.0010908308,12.279761,0.81881696,-0.29688102,9.768343,-0.50996494,0.4309563,0.24660277,0.018722968,-0.012195801,0.75516033,2016-12-15 10:45:16,64.92839029922698
0.4189853,0.12928689,9.952697,0.0021816615,0.0010908308,0.0,13.347568,0.8355764,-0.31124622,9.768343,-0.20590134,0.2777274,0.23223756,0.018836968,-0.013112195,0.7546996,2016-12-15 10:45:17,61.38442225425081
0.5434838,0.20111294,9.861717,0.006544985,-0.0021816615,-0.0021816615,12.813664,0.8283938,-0.30885202,9.768343,-0.5482722,0.3184288,0.21787235,0.018618355,-0.012555748,0.75493854,2016-12-15 10:45:18,61.03985580022254
0.39504328,0.04309563,10.014946,-0.0032724924,-0.017453292,0.008726646,12.813664,0.81402856,-0.30406362,9.768343,-0.4333505,0.50517654,0.079008654,0.018209174,-0.011761691,0.75536484,2016-12-15 10:45:19,54.69421657195896
0.33758244,0.019153614,9.842564,-0.009817477,0.0141808,0.006544985,12.813664,0.82599956,-0.30645782,9.768343,-0.45010993,0.37828386,0.15562311,0.018500475,-0.012112271,0.7549206,2016-12-15 10:45:20,51.85947991914478
0.33279404,0.06703765,9.923966,0.011999139,-0.0010908308,0.0076358155,12.813664,0.830788,-0.31603462,9.768343,-0.40222588,0.34955344,-0.0023942017,0.018383544,-0.012487415,0.75505495,2016-12-15 10:45:22,55.009715382033555
0.40462008,-0.033518825,10.000581,0.0054541538,-0.0021816615,-0.004363323,12.813664,0.82599956,-0.31603462,9.768343,-0.48841715,0.45489833,0.035913024,0.018120404,-0.012148485,0.75453615,2016-12-15 10:45:23,53.76665494836594
0.48123455,0.23463176,9.7803135,0.0,0.0,0.011999139,12.813664,0.830788,-0.320823,9.768343,-0.47405192,0.40222588,0.19871874,0.018138599,-0.012366852,0.7548776,2016-12-15 10:45:24,62.940246344639945
0.3854665,0.07182605,9.909601,0.015271631,0.0032724924,-0.004363323,12.813664,0.8451532,-0.33039984,9.765948,-0.39743748,0.4309563,0.12449849,0.018354598,-0.0129924305,0.75480926,2016-12-15 10:45:25,64.66145341314981
0.32321724,0.076614454,9.856929,0.0141808,0.0010908308,-0.0032724924,12.279761,0.8403648,-0.32561144,9.765948,-0.521936,0.320823,0.37828386,0.018366653,-0.012509616,0.7547629,2016-12-15 10:45:26,51.28961852137615
0.37110126,-0.0047884034,9.775525,0.0032724924,0.008726646,0.0054541538,11.745859,0.842759,-0.32800564,9.765948,-0.49081135,0.24181437,0.18195933,0.018299067,-0.012481581,0.7547672,2016-12-15 10:45:27,52.26565132871759
0.39504328,0.062249243,9.876082,0.0032724924,-0.017453292,-0.0054541538,11.745859,0.8331822,-0.33279404,9.765948,-0.45250413,0.4237737,0.36870706,0.0176902,-0.012251435,0.7546494,2016-12-15 10:45:28,50.25256216882954
0.44771573,0.062249243,9.890448,-0.0021816615,-0.0109083075,0.004363323,12.279761,0.8379706,-0.34237084,9.765948,-0.4141969,0.4285621,0.0047884034,0.017635552,-0.012642086,0.7542733,2016-12-15 10:45:29,50.926796590587415
0.37110126,-0.009576807,10.019734,-0.0021816615,0.0,-0.004363323,12.279761,0.8379706,-0.33997664,9.765948,-0.5722142,0.31603462,0.24899697,0.017740725,-0.012269447,0.7547831,2016-12-15 10:45:30,52.681306102566495
0.45729253,0.02873042,9.861717,-0.006544985,-0.008726646,-0.009817477,12.279761,0.8451532,-0.35194764,9.765948,-0.48362875,0.40462008,0.20590134,0.017695332,-0.012903765,0.75511354,2016-12-15 10:45:31,51.40177708685694
0.48123455,0.1436521,9.876082,0.0054541538,-0.0054541538,-0.0076358155,11.745859,0.8690952,-0.33758244,9.763555,-0.46447513,0.46208093,0.1316811,0.019066766,-0.012980631,0.7547396,2016-12-15 10:45:32,50.52400055421007
0.38067806,-0.033518825,9.976639,-0.0021816615,0.008726646,-0.006544985,12.279761,0.8619126,-0.33997664,9.763555,-0.4189853,0.45489833,0.088585466,0.018632554,-0.012700755,0.75463367,2016-12-15 10:45:33,56.01771118286023
0.39983168,0.038307227,9.928755,-0.004363323,0.006544985,0.0021816615,12.279761,0.85473,-0.35673606,9.763555,-0.40701428,0.48602295,0.30885202,0.017813466,-0.012879791,0.7546458,2016-12-15 10:45:34,59.210107302061665
0.37588966,0.07182605,9.947908,-0.011999139,0.009817477,0.0010908308,10.678054,0.842759,-0.36391866,9.765948,-0.44771573,0.37828386,0.009576807,0.017077157,-0.012605319,0.75438905,2016-12-15 10:45:35,62.822062824218925
0.4189853,0.12928689,10.125079,0.009817477,0.0054541538,-0.004363323,10.678054,0.8499416,-0.36870706,9.763555,-0.46447513,0.4357447,0.1316811,0.017331032,-0.012850566,0.7544207,2016-12-15 10:45:36,54.98484322983143
0.533907,0.095768064,9.904813,0.0032724924,-0.0010908308,0.004363323,12.279761,0.8810662,-0.37349546,9.76116,-0.4141969,0.51235914,0.24420857,0.01830968,-0.013854912,0.75402576,2016-12-15 10:45:37,55.287804077573554
0.37588966,-0.019153614,9.890448,-0.0141808,0.004363323,0.0076358155,8.542443,0.8882488,-0.36631286,9.76116,-0.6560113,0.51475334,0.24420857,0.018923825,-0.013669027,0.7542052,2016-12-15 10:45:38,58.68606786766244
0.36152446,0.033518825,10.043676,0.0,0.008726646,-0.0010908308,10.144152,0.866701,-0.3854665,9.76116,-0.46208093,0.4333505,0.17238252,0.017477676,-0.0135207195,0.754766,2016-12-15 10:45:39,62.00035120327855
0.260968,0.090979666,9.847352,0.0054541538,-0.0076358155,0.0054541538,11.211956,0.8882488,-0.37588966,9.76116,-0.58897364,0.49081135,0.21547815,0.018546082,-0.013567723,0.75442284,2016-12-15 10:45:40,62.10932653150134
0.4141969,0.033518825,9.995792,0.0021816615,0.011999139,0.0021816615,10.678054,0.8882488,-0.38067806,9.76116,-0.45489833,0.49559975,0.16280572,0.018432893,-0.013554648,0.7544711,2016-12-15 10:45:41,52.41062641455585
0.47165772,0.062249243,10.115502,-0.004363323,-0.006544985,-0.0021816615,11.745859,0.8882488,-0.39025488,9.758766,-0.48841715,0.50038815,0.2801216,0.018106945,-0.013663426,0.7543924,2016-12-15 10:45:42,59.40540177179435
0.39025488,0.095768064,9.809045,-0.009817477,-0.0109083075,-0.004363323,12.279761,0.89303726,-0.38307226,9.758766,-0.545878,0.4213795,0.1316811,0.018363643,-0.013398258,0.7535802,2016-12-15 10:45:43,53.44821427873676
0.34237084,0.009576807,9.895236,-0.0032724924,0.008726646,-0.0010908308,11.745859,0.89543146,-0.40701428,9.758766,-0.50517654,0.50757074,0.09816227,0.017776195,-0.014086405,0.753643,2016-12-15 10:45:44,58.48873381699914
0.37110126,0.05746084,9.91439,0.0021816615,-0.004363323,0.0109083075,11.745859,0.91458505,-0.39504328,9.7563715,-0.5434838,0.45250413,0.15801731,0.018926198,-0.014031885,0.7539211,2016-12-15 10:45:45,55.73070162702636
0.35194764,0.11971009,9.742006,-0.006544985,0.0076358155,-0.0021816615,12.279761,0.90979666,-0.39025488,9.758766,-0.5386954,0.48602295,0.15562311,0.018923571,-0.013432944,0.753936,2016-12-15 10:45:46,52.10348747797497
0.40462008,-0.023942016,9.847352,0.01308997,0.008726646,-0.0032724924,12.279761,0.90740246,-0.39264908,9.758766,-0.49320555,0.545878,0.22266077,0.018663423,-0.013153592,0.754234,2016-12-15 10:45:47,55.53307426955556
0.33758244,-0.01436521,9.967062,0.0010908308,-0.0109083075,0.0010908308,12.279761,0.89782566,-0.39504328,9.758766,-0.5602432,0.39504328,0.20350714,0.018167168,-0.012782427,0.75369847,2016-12-15 10:45:48,56.749905246341974
0.39504328,0.05267244,9.938332,-0.008726646,0.0076358155,-0.009817477,13.347568,0.90021986,-0.40462008,9.758766,-0.4285621,0.533907,0.19393034,0.017871505,-0.0131037105,0.7534726,2016-12-15 10:45:49,48.50779165838597
0.39504328,0.07182605,9.813833,0.0054541538,0.0032724924,0.004363323,13.347568,0.91458505,-0.40701428,9.7563715,-0.5386954,0.48362875,0.17238252,0.018466415,-0.013372278,0.7538704,2016-12-15 10:45:50,48.51382015196724
0.37588966,0.19153613,9.818622,-0.0010908308,0.006544985,-0.006544985,13.347568,0.90979666,-0.4141969,9.7563715,-0.49559975,0.5530606,0.1436521,0.018013949,-0.0134137925,0.7537841,2016-12-15 10:45:51,53.18790169665679
0.4141969,0.08619126,9.895236,0.0,0.0032724924,-0.0054541538,13.347568,0.91697925,-0.4189853,9.7563715,-0.50278234,0.4189853,0.22984336,0.018151607,-0.01361068,0.7538094,2016-12-15 10:45:52,55.72181766354709
0.35673606,0.02873042,9.938332,-0.006544985,0.017453292,0.0076358155,13.347568,0.93373865,-0.4309563,9.753978,-0.6775591,0.40222588,0.093373865,0.018429236,-0.014263311,0.7539366,2016-12-15 10:45:53,54.87783369991983
0.44771573,0.02873042,9.904813,-0.017453292,-0.017453292,-0.004363323,13.347568,0.92895025,-0.4333505,9.753978,-0.4429273,0.51954174,0.093373865,0.018139433,-0.014085453,0.7536455,2016-12-15 10:45:54,56.25391797972186
0.4285621,0.07182605,9.885659,-0.0021816615,-0.0010908308,0.0021816615,13.347568,0.93134445,-0.4309563,9.753978,-0.46447513,0.5315128,0.20350714,0.018374847,-0.013810974,0.75367826,2016-12-15 10:45:55,55.60685491531128
0.3184288,0.076614454,10.0341,0.0021816615,-0.0054541538,0.008726646,13.347568,0.9528923,-0.4213795,9.751583,-0.5434838,0.5410896,0.062249243,0.019498693,-0.01397288,0.7537957,2016-12-15 10:45:56,53.057883431238665
0.36631286,-0.05746084,9.97185,0.008726646,0.0021816615,0.0076358155,13.347568,0.94570965,-0.4285621,9.753978,-0.6368576,0.5674258,0.23223756,0.01899324,-0.013748869,0.75430137,2016-12-15 10:45:57,53.60791388685711
0.45729253,-0.009576807,9.866506,-0.0054541538,0.006544985,0.0021816615,13.347568,0.9552865,-0.4213795,9.751583,-0.5506664,0.45489833,0.16759412,0.019511098,-0.0136718545,0.7541044,2016-12-15 10:45:58,50.928035469377775
0.45729253,0.05267244,9.933543,0.011999139,0.008726646,0.006544985,13.347568,0.9528923,-0.4189853,9.751583,-0.51475334,0.50038815,0.20111294,0.019401789,-0.013403505,0.75385904,2016-12-15 10:45:59,51.11549982075948
0.38067806,0.01436521,9.890448,0.006544985,0.0141808,0.0021816615,13.347568,0.94810385,-0.4261679,9.751583,-0.47644615,0.46447513,0.18195933,0.019001286,-0.013331905,0.7541574,2016-12-15 10:46:00,55.89308945881349
0.46686932,0.06703765,9.923966,0.0054541538,-0.004363323,0.0076358155,13.347568,0.9552865,-0.40701428,9.751583,-0.6655881,0.49320555,0.090979666,0.019856056,-0.012648305,0.75419676,2016-12-15 10:46:01,55.84901093324953
0.4141969,0.02873042,10.058042,-0.0076358155,-0.004363323,0.0,13.347568,0.94092125,-0.4237737,9.753978,-0.5267244,0.45250413,0.30406362,0.018729286,-0.01277682,0.7543602,2016-12-15 10:46:02,54.20672204940704
0.4237737,0.05746084,10.0341,-0.004363323,-0.0054541538,0.0032724924,13.347568,0.94810385,-0.41180268,9.753978,-0.45250413,0.51714754,0.19871874,0.019390691,-0.012473181,0.75443757,2016-12-15 10:46:03,54.45730917247363
0.38067806,0.110133275,9.97185,-0.0021816615,-0.004363323,0.01308997,13.347568,0.9648633,-0.40222588,9.751583,-0.6655881,0.5554548,0.21068975,0.02027032,-0.012544891,0.7542671,2016-12-15 10:46:04,52.23464590252527
0.44771573,0.023942016,9.813833,0.0032724924,-0.0010908308,0.0054541538,13.347568,0.9600749,-0.4141969,9.751583,-0.39743748,0.44771573,0.19632454,0.019665763,-0.012775004,0.7541505,2016-12-15 10:46:05,52.628910831138896
0.47644615,0.04309563,9.94312,-0.01308997,0.0021816615,0.011999139,12.279761,0.9720459,-0.40222588,9.751583,-0.58657944,0.39743748,0.23942018,0.020381864,-0.012670778,0.7539157,2016-12-15 10:46:06,53.22843915952032
0.39025488,0.10055647,9.952697,-0.008726646,0.0054541538,-0.004363323,11.745859,0.9624691,-0.4237737,9.751583,-0.40940848,0.4285621,0.17717093,0.019226631,-0.0130972285,0.7542075,2016-12-15 10:46:07,52.117354564012466
0.48123455,0.05746084,9.885659,-0.0032724924,0.0054541538,0.008726646,12.279761,0.9696517,-0.4261679,9.751583,-0.5315128,0.4357447,0.17238252,0.019503333,-0.013378352,0.7542563,2016-12-15 10:46:08,53.66664192167767
0.39983168,0.0047884034,9.909601,0.009817477,-0.004363323,-0.015271631,12.279761,0.9840169,-0.4213795,9.749189,-0.59855044,0.521936,0.24660277,0.020126672,-0.013542252,0.75434005,2016-12-15 10:46:09,56.96596410455165
0.35194764,0.12449849,9.885659,-0.0054541538,0.006544985,0.0021816615,11.211956,0.9768343,-0.4165911,9.749189,-0.557849,0.46926352,0.16519992,0.019851856,-0.012921967,0.7541434,2016-12-15 10:46:10,66.60329291289312
0.36152446,0.019153614,9.947908,-0.0021816615,0.01308997,0.0141808,11.745859,0.9648633,-0.4381389,9.751583,-0.62249243,0.50996494,0.095768064,0.018597564,-0.013251854,0.75398767,2016-12-15 10:46:11,52.321773463754944
0.47644615,0.009576807,10.029311,0.0032724924,-0.0109083075,-0.01308997,11.745859,0.9672575,-0.4429273,9.749189,-0.60094464,0.50517654,0.21787235,0.018649803,-0.013449706,0.7539025,2016-12-15 10:46:13,51.26205339847796
0.50996494,0.038307227,9.947908,0.0054541538,-0.015271631,-0.0032724924,11.211956,0.9840169,-0.4237737,9.749189,-0.60812724,0.5434838,0.079008654,0.01988517,-0.013239434,0.7536852,2016-12-15 10:46:14,53.63138063114672
0.35673606,-0.009576807,9.94312,-0.0021816615,-0.008726646,-0.004363323,11.211956,0.9911995,-0.4213795,9.749189,-0.6488287,0.48841715,0.1364695,0.020175312,-0.013286291,0.75358176,2016-12-15 10:46:15,52.28745497828716
0.40940848,0.062249243,9.890448,0.009817477,0.0076358155,0.008726646,10.678054,0.9888053,-0.4189853,9.749189,-0.5746084,0.49081135,0.20350714,0.020019861,-0.01298243,0.7533911,2016-12-15 10:46:16,56.21399290699637
0.39983168,0.05267244,9.890448,-0.0076358155,0.0021816615,-0.0076358155,10.678054,0.9959879,-0.4213795,9.749189,-0.581791,0.5554548,0.20829555,0.020146834,-0.01313146,0.7538356,2016-12-15 10:46:17,48.441305707389674
0.3854665,0.1388637,9.919178,-0.0109083075,0.0109083075,0.0,10.678054,0.9983821,-0.4357447,9.746795,-0.61291564,0.46447513,0.21547815,0.019726485,-0.01374485,0.7538602,2016-12-15 10:46:18,53.162487744042295
0.34715924,0.01436521,9.981427,-0.008726646,0.0054541538,0.0032724924,12.813664,1.0175357,-0.4333505,9.744401,-0.5554548,0.51475334,0.11252748,0.020531066,-0.014147876,0.7540685,2016-12-15 10:46:19,58.114154787011785
0.4333505,0.05746084,9.94312,0.0109083075,-0.0054541538,0.0032724924,13.347568,1.0199299,-0.4357447,9.744401,-0.59136784,0.47884035,0.16519992,0.020420864,-0.014184028,0.7536711,2016-12-15 10:46:20,60.60536963462114
0.40462008,0.076614454,9.957485,-0.006544985,0.004363323,0.006544985,13.347568,1.0127473,-0.4285621,9.746795,-0.5746084,0.49559975,0.2777274,0.020297706,-0.013466325,0.753801,2016-12-15 10:46:21,60.96915486169777
0.48602295,0.0,9.97185,-0.004363323,-0.009817477,0.004363323,13.347568,1.0103531,-0.4381389,9.746795,-0.7158663,0.50038815,0.17238252,0.019754874,-0.013579244,0.75373137,2016-12-15 10:46:22,60.877065285971
0.44771573,0.08619126,10.000581,0.0054541538,-0.0141808,-0.0076358155,13.347568,1.0175357,-0.4309563,9.744401,-0.6703765,0.5315128,0.21787235,0.020212352,-0.01340897,0.7538411,2016-12-15 10:46:23,59.270143032305896
0.3854665,-0.023942016,9.962274,0.0,-0.0032724924,0.004363323,13.347568,1.0414777,-0.4357447,9.742006,-0.63206923,0.3878607,0.25378537,0.020860404,-0.01427263,0.7538223,2016-12-15 10:46:24,65.46282026716885
0.31364042,0.019153614,9.847352,-0.009817477,0.0,-0.004363323,13.347568,1.0295067,-0.4309563,9.744401,-0.62488663,0.49799395,0.23702596,0.020375656,-0.013447886,0.75377715,2016-12-15 10:46:25,66.90292795752151
0.4429273,0.023942016,9.957485,-0.0076358155,-0.006544985,-0.0109083075,13.347568,1.0247183,-0.45010993,9.744401,-0.557849,0.5410896,0.1364695,0.019533657,-0.01394378,0.7537147,2016-12-15 10:46:26,64.04254480036141
0.3854665,0.07182605,10.067618,-0.0032724924,-0.0054541538,-0.0021816615,12.279761,1.0199299,-0.46447513,9.744401,-0.59136784,0.5602432,0.18914193,0.018807406,-0.014122466,0.75317645,2016-12-15 10:46:27,55.534485490228136
0.35194764,0.1388637,9.986216,0.008726646,0.0010908308,-0.0054541538,11.745859,1.0199299,-0.45489833,9.744401,-0.60094464,0.4213795,0.1604115,0.019116499,-0.0135650635,0.7533704,2016-12-15 10:46:28,57.82976858257384
0.36152446,0.11492168,9.809045,-0.0010908308,-0.0141808,0.0054541538,11.745859,1.0127473,-0.4429273,9.744401,-0.58418524,0.51475334,0.14604631,0.019327229,-0.012825599,0.75355405,2016-12-15 10:46:29,54.841383572403956
0.30885202,0.05746084,9.952697,0.004363323,-0.018544123,-0.009817477,11.745859,1.0199299,-0.45489833,9.744401,-0.5722142,0.5746084,0.08379706,0.019156892,-0.013443347,0.7536589,2016-12-15 10:46:30,57.88394431449269
0.39025488,0.047884032,10.06283,-0.0021816615,-0.008726646,0.0,11.745859,1.0175357,-0.45489833,9.744401,-0.6991069,0.5363012,0.035913024,0.019069638,-0.013127767,0.7538617,2016-12-15 10:46:31,61.69443868793007
0.581791,0.095768064,9.7563715,-0.0021816615,0.011999139,-0.019634955,12.279761,1.0366893,-0.45250413,9.742006,-0.61770403,0.5770026,0.17238252,0.019745644,-0.013603032,0.75354666,2016-12-15 10:46:32,60.21570120766612
0.4333505,-0.05267244,9.94312,-0.0010908308,0.006544985,-0.0109083075,12.279761,1.0462662,-0.45010993,9.742006,-0.62728083,0.51235914,0.062249243,0.020099167,-0.0137616545,0.75313693,2016-12-15 10:46:33,62.00940708921513
0.4141969,-0.11971009,9.947908,0.0,0.006544985,-0.006544985,12.279761,1.0510546,-0.44771573,9.742006,-0.6512229,0.48123455,0.36391866,0.020263005,-0.01367056,0.7533132,2016-12-15 10:46:34,64.0434830249613
0.39504328,0.15801731,9.7084875,0.0076358155,0.0109083075,0.0,11.745859,1.0342951,-0.47165772,9.742006,-0.7541735,0.46208093,0.11971009,0.018822862,-0.013843441,0.7536761,2016-12-15 10:46:35,57.339402168192606
0.39983168,-0.0047884034,9.871294,-0.0010908308,0.008726646,-0.0141808,12.279761,1.0462662,-0.46447513,9.739613,-0.56982,0.50278234,0.06943185,0.019642089,-0.013814073,0.7537375,2016-12-15 10:46:36,59.81068398978218
0.3854665,0.18674773,9.880871,0.0141808,-0.0021816615,0.015271631,11.211956,1.055843,-0.46447513,9.739613,-0.6943185,0.5410896,0.09816227,0.019868601,-0.013915028,0.7537346,2016-12-15 10:46:37,60.57286040507162
0.4333505,0.08140286,9.866506,-0.0032724924,-0.0032724924,-0.0054541538,11.211956,1.067814,-0.45729253,9.739613,-0.6344634,0.5386954,0.12689269,0.020516738,-0.013828956,0.75397944,2016-12-15 10:46:38,60.531773393077316
0.4141969,0.12449849,9.967062,-0.0076358155,0.0054541538,-0.0010908308,11.211956,1.0654198,-0.46208093,9.739613,-0.63206923,0.61052144,0.17956513,0.020137759,-0.013700785,0.75370646,2016-12-15 10:46:39,59.18023005872803
0.48602295,0.095768064,9.8042555,-0.0054541538,0.0076358155,0.0021816615,11.211956,1.055843,-0.46208093,9.739613,-0.6607997,0.61052144,0.12210429,0.01974153,-0.013303271,0.753631,2016-12-15 10:46:40,58.59597329106255
0.44771573,0.033518825,10.010158,0.0076358155,0.017453292,-0.008726646,11.211956,1.091756,-0.45729253,9.737218,-0.6919243,0.6344634,0.16280572,0.02113954,-0.014153069,0.75343615,2016-12-15 10:46:41,53.5336299552877
0.4429273,0.090979666,9.97185,0.0109083075,-0.0076358155,-0.006544985,11.211956,1.067814,-0.45968673,9.739613,-0.60573304,0.46926352,0.30885202,0.020022621,-0.01327133,0.753914,2016-12-15 10:46:42,55.34788935257575
0.45729253,0.110133275,9.828198,-0.011999139,-0.0076358155,-0.0141808,11.211956,1.0606314,-0.46686932,9.739613,-0.6512229,0.6631939,0.16519992,0.019456416,-0.013378946,0.75360155,2016-12-15 10:46:43,53.727273569395436
0.36631286,0.090979666,9.900024,0.004363323,-0.0021816615,-0.0076358155,11.211956,1.0582372,-0.46447513,9.739613,-0.6871359,0.50757074,0.16998832,0.019487334,-0.013103161,0.754052,2016-12-15 10:46:44,55.03015969356347
0.45250413,0.07182605,9.847352,0.01308997,0.0076358155,0.004363323,11.211956,1.0869676,-0.47165772,9.734824,-0.7062895,0.581791,0.06943185,0.020456811,-0.01421069,0.75468713,2016-12-15 10:46:45,64.45442497468677
0.46208093,0.05267244,10.06283,0.0010908308,-0.011999139,-0.0021816615,11.211956,1.0989386,-0.47165772,9.734824,-0.7422025,0.5243302,0.12689269,0.020677311,-0.014514865,0.75383437,2016-12-15 10:46:46,66.48525943206137
0.4333505,0.090979666,9.866506,0.017453292,0.0054541538,-0.0010908308,11.211956,1.0941502,-0.45729253,9.734824,-0.61770403,0.5626374,0.1604115,0.020877942,-0.0136296805,0.75355023,2016-12-15 10:46:47,56.17404687912307
0.40462008,0.076614454,9.880871,-0.004363323,-0.0010908308,-0.0054541538,10.678054,1.103727,-0.44532153,9.734824,-0.63206923,0.521936,0.10295067,0.021399684,-0.01348114,0.75326824,2016-12-15 10:46:48,55.03674478422131
0.33758244,0.110133275,9.876082,-0.0021816615,0.0032724924,0.006544985,10.678054,1.0965444,-0.45968673,9.734824,-0.62488663,0.5410896,0.25139117,0.02056552,-0.013689226,0.7533997,2016-12-15 10:46:49,55.86517061914802
0.37110126,0.15801731,9.995792,-0.004363323,0.0032724924,-0.0010908308,10.678054,1.0845734,-0.47165772,9.737218,-0.7086837,0.5291186,0.17238252,0.019746654,-0.013688916,0.7538551,2016-12-15 10:46:50,54.92117651371878
0.25139117,0.110133275,9.7803135,-0.0054541538,-0.011999139,0.0021816615,10.678054,1.0989386,-0.48123455,9.734824,-0.7086837,0.47165772,0.021547815,0.01987925,-0.0144621,0.75362754,2016-12-15 10:46:51,54.491942165053985
0.37110126,0.1436521,9.909601,0.0,-0.0076358155,0.0021816615,11.211956,1.1252748,-0.47644615,9.7324295,-0.7206547,0.61530983,0.16759412,0.020991446,-0.014925813,0.75339025,2016-12-15 10:46:52,48.57555476915718
0.4333505,0.009576807,9.962274,-0.0109083075,0.0076358155,0.016362462,11.745859,1.1180922,-0.49799395,9.730036,-0.7230489,0.61770403,0.11731588,0.019975299,-0.015259564,0.75386995,2016-12-15 10:46:53,53.727342204134665
0.44771573,0.08619126,9.957485,-0.0054541538,-0.0010908308,-0.0054541538,12.279761,1.1252748,-0.49559975,9.730036,-0.6679823,0.62488663,0.22744916,0.020144874,-0.015310809,0.7531072,2016-12-15 10:46:54,50.79340983880946
0.4333505,0.08140286,9.832987,0.0,0.0054541538,-0.0032724924,12.279761,1.1252748,-0.49559975,9.730036,-0.62009823,0.5770026,0.2705448,0.020068184,-0.015077468,0.7528988,2016-12-15 10:46:55,57.83626385906048
0.4381389,0.06703765,10.086772,-0.011999139,0.0054541538,0.0,11.745859,1.1085154,-0.48841715,9.7324295,-0.60333884,0.58418524,0.22026655,0.019790074,-0.013992121,0.7536486,2016-12-15 10:46:56,60.67217193536138
0.38067806,0.0,9.856929,0.0021816615,0.009817477,0.004363323,12.279761,1.1061212,-0.48602295,9.7324295,-0.78769237,0.6344634,0.2681506,0.019695122,-0.013651643,0.75363016,2016-12-15 10:46:57,55.96774343681568
0.36631286,0.02873042,9.957485,0.0,0.004363323,-0.0054541538,11.745859,1.1228806,-0.50038815,9.730036,-0.770933,0.49559975,0.18914193,0.01971931,-0.014552148,0.7534143,2016-12-15 10:46:58,54.214450472020836
0.45729253,0.095768064,10.0341,0.0076358155,0.0141808,-0.004363323,11.745859,1.1252748,-0.50517654,9.730036,-0.7637503,0.61530983,0.18914193,0.019577073,-0.014590418,0.7533409,2016-12-15 10:46:59,53.204067749238284
0.45729253,0.11971009,9.909601,0.004363323,-0.004363323,0.009817477,12.279761,1.127669,-0.50517654,9.730036,-0.8283938,0.62009823,0.17956513,0.019734092,-0.014472615,0.7537449,2016-12-15 10:47:00,54.67826146019436
0.3854665,0.04309563,9.991004,-0.0141808,0.0010908308,0.018544123,12.279761,1.1492168,-0.49081135,9.727641,-0.7110779,0.5722142,0.18195933,0.020751823,-0.014462676,0.75361276,2016-12-15 10:47:01,53.15424804063162
0.30885202,0.062249243,9.995792,-0.015271631,-0.009817477,-0.006544985,11.745859,1.1324574,-0.50278234,9.730036,-0.7757214,0.6560113,0.22744916,0.019643746,-0.014124066,0.7535282,2016-12-15 10:47:03,56.52482725038702
0.4285621,0.17238252,9.880871,0.0010908308,-0.0109083075,-0.0010908308,12.279761,1.1324574,-0.49320555,9.730036,-0.6512229,0.60812724,0.23702596,0.01978436,-0.013556844,0.75361675,2016-12-15 10:47:04,57.61824717634024
0.4141969,0.0,9.871294,-0.021816615,0.0141808,0.006544985,11.211956,1.1228806,-0.50757074,9.730036,-0.866701,0.48841715,0.11731588,0.018779736,-0.013791576,0.7532973,2016-12-15 10:47:05,62.426375966103606
0.39983168,0.062249243,9.85214,0.006544985,-0.0010908308,-0.008726646,10.678054,1.1085154,-0.5267244,9.730036,-0.7422025,0.5793968,0.035913024,0.01761174,-0.013911659,0.7534597,2016-12-15 10:47:06,63.20373507547025
0.4333505,0.033518825,10.014946,-0.006544985,-0.011999139,-0.008726646,12.279761,1.1324574,-0.50757074,9.730036,-0.7278373,0.5602432,0.1364695,0.019155722,-0.013937246,0.7530445,2016-12-15 10:47:07,61.03966399168233
0.35673606,0.08619126,9.866506,-0.0076358155,0.0076358155,-0.0021816615,12.279761,1.1372458,-0.50038815,9.727641,-0.6607997,0.61530983,0.2633622,0.01958973,-0.013657652,0.753355,2016-12-15 10:47:08,58.97191308688271
0.46208093,0.01436521,10.081984,0.006544985,-0.0021816615,0.0,11.745859,1.1204864,-0.50757074,9.730036,-0.7158663,0.56982,0.10295067,0.01860138,-0.013288215,0.7530286,2016-12-15 10:47:09,58.18270441783413
0.533907,-0.033518825,9.847352,-0.006544985,-0.0032724924,0.0,12.279761,1.127669,-0.51475334,9.730036,-0.78529817,0.46686932,0.15562311,0.01859655,-0.013743248,0.752833,2016-12-15 10:47:10,57.137251664693494
0.50038815,0.04309563,9.775525,-0.011999139,0.004363323,0.008726646,12.279761,1.13964,-0.51714754,9.727641,-0.7254431,0.58418524,0.1436521,0.019027073,-0.014137011,0.75315505,2016-12-15 10:47:11,56.88285791884507
0.4237737,0.06703765,9.928755,-0.0032724924,0.0032724924,-0.004363323,11.745859,1.1372458,-0.49320555,9.730036,-0.7326257,0.58418524,0.22266077,0.019710872,-0.0130782295,0.7534784,2016-12-15 10:47:12,58.05470801850305
0.49081135,0.110133275,9.919178,-0.0021816615,0.0021816615,-0.011999139,12.279761,1.1300632,-0.49559975,9.730036,-0.7445967,0.6631939,0.22266077,0.019181747,-0.012853039,0.7528332,2016-12-15 10:47:13,65.5379058119033
0.4285621,0.033518825,9.928755,0.0076358155,-0.017453292,-0.0032724924,12.279761,1.13964,-0.50038815,9.727641,-0.7062895,0.62009823,0.17717093,0.019277541,-0.013394453,0.7524553,2016-12-15 10:47:14,69.36546773945634
0.47644615,-0.0047884034,9.890448,0.0,0.021816615,-0.0021816615,11.745859,1.1468226,-0.51235914,9.727641,-0.7565677,0.521936,0.18674773,0.019166298,-0.013921384,0.75294095,2016-12-15 10:47:15,61.17671240976495
0.40940848,0.10534488,10.0341,0.006544985,0.0,0.0054541538,12.279761,1.1468226,-0.51714754,9.727641,-0.7374141,0.62249243,0.30645782,0.018885445,-0.013952311,0.7527839,2016-12-15 10:47:16,63.78966857897286
0.38067806,0.07182605,9.957485,-0.0021816615,0.0021816615,0.0054541538,10.678054,1.13964,-0.51954174,9.727641,-0.7110779,0.59615624,0.23942018,0.018474866,-0.013718389,0.7524729,2016-12-15 10:47:17,72.7253575371591
0.48602295,0.07182605,9.880871,-0.004363323,0.0021816615,-0.009817477,10.678054,1.1444284,-0.521936,9.727641,-0.81642276,0.59855044,0.21547815,0.018531023,-0.013907826,0.7524063,2016-12-15 10:47:18,77.65548458571145
0.40462008,0.07182605,10.029311,-0.008726646,0.004363323,-0.0076358155,10.678054,1.1492168,-0.51714754,9.727641,-0.7733272,0.62728083,0.18195933,0.018772636,-0.013749011,0.75230134,2016-12-15 10:47:19,72.68500809131504
0.37110126,0.033518825,10.014946,0.004363323,-0.004363323,-0.0010908308,10.144152,1.1540052,-0.51475334,9.725247,-0.878672,0.62009823,0.24181437,0.018999198,-0.013765423,0.75214005,2016-12-15 10:47:20,74.81251411244752
0.39025488,-0.0047884034,9.785102,-0.008726646,0.0021816615,-0.004363323,11.211956,1.1587936,-0.5315128,9.725247,-0.830788,0.5506664,0.15083471,0.01863508,-0.014302101,0.752315,2016-12-15 10:47:21,62.06881022534702
0.39504328,0.15322891,10.024523,0.0076358155,0.0010908308,-0.017453292,11.211956,1.151611,-0.5386954,9.725247,-0.79008657,0.6823475,0.2801216,0.018222112,-0.014140051,0.753001,2016-12-15 10:47:22,62.68199893943898
0.3854665,0.047884032,9.742006,0.0,-0.004363323,0.0021816615,11.211956,1.1587936,-0.5434838,9.722853,-0.7350199,0.6631939,0.17238252,0.018386839,-0.0145023,0.75280136,2016-12-15 10:47:23,56.021927955770686
0.51475334,0.110133275,9.995792,0.004363323,-0.0021816615,0.006544985,11.211956,1.1875241,-0.5315128,9.720459,-0.9504981,0.50278234,0.021547815,0.019881893,-0.014900699,0.75271803,2016-12-15 10:47:24,57.3208435052984
0.32800564,0.01436521,9.770737,-0.0109083075,0.017453292,0.015271631,10.678054,1.1659763,-0.5482722,9.722853,-0.81881696,0.62488663,0.20111294,0.018400535,-0.014649764,0.7526276,2016-12-15 10:47:25,63.3469195652891
0.3854665,0.076614454,9.861717,0.011999139,0.0109083075,0.0,11.745859,1.1707647,-0.5506664,9.722853,-0.62249243,0.62249243,0.2681506,0.01862921,-0.014831426,0.7525436,2016-12-15 10:47:26,66.88192982542324
0.4333505,0.047884032,9.94312,-0.0010908308,0.0032724924,0.009817477,12.279761,1.1779473,-0.5410896,9.722853,-0.7445967,0.58897364,0.22026655,0.019196175,-0.014545104,0.7526492,2016-12-15 10:47:27,68.23533937296477
0.33758244,-0.038307227,10.029311,0.0010908308,0.008726646,0.0010908308,10.678054,1.1899183,-0.5506664,9.720459,-0.8762778,0.62728083,0.14604631,0.019343145,-0.015182156,0.7525182,2016-12-15 10:47:28,65.68206707604263
0.4237737,0.02873042,9.904813,-0.009817477,0.0141808,0.0021816615,10.678054,1.1899183,-0.5650316,9.718064,-0.8331822,0.6464345,0.17717093,0.018939544,-0.015452761,0.7525915,2016-12-15 10:47:29,52.510432699004085
0.4333505,0.05746084,9.871294,0.0032724924,-0.006544985,0.0,11.211956,1.1971009,-0.5530606,9.718064,-0.80684596,0.6488287,0.1340753,0.019482292,-0.015021909,0.7523318,2016-12-15 10:47:30,52.97395655125403
0.39983168,0.009576807,9.765948,0.0054541538,-0.004363323,-0.004363323,10.678054,1.2066777,-0.557849,9.718064,-0.81163436,0.62009823,0.24899697,0.01978515,-0.015361737,0.7524599,2016-12-15 10:47:31,55.9944045513208
0.37110126,0.05746084,9.876082,-0.0032724924,0.0054541538,-0.0054541538,11.211956,1.2042835,-0.5434838,9.718064,-0.7374141,0.557849,0.25857377,0.02014415,-0.014577286,0.75277853,2016-12-15 10:47:32,56.39623359796999
0.50996494,0.076614454,9.967062,-0.0021816615,-0.0021816615,0.017453292,12.279761,1.2066777,-0.5410896,9.718064,-0.78769237,0.5746084,0.24420857,0.02016386,-0.0143953,0.75285506,2016-12-15 10:47:33,60.110551189599306
0.44771573,0.12928689,9.856929,-0.0032724924,-0.0054541538,0.011999139,11.211956,1.2090719,-0.5410896,9.718064,-0.81881696,0.5793968,0.33997664,0.020195324,-0.01435082,0.75270116,2016-12-15 10:47:34,60.02857001564327
0.34237084,0.023942016,9.828198,-0.0109083075,0.0032724924,-0.0076358155,11.211956,1.2162545,-0.545878,9.715671,-0.8882488,0.62728083,0.28491,0.020289075,-0.014636388,0.75285316,2016-12-15 10:47:35,54.52830053035183
0.51475334,0.10055647,9.861717,0.0032724924,-0.017453292,-0.006544985,11.211956,1.2234371,-0.5530606,9.715671,-0.7086837,0.6536171,0.14604631,0.02009827,-0.014975702,0.75260305,2016-12-15 10:47:36,53.701602902451555
0.4429273,-0.0047884034,9.928755,-0.0109083075,0.0076358155,0.01308997,11.211956,1.2162545,-0.5674258,9.715671,-0.7206547,0.6440403,0.107739076,0.019386673,-0.01503901,0.7533929,2016-12-15 10:47:37,52.24749654072334
0.45250413,0.10055647,10.043676,0.009817477,0.0010908308,-0.008726646,11.211956,1.2258313,-0.5506664,9.715671,-0.85473,0.6512229,0.22744916,0.02027985,-0.014532,0.75332737,2016-12-15 10:47:38,60.015334597032705
0.51475334,0.05746084,10.029311,-0.004363323,0.004363323,-0.0054541538,11.211956,1.2090719,-0.5674258,9.715671,-0.866701,0.62967503,0.24181437,0.018961396,-0.014546584,0.75292283,2016-12-15 10:47:39,61.45160752458422
0.39983168,0.11492168,9.832987,0.008726646,0.0,-0.0032724924,10.678054,1.2234371,-0.5746084,9.713276,-0.79966336,0.6943185,0.29209262,0.019266611,-0.015187794,0.75303215,2016-12-15 10:47:40,64.28377145615553
0.79248077,0.15322891,10.168175,-0.0076358155,-0.0141808,-0.0032724924,11.745859,1.2162545,-0.581791,9.715671,-0.24660277,0.7733272,0.36152446,0.018674143,-0.01503332,0.75352275,2016-12-15 10:47:41,63.46705390939012
0.39025488,0.17238252,10.029311,0.0021816615,0.009817477,-0.017453292,11.211956,1.2425907,-0.5746084,9.710882,-0.8475474,0.7757214,0.260968,0.01981733,-0.015539583,0.7528558,2016-12-15 10:47:42,63.397471748267016
0.45250413,0.11492168,9.909601,0.0054541538,-0.011999139,-0.006544985,10.678054,1.2330139,-0.5770026,9.713276,-0.8475474,0.6631939,0.20111294,0.01933019,-0.015111038,0.7530266,2016-12-15 10:47:43,60.176068164527685
0.45250413,0.11971009,9.933543,-0.004363323,-0.008726646,0.0141808,10.678054,1.2306197,-0.5722142,9.713276,-0.7445967,0.61530983,-0.05267244,0.019482212,-0.014661664,0.75310695,2016-12-15 10:47:44,59.89810190792102
0.4429273,0.0047884034,9.847352,0.0054541538,0.020725785,0.0032724924,12.279761,1.2473791,-0.56982,9.710882,-0.90021986,0.545878,0.06943185,0.020182448,-0.014917085,0.7535039,2016-12-15 10:47:45,56.402376959641245
0.58657944,0.090979666,10.019734,-0.009817477,0.01308997,0.0,10.678054,1.2354081,-0.56982,9.713276,-0.78769237,0.7038953,0.29209262,0.019562934,-0.014293678,0.75355625,2016-12-15 10:47:46,67.20281626157741
0.4141969,-0.05746084,9.900024,0.0109083075,-0.004363323,0.0021816615,11.745859,1.2737153,-0.59136784,9.706094,-0.8595184,0.533907,0.19393034,0.020112973,-0.016208079,0.75278485,2016-12-15 10:47:47,60.265375517812686
0.2896984,0.12449849,10.058042,0.0021816615,-0.0010908308,0.0076358155,11.211956,1.2593501,-0.59136784,9.7084875,-0.8451532,0.6727707,0.1388637,0.019466113,-0.015507933,0.7529708,2016-12-15 10:47:48,60.55654589519243
0.36152446,0.0047884034,9.880871,-0.004363323,0.0010908308,0.0054541538,11.745859,1.2545617,-0.5770026,9.710882,-0.89782566,0.5770026,0.24660277,0.01966571,-0.0147910975,0.7528413,2016-12-15 10:47:49,65.92884527775661
0.33279404,0.009576807,9.938332,-0.015271631,0.016362462,0.0021816615,11.745859,1.2665327,-0.60333884,9.706094,-0.9768343,0.6464345,0.31364042,0.019208586,-0.015951438,0.75271684,2016-12-15 10:47:50,60.02185613345806
0.2705448,0.090979666,9.900024,0.0021816615,0.0054541538,-0.011999139,13.347568,1.2545617,-0.59855044,9.7084875,-0.92176765,0.6703765,0.1388637,0.018881204,-0.015166702,0.75286525,2016-12-15 10:47:51,67.30528374802945
0.38067806,0.047884032,9.91439,-0.009817477,0.009817477,0.006544985,12.279761,1.2665327,-0.60573304,9.706094,-0.91937345,0.6775591,0.23702596,0.019209921,-0.015560623,0.7534161,2016-12-15 10:47:53,60.93777324426647
0.45250413,0.10534488,9.981427,-0.0032724924,-0.004363323,0.0032724924,12.279761,1.2569559,-0.60573304,9.7084875,-0.7661445,0.59136784,0.24899697,0.018882962,-0.0150787365,0.7536031,2016-12-15 10:47:54,58.67581155787434
0.36631286,0.076614454,9.900024,-0.008726646,0.020725785,-0.0021816615,12.279761,1.2593501,-0.60333884,9.7084875,-0.90740246,0.5746084,0.18195933,0.01891011,-0.014899978,0.753233,2016-12-15 10:47:55,58.62832528766795
0.35673606,0.062249243,9.957485,-0.0032724924,-0.0054541538,0.0,12.279761,1.2761095,-0.60573304,9.706094,-0.8858546,0.59136784,0.1364695,0.019468898,-0.015324686,0.75286704,2016-12-15 10:47:56,63.64603708106442
0.14604631,0.10534488,10.053253,0.011999139,-0.0010908308,0.0054541538,13.347568,1.2689269,-0.5793968,9.7084875,-1.0989386,0.7038953,0.2825158,0.019958764,-0.013917498,0.75283766,2016-12-15 10:47:57,71.16195318962555
0.36631286,0.01436521,9.842564,-0.0010908308,0.0010908308,-0.008726646,16.550983,1.2665327,-0.58418524,9.7084875,-0.92895025,0.6464345,0.17238252,0.019526618,-0.013991369,0.7526536,2016-12-15 10:47:58,68.44926332180148
0.50996494,0.08140286,9.866506,-0.006544985,0.011999139,-0.0054541538,15.483178,1.2904748,-0.59136784,9.703699,-0.8762778,0.5722142,0.10534488,0.020052612,-0.0149467215,0.75241345,2016-12-15 10:47:59,64.36000177294603
0.33758244,0.05746084,9.976639,0.0054541538,-0.004363323,-0.0010908308,12.813664,1.2761095,-0.59136784,9.706094,-0.8858546,0.6967127,0.2896984,0.01959144,-0.0142783895,0.75316745,2016-12-15 10:48:00,66.27912954158288
0.39025488,0.07182605,9.880871,-0.011999139,0.015271631,-0.006544985,13.88147,1.271321,-0.60333884,9.706094,-0.8523358,0.58897364,0.23223756,0.01908432,-0.014413105,0.7537077,2016-12-15 10:48:01,58.87340745116471
0.4237737,0.06703765,9.928755,0.0032724924,0.01308997,0.008726646,13.88147,1.271321,-0.59855044,9.706094,-0.78529817,0.6464345,0.16998832,0.019128101,-0.014117027,0.7534543,2016-12-15 10:48:02,61.9746607942896
0.533907,-0.023942016,9.928755,-0.0054541538,0.0032724924,-0.019634955,13.88147,1.2689269,-0.60094464,9.706094,-0.7733272,0.62967503,0.11731588,0.018881537,-0.014117733,0.75321114,2016-12-15 10:48:03,64.70860540059579
0.4285621,0.019153614,10.005369,-0.009817477,-0.009817477,-0.0010908308,13.88147,1.2617443,-0.60573304,9.7084875,-0.91937345,0.7015011,0.24420857,0.018517353,-0.013798537,0.7536041,2016-12-15 10:48:04,62.04325986164393
0.40940848,0.04309563,9.962274,0.011999139,0.0021816615,-0.009817477,13.88147,1.2856863,-0.59136784,9.706094,-0.8762778,0.6440403,0.21787235,0.019759752,-0.013983931,0.75301254,2016-12-15 10:48:05,61.846255179028525
0.39983168,0.1340753,9.871294,-0.0021816615,-0.006544985,-0.0021816615,13.88147,1.2904748,-0.59615624,9.703699,-0.89064306,0.7302315,0.16759412,0.019767152,-0.014274998,0.7533066,2016-12-15 10:48:06,62.52342001490461
0.4141969,0.04309563,9.995792,0.0,-0.0010908308,-0.004363323,13.88147,1.292869,-0.60812724,9.703699,-0.91697925,0.7134721,0.34476504,0.019350883,-0.014580265,0.75357646,2016-12-15 10:48:07,61.63100152589352
0.38067806,0.08140286,9.775525,-0.004363323,0.0141808,-0.004363323,15.483178,1.3000516,-0.61291564,9.701305,-0.8571242,0.6512229,0.22744916,0.019678336,-0.014897335,0.75331926,2016-12-15 10:48:08,62.16533675377985
0.39025488,0.10534488,9.8042555,0.0076358155,-0.0010908308,-0.016362462,15.483178,1.2976574,-0.60812724,9.701305,-0.89782566,0.62728083,0.17477672,0.019698909,-0.014398752,0.75321203,2016-12-15 10:48:09,62.77589157800951
0.7685388,0.07182605,9.837775,0.0054541538,0.006544985,-0.008726646,14.949276,1.3024458,-0.60094464,9.701305,-0.8690952,0.6344634,-0.18914193,0.020041138,-0.014225412,0.75361437,2016-12-15 10:48:10,64.33654373127254
0.2657564,0.19153613,9.842564,0.006544985,0.004363323,0.008726646,15.483178,1.3000516,-0.60573304,9.701305,-0.90979666,0.7015011,0.2801216,0.019699778,-0.014131449,0.7534192,2016-12-15 10:48:11,60.009937947764094
0.31364042,0.08619126,9.952697,0.011999139,-0.0032724924,-0.004363323,15.483178,1.3120226,-0.61052144,9.701305,-0.8643068,0.6584055,0.28491,0.019838002,-0.01454352,0.7531479,2016-12-15 10:48:12,66.39476716443315
0.36152446,0.095768064,9.718064,-0.0021816615,0.0032724924,0.008726646,14.949276,1.3215994,-0.60812724,9.698911,-1.1468226,0.521936,0.23942018,0.020024076,-0.014611572,0.75267905,2016-12-15 10:48:13,66.91045216017626
0.38067806,0.01436521,10.010158,0.0,0.0054541538,0.0021816615,15.483178,1.2952632,-0.61770403,9.701305,-0.92416185,0.7278373,0.050278235,0.018690426,-0.013867652,0.7530667,2016-12-15 10:48:14,62.25404938364235
-0.007182605,0.16280572,9.703699,0.011999139,0.016362462,-0.033815753,14.415372,1.2785037,-0.61052144,9.703699,-1.7262194,0.5434838,0.076614454,0.018097334,-0.012834961,0.75278187,2016-12-15 10:48:15,71.73383696675786
0.1412579,0.095768064,9.91439,-0.0141808,-0.017453292,-0.019634955,14.415372,1.3120226,-0.60094464,9.701305,-0.9840169,0.81642276,0.15083471,0.01956692,-0.013364542,0.75259453,2016-12-15 10:48:16,72.57903660728407
0.3184288,0.07182605,9.981427,0.0010908308,0.008726646,-0.0021816615,13.88147,1.3431472,-0.58897364,9.696517,-0.94810385,0.641646,0.29448682,0.020906322,-0.013894921,0.75202924,2016-12-15 10:48:17,64.90186307647508
0.45250413,0.047884032,9.991004,-0.008726646,-0.0109083075,-0.008726646,14.415372,1.352724,-0.581791,9.696517,-0.78529817,0.6536171,0.20350714,0.021308417,-0.013723884,0.75211906,2016-12-15 10:48:18,66.8156246507964
0.46686932,0.14844051,9.866506,-0.009817477,0.0010908308,0.0010908308,14.949276,1.3479356,-0.58418524,9.696517,-0.9624691,0.7374141,0.19871874,0.020707738,-0.013461998,0.7520862,2016-12-15 10:48:19,64.10484633017924
0.34237084,0.047884032,9.727641,-0.0054541538,0.0076358155,0.0021816615,14.949276,1.3455414,-0.58897364,9.696517,-0.9983821,0.5746084,0.059855044,0.02013759,-0.013389882,0.7519544,2016-12-15 10:48:20,57.869690116113155
0.38067806,0.110133275,10.125079,-0.0054541538,-0.0032724924,0.016362462,15.483178,1.340753,-0.61291564,9.696517,-0.9792285,0.6847417,0.15562311,0.01910737,-0.013968913,0.7522069,2016-12-15 10:48:21,57.68325476604099
0.2801216,0.15801731,9.78989,0.004363323,-0.0054541538,-0.0076358155,15.483178,1.3599066,-0.59615624,9.694122,-1.0510546,0.7062895,0.10534488,0.020202512,-0.013893029,0.75178134,2016-12-15 10:48:22,61.82931076698655
0.2657564,0.06703765,9.842564,0.0032724924,-0.008726646,0.0010908308,14.415372,1.3551182,-0.58418524,9.696517,-1.0654198,0.62249243,0.260968,0.020233583,-0.013121029,0.7518506,2016-12-15 10:48:23,55.30910697464034
0.40462008,0.11971009,9.938332,-0.009817477,-0.0032724924,-0.015271631,14.415372,1.3479356,-0.59855044,9.696517,-0.9528923,0.641646,0.22744916,0.019404784,-0.013283305,0.75231254,2016-12-15 10:48:24,56.784622605500076
0.260968,0.033518825,9.76116,-0.0054541538,0.009817477,0.0,14.415372,1.340753,-0.61291564,9.696517,-1.079785,0.6464345,0.06464344,0.018617177,-0.0133957025,0.7525103,2016-12-15 10:48:25,58.95175534707639
0.35194764,0.07182605,9.842564,0.0,-0.0010908308,-0.0010908308,14.415372,1.3431472,-0.60333884,9.696517,-1.0342951,0.6991069,0.12689269,0.018869918,-0.01301812,0.7524183,2016-12-15 10:48:26,55.30406235218348
0.2657564,0.07182605,9.938332,0.01308997,-0.004363323,0.006544985,14.415372,1.3718776,-0.58657944,9.694122,-1.0773908,0.6440403,0.2681506,0.0204206,-0.013147829,0.7523314,2016-12-15 10:48:27,54.98521264743006
0.3184288,0.033518825,9.832987,-0.0054541538,0.006544985,-0.01308997,14.949276,1.3742718,-0.58897364,9.694122,-1.0271125,0.61770403,0.25857377,0.020205572,-0.01325991,0.75192934,2016-12-15 10:48:28,55.3431737932012
0.4381389,0.1436521,9.97185,0.0021816615,0.008726646,-0.008726646,15.483178,1.3623008,-0.58897364,9.694122,-1.1779473,0.56982,0.14844051,0.019564059,-0.012717839,0.7522596,2016-12-15 10:48:29,57.35061587072988
-0.1364695,-0.06703765,9.909601,0.0021816615,0.006544985,0.0021816615,15.483178,1.3694834,-0.581791,9.694122,-1.3670892,0.58657944,0.095768064,0.019849086,-0.01244632,0.7522528,2016-12-15 10:48:30,60.37387989328893
0.2753332,0.090979666,10.0341,-0.0109083075,0.009817477,-0.0021816615,14.949276,1.3862427,-0.5722142,9.691729,-1.0582372,0.62009823,0.059855044,0.020616086,-0.012575848,0.75249076,2016-12-15 10:48:31,58.43430092499281
0.4141969,0.14844051,9.909601,0.0010908308,-0.0054541538,-0.0010908308,15.483178,1.4077905,-0.5770026,9.689334,-1.055843,0.61052144,0.30166942,0.020930344,-0.013283545,0.75207233,2016-12-15 10:48:32,56.68417209112825
0.48602295,0.05746084,9.7563715,0.006544985,-0.004363323,0.0,14.949276,1.412579,-0.58418524,9.689334,-1.0079589,0.6368576,0.17238252,0.02060001,-0.013639793,0.7519431,2016-12-15 10:48:33,60.21043253337167
0.34715924,0.062249243,9.866506,0.006544985,0.0021816615,0.0,14.949276,1.4030021,-0.5793968,9.689334,-1.0175357,0.58418524,0.19153613,0.020293638,-0.01305316,0.7522048,2016-12-15 10:48:34,60.4608194908276
0.5291186,0.08619126,9.876082,-0.0141808,0.004363323,-0.0141808,15.483178,1.3982137,-0.58418524,9.689334,-0.8690952,0.6703765,0.18674773,0.019818608,-0.0129808355,0.7522398,2016-12-15 10:48:35,52.61763936911049
0.4141969,0.062249243,9.938332,-0.0032724924,-0.006544985,-0.0076358155,14.949276,1.3934253,-0.58657944,9.689334,-1.0079589,0.6536171,0.19153613,0.019496197,-0.012811264,0.75242877,2016-12-15 10:48:36,50.83760472803074
0.78769237,0.062249243,9.938332,0.006544985,0.020725785,0.004363323,14.949276,1.4149733,-0.581791,9.68694,-0.90021986,0.6823475,0.17956513,0.020158365,-0.013306089,0.75164366,2016-12-15 10:48:37,59.52641627982878
0.32800564,0.090979666,9.952697,-0.0010908308,-0.0021816615,0.0054541538,15.483178,1.3910311,-0.59615624,9.689334,-1.0773908,0.7398083,0.22505496,0.018818025,-0.012964707,0.7522842,2016-12-15 10:48:38,60.168510389497456
0.38067806,0.023942016,10.019734,-0.0010908308,-0.0021816615,-0.008726646,14.949276,1.3982137,-0.5793968,9.689334,-0.9935937,0.62249243,0.34476504,0.019355856,-0.012484308,0.7517403,2016-12-15 10:48:39,60.537104961306184
0.4237737,0.14844051,9.885659,-0.006544985,-0.018544123,0.0054541538,14.949276,1.4030021,-0.5770026,9.689334,-1.0031705,0.61530983,0.30645782,0.01961716,-0.012488121,0.7518613,2016-12-15 10:48:40,61.395689173377676
0.34237084,0.0,10.014946,-0.0010908308,-0.0021816615,-0.004363323,14.949276,1.4197617,-0.5770026,9.68694,-1.0534488,0.6488287,0.19393034,0.020206783,-0.012979174,0.7520437,2016-12-15 10:48:42,59.5019151736368
0.40940848,0.033518825,9.967062,0.0032724924,0.006544985,-0.009817477,13.88147,1.4293385,-0.5650316,9.68694,-0.9816227,0.641646,0.260968,0.02072932,-0.012723396,0.75209355,2016-12-15 10:48:43,58.42869324040307
0.21308395,0.12449849,9.842564,-0.0109083075,-0.0010908308,-0.0021816615,13.88147,1.4293385,-0.5626374,9.68694,-1.0486604,0.6488287,0.260968,0.020432174,-0.012706846,0.7513968,2016-12-15 10:48:44,56.01169037321508
0.29927522,0.047884032,9.813833,0.0032724924,-0.0032724924,0.008726646,13.88147,1.4341269,-0.5674258,9.68694,-0.9911995,0.6871359,0.22744916,0.02036395,-0.012922335,0.75141096,2016-12-15 10:48:45,55.64748326124772
0.34715924,0.04309563,9.856929,0.0054541538,-0.0054541538,0.0032724924,13.88147,1.4101849,-0.58897364,9.68694,-1.043872,0.61770403,0.25617957,0.018618328,-0.012942394,0.75196016,2016-12-15 10:48:46,56.791142145632875
0.35673606,0.0047884034,9.928755,-0.01308997,0.01308997,-0.0141808,13.88147,1.4030021,-0.58657944,9.689334,-1.0127473,0.7398083,0.2633622,0.018415613,-0.01256939,0.7520203,2016-12-15 10:48:47,55.37087761483288
0.38067806,0.019153614,9.818622,0.0010908308,0.0,-0.0021816615,13.88147,1.412579,-0.58897364,9.68694,-0.9648633,0.6799533,0.18914193,0.018699147,-0.012983315,0.7520305,2016-12-15 10:48:48,52.072647998891654
0.34715924,0.04309563,9.909601,-0.0010908308,-0.0010908308,-0.016362462,13.88147,1.4149733,-0.59136784,9.68694,-0.9624691,0.6631939,0.1364695,0.018767226,-0.013025103,0.7521078,2016-12-15 10:48:49,52.33119075623978
0.3184288,-0.02873042,10.077195,0.004363323,0.0,0.0032724924,13.88147,1.4221559,-0.581791,9.68694,-1.1611878,0.6727707,0.11731588,0.019388862,-0.012826491,0.7522568,2016-12-15 10:48:50,58.95919811776835
0.4189853,0.12449849,9.909601,-0.0021816615,0.0109083075,0.0076358155,14.415372,1.4197617,-0.58657944,9.68694,-1.0965444,0.62967503,0.33758244,0.019027427,-0.012902528,0.7524191,2016-12-15 10:48:51,61.42611746078349
0.30885202,0.08619126,9.890448,-0.0054541538,0.0010908308,-0.0010908308,14.415372,1.42455,-0.58897364,9.68694,-1.0630256,0.7469909,0.16998832,0.019039195,-0.013101529,0.75204855,2016-12-15 10:48:52,57.12236433459129
0.39504328,0.10534488,9.933543,-0.0032724924,0.0032724924,0.0021816615,14.415372,1.4508862,-0.61052144,9.679757,-1.0175357,0.7541735,0.35913026,0.019296607,-0.014646718,0.75212145,2016-12-15 10:48:53,57.069161838326764
0.4333505,-0.023942016,9.900024,0.004363323,0.009817477,0.0032724924,14.415372,1.4437037,-0.61770403,9.682152,-1.0055647,0.61291564,0.16519992,0.018737843,-0.0145138595,0.75187945,2016-12-15 10:48:54,55.296305189189916
0.23702596,-0.019153614,9.799467,0.0032724924,0.0,-0.0010908308,14.415372,1.4221559,-0.62009823,9.6845455,-1.1372458,0.6871359,0.29688102,0.017888354,-0.013666002,0.7525752,2016-12-15 10:48:55,58.887429824059716
0.36631286,0.095768064,9.809045,-0.01308997,0.0109083075,-0.0010908308,14.415372,1.42455,-0.61052144,9.6845455,-1.0582372,0.7062895,0.12449849,0.01827848,-0.013263483,0.7525737,2016-12-15 10:48:56,60.63329920851693
0.40940848,0.06703765,9.876082,-0.0109083075,0.004363323,-0.01308997,14.949276,1.4341269,-0.60573304,9.6845455,-1.1300632,0.6871359,0.16759412,0.018690385,-0.01332077,0.7521912,2016-12-15 10:48:57,60.35277932489293
0.33758244,0.033518825,10.110714,-0.0010908308,0.0032724924,0.0054541538,13.88147,1.4269443,-0.60094464,9.6845455,-1.0031705,0.6440403,0.19632454,0.01851343,-0.012758821,0.75178105,2016-12-15 10:48:58,59.75573274415021
0.3184288,0.02873042,9.828198,0.0032724924,-0.0076358155,0.0076358155,15.483178,1.4149733,-0.60812724,9.68694,-1.0151415,0.5746084,0.29448682,0.017856425,-0.012513382,0.7521009,2016-12-15 10:48:59,54.68885166028486
0.28491,0.033518825,9.995792,-0.004363323,0.015271631,-0.0076358155,15.483178,1.4341269,-0.60333884,9.6845455,-1.1204864,0.6847417,0.30166942,0.018664021,-0.012937682,0.75214726,2016-12-15 10:49:00,59.37333219619209
0.4285621,0.1388637,10.005369,0.008726646,-0.004363323,0.009817477,13.88147,1.4269443,-0.61530983,9.6845455,-1.079785,0.7062895,0.35913026,0.018023003,-0.013004713,0.75212324,2016-12-15 10:49:01,55.485171979325614
0.4141969,0.08140286,10.043676,-0.0054541538,-0.017453292,0.008726646,14.415372,1.4389153,-0.61530983,9.682152,-1.0055647,0.6488287,0.25139117,0.018507736,-0.013284709,0.75266373,2016-12-15 10:49:02,58.48942259995987
0.24181437,0.11492168,10.163386,0.004363323,0.0021816615,0.0021816615,15.483178,1.4413095,-0.60812724,9.682152,-1.1659763,0.5650316,0.19393034,0.018926214,-0.012997797,0.7530362,2016-12-15 10:49:03,57.36799820336876
0.35194764,0.04309563,9.976639,-0.008726646,0.0054541538,0.0021816615,14.949276,1.4317327,-0.60812724,9.6845455,-1.1228806,0.7326257,0.038307227,0.018551355,-0.012533365,0.75325006,2016-12-15 10:49:04,62.21316528525797
0.2896984,0.047884032,9.765948,-0.0076358155,-0.0032724924,-0.0010908308,14.949276,1.42455,-0.61530983,9.6845455,-1.0726024,0.7493851,0.30645782,0.017981222,-0.012617368,0.7531973,2016-12-15 10:49:05,57.287374456196844
0.36631286,0.076614454,9.880871,-0.0021816615,0.0010908308,0.0032724924,15.483178,1.4293385,-0.61770403,9.6845455,-1.1013328,0.6368576,0.15801731,0.01810908,-0.012707004,0.7534764,2016-12-15 10:49:06,54.563258808620176
0.47165772,-0.023942016,9.900024,-0.0076358155,-0.0054541538,0.0010908308,14.415372,1.412579,-0.62009823,9.6845455,-0.94092125,0.59615624,0.21547815,0.017476339,-0.012213903,0.7537283,2016-12-15 10:49:07,60.67209694347667
0.260968,-0.009576807,9.866506,-0.008726646,0.004363323,-0.0021816615,14.415372,1.4413095,-0.61770403,9.682152,-1.0893618,0.59855044,0.12689269,0.018522654,-0.013014164,0.7536355,2016-12-15 10:49:08,66.77704631192258
0.4141969,0.02873042,10.0341,-0.0010908308,-0.0054541538,-0.004363323,14.415372,1.436521,-0.62009823,9.682152,-1.0749966,0.6392518,0.32321724,0.018145468,-0.012981366,0.7533596,2016-12-15 10:49:09,68.13611080951885
0.32321724,0.047884032,9.6845455,0.0010908308,-0.006544985,-0.01308997,14.415372,1.4389153,-0.62249243,9.682152,-0.9959879,0.7565677,0.19871874,0.01796545,-0.013000889,0.752831,2016-12-15 10:49:10,68.23070024177659
0.36152446,0.01436521,9.957485,-0.008726646,-0.004363323,-0.004363323,13.88147,1.42455,-0.62967503,9.6845455,-1.0486604,0.7254431,0.37349546,0.017291706,-0.012743792,0.7527517,2016-12-15 10:49:11,67.52289296278487
0.59615624,0.07182605,10.067618,0.0032724924,-0.0010908308,-0.006544985,12.813664,1.4293385,-0.62488663,9.682152,-1.1300632,0.78290397,0.08379706,0.017758664,-0.012613853,0.75328785,2016-12-15 10:49:12,67.42953468910466
0.44771573,0.038307227,9.995792,0.0054541538,-0.006544985,-0.0076358155,13.88147,1.4389153,-0.641646,9.679757,-0.9672575,0.6799533,0.24420857,0.017656874,-0.0133722015,0.7535466,2016-12-15 10:49:13,67.91646863272676
0.260968,0.06703765,9.919178,-0.008726646,0.0010908308,-0.0032724924,14.415372,1.4460979,-0.6344634,9.679757,-1.0510546,0.7541735,0.23463176,0.018128363,-0.013337819,0.75321305,2016-12-15 10:49:14,66.7073107781408
0.33279404,-0.062249243,9.76116,-0.0054541538,0.011999139,0.016362462,13.88147,1.4437037,-0.6368576,9.679757,-1.2449849,0.8475474,0.30645782,0.017851062,-0.01314654,0.75327504,2016-12-15 10:49:15,64.80836154593197
0.50038815,0.01436521,9.847352,-0.0021816615,-0.0032724924,-0.0021816615,14.415372,1.448492,-0.641646,9.679757,-1.0486604,0.6847417,0.20111294,0.017921643,-0.01338633,0.7535403,2016-12-15 10:49:16,66.89199975719922
0.34715924,0.05746084,9.856929,0.0032724924,-0.004363323,-0.0076358155,13.347568,1.42455,-0.6344634,9.682152,-0.9768343,0.6631939,0.25617957,0.017369956,-0.012263451,0.7537587,2016-12-15 10:49:17,63.762739081372395
0.36631286,0.02873042,10.058042,-0.0021816615,-0.006544985,0.01308997,12.813664,1.4341269,-0.62967503,9.682152,-0.9911995,0.7445967,0.1604115,0.01784571,-0.012471657,0.752978,2016-12-15 10:49:18,61.14060862653838
0.34237084,0.17238252,9.737218,-0.0076358155,-0.0141808,-0.015271631,13.347568,1.4269443,-0.63206923,9.682152,-1.0510546,0.7422025,0.30885202,0.017604792,-0.012369696,0.75315297,2016-12-15 10:49:19,65.67059154375374
0.4285621,0.033518825,9.799467,0.004363323,-0.0021816615,0.0054541538,14.415372,1.4341269,-0.63206923,9.682152,-0.9672575,0.6751649,0.23702596,0.01788987,-0.0125709735,0.7527594,2016-12-15 10:49:20,63.43843887517738
0.5674258,0.08619126,10.072407,-0.006544985,-0.0010908308,-0.0010908308,13.88147,1.4269443,-0.6440403,9.682152,-0.91219085,0.581791,0.28491,0.017433634,-0.012751959,0.75290567,2016-12-15 10:49:21,62.10318728042691
0.38067806,0.062249243,9.890448,0.004363323,0.004363323,0.004363323,14.415372,1.436521,-0.6536171,9.679757,-1.055843,0.7158663,0.21068975,0.017680727,-0.01338603,0.7534046,2016-12-15 10:49:22,62.04959529630998
0.34237084,0.047884032,9.919178,0.0076358155,-0.0076358155,-0.0032724924,13.347568,1.42455,-0.641646,9.682152,-1.0103531,0.6799533,0.2657564,0.017655963,-0.012447044,0.75350094,2016-12-15 10:49:23,61.73490228271297
0.44771573,0.07182605,9.91439,0.0010908308,-0.0032724924,-0.0021816615,13.347568,1.4389153,-0.6368576,9.679757,-0.93852705,0.6607997,0.25378537,0.018284168,-0.01286722,0.7524949,2016-12-15 10:49:24,65.2015432143335
0.45250413,0.06703765,9.689334,-0.006544985,-0.0076358155,-0.0032724924,8.542443,1.448492,-0.62488663,9.679757,-1.1923125,0.6488287,0.15801731,0.019128367,-0.012658583,0.75257117,2016-12-15 10:49:25,61.68966489756072
0.47644615,0.023942016,10.053253,0.011999139,0.0076358155,0.004363323,12.279761,1.4580688,-0.62967503,9.677363,-1.0342951,0.6775591,0.10295067,0.01925506,-0.013098963,0.7525273,2016-12-15 10:49:26,59.69091630763364
0.50038815,0.033518825,10.010158,-0.0076358155,0.0,0.0021816615,12.813664,1.4437037,-0.62967503,9.679757,-1.0103531,0.7206547,0.20111294,0.018730616,-0.012645921,0.7528628,2016-12-15 10:49:27,59.94718505297381
0.3854665,0.06703765,10.000581,0.0021816615,-0.0021816615,-0.0032724924,14.415372,1.4460979,-0.6392518,9.679757,-1.103727,0.7445967,0.35434186,0.018633367,-0.013017189,0.7529904,2016-12-15 10:49:28,59.69366838848394
0.2801216,0.095768064,9.809045,0.0076358155,-0.004363323,-0.004363323,14.415372,1.4556746,-0.62249243,9.679757,-1.0654198,0.6703765,0.076614454,0.019361056,-0.012696171,0.75275636,2016-12-15 10:49:29,56.67611987040711
0.44771573,0.05267244,9.770737,-0.006544985,0.004363323,-0.0054541538,13.88147,1.4389153,-0.63206923,9.682152,-0.9528923,0.78050977,0.39025488,0.01848223,-0.012527892,0.7529908,2016-12-15 10:49:31,60.10492683735628
0.3184288,0.090979666,9.938332,-0.009817477,-0.006544985,0.0021816615,14.415372,1.4389153,-0.6560113,9.679757,-1.1923125,0.7134721,0.11971009,0.01766349,-0.01336549,0.75322413,2016-12-15 10:49:32,59.717041596222046
0.40462008,0.033518825,9.97185,0.004363323,0.0021816615,0.0021816615,14.415372,1.436521,-0.6488287,9.679757,-1.0510546,0.6871359,0.23463176,0.017926797,-0.012908252,0.7530586,2016-12-15 10:49:33,62.7696382918284
0.28491,0.095768064,9.861717,0.0,-0.008726646,0.0032724924,14.415372,1.4508862,-0.6392518,9.679757,-1.0175357,0.7254431,-0.009576807,0.018788407,-0.013052424,0.7528565,2016-12-15 10:49:34,62.68811472178427
0.5482722,0.05746084,9.94312,0.009817477,-0.009817477,-0.0032724924,14.415372,1.4532804,-0.6392518,9.679757,-0.94810385,0.6392518,0.21547815,0.018898953,-0.013019655,0.7533624,2016-12-15 10:49:35,70.15994542509408
0.4333505,-0.0047884034,9.919178,-0.0054541538,-0.004363323,0.0021816615,14.415372,1.4676456,-0.641646,9.677363,-1.0965444,0.7565677,0.15562311,0.019240644,-0.013531394,0.7528148,2016-12-15 10:49:36,75.2841584494862
0.45729253,0.0047884034,9.85214,-0.0021816615,-0.023998277,0.004363323,14.949276,1.4700398,-0.6512229,9.674969,-1.0175357,0.80445176,0.50757074,0.01892374,-0.013886604,0.7529203,2016-12-15 10:49:37,66.03654704585887
0.48123455,0.062249243,10.038888,-0.0032724924,0.0076358155,0.0,13.88147,1.4628572,-0.6440403,9.677363,-1.0582372,0.6967127,0.19393034,0.018831186,-0.013191503,0.7533304,2016-12-15 10:49:38,66.51121887881064
0.17956513,0.009576807,9.866506,0.0141808,0.0010908308,0.016362462,14.949276,1.4652514,-0.641646,9.677363,-1.2090719,0.7374141,0.2801216,0.018967533,-0.012957906,0.75317377,2016-12-15 10:49:39,64.43498063232057
0.34715924,0.062249243,9.928755,-0.004363323,-0.0076358155,0.004363323,15.483178,1.460463,-0.6464345,9.677363,-1.127669,0.7230489,0.21787235,0.018462665,-0.012919191,0.7532623,2016-12-15 10:49:40,64.44920044388803
0.24181437,0.1388637,9.962274,-0.0054541538,-0.0076358155,-0.016362462,14.415372,1.4556746,-0.6631939,9.677363,-1.1803415,0.7110779,0.093373865,0.017592805,-0.013270451,0.75299793,2016-12-15 10:49:41,62.11206997167724
0.21787235,0.033518825,9.904813,-0.0032724924,0.011999139,-0.0054541538,14.415372,1.4532804,-0.6631939,9.677363,-1.2401965,0.6584055,0.2753332,0.017472437,-0.013093671,0.75273013,2016-12-15 10:49:42,62.977443614983926
0.29448682,-0.019153614,9.765948,-0.0010908308,0.0010908308,0.004363323,14.415372,1.4628572,-0.6607997,9.674969,-1.0773908,0.58897364,0.21547815,0.018037133,-0.013196174,0.75326985,2016-12-15 10:49:43,66.22942690823487
0.50517654,0.019153614,9.818622,-0.004363323,-0.0076358155,0.01308997,14.415372,1.4628572,-0.6584055,9.674969,-1.067814,0.6919243,0.22984336,0.018055875,-0.012963386,0.7537127,2016-12-15 10:49:44,71.42268188517897
0.36631286,0.05267244,9.94312,0.011999139,0.004363323,-0.004363323,14.415372,1.4652514,-0.6607997,9.674969,-1.1851299,0.6368576,0.29209262,0.018037464,-0.013026804,0.75325006,2016-12-15 10:49:45,76.97096519961961
0.4237737,-0.023942016,10.010158,-0.0010908308,0.0010908308,-0.0010908308,14.415372,1.4652514,-0.6727707,9.674969,-1.0319009,0.7158663,0.22984336,0.017653836,-0.013361059,0.75370955,2016-12-15 10:49:46,71.25627195234671
0.38067806,0.019153614,9.775525,-0.0021816615,0.004363323,-0.0054541538,14.415372,1.4556746,-0.6727707,9.674969,-1.0845734,0.78290397,0.1388637,0.017355796,-0.01295412,0.7537515,2016-12-15 10:49:47,66.37555290584542
0.33279404,0.0047884034,9.962274,0.008726646,0.0021816615,-0.0010908308,13.347568,1.4437037,-0.6655881,9.677363,-1.0247183,0.7326257,0.25139117,0.017170029,-0.012327954,0.75385875,2016-12-15 10:49:48,66.3251743170064
0.4189853,0.10055647,9.832987,0.0032724924,-0.0032724924,0.0010908308,12.813664,1.4532804,-0.6775591,9.674969,-1.067814,0.6440403,0.1436521,0.017155264,-0.012940286,0.7538586,2016-12-15 10:49:49,71.43419960565065
0.39983168,0.009576807,9.799467,-0.0032724924,-0.011999139,-0.0010908308,14.415372,1.4532804,-0.6751649,9.674969,-1.0773908,0.79008657,0.14844051,0.017201507,-0.012798529,0.7538048,2016-12-15 10:49:50,68.61333863098108
0.2801216,0.038307227,9.828198,-0.0021816615,0.008726646,0.009817477,13.347568,1.4556746,-0.6751649,9.674969,-1.1851299,0.7757214,0.11492168,0.017376935,-0.012726162,0.7539211,2016-12-15 10:49:51,63.383446328069354
0.4429273,0.038307227,9.866506,-0.0032724924,-0.009817477,-0.0076358155,12.813664,1.4556746,-0.6727707,9.674969,-0.9983821,0.6392518,0.1340753,0.017413521,-0.012591671,0.7540657,2016-12-15 10:49:52,61.6306785158942
0.29927522,0.15801731,9.765948,0.0010908308,0.02727077,0.0,14.415372,1.4628572,-0.6751649,9.674969,-1.091756,0.78050977,0.40222588,0.01756357,-0.012912268,0.75416595,2016-12-15 10:49:53,71.11921229419907
0.36152446,0.12449849,9.842564,-0.006544985,-0.004363323,-0.0010908308,13.88147,1.472434,-0.6967127,9.672575,-1.2018893,0.7637503,0.20829555,0.01722567,-0.013878066,0.753795,2016-12-15 10:49:54,59.69140106629197
0.36152446,0.1436521,10.120291,0.011999139,0.0054541538,0.0021816615,14.415372,1.4700398,-0.6943185,9.672575,-1.271321,0.7374141,0.15562311,0.017282005,-0.013552388,0.75398886,2016-12-15 10:49:55,60.109316831681284
0.4381389,0.062249243,9.890448,-0.008726646,-0.023998277,-0.016362462,14.415372,1.4820108,-0.6847417,9.67018,-1.1300632,0.82360536,0.20590134,0.017975898,-0.01338114,0.7539939,2016-12-15 10:49:56,62.06047353189413
0.40462008,0.01436521,9.923966,0.0,-0.0021816615,0.0076358155,13.88147,1.4748282,-0.6751649,9.672575,-1.0749966,0.6847417,0.19393034,0.01793322,-0.012688041,0.75369734,2016-12-15 10:49:57,66.5232990669132
0.21308395,0.08619126,9.967062,0.006544985,0.0141808,0.0109083075,14.415372,1.484405,-0.6799533,9.67018,-1.2282255,0.78050977,0.10534488,0.018282851,-0.013083382,0.7540579,2016-12-15 10:49:58,68.68406767479217
0.4237737,0.1388637,9.813833,-0.0021816615,-0.004363323,0.0054541538,12.813664,1.484405,-0.6871359,9.67018,-1.0366893,0.7685388,0.29688102,0.017823296,-0.013340404,0.7534575,2016-12-15 10:49:59,70.06513594490451
0.4333505,0.05267244,9.933543,-0.004363323,-0.0021816615,-0.0141808,13.88147,1.4748282,-0.6991069,9.67018,-1.1468226,0.8331822,0.10534488,0.017054994,-0.013411729,0.7531499,2016-12-15 10:50:00,68.0838107345831
0.4381389,0.08140286,9.923966,0.0054541538,-0.008726646,-0.0109083075,14.415372,1.484405,-0.6919243,9.67018,-1.0845734,0.80205756,0.16759412,0.017716872,-0.013333723,0.753271,2016-12-15 10:50:01,60.84068453647744
0.39504328,0.0,9.885659,0.009817477,0.016362462,0.0032724924,13.88147,1.484405,-0.6871359,9.67018,-1.1659763,0.6967127,0.15801731,0.017997215,-0.01288251,0.7541183,2016-12-15 10:50:02,61.90299202358483
0.533907,0.047884032,9.981427,0.0076358155,-0.004363323,-0.0010908308,12.813664,1.4748282,-0.6943185,9.672575,-0.9648633,0.7182605,0.36152446,0.017411252,-0.012740072,0.7542795,2016-12-15 10:50:03,63.30184486142951
0.12689269,0.090979666,9.947908,-0.018544123,-0.004363323,0.0021816615,14.415372,1.4508862,-0.7134721,9.672575,-1.3239936,0.6799533,0.24660277,0.01609859,-0.012572754,0.7545755,2016-12-15 10:50:04,64.75304316247622
0.35194764,0.11971009,10.000581,-0.0054541538,-0.0109083075,-0.017453292,14.415372,1.5155296,-0.7086837,9.662998,-1.115698,0.8762778,0.30406362,0.018425316,-0.014441041,0.7538985,2016-12-15 10:50:05,64.56395518312797
0.22744916,0.023942016,9.909601,-0.004363323,0.0141808,-0.004363323,14.415372,1.5035586,-0.6919243,9.667787,-1.2569559,0.830788,0.14604631,0.01846084,-0.013203621,0.75396633,2016-12-15 10:50:06,59.92445828277929
0.28491,0.02873042,9.986216,-0.011999139,-0.006544985,-0.0010908308,14.415372,1.5035586,-0.6847417,9.667787,-1.1563994,0.770933,0.46208093,0.018635076,-0.012813084,0.75405204,2016-12-15 10:50:07,58.46255667511624
0.32800564,0.05267244,9.962274,-0.0076358155,0.008726646,-0.0021816615,14.415372,1.508347,-0.6823475,9.667787,-1.1563994,0.79248077,0.079008654,0.018742714,-0.012848299,0.7536887,2016-12-15 10:50:08,62.18008450031608
0.36631286,0.076614454,9.7803135,-0.006544985,0.009817477,0.0032724924,14.415372,1.4987702,-0.6799533,9.667787,-1.0702082,0.7613561,0.20350714,0.018428333,-0.012356428,0.753973,2016-12-15 10:50:09,60.814526569014966
0.30885202,0.038307227,9.909601,0.0076358155,0.01308997,0.0109083075,14.415372,1.5011644,-0.6751649,9.667787,-1.1540052,0.5746084,0.33758244,0.01836,-0.012297699,0.75344265,2016-12-15 10:50:10,55.91458201128597
0.4237737,0.02873042,9.67018,0.0,0.0021816615,0.0054541538,14.415372,1.5035586,-0.6895301,9.667787,-1.3144168,0.7757214,0.35673606,0.017887257,-0.012838038,0.7533675,2016-12-15 10:50:11,56.24063950890002
0.32800564,0.076614454,9.928755,-0.0032724924,0.02617994,0.0,12.813664,1.4939818,-0.7015011,9.667787,-1.2330139,0.7350199,0.21308395,0.017322743,-0.012955915,0.75398695,2016-12-15 10:50:12,66.97502365090041
0.4429273,0.04309563,9.876082,0.004363323,-0.0076358155,-0.0109083075,14.415372,1.4820108,-0.6895301,9.67018,-1.1827357,0.78529817,0.2873042,0.017174317,-0.012065975,0.75371957,2016-12-15 10:50:13,69.74252580659056
0.39983168,0.02873042,9.785102,0.0010908308,-0.006544985,-0.0032724924,12.813664,1.4987702,-0.6943185,9.667787,-1.0462662,0.79966336,0.46208093,0.017635047,-0.012725776,0.7538635,2016-12-15 10:50:14,69.6784539634692
0.22266077,0.05746084,9.866506,0.004363323,-0.01308997,-0.0054541538,13.347568,1.4891934,-0.7015011,9.667787,-1.2425907,0.7015011,0.35194764,0.017093834,-0.012575049,0.7538613,2016-12-15 10:50:15,63.231641753300885
0.2801216,0.02873042,9.832987,-0.0054541538,0.021816615,-0.0021816615,14.415372,1.4796166,-0.7038953,9.67018,-1.0127473,0.7230489,0.1340753,0.016724296,-0.012197951,0.75416195,2016-12-15 10:50:16,61.38902366420781
0.34237084,0.04309563,9.928755,0.0032724924,0.0076358155,-0.0010908308,13.88147,1.4867992,-0.6943185,9.67018,-1.1540052,0.79487497,0.47405192,0.017371275,-0.012012502,0.7543553,2016-12-15 10:50:17,66.1830709754524
0.4381389,0.2633622,9.909601,0.004363323,-0.0054541538,-0.008726646,12.813664,1.496376,-0.6823475,9.67018,-1.2018893,0.6727707,0.29209262,0.01803482,-0.011969307,0.75403637,2016-12-15 10:50:18,69.11503076370123
0.4189853,0.038307227,9.900024,0.015271631,0.004363323,-0.0076358155,13.347568,1.5107412,-0.6823475,9.667787,-1.2210429,0.78769237,0.14604631,0.01845381,-0.012446867,0.7537507,2016-12-15 10:50:19,67.91956074137315
0.46686932,0.0,10.072407,-0.004363323,0.0021816615,0.006544985,13.88147,1.496376,-0.6991069,9.667787,-1.0151415,0.79008657,0.2753332,0.017275196,-0.012543179,0.75371325,2016-12-15 10:50:21,62.26903717260364
0.30406362,-0.06703765,9.842564,0.004363323,0.009817477,0.0021816615,13.88147,1.4748282,-0.7062895,9.67018,-1.1707647,0.7302315,0.23942018,0.016445266,-0.012036493,0.75410825,2016-12-15 10:50:22,72.73483151880895
0.1604115,0.038307227,9.904813,-0.0032724924,0.019634955,-0.0010908308,13.347568,1.4915876,-0.7015011,9.667787,-1.1731589,0.7493851,0.2753332,0.01717326,-0.012433544,0.7536836,2016-12-15 10:50:23,72.14833303741236
0.25617957,0.04309563,9.799467,0.011999139,-0.0010908308,-0.0021816615,12.813664,1.508347,-0.7038953,9.665392,-1.328782,0.7661445,0.22984336,0.017738607,-0.012992267,0.75373334,2016-12-15 10:50:24,73.80680615820607
0.47644615,0.062249243,9.832987,-0.0021816615,-0.011999139,0.008726646,13.88147,1.5155296,-0.7110779,9.662998,-1.1252748,0.82599956,0.17956513,0.01788021,-0.013350612,0.75370675,2016-12-15 10:50:25,61.69845764582787
0.37588966,-0.009576807,10.024523,0.006544985,0.004363323,-0.0021816615,14.415372,1.5107412,-0.7182605,9.665392,-1.2114661,0.79487497,0.2777274,0.017460886,-0.0133813135,0.75375855,2016-12-15 10:50:26,62.22383054280685
0.39983168,0.04309563,9.861717,-0.0109083075,0.0032724924,-0.011999139,12.813664,1.5035586,-0.7086837,9.665392,-1.1851299,0.8331822,0.39264908,0.017629981,-0.012711383,0.75414693,2016-12-15 10:50:27,62.55643600811816
0.20350714,0.110133275,9.842564,0.0076358155,-0.0021816615,-0.0054541538,12.813664,1.4939818,-0.7134721,9.667787,-1.1085154,0.8571242,0.20829555,0.017161818,-0.012416929,0.7542924,2016-12-15 10:50:28,62.216338168947615
0.5770026,0.076614454,9.976639,0.0021816615,0.0054541538,-0.008726646,14.415372,1.484405,-0.7158663,9.667787,-1.0510546,0.85473,0.4381389,0.01678233,-0.012218088,0.7544481,2016-12-15 10:50:29,67.96256209837406
0.32800564,-0.076614454,9.746795,0.0,0.0109083075,-0.0032724924,12.813664,1.484405,-0.7278373,9.667787,-1.0606314,0.8523358,0.24181437,0.016534593,-0.012549974,0.75416625,2016-12-15 10:50:30,68.20734515625608
0.47165772,0.090979666,9.938332,-0.0021816615,0.0076358155,-0.0021816615,12.813664,1.5011644,-0.7302315,9.665392,-0.92895025,0.7541735,0.37349546,0.017163862,-0.013184421,0.7542635,2016-12-15 10:50:31,65.77489738405606
0.4189853,0.2633622,9.847352,0.006544985,-0.009817477,-0.0032724924,13.347568,1.4915876,-0.7398083,9.665392,-0.9528923,0.8643068,0.11971009,0.016518962,-0.013026036,0.75435555,2016-12-15 10:50:32,64.4442094894668
0.60094464,0.12928689,9.866506,-0.0010908308,0.032724924,-0.008726646,13.347568,1.5035586,-0.7350199,9.662998,-1.1659763,0.6727707,0.39504328,0.017169416,-0.013293512,0.7536269,2016-12-15 10:50:33,66.02719456662487
0.533907,-0.07182605,9.765948,-0.019634955,0.029452432,-0.0010908308,13.347568,1.5131354,-0.7302315,9.662998,-0.89782566,0.16519992,2.243367,0.017485015,-0.013271974,0.75363487,2016-12-15 10:50:34,56.889557792092035
0.5530606,0.12928689,9.904813,-0.0021816615,-0.0109083075,0.009817477,13.347568,1.5059528,-0.7422025,9.662998,-1.13964,0.82360536,0.18914193,0.016838605,-0.013298441,0.75385666,2016-12-15 10:50:35,57.106672396059935
0.2801216,0.02873042,9.900024,0.0032724924,0.0,-0.009817477,12.813664,1.5059528,-0.7469909,9.662998,-1.1540052,0.8331822,0.32321724,0.016785944,-0.01331491,0.75367,2016-12-15 10:50:36,64.15867037916978
0.50038815,-0.04309563,9.866506,0.0010908308,0.0010908308,0.0010908308,12.813664,1.5011644,-0.7254431,9.665392,-1.067814,0.8403648,0.18195933,0.017468743,-0.012269294,0.75378907,2016-12-15 10:50:37,63.080833822021106
0.29448682,0.11492168,9.900024,-0.0032724924,-0.0021816615,0.0054541538,14.415372,1.5131354,-0.7469909,9.660604,-1.1563994,0.770933,0.110133275,0.017158408,-0.013477754,0.7535822,2016-12-15 10:50:38,52.332253719584855
0.45250413,0.07182605,10.081984,0.0021816615,0.009817477,-0.006544985,13.88147,1.5155296,-0.7445967,9.660604,-1.2162545,0.81642276,0.36870706,0.017386524,-0.013393203,0.7536084,2016-12-15 10:50:39,52.75045112782715
0.39504328,0.18195933,9.828198,-0.0076358155,-0.0032724924,0.006544985,12.813664,1.5227122,-0.7374141,9.660604,-1.2378023,0.81402856,0.16280572,0.017962389,-0.013274573,0.7538905,2016-12-15 10:50:40,54.34228979514927
0.23223756,0.06703765,10.058042,0.006544985,0.0,0.0109083075,14.415372,1.5251064,-0.7350199,9.660604,-1.3263878,0.94092125,0.31124622,0.018002404,-0.013110146,0.7536433,2016-12-15 10:50:41,52.67562238081143
0.29448682,0.04309563,9.962274,-0.004363323,0.0054541538,0.0054541538,13.88147,1.5131354,-0.7350199,9.662998,-1.1755531,0.8738836,0.28491,0.017716737,-0.01262649,0.7539804,2016-12-15 10:50:42,55.662371611830544
0.3854665,0.038307227,9.991004,0.0,0.006544985,-0.0021816615,13.88147,1.5131354,-0.7398083,9.662998,-1.1085154,0.80684596,0.39983168,0.017406546,-0.012693265,0.753799,2016-12-15 10:50:43,55.13650893586359
0.3854665,0.047884032,9.933543,-0.0054541538,-0.0032724924,-0.006544985,14.415372,1.5298948,-0.7350199,9.660604,-1.1109096,0.89303726,0.1436521,0.018249553,-0.013003785,0.75361294,2016-12-15 10:50:44,58.91268869215079
0.18435353,0.1388637,9.923966,0.0,0.0054541538,-0.0010908308,12.813664,1.5155296,-0.7326257,9.662998,-1.0295067,0.7565677,0.260968,0.017744275,-0.01238961,0.7538547,2016-12-15 10:50:45,58.588517760539446
0.22744916,0.009576807,9.861717,0.0032724924,-0.0021816615,-0.008726646,14.415372,1.496376,-0.7445967,9.665392,-1.3790601,0.81642276,0.33039984,0.01674399,-0.012083849,0.7544229,2016-12-15 10:50:46,52.647707509912955
0.33758244,0.07182605,9.813833,0.0,-0.004363323,0.006544985,13.88147,1.5179238,-0.7517793,9.660604,-1.2952632,0.8810662,0.11492168,0.017367974,-0.012983618,0.754383,2016-12-15 10:50:47,58.78989525824656
0.40940848,0.12449849,9.947908,-0.0032724924,-0.0032724924,-0.0054541538,13.347568,1.5107412,-0.7374141,9.662998,-1.2066777,0.81402856,0.31364042,0.017535632,-0.01212235,0.7543549,2016-12-15 10:50:48,65.30912413730898
0.40940848,0.110133275,9.938332,0.0109083075,-0.011999139,-0.0054541538,14.415372,1.4915876,-0.7493851,9.665392,-1.1923125,0.8499416,0.33997664,0.016565315,-0.011896346,0.75486815,2016-12-15 10:50:49,57.456435919771366
0.40462008,-0.019153614,9.785102,-0.006544985,-0.009817477,0.0076358155,13.88147,1.5227122,-0.7565677,9.660604,-1.0749966,0.82360536,0.29209262,0.017476665,-0.013204286,0.7544428,2016-12-15 10:50:50,55.30401449339831
0.35673606,0.10534488,9.957485,-0.009817477,0.0076358155,0.011999139,14.415372,1.496376,-0.7517793,9.662998,-1.0582372,0.82360536,0.107739076,0.016781805,-0.012041133,0.75519544,2016-12-15 10:50:51,56.320451702246274
0.4189853,0.04309563,9.991004,-0.011999139,-0.0109083075,0.0021816615,14.415372,1.5275006,-0.7493851,9.65821,-1.30484,0.7733272,0.29448682,0.017986055,-0.012916893,0.7547733,2016-12-15 10:50:52,56.601079760670785
0.3184288,0.08619126,9.785102,-0.0021816615,-0.004363323,-0.0076358155,14.415372,1.532289,-0.7613561,9.65821,-1.2856863,0.8762778,0.20350714,0.017784879,-0.013276743,0.7550608,2016-12-15 10:50:53,54.11675761893535
0.45729253,0.02873042,10.038888,0.0021816615,-0.004363323,0.0,14.415372,1.5251064,-0.7589619,9.65821,-1.1252748,0.830788,0.4189853,0.017444566,-0.012920242,0.7543378,2016-12-15 10:50:54,57.56825616754111
0.34237084,-0.01436521,9.8042555,0.0010908308,0.0021816615,0.015271631,14.415372,1.5346833,-0.7637503,9.655815,-1.0582372,0.7637503,0.21547815,0.017844263,-0.013233608,0.7549828,2016-12-15 10:50:55,55.58073456810476
0.34715924,0.10055647,9.952697,-0.0021816615,0.0010908308,0.0010908308,14.415372,1.5275006,-0.7613561,9.65821,-1.1851299,0.92895025,0.18914193,0.017486477,-0.012915889,0.7543289,2016-12-15 10:50:56,59.77685502133906
0.6488287,0.06703765,9.866506,-0.0076358155,-0.018544123,0.0032724924,13.88147,1.5179238,-0.7493851,9.660604,-1.328782,0.7398083,0.20590134,0.017717065,-0.011965418,0.7553365,2016-12-15 10:50:57,57.15755142852581
0.30406362,-0.11492168,10.105926,0.004363323,0.019634955,-0.004363323,14.415372,1.5490485,-0.7469909,9.655815,-1.2114661,0.7182605,0.30645782,0.018878821,-0.012819564,0.75515324,2016-12-15 10:50:58,57.37856858361687
0.4429273,0.05746084,9.842564,-0.006544985,0.0010908308,-0.0010908308,14.415372,1.5275006,-0.7613561,9.65821,-1.4053963,0.9528923,-0.31364042,0.017299408,-0.012561122,0.7544637,2016-12-15 10:50:59,57.565639333538115
0.4333505,0.095768064,9.890448,0.004363323,-0.011999139,0.008726646,13.88147,1.5179238,-0.7661445,9.65821,-1.0989386,0.842759,0.3184288,0.016677901,-0.01245195,0.75395393,2016-12-15 10:51:00,56.75434217113509
0.7781156,-0.019153614,9.962274,-0.0054541538,-0.006544985,-0.0109083075,13.88147,1.5394717,-0.7637503,9.655815,-0.8523358,0.8595184,0.5650316,0.017661208,-0.012981283,0.75384367,2016-12-15 10:51:01,57.42872424333268
0.4189853,0.06703765,9.904813,0.0032724924,0.015271631,-0.0032724924,12.813664,1.520318,-0.770933,9.65821,-1.1109096,0.78050977,0.17477672,0.016630521,-0.012367833,0.7542489,2016-12-15 10:51:02,58.0668234524574
0.32800564,0.047884032,9.7084875,-0.004363323,0.0021816615,0.0021816615,12.813664,1.5227122,-0.7637503,9.65821,-1.0414777,0.93134445,0.18435353,0.01694011,-0.012072587,0.754371,2016-12-15 10:51:03,62.7985872994174
0.33758244,0.076614454,9.842564,0.0021816615,0.008726646,0.016362462,12.813664,1.5179238,-0.7589619,9.660604,-1.1324574,0.8738836,0.2825158,0.016862031,-0.011684878,0.75437313,2016-12-15 10:51:04,63.513455232934774
0.35673606,-0.019153614,9.794679,-0.01308997,0.0021816615,0.008726646,12.813664,1.520318,-0.78050977,9.65821,-1.1923125,0.8331822,0.37110126,0.01635692,-0.012489298,0.7545093,2016-12-15 10:51:05,58.36111335065711
0.1412579,0.36870706,10.240001,-0.017453292,-0.0010908308,0.0109083075,12.813664,1.520318,-0.7757214,9.65821,-1.1540052,0.8379706,-0.06943185,0.016608289,-0.012120558,0.7548277,2016-12-15 10:51:06,64.55018979091628
0.23702596,-0.033518825,9.91439,-0.0010908308,-0.009817477,-0.0021816615,12.813664,1.520318,-0.770933,9.65821,-1.2306197,0.7661445,0.21308395,0.016454564,-0.012057865,0.75448984,2016-12-15 10:51:07,63.307639795883865
0.39025488,-0.01436521,9.904813,0.0032724924,-0.0076358155,-0.004363323,12.813664,1.5251064,-0.770933,9.65821,-1.115698,0.842759,0.16519992,0.01658102,-0.012341188,0.7539566,2016-12-15 10:51:08,64.1643305202273
0.38067806,-0.0047884034,9.842564,0.0010908308,-0.0010908308,-0.006544985,12.813664,1.5466543,-0.770933,9.653421,-1.2521675,0.91458505,0.18435353,0.017584266,-0.013097981,0.753773,2016-12-15 10:51:09,64.94775784202571
0.093373865,0.01436521,9.938332,0.0,0.008726646,-0.008726646,12.813664,1.520318,-0.7757214,9.65821,-1.4077905,0.842759,0.22266077,0.016311657,-0.012402911,0.7537353,2016-12-15 10:51:10,67.32383081400717
0.40462008,0.0,9.85214,0.015271631,0.0,0.011999139,14.415372,1.5251064,-0.770933,9.65821,-1.1587936,0.7757214,0.33279404,0.016793711,-0.0123279635,0.7535606,2016-12-15 10:51:12,60.614953279748114
0.4141969,0.05746084,9.737218,-0.0109083075,-0.0010908308,-0.0141808,14.415372,1.508347,-0.78050977,9.660604,-1.151611,0.8283938,0.20590134,0.0160447,-0.012268653,0.75389504,2016-12-15 10:51:13,61.25884530568954
0.5386954,0.19632454,10.010158,0.01308997,-0.015271631,0.015271631,13.88147,1.5394717,-0.7757214,9.655815,-1.0151415,0.9576807,0.4405331,0.017348105,-0.013107149,0.7533005,2016-12-15 10:51:14,60.90941511582579
0.32800564,-0.01436521,9.876082,0.0,-0.0032724924,-0.0021816615,13.88147,1.532289,-0.7637503,9.65821,-1.1659763,0.7637503,0.2801216,0.017689176,-0.012361379,0.75344706,2016-12-15 10:51:15,53.94787190891747
0.39504328,0.06703765,9.718064,0.0,-0.0021816615,-0.0076358155,13.88147,1.5251064,-0.7637503,9.65821,-1.13964,0.89303726,0.23702596,0.017541789,-0.01219698,0.75383526,2016-12-15 10:51:16,58.63973947407432
0.31364042,0.12449849,9.890448,-0.0010908308,0.0076358155,0.009817477,13.88147,1.5346833,-0.7565677,9.65821,-1.1779473,0.78529817,0.107739076,0.018004358,-0.012307981,0.75350344,2016-12-15 10:51:17,64.09254414764955
0.4189853,0.023942016,9.828198,0.0010908308,0.004363323,0.0,13.88147,1.5346833,-0.7637503,9.655815,-1.2306197,0.830788,0.21068975,0.017733779,-0.012533331,0.7534024,2016-12-15 10:51:18,58.702227108635356
0.4141969,0.095768064,9.938332,0.0109083075,0.004363323,-0.0021816615,13.88147,1.5370775,-0.7637503,9.655815,-1.2138603,0.78769237,0.33997664,0.017920936,-0.012650708,0.75367415,2016-12-15 10:51:19,55.10663807092237
0.28491,0.05746084,9.832987,-0.008726646,-0.017453292,-0.0021816615,14.949276,1.5442601,-0.770933,9.653421,-1.2162545,0.8283938,0.30406362,0.017789938,-0.0131400265,0.75333166,2016-12-15 10:51:20,57.58291151254496
0.33758244,0.11492168,9.799467,0.01308997,0.008726646,-0.0076358155,13.88147,1.5466543,-0.7565677,9.655815,-1.1994951,0.81881696,0.30645782,0.018465849,-0.012586579,0.7533637,2016-12-15 10:51:21,57.57348292688494
0.44771573,-0.038307227,9.832987,-0.006544985,-0.011999139,0.004363323,13.88147,1.532289,-0.7517793,9.65821,-1.1563994,0.770933,0.2657564,0.017997887,-0.011886865,0.75339997,2016-12-15 10:51:22,61.39871179829068
0.30885202,0.062249243,9.890448,0.008726646,0.0032724924,0.011999139,13.88147,1.5370775,-0.7517793,9.65821,-1.1994951,0.8523358,0.24181437,0.018131651,-0.012082364,0.75363386,2016-12-15 10:51:23,63.02274217794458
0.51954174,0.06703765,9.775525,0.0010908308,0.008726646,-0.008726646,13.88147,1.5227122,-0.7757214,9.65821,-1.1707647,0.91458505,0.18435353,0.016718898,-0.012482967,0.7537625,2016-12-15 10:51:24,54.699462643922914
0.32800564,-0.038307227,9.737218,-0.011999139,-0.0109083075,-0.0021816615,13.88147,1.5610195,-0.7757214,9.651027,-1.0702082,0.8619126,0.18674773,0.01812476,-0.013689803,0.75318223,2016-12-15 10:51:25,54.85059621321924
0.25617957,0.110133275,9.91439,-0.0010908308,-0.0021816615,-0.0010908308,13.88147,1.553837,-0.7685388,9.653421,-1.3120226,0.7637503,0.28491,0.018025918,-0.012921216,0.7532969,2016-12-15 10:51:26,53.346973231703714
0.31364042,0.076614454,9.981427,0.0054541538,0.0032724924,0.011999139,13.88147,1.5634137,-0.7613561,9.653421,-1.3120226,0.63206923,0.24181437,0.018599615,-0.012983024,0.75345004,2016-12-15 10:51:27,52.5127382897518
0.37110126,0.08619126,9.962274,0.0,0.011999139,-0.0010908308,14.949276,1.5610195,-0.7661445,9.653421,-1.1851299,0.79008657,0.23223756,0.018227477,-0.012928627,0.7534767,2016-12-15 10:51:28,54.9710156837631
0.23223756,0.05746084,9.85214,-0.0010908308,-0.0021816615,0.0010908308,14.949276,1.5442601,-0.7757214,9.653421,-1.2018893,0.8475474,0.2896984,0.017224105,-0.0126875285,0.7538891,2016-12-15 10:51:29,55.855530284279496
0.32800564,0.10055647,9.837775,0.0021816615,-0.0021816615,-0.0141808,13.88147,1.5490485,-0.7517793,9.655815,-1.1540052,0.842759,0.19153613,0.018227812,-0.011952508,0.75349736,2016-12-15 10:51:30,55.13901050841674
0.38067806,0.062249243,9.919178,-0.004363323,-0.0021816615,0.011999139,13.88147,1.5610195,-0.7613561,9.653421,-1.1611878,0.8762778,0.22744916,0.018263299,-0.012756746,0.7533492,2016-12-15 10:51:31,52.51843443003207
0.34715924,0.0,9.938332,-0.006544985,0.0,-0.006544985,14.949276,1.5562311,-0.7613561,9.653421,-1.2425907,0.8571242,0.32321724,0.017953169,-0.012548974,0.75335795,2016-12-15 10:51:32,54.87492885416777
0.35673606,0.033518825,9.938332,-0.004363323,0.0021816615,-0.01308997,13.88147,1.5490485,-0.7589619,9.655815,-1.3072342,0.80205756,0.2777274,0.01759381,-0.01213271,0.75305593,2016-12-15 10:51:33,56.36630787886606
0.2705448,0.12449849,9.94312,0.0076358155,0.0010908308,0.008726646,13.88147,1.5490485,-0.7541735,9.655815,-1.2641385,0.82599956,0.11971009,0.01774807,-0.011960562,0.7531592,2016-12-15 10:51:34,51.42692816770631
0.23223756,0.15322891,10.043676,-0.0010908308,-0.0010908308,-0.008726646,13.88147,1.5466543,-0.7517793,9.655815,-1.2425907,0.63206923,0.2873042,0.017558461,-0.0117145665,0.7533734,2016-12-15 10:51:35,51.65370813040907
0.4141969,0.0,10.005369,-0.0010908308,-0.008726646,-0.0032724924,13.88147,1.5394717,-0.7613561,9.655815,-1.2497733,0.8283938,0.2825158,0.017006407,-0.011808461,0.7533602,2016-12-15 10:51:36,53.36784432689015
0.4189853,-0.033518825,9.837775,-0.004363323,-0.0032724924,0.0032724924,13.88147,1.5466543,-0.7517793,9.655815,-1.1324574,0.8283938,0.22505496,0.017575756,-0.011684209,0.753253,2016-12-15 10:51:37,52.64972170007701
0.25617957,-0.009576807,9.91439,-0.0010908308,0.009817477,-0.0021816615,13.88147,1.541866,-0.7517793,9.655815,-1.2569559,0.81881696,0.2825158,0.017320707,-0.011512579,0.75364697,2016-12-15 10:51:38,54.15174436651084
0.38067806,0.1388637,9.847352,0.008726646,0.0010908308,0.008726646,14.949276,1.5275006,-0.7637503,9.65821,-1.1611878,0.78290397,0.25139117,0.016458238,-0.011486582,0.75403893,2016-12-15 10:51:39,57.560604566599395
0.40940848,0.062249243,10.086772,-0.0076358155,0.008726646,-0.0054541538,13.88147,1.5394717,-0.770933,9.655815,-1.1252748,0.79487497,0.35434186,0.016683893,-0.012122724,0.7539363,2016-12-15 10:51:40,64.18704925299217
0.4237737,0.0047884034,9.995792,-0.0010908308,0.01308997,0.0109083075,13.88147,1.541866,-0.7637503,9.655815,-1.1994951,0.80684596,0.21547815,0.017160084,-0.0119289905,0.75427043,2016-12-15 10:51:41,69.63145762599044
0.40940848,0.05746084,9.837775,0.0,-0.0010908308,0.0032724924,13.88147,1.541866,-0.7637503,9.655815,-1.1324574,0.81163436,0.2825158,0.016975606,-0.011896571,0.75392634,2016-12-15 10:51:42,61.39232950429124
0.32800564,0.12449849,10.149021,0.009817477,-0.0032724924,-0.009817477,14.949276,1.5610195,-0.7589619,9.653421,-1.1611878,0.7398083,0.29927522,0.017742854,-0.012391204,0.7538633,2016-12-15 10:51:43,52.32305174111036
0.31364042,-0.05746084,9.78989,-0.0032724924,0.0054541538,0.008726646,14.949276,1.553837,-0.7613561,9.653421,-1.2545617,0.81881696,0.3854665,0.017278256,-0.012402788,0.7534409,2016-12-15 10:51:44,55.44905221704368
0.44771573,-0.033518825,9.885659,-0.0010908308,-0.015271631,0.0054541538,13.88147,1.532289,-0.7685388,9.65821,-1.0462662,0.7781156,0.2705448,0.016188793,-0.011813952,0.75334483,2016-12-15 10:51:45,57.223801063786574
0.33279404,-0.04309563,9.904813,0.004363323,-0.008726646,-0.004363323,13.88147,1.5490485,-0.770933,9.653421,-1.2066777,0.80445176,0.23223756,0.016859751,-0.012331421,0.7538968,2016-12-15 10:51:46,66.05099139024387
0.30885202,0.095768064,9.861717,0.0010908308,0.0054541538,0.0032724924,13.88147,1.5658079,-0.7613561,9.651027,-1.1947067,0.90021986,0.16759412,0.017694954,-0.01260872,0.75325817,2016-12-15 10:51:47,70.8133354176079
0.2896984,0.047884032,9.775525,0.004363323,0.004363323,0.008726646,13.88147,1.5562311,-0.7565677,9.653421,-1.2234371,0.8523358,0.24181437,0.017628875,-0.012067597,0.75376284,2016-12-15 10:51:48,56.34007608578059
0.4285621,0.06703765,9.976639,-0.01308997,0.0054541538,-0.017453292,14.949276,1.5490485,-0.7637503,9.653421,-1.2162545,0.85473,0.16998832,0.017094158,-0.012075642,0.7540006,2016-12-15 10:51:49,55.353613264242476
0.4189853,0.1388637,9.799467,0.0,0.009817477,0.0076358155,14.949276,1.5442601,-0.7685388,9.655815,-1.2354081,0.82121116,0.29209262,0.016824871,-0.011971159,0.7543158,2016-12-15 10:51:50,57.47633797791468
0.37110126,0.02873042,10.019734,0.011999139,0.0032724924,0.004363323,14.949276,1.5490485,-0.7781156,9.653421,-1.2737153,0.82121116,0.12210429,0.016721262,-0.01253726,0.75416154,2016-12-15 10:51:51,55.77750669318532
0.38067806,-0.0047884034,9.876082,0.0010908308,-0.0010908308,0.0,14.949276,1.5466543,-0.7637503,9.655815,-1.2090719,0.8595184,0.22026655,0.017136965,-0.011777259,0.75394875,2016-12-15 10:51:52,58.183250856559724
0.35194764,0.023942016,9.97185,0.0,-0.0076358155,-0.0010908308,15.483178,1.5562311,-0.7541735,9.653421,-1.1563994,0.6775591,0.11731588,0.017804688,-0.0118620675,0.75353885,2016-12-15 10:51:53,61.39225746657431
0.46686932,-0.04309563,9.880871,-0.004363323,0.0010908308,-0.0076358155,15.483178,1.553837,-0.7637503,9.653421,-1.115698,0.80684596,0.16998832,0.017419621,-0.012005903,0.7539104,2016-12-15 10:51:54,59.70767093406564
0.37588966,0.05746084,9.85214,0.011999139,0.004363323,-0.004363323,14.415372,1.5466543,-0.7781156,9.653421,-1.1994951,0.92176765,0.093373865,0.016756777,-0.012388302,0.75399435,2016-12-15 10:51:55,52.962329838635746
0.34237084,0.08140286,9.794679,0.0021816615,0.0021816615,-0.0021816615,15.483178,1.5562311,-0.7637503,9.653421,-1.1228806,0.830788,0.25617957,0.017567962,-0.012123233,0.7537903,2016-12-15 10:51:56,53.38204444388949
0.35673606,0.11971009,9.909601,0.0010908308,-0.0010908308,0.0021816615,14.949276,1.553837,-0.7661445,9.653421,-1.1779473,0.8283938,0.18435353,0.01746062,-0.012028944,0.7538234,2016-12-15 10:51:57,56.6402720959723
0.4285621,0.08619126,10.005369,0.0054541538,0.0021816615,0.0010908308,15.483178,1.5466543,-0.79008657,9.653421,-1.2234371,0.8523358,0.20350714,0.016423486,-0.0127220955,0.75376725,2016-12-15 10:51:58,59.337071530833455
0.2801216,0.11492168,9.995792,-0.0109083075,-0.004363323,0.008726646,15.483178,1.5682021,-0.7757214,9.651027,-1.1779473,0.81402856,0.2873042,0.01786279,-0.012673218,0.75411725,2016-12-15 10:51:59,56.693301178601246
0.4429273,0.033518825,9.7803135,0.0010908308,0.009817477,0.0021816615,14.949276,1.5729905,-0.7757214,9.651027,-1.1731589,0.80445176,0.272939,0.018054206,-0.012745082,0.75392914,2016-12-15 10:52:00,57.81679668237946
