ACC_X,ACC_Y,ACC_Z,LIGH_1,TIME,VOICE
-8.475,2.528,-4.099,0.0,2017-06-04 09:44:58,-1.0993282798334167
-8.351,2.949,-3.744,0.0,2017-06-04 09:44:59,17.481501578815543
-6.167,7.307,0.488,0.0,2017-06-04 09:45:00,34.54848282683169
0.747,8.964,-1.321,0.0,2017-06-04 09:45:01,47.34179889406285
-0.622,3.275,9.5,0.0,2017-06-04 09:45:02,55.66334209754858
0.833,1.561,2.221,0.0,2017-06-04 09:45:03,33.01156151761204
-1.235,2.221,9.567,0.0,2017-06-04 09:45:04,66.69875986529432
-1.245,2.25,9.596,2.0,2017-06-04 09:45:05,55.65029781222964
-1.225,2.212,9.567,2.0,2017-06-04 09:45:06,54.40540332133513
-1.216,2.221,9.596,3.0,2017-06-04 09:45:07,41.85330100571583
-1.264,2.202,9.596,2.0,2017-06-04 09:45:08,49.02678118542955
-1.245,2.241,9.567,1.0,2017-06-04 09:45:09,44.459598891373574
-1.245,2.202,9.538,0.0,2017-06-04 09:45:10,52.30156667219986
-1.216,2.221,9.567,1.0,2017-06-04 09:45:11,53.961172226958745
-1.235,2.212,9.567,2.0,2017-06-04 09:45:13,52.154073751444734
-1.235,2.26,9.548,2.0,2017-06-04 09:45:14,53.99200752438554
-1.216,2.231,9.586,5.0,2017-06-04 09:45:15,50.652747987101634
-1.225,2.202,9.557,3.0,2017-06-04 09:45:16,54.64073927727022
-1.225,2.241,9.548,3.0,2017-06-04 09:45:17,48.770647437603415
-1.225,2.221,9.557,2.0,2017-06-04 09:45:18,53.615449870663
-1.206,2.241,9.567,0.0,2017-06-04 09:45:19,56.07050218807519
-1.225,2.212,9.596,0.0,2017-06-04 09:45:20,51.677623790829664
-1.245,2.221,9.586,0.0,2017-06-04 09:45:21,57.54796018115662
-1.225,2.231,9.586,1.0,2017-06-04 09:45:22,48.95866636765674
-1.235,2.202,9.548,2.0,2017-06-04 09:45:23,54.91745239684525
-1.225,2.241,9.567,1.0,2017-06-04 09:45:24,34.69111508538799
-1.206,2.231,9.557,2.0,2017-06-04 09:45:25,53.42812807660714
-1.245,2.212,9.567,2.0,2017-06-04 09:45:26,50.51360583349726
-1.235,2.231,9.538,2.0,2017-06-04 09:45:27,50.09589852381748
-1.235,2.202,9.596,3.0,2017-06-04 09:45:28,48.630753384180785
-1.235,2.241,9.567,3.0,2017-06-04 09:45:29,54.35451091170735
-1.225,2.231,9.567,2.0,2017-06-04 09:45:30,58.39982575870966
-1.254,2.241,9.596,3.0,2017-06-04 09:45:31,49.747351392745855
-1.235,2.212,9.567,3.0,2017-06-04 09:45:32,54.561081950958084
-1.235,2.221,9.577,3.0,2017-06-04 09:45:33,43.17538296875718
-1.225,2.241,9.577,1.0,2017-06-04 09:45:34,56.85946726987092
-1.225,2.25,9.557,2.0,2017-06-04 09:45:35,40.54918878640286
-1.235,2.231,9.567,2.0,2017-06-04 09:45:36,47.8817461540568
-1.225,2.231,9.615,3.0,2017-06-04 09:45:37,37.5979314358373
-1.245,2.183,9.567,1.0,2017-06-04 09:45:38,46.9056442839147
-1.225,2.221,9.577,2.0,2017-06-04 09:45:39,48.04712961246952
-1.235,2.202,9.663,2.0,2017-06-04 09:45:40,50.25972303621677
-1.245,2.221,9.577,2.0,2017-06-04 09:45:41,62.541425980033
-1.216,2.202,9.557,2.0,2017-06-04 09:45:42,55.785878497645704
-1.235,2.231,9.538,5.0,2017-06-04 09:45:43,50.92640651425114
-1.235,2.183,9.577,1.0,2017-06-04 09:45:44,55.74306429371007
-1.225,2.193,9.596,0.0,2017-06-04 09:45:45,31.196401949037185
-1.245,2.231,9.567,2.0,2017-06-04 09:45:46,55.280377124233326
-1.216,2.193,9.577,5.0,2017-06-04 09:45:47,48.868879894089105
-1.216,2.221,9.605,5.0,2017-06-04 09:45:48,39.42419177893499
-1.225,2.231,9.586,3.0,2017-06-04 09:45:49,52.607148678178596
-1.206,2.231,9.548,3.0,2017-06-04 09:45:50,51.625285273025256
-1.216,2.25,9.548,3.0,2017-06-04 09:45:51,49.35066508043611
-1.245,2.241,9.567,2.0,2017-06-04 09:45:52,57.03243337009507
-1.235,2.221,9.538,3.0,2017-06-04 09:45:53,43.98468898073791
-1.225,2.212,9.567,3.0,2017-06-04 09:45:54,53.54812959754575
-1.225,2.193,9.548,2.0,2017-06-04 09:45:55,43.17014646790802
-1.225,2.241,9.605,2.0,2017-06-04 09:45:56,45.240735349213054
-1.225,2.26,9.596,2.0,2017-06-04 09:45:57,53.69941190645879
-1.216,2.202,9.567,5.0,2017-06-04 09:45:58,56.29020806710636
-1.225,2.212,9.548,3.0,2017-06-04 09:45:59,57.735316466445596
-1.235,2.212,9.596,3.0,2017-06-04 09:46:00,50.61338501444257
-1.225,2.25,9.567,3.0,2017-06-04 09:46:02,51.885384269065284
-1.225,2.221,9.577,3.0,2017-06-04 09:46:03,46.0298741087192
-1.225,2.231,9.577,5.0,2017-06-04 09:46:04,50.06851290131615
-1.235,2.221,9.605,2.0,2017-06-04 09:46:05,56.2142624531251
-1.216,2.212,9.586,3.0,2017-06-04 09:46:06,45.96995141700468
-1.225,2.221,9.567,5.0,2017-06-04 09:46:07,53.63805151922393
-1.225,2.241,9.548,2.0,2017-06-04 09:46:08,33.45344433994056
-1.245,2.212,9.586,3.0,2017-06-04 09:46:09,50.644153854459645
-1.235,2.202,9.567,1.0,2017-06-04 09:46:10,30.954176180864472
-1.225,2.202,9.548,3.0,2017-06-04 09:46:11,53.785338593225575
-1.235,2.25,9.586,5.0,2017-06-04 09:46:12,55.80045442595154
-1.235,2.231,9.577,2.0,2017-06-04 09:46:13,44.23290219771465
-1.245,2.212,9.567,6.0,2017-06-04 09:46:14,40.21790682488282
-1.216,2.212,9.596,5.0,2017-06-04 09:46:15,49.18316418196898
-1.225,2.241,9.567,3.0,2017-06-04 09:46:16,39.24123042008327
-1.225,2.25,9.577,5.0,2017-06-04 09:46:17,53.13622914549853
-1.245,2.202,9.557,5.0,2017-06-04 09:46:18,31.206950443324143
-1.216,2.212,9.605,2.0,2017-06-04 09:46:19,53.538414813700015
-1.225,2.212,9.538,5.0,2017-06-04 09:46:20,54.9451553772851
-1.216,2.231,9.596,2.0,2017-06-04 09:46:21,50.01275802486414
-1.254,2.231,9.586,5.0,2017-06-04 09:46:22,52.24862364607625
-1.216,2.231,9.567,2.0,2017-06-04 09:46:23,36.1772493319539
-1.216,2.241,9.557,3.0,2017-06-04 09:46:24,49.31167999648909
-1.245,2.231,9.596,5.0,2017-06-04 09:46:25,48.8398264081442
-1.216,2.202,9.586,5.0,2017-06-04 09:46:26,54.95936899346138
-1.235,2.221,9.596,3.0,2017-06-04 09:46:27,30.760018455677432
-1.264,2.241,9.577,5.0,2017-06-04 09:46:28,60.07241826659148
-1.245,2.231,9.586,3.0,2017-06-04 09:46:29,50.839139292099595
-1.216,2.212,9.596,3.0,2017-06-04 09:46:30,45.42437169361958
-1.216,2.241,9.577,3.0,2017-06-04 09:46:31,50.26547743264949
-1.206,2.231,9.577,6.0,2017-06-04 09:46:32,30.27238487192273
-1.225,2.221,9.567,2.0,2017-06-04 09:46:33,56.760905369666155
-1.206,2.212,9.577,5.0,2017-06-04 09:46:34,55.20028276269546
-1.216,2.202,9.596,2.0,2017-06-04 09:46:35,56.377746261642926
-1.235,2.231,9.596,3.0,2017-06-04 09:46:36,48.13857956585372
-1.225,2.231,9.605,2.0,2017-06-04 09:46:37,44.024834279375696
-1.216,2.202,9.605,3.0,2017-06-04 09:46:38,50.00264029298401
-1.235,2.241,9.586,3.0,2017-06-04 09:46:39,54.919641343818746
-1.206,2.25,9.605,5.0,2017-06-04 09:46:40,34.48736655947578
-1.245,2.231,9.557,3.0,2017-06-04 09:46:41,46.75227223314992
-1.245,2.231,9.577,1.0,2017-06-04 09:46:43,50.05038410497119
-1.225,2.221,9.567,3.0,2017-06-04 09:46:44,43.271073659154375
-1.254,2.221,9.548,5.0,2017-06-04 09:46:45,45.81087734361801
-1.216,2.221,9.586,2.0,2017-06-04 09:46:46,50.133459642849594
-1.225,2.212,9.596,5.0,2017-06-04 09:46:47,48.042014073966115
-1.254,2.221,9.557,3.0,2017-06-04 09:46:48,51.13962763322612
-1.235,2.241,9.567,3.0,2017-06-04 09:46:49,55.78114849911859
-1.216,2.241,9.567,3.0,2017-06-04 09:46:50,54.97807740923177
-1.235,2.241,9.586,5.0,2017-06-04 09:46:51,29.91100553927822
-1.235,2.241,9.519,3.0,2017-06-04 09:46:52,54.08470204069089
-1.235,2.202,9.577,5.0,2017-06-04 09:46:53,54.32920096926564
-1.225,2.25,9.548,5.0,2017-06-04 09:46:54,50.04935248226219
-1.197,2.241,9.586,5.0,2017-06-04 09:46:55,55.842385396742316
-1.235,2.212,9.605,5.0,2017-06-04 09:46:56,54.57935962948688
-1.216,2.241,9.548,3.0,2017-06-04 09:46:57,39.19551872576414
-1.216,2.241,9.615,5.0,2017-06-04 09:46:58,31.125280910283152
-1.216,2.231,9.577,5.0,2017-06-04 09:46:59,54.23370344460481
-1.225,2.212,9.567,3.0,2017-06-04 09:47:00,55.869703198712074
-1.216,2.269,9.596,3.0,2017-06-04 09:47:01,51.28060377265484
-1.245,2.212,9.567,5.0,2017-06-04 09:47:02,48.30279768793587
-1.245,2.241,9.577,3.0,2017-06-04 09:47:03,50.295226078039136
-1.206,2.25,9.548,3.0,2017-06-04 09:47:04,57.74617634851702
-1.235,2.212,9.577,3.0,2017-06-04 09:47:05,35.735293903436855
-1.225,2.231,9.596,5.0,2017-06-04 09:47:06,56.7037422334888
-1.216,2.231,9.557,5.0,2017-06-04 09:47:07,44.257848763126276
-1.216,2.212,9.557,5.0,2017-06-04 09:47:08,54.924807167411444
-1.235,2.231,9.586,3.0,2017-06-04 09:47:09,55.81020508083547
-1.225,2.241,9.577,3.0,2017-06-04 09:47:10,32.11690089413272
-1.235,2.241,9.596,5.0,2017-06-04 09:47:11,56.452224293781626
-1.245,2.26,9.586,3.0,2017-06-04 09:47:12,52.56550932674909
-1.225,2.221,9.615,5.0,2017-06-04 09:47:13,52.20822268315701
-1.216,2.231,9.596,3.0,2017-06-04 09:47:14,41.27078717630895
-1.245,2.231,9.605,3.0,2017-06-04 09:47:15,54.063156387859465
-1.216,2.241,9.577,3.0,2017-06-04 09:47:16,49.02610020499282
-1.235,2.231,9.557,3.0,2017-06-04 09:47:17,28.936447488599022
-1.225,2.241,9.605,5.0,2017-06-04 09:47:18,53.25056224984436
-1.254,2.212,9.586,3.0,2017-06-04 09:47:19,50.408532220742906
-1.254,2.202,9.577,5.0,2017-06-04 09:47:20,49.51072873473954
-1.216,2.221,9.567,3.0,2017-06-04 09:47:21,52.815071479558206
-1.225,2.221,9.596,5.0,2017-06-04 09:47:23,54.44438936302842
-1.225,2.212,9.605,6.0,2017-06-04 09:47:24,55.52926454297088
-1.235,2.25,9.557,2.0,2017-06-04 09:47:25,43.863069127624776
-1.216,2.231,9.586,5.0,2017-06-04 09:47:26,50.43856446591147
-1.206,2.241,9.557,5.0,2017-06-04 09:47:27,35.66406185918362
-1.235,2.279,9.577,3.0,2017-06-04 09:47:28,38.893306508586505
-1.235,2.221,9.586,3.0,2017-06-04 09:47:29,54.328760583577804
-1.235,2.221,9.548,3.0,2017-06-04 09:47:30,53.12673775765382
-1.225,2.25,9.567,3.0,2017-06-04 09:47:31,59.79492004557198
-1.225,2.26,9.567,5.0,2017-06-04 09:47:32,39.211283159225395
-1.235,2.231,9.567,5.0,2017-06-04 09:47:33,30.720358118661935
-1.235,2.241,9.605,3.0,2017-06-04 09:47:34,33.11183102266723
-1.245,2.241,9.557,5.0,2017-06-04 09:47:35,28.331838545972253
-1.225,2.26,9.586,6.0,2017-06-04 09:47:36,53.972693339812075
-1.235,2.25,9.586,3.0,2017-06-04 09:47:37,56.20300446497722
-1.225,2.221,9.625,5.0,2017-06-04 09:47:38,47.00787357887034
-1.235,2.231,9.596,3.0,2017-06-04 09:47:39,55.12754479069086
-1.235,2.241,9.567,2.0,2017-06-04 09:47:40,50.118113917481324
-1.235,2.221,9.577,6.0,2017-06-04 09:47:41,52.086658382841534
-1.235,2.221,9.577,5.0,2017-06-04 09:47:42,33.724033054469245
-1.225,2.25,9.567,3.0,2017-06-04 09:47:43,35.61447878417801
-1.235,2.221,9.548,5.0,2017-06-04 09:47:44,53.9843733706795
-1.225,2.221,9.577,3.0,2017-06-04 09:47:45,52.91308043267463
-1.245,2.212,9.557,5.0,2017-06-04 09:47:46,59.301669411844145
-1.197,2.241,9.548,3.0,2017-06-04 09:47:47,52.16725724681811
-1.235,2.25,9.577,3.0,2017-06-04 09:47:48,55.128056313167676
-1.187,2.231,9.577,6.0,2017-06-04 09:47:49,56.052741666837775
-1.216,2.241,9.586,6.0,2017-06-04 09:47:50,42.934753785744874
-1.187,2.241,9.529,3.0,2017-06-04 09:47:51,51.6776112533033
-1.216,2.221,9.615,6.0,2017-06-04 09:47:52,48.13393288213865
-1.216,2.231,9.596,5.0,2017-06-04 09:47:53,31.49310844307361
-1.216,2.279,9.567,7.0,2017-06-04 09:47:54,50.75991214481825
-1.235,2.231,9.605,5.0,2017-06-04 09:47:55,53.585876394229956
-1.225,2.231,9.605,6.0,2017-06-04 09:47:56,60.34533177177209
-1.206,2.231,9.586,3.0,2017-06-04 09:47:57,50.30101117690378
-1.235,2.241,9.557,5.0,2017-06-04 09:47:58,32.27555316242133
-1.225,2.221,9.596,5.0,2017-06-04 09:48:00,50.85504514030903
-1.245,2.231,9.577,5.0,2017-06-04 09:48:01,52.17258081149777
-1.235,2.241,9.586,5.0,2017-06-04 09:48:02,32.10499573999305
-1.245,2.212,9.548,6.0,2017-06-04 09:48:03,29.760005139929646
-1.225,2.212,9.577,3.0,2017-06-04 09:48:04,50.81344089998928
-1.225,2.25,9.586,3.0,2017-06-04 09:48:05,50.42146617031723
-1.225,2.231,9.596,3.0,2017-06-04 09:48:06,50.20963691709704
-1.206,2.221,9.567,5.0,2017-06-04 09:48:07,48.319468765431274
-1.235,2.221,9.567,6.0,2017-06-04 09:48:08,52.606604089951425
-1.216,2.241,9.586,3.0,2017-06-04 09:48:09,32.266077078594336
-1.225,2.26,9.596,5.0,2017-06-04 09:48:10,32.166315353030335
-1.225,2.241,9.557,3.0,2017-06-04 09:48:11,54.37206811160613
-1.235,2.269,9.596,5.0,2017-06-04 09:48:12,53.12422678997088
-1.225,2.221,9.557,5.0,2017-06-04 09:48:13,41.008457994732616
-1.225,2.26,9.586,3.0,2017-06-04 09:48:14,33.00585294804555
-1.235,2.231,9.577,5.0,2017-06-04 09:48:15,55.06138641433151
-1.206,2.269,9.557,5.0,2017-06-04 09:48:16,37.627370130466765
-1.235,2.25,9.596,3.0,2017-06-04 09:48:17,56.286651740148514
-1.206,2.221,9.557,6.0,2017-06-04 09:48:18,55.52271165723425
-1.235,2.25,9.557,5.0,2017-06-04 09:48:19,54.823644175577016
-1.225,2.25,9.577,3.0,2017-06-04 09:48:20,50.62228072485962
-1.235,2.212,9.586,3.0,2017-06-04 09:48:21,35.5852763930025
-1.235,2.231,9.567,3.0,2017-06-04 09:48:22,47.735938794697944
-1.235,2.231,9.577,5.0,2017-06-04 09:48:23,49.67469151183885
-1.206,2.231,9.577,3.0,2017-06-04 09:48:24,34.53614074970994
-1.206,2.241,9.567,5.0,2017-06-04 09:48:25,36.32384326290928
-1.245,2.231,9.586,6.0,2017-06-04 09:48:26,54.56669426405361
-1.235,2.25,9.577,5.0,2017-06-04 09:48:27,57.467395887826356
-1.216,2.25,9.567,7.0,2017-06-04 09:48:28,50.46440986175817
-1.254,2.231,9.548,5.0,2017-06-04 09:48:29,30.3876564845609
-1.216,2.212,9.567,5.0,2017-06-04 09:48:30,55.03635401032072
-1.225,2.221,9.586,3.0,2017-06-04 09:48:31,56.92573490218689
-1.245,2.241,9.557,6.0,2017-06-04 09:48:32,51.32643482231005
-1.245,2.25,9.625,6.0,2017-06-04 09:48:33,53.59989014715944
-1.235,2.26,9.567,1.0,2017-06-04 09:48:34,33.041857981011596
-1.206,2.231,9.586,5.0,2017-06-04 09:48:35,46.01461416831742
-1.225,2.231,9.577,6.0,2017-06-04 09:48:36,56.63563331868894
-1.225,2.241,9.605,5.0,2017-06-04 09:48:37,37.47160224554171
-1.216,2.25,9.538,3.0,2017-06-04 09:48:38,32.8226200731129
-1.235,2.231,9.538,5.0,2017-06-04 09:48:39,52.45933386752908
-1.225,2.25,9.596,5.0,2017-06-04 09:48:40,54.32591046619807
-1.206,2.25,9.567,5.0,2017-06-04 09:48:42,56.65375483534102
-1.225,2.221,9.586,5.0,2017-06-04 09:48:43,46.346353942160114
-1.235,2.241,9.586,3.0,2017-06-04 09:48:44,45.81200251937822
-1.216,2.231,9.567,6.0,2017-06-04 09:48:45,48.218805947492626
-1.216,2.212,9.615,5.0,2017-06-04 09:48:46,49.84559162606118
-1.245,2.212,9.586,3.0,2017-06-04 09:48:47,45.6869659136992
-1.225,2.279,9.577,6.0,2017-06-04 09:48:48,34.79633926122705
-1.187,2.241,9.577,5.0,2017-06-04 09:48:49,32.33090596068516
-1.235,2.25,9.586,6.0,2017-06-04 09:48:50,32.665727392495384
-1.254,2.269,9.567,3.0,2017-06-04 09:48:51,49.708240892205694
-1.225,2.231,9.586,5.0,2017-06-04 09:48:52,52.29663515234079
-1.206,2.231,9.567,6.0,2017-06-04 09:48:53,57.30467124575496
-1.225,2.25,9.596,6.0,2017-06-04 09:48:54,45.93655680163935
-1.254,2.241,9.577,5.0,2017-06-04 09:48:55,33.12106251300265
-1.216,2.231,9.548,3.0,2017-06-04 09:48:56,54.596399623814904
-1.235,2.231,9.577,6.0,2017-06-04 09:48:57,37.623214712212565
-1.216,2.212,9.586,5.0,2017-06-04 09:48:58,50.89494863360936
-1.254,2.26,9.586,6.0,2017-06-04 09:48:59,52.19161404157704
-1.235,2.26,9.586,2.0,2017-06-04 09:49:00,34.575890547461476
-1.235,2.241,9.567,5.0,2017-06-04 09:49:01,52.46411183490416
-1.245,2.241,9.605,6.0,2017-06-04 09:49:02,53.511882167726206
-1.206,2.26,9.567,3.0,2017-06-04 09:49:03,53.782171510097434
-1.225,2.26,9.586,5.0,2017-06-04 09:49:04,36.47403315729294
-1.216,2.231,9.605,5.0,2017-06-04 09:49:05,55.79812025947739
-1.235,2.269,9.605,2.0,2017-06-04 09:49:06,47.28340804679506
-1.216,2.26,9.577,5.0,2017-06-04 09:49:07,53.1721660314459
-1.216,2.241,9.586,3.0,2017-06-04 09:49:08,56.73473124724336
-1.235,2.25,9.538,6.0,2017-06-04 09:49:09,57.795658383055056
-1.225,2.241,9.586,2.0,2017-06-04 09:49:10,54.60130854843549
-1.235,2.231,9.567,5.0,2017-06-04 09:49:11,52.437256330428625
-1.206,2.25,9.567,3.0,2017-06-04 09:49:12,54.46400621612179
-1.225,2.231,9.577,7.0,2017-06-04 09:49:13,41.53268974680317
-1.216,2.25,9.577,6.0,2017-06-04 09:49:14,49.91329110602362
-1.235,2.231,9.596,3.0,2017-06-04 09:49:15,52.39736621341659
-1.225,2.25,9.548,3.0,2017-06-04 09:49:16,54.7885757248119
-1.206,2.25,9.577,5.0,2017-06-04 09:49:17,50.37225140274799
-1.235,2.231,9.557,5.0,2017-06-04 09:49:18,30.61440329769458
-1.225,2.241,9.577,5.0,2017-06-04 09:49:19,49.99612533227789
-1.197,2.221,9.567,5.0,2017-06-04 09:49:21,57.668078350679096
-1.235,2.212,9.577,5.0,2017-06-04 09:49:22,50.10117051365752
-1.245,2.269,9.596,5.0,2017-06-04 09:49:23,55.661122791550184
-1.235,2.26,9.605,5.0,2017-06-04 09:49:24,36.59999901492714
-1.225,2.221,9.615,3.0,2017-06-04 09:49:25,55.29234144004092
-1.206,2.241,9.567,5.0,2017-06-04 09:49:26,52.65468820368092
-1.235,2.221,9.567,6.0,2017-06-04 09:49:27,54.87841514768169
-1.216,2.221,9.567,5.0,2017-06-04 09:49:28,35.87773536755972
-1.216,2.231,9.577,6.0,2017-06-04 09:49:29,32.75419788627081
-1.216,2.25,9.596,6.0,2017-06-04 09:49:30,44.657940779778826
-1.235,2.241,9.605,6.0,2017-06-04 09:49:31,57.80376490887428
-1.235,2.231,9.577,5.0,2017-06-04 09:49:32,53.2297598461748
-1.235,2.26,9.615,5.0,2017-06-04 09:49:33,53.315628618885775
-1.245,2.26,9.577,5.0,2017-06-04 09:49:34,50.11365295770456
-1.197,2.26,9.605,7.0,2017-06-04 09:49:35,35.71624455287482
-1.225,2.231,9.615,5.0,2017-06-04 09:49:36,53.229146409653474
-1.235,2.241,9.577,6.0,2017-06-04 09:49:37,42.996711045740284
-1.235,2.231,9.605,5.0,2017-06-04 09:49:38,56.45355080194257
-1.216,2.26,9.557,5.0,2017-06-04 09:49:39,55.29770485009655
-1.254,2.241,9.548,7.0,2017-06-04 09:49:40,48.88567361844812
-1.245,2.26,9.596,5.0,2017-06-04 09:49:41,52.782218518746205
-1.245,2.231,9.577,6.0,2017-06-04 09:49:42,48.92240794690163
-1.225,2.241,9.577,5.0,2017-06-04 09:49:43,46.68641257559521
-1.225,2.231,9.577,3.0,2017-06-04 09:49:44,54.86443542528657
-1.225,2.25,9.577,6.0,2017-06-04 09:49:45,49.08466854827441
-1.245,2.26,9.577,6.0,2017-06-04 09:49:46,49.898781934990566
-1.216,2.26,9.577,3.0,2017-06-04 09:49:47,46.37676778976382
-1.235,2.26,9.596,5.0,2017-06-04 09:49:48,50.64500504745234
-1.206,2.25,9.605,5.0,2017-06-04 09:49:49,53.889994510967476
-1.235,2.231,9.596,5.0,2017-06-04 09:49:50,32.241150683485614
-1.225,2.231,9.615,3.0,2017-06-04 09:49:51,49.66125515168684
-1.216,2.241,9.586,6.0,2017-06-04 09:49:52,53.98801699422306
-1.225,2.231,9.577,5.0,2017-06-04 09:49:53,49.52903824144944
-1.235,2.269,9.615,5.0,2017-06-04 09:49:54,53.74133040987461
-1.225,2.221,9.567,6.0,2017-06-04 09:49:56,31.978650403982645
-1.245,2.25,9.596,3.0,2017-06-04 09:49:57,30.893102526263934
-1.245,2.241,9.567,7.0,2017-06-04 09:49:58,58.27452646702987
-1.254,2.269,9.596,5.0,2017-06-04 09:49:59,40.09140707502709
-1.225,2.25,9.596,7.0,2017-06-04 09:50:00,33.62317141243126
-1.216,2.25,9.577,3.0,2017-06-04 09:50:01,31.68023043545255
-1.225,2.241,9.567,5.0,2017-06-04 09:50:02,52.71865599029067
-1.216,2.231,9.596,5.0,2017-06-04 09:50:03,54.952022680489165
-1.206,2.241,9.586,3.0,2017-06-04 09:50:04,31.97881712972793
-1.225,2.241,9.557,6.0,2017-06-04 09:50:05,49.87277195798826
-1.245,2.25,9.586,5.0,2017-06-04 09:50:06,46.81549769124533
-1.225,2.25,9.586,5.0,2017-06-04 09:50:07,48.3400359708721
-1.245,2.231,9.596,5.0,2017-06-04 09:50:08,55.167508460944916
-1.235,2.202,9.577,5.0,2017-06-04 09:50:09,52.64059610208538
-1.225,2.25,9.557,5.0,2017-06-04 09:50:10,52.89850449556569
-1.254,2.269,9.596,6.0,2017-06-04 09:50:11,52.20267827644132
-1.235,2.26,9.567,5.0,2017-06-04 09:50:12,57.343334902033675
-1.225,2.25,9.605,6.0,2017-06-04 09:50:13,52.14837977626008
-1.206,2.26,9.567,5.0,2017-06-04 09:50:14,37.50325602445318
-1.216,2.26,9.596,5.0,2017-06-04 09:50:15,37.313051681802186
-1.225,2.269,9.577,5.0,2017-06-04 09:50:16,36.020165172923406
-1.225,2.269,9.577,5.0,2017-06-04 09:50:17,56.54352407078478
-1.225,2.269,9.586,6.0,2017-06-04 09:50:18,38.99584664257884
-1.225,2.25,9.596,5.0,2017-06-04 09:50:19,59.24697541382676
-1.225,2.26,9.567,5.0,2017-06-04 09:50:20,51.66094588826742
-1.216,2.241,9.586,6.0,2017-06-04 09:50:21,51.18282226566191
-1.235,2.26,9.577,5.0,2017-06-04 09:50:22,52.51829002093011
-1.225,2.231,9.567,5.0,2017-06-04 09:50:23,54.36208922900266
-1.206,2.241,9.577,6.0,2017-06-04 09:50:24,44.06225588883273
-1.216,2.212,9.577,5.0,2017-06-04 09:50:25,50.06060548818256
-1.216,2.26,9.557,6.0,2017-06-04 09:50:26,55.216776591654906
-1.225,2.241,9.577,6.0,2017-06-04 09:50:27,53.807629078155855
-1.216,2.26,9.586,6.0,2017-06-04 09:50:28,31.120112920619537
-1.235,2.26,9.586,6.0,2017-06-04 09:50:29,57.13216549305743
-1.235,2.269,9.577,2.0,2017-06-04 09:50:30,52.84861721112396
-1.225,2.26,9.577,7.0,2017-06-04 09:50:31,55.02813785338431
-1.216,2.231,9.577,3.0,2017-06-04 09:50:32,48.85883330464197
-1.245,2.25,9.567,6.0,2017-06-04 09:50:33,33.33009949518864
-1.225,2.26,9.567,5.0,2017-06-04 09:50:34,49.71380143303065
-1.225,2.241,9.577,2.0,2017-06-04 09:50:35,54.82477699089656
-1.225,2.241,9.605,5.0,2017-06-04 09:50:36,53.50757865763355
-1.235,2.25,9.615,5.0,2017-06-04 09:50:37,58.09073380847962
-1.245,2.241,9.586,5.0,2017-06-04 09:50:39,34.40110211182797
-1.206,2.25,9.605,5.0,2017-06-04 09:50:40,55.57905359145073
-1.235,2.26,9.586,5.0,2017-06-04 09:50:41,54.98351493162658
-1.216,2.25,9.625,6.0,2017-06-04 09:50:42,45.80733591652791
-1.225,2.231,9.596,5.0,2017-06-04 09:50:43,56.620124036492854
-1.216,2.221,9.577,7.0,2017-06-04 09:50:44,53.78292865487051
-1.177,2.25,9.548,6.0,2017-06-04 09:50:45,36.19266306835995
-1.245,2.241,9.577,5.0,2017-06-04 09:50:46,53.3520464055746
-1.235,2.241,9.577,6.0,2017-06-04 09:50:47,46.71413753182822
-1.206,2.212,9.605,3.0,2017-06-04 09:50:48,42.522019876581105
-1.235,2.241,9.577,5.0,2017-06-04 09:50:49,54.329903928568115
-1.235,2.231,9.557,5.0,2017-06-04 09:50:50,48.66222349309246
-1.245,2.231,9.548,5.0,2017-06-04 09:50:51,52.20846394867063
-1.206,2.269,9.586,5.0,2017-06-04 09:50:52,53.78600740587899
-1.254,2.269,9.557,5.0,2017-06-04 09:50:53,51.03276796661863
-1.206,2.26,9.567,6.0,2017-06-04 09:50:54,48.87528650007394
-1.225,2.221,9.567,6.0,2017-06-04 09:50:55,56.9803556096614
-1.187,2.26,9.634,5.0,2017-06-04 09:50:56,52.4373502615606
-1.245,2.25,9.577,3.0,2017-06-04 09:50:57,56.42991830840221
-1.216,2.25,9.577,3.0,2017-06-04 09:50:58,36.634172916619384
-1.225,2.269,9.577,5.0,2017-06-04 09:50:59,52.284856797943895
-1.216,2.25,9.596,5.0,2017-06-04 09:51:00,53.060571938754755
-1.225,2.231,9.596,3.0,2017-06-04 09:51:01,31.148161530383618
-1.225,2.241,9.586,6.0,2017-06-04 09:51:02,52.5945000098086
-1.225,2.26,9.567,5.0,2017-06-04 09:51:03,40.05782029923977
-1.225,2.25,9.605,6.0,2017-06-04 09:51:04,39.53087663381992
-1.235,2.26,9.567,6.0,2017-06-04 09:51:05,53.65057650792391
-1.206,2.231,9.586,5.0,2017-06-04 09:51:06,53.85264691253283
-1.216,2.241,9.596,3.0,2017-06-04 09:51:07,33.98596044037713
-1.225,2.25,9.548,5.0,2017-06-04 09:51:08,51.029986347469574
-1.225,2.231,9.567,7.0,2017-06-04 09:51:09,59.29160456072918
-1.216,2.25,9.596,6.0,2017-06-04 09:51:10,48.66598384341436
-1.216,2.26,9.577,6.0,2017-06-04 09:51:11,30.937294020358742
-1.216,2.25,9.586,5.0,2017-06-04 09:51:12,51.172868840563
-1.216,2.26,9.577,5.0,2017-06-04 09:51:13,39.9188745200241
-1.235,2.212,9.567,5.0,2017-06-04 09:51:14,52.667807424444064
-1.225,2.241,9.586,5.0,2017-06-04 09:51:15,56.45455207113422
-1.225,2.241,9.586,3.0,2017-06-04 09:51:16,56.04816262512819
-1.225,2.231,9.605,5.0,2017-06-04 09:51:17,58.170419860227476
-1.225,2.25,9.567,3.0,2017-06-04 09:51:19,54.8288207002529
-1.216,2.25,9.577,6.0,2017-06-04 09:51:20,55.15835857834187
-1.216,2.26,9.586,5.0,2017-06-04 09:51:21,58.524080976914554
-1.216,2.26,9.615,5.0,2017-06-04 09:51:22,49.89957529700746
-1.235,2.25,9.605,6.0,2017-06-04 09:51:23,57.02886156111838
-1.216,2.231,9.625,5.0,2017-06-04 09:51:24,59.81586339733023
-1.225,2.26,9.557,5.0,2017-06-04 09:51:25,57.975341580817286
-1.225,2.25,9.577,5.0,2017-06-04 09:51:26,34.30273046610453
-1.225,2.241,9.605,5.0,2017-06-04 09:51:27,51.344470751216846
-1.216,2.231,9.615,5.0,2017-06-04 09:51:28,31.469497393664085
-1.206,2.25,9.49,6.0,2017-06-04 09:51:29,51.64120157275805
-1.216,2.241,9.625,7.0,2017-06-04 09:51:30,52.72785935293412
-1.216,2.25,9.567,3.0,2017-06-04 09:51:31,57.33545467153449
-1.216,2.25,9.605,7.0,2017-06-04 09:51:32,55.7220443909459
-1.225,2.25,9.567,6.0,2017-06-04 09:51:33,54.535274981849795
-1.235,2.231,9.605,6.0,2017-06-04 09:51:34,57.122479316967336
-1.225,2.269,9.529,6.0,2017-06-04 09:51:35,55.31293778523402
-1.225,2.231,9.605,6.0,2017-06-04 09:51:36,45.33940307159081
-1.206,2.26,9.586,5.0,2017-06-04 09:51:37,48.93071448837421
-1.216,2.26,9.615,8.0,2017-06-04 09:51:38,54.83240562044684
-1.225,2.269,9.577,6.0,2017-06-04 09:51:39,52.039612972849156
-1.225,2.269,9.557,6.0,2017-06-04 09:51:40,46.81337377298155
-1.206,2.269,9.605,6.0,2017-06-04 09:51:41,32.379737767985304
-1.225,2.26,9.605,5.0,2017-06-04 09:51:42,53.03609466247856
-1.225,2.26,9.586,5.0,2017-06-04 09:51:43,54.58100528754753
-1.225,2.26,9.596,7.0,2017-06-04 09:51:44,54.478943351258266
-1.225,2.221,9.577,6.0,2017-06-04 09:51:45,56.2086415847281
-1.245,2.269,9.615,6.0,2017-06-04 09:51:46,52.784264421374836
-1.245,2.25,9.577,5.0,2017-06-04 09:51:47,57.67368751879861
-1.216,2.241,9.663,5.0,2017-06-04 09:51:48,34.33078514320188
-1.235,2.269,9.596,5.0,2017-06-04 09:51:49,60.044529783595124
-1.245,2.25,9.605,5.0,2017-06-04 09:51:50,50.760427760229874
-1.225,2.269,9.596,5.0,2017-06-04 09:51:51,54.002857485922476
-1.206,2.26,9.557,3.0,2017-06-04 09:51:52,57.33975483761544
-1.206,2.25,9.577,6.0,2017-06-04 09:51:53,53.277156418034735
-1.216,2.26,9.605,3.0,2017-06-04 09:51:54,40.342513664932724
-1.235,2.25,9.586,5.0,2017-06-04 09:51:55,51.99662978529111
-1.245,2.26,9.548,6.0,2017-06-04 09:51:56,47.876746589341096
-1.235,2.26,9.586,3.0,2017-06-04 09:51:57,52.42268896991328
-1.216,2.25,9.605,5.0,2017-06-04 09:51:58,55.98484888521523
-1.225,2.231,9.596,6.0,2017-06-04 09:51:59,55.72339242175252
-1.235,2.25,9.557,7.0,2017-06-04 09:52:00,30.431196390986166
-1.216,2.288,9.519,5.0,2017-06-04 09:52:02,31.631957456314645
-1.225,2.25,9.596,6.0,2017-06-04 09:52:03,58.63447680929582
-1.235,2.241,9.577,5.0,2017-06-04 09:52:04,38.73276995762658
-1.245,2.269,9.605,5.0,2017-06-04 09:52:05,54.616407419960645
-1.216,2.25,9.586,6.0,2017-06-04 09:52:06,52.70415941298313
-1.225,2.241,9.596,7.0,2017-06-04 09:52:07,34.16926082165576
-1.235,2.25,9.577,6.0,2017-06-04 09:52:08,32.06486450862635
-1.235,2.221,9.548,6.0,2017-06-04 09:52:09,50.50525464467807
-1.206,2.269,9.586,7.0,2017-06-04 09:52:10,57.12767450923089
-1.206,2.26,9.529,6.0,2017-06-04 09:52:11,51.62813659013463
-1.225,2.25,9.567,5.0,2017-06-04 09:52:12,56.82471206439854
-1.225,2.25,9.625,7.0,2017-06-04 09:52:13,50.713795493868055
-1.206,2.25,9.596,6.0,2017-06-04 09:52:14,50.954077684524
-1.245,2.221,9.596,6.0,2017-06-04 09:52:15,50.27772585574993
-1.225,2.241,9.567,3.0,2017-06-04 09:52:16,50.07411863471858
-1.225,2.279,9.567,5.0,2017-06-04 09:52:17,31.535251785724018
-1.225,2.25,9.567,6.0,2017-06-04 09:52:18,47.89704541802933
-1.216,2.269,9.625,6.0,2017-06-04 09:52:19,30.40397572974454
-1.225,2.241,9.577,6.0,2017-06-04 09:52:20,50.42678364660368
-1.225,2.25,9.615,5.0,2017-06-04 09:52:21,52.661203302135526
-1.216,2.231,9.567,5.0,2017-06-04 09:52:22,32.886218594360194
-1.235,2.25,9.615,6.0,2017-06-04 09:52:23,60.82776060351175
-1.235,2.26,9.557,5.0,2017-06-04 09:52:24,56.896300985675985
-1.235,2.25,9.577,6.0,2017-06-04 09:52:25,40.37495440452493
-1.216,2.26,9.567,5.0,2017-06-04 09:52:26,49.761425337522766
-1.216,2.26,9.577,5.0,2017-06-04 09:52:27,54.236703550857214
-1.206,2.25,9.596,7.0,2017-06-04 09:52:28,31.537812314109075
-1.216,2.26,9.644,5.0,2017-06-04 09:52:29,44.07884142239938
-1.225,2.25,9.577,5.0,2017-06-04 09:52:30,52.398472792111406
-1.235,2.269,9.577,8.0,2017-06-04 09:52:31,54.8504689852726
-1.216,2.279,9.615,6.0,2017-06-04 09:52:32,45.053515587871296
-1.235,2.269,9.596,7.0,2017-06-04 09:52:33,51.54747081366901
-1.197,2.231,9.557,6.0,2017-06-04 09:52:34,57.8289277901476
-1.197,2.269,9.577,7.0,2017-06-04 09:52:35,49.94857956513709
-1.225,2.241,9.567,5.0,2017-06-04 09:52:36,53.71167617266073
-1.206,2.241,9.586,6.0,2017-06-04 09:52:37,48.58039410577674
-1.216,2.26,9.615,6.0,2017-06-04 09:52:38,57.017402936165055
-1.225,2.25,9.596,5.0,2017-06-04 09:52:39,54.09340825724905
-1.206,2.26,9.615,5.0,2017-06-04 09:52:40,51.4467025995419
-1.216,2.231,9.557,7.0,2017-06-04 09:52:41,52.591916552564186
-1.235,2.241,9.596,5.0,2017-06-04 09:52:43,53.399999005653584
-1.235,2.241,9.586,7.0,2017-06-04 09:52:44,49.09542898169731
-1.225,2.241,9.586,6.0,2017-06-04 09:52:45,33.25157542853561
-1.225,2.241,9.586,6.0,2017-06-04 09:52:46,58.07039111002485
-1.225,2.26,9.586,7.0,2017-06-04 09:52:47,56.39757094848157
-1.216,2.26,9.586,2.0,2017-06-04 09:52:48,53.30187498230373
-1.225,2.231,9.538,2.0,2017-06-04 09:52:49,49.09256125008536
-1.206,2.26,9.586,6.0,2017-06-04 09:52:50,54.53416010078544
-1.225,2.25,9.567,5.0,2017-06-04 09:52:51,51.68836491241364
-1.216,2.279,9.634,6.0,2017-06-04 09:52:52,52.52557440231502
-1.216,2.231,9.596,5.0,2017-06-04 09:52:53,59.583654282541296
-1.245,2.279,9.557,7.0,2017-06-04 09:52:54,55.42291297374411
-1.206,2.26,9.605,7.0,2017-06-04 09:52:55,32.63726198267765
-1.225,2.26,9.586,7.0,2017-06-04 09:52:56,50.52964769352237
-1.206,2.279,9.577,6.0,2017-06-04 09:52:57,45.83442865339641
-1.245,2.25,9.577,6.0,2017-06-04 09:52:58,57.80819242494158
-1.225,2.25,9.586,6.0,2017-06-04 09:52:59,50.3705994234263
-1.235,2.241,9.577,5.0,2017-06-04 09:53:00,56.67805139839579
-1.245,2.25,9.586,6.0,2017-06-04 09:53:01,49.13798201197757
-1.216,2.26,9.586,6.0,2017-06-04 09:53:02,57.52811580806136
-1.225,2.26,9.557,6.0,2017-06-04 09:53:03,49.11075317293411
-1.235,2.26,9.596,6.0,2017-06-04 09:53:04,46.73336654968555
-1.235,2.269,9.577,6.0,2017-06-04 09:53:05,51.36572420255249
-1.225,2.25,9.586,5.0,2017-06-04 09:53:06,57.989851250211935
-1.216,2.26,9.625,7.0,2017-06-04 09:53:07,54.65247979143182
-1.225,2.26,9.586,5.0,2017-06-04 09:53:08,57.80688876144474
-1.216,2.25,9.557,5.0,2017-06-04 09:53:09,57.0815925399079
-1.197,2.26,9.596,6.0,2017-06-04 09:53:10,52.73592742374325
-1.216,2.241,9.548,5.0,2017-06-04 09:53:11,34.409548718541416
-1.197,2.269,9.615,7.0,2017-06-04 09:53:12,31.629801558763656
-1.197,2.231,9.577,6.0,2017-06-04 09:53:13,30.663182802906242
-1.168,2.25,9.567,6.0,2017-06-04 09:53:14,47.67449370946923
-1.245,2.269,9.577,6.0,2017-06-04 09:53:15,54.71968768042273
-1.216,2.26,9.567,7.0,2017-06-04 09:53:16,42.68496157376166
-1.225,2.26,9.605,5.0,2017-06-04 09:53:17,50.09521665896706
-1.225,2.26,9.586,8.0,2017-06-04 09:53:18,56.0516201456342
-1.235,2.269,9.605,7.0,2017-06-04 09:53:19,58.147903008853234
-1.216,2.26,9.586,6.0,2017-06-04 09:53:20,50.474860370689555
-1.254,2.279,9.567,6.0,2017-06-04 09:53:21,53.979197727920855
-1.206,2.241,9.577,8.0,2017-06-04 09:53:23,61.02785301971598
-1.235,2.231,9.577,6.0,2017-06-04 09:53:24,34.037714614147255
-1.235,2.241,9.615,6.0,2017-06-04 09:53:25,49.787383411871524
-1.216,2.269,9.625,5.0,2017-06-04 09:53:26,54.01156799410714
-1.216,2.269,9.634,7.0,2017-06-04 09:53:27,54.24801960941542
-1.225,2.25,9.577,6.0,2017-06-04 09:53:28,57.21165230560672
-1.206,2.25,9.586,6.0,2017-06-04 09:53:29,58.55627180531921
-1.245,2.241,9.596,6.0,2017-06-04 09:53:30,50.719418574093815
-1.235,2.269,9.605,8.0,2017-06-04 09:53:31,51.943224799696345
-1.216,2.25,9.557,8.0,2017-06-04 09:53:32,41.18013931213931
-1.235,2.26,9.596,7.0,2017-06-04 09:53:33,53.376845321176056
-1.235,2.231,9.586,6.0,2017-06-04 09:53:34,47.10953415383582
-1.216,2.26,9.577,7.0,2017-06-04 09:53:35,32.48505121907399
-1.245,2.288,9.586,7.0,2017-06-04 09:53:36,38.142362771591735
-1.216,2.241,9.586,6.0,2017-06-04 09:53:37,51.537861157888585
-1.225,2.26,9.586,7.0,2017-06-04 09:53:38,57.33831114014747
-1.216,2.279,9.605,5.0,2017-06-04 09:53:39,57.69561835632012
-1.245,2.241,9.596,7.0,2017-06-04 09:53:40,56.39492296502142
-1.216,2.279,9.567,6.0,2017-06-04 09:53:41,38.09356946575827
-1.216,2.279,9.586,8.0,2017-06-04 09:53:42,55.54959070776149
-1.216,2.26,9.596,8.0,2017-06-04 09:53:43,53.310445419258855
-1.216,2.26,9.557,5.0,2017-06-04 09:53:44,34.245439666915196
-1.206,2.269,9.615,7.0,2017-06-04 09:53:45,40.8100805860806
-1.206,2.25,9.586,6.0,2017-06-04 09:53:46,54.89363699557397
-1.235,2.241,9.577,8.0,2017-06-04 09:53:47,52.05660976291927
-1.216,2.269,9.567,6.0,2017-06-04 09:53:48,58.44784915229062
-1.216,2.26,9.557,7.0,2017-06-04 09:53:49,50.98893642223562
-1.216,2.241,9.625,8.0,2017-06-04 09:53:50,40.956862264321
-1.216,2.231,9.557,6.0,2017-06-04 09:53:51,52.75269755461234
-1.254,2.241,9.577,6.0,2017-06-04 09:53:52,49.8325782402879
-1.235,2.212,9.586,7.0,2017-06-04 09:53:53,52.265293225915165
-1.216,2.269,9.567,6.0,2017-06-04 09:53:54,51.92800510154531
-1.245,2.26,9.548,6.0,2017-06-04 09:53:55,58.23249533012139
-1.216,2.241,9.586,6.0,2017-06-04 09:53:56,51.65470628403103
-1.225,2.231,9.586,8.0,2017-06-04 09:53:57,44.771728382630265
-1.206,2.279,9.625,7.0,2017-06-04 09:53:58,47.85315352260868
-1.225,2.25,9.548,7.0,2017-06-04 09:54:00,54.053816255574645
-1.225,2.26,9.567,5.0,2017-06-04 09:54:01,56.139269617232216
-1.216,2.231,9.577,6.0,2017-06-04 09:54:02,55.07474414982496
-1.225,2.241,9.557,8.0,2017-06-04 09:54:03,55.860535909299486
-1.206,2.279,9.567,6.0,2017-06-04 09:54:04,52.982808637661904
-1.235,2.26,9.577,6.0,2017-06-04 09:54:05,48.887454812725
-1.206,2.279,9.557,8.0,2017-06-04 09:54:06,57.18194615441023
-1.197,2.279,9.615,6.0,2017-06-04 09:54:07,51.352217748851245
-1.225,2.241,9.586,5.0,2017-06-04 09:54:08,54.65734373689226
-1.197,2.26,9.615,5.0,2017-06-04 09:54:09,49.633458537511686
-1.245,2.269,9.586,5.0,2017-06-04 09:54:10,39.624678839828874
-1.254,2.25,9.567,5.0,2017-06-04 09:54:11,52.042559116708546
-1.254,2.241,9.567,6.0,2017-06-04 09:54:12,55.9324592239724
-1.225,2.26,9.577,6.0,2017-06-04 09:54:13,55.946693514259195
-1.206,2.26,9.605,6.0,2017-06-04 09:54:14,52.61032360585823
-1.254,2.25,9.567,6.0,2017-06-04 09:54:15,49.29745137751431
-1.216,2.279,9.586,7.0,2017-06-04 09:54:16,54.19899771284983
-1.225,2.241,9.567,6.0,2017-06-04 09:54:17,34.1433311405961
-1.206,2.241,9.577,6.0,2017-06-04 09:54:18,47.93221813542405
-1.216,2.25,9.615,7.0,2017-06-04 09:54:19,46.06677336889427
-1.245,2.241,9.577,8.0,2017-06-04 09:54:20,56.83060211143258
-1.206,2.25,9.577,8.0,2017-06-04 09:54:21,51.92276815072506
-1.235,2.25,9.605,7.0,2017-06-04 09:54:22,49.010575840275514
-1.206,2.26,9.577,7.0,2017-06-04 09:54:23,55.61408259238731
-1.235,2.269,9.577,6.0,2017-06-04 09:54:24,44.72608469131834
-1.216,2.25,9.596,7.0,2017-06-04 09:54:25,44.19712257181287
-1.235,2.25,9.596,5.0,2017-06-04 09:54:26,58.00869234003624
-1.235,2.25,9.548,7.0,2017-06-04 09:54:27,55.720860217858935
-1.235,2.288,9.596,5.0,2017-06-04 09:54:28,35.47957289061972
-1.254,2.26,9.567,8.0,2017-06-04 09:54:29,44.00001197796818
-1.216,2.26,9.577,7.0,2017-06-04 09:54:30,51.691152314507356
-1.206,2.25,9.596,8.0,2017-06-04 09:54:31,46.53377397507285
-1.312,2.269,9.586,7.0,2017-06-04 09:54:32,55.12871477433174
-1.245,2.269,9.625,7.0,2017-06-04 09:54:33,35.52104858073413
-1.235,2.269,9.615,7.0,2017-06-04 09:54:34,32.48201078937328
-1.225,2.25,9.605,6.0,2017-06-04 09:54:35,53.95024853934126
-1.206,2.269,9.548,7.0,2017-06-04 09:54:37,50.660760511624396
-1.225,2.241,9.605,7.0,2017-06-04 09:54:38,42.17083008415891
-1.245,2.269,9.596,7.0,2017-06-04 09:54:39,31.268648218483968
-1.225,2.25,9.577,8.0,2017-06-04 09:54:40,57.62286608744699
-1.225,2.26,9.538,7.0,2017-06-04 09:54:41,59.16215919464173
-1.225,2.25,9.577,7.0,2017-06-04 09:54:42,47.880595103443326
-1.235,2.25,9.596,8.0,2017-06-04 09:54:43,53.176523539189944
-1.216,2.25,9.577,7.0,2017-06-04 09:54:44,54.34584488447485
-1.245,2.25,9.557,6.0,2017-06-04 09:54:45,43.04926521109885
-1.216,2.25,9.567,8.0,2017-06-04 09:54:46,55.58944851166877
-1.235,2.231,9.567,8.0,2017-06-04 09:54:47,51.20724829131687
-1.245,2.269,9.586,7.0,2017-06-04 09:54:48,55.205013004585126
-1.254,2.231,9.596,6.0,2017-06-04 09:54:49,53.72621985332712
-1.225,2.25,9.596,10.0,2017-06-04 09:54:50,34.00086995353062
-1.225,2.231,9.586,7.0,2017-06-04 09:54:51,50.17148703836831
-1.245,2.269,9.567,7.0,2017-06-04 09:54:52,55.35546836771366
-1.216,2.25,9.615,7.0,2017-06-04 09:54:53,54.43907813931035
-1.225,2.269,9.548,8.0,2017-06-04 09:54:54,58.23637390726021
-1.225,2.241,9.596,7.0,2017-06-04 09:54:55,51.73943141772864
-1.206,2.231,9.586,7.0,2017-06-04 09:54:56,49.755139131385974
-1.225,2.269,9.567,10.0,2017-06-04 09:54:57,54.04777619520758
-1.216,2.25,9.567,8.0,2017-06-04 09:54:58,56.00289577824938
-1.235,2.26,9.577,8.0,2017-06-04 09:54:59,46.5445683796625
-1.216,2.26,9.615,11.0,2017-06-04 09:55:00,52.55267210693317
-1.216,2.26,9.605,8.0,2017-06-04 09:55:01,55.94383167928178
-1.216,2.241,9.586,6.0,2017-06-04 09:55:02,49.851018801749305
-1.225,2.26,9.596,2.0,2017-06-04 09:55:03,57.4637415641466
-1.321,2.442,9.567,5.0,2017-06-04 09:55:04,37.36890374519494
-0.957,2.231,9.653,6.0,2017-06-04 09:55:05,56.57967772068623
-1.245,2.25,9.548,10.0,2017-06-04 09:55:06,55.253357795162295
-1.225,2.231,9.586,8.0,2017-06-04 09:55:07,46.08322891061138
-1.091,2.221,9.663,10.0,2017-06-04 09:55:08,44.59670974729129
7.958,6.091,7.211,0.0,2017-06-04 09:55:09,52.94818101762152
2.288,-1.168,8.878,7.0,2017-06-04 09:55:10,53.7865169108352
3.447,2.873,10.554,6.0,2017-06-04 09:55:11,47.00103254545724
-0.766,-1.321,7.623,23.0,2017-06-04 09:55:12,51.76448960746573
0.488,-4.692,9.155,13.0,2017-06-04 09:55:13,61.02373903929849
0.354,-5.554,8.083,14.0,2017-06-04 09:55:14,57.57608489183972
1.13,-4.003,9.481,16.0,2017-06-04 09:55:15,57.696126515735024
1.915,0.028,9.864,19.0,2017-06-04 09:55:16,56.55573230316837
-0.325,-1.264,11.53,20.0,2017-06-04 09:55:17,47.29987064267807
5.736,-2.355,8.686,20.0,2017-06-04 09:55:18,52.667281726801995
2.528,-0.718,9.529,20.0,2017-06-04 09:55:19,55.69588371176761
2.509,-0.737,9.519,24.0,2017-06-04 09:55:20,51.308997573550215
2.537,-0.718,9.481,24.0,2017-06-04 09:55:21,42.72815141521796
2.518,-0.718,9.452,24.0,2017-06-04 09:55:23,54.16220254026711
2.509,-0.747,9.529,24.0,2017-06-04 09:55:24,53.8943615342361
2.499,-0.699,9.5,24.0,2017-06-04 09:55:25,56.40659849185238
2.509,-0.699,9.462,25.0,2017-06-04 09:55:26,49.236130297373435
2.509,-0.708,9.5,24.0,2017-06-04 09:55:27,37.872551484527946
2.499,-0.718,9.5,25.0,2017-06-04 09:55:28,49.06538469714555
2.528,-0.737,9.51,25.0,2017-06-04 09:55:29,60.05315661171464
2.518,-0.699,9.5,25.0,2017-06-04 09:55:30,46.20976668161683
2.509,-0.708,9.519,25.0,2017-06-04 09:55:31,50.72707711959575
2.499,-0.727,9.481,24.0,2017-06-04 09:55:32,53.005306666167655
2.528,-0.727,9.548,23.0,2017-06-04 09:55:33,53.256432100574415
2.509,-0.718,9.471,25.0,2017-06-04 09:55:34,52.75498705768158
2.518,-0.708,9.51,24.0,2017-06-04 09:55:35,48.82842169481414
2.509,-0.718,9.462,24.0,2017-06-04 09:55:36,54.4194265509786
2.509,-0.708,9.5,24.0,2017-06-04 09:55:37,50.996584907814224
2.537,-0.708,9.529,25.0,2017-06-04 09:55:38,55.36450100784376
2.518,-0.718,9.49,24.0,2017-06-04 09:55:39,55.983965072852044
2.509,-0.708,9.49,24.0,2017-06-04 09:55:40,42.52710609004637
2.518,-0.718,9.538,24.0,2017-06-04 09:55:41,53.130964600556936
2.509,-0.718,9.51,24.0,2017-06-04 09:55:42,37.03417502731289
2.528,-0.708,9.49,23.0,2017-06-04 09:55:43,55.94778691950849
2.518,-0.727,9.548,24.0,2017-06-04 09:55:44,32.591368626265826
2.49,-0.727,9.51,25.0,2017-06-04 09:55:45,54.792131159131436
2.509,-0.727,9.49,25.0,2017-06-04 09:55:46,56.202216375650465
2.509,-0.708,9.529,24.0,2017-06-04 09:55:47,53.41888313422598
2.518,-0.727,9.481,22.0,2017-06-04 09:55:48,52.41815399515978
2.537,-0.708,9.529,23.0,2017-06-04 09:55:49,52.47369502748424
2.528,-0.727,9.49,23.0,2017-06-04 09:55:50,56.17630817861158
2.509,-0.708,9.452,23.0,2017-06-04 09:55:51,52.212157904187904
2.528,-0.727,9.462,24.0,2017-06-04 09:55:52,32.725857792762525
2.518,-0.679,9.519,23.0,2017-06-04 09:55:53,51.60448051738946
2.518,-0.708,9.529,24.0,2017-06-04 09:55:54,50.50272607565493
2.528,-0.737,9.5,25.0,2017-06-04 09:55:55,52.36554971156377
2.509,-0.699,9.519,23.0,2017-06-04 09:55:56,29.62850073133193
2.509,-0.689,9.471,24.0,2017-06-04 09:55:57,56.59598527048046
2.499,-0.679,9.49,24.0,2017-06-04 09:55:58,53.82706580415555
2.518,-0.708,9.519,24.0,2017-06-04 09:55:59,53.795888196189594
2.499,-0.727,9.49,25.0,2017-06-04 09:56:00,56.607582209000725
2.509,-0.718,9.5,26.0,2017-06-04 09:56:01,43.28724931249187
2.547,-0.67,9.51,24.0,2017-06-04 09:56:02,52.70905245807802
2.509,-0.699,9.5,24.0,2017-06-04 09:56:04,31.29811320817062
2.537,-0.699,9.49,24.0,2017-06-04 09:56:05,47.62196005124727
2.537,-0.679,9.471,22.0,2017-06-04 09:56:06,54.59096748989549
2.518,-0.708,9.49,24.0,2017-06-04 09:56:07,33.46909317576605
2.49,-0.699,9.471,24.0,2017-06-04 09:56:08,32.42738155952412
2.499,-0.727,9.481,23.0,2017-06-04 09:56:09,52.25855317997062
2.537,-0.718,9.51,24.0,2017-06-04 09:56:10,55.78582761982738
2.518,-0.708,9.529,24.0,2017-06-04 09:56:11,38.64804560328294
2.537,-0.708,9.519,24.0,2017-06-04 09:56:12,42.15323067048165
2.528,-0.718,9.538,23.0,2017-06-04 09:56:13,30.806229643518307
2.49,-0.699,9.481,22.0,2017-06-04 09:56:14,54.52626546464722
2.528,-0.679,9.471,24.0,2017-06-04 09:56:15,54.45838287009057
2.537,-0.708,9.567,22.0,2017-06-04 09:56:16,52.26031412054663
2.518,-0.708,9.529,22.0,2017-06-04 09:56:17,50.651694525418726
2.499,-0.689,9.49,23.0,2017-06-04 09:56:18,35.97296698542206
2.528,-0.708,9.5,23.0,2017-06-04 09:56:19,50.94876783398935
2.528,-0.708,9.471,23.0,2017-06-04 09:56:20,56.42802643561653
2.509,-0.708,9.462,23.0,2017-06-04 09:56:21,52.29549011560374
2.537,-0.718,9.481,24.0,2017-06-04 09:56:22,55.193452792590456
2.509,-0.66,9.49,20.0,2017-06-04 09:56:23,52.28280271235906
2.499,-0.727,9.49,22.0,2017-06-04 09:56:24,52.756722743660106
2.518,-0.708,9.481,23.0,2017-06-04 09:56:25,36.618309803391924
2.528,-0.708,9.5,23.0,2017-06-04 09:56:26,53.97527292247294
2.528,-0.679,9.49,22.0,2017-06-04 09:56:27,56.55604436123057
2.518,-0.708,9.529,20.0,2017-06-04 09:56:28,33.44641106489818
2.518,-0.718,9.529,22.0,2017-06-04 09:56:29,50.97628833398814
2.499,-0.699,9.481,20.0,2017-06-04 09:56:30,51.0870808636796
2.528,-0.699,9.529,23.0,2017-06-04 09:56:31,52.326961049080836
2.528,-0.689,9.51,20.0,2017-06-04 09:56:32,33.432133220462326
2.509,-0.699,9.471,20.0,2017-06-04 09:56:33,40.740786812768725
2.537,-0.689,9.49,20.0,2017-06-04 09:56:34,57.101527107825454
2.528,-0.679,9.51,22.0,2017-06-04 09:56:35,48.88847075275734
2.528,-0.689,9.529,22.0,2017-06-04 09:56:36,48.10909898362802
2.509,-0.689,9.471,20.0,2017-06-04 09:56:37,30.667141907719916
2.528,-0.699,9.519,20.0,2017-06-04 09:56:38,32.413825425570884
2.509,-0.708,9.481,22.0,2017-06-04 09:56:39,50.115611393819044
2.528,-0.699,9.529,22.0,2017-06-04 09:56:40,51.45142530666787
2.537,-0.689,9.519,17.0,2017-06-04 09:56:41,48.318641027109194
2.537,-0.718,9.529,22.0,2017-06-04 09:56:42,50.6646600656986
2.518,-0.718,9.529,20.0,2017-06-04 09:56:43,36.43084986065333
2.518,-0.708,9.481,20.0,2017-06-04 09:56:44,54.530031286226134
2.537,-0.708,9.5,19.0,2017-06-04 09:56:45,52.55750827897944
2.528,-0.689,9.519,22.0,2017-06-04 09:56:46,53.91851006381778
2.537,-0.747,9.538,20.0,2017-06-04 09:56:47,30.05950948189072
2.509,-0.718,9.519,22.0,2017-06-04 09:56:49,53.552501878160975
2.509,-0.679,9.5,20.0,2017-06-04 09:56:50,54.541876607577706
2.509,-0.689,9.462,20.0,2017-06-04 09:56:51,50.93728075902084
2.509,-0.689,9.51,19.0,2017-06-04 09:56:52,55.421745878645076
2.547,-0.708,9.49,22.0,2017-06-04 09:56:53,55.00348339030737
2.537,-0.699,9.49,22.0,2017-06-04 09:56:54,55.03594678764912
2.518,-0.689,9.481,20.0,2017-06-04 09:56:55,45.398788717870424
2.528,-0.699,9.471,19.0,2017-06-04 09:56:56,45.86639568843108
2.518,-0.679,9.519,20.0,2017-06-04 09:56:57,49.51958593760082
2.509,-0.67,9.481,20.0,2017-06-04 09:56:58,54.34736561093084
2.528,-0.699,9.481,20.0,2017-06-04 09:56:59,29.703877419877145
2.509,-0.699,9.5,20.0,2017-06-04 09:57:00,55.955411639240566
2.518,-0.651,9.471,20.0,2017-06-04 09:57:01,55.91603759363192
2.509,-0.718,9.471,20.0,2017-06-04 09:57:02,35.845012791385734
2.537,-0.699,9.519,20.0,2017-06-04 09:57:03,58.17008010645556
2.518,-0.718,9.51,19.0,2017-06-04 09:57:04,36.37241834484675
2.518,-0.689,9.49,19.0,2017-06-04 09:57:05,49.570681900533
2.547,-0.689,9.462,19.0,2017-06-04 09:57:06,55.145127701361716
2.528,-0.689,9.51,22.0,2017-06-04 09:57:07,54.00316610347646
2.518,-0.718,9.51,20.0,2017-06-04 09:57:08,48.04554374743475
2.518,-0.699,9.529,20.0,2017-06-04 09:57:09,35.14476412355381
2.509,-0.708,9.519,23.0,2017-06-04 09:57:10,31.99317453541886
2.537,-0.708,9.5,22.0,2017-06-04 09:57:11,53.3087548694362
2.547,-0.689,9.538,19.0,2017-06-04 09:57:12,54.03976954824908
2.509,-0.718,9.5,20.0,2017-06-04 09:57:13,56.51747366187909
2.509,-0.679,9.481,22.0,2017-06-04 09:57:14,41.302594319291174
2.528,-0.689,9.462,19.0,2017-06-04 09:57:15,55.242541577103516
2.509,-0.699,9.529,20.0,2017-06-04 09:57:16,33.350378916739224
2.537,-0.66,9.51,20.0,2017-06-04 09:57:17,53.259082198436936
2.518,-0.699,9.519,20.0,2017-06-04 09:57:18,48.94694810244544
2.509,-0.708,9.452,20.0,2017-06-04 09:57:19,53.2724809531713
2.537,-0.689,9.51,20.0,2017-06-04 09:57:20,54.39063321511238
2.518,-0.679,9.567,20.0,2017-06-04 09:57:21,57.17540136919344
2.528,-0.699,9.481,20.0,2017-06-04 09:57:22,50.31718786325719
2.547,-0.679,9.519,19.0,2017-06-04 09:57:23,47.45517179746415
2.518,-0.699,9.51,20.0,2017-06-04 09:57:24,54.08499516130633
2.518,-0.699,9.538,20.0,2017-06-04 09:57:25,54.30884572729245
2.537,-0.689,9.49,22.0,2017-06-04 09:57:26,50.32928361160672
2.528,-0.708,9.5,19.0,2017-06-04 09:57:27,32.671066160302054
2.537,-0.679,9.49,20.0,2017-06-04 09:57:28,32.412711072006374
2.518,-0.689,9.49,22.0,2017-06-04 09:57:29,53.50440889451765
2.528,-0.67,9.481,22.0,2017-06-04 09:57:31,54.670548784473326
2.528,-0.679,9.5,20.0,2017-06-04 09:57:32,53.280342698431454
2.537,-0.689,9.462,19.0,2017-06-04 09:57:33,31.244707910030645
2.537,-0.679,9.462,20.0,2017-06-04 09:57:34,52.67335658299453
2.528,-0.689,9.471,22.0,2017-06-04 09:57:35,55.39865406914022
2.509,-0.689,9.51,20.0,2017-06-04 09:57:36,53.462024140264134
2.537,-0.67,9.519,19.0,2017-06-04 09:57:37,54.442629684711854
2.528,-0.689,9.51,22.0,2017-06-04 09:57:38,55.818736118454794
2.518,-0.756,9.49,20.0,2017-06-04 09:57:39,55.04135967396439
2.499,-0.689,9.51,24.0,2017-06-04 09:57:40,53.416486183485404
2.528,-0.67,9.51,23.0,2017-06-04 09:57:41,50.7202058476939
2.528,-0.699,9.51,20.0,2017-06-04 09:57:42,34.15983687791379
2.566,-0.679,9.519,19.0,2017-06-04 09:57:43,49.51761176359859
2.499,-0.699,9.519,22.0,2017-06-04 09:57:44,31.960252481338102
2.537,-0.689,9.538,22.0,2017-06-04 09:57:45,53.235710550361254
2.537,-0.67,9.519,20.0,2017-06-04 09:57:46,32.979732646419954
2.499,-0.67,9.557,19.0,2017-06-04 09:57:47,28.22964481838483
2.537,-0.689,9.49,23.0,2017-06-04 09:57:48,55.56040115382518
2.518,-0.718,9.519,20.0,2017-06-04 09:57:49,50.3234271072569
2.547,-0.689,9.49,23.0,2017-06-04 09:57:50,54.05777423316647
2.518,-0.679,9.49,20.0,2017-06-04 09:57:51,55.65601109195427
2.518,-0.708,9.481,23.0,2017-06-04 09:57:52,43.46061535942572
2.537,-0.699,9.51,22.0,2017-06-04 09:57:53,30.38500632568131
2.518,-0.679,9.5,23.0,2017-06-04 09:57:54,55.914125100380794
2.528,-0.699,9.5,22.0,2017-06-04 09:57:55,42.6057146328434
2.518,-0.679,9.519,19.0,2017-06-04 09:57:56,47.43936595025413
2.518,-0.699,9.51,22.0,2017-06-04 09:57:57,54.17365255501936
2.547,-0.67,9.557,20.0,2017-06-04 09:57:58,47.45999949072616
2.499,-0.66,9.481,22.0,2017-06-04 09:57:59,50.39351980811925
2.537,-0.67,9.519,23.0,2017-06-04 09:58:00,45.94923050745824
2.528,-0.67,9.5,22.0,2017-06-04 09:58:01,48.55933532498996
2.547,-0.679,9.51,23.0,2017-06-04 09:58:02,57.26114193571633
2.557,-0.689,9.51,24.0,2017-06-04 09:58:03,54.28133429893297
2.509,-0.708,9.5,24.0,2017-06-04 09:58:04,51.762858675908205
2.537,-0.679,9.519,22.0,2017-06-04 09:58:05,52.29733440413036
2.537,-0.66,9.529,22.0,2017-06-04 09:58:06,57.74537818177426
2.537,-0.689,9.519,23.0,2017-06-04 09:58:08,55.318319134866115
2.499,-0.651,9.452,23.0,2017-06-04 09:58:09,48.85081119479685
2.528,-0.699,9.481,22.0,2017-06-04 09:58:10,52.64672488356019
2.537,-0.689,9.433,22.0,2017-06-04 09:58:11,35.75850809018531
2.528,-0.66,9.519,23.0,2017-06-04 09:58:12,54.90659947637993
2.547,-0.689,9.471,23.0,2017-06-04 09:58:13,46.93374987771541
2.509,-0.679,9.471,22.0,2017-06-04 09:58:14,54.849243017285694
2.509,-0.679,9.49,23.0,2017-06-04 09:58:15,54.44370746843654
2.518,-0.679,9.5,22.0,2017-06-04 09:58:16,56.267620394157646
2.537,-0.689,9.5,22.0,2017-06-04 09:58:17,54.33826941294076
2.557,-0.66,9.538,24.0,2017-06-04 09:58:18,53.047019324920335
2.518,-0.689,9.49,23.0,2017-06-04 09:58:19,37.27155966873028
2.518,-0.67,9.481,22.0,2017-06-04 09:58:20,52.554514945217036
2.499,-0.67,9.5,24.0,2017-06-04 09:58:21,42.97089569793164
2.547,-0.66,9.5,24.0,2017-06-04 09:58:22,54.936075685882315
2.518,-0.67,9.471,24.0,2017-06-04 09:58:23,30.31151156936336
2.537,-0.699,9.481,26.0,2017-06-04 09:58:24,44.64173689083751
2.528,-0.689,9.519,24.0,2017-06-04 09:58:25,34.579133717763874
2.537,-0.689,9.471,25.0,2017-06-04 09:58:26,56.07269240701312
2.528,-0.66,9.529,25.0,2017-06-04 09:58:27,54.32541913197795
2.547,-0.699,9.481,24.0,2017-06-04 09:58:28,53.03321514245896
2.537,-0.689,9.519,25.0,2017-06-04 09:58:29,40.308178910913895
2.537,-0.689,9.5,23.0,2017-06-04 09:58:30,50.36955474170742
2.537,-0.66,9.481,25.0,2017-06-04 09:58:31,33.319286301460146
2.528,-0.66,9.481,24.0,2017-06-04 09:58:32,53.41125227354544
2.537,-0.679,9.51,25.0,2017-06-04 09:58:33,29.623221577511202
2.547,-0.689,9.481,25.0,2017-06-04 09:58:34,51.62792479454901
2.537,-0.67,9.471,25.0,2017-06-04 09:58:35,50.77750246709965
2.528,-0.679,9.49,24.0,2017-06-04 09:58:36,30.206917890410033
2.537,-0.651,9.557,25.0,2017-06-04 09:58:37,29.82951935154297
2.537,-0.67,9.51,25.0,2017-06-04 09:58:38,55.08368330387281
2.537,-0.699,9.548,25.0,2017-06-04 09:58:39,36.79243926301319
2.518,-0.689,9.5,25.0,2017-06-04 09:58:40,53.689699420626155
2.537,-0.689,9.5,25.0,2017-06-04 09:58:41,61.931529242817504
2.518,-0.679,9.51,25.0,2017-06-04 09:58:42,50.05425504316429
2.557,-0.679,9.529,25.0,2017-06-04 09:58:44,51.31933463971584
2.537,-0.689,9.5,25.0,2017-06-04 09:58:45,31.778505982859905
2.537,-0.689,9.49,25.0,2017-06-04 09:58:46,27.760439458831424
2.499,-0.699,9.481,24.0,2017-06-04 09:58:47,52.03354580248682
2.537,-0.641,9.49,26.0,2017-06-04 09:58:48,50.725868867506556
2.537,-0.689,9.49,25.0,2017-06-04 09:58:49,39.83547975004776
2.528,-0.67,9.49,25.0,2017-06-04 09:58:50,51.1432819724297
2.528,-0.689,9.471,26.0,2017-06-04 09:58:51,52.31182401021765
2.518,-0.689,9.519,25.0,2017-06-04 09:58:52,49.21893039269706
2.518,-0.67,9.51,25.0,2017-06-04 09:58:53,49.14951834919758
2.528,-0.689,9.471,26.0,2017-06-04 09:58:54,52.182945334762096
2.518,-0.679,9.538,26.0,2017-06-04 09:58:55,53.63823235431902
2.528,-0.679,9.51,26.0,2017-06-04 09:58:56,54.76133704667583
2.518,-0.67,9.51,28.0,2017-06-04 09:58:57,40.48516263994132
2.537,-0.699,9.5,25.0,2017-06-04 09:58:58,50.4213233734147
2.518,-0.699,9.538,25.0,2017-06-04 09:58:59,57.41051362817405
2.537,-0.689,9.49,25.0,2017-06-04 09:59:00,55.55061298949504
2.518,-0.699,9.49,24.0,2017-06-04 09:59:01,32.47944272173469
2.518,-0.679,9.51,25.0,2017-06-04 09:59:02,29.8573513113369
2.518,-0.651,9.481,26.0,2017-06-04 09:59:03,51.77440588465763
2.537,-0.679,9.49,24.0,2017-06-04 09:59:04,48.9666737986493
2.537,-0.689,9.519,28.0,2017-06-04 09:59:05,30.032277951710263
2.528,-0.689,9.49,24.0,2017-06-04 09:59:06,52.77276306983887
2.518,-0.679,9.5,24.0,2017-06-04 09:59:07,53.410614227055014
2.537,-0.679,9.519,25.0,2017-06-04 09:59:08,57.139149632382654
2.566,-0.708,9.51,25.0,2017-06-04 09:59:09,57.0541072258764
2.518,-0.67,9.462,26.0,2017-06-04 09:59:10,54.278533954817114
2.528,-0.679,9.471,25.0,2017-06-04 09:59:11,50.33382704644439
2.547,-0.679,9.5,25.0,2017-06-04 09:59:12,55.82440944817867
2.518,-0.679,9.49,26.0,2017-06-04 09:59:13,32.051200085555905
2.557,-0.67,9.5,28.0,2017-06-04 09:59:14,50.01461124491833
2.537,-0.67,9.51,24.0,2017-06-04 09:59:15,49.92778417807996
2.537,-0.67,9.5,25.0,2017-06-04 09:59:16,53.69746486100826
2.537,-0.66,9.529,25.0,2017-06-04 09:59:17,55.86149801308504
2.509,-0.679,9.519,26.0,2017-06-04 09:59:18,51.23277969420842
2.537,-0.67,9.51,25.0,2017-06-04 09:59:19,57.689580519971756
2.518,-0.708,9.51,25.0,2017-06-04 09:59:20,34.15767186468673
2.518,-0.66,9.481,25.0,2017-06-04 09:59:21,54.40328322318883
2.528,-0.679,9.5,24.0,2017-06-04 09:59:22,49.97089581210929
2.509,-0.679,9.519,25.0,2017-06-04 09:59:24,32.056914007565226
2.537,-0.689,9.471,25.0,2017-06-04 09:59:25,30.24129553165931
2.547,-0.689,9.519,24.0,2017-06-04 09:59:26,54.90901865028884
2.547,-0.66,9.5,25.0,2017-06-04 09:59:27,49.20418429907719
2.537,-0.699,9.49,25.0,2017-06-04 09:59:28,53.863269146737665
2.528,-0.689,9.5,25.0,2017-06-04 09:59:29,51.67875876257093
2.566,-0.699,9.471,25.0,2017-06-04 09:59:30,48.35802313152057
2.557,-0.689,9.481,25.0,2017-06-04 09:59:31,43.58924104033069
2.518,-0.679,9.462,26.0,2017-06-04 09:59:32,36.407717184700616
2.518,-0.67,9.462,24.0,2017-06-04 09:59:33,56.22288800577217
2.537,-0.689,9.452,26.0,2017-06-04 09:59:34,45.620500862311424
2.528,-0.679,9.538,25.0,2017-06-04 09:59:35,53.323174438322994
2.537,-0.689,9.481,24.0,2017-06-04 09:59:36,50.46823327976121
2.528,-0.679,9.519,25.0,2017-06-04 09:59:37,31.5900643471357
2.528,-0.641,9.538,26.0,2017-06-04 09:59:38,57.706824875476066
2.528,-0.689,9.49,25.0,2017-06-04 09:59:39,54.03700715997671
2.537,-0.67,9.538,26.0,2017-06-04 09:59:40,51.9070075455972
2.528,-0.699,9.5,26.0,2017-06-04 09:59:41,49.10520775953715
2.537,-0.67,9.462,25.0,2017-06-04 09:59:42,50.58414468633228
2.509,-0.699,9.5,25.0,2017-06-04 09:59:43,32.04702221141096
2.528,-0.66,9.49,24.0,2017-06-04 09:59:44,46.74974964572958
2.547,-0.67,9.548,25.0,2017-06-04 09:59:45,49.74337298049007
2.528,-0.67,9.548,25.0,2017-06-04 09:59:46,43.81722701584121
2.537,-0.689,9.548,26.0,2017-06-04 09:59:47,57.3059022546608
2.557,-0.67,9.538,28.0,2017-06-04 09:59:48,50.59894490176131
2.499,-0.689,9.519,26.0,2017-06-04 09:59:49,51.47550375310857
2.518,-0.67,9.529,25.0,2017-06-04 09:59:50,56.879341475057316
2.547,-0.679,9.538,25.0,2017-06-04 09:59:51,51.47644645717742
2.537,-0.689,9.5,26.0,2017-06-04 09:59:52,34.796365966848846
2.547,-0.67,9.462,24.0,2017-06-04 09:59:53,54.182004792957564
2.518,-0.679,9.49,26.0,2017-06-04 09:59:54,52.62208817335698
2.537,-0.651,9.5,25.0,2017-06-04 09:59:55,54.11387654332749
2.528,-0.66,9.5,25.0,2017-06-04 09:59:57,38.98759773487758
2.557,-0.66,9.51,26.0,2017-06-04 09:59:58,52.07747909328275
2.547,-0.66,9.529,25.0,2017-06-04 09:59:59,51.33262796136617
2.49,-0.679,9.49,26.0,2017-06-04 10:00:00,51.79117186172006
2.547,-0.699,9.471,23.0,2017-06-04 10:00:01,56.55446424993179
2.528,-0.679,9.519,25.0,2017-06-04 10:00:02,40.91269136924161
2.518,-0.679,9.529,25.0,2017-06-04 10:00:03,53.83290296646865
2.537,-0.67,9.481,25.0,2017-06-04 10:00:04,33.364933490919114
2.528,-0.679,9.471,25.0,2017-06-04 10:00:05,54.884816118138524
2.528,-0.67,9.471,24.0,2017-06-04 10:00:06,35.29818452318382
2.509,-0.67,9.5,25.0,2017-06-04 10:00:07,49.671214437152464
2.518,-0.66,9.538,25.0,2017-06-04 10:00:08,54.013323504138285
2.528,-0.67,9.529,25.0,2017-06-04 10:00:09,49.21418341443453
2.528,-0.679,9.529,25.0,2017-06-04 10:00:10,36.157493461852894
2.528,-0.67,9.49,24.0,2017-06-04 10:00:11,55.50724385402853
2.528,-0.67,9.49,26.0,2017-06-04 10:00:12,35.628316799002576
2.537,-0.689,9.5,24.0,2017-06-04 10:00:13,57.46293514877134
2.547,-0.67,9.49,26.0,2017-06-04 10:00:14,51.759398629476756
2.537,-0.679,9.538,25.0,2017-06-04 10:00:15,35.26668599517909
2.537,-0.66,9.51,26.0,2017-06-04 10:00:16,56.94076815026355
2.537,-0.689,9.519,25.0,2017-06-04 10:00:17,37.27641873574241
2.509,-0.689,9.49,23.0,2017-06-04 10:00:18,53.6643616572111
2.547,-0.679,9.5,25.0,2017-06-04 10:00:19,36.703164426648655
2.528,-0.679,9.548,25.0,2017-06-04 10:00:20,43.01418121313543
2.537,-0.689,9.519,24.0,2017-06-04 10:00:21,49.723857573988994
2.518,-0.679,9.548,25.0,2017-06-04 10:00:22,43.551694018598724
2.557,-0.689,9.5,24.0,2017-06-04 10:00:23,45.28785066436319
2.528,-0.67,9.529,25.0,2017-06-04 10:00:24,53.19154452588768
2.518,-0.679,9.5,25.0,2017-06-04 10:00:25,38.82215651891475
2.537,-0.67,9.471,25.0,2017-06-04 10:00:26,52.91980676705573
2.528,-0.66,9.5,24.0,2017-06-04 10:00:27,44.086097824954294
2.518,-0.699,9.49,26.0,2017-06-04 10:00:28,31.520738441836748
2.518,-0.679,9.5,28.0,2017-06-04 10:00:29,30.078831572951458
2.557,-0.67,9.5,25.0,2017-06-04 10:00:30,52.51193103362894
2.537,-0.679,9.443,24.0,2017-06-04 10:00:31,54.48140841137718
2.537,-0.67,9.5,25.0,2017-06-04 10:00:32,56.548067867242494
2.509,-0.641,9.49,24.0,2017-06-04 10:00:33,55.500256298128946
2.518,-0.67,9.49,24.0,2017-06-04 10:00:34,50.03051261215056
2.537,-0.651,9.529,26.0,2017-06-04 10:00:35,37.00078837695722
2.537,-0.67,9.529,24.0,2017-06-04 10:00:36,52.91389901778689
2.518,-0.699,9.51,25.0,2017-06-04 10:00:37,53.7254212263898
2.518,-0.651,9.529,26.0,2017-06-04 10:00:38,54.75058112864104
2.528,-0.67,9.5,26.0,2017-06-04 10:00:40,51.97109235449095
2.49,-0.67,9.471,25.0,2017-06-04 10:00:41,48.50581416613301
2.509,-0.679,9.471,24.0,2017-06-04 10:00:42,57.44303634027559
2.547,-0.689,9.529,25.0,2017-06-04 10:00:43,50.021744173885246
2.528,-0.67,9.471,25.0,2017-06-04 10:00:44,49.32855672439018
2.537,-0.66,9.557,25.0,2017-06-04 10:00:45,38.81646459539167
2.537,-0.679,9.5,24.0,2017-06-04 10:00:46,56.50679875578269
2.528,-0.67,9.443,25.0,2017-06-04 10:00:47,56.87189339945491
2.537,-0.67,9.49,25.0,2017-06-04 10:00:48,56.51902313061555
2.557,-0.641,9.51,25.0,2017-06-04 10:00:49,34.073767947170964
2.537,-0.699,9.462,24.0,2017-06-04 10:00:50,33.28661260312818
2.528,-0.67,9.538,25.0,2017-06-04 10:00:51,55.48264327378374
2.557,-0.66,9.538,25.0,2017-06-04 10:00:52,38.950387838441216
2.537,-0.651,9.529,25.0,2017-06-04 10:00:53,35.34944918863513
2.557,-0.67,9.5,25.0,2017-06-04 10:00:54,54.27511797766002
2.547,-0.689,9.538,25.0,2017-06-04 10:00:55,48.468952569120525
2.557,-0.67,9.51,25.0,2017-06-04 10:00:56,52.08883135815293
2.509,-0.66,9.519,25.0,2017-06-04 10:00:57,39.875268777907415
2.528,-0.689,9.443,25.0,2017-06-04 10:00:58,32.811827812649206
2.547,-0.679,9.5,25.0,2017-06-04 10:00:59,55.18984142660324
2.528,-0.679,9.51,25.0,2017-06-04 10:01:00,53.0979940858689
2.547,-0.66,9.49,25.0,2017-06-04 10:01:01,55.605477836733066
2.518,-0.66,9.5,25.0,2017-06-04 10:01:02,52.713631492183836
2.518,-0.679,9.481,24.0,2017-06-04 10:01:03,58.799714826006976
2.528,-0.679,9.481,26.0,2017-06-04 10:01:04,32.24706265545929
2.547,-0.689,9.481,25.0,2017-06-04 10:01:05,54.79348789912216
2.537,-0.679,9.462,26.0,2017-06-04 10:01:06,49.70272608764269
2.528,-0.699,9.519,26.0,2017-06-04 10:01:07,49.541435331182015
2.509,-0.66,9.51,25.0,2017-06-04 10:01:08,33.74714522807715
2.509,-0.67,9.5,25.0,2017-06-04 10:01:09,31.92927176564973
2.537,-0.689,9.5,25.0,2017-06-04 10:01:10,55.25680737594441
2.537,-0.641,9.481,25.0,2017-06-04 10:01:11,41.97769564136921
2.528,-0.651,9.471,23.0,2017-06-04 10:01:12,54.89591799487917
2.557,-0.67,9.51,24.0,2017-06-04 10:01:13,48.3642735644314
2.537,-0.66,9.471,24.0,2017-06-04 10:01:14,49.48682711279238
2.537,-0.66,9.471,26.0,2017-06-04 10:01:15,36.38476972050122
2.537,-0.641,9.519,25.0,2017-06-04 10:01:16,55.6626395334651
2.557,-0.689,9.548,25.0,2017-06-04 10:01:17,50.9055887793432
2.528,-0.679,9.49,26.0,2017-06-04 10:01:18,52.953325704544135
2.528,-0.679,9.462,25.0,2017-06-04 10:01:20,54.06836758891039
2.557,-0.66,9.51,23.0,2017-06-04 10:01:21,54.65369674612647
2.528,-0.651,9.519,25.0,2017-06-04 10:01:22,36.54948855004841
2.528,-0.727,9.519,25.0,2017-06-04 10:01:23,54.882175422374544
2.566,-0.651,9.519,25.0,2017-06-04 10:01:24,32.756298307586405
2.528,-0.66,9.49,24.0,2017-06-04 10:01:25,47.67423114479155
2.547,-0.66,9.49,25.0,2017-06-04 10:01:26,34.240795409305136
2.509,-0.641,9.548,25.0,2017-06-04 10:01:27,33.376961164985644
2.557,-0.66,9.529,26.0,2017-06-04 10:01:28,47.818695554238495
2.528,-0.67,9.529,25.0,2017-06-04 10:01:29,34.91722999530638
2.547,-0.66,9.471,25.0,2017-06-04 10:01:30,57.16936585546285
2.547,-0.679,9.49,26.0,2017-06-04 10:01:31,51.81211161810755
2.518,-0.699,9.471,23.0,2017-06-04 10:01:32,29.475667761825658
2.528,-0.67,9.529,25.0,2017-06-04 10:01:33,52.58307251918125
2.528,-0.67,9.481,25.0,2017-06-04 10:01:34,35.39434855424261
2.518,-0.679,9.385,25.0,2017-06-04 10:01:35,56.75324340020268
2.557,-0.651,9.471,25.0,2017-06-04 10:01:36,50.45870964856359
2.557,-0.66,9.5,25.0,2017-06-04 10:01:37,47.36567795672569
2.528,-0.67,9.529,25.0,2017-06-04 10:01:38,47.34231111089347
2.528,-0.679,9.51,25.0,2017-06-04 10:01:39,42.818230584143805
2.518,-0.67,9.471,25.0,2017-06-04 10:01:40,53.10245918851544
2.537,-0.651,9.5,25.0,2017-06-04 10:01:41,30.09317664854705
2.547,-0.679,9.49,24.0,2017-06-04 10:01:42,53.682576916828104
2.528,-0.689,9.5,24.0,2017-06-04 10:01:43,51.46119992552354
2.537,-0.641,9.481,23.0,2017-06-04 10:01:44,55.04900477592053
2.528,-0.689,9.538,25.0,2017-06-04 10:01:45,35.943382644892196
2.547,-0.67,9.462,24.0,2017-06-04 10:01:46,54.397142934981595
2.537,-0.67,9.49,25.0,2017-06-04 10:01:47,55.59638395943091
2.537,-0.651,9.51,25.0,2017-06-04 10:01:48,54.4144299661749
2.537,-0.679,9.5,24.0,2017-06-04 10:01:49,50.49050445706492
2.537,-0.67,9.519,25.0,2017-06-04 10:01:50,52.53356862918573
2.537,-0.679,9.49,25.0,2017-06-04 10:01:51,55.81254759019312
2.547,-0.66,9.51,24.0,2017-06-04 10:01:52,52.44856272266425
2.537,-0.67,9.471,26.0,2017-06-04 10:01:53,53.97068675006974
2.547,-0.699,9.49,25.0,2017-06-04 10:01:54,55.89151653307336
2.537,-0.641,9.5,25.0,2017-06-04 10:01:55,37.72623784082072
2.518,-0.679,9.51,25.0,2017-06-04 10:01:56,55.20279973473649
2.537,-0.66,9.519,25.0,2017-06-04 10:01:57,55.42243461561205
2.509,-0.699,9.51,26.0,2017-06-04 10:01:58,55.951127445484474
2.528,-0.689,9.538,26.0,2017-06-04 10:01:59,49.13338852079521
2.499,-0.66,9.481,25.0,2017-06-04 10:02:00,51.831908341695296
2.557,-0.641,9.481,26.0,2017-06-04 10:02:02,54.99050301526691
2.528,-0.67,9.471,26.0,2017-06-04 10:02:03,55.3905918531749
2.566,-0.651,9.49,25.0,2017-06-04 10:02:04,52.07003941775859
2.518,-0.67,9.452,26.0,2017-06-04 10:02:05,35.173326505091836
2.518,-0.67,9.481,26.0,2017-06-04 10:02:06,29.942930887005545
2.528,-0.679,9.462,26.0,2017-06-04 10:02:07,30.74169074848264
2.528,-0.699,9.49,26.0,2017-06-04 10:02:08,51.04502881995267
2.528,-0.679,9.481,25.0,2017-06-04 10:02:09,56.04222046122086
2.518,-0.66,9.414,24.0,2017-06-04 10:02:10,33.0956696127065
2.537,-0.66,9.51,26.0,2017-06-04 10:02:11,55.51581637354523
2.509,-0.679,9.49,25.0,2017-06-04 10:02:12,42.674534332489145
2.547,-0.67,9.529,24.0,2017-06-04 10:02:13,55.02544408147487
2.547,-0.67,9.5,26.0,2017-06-04 10:02:14,48.0939277165282
2.528,-0.651,9.519,24.0,2017-06-04 10:02:15,31.47332669683132
2.528,-0.66,9.481,24.0,2017-06-04 10:02:16,28.507108347452743
2.518,-0.67,9.548,22.0,2017-06-04 10:02:17,57.78266057466033
2.557,-0.689,9.557,24.0,2017-06-04 10:02:18,50.91497161364778
2.537,-0.641,9.538,25.0,2017-06-04 10:02:19,46.13559285443023
2.547,-0.66,9.5,25.0,2017-06-04 10:02:20,40.00016412967638
2.518,-0.641,9.529,23.0,2017-06-04 10:02:21,57.35134776793415
2.528,-0.67,9.452,23.0,2017-06-04 10:02:22,48.111896750853546
2.518,-0.651,9.51,25.0,2017-06-04 10:02:23,30.38400093754868
2.537,-0.66,9.481,23.0,2017-06-04 10:02:24,51.20329812937649
2.518,-0.708,9.49,25.0,2017-06-04 10:02:25,46.91013904760701
2.537,-0.67,9.49,26.0,2017-06-04 10:02:26,53.03790033385986
2.537,-0.679,9.414,25.0,2017-06-04 10:02:27,48.24866736405819
2.518,-0.679,9.462,24.0,2017-06-04 10:02:28,55.626794614581655
2.537,-0.651,9.51,24.0,2017-06-04 10:02:29,40.98458021443158
2.528,-0.679,9.471,24.0,2017-06-04 10:02:30,51.84017467841339
2.528,-0.679,9.519,25.0,2017-06-04 10:02:31,55.596748078962584
2.547,-0.679,9.481,24.0,2017-06-04 10:02:32,50.17176153090493
2.528,-0.651,9.5,26.0,2017-06-04 10:02:33,52.67279882779711
2.518,-0.67,9.471,24.0,2017-06-04 10:02:34,53.30556470783637
2.537,-0.679,9.529,24.0,2017-06-04 10:02:35,56.37371801519134
2.518,-0.689,9.452,25.0,2017-06-04 10:02:36,52.72786845047503
2.518,-0.651,9.519,26.0,2017-06-04 10:02:37,50.57928163244178
2.547,-0.66,9.538,24.0,2017-06-04 10:02:39,33.86963937517858
2.528,-0.679,9.471,24.0,2017-06-04 10:02:40,30.074977360709845
2.528,-0.67,9.519,23.0,2017-06-04 10:02:41,58.0169140769512
2.537,-0.67,9.557,24.0,2017-06-04 10:02:42,54.679570826449776
2.547,-0.679,9.462,23.0,2017-06-04 10:02:43,52.637411441203604
2.576,-0.718,9.51,23.0,2017-06-04 10:02:44,38.01878553724097
2.528,-0.708,9.519,24.0,2017-06-04 10:02:45,59.27613308861075
2.537,-0.67,9.519,22.0,2017-06-04 10:02:46,55.29549021619164
2.537,-0.689,9.481,23.0,2017-06-04 10:02:47,33.904443383775906
2.537,-0.67,9.471,22.0,2017-06-04 10:02:48,30.82671089397588
2.518,-0.66,9.5,23.0,2017-06-04 10:02:49,56.77109639233399
2.509,-0.679,9.519,23.0,2017-06-04 10:02:50,44.94014749257417
2.537,-0.67,9.481,24.0,2017-06-04 10:02:51,53.13279793606597
2.518,-0.67,9.452,23.0,2017-06-04 10:02:52,57.22961817679255
2.528,-0.66,9.519,23.0,2017-06-04 10:02:53,55.03664089336992
2.528,-0.689,9.519,24.0,2017-06-04 10:02:54,51.42700630491934
2.547,-0.651,9.443,23.0,2017-06-04 10:02:55,53.589596880671515
2.547,-0.67,9.548,23.0,2017-06-04 10:02:56,51.12962633147032
2.509,-0.679,9.538,22.0,2017-06-04 10:02:57,36.99473561747348
2.518,-0.641,9.548,22.0,2017-06-04 10:02:58,31.852067166474104
2.547,-0.679,9.51,22.0,2017-06-04 10:02:59,56.31839314548324
2.557,-0.67,9.5,24.0,2017-06-04 10:03:00,53.10008490519145
2.518,-0.67,9.471,22.0,2017-06-04 10:03:01,50.94104077664653
2.547,-0.66,9.538,22.0,2017-06-04 10:03:02,40.32876537240078
2.537,-0.651,9.529,22.0,2017-06-04 10:03:03,50.96693609197853
2.528,-0.641,9.49,22.0,2017-06-04 10:03:04,39.065671383968976
2.537,-0.67,9.519,23.0,2017-06-04 10:03:05,53.22443204428719
2.537,-0.679,9.538,20.0,2017-06-04 10:03:06,42.33426486125478
2.528,-0.67,9.443,20.0,2017-06-04 10:03:07,54.43329127660264
2.547,-0.66,9.51,20.0,2017-06-04 10:03:08,49.13445781252919
2.528,-0.67,9.462,20.0,2017-06-04 10:03:09,51.164040558420105
2.537,-0.651,9.49,22.0,2017-06-04 10:03:10,55.897203406288966
2.557,-0.689,9.519,22.0,2017-06-04 10:03:11,55.30679824438387
2.528,-0.679,9.519,20.0,2017-06-04 10:03:12,34.89340395577276
2.557,-0.699,9.538,22.0,2017-06-04 10:03:13,48.24127480779508
2.537,-0.679,9.481,22.0,2017-06-04 10:03:14,54.17447661477601
2.537,-0.679,9.538,23.0,2017-06-04 10:03:15,59.21111755856933
2.528,-0.679,9.51,20.0,2017-06-04 10:03:16,54.83753770516509
2.566,-0.679,9.5,24.0,2017-06-04 10:03:17,50.91366040290444
2.518,-0.67,9.519,23.0,2017-06-04 10:03:18,57.23103765207844
2.557,-0.689,9.5,20.0,2017-06-04 10:03:19,56.524494524794974
2.557,-0.67,9.519,23.0,2017-06-04 10:03:21,31.382724692312944
2.528,-0.66,9.5,22.0,2017-06-04 10:03:22,49.93811602233691
2.537,-0.66,9.519,22.0,2017-06-04 10:03:23,32.94739769976856
2.518,-0.651,9.462,20.0,2017-06-04 10:03:24,52.55996639405267
2.547,-0.651,9.49,23.0,2017-06-04 10:03:25,47.62381178065611
2.518,-0.66,9.462,22.0,2017-06-04 10:03:26,57.738259773343906
2.518,-0.699,9.49,22.0,2017-06-04 10:03:27,52.504490675581
2.537,-0.679,9.481,22.0,2017-06-04 10:03:28,44.13570131449775
2.509,-0.651,9.529,22.0,2017-06-04 10:03:29,53.88856023026327
2.528,-0.66,9.49,22.0,2017-06-04 10:03:30,57.3403772051907
2.566,-0.66,9.49,22.0,2017-06-04 10:03:31,51.91270162697993
2.518,-0.689,9.519,20.0,2017-06-04 10:03:32,34.45688562182583
2.528,-0.67,9.548,20.0,2017-06-04 10:03:33,39.234910792486836
2.547,-0.66,9.51,20.0,2017-06-04 10:03:34,58.71984090910182
2.557,-0.67,9.5,22.0,2017-06-04 10:03:35,47.282842214751845
2.528,-0.689,9.519,20.0,2017-06-04 10:03:36,34.049629358019516
2.547,-0.641,9.49,22.0,2017-06-04 10:03:37,46.53666673791744
2.547,-0.67,9.548,22.0,2017-06-04 10:03:38,35.33427467295995
2.547,-0.679,9.481,22.0,2017-06-04 10:03:39,52.78477932024404
2.557,-0.689,9.529,20.0,2017-06-04 10:03:40,32.33583027070425
2.528,-0.66,9.519,20.0,2017-06-04 10:03:41,53.167539121069254
2.528,-0.66,9.49,20.0,2017-06-04 10:03:42,29.489003297562526
2.537,-0.679,9.49,22.0,2017-06-04 10:03:43,40.06612515049913
2.537,-0.679,9.519,22.0,2017-06-04 10:03:44,33.59481229064108
2.528,-0.66,9.519,22.0,2017-06-04 10:03:45,53.914859201545326
2.557,-0.679,9.51,19.0,2017-06-04 10:03:46,51.48337772826064
2.547,-0.66,9.519,22.0,2017-06-04 10:03:47,47.879572704749705
2.537,-0.699,9.471,20.0,2017-06-04 10:03:48,56.61383809290327
2.518,-0.66,9.49,23.0,2017-06-04 10:03:49,49.84543218490224
2.528,-0.66,9.49,22.0,2017-06-04 10:03:50,52.51896215237978
2.537,-0.67,9.49,20.0,2017-06-04 10:03:51,47.0643870120965
2.528,-0.67,9.471,22.0,2017-06-04 10:03:52,33.84039984054918
2.518,-0.679,9.548,22.0,2017-06-04 10:03:53,49.270611498410005
2.528,-0.651,9.452,20.0,2017-06-04 10:03:54,52.00329321734792
2.528,-0.651,9.471,22.0,2017-06-04 10:03:55,48.12803066031543
2.537,-0.66,9.452,20.0,2017-06-04 10:03:56,39.95136079288877
2.537,-0.708,9.538,22.0,2017-06-04 10:03:57,56.57998201331557
2.537,-0.689,9.5,22.0,2017-06-04 10:03:58,56.13855309784333
2.537,-0.66,9.529,23.0,2017-06-04 10:03:59,48.56707979028626
2.528,-0.612,9.5,20.0,2017-06-04 10:04:01,53.711135885611576
2.557,-0.651,9.519,20.0,2017-06-04 10:04:02,52.18730808374132
2.547,-0.66,9.5,22.0,2017-06-04 10:04:03,53.714485638981564
2.547,-0.689,9.49,20.0,2017-06-04 10:04:04,53.01313144773275
2.537,-0.641,9.51,22.0,2017-06-04 10:04:05,49.79394007388925
2.537,-0.699,9.51,20.0,2017-06-04 10:04:06,42.740111210529996
2.547,-0.66,9.557,22.0,2017-06-04 10:04:07,30.415333916642126
2.537,-0.689,9.519,19.0,2017-06-04 10:04:08,51.258322630357924
2.528,-0.679,9.5,23.0,2017-06-04 10:04:09,53.46430074516236
2.537,-0.679,9.51,22.0,2017-06-04 10:04:10,35.49643755322195
2.509,-0.67,9.51,20.0,2017-06-04 10:04:11,47.83227719145753
2.557,-0.679,9.49,22.0,2017-06-04 10:04:12,53.42609795057079
2.518,-0.67,9.5,20.0,2017-06-04 10:04:13,37.82510415010585
2.547,-0.67,9.452,20.0,2017-06-04 10:04:14,55.93262889344253
2.537,-0.679,9.5,23.0,2017-06-04 10:04:15,54.82284095376198
2.547,-0.679,9.49,22.0,2017-06-04 10:04:16,36.751741382897414
2.528,-0.67,9.5,20.0,2017-06-04 10:04:17,32.329775084277664
2.528,-0.689,9.5,23.0,2017-06-04 10:04:18,53.499189976838366
2.528,-0.67,9.529,22.0,2017-06-04 10:04:19,35.77785776313013
2.547,-0.651,9.481,23.0,2017-06-04 10:04:20,44.995374621124995
2.528,-0.67,9.529,20.0,2017-06-04 10:04:21,49.74297400729968
2.547,-0.67,9.5,22.0,2017-06-04 10:04:22,48.4531878459918
2.547,-0.67,9.471,19.0,2017-06-04 10:04:23,41.07263842254532
2.509,-0.679,9.529,22.0,2017-06-04 10:04:24,31.601653599216025
2.547,-0.679,9.471,20.0,2017-06-04 10:04:25,30.324794648967547
2.528,-0.689,9.519,22.0,2017-06-04 10:04:26,48.34338598794478
2.557,-0.66,9.529,22.0,2017-06-04 10:04:27,51.13767282503932
2.518,-0.679,9.529,22.0,2017-06-04 10:04:28,54.51762807290713
2.547,-0.689,9.471,20.0,2017-06-04 10:04:29,41.59667424526674
2.528,-0.689,9.538,20.0,2017-06-04 10:04:30,49.724201546011884
2.528,-0.679,9.5,23.0,2017-06-04 10:04:31,50.53114885879143
2.547,-0.689,9.519,20.0,2017-06-04 10:04:32,51.03601607846065
2.547,-0.66,9.538,22.0,2017-06-04 10:04:33,38.80314970198013
2.528,-0.679,9.5,20.0,2017-06-04 10:04:34,45.012484140860785
2.518,-0.689,9.49,20.0,2017-06-04 10:04:35,51.47526155284822
2.537,-0.679,9.548,19.0,2017-06-04 10:04:36,33.799561672521236
2.537,-0.67,9.5,20.0,2017-06-04 10:04:37,55.05270446255179
2.547,-0.66,9.452,19.0,2017-06-04 10:04:39,53.870997177544666
2.547,-0.66,9.5,19.0,2017-06-04 10:04:40,51.54272798745502
2.547,-0.689,9.519,19.0,2017-06-04 10:04:41,56.0410822894337
2.547,-0.66,9.586,19.0,2017-06-04 10:04:42,54.55730746090309
2.547,-0.67,9.529,20.0,2017-06-04 10:04:43,45.681505062099404
2.528,-0.651,9.538,20.0,2017-06-04 10:04:44,31.435441644527554
2.528,-0.67,9.519,22.0,2017-06-04 10:04:45,53.8553638138592
2.518,-0.67,9.49,20.0,2017-06-04 10:04:46,37.528913568280686
2.547,-0.67,9.529,22.0,2017-06-04 10:04:47,37.510258390901654
2.557,-0.67,9.49,23.0,2017-06-04 10:04:48,56.17935575993009
2.537,-0.66,9.548,19.0,2017-06-04 10:04:49,57.37822438858081
2.509,-0.679,9.51,20.0,2017-06-04 10:04:50,40.270440972114386
2.557,-0.66,9.49,20.0,2017-06-04 10:04:51,50.61370030089673
2.537,-0.679,9.538,20.0,2017-06-04 10:04:52,55.893016046648974
2.547,-0.66,9.529,20.0,2017-06-04 10:04:53,59.99280024843722
2.537,-0.67,9.557,22.0,2017-06-04 10:04:54,37.5017145755441
2.547,-0.66,9.49,20.0,2017-06-04 10:04:55,50.02952958732045
2.537,-0.66,9.471,22.0,2017-06-04 10:04:56,55.77162728588487
2.537,-0.679,9.481,20.0,2017-06-04 10:04:57,37.11318603562599
2.528,-0.67,9.5,19.0,2017-06-04 10:04:58,52.55729308356823
2.537,-0.689,9.462,22.0,2017-06-04 10:04:59,31.6943648531297
2.547,-0.66,9.49,19.0,2017-06-04 10:05:00,58.66722007426123
2.557,-0.699,9.51,22.0,2017-06-04 10:05:01,58.61384807010986
2.537,-0.679,9.481,20.0,2017-06-04 10:05:02,52.03201509359465
2.528,-0.679,9.49,17.0,2017-06-04 10:05:03,55.487368943988585
2.528,-0.67,9.462,19.0,2017-06-04 10:05:04,54.47421027637036
2.537,-0.708,9.481,20.0,2017-06-04 10:05:05,31.653365028048057
2.537,-0.66,9.443,19.0,2017-06-04 10:05:06,32.57244400850811
2.547,-0.679,9.471,19.0,2017-06-04 10:05:07,48.577207597952835
2.537,-0.67,9.481,17.0,2017-06-04 10:05:08,32.6372989549625
2.537,-0.651,9.452,22.0,2017-06-04 10:05:09,53.85587167027317
2.547,-0.641,9.51,20.0,2017-06-04 10:05:10,55.79808179006651
2.557,-0.66,9.519,22.0,2017-06-04 10:05:11,54.2654418388527
2.547,-0.67,9.5,19.0,2017-06-04 10:05:12,43.949459218207814
2.557,-0.67,9.519,20.0,2017-06-04 10:05:13,52.74804919469769
2.557,-0.67,9.538,20.0,2017-06-04 10:05:14,52.25130321045527
2.557,-0.679,9.519,22.0,2017-06-04 10:05:15,37.58601970490447
2.566,-0.679,9.462,19.0,2017-06-04 10:05:16,31.562183689366023
2.518,-0.66,9.519,19.0,2017-06-04 10:05:17,52.11108404493291
2.528,-0.67,9.5,20.0,2017-06-04 10:05:18,52.60897113137803
2.509,-0.651,9.471,22.0,2017-06-04 10:05:19,54.500752342054525
2.518,-0.689,9.529,19.0,2017-06-04 10:05:20,37.419360812492066
2.528,-0.67,9.5,20.0,2017-06-04 10:05:22,59.76757078051207
2.547,-0.67,9.5,20.0,2017-06-04 10:05:23,53.07781989948239
2.518,-0.67,9.519,19.0,2017-06-04 10:05:24,57.59282861755422
2.528,-0.67,9.529,22.0,2017-06-04 10:05:25,31.66724033225251
2.537,-0.67,9.481,19.0,2017-06-04 10:05:26,53.02187602132865
2.547,-0.689,9.49,20.0,2017-06-04 10:05:27,49.375066180332226
2.557,-0.651,9.481,20.0,2017-06-04 10:05:28,51.752541673528626
2.537,-0.67,9.529,19.0,2017-06-04 10:05:29,54.438933846301836
2.528,-0.651,9.5,22.0,2017-06-04 10:05:30,54.01693766586511
2.557,-0.66,9.519,22.0,2017-06-04 10:05:31,56.90365484670811
2.557,-0.67,9.519,17.0,2017-06-04 10:05:32,47.348735163699885
2.518,-0.67,9.49,17.0,2017-06-04 10:05:33,53.44470282858465
2.537,-0.689,9.414,20.0,2017-06-04 10:05:34,54.0168011973661
2.518,-0.67,9.481,20.0,2017-06-04 10:05:35,50.36370821475149
2.537,-0.689,9.433,20.0,2017-06-04 10:05:36,46.80590793214684
2.499,-0.689,9.49,19.0,2017-06-04 10:05:37,49.56156640461717
2.547,-0.679,9.481,17.0,2017-06-04 10:05:38,39.96202368007167
2.537,-0.679,9.519,22.0,2017-06-04 10:05:39,36.24422404089327
2.537,-0.699,9.51,23.0,2017-06-04 10:05:40,47.693085893689684
2.547,-0.679,9.519,19.0,2017-06-04 10:05:41,52.60968388522773
2.547,-0.67,9.519,19.0,2017-06-04 10:05:42,51.2018418360713
2.537,-0.67,9.49,19.0,2017-06-04 10:05:43,56.85122007259021
2.547,-0.679,9.529,17.0,2017-06-04 10:05:44,55.04093097214245
2.518,-0.67,9.51,19.0,2017-06-04 10:05:45,54.851387540272675
2.537,-0.689,9.51,20.0,2017-06-04 10:05:46,38.55142907985941
2.547,-0.651,9.529,20.0,2017-06-04 10:05:47,43.647033022113504
2.537,-0.651,9.529,17.0,2017-06-04 10:05:48,53.06966355957413
2.547,-0.708,9.519,20.0,2017-06-04 10:05:49,43.54628776252929
2.528,-0.66,9.481,20.0,2017-06-04 10:05:50,42.27320932292211
2.509,-0.66,9.5,17.0,2017-06-04 10:05:51,43.034264325072094
2.528,-0.708,9.462,19.0,2017-06-04 10:05:52,57.37467645142961
2.547,-0.651,9.5,20.0,2017-06-04 10:05:53,58.10491291961229
2.547,-0.679,9.5,20.0,2017-06-04 10:05:54,50.66345991214063
2.518,-0.679,9.49,17.0,2017-06-04 10:05:55,50.2014720119613
2.518,-0.679,9.49,20.0,2017-06-04 10:05:56,49.03352149192096
2.547,-0.66,9.538,20.0,2017-06-04 10:05:57,52.97368699344476
2.518,-0.66,9.529,19.0,2017-06-04 10:05:58,34.1420289496546
2.537,-0.67,9.462,20.0,2017-06-04 10:05:59,35.28151488964817
2.557,-0.689,9.644,19.0,2017-06-04 10:06:00,52.77602453019034
2.557,-0.67,9.49,20.0,2017-06-04 10:06:01,55.28752773719737
2.557,-0.689,9.5,19.0,2017-06-04 10:06:02,53.490647894106516
2.537,-0.67,9.51,20.0,2017-06-04 10:06:03,39.685821711726476
2.547,-0.679,9.481,20.0,2017-06-04 10:06:04,39.91190846693903
2.518,-0.679,9.471,20.0,2017-06-04 10:06:06,53.24146015342603
2.547,-0.679,9.5,22.0,2017-06-04 10:06:07,53.03245262604851
2.547,-0.66,9.51,22.0,2017-06-04 10:06:08,38.05995444454939
2.537,-0.689,9.538,20.0,2017-06-04 10:06:09,52.98026248840625
2.547,-0.67,9.481,20.0,2017-06-04 10:06:10,51.997339629176025
2.528,-0.632,9.5,17.0,2017-06-04 10:06:11,35.55042937320978
2.566,-0.689,9.51,20.0,2017-06-04 10:06:12,32.8957131698325
2.557,-0.679,9.548,19.0,2017-06-04 10:06:13,54.24068014174472
2.528,-0.679,9.586,22.0,2017-06-04 10:06:14,52.78220390232728
2.537,-0.679,9.51,20.0,2017-06-04 10:06:15,52.95214573680379
2.537,-0.679,9.462,22.0,2017-06-04 10:06:16,52.941869455351444
2.537,-0.67,9.462,20.0,2017-06-04 10:06:17,55.33472387628966
2.537,-0.67,9.481,20.0,2017-06-04 10:06:18,50.07070030814066
2.547,-0.679,9.462,20.0,2017-06-04 10:06:19,56.91163128882287
2.547,-0.651,9.519,19.0,2017-06-04 10:06:20,52.73359523520726
2.537,-0.641,9.49,20.0,2017-06-04 10:06:21,35.76798749225108
2.528,-0.689,9.423,19.0,2017-06-04 10:06:22,35.30427709998443
2.528,-0.67,9.49,20.0,2017-06-04 10:06:23,48.133902314250356
2.528,-0.679,9.5,20.0,2017-06-04 10:06:24,34.88725697823159
2.537,-0.66,9.5,20.0,2017-06-04 10:06:25,53.96951063784585
2.537,-0.679,9.519,20.0,2017-06-04 10:06:26,52.6094364917067
2.528,-0.66,9.529,19.0,2017-06-04 10:06:27,52.69313176266082
2.537,-0.679,9.519,20.0,2017-06-04 10:06:28,54.18151107351604
2.528,-0.689,9.5,19.0,2017-06-04 10:06:29,47.13323777004017
2.528,-0.679,9.471,22.0,2017-06-04 10:06:30,51.592773585496445
2.557,-0.66,9.51,17.0,2017-06-04 10:06:31,38.872695730738315
2.537,-0.66,9.51,19.0,2017-06-04 10:06:32,54.821288665459925
2.547,-0.651,9.462,19.0,2017-06-04 10:06:33,39.17908668197792
2.537,-0.67,9.519,19.0,2017-06-04 10:06:34,43.777373221721405
2.518,-0.66,9.51,20.0,2017-06-04 10:06:35,47.97418085956575
2.547,-0.66,9.529,19.0,2017-06-04 10:06:36,51.07582908700624
2.547,-0.679,9.519,20.0,2017-06-04 10:06:37,47.20572324899389
2.547,-0.679,9.538,22.0,2017-06-04 10:06:38,44.96473362517364
2.547,-0.679,9.49,20.0,2017-06-04 10:06:39,30.912766645074377
2.537,-0.66,9.519,19.0,2017-06-04 10:06:40,51.10666419151181
2.518,-0.67,9.51,22.0,2017-06-04 10:06:41,50.13661766525492
2.518,-0.679,9.462,19.0,2017-06-04 10:06:42,40.733203582455424
2.557,-0.679,9.529,19.0,2017-06-04 10:06:43,49.22606866753959
2.537,-0.679,9.51,19.0,2017-06-04 10:06:44,51.733271032240665
2.518,-0.66,9.481,19.0,2017-06-04 10:06:45,48.95661673897347
2.537,-0.651,9.5,22.0,2017-06-04 10:06:47,31.599015989339875
2.499,-0.66,9.481,17.0,2017-06-04 10:06:48,48.770956731851
2.566,-0.67,9.519,22.0,2017-06-04 10:06:49,55.82291293036822
2.547,-0.67,9.452,19.0,2017-06-04 10:06:50,54.342355599663264
2.537,-0.67,9.471,20.0,2017-06-04 10:06:51,38.46870553935423
2.537,-0.67,9.5,22.0,2017-06-04 10:06:52,47.2501294902239
2.518,-0.679,9.471,20.0,2017-06-04 10:06:53,44.913962510487416
2.537,-0.651,9.481,22.0,2017-06-04 10:06:54,52.07563863276547
2.518,-0.66,9.395,20.0,2017-06-04 10:06:55,32.527821812928266
2.547,-0.689,9.49,20.0,2017-06-04 10:06:56,53.4839408364311
2.547,-0.708,9.529,17.0,2017-06-04 10:06:57,56.855829503893375
2.557,-0.727,9.423,19.0,2017-06-04 10:06:58,34.40691745226389
2.547,-0.641,9.548,22.0,2017-06-04 10:06:59,44.582813422846456
2.537,-0.679,9.519,22.0,2017-06-04 10:07:00,53.87074108687638
2.547,-0.679,9.529,20.0,2017-06-04 10:07:01,56.70067415957079
2.547,-0.67,9.538,19.0,2017-06-04 10:07:02,57.34476321292704
2.547,-0.651,9.529,19.0,2017-06-04 10:07:03,58.759208772674505
2.528,-0.67,9.519,20.0,2017-06-04 10:07:04,49.355163532204394
2.537,-0.651,9.462,19.0,2017-06-04 10:07:05,36.742235130137445
2.518,-0.66,9.481,23.0,2017-06-04 10:07:06,52.08460630180049
2.528,-0.689,9.471,20.0,2017-06-04 10:07:07,53.38643253065031
2.537,-0.651,9.519,22.0,2017-06-04 10:07:08,37.45401603821871
2.537,-0.679,9.481,20.0,2017-06-04 10:07:09,55.26126921489664
2.528,-0.651,9.5,22.0,2017-06-04 10:07:10,55.45509075448071
2.528,-0.66,9.481,20.0,2017-06-04 10:07:11,52.516215976456564
2.537,-0.679,9.443,20.0,2017-06-04 10:07:12,42.60556356739593
2.537,-0.67,9.471,20.0,2017-06-04 10:07:13,51.81251406263968
2.528,-0.651,9.51,23.0,2017-06-04 10:07:14,54.70140717569997
2.518,-0.679,9.5,20.0,2017-06-04 10:07:15,38.60067131549154
2.537,-0.651,9.51,20.0,2017-06-04 10:07:16,55.33604338991891
2.509,-0.689,9.481,23.0,2017-06-04 10:07:17,59.69128999800061
2.537,-0.699,9.471,22.0,2017-06-04 10:07:18,53.55953611388153
2.528,-0.67,9.471,22.0,2017-06-04 10:07:19,54.111358690265874
2.518,-0.679,9.5,22.0,2017-06-04 10:07:20,32.5426665822605
2.518,-0.689,9.452,19.0,2017-06-04 10:07:21,47.53505776190839
2.518,-0.67,9.538,19.0,2017-06-04 10:07:22,55.20575850933965
2.557,-0.679,9.519,20.0,2017-06-04 10:07:23,52.05463729484027
2.537,-0.699,9.452,17.0,2017-06-04 10:07:24,30.52135734073939
2.547,-0.651,9.538,17.0,2017-06-04 10:07:26,56.16868663967426
2.547,-0.632,9.462,17.0,2017-06-04 10:07:27,50.01965892101772
2.518,-0.679,9.51,20.0,2017-06-04 10:07:28,35.09672471793823
2.537,-0.67,9.443,20.0,2017-06-04 10:07:29,57.421417554307624
2.537,-0.689,9.481,20.0,2017-06-04 10:07:30,53.4513326602761
2.547,-0.679,9.481,20.0,2017-06-04 10:07:31,52.20825382728626
2.518,-0.651,9.5,23.0,2017-06-04 10:07:32,32.25041097225068
2.518,-0.67,9.481,19.0,2017-06-04 10:07:33,56.955448352099644
2.528,-0.651,9.481,22.0,2017-06-04 10:07:34,52.01809643601911
2.537,-0.67,9.548,20.0,2017-06-04 10:07:35,48.980993637295896
2.528,-0.689,9.538,20.0,2017-06-04 10:07:36,54.244889847422336
2.547,-0.641,9.462,19.0,2017-06-04 10:07:37,56.077165494938875
2.518,-0.679,9.5,19.0,2017-06-04 10:07:38,51.252268583835054
2.547,-0.66,9.49,19.0,2017-06-04 10:07:39,48.64174213002705
2.537,-0.679,9.462,20.0,2017-06-04 10:07:40,55.136942305164084
2.528,-0.67,9.49,19.0,2017-06-04 10:07:41,30.308767120029444
2.528,-0.67,9.462,19.0,2017-06-04 10:07:42,55.80910342880705
2.528,-0.66,9.519,19.0,2017-06-04 10:07:43,45.39918597153181
2.537,-0.67,9.5,20.0,2017-06-04 10:07:44,59.094195726040574
2.518,-0.67,9.529,22.0,2017-06-04 10:07:45,51.387671725578706
2.557,-0.699,9.51,19.0,2017-06-04 10:07:46,50.659250803287684
2.557,-0.708,9.423,20.0,2017-06-04 10:07:47,58.167139414349236
2.528,-0.641,9.51,20.0,2017-06-04 10:07:48,49.67249228393805
2.518,-0.679,9.443,19.0,2017-06-04 10:07:49,53.19463587083597
2.547,-0.66,9.49,20.0,2017-06-04 10:07:50,57.46576072954842
2.499,-0.66,9.481,20.0,2017-06-04 10:07:51,48.367176539739766
2.537,-0.679,9.5,20.0,2017-06-04 10:07:52,53.86007026335109
2.547,-0.699,9.519,20.0,2017-06-04 10:07:53,55.484832857293554
2.509,-0.679,9.481,20.0,2017-06-04 10:07:54,33.52831966029959
2.528,-0.67,9.51,22.0,2017-06-04 10:07:55,53.07960102568276
2.537,-0.67,9.5,20.0,2017-06-04 10:07:56,57.165435658052324
2.518,-0.679,9.481,19.0,2017-06-04 10:07:57,48.72302314777819
2.528,-0.679,9.49,19.0,2017-06-04 10:07:58,53.26360933045261
2.547,-0.699,9.471,19.0,2017-06-04 10:07:59,54.34324845759916
2.537,-0.679,9.481,22.0,2017-06-04 10:08:00,46.820370324651314
2.528,-0.689,9.5,19.0,2017-06-04 10:08:01,49.80542893425224
2.537,-0.679,9.471,20.0,2017-06-04 10:08:02,49.92180925783611
2.557,-0.66,9.5,20.0,2017-06-04 10:08:03,49.480435844945546
2.557,-0.699,9.5,20.0,2017-06-04 10:08:04,53.302090992089816
2.537,-0.67,9.49,20.0,2017-06-04 10:08:05,40.03693564916058
2.518,-0.66,9.49,20.0,2017-06-04 10:08:06,54.73415799756448
2.537,-0.67,9.481,17.0,2017-06-04 10:08:07,48.16624628493259
2.528,-0.66,9.481,19.0,2017-06-04 10:08:08,31.910387115334224
2.518,-0.66,9.481,20.0,2017-06-04 10:08:10,49.86685197296723
2.528,-0.689,9.471,19.0,2017-06-04 10:08:11,52.07594822649476
2.537,-0.679,9.5,22.0,2017-06-04 10:08:12,35.25663195692493
2.547,-0.679,9.538,20.0,2017-06-04 10:08:13,56.73827234115716
2.557,-0.67,9.5,20.0,2017-06-04 10:08:14,44.81224651121955
2.518,-0.651,9.462,19.0,2017-06-04 10:08:15,59.25696574557142
2.509,-0.641,9.519,17.0,2017-06-04 10:08:16,40.05713263843565
2.537,-0.67,9.462,22.0,2017-06-04 10:08:17,39.577612413584916
2.509,-0.67,9.5,22.0,2017-06-04 10:08:18,32.789497659618554
2.528,-0.699,9.481,20.0,2017-06-04 10:08:19,54.06675207860606
2.528,-0.679,9.5,20.0,2017-06-04 10:08:20,29.632587435502202
2.547,-0.651,9.519,19.0,2017-06-04 10:08:21,55.61537959041685
2.528,-0.651,9.529,19.0,2017-06-04 10:08:22,39.56222614444615
2.547,-0.66,9.49,19.0,2017-06-04 10:08:23,33.594039293602954
2.528,-0.651,9.481,22.0,2017-06-04 10:08:24,54.01222210643588
2.537,-0.679,9.51,17.0,2017-06-04 10:08:25,54.61154959786218
2.528,-0.679,9.471,20.0,2017-06-04 10:08:26,52.65543028975052
2.518,-0.632,9.471,19.0,2017-06-04 10:08:27,33.49281891947687
2.509,-0.66,9.5,22.0,2017-06-04 10:08:28,51.814254318343245
2.547,-0.67,9.49,19.0,2017-06-04 10:08:29,48.09222250473979
2.537,-0.66,9.49,20.0,2017-06-04 10:08:30,53.051438244033704
2.566,-0.679,9.519,19.0,2017-06-04 10:08:31,35.00913673815486
2.528,-0.66,9.481,19.0,2017-06-04 10:08:32,45.78182939681397
2.537,-0.67,9.471,20.0,2017-06-04 10:08:33,31.82321013643463
2.537,-0.679,9.519,20.0,2017-06-04 10:08:34,31.65444886826257
2.557,-0.689,9.481,20.0,2017-06-04 10:08:35,30.886181012592612
2.576,-0.641,9.49,20.0,2017-06-04 10:08:36,53.400798849598075
2.518,-0.689,9.481,19.0,2017-06-04 10:08:37,32.1739474223575
2.528,-0.641,9.452,22.0,2017-06-04 10:08:38,32.66862357651624
2.557,-0.67,9.481,19.0,2017-06-04 10:08:39,55.09336175680325
2.509,-0.651,9.481,19.0,2017-06-04 10:08:40,53.709036966653365
2.518,-0.67,9.5,20.0,2017-06-04 10:08:41,36.61727207185291
2.547,-0.689,9.443,19.0,2017-06-04 10:08:42,58.32572900814949
2.547,-0.679,9.471,20.0,2017-06-04 10:08:43,47.721779994259975
2.528,-0.67,9.529,17.0,2017-06-04 10:08:44,32.44049416107534
2.547,-0.66,9.481,20.0,2017-06-04 10:08:45,31.77777939223259
2.557,-0.651,9.49,19.0,2017-06-04 10:08:47,30.36663197483612
2.528,-0.679,9.5,19.0,2017-06-04 10:08:48,53.217242554762414
2.518,-0.67,9.538,20.0,2017-06-04 10:08:49,29.641656790974306
2.547,-0.66,9.519,20.0,2017-06-04 10:08:50,45.04626967422104
2.557,-0.67,9.51,19.0,2017-06-04 10:08:51,42.73212305996058
2.528,-0.679,9.462,19.0,2017-06-04 10:08:52,51.90840746263605
2.547,-0.66,9.443,20.0,2017-06-04 10:08:53,31.688503862144866
2.528,-0.67,9.481,20.0,2017-06-04 10:08:54,54.497323679617026
2.566,-0.67,9.519,20.0,2017-06-04 10:08:55,46.8378046432952
2.528,-0.66,9.5,17.0,2017-06-04 10:08:56,30.502879744210077
2.528,-0.651,9.462,20.0,2017-06-04 10:08:57,54.592592655441535
2.547,-0.679,9.49,20.0,2017-06-04 10:08:58,47.42869498380708
2.528,-0.651,9.538,20.0,2017-06-04 10:08:59,44.775644979728064
2.547,-0.641,9.51,19.0,2017-06-04 10:09:00,52.92443159125029
2.528,-0.632,9.5,20.0,2017-06-04 10:09:01,54.9471401735569
2.528,-0.67,9.481,19.0,2017-06-04 10:09:02,48.62005740166872
2.557,-0.679,9.51,24.0,2017-06-04 10:09:03,53.10870233135773
2.518,-0.679,9.5,19.0,2017-06-04 10:09:04,32.480686220229536
2.509,-0.66,9.5,22.0,2017-06-04 10:09:05,49.561527182055656
2.547,-0.66,9.5,20.0,2017-06-04 10:09:06,45.330212659914075
2.537,-0.67,9.51,22.0,2017-06-04 10:09:07,38.52808499467095
2.547,-0.651,9.452,17.0,2017-06-04 10:09:08,50.152269287517726
2.518,-0.66,9.481,20.0,2017-06-04 10:09:09,51.35022646999636
2.518,-0.67,9.471,20.0,2017-06-04 10:09:10,44.10938499164232
2.518,-0.67,9.548,20.0,2017-06-04 10:09:11,53.53010542705337
2.537,-0.632,9.49,19.0,2017-06-04 10:09:12,53.48671663284883
2.547,-0.67,9.51,22.0,2017-06-04 10:09:13,51.33718612045398
2.528,-0.679,9.481,19.0,2017-06-04 10:09:14,56.62917424754124
2.537,-0.679,9.51,19.0,2017-06-04 10:09:15,52.309007013460224
2.528,-0.67,9.49,22.0,2017-06-04 10:09:16,39.33337783576335
2.518,-0.67,9.471,19.0,2017-06-04 10:09:17,56.44471211491914
2.557,-0.66,9.481,20.0,2017-06-04 10:09:18,54.11334772789822
2.518,-0.66,9.443,22.0,2017-06-04 10:09:19,32.4004293935479
2.518,-0.67,9.462,20.0,2017-06-04 10:09:20,53.20859967056319
2.509,-0.67,9.462,20.0,2017-06-04 10:09:21,54.348029403582814
2.547,-0.67,9.49,22.0,2017-06-04 10:09:22,52.54868056813744
2.528,-0.67,9.49,22.0,2017-06-04 10:09:23,32.06786360348616
2.537,-0.66,9.529,20.0,2017-06-04 10:09:24,45.929481793872256
2.537,-0.67,9.529,19.0,2017-06-04 10:09:25,52.166582805090485
2.537,-0.622,9.51,20.0,2017-06-04 10:09:26,55.77097584946385
2.518,-0.67,9.529,20.0,2017-06-04 10:09:27,50.080815554166776
2.528,-0.689,9.452,20.0,2017-06-04 10:09:28,44.5924200369911
2.518,-0.689,9.519,20.0,2017-06-04 10:09:29,43.607239380203154
2.518,-0.67,9.452,20.0,2017-06-04 10:09:31,52.74412329839496
2.528,-0.66,9.5,20.0,2017-06-04 10:09:32,52.716941343875476
2.557,-0.67,9.519,19.0,2017-06-04 10:09:33,51.947296606852056
2.537,-0.66,9.519,20.0,2017-06-04 10:09:34,52.3411340732287
2.537,-0.67,9.529,17.0,2017-06-04 10:09:35,51.054646506514906
2.528,-0.679,9.462,22.0,2017-06-04 10:09:36,33.645757270990785
2.537,-0.689,9.538,22.0,2017-06-04 10:09:37,53.302861849653794
2.547,-0.66,9.5,20.0,2017-06-04 10:09:38,41.43993678139878
2.547,-0.67,9.519,20.0,2017-06-04 10:09:39,50.13292268262772
2.537,-0.651,9.5,22.0,2017-06-04 10:09:40,44.49699018904031
2.537,-0.651,9.423,20.0,2017-06-04 10:09:41,35.50779115153669
2.566,-0.66,9.519,20.0,2017-06-04 10:09:42,52.12607125349312
2.547,-0.67,9.5,19.0,2017-06-04 10:09:43,52.44115395070371
2.518,-0.689,9.519,20.0,2017-06-04 10:09:44,50.16401387765789
2.528,-0.67,9.519,20.0,2017-06-04 10:09:45,59.612772820557716
2.528,-0.679,9.519,20.0,2017-06-04 10:09:46,55.057997038543604
2.547,-0.66,9.519,20.0,2017-06-04 10:09:47,56.68042604076143
2.537,-0.651,9.519,20.0,2017-06-04 10:09:48,45.57513804432372
2.566,-0.679,9.49,20.0,2017-06-04 10:09:49,53.616085841260414
2.518,-0.699,9.538,22.0,2017-06-04 10:09:50,47.68778174116655
2.547,-0.641,9.519,6.0,2017-06-04 10:09:51,51.668444047147936
2.537,-0.565,9.51,0.0,2017-06-04 10:09:52,34.30317609717351
2.595,-0.641,9.529,22.0,2017-06-04 10:09:53,53.918359335599675
2.528,-0.641,9.49,19.0,2017-06-04 10:09:54,57.4188802103183
2.576,-0.641,9.462,19.0,2017-06-04 10:09:55,38.373539400505116
2.557,-0.66,9.462,22.0,2017-06-04 10:09:56,49.581043728274004
2.566,-0.641,9.462,20.0,2017-06-04 10:09:57,52.09860473812117
2.585,-0.641,9.5,19.0,2017-06-04 10:09:58,43.845057400041625
2.595,-0.641,9.529,19.0,2017-06-04 10:09:59,32.75113538831746
2.576,-0.632,9.51,20.0,2017-06-04 10:10:00,30.984507187385205
2.557,-0.632,9.548,19.0,2017-06-04 10:10:01,54.07013378708642
2.576,-0.641,9.462,19.0,2017-06-04 10:10:02,43.00865683366368
2.566,-0.679,9.471,20.0,2017-06-04 10:10:03,29.50758836960475
2.557,-0.632,9.481,22.0,2017-06-04 10:10:04,30.62465199008561
2.576,-0.612,9.5,22.0,2017-06-04 10:10:05,51.24479359861677
2.595,-0.622,9.471,23.0,2017-06-04 10:10:06,43.75846239959248
2.585,-0.651,9.452,20.0,2017-06-04 10:10:07,50.21765140932401
2.585,-0.67,9.471,22.0,2017-06-04 10:10:08,41.86489557434163
2.566,-0.651,9.529,22.0,2017-06-04 10:10:10,40.20878250307727
2.566,-0.651,9.481,20.0,2017-06-04 10:10:11,49.005724374777024
2.585,-0.641,9.519,19.0,2017-06-04 10:10:12,57.175324411475266
2.547,-0.641,9.414,22.0,2017-06-04 10:10:13,42.42369637170344
2.566,-0.632,9.51,23.0,2017-06-04 10:10:14,55.332846326061826
2.585,-0.651,9.452,20.0,2017-06-04 10:10:15,41.740620234611676
2.557,-0.651,9.471,22.0,2017-06-04 10:10:16,49.33212628112986
2.557,-0.632,9.462,22.0,2017-06-04 10:10:17,45.11024794325812
2.566,-0.612,9.49,20.0,2017-06-04 10:10:18,50.20368012599546
2.576,-0.651,9.529,23.0,2017-06-04 10:10:19,47.363425545212074
2.557,-0.66,9.49,22.0,2017-06-04 10:10:20,54.50472289228354
2.576,-0.641,9.548,22.0,2017-06-04 10:10:21,59.67408249207995
2.604,-0.651,9.49,20.0,2017-06-04 10:10:22,38.541802718021366
2.557,-0.641,9.538,20.0,2017-06-04 10:10:23,51.70584124222464
2.547,-0.622,9.5,22.0,2017-06-04 10:10:24,51.099513516286464
2.585,-0.641,9.462,20.0,2017-06-04 10:10:25,45.36870560918103
2.547,-0.632,9.519,20.0,2017-06-04 10:10:26,31.928055788262583
2.557,-0.66,9.51,22.0,2017-06-04 10:10:27,56.43366111627587
2.585,-0.632,9.481,22.0,2017-06-04 10:10:28,50.438072256527064
2.585,-0.612,9.5,22.0,2017-06-04 10:10:29,37.523282740160475
2.576,-0.632,9.529,20.0,2017-06-04 10:10:30,54.18319544099107
2.585,-0.632,9.5,22.0,2017-06-04 10:10:31,51.72719547370523
2.566,-0.641,9.471,23.0,2017-06-04 10:10:32,37.54175444284703
2.566,-0.66,9.462,22.0,2017-06-04 10:10:33,32.02333702825509
2.566,-0.651,9.49,20.0,2017-06-04 10:10:34,32.78939056166288
2.595,-0.622,9.529,22.0,2017-06-04 10:10:35,52.23207999493397
2.566,-0.641,9.5,23.0,2017-06-04 10:10:36,53.45553185371251
2.585,-0.632,9.548,23.0,2017-06-04 10:10:37,55.370477886350294
2.595,-0.622,9.5,22.0,2017-06-04 10:10:38,53.26007267039173
2.585,-0.622,9.471,23.0,2017-06-04 10:10:39,51.0930193011755
2.566,-0.651,9.452,20.0,2017-06-04 10:10:40,52.387375303048024
2.557,-0.66,9.452,20.0,2017-06-04 10:10:41,53.15818546974689
2.537,-0.632,9.462,22.0,2017-06-04 10:10:42,56.181083936036515
2.566,-0.632,9.462,22.0,2017-06-04 10:10:43,56.68650080440486
2.547,-0.632,9.529,23.0,2017-06-04 10:10:44,55.30255054910779
2.576,-0.67,9.51,22.0,2017-06-04 10:10:45,52.8162242401789
2.576,-0.66,9.452,19.0,2017-06-04 10:10:46,52.66311205362377
2.566,-0.66,9.519,22.0,2017-06-04 10:10:47,53.79893319571609
2.585,-0.651,9.519,22.0,2017-06-04 10:10:48,52.265733927617944
2.585,-0.66,9.529,22.0,2017-06-04 10:10:49,52.13994139423052
2.585,-0.612,9.471,20.0,2017-06-04 10:10:51,53.40166501467274
2.585,-0.632,9.443,19.0,2017-06-04 10:10:52,56.294436922866275
2.585,-0.632,9.452,22.0,2017-06-04 10:10:53,45.33462336060252
2.566,-0.641,9.471,20.0,2017-06-04 10:10:54,41.45245615320283
2.585,-0.622,9.443,22.0,2017-06-04 10:10:55,54.797764254614066
2.576,-0.612,9.462,23.0,2017-06-04 10:10:56,52.681010827031656
2.576,-0.651,9.51,22.0,2017-06-04 10:10:57,49.49234695345041
2.576,-0.632,9.51,22.0,2017-06-04 10:10:58,53.93286110346611
2.595,-0.622,9.462,23.0,2017-06-04 10:10:59,48.457053487620925
2.576,-0.632,9.5,23.0,2017-06-04 10:11:00,52.8691815073809
2.557,-0.66,9.462,23.0,2017-06-04 10:11:01,32.09768362855843
2.576,-0.641,9.471,22.0,2017-06-04 10:11:02,50.25831042959723
2.557,-0.651,9.462,23.0,2017-06-04 10:11:03,55.40732127105474
2.595,-0.632,9.452,22.0,2017-06-04 10:11:04,51.487179881183934
2.576,-0.622,9.471,22.0,2017-06-04 10:11:05,47.4638827142214
2.566,-0.651,9.49,22.0,2017-06-04 10:11:06,32.86114893805336
2.576,-0.66,9.49,23.0,2017-06-04 10:11:07,50.95018149155934
2.585,-0.641,9.529,23.0,2017-06-04 10:11:08,56.01602321327487
2.595,-0.641,9.49,22.0,2017-06-04 10:11:09,56.45137161395384
2.576,-0.66,9.49,22.0,2017-06-04 10:11:10,50.859353441985135
2.566,-0.612,9.51,23.0,2017-06-04 10:11:11,48.18248194566283
2.566,-0.641,9.49,23.0,2017-06-04 10:11:12,42.20160435070656
2.557,-0.632,9.49,22.0,2017-06-04 10:11:13,35.477312103245296
2.557,-0.66,9.471,23.0,2017-06-04 10:11:14,49.40004963883743
2.547,-0.632,9.481,23.0,2017-06-04 10:11:15,51.68014543235131
2.585,-0.651,9.5,22.0,2017-06-04 10:11:16,47.292482675799164
2.566,-0.612,9.5,22.0,2017-06-04 10:11:17,34.323975322230474
2.576,-0.67,9.462,22.0,2017-06-04 10:11:18,33.2222252607965
2.566,-0.641,9.481,20.0,2017-06-04 10:11:19,55.014608037434044
2.557,-0.622,9.49,22.0,2017-06-04 10:11:20,55.135347189051814
2.576,-0.651,9.548,23.0,2017-06-04 10:11:21,50.99455686909341
2.566,-0.66,9.414,20.0,2017-06-04 10:11:22,52.90684607273654
2.576,-0.612,9.5,20.0,2017-06-04 10:11:24,48.35172531915021
2.576,-0.612,9.519,23.0,2017-06-04 10:11:25,51.42915454281409
2.576,-0.622,9.462,22.0,2017-06-04 10:11:26,38.751715194782335
2.604,-0.641,9.481,22.0,2017-06-04 10:11:27,56.525090385267006
2.566,-0.641,9.471,22.0,2017-06-04 10:11:28,54.44997370059757
2.595,-0.641,9.471,19.0,2017-06-04 10:11:29,54.63458052671437
2.566,-0.641,9.529,22.0,2017-06-04 10:11:30,47.44388815056307
2.547,-0.641,9.452,22.0,2017-06-04 10:11:31,40.854879545279196
2.576,-0.651,9.51,23.0,2017-06-04 10:11:32,43.37517054178462
2.566,-0.689,9.51,20.0,2017-06-04 10:11:33,55.590134729649385
2.576,-0.641,9.5,20.0,2017-06-04 10:11:34,31.66977620839203
2.576,-0.641,9.51,22.0,2017-06-04 10:11:35,47.13952116249117
2.585,-0.632,9.51,19.0,2017-06-04 10:11:36,34.144401030390924
2.576,-0.651,9.49,22.0,2017-06-04 10:11:37,45.32529912793209
2.557,-0.622,9.452,24.0,2017-06-04 10:11:38,31.439852148404928
2.557,-0.622,9.462,20.0,2017-06-04 10:11:39,31.80894429679455
2.566,-0.632,9.471,23.0,2017-06-04 10:11:40,53.83304593416846
2.557,-0.651,9.481,23.0,2017-06-04 10:11:41,57.53391302054678
2.566,-0.632,9.452,22.0,2017-06-04 10:11:42,52.783093224089285
2.585,-0.651,9.462,22.0,2017-06-04 10:11:43,32.56651516880879
2.576,-0.622,9.51,20.0,2017-06-04 10:11:44,52.22478909009402
2.576,-0.66,9.471,22.0,2017-06-04 10:11:45,50.516687545108596
2.566,-0.641,9.471,22.0,2017-06-04 10:11:46,35.8493197060142
2.585,-0.632,9.519,22.0,2017-06-04 10:11:47,55.29613820849305
2.576,-0.651,9.5,22.0,2017-06-04 10:11:48,48.778024979538024
2.557,-0.632,9.462,23.0,2017-06-04 10:11:49,30.54865431036778
2.576,-0.66,9.471,20.0,2017-06-04 10:11:50,56.48532368848471
2.585,-0.651,9.452,22.0,2017-06-04 10:11:51,50.68763539831704
2.566,-0.632,9.423,22.0,2017-06-04 10:11:52,30.289963516168385
2.557,-0.632,9.462,22.0,2017-06-04 10:11:53,57.27400344362935
2.557,-0.632,9.529,23.0,2017-06-04 10:11:54,33.86227342070698
2.566,-0.632,9.443,20.0,2017-06-04 10:11:55,54.3544518578873
2.585,-0.66,9.519,22.0,2017-06-04 10:11:56,50.01679250234165
2.557,-0.651,9.519,20.0,2017-06-04 10:11:57,50.73891283538049
2.566,-0.651,9.5,23.0,2017-06-04 10:11:58,54.57686236316092
2.576,-0.651,9.481,22.0,2017-06-04 10:11:59,52.173921815856914
2.576,-0.612,9.452,22.0,2017-06-04 10:12:00,31.019003861840268
2.566,-0.641,9.462,20.0,2017-06-04 10:12:02,54.26328565680159
2.566,-0.641,9.452,20.0,2017-06-04 10:12:03,51.805303390881505
2.566,-0.641,9.433,22.0,2017-06-04 10:12:04,47.251912102956204
2.604,-0.641,9.5,22.0,2017-06-04 10:12:05,54.38829643502452
2.566,-0.622,9.49,20.0,2017-06-04 10:12:06,51.91196295690756
2.576,-0.641,9.529,20.0,2017-06-04 10:12:07,45.87871387015354
2.557,-0.622,9.519,23.0,2017-06-04 10:12:08,52.11456039485827
2.547,-0.651,9.471,23.0,2017-06-04 10:12:09,54.513369340706355
2.585,-0.651,9.471,22.0,2017-06-04 10:12:10,31.869894251570727
2.566,-0.641,9.5,22.0,2017-06-04 10:12:11,54.00099149480303
2.557,-0.641,9.481,20.0,2017-06-04 10:12:12,54.98788085099872
2.547,-0.641,9.471,20.0,2017-06-04 10:12:13,45.69439956898324
2.566,-0.651,9.471,20.0,2017-06-04 10:12:14,60.32169187876215
2.537,-0.622,9.481,24.0,2017-06-04 10:12:15,33.068738346161254
2.576,-0.66,9.471,20.0,2017-06-04 10:12:16,47.45511952248066
2.595,-0.612,9.433,20.0,2017-06-04 10:12:17,59.289316478743146
2.557,-0.679,9.481,23.0,2017-06-04 10:12:18,50.411951218336256
2.537,-0.641,9.519,22.0,2017-06-04 10:12:19,54.61986340428098
2.576,-0.651,9.51,20.0,2017-06-04 10:12:20,51.72858311714772
2.566,-0.632,9.49,22.0,2017-06-04 10:12:21,48.00203211881016
2.595,-0.632,9.519,19.0,2017-06-04 10:12:22,50.97135346591065
2.576,-0.66,9.481,22.0,2017-06-04 10:12:23,51.85902976356887
2.557,-0.641,9.414,24.0,2017-06-04 10:12:24,48.61822474797164
2.585,-0.593,9.462,22.0,2017-06-04 10:12:25,44.01638148865147
2.557,-0.641,9.481,20.0,2017-06-04 10:12:26,33.14397658579615
2.576,-0.651,9.462,22.0,2017-06-04 10:12:27,41.931985132565444
2.576,-0.612,9.452,22.0,2017-06-04 10:12:28,57.11543629090105
2.585,-0.632,9.471,22.0,2017-06-04 10:12:29,53.101327156136136
2.576,-0.641,9.471,22.0,2017-06-04 10:12:30,54.13358681054951
2.576,-0.622,9.519,22.0,2017-06-04 10:12:31,56.445682571896214
2.576,-0.651,9.51,20.0,2017-06-04 10:12:32,50.58900989253697
2.585,-0.67,9.51,20.0,2017-06-04 10:12:33,51.07858845571368
2.566,-0.651,9.481,23.0,2017-06-04 10:12:34,28.641076361675157
2.604,-0.632,9.51,23.0,2017-06-04 10:12:35,32.348209292035904
2.585,-0.651,9.51,22.0,2017-06-04 10:12:36,29.862997037687432
2.576,-0.651,9.462,20.0,2017-06-04 10:12:37,55.77726042629821
2.557,-0.66,9.414,19.0,2017-06-04 10:12:38,53.6022368579789
2.576,-0.612,9.471,20.0,2017-06-04 10:12:39,34.75627781671788
2.576,-0.651,9.462,23.0,2017-06-04 10:12:40,47.93503773386316
2.557,-0.67,9.49,23.0,2017-06-04 10:12:41,32.68417527796498
2.566,-0.641,9.5,22.0,2017-06-04 10:12:43,54.62508881224526
2.604,-0.651,9.519,22.0,2017-06-04 10:12:44,57.34580804132622
2.576,-0.632,9.49,23.0,2017-06-04 10:12:45,52.68039351552748
2.547,-0.622,9.51,20.0,2017-06-04 10:12:46,34.37828258820331
2.547,-0.612,9.49,22.0,2017-06-04 10:12:47,56.40569018222369
2.547,-0.651,9.519,22.0,2017-06-04 10:12:48,54.584455308290686
2.547,-0.632,9.423,22.0,2017-06-04 10:12:49,47.27782967473837
2.566,-0.651,9.5,22.0,2017-06-04 10:12:50,53.70204588121353
2.576,-0.651,9.471,23.0,2017-06-04 10:12:51,56.46719341241143
2.585,-0.66,9.462,19.0,2017-06-04 10:12:52,42.621641258626035
2.557,-0.66,9.49,20.0,2017-06-04 10:12:53,29.7678507298431
2.585,-0.632,9.49,22.0,2017-06-04 10:12:54,54.68889029620448
2.547,-0.632,9.481,22.0,2017-06-04 10:12:55,50.04644417177072
2.576,-0.632,9.5,19.0,2017-06-04 10:12:56,56.13505420496103
2.566,-0.66,9.443,19.0,2017-06-04 10:12:57,51.93149261613604
2.585,-0.641,9.49,20.0,2017-06-04 10:12:58,49.90070382037188
2.566,-0.67,9.5,22.0,2017-06-04 10:12:59,54.324375281310054
2.585,-0.622,9.49,22.0,2017-06-04 10:13:00,49.51686571828254
2.576,-0.641,9.5,19.0,2017-06-04 10:13:01,53.30465480677341
2.537,-0.622,9.471,22.0,2017-06-04 10:13:02,41.61014438349544
2.547,-0.641,9.462,20.0,2017-06-04 10:13:03,50.112410942851646
2.595,-0.632,9.481,19.0,2017-06-04 10:13:04,53.30396057238846
2.585,-0.632,9.548,20.0,2017-06-04 10:13:05,35.802034913319034
2.585,-0.622,9.471,19.0,2017-06-04 10:13:06,58.704707978064164
2.566,-0.622,9.605,20.0,2017-06-04 10:13:07,53.816025964698014
2.576,-0.641,9.5,22.0,2017-06-04 10:13:08,57.662234359730135
2.585,-0.632,9.519,20.0,2017-06-04 10:13:09,52.95790953878652
2.566,-0.632,9.481,22.0,2017-06-04 10:13:10,49.288309579873655
2.576,-0.641,9.5,20.0,2017-06-04 10:13:11,55.054371289833895
2.585,-0.632,9.452,22.0,2017-06-04 10:13:12,57.553235453654864
2.566,-0.593,9.452,19.0,2017-06-04 10:13:13,58.7435128029732
2.585,-0.603,9.471,22.0,2017-06-04 10:13:14,53.9009021105541
2.547,-0.641,9.452,20.0,2017-06-04 10:13:15,51.224353003099985
2.557,-0.66,9.471,23.0,2017-06-04 10:13:16,53.32907119139621
2.566,-0.603,9.49,19.0,2017-06-04 10:13:17,34.849919172323425
2.566,-0.641,9.471,22.0,2017-06-04 10:13:18,55.551845844854896
2.576,-0.622,9.538,22.0,2017-06-04 10:13:19,48.813443276807654
2.576,-0.641,9.5,20.0,2017-06-04 10:13:20,51.54891482080856
2.576,-0.641,9.51,23.0,2017-06-04 10:13:22,58.27758086896879
2.585,-0.641,9.51,22.0,2017-06-04 10:13:23,32.52820806468266
2.576,-0.622,9.5,20.0,2017-06-04 10:13:24,32.06120639443926
2.585,-0.612,9.49,19.0,2017-06-04 10:13:25,55.87596823443577
2.576,-0.632,9.5,20.0,2017-06-04 10:13:26,54.83556911393293
2.595,-0.622,9.471,22.0,2017-06-04 10:13:27,49.872823753157704
2.595,-0.651,9.452,22.0,2017-06-04 10:13:28,54.56280664780478
2.595,-0.622,9.471,22.0,2017-06-04 10:13:29,52.724248840707624
2.557,-0.641,9.452,22.0,2017-06-04 10:13:30,34.72283667198974
2.566,-0.622,9.462,22.0,2017-06-04 10:13:31,53.65806782755223
2.566,-0.641,9.538,20.0,2017-06-04 10:13:32,51.31372544867755
2.576,-0.651,9.51,22.0,2017-06-04 10:13:33,52.41860851987415
2.566,-0.632,9.51,20.0,2017-06-04 10:13:34,35.37485452191163
2.595,-0.651,9.538,19.0,2017-06-04 10:13:35,52.79297516730437
2.585,-0.651,9.51,20.0,2017-06-04 10:13:36,51.7128527783272
2.557,-0.641,9.577,19.0,2017-06-04 10:13:37,54.066653829626304
2.576,-0.632,9.471,22.0,2017-06-04 10:13:38,44.903336117233216
2.585,-0.641,9.433,19.0,2017-06-04 10:13:39,33.09708954324152
2.576,-0.67,9.5,23.0,2017-06-04 10:13:40,54.787546058204875
2.576,-0.651,9.481,20.0,2017-06-04 10:13:41,52.77600176852715
2.566,-0.67,9.5,17.0,2017-06-04 10:13:42,54.85227413952447
2.576,-0.622,9.5,19.0,2017-06-04 10:13:43,54.93567601989117
2.557,-0.67,9.51,19.0,2017-06-04 10:13:44,48.16101047212627
2.585,-0.66,9.49,19.0,2017-06-04 10:13:45,58.56842648797142
2.576,-0.641,9.51,22.0,2017-06-04 10:13:46,55.8125893687169
2.576,-0.641,9.51,20.0,2017-06-04 10:13:47,32.441591740384204
2.566,-0.651,9.452,19.0,2017-06-04 10:13:48,49.505671180674746
2.595,-0.641,9.51,20.0,2017-06-04 10:13:49,45.46313267156733
2.566,-0.632,9.452,22.0,2017-06-04 10:13:50,53.96801247350151
2.566,-0.632,9.462,20.0,2017-06-04 10:13:51,56.680030682085885
2.585,-0.67,9.51,20.0,2017-06-04 10:13:52,50.73425658429726
2.585,-0.622,9.462,20.0,2017-06-04 10:13:53,46.49407627446995
2.595,-0.632,9.433,22.0,2017-06-04 10:13:54,35.58102904827328
2.576,-0.66,9.538,22.0,2017-06-04 10:13:55,29.53447743818373
2.576,-0.632,9.481,22.0,2017-06-04 10:13:56,50.20175809788004
2.585,-0.651,9.471,23.0,2017-06-04 10:13:57,30.95858971019932
2.576,-0.641,9.529,19.0,2017-06-04 10:13:58,50.51580020410668
2.604,-0.641,9.471,20.0,2017-06-04 10:13:59,54.72062796352624
2.585,-0.651,9.51,20.0,2017-06-04 10:14:00,31.606062662772064
2.557,-0.632,9.51,20.0,2017-06-04 10:14:01,57.58761719133155
2.576,-0.641,9.443,19.0,2017-06-04 10:14:02,51.96643273641831
2.576,-0.651,9.49,19.0,2017-06-04 10:14:04,31.67981851064767
2.576,-0.632,9.471,20.0,2017-06-04 10:14:05,52.43531107351835
2.566,-0.622,9.519,20.0,2017-06-04 10:14:06,51.91976343544381
2.547,-0.641,9.49,19.0,2017-06-04 10:14:07,54.235990618776945
2.576,-0.641,9.49,22.0,2017-06-04 10:14:08,51.924150280441204
2.547,-0.622,9.462,20.0,2017-06-04 10:14:09,56.71980353869373
2.566,-0.651,9.51,22.0,2017-06-04 10:14:10,58.76384672694317
2.566,-0.622,9.452,22.0,2017-06-04 10:14:11,46.93828724766452
2.585,-0.632,9.462,22.0,2017-06-04 10:14:12,51.82159124194392
2.595,-0.632,9.548,19.0,2017-06-04 10:14:13,42.572422898737265
2.585,-0.641,9.462,22.0,2017-06-04 10:14:14,31.99976282306331
2.557,-0.612,9.443,20.0,2017-06-04 10:14:15,31.965178268728792
2.566,-0.612,9.471,19.0,2017-06-04 10:14:16,55.784357143319795
2.537,-0.641,9.462,20.0,2017-06-04 10:14:17,61.18360934462125
2.576,-0.632,9.452,23.0,2017-06-04 10:14:18,50.4340478730306
2.576,-0.641,9.49,19.0,2017-06-04 10:14:19,33.07030723920144
2.576,-0.622,9.462,20.0,2017-06-04 10:14:20,32.03084702571703
2.585,-0.632,9.5,20.0,2017-06-04 10:14:21,55.08759856153344
2.576,-0.632,9.5,22.0,2017-06-04 10:14:22,45.50509994010273
2.566,-0.632,9.519,22.0,2017-06-04 10:14:23,30.918259289594687
2.566,-0.632,9.49,19.0,2017-06-04 10:14:24,52.122792323509756
2.557,-0.651,9.471,19.0,2017-06-04 10:14:25,49.4315397885756
2.585,-0.632,9.481,19.0,2017-06-04 10:14:26,39.413908777559335
2.585,-0.651,9.462,20.0,2017-06-04 10:14:27,30.492335480568737
2.566,-0.67,9.443,20.0,2017-06-04 10:14:28,49.230985043484864
2.566,-0.612,9.519,20.0,2017-06-04 10:14:29,57.883515967492514
2.576,-0.641,9.49,20.0,2017-06-04 10:14:30,39.46284793382145
2.547,-0.641,9.49,22.0,2017-06-04 10:14:31,51.457926215175284
2.576,-0.622,9.519,20.0,2017-06-04 10:14:32,31.130805622345314
2.576,-0.651,9.529,22.0,2017-06-04 10:14:33,30.39769533721444
2.585,-0.593,9.51,17.0,2017-06-04 10:14:34,30.804439801944103
2.566,-0.622,9.462,20.0,2017-06-04 10:14:35,53.41667462957405
2.576,-0.651,9.462,22.0,2017-06-04 10:14:36,53.652534001865185
2.576,-0.641,9.452,19.0,2017-06-04 10:14:37,55.19107587684236
2.585,-0.641,9.49,20.0,2017-06-04 10:14:38,50.99109776518239
2.576,-0.651,9.452,19.0,2017-06-04 10:14:39,54.97519397717059
2.566,-0.632,9.529,19.0,2017-06-04 10:14:40,54.75602212271838
2.566,-0.67,9.5,20.0,2017-06-04 10:14:41,52.83770129180772
2.585,-0.632,9.481,20.0,2017-06-04 10:14:42,54.58922812900393
2.595,-0.641,9.5,20.0,2017-06-04 10:14:43,58.024993553349695
2.566,-0.651,9.519,20.0,2017-06-04 10:14:44,56.998583631349334
2.585,-0.622,9.481,19.0,2017-06-04 10:14:45,60.54938321844752
2.576,-0.641,9.5,20.0,2017-06-04 10:14:47,44.44004213166778
2.566,-0.651,9.51,20.0,2017-06-04 10:14:48,54.7193335374078
2.576,-0.66,9.51,19.0,2017-06-04 10:14:49,38.46327626817436
2.595,-0.622,9.471,20.0,2017-06-04 10:14:50,46.09112932624619
2.595,-0.622,9.519,19.0,2017-06-04 10:14:51,54.552994258583034
2.566,-0.622,9.51,19.0,2017-06-04 10:14:52,54.215175705763045
2.576,-0.622,9.452,19.0,2017-06-04 10:14:53,50.62666520069328
2.557,-0.622,9.443,22.0,2017-06-04 10:14:54,33.796406080803834
2.566,-0.632,9.481,19.0,2017-06-04 10:14:55,52.92506926085189
2.585,-0.66,9.529,19.0,2017-06-04 10:14:56,51.91486323254695
2.576,-0.632,9.5,19.0,2017-06-04 10:14:57,39.77396734642648
2.576,-0.632,9.49,19.0,2017-06-04 10:14:58,30.73413667575011
2.576,-0.641,9.481,22.0,2017-06-04 10:14:59,53.578475615420764
2.576,-0.612,9.423,20.0,2017-06-04 10:15:00,54.08506768089349
2.576,-0.622,9.481,22.0,2017-06-04 10:15:01,54.80394883256881
2.566,-0.632,9.49,19.0,2017-06-04 10:15:02,53.4257521808931
2.585,-0.641,9.433,19.0,2017-06-04 10:15:03,30.104573148159247
2.566,-0.651,9.443,20.0,2017-06-04 10:15:04,30.217128672221918
2.576,-0.622,9.471,22.0,2017-06-04 10:15:05,57.819995230520654
2.557,-0.641,9.49,19.0,2017-06-04 10:15:06,41.417235096870485
2.595,-0.641,9.49,19.0,2017-06-04 10:15:07,48.55762099496179
2.557,-0.632,9.443,22.0,2017-06-04 10:15:08,34.19599700161211
2.576,-0.632,9.5,20.0,2017-06-04 10:15:09,55.53103627566557
2.595,-0.651,9.5,20.0,2017-06-04 10:15:10,52.82573344577293
2.576,-0.632,9.519,23.0,2017-06-04 10:15:11,32.189752960963894
2.566,-0.66,9.51,20.0,2017-06-04 10:15:12,43.62409757854973
2.576,-0.66,9.519,20.0,2017-06-04 10:15:13,29.844591857888233
2.576,-0.651,9.5,20.0,2017-06-04 10:15:14,56.19787754999123
2.566,-0.632,9.5,22.0,2017-06-04 10:15:15,54.619415441596395
2.566,-0.612,9.5,22.0,2017-06-04 10:15:16,52.565659630612046
2.576,-0.612,9.51,22.0,2017-06-04 10:15:17,52.327977823412766
2.566,-0.651,9.49,20.0,2017-06-04 10:15:18,48.99173810933774
2.566,-0.612,9.452,20.0,2017-06-04 10:15:19,35.127540779431044
2.585,-0.632,9.5,20.0,2017-06-04 10:15:20,49.04864419758404
2.566,-0.622,9.481,20.0,2017-06-04 10:15:21,48.65437318500759
2.566,-0.641,9.5,20.0,2017-06-04 10:15:22,54.710459266500436
2.576,-0.67,9.529,17.0,2017-06-04 10:15:23,30.410995608631183
2.585,-0.632,9.51,22.0,2017-06-04 10:15:24,57.34750591885145
2.566,-0.632,9.49,20.0,2017-06-04 10:15:25,34.592232502941755
2.566,-0.632,9.462,19.0,2017-06-04 10:15:26,31.999471114515238
2.566,-0.632,9.49,20.0,2017-06-04 10:15:27,54.280428920420995
2.566,-0.67,9.385,19.0,2017-06-04 10:15:28,54.86692109172487
2.576,-0.622,9.462,20.0,2017-06-04 10:15:29,58.263985405586176
2.585,-0.651,9.519,20.0,2017-06-04 10:15:31,54.42878025501333
2.566,-0.632,9.452,19.0,2017-06-04 10:15:32,37.15469935381207
2.585,-0.632,9.462,20.0,2017-06-04 10:15:33,51.90969354309107
2.595,-0.641,9.51,20.0,2017-06-04 10:15:34,38.24532336872971
2.566,-0.622,9.481,20.0,2017-06-04 10:15:35,54.570141215927634
2.566,-0.632,9.51,22.0,2017-06-04 10:15:36,56.85878113673287
2.566,-0.641,9.51,20.0,2017-06-04 10:15:37,54.32070814350552
2.595,-0.641,9.548,17.0,2017-06-04 10:15:38,56.17008772131459
2.576,-0.651,9.51,19.0,2017-06-04 10:15:39,54.14348236223595
2.576,-0.632,9.49,20.0,2017-06-04 10:15:40,51.233297257566086
2.576,-0.632,9.5,22.0,2017-06-04 10:15:41,51.91023659167477
2.585,-0.632,9.49,20.0,2017-06-04 10:15:42,50.47547927252788
2.585,-0.612,9.452,23.0,2017-06-04 10:15:43,30.622690173057272
2.604,-0.622,9.443,19.0,2017-06-04 10:15:44,59.28048003628821
2.557,-0.632,9.481,19.0,2017-06-04 10:15:45,51.057930061101004
2.576,-0.632,9.519,19.0,2017-06-04 10:15:46,47.04197862670348
2.576,-0.651,9.49,19.0,2017-06-04 10:15:47,32.00112208707855
2.576,-0.622,9.423,19.0,2017-06-04 10:15:48,44.339564828268216
2.585,-0.632,9.481,20.0,2017-06-04 10:15:49,35.290861880051935
2.576,-0.612,9.5,20.0,2017-06-04 10:15:50,53.34977257667574
2.566,-0.67,9.529,19.0,2017-06-04 10:15:51,40.02718453341393
2.604,-0.641,9.49,20.0,2017-06-04 10:15:52,55.920003816516356
2.585,-0.632,9.51,20.0,2017-06-04 10:15:53,40.45267305255973
2.585,-0.651,9.481,20.0,2017-06-04 10:15:54,32.967097415453566
2.576,-0.641,9.49,19.0,2017-06-04 10:15:55,54.339166749768786
2.576,-0.632,9.462,22.0,2017-06-04 10:15:56,51.25014490849658
2.585,-0.651,9.49,17.0,2017-06-04 10:15:57,49.45868156762031
2.576,-0.641,9.462,22.0,2017-06-04 10:15:58,35.70815565253328
2.566,-0.641,9.452,20.0,2017-06-04 10:15:59,55.296142267458364
2.604,-0.593,9.49,20.0,2017-06-04 10:16:00,48.403332556389955
2.585,-0.622,9.51,19.0,2017-06-04 10:16:01,32.584174537994684
2.576,-0.622,9.51,19.0,2017-06-04 10:16:02,31.460298720933913
2.566,-0.612,9.481,20.0,2017-06-04 10:16:03,32.74495431436162
2.557,-0.622,9.452,20.0,2017-06-04 10:16:04,53.03584786947339
2.566,-0.651,9.548,20.0,2017-06-04 10:16:05,53.49937886620417
2.557,-0.622,9.5,17.0,2017-06-04 10:16:06,56.22823545291464
2.595,-0.632,9.471,20.0,2017-06-04 10:16:07,48.99470032934442
2.576,-0.651,9.49,22.0,2017-06-04 10:16:08,44.22635871437036
2.585,-0.641,9.471,20.0,2017-06-04 10:16:09,50.03713585602359
2.566,-0.603,9.481,20.0,2017-06-04 10:16:10,51.20108925436554
2.595,-0.612,9.529,17.0,2017-06-04 10:16:11,31.02541563737857
2.557,-0.632,9.49,20.0,2017-06-04 10:16:13,53.64264000471259
2.566,-0.622,9.51,19.0,2017-06-04 10:16:14,54.08741146449487
2.595,-0.641,9.49,19.0,2017-06-04 10:16:15,28.433660163942363
2.576,-0.67,9.529,19.0,2017-06-04 10:16:16,57.438860510550505
2.576,-0.641,9.49,19.0,2017-06-04 10:16:17,47.4154249450872
2.557,-0.651,9.462,19.0,2017-06-04 10:16:18,53.20408474827791
2.557,-0.632,9.49,19.0,2017-06-04 10:16:19,52.067749554538445
2.566,-0.632,9.462,19.0,2017-06-04 10:16:20,36.463968330914454
2.585,-0.632,9.481,19.0,2017-06-04 10:16:21,56.08942744554643
2.585,-0.622,9.49,20.0,2017-06-04 10:16:22,55.56798814143789
2.585,-0.612,9.5,19.0,2017-06-04 10:16:23,46.406016382119134
2.566,-0.612,9.481,22.0,2017-06-04 10:16:24,54.58774732001242
2.566,-0.641,9.481,22.0,2017-06-04 10:16:25,51.155485051068574
2.595,-0.622,9.452,19.0,2017-06-04 10:16:26,51.25308223792775
2.566,-0.632,9.519,20.0,2017-06-04 10:16:27,47.57078819755389
2.595,-0.632,9.471,19.0,2017-06-04 10:16:28,54.47489752441672
2.595,-0.632,9.443,19.0,2017-06-04 10:16:29,52.832134654374215
2.576,-0.66,9.481,22.0,2017-06-04 10:16:30,49.184557551002854
2.576,-0.632,9.404,19.0,2017-06-04 10:16:31,52.66580064707103
2.576,-0.632,9.481,22.0,2017-06-04 10:16:32,60.87280141256605
2.566,-0.641,9.471,23.0,2017-06-04 10:16:33,56.81121153619273
2.585,-0.641,9.433,19.0,2017-06-04 10:16:34,43.36149745156031
2.614,-0.641,9.49,20.0,2017-06-04 10:16:35,54.33609366701165
2.566,-0.651,9.51,20.0,2017-06-04 10:16:36,48.331380814551366
2.585,-0.632,9.529,20.0,2017-06-04 10:16:37,35.833980515498375
2.595,-0.622,9.481,19.0,2017-06-04 10:16:38,55.805709007001255
2.595,-0.651,9.519,20.0,2017-06-04 10:16:39,42.98053020357899
2.566,-0.641,9.529,19.0,2017-06-04 10:16:40,54.319053660671166
2.585,-0.622,9.481,17.0,2017-06-04 10:16:41,37.02173213856783
2.547,-0.632,9.51,19.0,2017-06-04 10:16:42,30.7429419312769
2.576,-0.612,9.5,22.0,2017-06-04 10:16:43,50.19524227977938
2.576,-0.612,9.49,19.0,2017-06-04 10:16:44,56.49116241469197
2.585,-0.641,9.471,19.0,2017-06-04 10:16:45,50.3455904178222
2.576,-0.632,9.471,19.0,2017-06-04 10:16:47,53.18963012140384
2.566,-0.641,9.577,20.0,2017-06-04 10:16:48,43.22693459697797
2.585,-0.622,9.51,19.0,2017-06-04 10:16:49,47.89626212714169
2.585,-0.641,9.529,19.0,2017-06-04 10:16:50,56.72775679219403
2.595,-0.632,9.452,19.0,2017-06-04 10:16:51,32.82218163382936
2.566,-0.622,9.49,19.0,2017-06-04 10:16:52,50.24052633386893
2.576,-0.622,9.481,19.0,2017-06-04 10:16:53,58.1331517171033
2.585,-0.632,9.5,19.0,2017-06-04 10:16:54,37.4772261366784
2.576,-0.632,9.49,19.0,2017-06-04 10:16:55,53.63767360205023
2.557,-0.632,9.529,22.0,2017-06-04 10:16:56,51.18544481269056
2.576,-0.603,9.471,19.0,2017-06-04 10:16:57,53.99579376749373
2.576,-0.641,9.481,19.0,2017-06-04 10:16:58,56.129096477695825
2.595,-0.641,9.462,19.0,2017-06-04 10:16:59,33.344561073429006
2.576,-0.622,9.423,20.0,2017-06-04 10:17:00,44.582771197700765
2.576,-0.612,9.49,20.0,2017-06-04 10:17:01,54.34054043708231
2.576,-0.632,9.462,20.0,2017-06-04 10:17:02,54.10028911758323
2.566,-0.612,9.49,19.0,2017-06-04 10:17:03,57.315993482790006
2.585,-0.651,9.443,17.0,2017-06-04 10:17:04,52.547043322111335
2.557,-0.641,9.49,17.0,2017-06-04 10:17:05,45.16840823423421
2.557,-0.612,9.49,20.0,2017-06-04 10:17:06,47.039913772431674
2.576,-0.622,9.481,17.0,2017-06-04 10:17:07,32.792049379638165
2.585,-0.622,9.49,19.0,2017-06-04 10:17:08,32.56052648117127
2.576,-0.679,9.423,17.0,2017-06-04 10:17:09,53.223294942860434
2.566,-0.632,9.5,17.0,2017-06-04 10:17:10,54.16013813616138
2.576,-0.641,9.5,20.0,2017-06-04 10:17:11,53.23737442365172
2.585,-0.641,9.519,19.0,2017-06-04 10:17:12,51.74752106738904
2.537,-0.641,9.5,19.0,2017-06-04 10:17:13,29.94927759220561
2.585,-0.641,9.51,17.0,2017-06-04 10:17:14,51.71910946204199
2.576,-0.651,9.443,19.0,2017-06-04 10:17:15,34.06448861217285
2.595,-0.622,9.49,17.0,2017-06-04 10:17:16,31.860992619205774
2.576,-0.641,9.538,22.0,2017-06-04 10:17:17,58.08186149903281
2.576,-0.632,9.51,19.0,2017-06-04 10:17:18,52.22425915667121
2.576,-0.632,9.404,19.0,2017-06-04 10:17:19,34.83819279914252
2.566,-0.632,9.471,22.0,2017-06-04 10:17:20,55.63796972607716
2.585,-0.651,9.452,20.0,2017-06-04 10:17:21,54.61568841643341
2.585,-0.622,9.49,17.0,2017-06-04 10:17:22,33.85530694141453
2.566,-0.641,9.49,19.0,2017-06-04 10:17:23,31.82620809554932
2.585,-0.66,9.5,17.0,2017-06-04 10:17:24,56.89551314496387
2.595,-0.641,9.519,17.0,2017-06-04 10:17:25,51.55877458715054
2.595,-0.632,9.49,17.0,2017-06-04 10:17:26,41.15515213307632
2.557,-0.641,9.519,19.0,2017-06-04 10:17:27,30.054256090289964
2.576,-0.66,9.538,17.0,2017-06-04 10:17:29,50.590249786775985
2.576,-0.632,9.49,19.0,2017-06-04 10:17:30,50.27217912825364
2.595,-0.641,9.49,19.0,2017-06-04 10:17:31,54.17345778272653
2.557,-0.66,9.529,19.0,2017-06-04 10:17:32,47.258547157457215
2.537,-0.632,9.5,17.0,2017-06-04 10:17:33,30.559495410802917
2.585,-0.632,9.481,19.0,2017-06-04 10:17:34,30.79985260896931
2.576,-0.66,9.471,19.0,2017-06-04 10:17:35,53.62119573548159
2.595,-0.622,9.5,16.0,2017-06-04 10:17:36,57.674343062752946
2.557,-0.641,9.519,20.0,2017-06-04 10:17:37,37.00738608131101
2.557,-0.632,9.481,17.0,2017-06-04 10:17:38,54.85738019345057
2.604,-0.603,9.462,16.0,2017-06-04 10:17:39,56.65394064164463
2.604,-0.622,9.462,17.0,2017-06-04 10:17:40,58.07780693327051
2.557,-0.612,9.452,17.0,2017-06-04 10:17:41,52.05320792427156
2.557,-0.603,9.49,19.0,2017-06-04 10:17:42,50.34181844305729
2.566,-0.622,9.5,17.0,2017-06-04 10:17:43,35.443851670875745
2.604,-0.651,9.49,17.0,2017-06-04 10:17:44,51.40078605442746
2.576,-0.603,9.481,16.0,2017-06-04 10:17:45,50.00333646623872
2.566,-0.612,9.5,17.0,2017-06-04 10:17:46,36.37852714635086
2.585,-0.641,9.548,19.0,2017-06-04 10:17:47,49.005982608807955
2.576,-0.651,9.5,19.0,2017-06-04 10:17:48,52.57297720729082
2.595,-0.641,9.481,19.0,2017-06-04 10:17:49,47.147471656871744
2.595,-0.641,9.51,19.0,2017-06-04 10:17:50,55.8777294943447
2.576,-0.641,9.51,17.0,2017-06-04 10:17:51,53.6475161161637
2.566,-0.651,9.481,19.0,2017-06-04 10:17:52,45.76480487365518
2.585,-0.641,9.51,17.0,2017-06-04 10:17:53,54.5743572843723
2.585,-0.622,9.471,19.0,2017-06-04 10:17:54,58.78861389472541
2.576,-0.622,9.433,19.0,2017-06-04 10:17:55,38.209853976580526
2.566,-0.641,9.481,15.0,2017-06-04 10:17:56,53.1354045631968
2.566,-0.641,9.5,19.0,2017-06-04 10:17:57,37.91658445179736
2.566,-0.603,9.481,17.0,2017-06-04 10:17:58,31.081271447200173
2.566,-0.651,9.529,17.0,2017-06-04 10:17:59,51.43194850387712
2.576,-0.612,9.471,17.0,2017-06-04 10:18:00,56.94839413854421
2.557,-0.632,9.5,17.0,2017-06-04 10:18:01,56.19698102068532
2.566,-0.603,9.481,20.0,2017-06-04 10:18:02,50.72692820515262
2.585,-0.612,9.51,19.0,2017-06-04 10:18:03,30.897126650968254
2.585,-0.641,9.49,19.0,2017-06-04 10:18:04,52.99583349840638
2.585,-0.641,9.51,17.0,2017-06-04 10:18:05,51.136741838083175
2.585,-0.632,9.462,19.0,2017-06-04 10:18:07,50.633948568730595
2.585,-0.641,9.557,17.0,2017-06-04 10:18:08,46.3208765995988
2.557,-0.612,9.471,17.0,2017-06-04 10:18:09,59.33337788521111
2.585,-0.651,9.49,19.0,2017-06-04 10:18:10,55.62378859635113
2.557,-0.67,9.519,16.0,2017-06-04 10:18:11,51.23014043922703
2.576,-0.612,9.49,19.0,2017-06-04 10:18:12,55.607460052649344
2.566,-0.612,9.5,17.0,2017-06-04 10:18:13,35.058939288932706
2.576,-0.622,9.49,19.0,2017-06-04 10:18:14,36.161082703630115
2.576,-0.641,9.49,17.0,2017-06-04 10:18:15,53.42290082012351
2.557,-0.622,9.481,16.0,2017-06-04 10:18:16,46.85075015649096
2.566,-0.632,9.51,17.0,2017-06-04 10:18:17,29.30330067511754
2.566,-0.641,9.5,20.0,2017-06-04 10:18:18,35.3080479859299
2.604,-0.622,9.49,17.0,2017-06-04 10:18:19,52.68704779045683
2.585,-0.622,9.529,17.0,2017-06-04 10:18:20,32.08627129768571
2.595,-0.622,9.519,19.0,2017-06-04 10:18:21,53.294401875596684
2.614,-0.622,9.462,17.0,2017-06-04 10:18:22,35.80279528724974
2.595,-0.632,9.5,17.0,2017-06-04 10:18:23,45.789257572039055
2.585,-0.641,9.481,17.0,2017-06-04 10:18:24,53.30714347528196
