ACC_X,ACC_Y,ACC_Z,GYRO_X,GYRO_Y,GYRO_Z,LIGH_1,GRAV_X,GRAV_Y,GRAV_Z,LINACC_X,LINACC_Y,LINACC_Z,ROTVEC_X,ROTVEC_Y,ROTVEC_Z,TIME,VOICE
6.965504,-0.673348,7.829016,0.0013646856,-0.0056839585,0.005705267,3.0,6.534511,-0.62881696,7.2852707,-0.42860126,0.040943056,-0.5198259,-0.34075287,-0.11154428,-0.85529023,2017-12-03 22:05:30,50.941910776451145
6.9511523,-0.660192,7.795528,0.001205802,-0.005162969,0.005178213,3.0,6.5342073,-0.6356933,7.284946,-0.44325697,0.046026714,-0.5213462,-0.3407838,-0.11152388,-0.8549203,2017-12-03 22:05:31,52.717160161103116
6.96072,-0.66378003,7.77998,0.0011251979,-0.004635319,0.004712239,3.0,6.53605,-0.63589567,7.283274,-0.41271046,0.038648367,-0.50866556,-0.3408663,-0.1116536,-0.85477513,2017-12-03 22:05:32,63.08490373946363
6.961916,-0.67693603,7.787156,-0.0014384426,-0.004166521,0.0043041557,3.0,6.534332,-0.6311089,7.285233,-0.41801673,0.03745514,-0.51507896,-0.340854,-0.11124338,-0.8554894,2017-12-03 22:05:33,56.76379971321141
6.9667,-0.67574,7.793136,9.179339E-4,-0.0037833676,0.003905341,3.0,6.532474,-0.6349316,7.286567,-0.42585403,0.03722038,-0.51374507,-0.34089154,-0.11082206,-0.85572547,2017-12-03 22:05:34,46.676522688893556
6.9583282,-0.666172,7.79194,0.0032921247,-0.0033785328,-0.0013054907,3.0,6.54085,-0.6387072,7.2787175,-0.40790978,0.03703275,-0.504851,-0.34157306,-0.110528655,-0.8558702,2017-12-03 22:05:35,36.084961564185804
6.959524,-0.673348,7.7835684,7.555932E-4,-0.0030189082,9.244755E-4,3.0,6.5374074,-0.63148266,7.2824397,-0.4185282,0.044257294,-0.51308805,-0.3407623,-0.11216058,-0.8544748,2017-12-03 22:05:36,48.049074941064475
6.9511523,-0.682916,7.769216,7.156804E-4,-0.0027653277,7.7831745E-4,3.0,6.5443974,-0.6331133,7.276018,-0.4043629,0.035450667,-0.5051578,-0.34122792,-0.11220466,-0.8543683,2017-12-03 22:05:37,40.26911691692848
6.941584,-0.66976,7.7967243,6.7415833E-4,-0.0024789274,0.0030328184,3.0,6.5382905,-0.6322889,7.281577,-0.42960548,0.036275137,-0.5055793,-0.34087548,-0.112012684,-0.85459626,2017-12-03 22:05:38,37.23898402676896
6.9690924,-0.666172,7.811076,0.0030237064,-0.0022427216,2.97755E-4,3.0,6.5320883,-0.6370878,7.2867236,-0.42504388,0.04104418,-0.5088041,-0.34057695,-0.11174921,-0.8545821,2017-12-03 22:05:39,41.74401323751403
6.9571323,-0.682916,7.787156,5.1023066E-4,-0.0019841418,3.287196E-5,3.0,6.5299764,-0.63781583,7.288553,-0.4247633,0.036728214,-0.5045827,-0.3406482,-0.111112915,-0.8552308,2017-12-03 22:05:40,56.47424400612937
6.961916,-0.667368,7.794332,0.005363334,-0.0017859638,0.004696436,3.0,6.5371146,-0.6396477,7.281991,-0.42719373,0.03968027,-0.49559742,-0.34115118,-0.11107531,-0.85520226,2017-12-03 22:05:41,52.35104728688313
6.9511523,-0.668564,7.781176,0.0028821677,8.875951E-4,0.0020331293,3.0,6.530856,-0.633365,7.288153,-0.41909987,0.039983053,-0.51813895,-0.34061152,-0.11131691,-0.85526395,2017-12-03 22:05:42,59.77936366389332
6.94876,-0.666172,7.793136,4.5333058E-4,-0.001424022,-6.14129E-4,3.0,6.545077,-0.62231433,7.2763367,-0.39411506,0.060601696,-0.5060352,-0.34122533,-0.11213985,-0.8550561,2017-12-03 22:05:43,51.83946827391715
6.955936,-0.668564,7.78596,-0.001991313,-0.0012526959,-7.949695E-4,3.0,6.533041,-0.62703156,7.286743,-0.4324632,0.03794446,-0.5004133,-0.34067744,-0.11143819,-0.855501,2017-12-03 22:05:44,50.64776975245782
6.947564,-0.668564,7.79792,0.0028204173,-0.003556013,0.0014887154,3.0,6.535226,-0.629475,7.28457,-0.42310208,0.03789302,-0.4954098,-0.34089348,-0.11127403,-0.8555526,2017-12-03 22:05:45,47.32989257495327
6.947564,-0.656604,7.799116,4.0257722E-4,-0.0010006055,-0.0010409057,3.0,6.5337915,-0.6259005,7.286167,-0.42214406,0.03907551,-0.50577277,-0.3406523,-0.111646615,-0.85534006,2017-12-03 22:05:46,64.43132409121534
6.9451723,-0.67215204,7.8027043,3.681518E-4,-8.7957084E-4,0.0013457313,3.0,6.531616,-0.6267517,7.288044,-0.42312372,0.037028294,-0.50748366,-0.34056,-0.111499466,-0.8554428,2017-12-03 22:05:48,55.85781793074511
6.95474,-0.668564,7.795528,3.007464E-4,-7.674098E-4,0.0012871549,3.0,6.52811,-0.62928504,7.290965,-0.42304248,0.044063013,-0.52250296,-0.34040564,-0.111302495,-0.8554983,2017-12-03 22:05:49,60.417300152721324
6.947564,-0.662584,7.799116,2.6536733E-4,-7.1395934E-4,0.0012975112,3.0,6.530075,-0.6310975,7.2890496,-0.42586043,0.033878524,-0.5004992,-0.3406603,-0.110961825,-0.8557786,2017-12-03 22:05:50,58.340871542401594
6.9631124,-0.66378003,7.799116,-0.0021597669,-6.217286E-4,-0.0011097044,3.0,6.5311904,-0.63463545,7.2877417,-0.44029346,0.03034056,-0.5101783,-0.34068057,-0.11119955,-0.85532224,2017-12-03 22:05:51,53.19204689082402
6.953544,-0.673348,7.800312,2.571568E-4,0.0019082427,0.0013399273,3.0,6.530807,-0.6289616,7.2885766,-0.4323054,0.03960238,-0.49618778,-0.34080505,-0.11062521,-0.8562709,2017-12-03 22:05:52,59.386735586041645
6.9583282,-0.666172,7.7895484,2.548024E-4,-4.7568977E-4,-0.0034999847,3.0,6.534176,-0.6333061,7.285181,-0.42295653,0.034061916,-0.49360302,-0.34091172,-0.11107817,-0.85554504,2017-12-03 22:05:53,58.28512149515192
6.953544,-0.66378003,7.7728043,0.0026647411,-4.1782856E-4,0.0013911203,3.0,6.5352955,-0.6304592,7.2844253,-0.4182488,0.0476728,-0.501535,-0.34110865,-0.11064651,-0.8561831,2017-12-03 22:05:54,58.06769958024779
6.961916,-0.67215204,7.7835684,2.177544E-4,-3.3003837E-4,-0.0010839775,3.0,6.531981,-0.6339308,7.2870965,-0.42873922,0.0310452,-0.5084312,-0.34105608,-0.11019223,-0.8564676,2017-12-03 22:05:55,45.88815930276206
6.9690924,-0.67454404,7.7967243,-0.0022687726,-2.9499084E-4,-0.0010992959,3.0,6.5353804,-0.62941813,7.284437,-0.42892802,0.01881386,-0.5218553,-0.34143654,-0.109627396,-0.85734874,2017-12-03 22:05:56,60.14477686601715
6.955936,-0.673348,7.805096,-0.0022892877,-0.0026930496,-0.0011405572,3.0,6.524603,-0.6284854,7.294171,-0.42894146,0.032902665,-0.51331717,-0.34063435,-0.10985886,-0.8571057,2017-12-03 22:05:57,50.502853642093044
6.959524,-0.67693603,7.800312,1.4515221E-4,-0.002655238,-0.0011617541,3.0,6.5297694,-0.6309885,7.2893305,-0.421383,0.043555576,-0.5169617,-0.34078556,-0.110511295,-0.856276,2017-12-03 22:05:58,69.70986588120957
7.00258,-0.6578,7.7417083,0.00251567,-2.225563E-4,-0.0037774593,3.0,6.538021,-0.63783246,7.2813363,-0.39160278,0.023555575,-0.5369161,-0.34128836,-0.11080385,-0.85560656,2017-12-03 22:05:59,64.23416336112625
6.947564,-0.670956,7.8039002,1.4115125E-4,-0.002548635,0.0011303052,3.0,6.5331564,-0.62886035,7.2864804,-0.4096236,0.040899657,-0.5186159,-0.3409091,-0.1107876,-0.8561099,2017-12-03 22:06:00,68.38536967621033
6.9451723,-0.67215204,7.8098803,1.19283795E-4,-1.14403665E-4,0.0010430142,3.0,6.5358453,-0.6243657,7.2844553,-0.4272674,0.053766295,-0.5170529,-0.3408543,-0.11142047,-0.85568464,2017-12-03 22:06:01,44.406049338007776
6.9571323,-0.66138804,7.8039002,0.0025383607,-1.3876706E-4,0.001080066,3.0,6.5268083,-0.630656,7.292012,-0.42554012,0.034319986,-0.49155602,-0.34038308,-0.1111316,-0.85560185,2017-12-03 22:06:02,59.0346048853884
6.949956,-0.670956,7.8027043,0.0025381818,-8.045137E-5,-0.0014034957,3.0,6.532407,-0.6272629,7.28729,-0.43070555,0.042497154,-0.51900226,-0.34062052,-0.11148682,-0.85543144,2017-12-03 22:06:03,51.39829754025688
6.967896,-0.66138804,7.8027043,-0.002336029,0.0024211928,0.0010331422,3.0,6.5396605,-0.6309344,7.280463,-0.41029578,0.03762962,-0.5126725,-0.34109917,-0.11158414,-0.8551508,2017-12-03 22:06:04,54.61885431046744
6.9583282,-0.66976,7.788352,1.1245161E-4,0.002465874,0.0010604858,3.0,6.533248,-0.63127345,7.2861896,-0.42508012,0.03609459,-0.51292676,-0.34076145,-0.11130766,-0.8554044,2017-12-03 22:06:05,58.46821634395731
6.9571323,-0.67693603,7.776392,0.0025647022,2.0951033E-5,0.0034843087,3.0,6.53532,-0.6318405,7.2842827,-0.41822484,0.054663464,-0.49091363,-0.34088412,-0.11136871,-0.8553151,2017-12-03 22:06:06,64.99827526089432
6.9511523,-0.67215204,7.7895484,1.2330711E-4,4.9747527E-5,0.0034421757,3.0,6.538653,-0.63301635,7.2811894,-0.41608664,0.029567676,-0.49400693,-0.3410894,-0.11144842,-0.8551768,2017-12-03 22:06:07,63.11914768878508
6.949956,-0.67215204,7.79792,1.196824E-4,-0.0023486316,9.575635E-4,3.0,6.5359473,-0.6333505,7.2835894,-0.4187924,0.038801514,-0.5191151,-0.34072524,-0.112011954,-0.85452485,2017-12-03 22:06:08,44.681848954605
6.9511523,-0.670956,7.793136,1.8008426E-4,1.0922551E-4,8.799359E-4,3.0,6.534031,-0.63251215,7.2853804,-0.43027768,0.03605185,-0.5089514,-0.34081483,-0.11132954,-0.8553138,2017-12-03 22:06:09,43.58734721353219
6.953544,-0.66378003,7.7967243,1.452826E-4,7.662177E-5,7.8995526E-4,3.0,6.535219,-0.63175946,7.284381,-0.42071664,0.026040597,-0.49440324,-0.340889,-0.11133139,-0.85536015,2017-12-03 22:06:10,53.858596777295766
6.97268,-0.666172,7.799116,1.5399233E-4,1.1947751E-4,7.759705E-4,3.0,6.5323873,-0.6321939,7.2868814,-0.41996145,0.026802083,-0.48831487,-0.34041548,-0.11220411,-0.85436046,2017-12-03 22:06:11,43.74723972094494
6.959524,-0.680524,7.774,0.0025512613,8.919835E-5,7.2271377E-4,3.0,6.5378013,-0.6292688,7.282277,-0.4121546,0.04647117,-0.5000947,-0.34061125,-0.11265516,-0.85405695,2017-12-03 22:06:12,70.16925059583426
6.989424,-0.667368,7.7847643,-0.0023143105,1.5029311E-4,-0.001632981,3.0,6.531171,-0.62860715,7.2882833,-0.4391174,0.05191687,-0.4916969,-0.34029102,-0.1122633,-0.85449356,2017-12-03 22:06:13,60.98155225067303
6.961916,-0.66378003,7.781176,0.0026098415,1.66744E-4,8.8404864E-4,3.0,6.538461,-0.62947047,7.2816668,-0.41508302,0.039093554,-0.5054893,-0.3408668,-0.11201847,-0.8547511,2017-12-03 22:06:14,52.24060456484116
6.9667,-0.680524,7.781176,1.825504E-4,1.5503913E-4,-0.001514867,3.0,6.5333405,-0.6324255,7.2860074,-0.4142238,0.0349425,-0.51669693,-0.3405865,-0.11188329,-0.8547063,2017-12-03 22:06:15,57.64596958535701
6.95474,-0.664976,7.7728043,-0.0022783913,1.8382818E-4,9.2855096E-4,3.0,6.533696,-0.62683296,7.286172,-0.4258277,0.03335903,-0.50457215,-0.3406035,-0.111794226,-0.8551244,2017-12-03 22:06:16,62.66016034536609
6.9631124,-0.666172,7.788352,-0.002252847,2.3402274E-4,9.5173717E-4,3.0,6.5302525,-0.6288263,7.2890863,-0.43764383,0.042129707,-0.5160101,-0.34044152,-0.11162269,-0.8551828,2017-12-03 22:06:17,63.82256899461503
6.955936,-0.66976,7.794332,-0.0022312738,2.546683E-4,8.466691E-4,3.0,6.541879,-0.630891,7.2784743,-0.42123336,0.030497065,-0.52064186,-0.3410853,-0.112079956,-0.8546195,2017-12-03 22:06:18,61.4656150304063
6.96072,-0.667368,7.799116,2.4212524E-4,2.9385835E-4,-0.0016080067,3.0,6.537194,-0.6276168,7.282965,-0.41515493,0.032575186,-0.5077788,-0.34065416,-0.11236925,-0.8544639,2017-12-03 22:06:19,61.80541881271328
6.955936,-0.664976,7.781176,0.0026733018,2.566129E-4,-0.0016460717,3.0,6.5326552,-0.6321126,7.286648,-0.42328036,0.04960735,-0.5017045,-0.34051508,-0.11195467,-0.8546419,2017-12-03 22:06:20,56.8105224034091
6.943976,-0.662584,7.811076,-0.0022267215,2.187118E-4,7.1503967E-4,0.0,6.538466,-0.63265246,7.2813883,-0.42344987,0.03471556,-0.5129437,-0.34056705,-0.11298959,-0.85349655,2017-12-03 22:06:21,64.16439142850406
6.955936,-0.67215204,7.8039002,2.3652986E-4,-0.0022278652,-0.0017640889,0.0,6.533956,-0.6291287,7.285741,-0.4219798,0.041827366,-0.49782735,-0.34036314,-0.112621374,-0.8540822,2017-12-03 22:06:22,53.04581158321933
6.943976,-0.67693603,7.7907443,3.0336902E-4,-0.002154015,6.1540306E-4,3.0,6.5303197,-0.62795043,7.289102,-0.42561612,0.038221594,-0.5028379,-0.34046036,-0.11156173,-0.8553,2017-12-03 22:06:23,63.922044292571485
6.955936,-0.67454404,7.801508,0.0027598962,2.9075146E-4,6.143078E-4,3.0,6.529678,-0.62949574,7.289544,-0.4382184,0.04026428,-0.5179443,-0.3404173,-0.111592166,-0.8551755,2017-12-03 22:06:24,59.06152746404395
6.946368,-0.678132,7.793136,3.0836836E-4,-0.0021158531,5.610734E-4,3.0,6.532214,-0.6270364,7.287482,-0.41893855,0.02597966,-0.50685006,-0.34103975,-0.11015323,-0.8568997,2017-12-03 22:06:25,59.27967127808799
6.953544,-0.670956,7.781176,0.0027456805,0.0027489811,5.747974E-4,3.0,6.533295,-0.6290091,7.2863436,-0.43101302,0.035966873,-0.5044003,-0.34088755,-0.110885516,-0.8559952,2017-12-03 22:06:26,45.05633452830524
6.953544,-0.670956,7.788352,-0.00211218,0.002790317,-0.004339628,3.0,6.5401154,-0.63049793,7.280094,-0.4074486,0.036870107,-0.5154337,-0.34112158,-0.11160032,-0.85516006,2017-12-03 22:06:27,54.98387492334153
6.9571323,-0.678132,7.812272,-0.004537165,3.309101E-4,-0.0042960644,3.0,6.5341377,-0.6274732,7.2857194,-0.41940674,0.03750285,-0.50382924,-0.34075764,-0.11142681,-0.85549355,2017-12-03 22:06:28,64.16148339822658
6.96072,-0.667368,7.7775884,3.2524765E-4,-0.0021434203,5.9759617E-4,0.0,6.531466,-0.6240004,7.288414,-0.4256664,0.04097564,-0.5107021,-0.3406157,-0.11124428,-0.85587794,2017-12-03 22:06:29,63.823455653715286
6.959524,-0.678132,7.799116,0.002707053,3.2237172E-4,0.005419895,3.0,6.5320644,-0.6303557,7.287329,-0.40593174,0.040600307,-0.5321189,-0.3407089,-0.111207254,-0.85556096,2017-12-03 22:06:30,47.47799666369443
6.96072,-0.662584,7.77998,2.7082115E-4,3.7886947E-4,6.028116E-4,3.0,6.537938,-0.62957275,7.2821302,-0.42637014,0.04018727,-0.490674,-0.34083638,-0.11200595,-0.85475653,2017-12-03 22:06:31,61.921159972258685
6.9690924,-0.679328,7.77998,-0.002148211,-0.0044139475,6.625727E-4,3.0,6.5443106,-0.62642264,7.2766757,-0.4199977,0.05529738,-0.4865601,-0.340975,-0.11282258,-0.85406804,2017-12-03 22:06:33,71.7815102522529
6.9702883,-0.656604,7.7775884,3.1963363E-4,5.4001063E-4,7.7691674E-4,3.0,6.542892,-0.63641226,7.2770824,-0.42739597,0.020191725,-0.5005056,-0.34105554,-0.11248636,-0.85386205,2017-12-03 22:06:34,59.055689186442315
6.96072,-0.680524,7.77998,3.0471385E-4,0.0029425547,-0.0015867203,3.0,6.5396824,-0.62996906,7.280529,-0.41027358,0.03620295,-0.5090198,-0.34059873,-0.113088,-0.8535476,2017-12-03 22:06:35,43.48496015377454
6.961916,-0.673348,7.758452,-0.0021562949,4.8366934E-4,9.512603E-4,3.0,6.567862,-0.63340354,7.254817,-0.39644614,0.037552465,-0.53114337,-0.34256905,-0.11293235,-0.8536666,2017-12-03 22:06:36,49.07005316433348
6.959524,-0.678132,7.79194,0.00514324,0.010148466,9.831488E-4,3.0,6.543344,-0.630261,7.277212,-0.4125918,0.055046983,-0.51831543,-0.34104165,-0.112499066,-0.85420114,2017-12-03 22:06:37,55.366939411942184
6.9631124,-0.660192,7.78596,1.9749999E-4,-0.002143234,9.886548E-4,3.0,6.5415297,-0.6349778,7.278434,-0.41440615,0.037174206,-0.5099182,-0.34093097,-0.11255782,-0.853858,2017-12-03 22:06:38,57.62225690749601
6.961916,-0.673348,7.7895484,0.0026730523,0.007557757,0.008305363,3.0,6.5424123,-0.62408805,7.2785826,-0.4171119,0.049259998,-0.5157494,-0.34097767,-0.112382635,-0.85467607,2017-12-03 22:06:39,69.9891265367338
6.8207884,-0.680524,7.918716,0.0074066445,8.2314014E-5,-0.003972307,3.0,6.412654,-0.6556743,7.3904233,-0.37344986,0.04278978,-0.51513684,-0.33409497,-0.107581906,-0.85749245,2017-12-03 22:06:40,52.168353547967364
6.806436,-0.679328,7.92948,0.0024695992,0.0073035583,8.656457E-4,0.0,6.402828,-0.641292,7.4001975,-0.40241176,0.06674005,-0.5041665,-0.33328846,-0.107767075,-0.8580591,2017-12-03 22:06:41,57.013022412322044
6.8148084,-0.67215204,7.922304,-0.0024052337,1.5690923E-4,-0.0015484318,0.0,6.407436,-0.6497332,7.395473,-0.41215575,0.014046792,-0.5256354,-0.33407974,-0.10642662,-0.8591009,2017-12-03 22:06:42,68.95444446261051
6.8219843,-0.679328,7.8959923,4.401058E-5,1.5132129E-4,-0.0014809221,0.0,6.4097643,-0.6369325,7.394569,-0.4146119,0.035219565,-0.50501114,-0.3338011,-0.10751189,-0.8586392,2017-12-03 22:06:43,44.323385752617014
6.844708,-0.658996,7.8708763,0.0024921708,1.4485419E-4,0.001001507,0.0,6.4144993,-0.6352023,7.390611,-0.4110726,0.033361733,-0.507773,-0.333953,-0.10797767,-0.85824454,2017-12-03 22:06:44,61.27558643156165
6.8411202,-0.688896,7.878052,2.1334738E-4,3.7269294E-4,-0.0039428845,3.0,6.416474,-0.6453639,7.388016,-0.38996202,0.03037607,-0.5199363,-0.33429185,-0.10754096,-0.8581582,2017-12-03 22:06:45,61.94830425007196
6.8160043,-0.712816,7.9199123,2.3959577E-4,-0.002139233,0.0033172593,0.0,6.418953,-0.64794457,7.3856354,-0.3934633,0.06845942,-0.5354729,-0.33456543,-0.10725388,-0.8583445,2017-12-03 22:06:46,65.22324031143108
6.818396,-0.67454404,7.8936,2.7017295E-4,3.984794E-4,-0.0015667677,0.0,6.4249024,-0.652389,7.38007,-0.38751405,0.029331017,-0.532666,-0.33488023,-0.10759391,-0.85774153,2017-12-03 22:06:47,60.90668294929675
6.812416,-0.68770003,7.90556,-0.0022559687,-0.0021282658,-0.0015128553,3.0,6.4089785,-0.6509804,7.3940263,-0.40343758,0.036719594,-0.5115338,-0.33395934,-0.10714852,-0.8582298,2017-12-03 22:06:48,50.90398239992321
6.850688,-0.67454404,7.8936,0.0026607364,3.7863106E-4,-0.0016252026,3.0,6.4135594,-0.64563763,7.3905206,-0.41201255,0.037278395,-0.51384324,-0.3340858,-0.10758714,-0.8580736,2017-12-03 22:06:49,62.483069976718426
6.819592,-0.67693603,7.9007764,0.0027198829,3.3947825E-4,-0.0015917793,3.0,6.4153275,-0.6450566,7.3890386,-0.40187225,0.036663406,-0.5141297,-0.3342205,-0.10752036,-0.8581924,2017-12-03 22:06:50,66.04477521708846
6.8172,-0.679328,7.8936,3.1869486E-4,3.3143908E-4,0.0032066554,3.0,6.419117,-0.640993,7.386099,-0.40406305,0.046707027,-0.5194611,-0.33444685,-0.10751316,-0.85845655,2017-12-03 22:06:51,56.08119621066571
6.830356,-0.68172,7.9378524,3.534034E-4,3.2509118E-4,0.0032163486,3.0,6.4106216,-0.63722885,7.3937993,-0.41614628,0.061235245,-0.5368769,-0.33412406,-0.10668788,-0.8595466,2017-12-03 22:06:52,65.85924371430266
6.8399243,-0.68770003,7.909148,-0.0020784177,3.3946335E-4,-0.0016915649,3.0,6.4088087,-0.6391193,7.39521,-0.43709555,0.050972722,-0.5342705,-0.33404446,-0.1066004,-0.8595256,2017-12-03 22:06:53,57.093802833136166
6.843512,-0.694876,7.898384,3.7020445E-4,-0.0020882487,7.68967E-4,3.0,6.409803,-0.6434917,7.393967,-0.4289251,0.048992362,-0.51159286,-0.3340915,-0.10674973,-0.85911304,2017-12-03 22:06:54,58.10483775216079
6.844708,-0.67693603,7.904364,4.1281804E-4,3.4906715E-4,7.6981634E-4,3.0,6.4180956,-0.64864075,7.386318,-0.42661273,0.028295318,-0.51804596,-0.3345707,-0.10707476,-0.8584996,2017-12-03 22:06:55,62.47360020429678
6.842316,-0.68770003,7.898384,4.585907E-4,3.298968E-4,8.0471486E-4,3.0,6.421973,-0.65129066,7.3827143,-0.41555884,0.026841318,-0.52164954,-0.33498746,-0.10662896,-0.85886514,2017-12-03 22:06:56,69.59939432401654
6.849492,-0.690092,7.891208,5.0470233E-4,3.3517182E-4,-0.00161618,3.0,6.420834,-0.64517206,7.3842416,-0.41550213,0.037743967,-0.5249065,-0.33472675,-0.10708145,-0.8587071,2017-12-03 22:06:57,62.900898638166616
6.83514,-0.678132,7.9199123,5.0938874E-4,3.52107E-4,-0.0015871301,3.0,6.417615,-0.6400987,7.3874836,-0.42470133,0.04162132,-0.51688045,-0.33448067,-0.10707911,-0.858984,2017-12-03 22:06:58,68.2961912330166
6.831552,-0.68530804,7.8936,5.2871555E-4,3.3569336E-4,8.8954717E-4,3.0,6.4168925,-0.6429608,7.387862,-0.41226798,0.04473923,-0.51530576,-0.3344037,-0.1072292,-0.8586479,2017-12-03 22:06:59,64.3068200871468
6.8399243,-0.688896,7.8947964,-0.0018916577,-0.0020978749,0.0033455268,3.0,6.4181633,-0.645483,7.3865347,-0.42056468,0.04700104,-0.5166332,-0.3344199,-0.10749333,-0.8582142,2017-12-03 22:07:00,63.47588592482131
6.824376,-0.68172,7.904364,5.5724755E-4,3.3334643E-4,8.40202E-4,3.0,6.421858,-0.63761795,7.3840094,-0.425242,0.042906027,-0.52513915,-0.33467185,-0.107308544,-0.8588942,2017-12-03 22:07:01,62.849911086427774
6.832748,-0.68530804,7.9079523,6.1609596E-4,3.65898E-4,8.0462545E-4,3.0,6.42134,-0.64506465,7.3838115,-0.41140756,0.040243383,-0.5241408,-0.33458874,-0.107613966,-0.8581216,2017-12-03 22:07:02,59.06006168183427
6.826768,-0.670956,7.898384,6.650016E-4,3.7077814E-4,-0.0016263723,3.0,6.424163,-0.6424784,7.3815823,-0.40738896,0.0428296,-0.5275661,-0.33463672,-0.10799242,-0.8578635,2017-12-03 22:07:03,58.00881130412342
6.838728,-0.68172,7.8947964,0.0031294674,4.1627884E-4,8.018166E-4,3.0,6.4224167,-0.6467399,7.38273,-0.4115274,0.04096015,-0.5240262,-0.33470386,-0.10751241,-0.85814464,2017-12-03 22:07:04,70.14590723907442
6.832748,-0.678132,7.897188,6.840117E-4,0.0028923675,-0.0016020164,3.0,6.418754,-0.6459179,7.385986,-0.41638592,0.02743015,-0.49924192,-0.3345221,-0.10730577,-0.8584023,2017-12-03 22:07:05,66.58811530146174
6.836336,-0.679328,7.912736,-0.0017708689,4.5906007E-4,9.075999E-4,3.0,6.4201374,-0.64095426,7.3852158,-0.4126105,0.038373716,-0.51316875,-0.33438864,-0.10790293,-0.85802853,2017-12-03 22:07:06,56.05819389543244
6.838728,-0.68770003,7.9199123,7.041283E-4,-0.0019408762,9.631887E-4,3.0,6.417531,-0.64110565,7.3874693,-0.41282502,0.03941833,-0.4953671,-0.3343856,-0.10737908,-0.858591,2017-12-03 22:07:07,68.88596139601998
6.8518844,-0.688896,7.9067564,-0.0017181225,5.067885E-4,9.4489753E-4,3.0,6.4182515,-0.64141124,7.386815,-0.43243632,0.054660834,-0.51874506,-0.3345685,-0.10696351,-0.8590407,2017-12-03 22:07:08,56.56075356274385
6.8339443,-0.67693603,7.910344,-0.0017105639,0.002948992,9.3983114E-4,3.0,6.413703,-0.64590853,7.390374,-0.42024145,0.040595483,-0.49365798,-0.33396763,-0.10798831,-0.8576079,2017-12-03 22:07:09,57.262537644501734
6.825572,-0.673348,7.909148,-0.0016785525,5.0542504E-4,-0.0014978573,3.0,6.418129,-0.6426479,7.3868136,-0.42059916,0.036680065,-0.5151584,-0.3345599,-0.106990725,-0.8589386,2017-12-03 22:07:10,60.77977276809626
6.8399243,-0.688896,7.903168,-0.0016981214,5.018413E-4,9.018406E-4,3.0,6.417728,-0.6407804,7.387326,-0.4305682,0.04333163,-0.5146464,-0.3343696,-0.10746279,-0.85851735,2017-12-03 22:07:11,46.31791662153907
6.8459044,-0.68530804,7.90556,-0.0016788058,4.8624724E-4,-0.0015251711,3.0,6.418642,-0.6432088,7.3863196,-0.42487025,0.04209924,-0.52043664,-0.33490226,-0.106033154,-0.85997164,2017-12-03 22:07:12,61.70394184637673
6.843512,-0.678132,7.915128,-0.0016307756,4.9375E-4,9.336695E-4,3.0,6.4210114,-0.6445687,7.3841424,-0.40814885,0.037151337,-0.5214175,-0.33480144,-0.10687184,-0.8589761,2017-12-03 22:07:13,56.97355338795475
6.8399243,-0.68172,7.891208,7.936694E-4,-0.0019250065,9.3033165E-4,3.0,6.417196,-0.64406264,7.387504,-0.41794425,0.0412454,-0.506096,-0.33414015,-0.10813236,-0.8575739,2017-12-03 22:07:14,56.354265708799204
6.83514,-0.67574,7.9007764,-0.0016303696,5.014166E-4,-0.0014936998,3.0,6.4192348,-0.64522934,7.3856273,-0.4099258,0.035294674,-0.5079729,-0.334454,-0.10760262,-0.8581127,2017-12-03 22:07:15,59.39948921730619
6.8339443,-0.67454404,7.909148,7.69645E-4,0.0029771551,0.003405273,3.0,6.4249983,-0.63951415,7.381113,-0.4065537,0.04220584,-0.51966333,-0.33496407,-0.10708459,-0.8590511,2017-12-03 22:07:17,60.79867154467063
6.8459044,-0.68172,7.9067564,-0.001687143,-0.0019248798,9.7271055E-4,3.0,6.418381,-0.6418097,7.3866687,-0.42034665,0.025558293,-0.51649934,-0.33447322,-0.10729611,-0.8586478,2017-12-03 22:07:18,63.62172126012274
6.8471003,-0.680524,7.897188,7.379204E-4,-0.0019247159,9.836778E-4,3.0,6.420257,-0.64378333,7.3848667,-0.41727498,0.03793664,-0.5087334,-0.33445373,-0.10778386,-0.8579992,2017-12-03 22:07:19,60.5156140100765
6.842316,-0.68172,7.9019723,-0.001699876,5.341247E-4,-0.0014343038,3.0,6.422121,-0.6420061,7.3833995,-0.42019525,0.03971388,-0.5185726,-0.33466944,-0.10746067,-0.8584736,2017-12-03 22:07:20,48.59509319199209
6.837532,-0.690092,7.886424,-0.0016828813,5.789846E-4,-0.0013785437,3.0,6.421882,-0.6442764,7.383408,-0.41565,0.04581563,-0.5030156,-0.33457118,-0.107763834,-0.8580024,2017-12-03 22:07:21,53.10182733734548
6.836336,-0.694876,7.8900123,7.840507E-4,-0.0018715411,-0.0013554618,3.0,6.42342,-0.6449834,7.38201,-0.41530806,0.046304584,-0.5020219,-0.33442134,-0.108557075,-0.85708004,2017-12-03 22:07:22,57.225623197958186
6.842316,-0.690092,7.8947964,7.872246E-4,5.459413E-4,0.0010537431,3.0,6.4214945,-0.6442828,7.3837457,-0.41364568,0.04341719,-0.50507075,-0.33454004,-0.107780926,-0.8579807,2017-12-03 22:07:23,52.81503874057394
6.8399243,-0.692484,7.8936,8.044094E-4,5.4848194E-4,-0.0014264956,3.0,6.420259,-0.64404845,7.3848414,-0.42564535,0.02690759,-0.5219149,-0.3341002,-0.10888057,-0.85675,2017-12-03 22:07:24,54.67728374501152
6.850688,-0.68770003,7.89958,7.9656765E-4,5.322695E-4,-0.0014353618,3.0,6.4164114,-0.6448747,7.388111,-0.423513,0.04162936,-0.5019009,-0.33404386,-0.10828606,-0.857349,2017-12-03 22:07:25,51.552257830462366
6.843512,-0.68770003,7.8936,0.0032439306,5.233288E-4,9.774789E-4,3.0,6.4147754,-0.6430644,7.3896894,-0.43232468,0.051811583,-0.50749886,-0.33396614,-0.10815409,-0.8575927,2017-12-03 22:07:26,63.26903258215991
6.836336,-0.68172,7.8900123,8.1016123E-4,-0.001916863,9.855926E-4,3.0,6.4186087,-0.64543784,7.386154,-0.41892335,0.03867416,-0.49189797,-0.33378583,-0.10953537,-0.85591626,2017-12-03 22:07:27,58.35450762903793
6.836336,-0.686504,7.892404,-0.0016128942,5.117133E-4,-0.001525104,3.0,6.417016,-0.64227396,7.3878145,-0.41932023,0.04183803,-0.50817806,-0.333577,-0.10978499,-0.8558067,2017-12-03 22:07:28,56.04854409966043
6.8399243,-0.694876,7.88762,8.6556E-4,-0.0019253641,-0.0015175566,3.0,6.419923,-0.6423099,7.385284,-0.4092378,0.029842108,-0.5166881,-0.33409664,-0.1087877,-0.85695386,2017-12-03 22:07:29,49.64188146312254
6.836336,-0.690092,7.886424,0.0033108182,5.311966E-4,-0.0015259534,3.0,6.4236794,-0.63836426,7.38236,-0.4138526,0.05292371,-0.5004764,-0.3344309,-0.10844543,-0.8575906,2017-12-03 22:07:30,56.99571520581049
6.850688,-0.686504,7.88762,8.45246E-4,5.212426E-4,8.557439E-4,3.0,6.417798,-0.6440229,7.3869834,-0.41614628,0.029325172,-0.51618487,-0.33397752,-0.10875549,-0.85687745,2017-12-03 22:07:31,57.71767914314719
6.8459044,-0.68770003,7.8828363,-0.001637131,5.398914E-4,-0.0016121194,3.0,6.42075,-0.6402948,7.3847413,-0.4143898,0.029465238,-0.50885844,-0.33408928,-0.108937666,-0.8569069,2017-12-03 22:07:32,62.51210453460371
6.860256,-0.67215204,7.855328,7.7227503E-4,-0.006777115,-0.0015518442,3.0,6.4251027,-0.6436336,7.3806643,-0.40405777,0.029714463,-0.5189158,-0.33436123,-0.109057285,-0.8566048,2017-12-03 22:07:33,53.74033523945179
6.838728,-0.682916,7.891208,0.0032207854,5.355105E-4,-0.0015849173,3.0,6.4240036,-0.6438516,7.381603,-0.41113633,0.033084452,-0.5263497,-0.33435577,-0.108854696,-0.85681397,2017-12-03 22:07:34,57.17508382548963
6.861452,-0.67454404,7.8696804,-0.0016231649,0.0030069798,8.848235E-4,0.0,6.4240475,-0.6437082,7.381575,-0.42544428,0.05116773,-0.49408466,-0.33442965,-0.10863357,-0.8570717,2017-12-03 22:07:35,58.448878446711774
6.8949404,-0.668564,7.849348,0.0028282292,-0.0013727918,8.076057E-4,3.0,6.4726133,-0.61619395,7.341389,-0.42113048,0.0356261,-0.50317454,-0.33692625,-0.110336274,-0.85703045,2017-12-03 22:07:36,52.25098573863302
6.897332,-0.65182,7.844564,3.464818E-4,-0.0012356788,-0.001542002,3.0,6.486485,-0.6122772,7.3294635,-0.4036714,0.050306804,-0.517493,-0.3375567,-0.111161634,-0.85641253,2017-12-03 22:07:37,46.374609492789325
6.9140763,-0.638664,7.819448,-0.0070936345,0.008717775,-0.0013941154,3.0,6.4961433,-0.60038054,7.3218884,-0.40836513,0.034695394,-0.51430386,-0.33806282,-0.11136032,-0.8569216,2017-12-03 22:07:38,62.73571069990217
6.9080963,-0.64584,7.8218403,0.007471975,-0.0034298748,0.0010645092,3.0,6.4955673,-0.59580505,7.322774,-0.40535307,0.036878947,-0.5146142,-0.33849812,-0.109824926,-0.8588602,2017-12-03 22:07:39,57.45110649237134
6.9080963,-0.63746804,7.8278203,2.7521327E-4,-0.0011860207,9.300187E-4,3.0,6.4839115,-0.617759,7.331278,-0.41700903,0.037649054,-0.51567864,-0.3379032,-0.109682485,-0.8577206,2017-12-03 22:07:40,55.482999774985615
6.8889604,-0.65301603,7.831408,-0.0020124651,-0.0014057085,-0.0015199706,3.0,6.4779196,-0.61393213,7.336896,-0.412237,0.033103887,-0.5028841,-0.3370639,-0.11095214,-0.8565044,2017-12-03 22:07:41,47.642530357887374
6.9080963,-0.649428,7.8397803,-0.036199182,0.020577386,0.00578586,3.0,6.4846807,-0.5964833,7.3323607,-0.41265142,0.04457272,-0.47871524,-0.33713347,-0.1117796,-0.85662097,2017-12-03 22:07:42,44.05086175744007
6.886568,-0.63746804,7.860112,-0.021012116,0.027382113,8.8095665E-4,0.0,6.483182,-0.5987461,7.333503,-0.4368746,0.05546594,-0.48833707,-0.33713114,-0.111526065,-0.8567649,2017-12-03 22:07:43,49.832859143305015
6.9069,-0.618332,7.836192,-0.028262015,0.024821304,-0.0015881434,3.0,6.4836116,-0.59891164,7.333108,-0.41611236,0.032576356,-0.5186328,-0.3370789,-0.11177374,-0.8564827,2017-12-03 22:07:44,51.882112213428655
6.91288,-0.642252,7.854132,0.0011868998,3.3492595E-4,-0.0016322434,3.0,6.475281,-0.60209656,7.340206,-0.42803136,0.03178345,-0.51871,-0.33662972,-0.11150849,-0.8565498,2017-12-03 22:07:45,49.99646555110033
6.915272,-0.647036,7.854132,-0.0012330487,3.2176822E-4,7.812232E-4,3.0,6.4777026,-0.60211265,7.338066,-0.40766954,0.029375367,-0.5160656,-0.336971,-0.110965274,-0.8571653,2017-12-03 22:07:46,46.47847462653253
6.8399243,-0.66976,7.8959923,-4.980974E-4,-0.005438879,6.8261474E-4,3.0,6.440228,-0.6425807,7.367561,-0.39371642,0.031963337,-0.54756725,-0.33554992,-0.10846766,-0.8574176,2017-12-03 22:07:47,61.31810173631938
6.8399243,-0.67454404,7.892404,-6.049089E-4,-4.99323E-4,-0.0017403588,3.0,6.432363,-0.63033015,7.375485,-0.42430502,0.041821886,-0.5240952,-0.33473063,-0.10913449,-0.85733294,2017-12-03 22:07:48,50.98058586078275
6.836336,-0.673348,7.892404,-6.7832693E-4,-0.0028680637,7.282123E-4,3.0,6.432431,-0.63524044,7.375004,-0.42184478,0.04049955,-0.5162042,-0.33490443,-0.10871279,-0.85752237,2017-12-03 22:07:49,43.96993641368457
6.849492,-0.67574,7.891208,0.0016855225,-3.284663E-4,-0.0016409233,3.0,6.4296856,-0.6372382,7.3772254,-0.41502282,0.040893808,-0.54029465,-0.3346412,-0.10900208,-0.85706604,2017-12-03 22:07:50,60.54468368106839
6.8471003,-0.680524,7.898384,0.0016134754,-2.791956E-4,-0.0015839934,3.0,6.4281616,-0.63645464,7.378622,-0.4261147,0.042873368,-0.5054098,-0.33455914,-0.10892742,-0.8571863,2017-12-03 22:07:51,60.4980437862254
6.818396,-0.660192,7.8840322,0.0015132129,-2.3052096E-4,-0.0015475228,3.0,6.4370627,-0.6357298,7.370919,-0.4088415,0.057950158,-0.5143086,-0.33500513,-0.10935829,-0.8567971,2017-12-03 22:07:52,58.23572673352527
6.8339443,-0.673348,7.8768563,0.0014385767,-1.3704598E-4,-0.0014716536,3.0,6.4379554,-0.634909,7.370212,-0.39479253,0.032459013,-0.5245844,-0.33523712,-0.10881122,-0.85746306,2017-12-03 22:07:53,54.8070353192357
6.837532,-0.68770003,7.874464,0.0013760589,-9.261817E-5,9.707734E-4,3.0,6.4329867,-0.6393568,7.3741665,-0.41650516,0.05312727,-0.5194336,-0.33492777,-0.10883771,-0.85714775,2017-12-03 22:07:54,58.21898170418589
6.850688,-0.673348,7.88762,0.0013480708,-0.002504766,-0.0038804933,3.0,6.432501,-0.6394345,7.374582,-0.4122072,0.043481488,-0.5058622,-0.33476168,-0.109250344,-0.85667646,2017-12-03 22:07:55,54.928678133848045
6.849492,-0.678132,7.88762,0.0012822114,-6.660819E-6,-0.0014428198,3.0,6.4322705,-0.6412823,7.374623,-0.41004562,0.030869698,-0.51060504,-0.33480504,-0.10910787,-0.8567283,2017-12-03 22:07:56,47.19053839658567
6.848296,-0.690092,7.885228,-0.0012056269,3.979355E-5,0.001010023,3.0,6.4293156,-0.63915217,7.377384,-0.40582478,0.03897979,-0.51741236,-0.3346022,-0.10908487,-0.8568598,2017-12-03 22:07:57,56.01069194351795
6.836336,-0.67454404,7.9019723,-0.0012372583,-0.002367638,0.0010134876,3.0,6.4259276,-0.63652873,7.380561,-0.4211726,0.04279928,-0.50945115,-0.33446836,-0.108752236,-0.85736555,2017-12-03 22:07:58,50.31621878118023
6.838728,-0.67454404,7.916324,-0.0012366138,1.4986098E-4,-0.0014431924,3.0,6.424931,-0.6347135,7.3815856,-0.42336512,0.052986544,-0.5191905,-0.3344604,-0.108536445,-0.85770696,2017-12-03 22:07:59,50.072947545430004
6.856668,-0.66378003,7.8947964,0.0011753775,2.1255761E-4,9.5096976E-4,3.0,6.4222574,-0.6358426,7.3838134,-0.40929452,0.035113398,-0.51337504,-0.33468938,-0.10730007,-0.8590077,2017-12-03 22:08:00,58.54939036525429
6.8411202,-0.667368,7.922304,-0.0012803786,2.432391E-4,9.177625E-4,3.0,6.4240036,-0.6363557,7.3822513,-0.41950846,0.050148327,-0.5304846,-0.3347518,-0.10747656,-0.85879135,2017-12-03 22:08:01,58.404472528282064
6.873412,-0.67574,7.8936,0.0011371523,2.798587E-4,-0.0015031323,3.0,6.423814,-0.63336205,7.382673,-0.44840252,0.061513916,-0.5073393,-0.33475134,-0.107377805,-0.859072,2017-12-03 22:08:02,61.50922283290174
6.838728,-0.67693603,7.89958,-0.0013566427,2.5551766E-4,-0.0014530569,3.0,6.425827,-0.632854,7.3809667,-0.41888127,0.04049407,-0.51024145,-0.33448526,-0.10860551,-0.85774225,2017-12-03 22:08:03,50.32639348465558
6.8399243,-0.66976,7.8936,0.0010611527,2.284795E-4,-0.0014243573,3.0,6.4273267,-0.63443947,7.3795233,-0.41618544,0.05684848,-0.5116846,-0.3347319,-0.108183295,-0.8581318,2017-12-03 22:08:04,57.9584029929757
6.83514,-0.667368,7.8959923,-0.0014178976,-0.0021613091,-0.0014498085,3.0,6.4275546,-0.63437545,7.37933,-0.4207412,0.046148516,-0.523838,-0.3352534,-0.10660255,-0.8598918,2017-12-03 22:08:05,58.6347324932795
6.8459044,-0.666172,7.918716,-0.0013989545,-0.0021425858,0.0010189489,3.0,6.421263,-0.6321689,7.3849945,-0.42224926,0.02682707,-0.52295774,-0.3351909,-0.10543802,-0.8612677,2017-12-03 22:08:06,56.19110266378475
6.854276,-0.67574,7.8959923,0.0010018647,-0.0021578372,9.867474E-4,3.0,6.4220324,-0.63718086,7.383895,-0.42865562,0.04453911,-0.50492114,-0.33515134,-0.10582891,-0.8605574,2017-12-03 22:08:08,60.7827647904641
6.8590603,-0.67215204,7.89958,-0.0014344156,3.21351E-4,-0.0014970377,3.0,6.427015,-0.6350819,7.379739,-0.42845747,0.04544212,-0.51266545,-0.33511904,-0.106926516,-0.8594907,2017-12-03 22:08:09,55.22653092738412
6.837532,-0.66378003,7.9019723,9.971336E-4,3.2051653E-4,-0.001517646,3.0,6.423681,-0.6369158,7.3824835,-0.42102763,0.037628233,-0.52188045,-0.33480278,-0.107262366,-0.8589957,2017-12-03 22:08:10,54.289802254441675
6.843512,-0.68172,7.909148,-0.0014635026,-0.0020985454,-0.0014953092,3.0,6.429122,-0.63516533,7.377895,-0.42156595,0.038182724,-0.515705,-0.33497876,-0.10780198,-0.8585252,2017-12-03 22:08:11,45.87538720164011
6.849492,-0.67574,7.886424,-0.001453001,3.3118576E-4,-0.003908105,3.0,6.42562,-0.6354774,7.38092,-0.42148003,0.04385054,-0.51148415,-0.33458602,-0.108305365,-0.8579257,2017-12-03 22:08:12,47.22642718026129
6.843512,-0.68172,7.89958,9.651296E-4,3.4932047E-4,8.9643896E-4,3.0,6.4281645,-0.63248706,7.378961,-0.4237199,0.049232963,-0.5098551,-0.33478913,-0.108138666,-0.8582988,2017-12-03 22:08:13,58.04635527378742
6.8339443,-0.668564,7.8959923,-0.0014843084,-0.0020333305,-0.0015270561,3.0,6.4279933,-0.6336277,7.3790107,-0.43345866,0.046896264,-0.50023735,-0.33475602,-0.108229145,-0.85813105,2017-12-03 22:08:14,43.29822165177792
6.849492,-0.67693603,7.885228,-0.0014813058,4.1603297E-4,-0.0015918091,3.0,6.4316726,-0.6367361,7.3755364,-0.42858374,0.044983927,-0.5144757,-0.33496976,-0.10838611,-0.85779727,2017-12-03 22:08:15,54.27524166899582
6.843512,-0.682916,7.8840322,-0.0014884062,-0.001986809,-0.0040305257,3.0,6.4290314,-0.63763475,7.3777623,-0.42165655,0.03930128,-0.5254057,-0.33481222,-0.10834953,-0.85777134,2017-12-03 22:08:16,55.472166697147536
6.843512,-0.67574,7.8840322,9.718798E-4,4.9384683E-4,-0.0016050711,3.0,6.4244084,-0.63880354,7.3816886,-0.41910395,0.03932846,-0.5214795,-0.33446413,-0.1085009,-0.8575072,2017-12-03 22:08:17,53.94049479129032
6.854276,-0.670956,7.885228,9.5650554E-4,0.0029366165,8.654669E-4,3.0,6.4328127,-0.6318442,7.3749647,-0.4106997,0.03791582,-0.50667524,-0.334907,-0.10871434,-0.8577189,2017-12-03 22:08:18,52.186122572225784
6.855472,-0.670956,7.9007764,9.197518E-4,5.046949E-4,8.7192655E-4,3.0,6.4250336,-0.6381151,7.381202,-0.42445818,0.0448009,-0.5219658,-0.33464518,-0.108055755,-0.85804945,2017-12-03 22:08:19,57.63580241961051
6.842316,-0.678132,7.91752,-0.0015132986,-0.0019119158,-0.0015973896,3.0,6.4283404,-0.6387683,7.378266,-0.41397595,0.050127722,-0.51892275,-0.33489963,-0.10796009,-0.8581373,2017-12-03 22:08:20,57.53180263684412
6.844708,-0.680524,7.912736,9.181984E-4,-0.0019308105,-0.0016138181,3.0,6.4275975,-0.63551503,7.379195,-0.42189446,0.035441022,-0.51081717,-0.33469278,-0.10838158,-0.8578496,2017-12-03 22:08:21,45.97618356353521
6.837532,-0.666172,7.904364,9.906851E-4,-0.0018686205,8.556172E-4,3.0,6.427662,-0.6377672,7.378945,-0.42541856,0.03318886,-0.51943946,-0.33460185,-0.10872066,-0.8573397,2017-12-03 22:08:22,57.11268060845944
6.848296,-0.67693603,7.90556,9.953342E-4,5.5175275E-4,-0.0016245395,3.0,6.4279423,-0.6351273,7.3789277,-0.41915774,0.047788683,-0.51945645,-0.3346947,-0.108438425,-0.8578103,2017-12-03 22:08:23,59.94165189965205
6.848296,-0.67454404,7.91154,-0.0014563724,5.181283E-4,-0.0016428158,3.0,6.4281025,-0.637809,7.378555,-0.42617375,0.03553908,-0.5078689,-0.3345873,-0.10885635,-0.85718733,2017-12-03 22:08:24,58.61285675996762
6.848296,-0.67693603,7.8959923,-0.0014248863,5.0860643E-4,7.6102465E-4,3.0,6.4276376,-0.6339729,7.3792915,-0.42424658,0.02980711,-0.51909286,-0.33447483,-0.109029554,-0.85721207,2017-12-03 22:08:25,48.08201428567011
6.8459044,-0.673348,7.8936,-0.001428362,-0.0019172952,6.6922605E-4,3.0,6.425883,-0.63727295,7.380535,-0.41643327,0.03248707,-0.5226327,-0.33422562,-0.109501965,-0.85647714,2017-12-03 22:08:26,51.834032013375904
6.850688,-0.68770003,7.9007764,-0.0038668625,5.275309E-4,6.483793E-4,3.0,6.424055,-0.6347386,7.3823442,-0.41945702,0.04219744,-0.5172358,-0.3342269,-0.10907598,-0.85709375,2017-12-03 22:08:27,51.68254725978602
6.848296,-0.678132,7.891208,0.0010618195,5.3633004E-4,-0.0017894432,3.0,6.427565,-0.63306135,7.3794317,-0.4183388,0.029522667,-0.5046002,-0.3342897,-0.10956312,-0.85666335,2017-12-03 22:08:28,43.09825403869357
6.8518844,-0.67454404,7.915128,0.0011295117,-0.001895532,-0.0017533451,3.0,6.4192133,-0.63527405,7.38651,-0.43027884,0.028505964,-0.532206,-0.33385602,-0.10923828,-0.85684955,2017-12-03 22:08:29,67.15639115995376
6.8471003,-0.670956,7.8936,-0.0013182946,5.545467E-4,6.7881495E-4,3.0,6.416355,-0.6316985,7.389299,-0.42715693,0.050021484,-0.52104515,-0.33350465,-0.10965992,-0.85656226,2017-12-03 22:08:30,65.51867584474687
6.844708,-0.67215204,7.9067564,-0.0012850799,5.2426755E-4,-0.0017407537,3.0,6.421888,-0.63369,7.384321,-0.42282036,0.038462054,-0.5224351,-0.33413413,-0.1088983,-0.8573416,2017-12-03 22:08:31,58.922822523751506
6.848296,-0.667368,7.89958,-0.0012814775,-0.001925461,7.288903E-4,3.0,6.4274354,-0.6365666,7.3792453,-0.41727266,0.039173417,-0.5179431,-0.3344005,-0.10926835,-0.8567916,2017-12-03 22:08:32,45.130555342158736
6.825572,-0.67454404,7.9067564,0.0011570007,5.2241236E-4,-0.0017047524,3.0,6.442054,-0.63556236,7.3665724,-0.40265435,0.049745664,-0.5210475,-0.3352263,-0.10969351,-0.8564599,2017-12-03 22:08:33,58.38981035215572
6.854276,-0.67574,7.8936,-0.0012714379,5.1277876E-4,7.53507E-4,3.0,6.429492,-0.6339492,7.3776793,-0.41760817,0.03700681,-0.51592064,-0.33468732,-0.10875429,-0.85753345,2017-12-03 22:08:34,48.892857390450374
6.8399243,-0.682916,7.9007764,0.0011701062,5.138293E-4,-0.004033737,3.0,6.427649,-0.6378272,7.378951,-0.42303896,0.04389277,-0.5170412,-0.33470276,-0.10840814,-0.85768664,2017-12-03 22:08:35,57.3357934831284
6.837532,-0.67215204,7.8959923,0.0011576451,5.2084774E-4,-0.0014751405,3.0,6.425174,-0.63392615,7.381442,-0.41594636,0.02387392,-0.5001982,-0.334427,-0.10867312,-0.85760057,2017-12-03 22:08:36,61.27257120340728
6.848296,-0.67454404,7.8959923,-0.0013320819,0.0029610172,0.0010629892,3.0,6.4217405,-0.63619906,7.384233,-0.43732,0.037148997,-0.5021908,-0.334225,-0.10863963,-0.85748625,2017-12-03 22:08:37,43.05426297089211
6.8459044,-0.673348,7.88762,0.001132153,5.176142E-4,-0.0013485774,3.0,6.42787,-0.6385782,7.378693,-0.4156424,0.033573844,-0.52447516,-0.33459038,-0.10881496,-0.857188,2017-12-03 22:08:38,52.89816904974998
6.8399243,-0.67693603,7.90556,-0.0012981258,-0.001922749,0.0010754317,3.0,6.4260993,-0.6382364,7.380265,-0.42219666,0.045875616,-0.52529466,-0.33460048,-0.10841495,-0.8576464,2017-12-03 22:08:39,58.12471642647143
6.842316,-0.68172,7.8936,0.0011532009,4.9367547E-4,0.0010490194,3.0,6.4235272,-0.6360371,7.382693,-0.42596447,0.04807488,-0.52286714,-0.33437276,-0.10854636,-0.857611,2017-12-03 22:08:40,50.84877215510509
6.850688,-0.688896,7.9019723,-0.0012879968,-0.0019206628,0.0010435805,3.0,6.4337325,-0.6353741,7.3738594,-0.41695526,0.043953855,-0.5245248,-0.33490744,-0.10897196,-0.8572318,2017-12-03 22:08:41,53.78960292058174
6.849492,-0.673348,7.91154,0.001110103,5.3652376E-4,-0.0014306903,3.0,6.425749,-0.63616896,7.380749,-0.42613575,0.039571036,-0.51763505,-0.33450282,-0.10860231,-0.8575537,2017-12-03 22:08:42,47.86410623762308
6.842316,-0.670956,7.9007764,0.0011591949,5.11989E-4,-0.0014195815,3.0,6.4424033,-0.63770187,7.3660817,-0.40350074,0.017706191,-0.52871466,-0.33533487,-0.10947547,-0.8565832,2017-12-03 22:08:43,43.64205134672546
6.849492,-0.66976,7.898384,0.0011538789,5.3646415E-4,9.911135E-4,3.0,6.428747,-0.63473207,7.3782573,-0.4123732,0.030243967,-0.517735,-0.3345075,-0.109170616,-0.857016,2017-12-03 22:08:44,65.57983911858696
6.843512,-0.67574,7.8900123,0.0011775903,5.346462E-4,-0.0015069619,3.0,6.430486,-0.63052696,7.3771048,-0.4321616,0.047604997,-0.5069272,-0.3347467,-0.10870608,-0.85779077,2017-12-03 22:08:45,60.817962539485464
6.849492,-0.67454404,7.87566,0.001163546,5.142987E-4,-0.0015122294,3.0,6.425657,-0.63819516,7.380654,-0.42383507,0.03634886,-0.49500588,-0.3350002,-0.10708086,-0.8591344,2017-12-03 22:08:46,68.71184845166049
6.8518844,-0.680524,7.878052,-0.0012784079,5.112067E-4,9.203106E-4,3.0,6.428074,-0.6389473,7.3784833,-0.4106541,0.033204716,-0.51511693,-0.33490345,-0.10789713,-0.85819584,2017-12-03 22:08:47,44.726714179326656
6.843512,-0.67454404,7.88762,-0.0012669265,-0.001895152,9.777322E-4,3.0,6.4324894,-0.63485754,7.374987,-0.41819853,0.04327442,-0.5006728,-0.33456323,-0.109762385,-0.8563647,2017-12-03 22:08:48,52.65874189597121
6.842316,-0.682916,7.88164,0.0012016967,5.687922E-4,9.901822E-4,3.0,6.4289317,-0.6335978,7.3781943,-0.43132454,0.038554262,-0.51301384,-0.3339651,-0.11083339,-0.8552003,2017-12-03 22:08:49,43.29768003413136
6.844708,-0.673348,7.903168,-0.0012292191,-0.0018787906,-0.0014385134,3.0,6.4270754,-0.6364001,7.379574,-0.43557227,0.034555912,-0.51043844,-0.33411956,-0.110048346,-0.8559169,2017-12-03 22:08:50,56.76704022210254
6.842316,-0.682916,7.8696804,-0.0012037903,5.696416E-4,-0.0014477447,3.0,6.4313693,-0.63653165,7.375819,-0.41692662,0.03920834,-0.5058207,-0.33447835,-0.10982773,-0.85618657,2017-12-03 22:08:51,46.3617268263032
6.8518844,-0.678132,7.88762,-0.0011988208,5.827546E-4,-0.0013666451,3.0,6.4314055,-0.63723904,7.3757277,-0.4097148,0.020560997,-0.50112873,-0.33431423,-0.110347666,-0.8555565,2017-12-03 22:08:52,45.30197308636047
6.848296,-0.670956,7.878052,-0.0012253895,0.003021285,-0.0012696534,3.0,6.4322457,-0.6379018,7.3749366,-0.41485447,0.035446286,-0.5019196,-0.33431315,-0.11053328,-0.8553124,2017-12-03 22:08:53,49.17388849245506
6.8471003,-0.668564,7.8900123,-0.0012429096,5.6266785E-4,-0.001234442,3.0,6.4340696,-0.63577616,7.37353,-0.41063833,0.039963834,-0.51528645,-0.33436856,-0.11069022,-0.8552703,2017-12-03 22:08:54,52.614405473796346
6.8399243,-0.682916,7.879248,-0.0012389645,-0.001879245,-0.0011998191,3.0,6.434385,-0.6372225,7.373129,-0.4198913,0.040909447,-0.5144909,-0.33411404,-0.111547604,-0.8542097,2017-12-03 22:08:55,59.358982882614306
6.855472,-0.67454404,7.868484,-0.0012929812,0.002977945,-0.0011867508,3.0,6.4314303,-0.6359908,7.3758125,-0.4072978,0.03376922,-0.49984747,-0.33372128,-0.11210862,-0.85361725,2017-12-03 22:08:56,55.59587211570065
6.831552,-0.670956,7.897188,0.0011536591,-0.0018952638,0.0013655052,3.0,6.428465,-0.6356274,7.3784304,-0.40189096,0.05326865,-0.5008178,-0.33387724,-0.11104423,-0.8548378,2017-12-03 22:08:57,56.00767913335435
6.842316,-0.673348,7.8888164,0.0011688657,-0.0019114092,-0.0010333061,3.0,6.431155,-0.63873047,7.375815,-0.408769,0.02744155,-0.5082172,-0.33434126,-0.11024534,-0.8555839,2017-12-03 22:08:59,47.881148491383826
6.8518844,-0.678132,7.878052,-0.0012754053,5.237162E-4,-0.0033539683,3.0,6.4273624,-0.63500255,7.3794436,-0.41375792,0.029973479,-0.49262863,-0.33403665,-0.11032973,-0.8556809,2017-12-03 22:09:00,39.9361208449914
6.836336,-0.67215204,7.8947964,-0.0011996143,5.464107E-4,-7.551834E-4,3.0,6.4300804,-0.63634664,7.3769574,-0.4074515,0.03819741,-0.5166425,-0.33458227,-0.109245226,-0.8568465,2017-12-03 22:09:01,59.007762816713054
6.843512,-0.670956,7.87566,0.0012467988,5.1835924E-4,-6.502643E-4,3.0,6.4312882,-0.63451153,7.3760633,-0.40983227,0.044816464,-0.5067735,-0.33470544,-0.109076574,-0.8571498,2017-12-03 22:09:02,41.230060947000524
6.843512,-0.680524,7.892404,-0.0012056753,-0.0019471422,0.0018781498,3.0,6.427905,-0.63726944,7.378775,-0.4096271,0.045646556,-0.5016689,-0.33473757,-0.10834186,-0.8577945,2017-12-03 22:09:03,53.706906650683706
6.83514,-0.67215204,7.9007764,-0.0012015626,-0.0019308254,-5.3908676E-4,3.0,6.430958,-0.6414419,7.375753,-0.41853404,0.03788608,-0.5094751,-0.33489063,-0.10857967,-0.8573047,2017-12-03 22:09:04,41.49287447057879
6.843512,-0.67574,7.88164,-0.0012035854,0.0029479787,-5.940795E-4,3.0,6.4283967,-0.6384103,7.378249,-0.42707565,0.03015373,-0.4974106,-0.3348109,-0.108239084,-0.85784656,2017-12-03 22:09:05,60.48647261763332
6.8530803,-0.670956,7.8648963,0.0012206212,0.0029549971,0.0018901601,3.0,6.430075,-0.6376606,7.3768487,-0.41822073,0.039275415,-0.51077104,-0.33480483,-0.10858679,-0.8575101,2017-12-03 22:09:06,57.886083623270494
6.8279643,-0.67454404,7.892404,0.00121364,5.265251E-4,-6.003678E-4,3.0,6.4339294,-0.6361697,7.373618,-0.42154258,0.03478636,-0.49486616,-0.3351048,-0.108420104,-0.8578047,2017-12-03 22:09:07,60.44477099666786
6.8518844,-0.67574,7.898384,0.001229167,-0.0019227043,0.0018450394,3.0,6.4316816,-0.63824296,7.3754,-0.41183075,0.042281028,-0.502652,-0.33498326,-0.10837671,-0.857721,2017-12-03 22:09:08,61.25372786547637
6.849492,-0.679328,7.8840322,0.0011927597,0.002973318,-6.0030073E-4,3.0,6.4322042,-0.6397353,7.374815,-0.42087623,0.044376757,-0.49366906,-0.33482608,-0.10899832,-0.8569408,2017-12-03 22:09:09,42.203438936615655
6.850688,-0.68172,7.878052,-0.0012478419,5.0358474E-4,-6.0323626E-4,3.0,6.4362974,-0.6353288,7.3716235,-0.4000386,0.04041114,-0.5195844,-0.33513743,-0.108787656,-0.85745573,2017-12-03 22:09:10,63.68573970997648
6.8518844,-0.673348,7.891208,0.0011543557,-0.0019213259,0.0017895326,3.0,6.4309297,-0.6397797,7.3759203,-0.41138652,0.033568364,-0.5200719,-0.3347848,-0.10886607,-0.85707915,2017-12-03 22:09:11,54.03373548976336
6.844708,-0.680524,7.885228,0.0011119507,5.5284053E-4,0.0017992258,3.0,6.4335732,-0.639034,7.3736796,-0.41113517,0.030726051,-0.51633275,-0.33497065,-0.10881918,-0.85719055,2017-12-03 22:09:12,52.44643223588986
6.844708,-0.67574,7.9007764,0.0035578534,5.636215E-4,-6.560832E-4,3.0,6.4299583,-0.6410248,7.3766603,-0.42551383,0.03471512,-0.5121558,-0.33481833,-0.10858962,-0.8573118,2017-12-03 22:09:13,68.53801627323837
6.842316,-0.684112,7.88762,0.0010875687,-0.0018675476,-6.8990886E-4,3.0,6.4319906,-0.63892746,7.375071,-0.4055413,0.030832581,-0.48982525,-0.33470213,-0.10931852,-0.856626,2017-12-03 22:09:14,60.11647289289512
6.83514,-0.667368,7.9019723,0.0010585561,5.992353E-4,-6.7508966E-4,3.0,6.427078,-0.6356888,7.379633,-0.42480657,0.03407127,-0.50798696,-0.3343541,-0.109319784,-0.8567824,2017-12-03 22:09:15,62.96414537104287
6.848296,-0.67454404,7.90556,0.001068607,5.5810064E-4,0.0017225891,3.0,6.4265428,-0.63748384,7.379942,-0.43849722,0.04184417,-0.50408995,-0.33432177,-0.10934638,-0.85664475,2017-12-03 22:09:16,62.84743842623881
6.82916,-0.67574,7.891208,0.0010378622,-0.001889132,0.0017097741,3.0,6.4273076,-0.6396004,7.379092,-0.41740066,0.042119626,-0.5192922,-0.3344203,-0.10924295,-0.8566432,2017-12-03 22:09:17,51.4349764225107
6.848296,-0.67693603,7.879248,0.0010287464,5.476549E-4,0.0016539916,3.0,6.4306984,-0.6394325,7.3761544,-0.41759765,0.03750358,-0.5030939,-0.3344746,-0.109761536,-0.8560884,2017-12-03 22:09:18,67.05900869742081
6.854276,-0.68172,7.891208,9.771511E-4,5.5906177E-4,-8.056611E-4,3.0,6.4272723,-0.6375874,7.3792987,-0.41025954,0.03576061,-0.5190858,-0.33430764,-0.109539546,-0.8564251,2017-12-03 22:09:19,60.911666680407464
6.8459044,-0.680524,7.8828363,9.4906613E-4,5.735308E-4,0.0015960112,3.0,6.4337244,-0.6364362,7.3737755,-0.4002198,0.041695774,-0.5305886,-0.33481482,-0.10927588,-0.8568289,2017-12-03 22:09:20,54.851641192003314
6.837532,-0.673348,7.903168,9.2535466E-4,0.0030225292,0.0015430003,3.0,6.430759,-0.6359908,7.3763986,-0.41394904,0.03616123,-0.5004577,-0.33467963,-0.10907757,-0.8570599,2017-12-03 22:09:21,61.3200866592209
6.842316,-0.67693603,7.891208,9.043515E-4,-0.0018898174,0.0015429556,3.0,6.4295588,-0.6365578,7.377397,-0.40199324,0.035594244,-0.51141924,-0.3347046,-0.108767405,-0.85736835,2017-12-03 22:09:22,51.53765631393501
6.8471003,-0.673348,7.8708763,9.099208E-4,5.367026E-4,-9.076521E-4,3.0,6.432407,-0.63969797,7.374641,-0.42306527,0.037238065,-0.4950392,-0.3346,-0.109730735,-0.85611856,2017-12-03 22:09:23,44.96503391770852
6.8459044,-0.67574,7.872072,-0.0015510656,-0.0018882528,-0.0033124462,3.0,6.4361143,-0.63904274,7.371462,-0.39663318,0.042677257,-0.49702248,-0.33484116,-0.10973363,-0.85617656,2017-12-03 22:09:24,55.977794236278214
6.844708,-0.67693603,7.886424,-0.0015789866,5.420223E-4,0.0015509799,3.0,6.434108,-0.638023,7.373303,-0.41060033,0.024560953,-0.5131208,-0.33472964,-0.10964627,-0.856322,2017-12-03 22:09:25,60.68221835417787
6.842316,-0.67693603,7.87566,-0.001551576,-0.0018846691,-8.330643E-4,3.0,6.4295,-0.63526,7.3775587,-0.4211878,0.03808803,-0.51125735,-0.33443648,-0.10955127,-0.85656106,2017-12-03 22:09:26,47.35265638333948
6.842316,-0.67574,7.8936,-0.0015374646,5.062446E-4,0.0016594306,3.0,6.4303317,-0.63791054,7.3766036,-0.41437635,0.035437517,-0.5205846,-0.33468932,-0.10899965,-0.8570337,2017-12-03 22:09:27,56.550814034558144
6.826768,-0.66976,7.8936,-0.0015395209,5.1026046E-4,0.0017032102,3.0,6.4283533,-0.6313233,7.3788977,-0.4103747,0.052788757,-0.50633043,-0.33422405,-0.1098878,-0.85640264,2017-12-03 22:09:28,42.55944679292051
6.849492,-0.680524,7.8959923,-0.0014652126,-0.0018968433,-7.315874E-4,3.0,6.4332476,-0.6383116,7.3740253,-0.4174404,0.055368327,-0.5076146,-0.33456814,-0.10997018,-0.85593367,2017-12-03 22:09:29,63.33935225939932
6.8411202,-0.694876,7.87566,9.343438E-4,5.585775E-4,-6.5010786E-4,3.0,6.4296856,-0.6353541,7.3773894,-0.42339492,0.048757896,-0.5054472,-0.33445084,-0.10954688,-0.8565617,2017-12-03 22:09:30,60.614708673534864
6.8459044,-0.682916,7.8888164,9.504743E-4,5.588606E-4,0.0017837882,3.0,6.428574,-0.6367238,7.3782377,-0.40895784,0.03901618,-0.51536244,-0.33458722,-0.10893078,-0.85716933,2017-12-03 22:09:31,61.09957185667192
6.8471003,-0.67693603,7.885228,-0.0014606752,5.4293126E-4,-6.328821E-4,3.0,6.429832,-0.63940984,7.376913,-0.42564008,0.035134222,-0.515491,-0.334813,-0.10854709,-0.8574522,2017-12-03 22:09:32,45.37156095941911
6.849492,-0.678132,7.880444,0.0010140017,0.0029845312,0.0018041581,3.0,6.428207,-0.6393502,7.3783326,-0.4057371,0.038781784,-0.5200515,-0.3346557,-0.10869849,-0.8572762,2017-12-03 22:09:33,56.79608765586671
6.848296,-0.684112,7.885228,0.0010108128,5.6257844E-4,-6.3916296E-4,3.0,6.435088,-0.6373234,7.372507,-0.40962008,0.07190467,-0.52228963,-0.334643,-0.11009473,-0.8558621,2017-12-03 22:09:34,66.76094572718799
6.850688,-0.667368,7.892404,-0.0014226027,0.0030051246,0.0017955676,3.0,6.4271417,-0.6394066,7.379256,-0.4235463,0.027961409,-0.51314825,-0.33421814,-0.109822385,-0.8559982,2017-12-03 22:09:35,55.524928748109026
6.844708,-0.678132,7.90556,0.0010088384,-0.0018551648,-6.359741E-4,3.0,6.4320054,-0.6380733,7.3751316,-0.40911505,0.03407872,-0.5089005,-0.33462715,-0.10953371,-0.856433,2017-12-03 22:09:36,66.46212590078206
6.849492,-0.678132,7.8900123,-0.0038356632,5.8716536E-4,-6.024167E-4,3.0,6.433636,-0.6387626,7.373649,-0.4254244,0.0453494,-0.5115788,-0.33482698,-0.109267764,-0.8567027,2017-12-03 22:09:37,59.52515428437384
6.837532,-0.682916,7.874464,0.003496673,6.049052E-4,-0.0030317605,3.0,6.429705,-0.64226943,7.3767724,-0.40663084,0.033470526,-0.5180243,-0.33519414,-0.107397325,-0.85857046,2017-12-03 22:09:39,49.84865085708435
6.848296,-0.682916,7.885228,0.0010744631,5.90533E-4,-0.0029644743,3.0,6.431366,-0.6372797,7.375759,-0.41334233,0.03965638,-0.5309972,-0.3350573,-0.10806317,-0.8581249,2017-12-03 22:09:40,51.671545938570745
6.850688,-0.682916,7.878052,0.0010582097,6.1849505E-4,-5.561933E-4,3.0,6.4311547,-0.64207757,7.3755264,-0.4243173,0.026486441,-0.51448566,-0.33492905,-0.10851457,-0.8573421,2017-12-03 22:09:41,57.21961336033856
6.8530803,-0.670956,7.88164,-0.0013625138,6.238073E-4,-5.9261173E-4,3.0,6.434117,-0.6386117,7.373245,-0.4153753,0.038324397,-0.51198334,-0.3350403,-0.10870708,-0.8573439,2017-12-03 22:09:42,52.14859759853355
6.848296,-0.67215204,7.891208,-0.0013729222,6.0871243E-4,-5.850494E-4,3.0,6.4321513,-0.64157647,7.374701,-0.40896893,0.054495562,-0.51291853,-0.33492735,-0.10871337,-0.85715395,2017-12-03 22:09:43,47.307920743629346
6.8399243,-0.67574,7.891208,-0.0013824254,-0.0018244237,0.0018555447,3.0,6.432371,-0.6405793,7.374596,-0.39559332,0.029180722,-0.52139646,-0.334765,-0.109236926,-0.85662436,2017-12-03 22:09:44,58.96932923494773
6.8279643,-0.682916,7.873268,9.790324E-4,6.014928E-4,-5.855262E-4,3.0,6.4315763,-0.63741994,7.375564,-0.41911155,0.04788805,-0.5048802,-0.33480206,-0.10889704,-0.8571849,2017-12-03 22:09:45,54.11955104544583
6.8411202,-0.67454404,7.8828363,9.79282E-4,-0.0018642396,-5.874112E-4,3.0,6.4348745,-0.6400496,7.372458,-0.40146133,0.03090645,-0.53549457,-0.3350171,-0.10896263,-0.8569786,2017-12-03 22:09:46,58.48935101257416
6.849492,-0.680524,7.886424,9.936802E-4,5.7745725E-4,-0.003023997,3.0,6.435447,-0.6381864,7.3721194,-0.40686932,0.03994557,-0.5202847,-0.3350029,-0.10908537,-0.85695195,2017-12-03 22:09:47,54.01925272164238
6.831552,-0.67693603,7.90556,-0.0014443435,-0.0018589944,-4.8389286E-4,3.0,6.429596,-0.6403015,7.3770385,-0.41511226,0.03065452,-0.49862114,-0.33472994,-0.10877311,-0.8571455,2017-12-03 22:09:48,60.224235846529
6.844708,-0.67454404,7.8840322,9.7486004E-4,0.0029842257,-4.266724E-4,3.0,6.4267173,-0.63830185,7.3797207,-0.417991,0.036242183,-0.50431144,-0.33453235,-0.10875249,-0.8572673,2017-12-03 22:09:49,55.35714952930152
6.844708,-0.686504,7.897188,-0.0014768578,-0.0019158646,-0.00279551,3.0,6.4294767,-0.6364564,7.3774767,-0.41642743,0.038087666,-0.5244956,-0.3345727,-0.10915379,-0.8569395,2017-12-03 22:09:50,51.6500106838444
6.855472,-0.67693603,7.8900123,-0.0014841147,0.002967611,-3.116578E-4,3.0,6.433378,-0.6356699,7.3741403,-0.40176177,0.050834116,-0.5326164,-0.3349306,-0.10883454,-0.8573666,2017-12-03 22:09:51,47.52230606716337
6.8459044,-0.680524,7.879248,-0.0014704689,0.0029405728,0.0021512508,3.0,6.4313293,-0.6389355,7.3756475,-0.415771,0.038000572,-0.5239327,-0.33494356,-0.108441256,-0.85760677,2017-12-03 22:09:52,62.887724917517865
6.848296,-0.67215204,7.878052,9.860843E-4,-0.0019184127,0.0020472854,3.0,6.428643,-0.6389799,7.3779855,-0.41965282,0.031976126,-0.50963414,-0.33477563,-0.108410314,-0.8576234,2017-12-03 22:09:53,55.89341548886837
6.854276,-0.673348,7.885228,9.6113235E-4,-0.0019313022,-4.3961406E-4,3.0,6.428154,-0.63867116,7.3784385,-0.4177502,0.035872914,-0.50918114,-0.334761,-0.1083489,-0.8577072,2017-12-03 22:09:54,42.20339654785994
6.850688,-0.68172,7.885228,9.786636E-4,4.917085E-4,0.0019287169,3.0,6.430455,-0.63913757,7.3763905,-0.40707684,0.04975845,-0.5052496,-0.33497652,-0.10816414,-0.8579,2017-12-03 22:09:55,54.67618567460021
6.836336,-0.68172,7.8840322,9.5942244E-4,4.8469007E-4,-6.217137E-4,3.0,6.431909,-0.6363728,7.375363,-0.40921152,0.051327232,-0.509865,-0.33485502,-0.10878096,-0.8573776,2017-12-03 22:09:56,57.22221690510637
6.850688,-0.682916,7.879248,-0.0014854707,-0.0019666702,-6.945357E-4,3.0,6.4309754,-0.6437068,7.3755393,-0.4221049,0.045189243,-0.5061007,-0.3345723,-0.10960619,-0.856017,2017-12-03 22:09:57,57.31821871830745
6.8471003,-0.679328,7.873268,9.45434E-4,4.818514E-4,-7.0563704E-4,3.0,6.4349523,-0.6391291,7.372469,-0.40018767,0.047374915,-0.501995,-0.3345067,-0.11051707,-0.85527706,2017-12-03 22:09:58,56.91748570486075
6.82916,-0.67693603,7.8648963,8.992143E-4,4.9985945E-4,-7.025823E-4,3.0,6.436597,-0.6355704,7.3713403,-0.41648355,0.04854162,-0.5067121,-0.33476615,-0.109990284,-0.85609156,2017-12-03 22:09:59,57.74453612477572
6.8279643,-0.684112,7.873268,-0.0015215836,4.89898E-4,0.001783371,3.0,6.4340177,-0.6378452,7.373394,-0.4130822,0.043874796,-0.51302963,-0.3346026,-0.110011786,-0.85591865,2017-12-03 22:10:00,45.49548997917191
6.832748,-0.686504,7.862504,-0.0039814115,4.884675E-4,0.0018051341,3.0,6.436639,-0.64362144,7.370608,-0.40208912,0.052450612,-0.5122288,-0.33501276,-0.109408185,-0.85628104,2017-12-03 22:10:01,61.40917319417392
6.8339443,-0.694876,7.879248,8.8303164E-4,0.0029079095,-0.002950646,3.0,6.433277,-0.64028555,7.3738313,-0.4066472,0.04143442,-0.50063246,-0.33456892,-0.1100133,-0.8557702,2017-12-03 22:10:02,51.17586859042526
6.8411202,-0.67215204,7.8828363,0.0033312254,-0.0019917116,-3.7958473E-4,3.0,6.430711,-0.64107585,7.375999,-0.41280165,0.032272186,-0.5080331,-0.33481053,-0.10876858,-0.85711235,2017-12-03 22:10:03,62.209655574120916
6.843512,-0.664976,7.8888164,8.6890906E-4,4.504174E-4,-0.0027947724,3.0,6.433546,-0.64272976,7.3733826,-0.41474986,0.031814285,-0.5154337,-0.3348011,-0.10940899,-0.85631275,2017-12-03 22:10:04,53.0569959885927
6.8471003,-0.688896,7.898384,0.0033093207,0.0028726012,0.0020546094,3.0,6.4345217,-0.6410877,7.3726754,-0.40061846,0.050200276,-0.50657296,-0.33460867,-0.110160165,-0.855565,2017-12-03 22:10:05,69.81952135856115
6.830356,-0.679328,7.8947964,-0.0015791953,4.189685E-4,-0.0052834526,3.0,6.4297676,-0.63983214,7.376931,-0.42809683,0.028731883,-0.5106886,-0.33438122,-0.109865576,-0.8559414,2017-12-03 22:10:06,65.16331004687638
6.849492,-0.682916,7.8888164,-0.0015798584,4.0175766E-4,-3.3436716E-4,3.0,6.4261765,-0.6406112,7.379989,-0.42092356,0.03273688,-0.5255705,-0.3341595,-0.10983014,-0.85591286,2017-12-03 22:10:07,60.06792215136392
6.855472,-0.680524,7.8888164,-0.0015850663,4.394874E-4,-2.8920174E-4,3.0,6.4399133,-0.63708866,7.3683124,-0.40359893,0.04343531,-0.5133277,-0.33503366,-0.109877594,-0.85615116,2017-12-03 22:10:08,59.54862278728632
6.8459044,-0.670956,7.886424,-0.0015930198,4.3337047E-4,-2.713725E-4,3.0,6.4297795,-0.63667995,7.3771935,-0.41134092,0.05460801,-0.51162267,-0.33451638,-0.109392196,-0.8566598,2017-12-03 22:10:09,56.70592671108893
6.863844,-0.688896,7.8828363,8.856654E-4,4.509762E-4,0.002145663,3.0,6.433677,-0.6375211,7.3737216,-0.40505087,0.04778693,-0.5007424,-0.33477503,-0.10941004,-0.85661477,2017-12-03 22:10:10,61.91694607432743
6.843512,-0.67574,7.8900123,8.6398795E-4,-0.002020441,-2.7476996E-4,3.0,6.4297204,-0.63619626,7.377287,-0.4137918,0.04073979,-0.51152915,-0.33468986,-0.10883855,-0.85731035,2017-12-03 22:10:11,49.6798681929405
6.8471003,-0.673348,7.880444,8.834563E-4,4.383996E-4,0.0021423846,3.0,6.4293017,-0.6402667,7.3772984,-0.41421035,0.034277312,-0.51151806,-0.33451638,-0.10936764,-0.8564762,2017-12-03 22:10:12,52.0442360960715
6.8530803,-0.678132,7.879248,0.0033540316,4.5695156E-4,-0.0027271956,3.0,6.43457,-0.6445669,7.3723297,-0.4005705,0.040741105,-0.49615446,-0.33497897,-0.109109595,-0.8565498,2017-12-03 22:10:13,59.39297834598921
6.842316,-0.684112,7.8648963,8.9490414E-4,-0.001941964,-2.7843565E-4,3.0,6.436832,-0.6417044,7.3706026,-0.41505262,0.022075638,-0.5110376,-0.33490887,-0.10972636,-0.8560345,2017-12-03 22:10:14,43.71811791450402
6.854276,-0.67215204,7.872072,8.777082E-4,-0.0019298345,0.0021459088,3.0,6.4357557,-0.642041,7.371514,-0.41612872,0.034895007,-0.5065385,-0.33467934,-0.11021404,-0.85545623,2017-12-03 22:10:15,58.69069326992238
6.855472,-0.684112,7.879248,8.3307177E-4,5.2244216E-4,0.0021033362,3.0,6.4337273,-0.6397361,7.3734846,-0.40260875,0.038395856,-0.4997832,-0.33463985,-0.10987758,-0.85595864,2017-12-03 22:10:16,44.523663074501
6.838728,-0.67454404,7.8840322,8.298233E-4,-0.001904279,-0.0027962849,3.0,6.431979,-0.6424923,7.37477,-0.41392508,0.036835693,-0.5188298,-0.3348625,-0.108896606,-0.856894,2017-12-03 22:10:17,54.88438140501263
6.8399243,-0.68530804,7.8589163,-0.001629658,5.3706765E-4,-3.638491E-4,3.0,6.433863,-0.6448888,7.372916,-0.4132371,0.03922317,-0.5123118,-0.3347883,-0.1095566,-0.8560225,2017-12-03 22:10:18,54.28973811276241
6.8399243,-0.684112,7.88164,7.756464E-4,0.002931498,0.0020781606,3.0,6.435459,-0.64100397,7.3718615,-0.40924892,0.041912045,-0.5121704,-0.33498222,-0.109208636,-0.85665023,2017-12-03 22:10:19,60.18091111457818
6.832748,-0.68530804,7.88164,7.9379976E-4,-0.001970753,0.002030246,3.0,6.4378424,-0.64480144,7.3694506,-0.41523793,0.04170257,-0.5121896,-0.33489105,-0.110048056,-0.8554969,2017-12-03 22:10:20,61.49283603533118
6.8471003,-0.673348,7.891208,7.467866E-4,-0.0019706637,-3.5908073E-4,3.0,6.437503,-0.6382212,7.37032,-0.41916534,0.06502682,-0.5065367,-0.33463117,-0.11063568,-0.8552121,2017-12-03 22:10:21,56.567336595326225
6.854276,-0.67454404,7.88762,7.5240806E-4,4.92014E-4,-3.670901E-4,3.0,6.4287443,-0.64539444,7.377338,-0.41118017,0.039913565,-0.49353814,-0.33421853,-0.11026545,-0.85515565,2017-12-03 22:10:23,58.733666973963985
6.850688,-0.68530804,7.8828363,7.901415E-4,-0.0019543841,0.0020561144,3.0,6.4300547,-0.64283675,7.3764186,-0.40747723,0.04247129,-0.48488957,-0.33431363,-0.11018951,-0.8554003,2017-12-03 22:10:24,51.20312314405278
6.848296,-0.682916,7.886424,-0.0016762391,4.7867E-4,-4.4877827E-4,3.0,6.428592,-0.6420386,7.3777637,-0.41013563,0.030113472,-0.52301264,-0.334622,-0.10893545,-0.8568562,2017-12-03 22:10:25,59.22124487952951
6.854276,-0.678132,7.885228,-0.004115749,-0.0019673407,-4.7124177E-4,3.0,6.436325,-0.6398453,7.371209,-0.4179513,0.038286697,-0.5140186,-0.33506644,-0.109103054,-0.8568413,2017-12-03 22:10:26,54.61637447153138
6.850688,-0.66378003,7.879248,-0.0016230717,4.6408921E-4,0.0020238608,3.0,6.4351606,-0.63683194,7.372485,-0.41552725,0.026948066,-0.5067629,-0.33488944,-0.10934778,-0.85673374,2017-12-03 22:10:27,52.13070051817081
6.8399243,-0.67574,7.891208,-0.004003618,-0.0069821477,0.009439893,0.0,6.424246,-0.6347579,7.382178,-0.4132862,0.03978614,-0.48989424,-0.3341438,-0.10936937,-0.85676295,2017-12-03 22:10:28,63.242078021056834
6.830356,-0.68172,7.873268,-0.0015393868,4.3042004E-4,-4.2252988E-4,3.0,6.4276867,-0.6427267,7.3784914,-0.41343352,0.024641324,-0.49477676,-0.3347173,-0.108471096,-0.85733294,2017-12-03 22:10:29,61.81234929485047
6.831552,-0.67693603,7.8936,8.903183E-4,4.2488426E-4,0.002016604,3.0,6.4346437,-0.6411621,7.3725624,-0.4100643,0.034577906,-0.5102742,-0.33531952,-0.108003765,-0.85798585,2017-12-03 22:10:30,61.160393340421905
6.824376,-0.673348,7.904364,8.689873E-4,0.0028543398,0.0020479932,3.0,6.429604,-0.64168406,7.376913,-0.40314358,0.034055926,-0.50831485,-0.33491546,-0.10823037,-0.85767424,2017-12-03 22:10:31,60.13107176493182
6.826768,-0.69966,7.8828363,-0.0015973784,-0.0020319447,0.002043724,3.0,6.4268737,-0.6431889,7.379161,-0.40467796,0.04570713,-0.50487083,-0.3344397,-0.109168075,-0.8565166,2017-12-03 22:10:32,57.32084573899388
6.836336,-0.679328,7.8888164,-0.0016068295,4.1172653E-4,-0.0028223544,3.0,6.4291167,-0.64399976,7.3771358,-0.41080785,0.04489625,-0.50809216,-0.33476824,-0.10863263,-0.85708636,2017-12-03 22:10:33,61.664615701204546
6.8279643,-0.67454404,7.8840322,0.0032046475,-0.001986906,-3.9870292E-4,3.0,6.430776,-0.6401896,7.3760204,-0.41512805,0.04511844,-0.50681615,-0.33472663,-0.10902173,-0.85687953,2017-12-03 22:10:34,58.27714637262762
6.838728,-0.69368,7.872072,7.658787E-4,4.5202672E-4,-3.946349E-4,3.0,6.4268017,-0.6409145,7.379421,-0.3951824,0.04200148,-0.4914549,-0.33465436,-0.108447045,-0.85745966,2017-12-03 22:10:35,53.717975346897916
6.843512,-0.694876,7.880444,7.577017E-4,-0.0019757822,0.0020093173,3.0,6.4253383,-0.64526266,7.3803163,-0.41817397,0.04961334,-0.50012803,-0.33451045,-0.108680286,-0.85693675,2017-12-03 22:10:36,54.329606832747984
6.848296,-0.679328,7.880444,0.0031515956,4.5897812E-4,0.002029121,3.0,6.427017,-0.6440838,7.3789577,-0.41769117,0.035244185,-0.5014865,-0.33450708,-0.109008946,-0.85664505,2017-12-03 22:10:37,56.35818455188404
6.8279643,-0.686504,7.87566,6.6044927E-4,4.5262277E-4,0.0019822046,3.0,6.431601,-0.6457206,7.3748193,-0.4035393,0.034803383,-0.5068208,-0.33451352,-0.10995282,-0.8555109,2017-12-03 22:10:38,56.58803895347848
6.838728,-0.68770003,7.898384,6.685667E-4,-0.0020125061,-4.5737624E-4,3.0,6.4286685,-0.6373707,7.378101,-0.4052759,0.049133305,-0.5059312,-0.33431435,-0.10979738,-0.8561549,2017-12-03 22:10:39,51.88430813941832
6.83514,-0.673348,7.9007764,6.939061E-4,4.355088E-4,-0.0029158667,3.0,6.4233727,-0.6413393,7.382369,-0.41296354,0.041576676,-0.5052508,-0.33428782,-0.108883575,-0.8569234,2017-12-03 22:10:40,58.4605349396298
6.83514,-0.68172,7.8828363,-0.0017418079,0.002870433,0.0019563735,3.0,6.428183,-0.64260703,7.3780694,-0.41174132,0.031937033,-0.5059627,-0.334684,-0.10867286,-0.8571162,2017-12-03 22:10:41,46.13401767285766
6.848296,-0.682916,7.88762,-0.0017055236,4.503429E-4,-4.8752874E-4,3.0,6.4264154,-0.64119524,7.379734,-0.4254688,0.042916767,-0.5078858,-0.33467072,-0.10832307,-0.85758024,2017-12-03 22:10:42,41.857529719041686
6.8411202,-0.670956,7.904364,7.7039003E-4,5.093515E-4,-4.415661E-4,3.0,6.4266586,-0.6402131,7.3796053,-0.42044133,0.040310897,-0.517583,-0.33473396,-0.10815749,-0.8578238,2017-12-03 22:10:43,53.89241485591005
6.837532,-0.678132,7.878052,-0.0016716048,5.008131E-4,-0.0028421879,3.0,6.429304,-0.6418714,7.3771586,-0.40344346,0.048220646,-0.5008938,-0.3346997,-0.10883839,-0.8569795,2017-12-03 22:10:44,57.496412904268645
6.836336,-0.682916,7.8708763,-0.0016733892,5.1122904E-4,0.0020044446,3.0,6.431956,-0.64179873,7.37485,-0.3960089,0.049489204,-0.5008102,-0.33472398,-0.10930294,-0.85647655,2017-12-03 22:10:45,50.243725006498146
6.844708,-0.682916,7.8900123,7.642843E-4,4.909262E-4,-4.8368424E-4,3.0,6.4273486,-0.6408764,7.3789477,-0.41496786,0.03486359,-0.5098685,-0.33462164,-0.108659044,-0.857227,2017-12-03 22:10:46,41.8782099557739
6.838728,-0.694876,7.886424,-0.0016662739,4.8623234E-4,0.001979366,3.0,6.430639,-0.639763,7.376174,-0.40928575,0.03358502,-0.5114456,-0.3345535,-0.109515555,-0.8563467,2017-12-03 22:10:47,58.263847991112456
6.8399243,-0.684112,7.8529363,7.381551E-4,-0.001952894,-4.7615916E-4,3.0,6.4272313,-0.642401,7.3789167,-0.4402005,0.02735906,-0.5409955,-0.33465028,-0.10857794,-0.8572291,2017-12-03 22:10:48,60.213615835076915
6.843512,-0.692484,7.880444,7.2517246E-4,-0.0019186214,-0.0028642863,3.0,6.4292045,-0.6424115,7.377196,-0.4071318,0.041700523,-0.5020523,-0.33475086,-0.10867168,-0.85713494,2017-12-03 22:10:49,54.15724917051353
6.844708,-0.67215204,7.8840322,7.4205175E-4,5.292967E-4,-4.2369217E-4,3.0,6.42613,-0.6476308,7.3794203,-0.42695057,0.03408917,-0.51417994,-0.33483973,-0.10787352,-0.85771036,2017-12-03 22:10:50,53.33189508856557
6.850688,-0.686504,7.8888164,-0.001736328,-0.001885809,-4.2239577E-4,3.0,6.428136,-0.6427356,7.378101,-0.41776833,0.033004373,-0.52745914,-0.3348531,-0.10814349,-0.8577024,2017-12-03 22:10:51,57.06145432418391
6.854276,-0.690092,7.897188,-0.0017455071,5.366802E-4,-4.4020265E-4,3.0,6.4280195,-0.6398836,7.3784475,-0.411905,0.03705248,-0.5091724,-0.33469546,-0.108548544,-0.85741246,2017-12-03 22:10:52,58.11945909414714
6.836336,-0.67454404,7.878052,-0.0016822107,5.08368E-4,0.0019737408,3.0,6.4331636,-0.64077336,7.373887,-0.39958385,0.03616269,-0.500577,-0.33491144,-0.108953066,-0.8569372,2017-12-03 22:10:53,44.01159384256529
6.8471003,-0.686504,7.897188,0.0031984374,-0.0019359663,-0.0029037744,3.0,6.427152,-0.6403551,7.3791633,-0.41157588,0.047344886,-0.516829,-0.33479735,-0.10806534,-0.85792154,2017-12-03 22:10:54,47.967428424699804
6.842316,-0.68770003,7.8900123,-0.0016777143,-0.0019469112,-4.2254478E-4,3.0,6.425496,-0.6409965,7.3805504,-0.41323185,0.03713548,-0.5238134,-0.334695,-0.108055316,-0.8578863,2017-12-03 22:10:55,52.92513571722964
6.842316,-0.667368,7.904364,7.7065825E-4,4.941821E-4,0.0019948483,3.0,6.4271207,-0.6389118,7.379316,-0.4092156,0.030848216,-0.5166764,-0.33481434,-0.10797667,-0.8581037,2017-12-03 22:10:56,47.63292767350626
6.843512,-0.679328,7.8888164,7.912107E-4,-0.0019518659,-3.9850175E-4,3.0,6.431117,-0.6379285,7.375919,-0.41359133,0.048575524,-0.50213355,-0.33476344,-0.108932376,-0.857113,2017-12-03 22:10:57,44.665672049205945
6.836336,-0.692484,7.885228,-0.0016289391,4.8517436E-4,-3.9053708E-4,3.0,6.4268627,-0.6390952,7.3795247,-0.4070815,0.04621281,-0.49972355,-0.33454907,-0.10874693,-0.85722846,2017-12-03 22:10:58,53.68329161821896
6.836336,-0.67454404,7.8947964,-0.0016388521,-0.0019547567,0.0020451248,3.0,6.423739,-0.6366887,7.3824544,-0.3994412,0.03785532,-0.51712596,-0.33429056,-0.108855404,-0.8572272,2017-12-03 22:10:59,58.89379297255872
6.837532,-0.67693603,7.88762,-0.0015697703,4.9542636E-4,0.001999393,3.0,6.4259458,-0.6396847,7.3802724,-0.42235038,0.030075332,-0.5025643,-0.33451656,-0.10867161,-0.8572735,2017-12-03 22:11:00,42.15382554515798
6.83514,-0.680524,7.886424,8.491352E-4,4.7139078E-4,-3.708005E-4,3.0,6.4298787,-0.6390042,7.3769054,-0.41243747,0.041519832,-0.5143027,-0.33465394,-0.109037936,-0.8569246,2017-12-03 22:11:01,57.755971910775905
6.844708,-0.67574,7.924696,8.442551E-4,4.574135E-4,-0.002779387,3.0,6.430094,-0.6396471,7.3766603,-0.4170061,0.042072862,-0.53129184,-0.33471927,-0.10889432,-0.8570501,2017-12-03 22:11:03,54.45011886026649
6.824376,-0.67215204,7.885228,8.3315745E-4,-0.001986809,-0.0027489215,3.0,6.4275403,-0.64065063,7.378801,-0.4123843,0.035089362,-0.5016431,-0.33469224,-0.108475916,-0.85744685,2017-12-03 22:11:04,56.63748834021865
6.836336,-0.673348,7.8936,8.474961E-4,4.543066E-4,-2.799332E-4,3.0,6.4271765,-0.6372519,7.3794107,-0.4294915,0.04327208,-0.49983755,-0.33455536,-0.10875422,-0.8573289,2017-12-03 22:11:05,60.86574746444049
6.837532,-0.682916,7.88762,-0.001591634,0.0053353608,0.0022216216,3.0,6.4316325,-0.64253,7.37507,-0.40470368,0.024838015,-0.5113538,-0.33445406,-0.11007534,-0.8555583,2017-12-03 22:11:06,49.735112473451146
6.830356,-0.692484,7.8888164,8.515492E-4,4.2527914E-4,-1.519993E-4,3.0,6.428815,-0.6420342,7.37757,-0.41589317,0.058821827,-0.51602995,-0.33454725,-0.109209955,-0.8565485,2017-12-03 22:11:07,59.64139165091298
6.713148,-0.784576,7.795528,8.626133E-4,0.019948691,-0.004999906,0.0,6.3575745,-0.6026666,7.442341,-0.46082127,0.0874254,-0.7024194,-0.3296244,-0.109059595,-0.85855293,2017-12-03 22:11:08,58.343899619669145
6.760988,-0.718796,7.936656,0.015481692,0.017510153,-0.0050027072,3.0,6.3617363,-0.66056997,7.4338665,-0.43154374,0.005602058,-0.6522896,-0.33050257,-0.10838091,-0.8559465,2017-12-03 22:11:09,54.82575346025642
6.789692,-0.697268,7.94144,8.4173307E-4,3.9648265E-4,-1.5501678E-4,3.0,6.3688946,-0.66039973,7.427748,-0.39807403,0.045240313,-0.5148878,-0.33114716,-0.107850865,-0.85662067,2017-12-03 22:11:10,51.92751877282883
6.776536,-0.702052,7.9390483,-0.0016139001,4.0387362E-4,-2.252236E-4,3.0,6.365745,-0.66206604,7.4302974,-0.4024188,0.04357399,-0.51831836,-0.33129096,-0.10680122,-0.85770327,2017-12-03 22:11:11,55.694193824978015
6.776536,-0.69966,7.92948,-0.0015812367,4.324615E-4,-1.9539148E-4,3.0,6.365144,-0.66288173,7.4307413,-0.40302026,0.043954294,-0.5178747,-0.33125874,-0.10679546,-0.85765785,2017-12-03 22:11:12,54.21510212892731
6.764576,-0.704444,7.9450283,-0.0016011968,3.9624423E-4,-2.3528188E-4,3.0,6.367223,-0.6646634,7.428801,-0.41888127,0.04217267,-0.5234031,-0.33115068,-0.107590884,-0.85665584,2017-12-03 22:11:13,61.964587045572756
6.7873,-0.680524,7.9330683,8.430183E-4,3.8080662E-4,-2.5758892E-4,3.0,6.3653955,-0.6558403,7.431152,-0.42070848,0.035447672,-0.4983283,-0.33090386,-0.10779321,-0.85693103,2017-12-03 22:11:14,54.44392018518733
6.7849083,-0.708032,7.9438324,0.005699165,0.0077398047,-0.005210869,3.0,6.3670645,-0.67044693,7.4284177,-0.40349138,0.032801103,-0.49029815,-0.33124074,-0.107404426,-0.85652757,2017-12-03 22:11:15,60.710703991298644
6.8028483,-0.772616,7.940244,-0.008856192,0.025175475,-0.020169161,3.0,6.3923936,-0.6393372,7.4093814,-0.58028644,-0.09276516,-0.6217589,-0.33202225,-0.109489225,-0.85614794,2017-12-03 22:11:16,59.27637295914948
6.760988,-0.686504,7.924696,8.5485354E-4,0.0054974556,-0.002989754,0.0,6.369567,-0.65903866,7.4272923,-0.40936172,0.021485345,-0.50099194,-0.3312485,-0.10764713,-0.8569396,2017-12-03 22:11:17,58.7524961247746
6.77534,-0.686504,7.9510083,8.11778E-4,4.9830973E-4,-5.6312233E-4,0.0,6.3655543,-0.65580374,7.4310184,-0.40739363,0.052228272,-0.49487436,-0.33104962,-0.10737638,-0.8574124,2017-12-03 22:11:18,58.08037338360318
6.7657723,-0.692484,7.9450283,8.1551075E-4,-0.0019517392,-5.222112E-4,0.0,6.3660526,-0.6590134,7.4303074,-0.39613166,0.02270663,-0.5171125,-0.33115792,-0.107210964,-0.85741633,2017-12-03 22:11:19,54.018777536820224
6.76936,-0.708032,7.952204,7.715188E-4,-0.0019517168,-5.334243E-4,0.0,6.3646803,-0.6620019,7.4312186,-0.40228844,0.04603015,-0.5162012,-0.33101863,-0.10742448,-0.856986,2017-12-03 22:11:20,58.86371802821295
6.795672,-0.692484,7.9390483,0.0031794459,5.020052E-4,-5.092621E-4,0.0,6.368243,-0.6590366,7.4284267,-0.422645,0.013115429,-0.49626902,-0.33105323,-0.10797859,-0.85654956,2017-12-03 22:11:21,57.524190950973875
6.7717524,-0.69966,7.9330683,-0.0016938671,5.263686E-4,0.0043945163,0.0,6.3686776,-0.65883774,7.428074,-0.4138386,0.04799831,-0.51575875,-0.33125922,-0.107429035,-0.85719526,2017-12-03 22:11:22,58.321951177802156
6.7777324,-0.70683604,7.936656,7.4215606E-4,5.259961E-4,-5.289912E-4,0.0,6.3625455,-0.66411275,7.4328575,-0.40561846,0.043919295,-0.512171,-0.3311387,-0.10666268,-0.8577196,2017-12-03 22:11:23,50.826557152675534
6.774144,-0.69966,7.940244,7.809624E-4,-0.001890339,0.0018665642,0.0,6.361386,-0.6615755,7.434077,-0.41275838,0.038084526,-0.5181272,-0.3313207,-0.10580272,-0.8588402,2017-12-03 22:11:24,59.16619903387148
6.76936,-0.692484,7.948616,-0.0016920865,-0.0019172132,0.0018646121,0.0,6.3615723,-0.65789473,7.4342422,-0.40778762,0.045353275,-0.50839376,-0.33128136,-0.105885796,-0.8589622,2017-12-03 22:11:25,51.89494711101738
6.768164,-0.694876,7.93546,7.8811124E-4,-0.0019038916,-5.4089725E-4,0.0,6.363963,-0.66108155,7.4319143,-0.40300563,0.046950478,-0.5131144,-0.33139524,-0.10608994,-0.85855955,2017-12-03 22:11:26,46.21444011053587
6.764576,-0.70683604,7.9510083,-0.0016719401,5.64307E-4,0.0019414648,0.0,6.3634486,-0.6576501,7.432658,-0.3987357,0.036029857,-0.49921384,-0.33150753,-0.105558775,-0.8593586,2017-12-03 22:11:27,62.53093138237485
6.7777324,-0.643448,7.97732,-0.0040534735,5.9239566E-4,0.0018923953,0.0,6.3688717,-0.66291463,7.427545,-0.4160364,0.02717742,-0.48160338,-0.33171132,-0.106152035,-0.8584136,2017-12-03 22:11:28,59.48682759010357
6.7657723,-0.694876,7.934264,-0.0017425306,1.11311674E-4,0.0022841543,0.0,6.3519435,-0.64921373,7.443234,-0.4245926,0.05642631,-0.5089701,-0.3304559,-0.10629961,-0.858937,2017-12-03 22:11:29,55.70096920860558
6.762184,-0.692484,7.946224,-0.0017152242,1.5835464E-4,-1.3177842E-4,0.0,6.3568473,-0.65736866,7.4383297,-0.40414077,0.03152736,-0.507894,-0.33128467,-0.104886614,-0.8600934,2017-12-03 22:11:30,59.58067034284838
6.7669683,-0.690092,7.9498124,7.586926E-4,2.1506101E-4,-0.0024863482,0.0,6.3587813,-0.6553189,7.4368587,-0.40818742,0.034773134,-0.51295364,-0.33151814,-0.10450599,-0.86065197,2017-12-03 22:11:31,45.835841385157835
6.750224,-0.70085603,7.961772,-0.0016758665,-0.0021591336,6.6906214E-6,0.0,6.355933,-0.6533331,7.439466,-0.40266252,0.041542847,-0.5294821,-0.3314216,-0.1041753,-0.8611213,2017-12-03 22:11:32,56.7002720808576
6.7837124,-0.69368,7.93546,7.656254E-4,3.696829E-4,-3.0480325E-5,0.0,6.3581743,-0.6557555,7.437338,-0.41716567,0.04270853,-0.51367027,-0.3315252,-0.10436643,-0.86077976,2017-12-03 22:11:34,55.00202537541078
6.76338,-0.691288,7.95938,0.0032031015,-0.0020605624,-0.0025384203,0.0,6.3536296,-0.65667236,7.4411407,-0.4205144,0.04777166,-0.51465106,-0.33111385,-0.104742944,-0.8602765,2017-12-03 22:11:35,61.54127941424559
6.755008,-0.694876,7.952204,0.0031848326,3.5566837E-4,-1.6558915E-4,0.0,6.3512497,-0.65812856,7.443045,-0.4037585,0.03674743,-0.5091589,-0.33051437,-0.10616337,-0.858565,2017-12-03 22:11:36,52.2573076427307
6.764576,-0.69966,7.9701443,7.6978654E-4,-0.0020984337,-2.0837784E-4,0.0,6.3548923,-0.6567121,7.4400587,-0.41028526,0.034907136,-0.5106874,-0.33042482,-0.1071544,-0.85753876,2017-12-03 22:11:37,53.23938089614217
6.760988,-0.69966,7.936656,7.995367E-4,3.414601E-4,-2.058819E-4,0.0,6.3583817,-0.65036714,7.4376345,-0.4061942,0.032548882,-0.50978553,-0.33084613,-0.106428675,-0.85876495,2017-12-03 22:11:38,60.32610170258876
6.7669683,-0.69846404,7.94144,8.183941E-4,-0.002090551,-2.1769851E-4,0.0,6.354582,-0.6589546,7.440126,-0.40640637,0.02156937,-0.5084896,-0.33099964,-0.105349116,-0.85946435,2017-12-03 22:11:39,51.106328627502286
6.76338,-0.690092,7.9809084,-0.0016385391,0.002773434,0.0021925047,0.0,6.3548665,-0.6543172,7.440293,-0.39894554,0.03697079,-0.5035399,-0.3308862,-0.10566481,-0.85937905,2017-12-03 22:11:40,57.272160347148954
6.755008,-0.68172,7.93546,-0.0016275905,-0.0020956695,-3.3858418E-4,0.0,6.3591194,-0.65523386,7.4365754,-0.39469257,0.034858182,-0.50606096,-0.33102822,-0.106115445,-0.8588411,2017-12-03 22:11:41,50.284068688082414
6.764576,-0.691288,7.9534,-0.0016407706,-0.0020555407,-4.063323E-4,6.0,6.359011,-0.65673345,7.4365354,-0.39958444,0.030966582,-0.5144728,-0.33112887,-0.10581053,-0.85909903,2017-12-03 22:11:42,60.57858618677571
6.7574,-0.690092,7.948616,-0.0016445778,4.389882E-4,-0.002853781,0.0,6.356961,-0.6519629,7.438707,-0.4052233,0.047697134,-0.5194775,-0.33093503,-0.105893604,-0.8592703,2017-12-03 22:11:43,50.762814892166574
6.800456,-0.692484,7.948616,0.0034304187,-0.0040394217,0.004161641,0.0,6.377903,-0.66799706,7.419336,-0.40461308,0.046015024,-0.53167236,-0.33229113,-0.106310025,-0.85799545,2017-12-03 22:11:44,58.042294993120336
6.782516,-0.702052,7.940244,9.024106E-4,7.4417144E-4,0.0018162802,0.0,6.3678393,-0.66615504,7.428139,-0.41706866,0.047857,-0.51330084,-0.33168703,-0.10608506,-0.8582935,2017-12-03 22:11:45,58.9195483135773
6.780124,-0.710424,7.918716,8.8527426E-4,7.1160495E-4,-5.9544295E-4,0.0,6.3709984,-0.67266196,7.424843,-0.40673432,0.031782065,-0.5070295,-0.33194113,-0.106082335,-0.85793626,2017-12-03 22:11:46,60.22421405643396
6.78132,-0.724776,7.94144,-0.0015986748,7.2672963E-4,-5.5458397E-4,0.0,6.366466,-0.669015,7.429059,-0.40887424,0.036625046,-0.5087936,-0.33159152,-0.10616251,-0.8580288,2017-12-03 22:11:47,43.15104635458795
6.794476,-0.70085603,7.9390483,8.6416677E-4,7.25992E-4,-5.3370744E-4,0.0,6.3731985,-0.6672727,7.423443,-0.4129057,0.045543317,-0.49886137,-0.33199665,-0.106245264,-0.8580809,2017-12-03 22:11:48,59.4070545885577
6.7873,-0.708032,7.9438324,-0.0015830956,7.145554E-4,0.0019222274,0.0,6.376491,-0.6705353,7.4203196,-0.40363342,0.04706468,-0.4900246,-0.33217192,-0.10644639,-0.8576828,2017-12-03 22:11:49,55.122418126272194
6.792084,-0.70922804,7.9258924,8.258261E-4,7.1350485E-4,-4.892796E-4,0.0,6.3758163,-0.66909605,7.421029,-0.40071958,0.047307916,-0.50725514,-0.33204827,-0.10666207,-0.85751724,2017-12-03 22:11:50,44.8107494795148
6.7789283,-0.721188,7.924696,8.36771E-4,6.770864E-4,-0.0028453395,0.0,6.3772116,-0.67063963,7.41969,-0.40530455,0.04935235,-0.5253385,-0.33195305,-0.107276596,-0.85673445,2017-12-03 22:11:51,42.998397394306764
6.7777324,-0.71999204,7.9510083,7.9534575E-4,6.523505E-4,0.0021344423,0.0,6.372228,-0.67162853,7.4238834,-0.41268006,0.03879545,-0.5091846,-0.33187693,-0.1065133,-0.8575143,2017-12-03 22:11:52,55.30475200934359
6.776536,-0.70922804,7.955792,8.087978E-4,6.17899E-4,-2.8500706E-4,0.0,6.3706083,-0.6717995,7.425256,-0.41669163,0.03144852,-0.5006366,-0.3318232,-0.10635169,-0.85767764,2017-12-03 22:11:53,55.14526197449834
6.782516,-0.7176,7.9390483,8.050725E-4,0.0030449182,-0.0027326196,0.0,6.366384,-0.67040455,7.429006,-0.42570028,0.031647477,-0.5148264,-0.3316667,-0.10594046,-0.85819966,2017-12-03 22:11:54,55.41201690026835
6.792084,-0.7176,7.92948,8.037463E-4,-0.0018551275,-0.0027102903,0.0,6.371755,-0.6700598,7.42443,-0.39999712,0.041560236,-0.5217939,-0.33225527,-0.105194554,-0.85909855,2017-12-03 22:11:55,41.83231546431932
6.780124,-0.70683604,7.94144,0.0032718107,6.1846524E-4,0.0022181273,0.0,6.3735986,-0.6732845,7.4225554,-0.41609308,0.039531507,-0.5176888,-0.33222145,-0.10575413,-0.8582893,2017-12-03 22:11:56,55.34739913509441
6.795672,-0.70922804,7.930676,8.148514E-4,5.7289004E-4,-2.3820251E-4,0.0,6.374988,-0.67157197,7.421517,-0.40513623,0.04602803,-0.50198334,-0.33185178,-0.10715588,-0.85680234,2017-12-03 22:11:57,54.1122584119274
6.774144,-0.70683604,7.924696,-0.0016440041,5.682409E-4,-2.8155E-4,0.0,6.371668,-0.67435896,7.4241157,-0.4156319,0.046829045,-0.49699268,-0.3315248,-0.107549146,-0.85616314,2017-12-03 22:11:58,54.09872006763494
6.776536,-0.710424,7.94742,7.824972E-4,5.819276E-4,-2.9227883E-4,0.0,6.3690886,-0.66776514,7.4269223,-0.4110358,0.043854926,-0.51212597,-0.3313504,-0.10742084,-0.85668147,2017-12-03 22:11:59,43.39682964227114
6.782516,-0.72358,7.9330683,-0.0016991608,5.219653E-4,-2.0988286E-4,0.0,6.3691287,-0.66879374,7.426797,-0.40142685,0.0404343,-0.50627136,-0.33136123,-0.107417464,-0.85662496,2017-12-03 22:12:00,58.55847105127668
6.789692,-0.718796,7.934264,-0.0016674623,4.9900264E-4,0.0022592545,0.0,6.3726964,-0.66874933,7.4237385,-0.41579965,0.042870738,-0.50932956,-0.33201933,-0.1061029,-0.85815287,2017-12-03 22:12:01,53.26816096400479
6.770556,-0.715208,7.9390483,0.0031720288,4.517585E-4,-0.0026322007,0.0,6.37213,-0.6682145,7.424276,-0.39722997,0.054169543,-0.51477265,-0.3319743,-0.10611524,-0.8581666,2017-12-03 22:12:02,61.351327091683615
6.77534,-0.718796,7.940244,-0.0017393678,-0.0044672936,-1.6341358E-4,0.0,6.3654914,-0.6705049,7.429761,-0.41822073,0.047095075,-0.49373922,-0.33177635,-0.105414,-0.85878557,2017-12-03 22:12:03,50.1705522148666
6.7777324,-0.712816,7.93546,7.39485E-4,-0.0019921884,-0.002517648,0.0,6.3679957,-0.6643125,7.4281716,-0.40375674,0.04730755,-0.5204443,-0.3318441,-0.10558516,-0.85896885,2017-12-03 22:12:04,49.545043690505956
6.7789283,-0.704444,7.93546,0.0031596795,4.357025E-4,-8.232892E-6,0.0,6.3691983,-0.6645577,7.427118,-0.4109259,0.048258275,-0.5191063,-0.3319187,-0.10560498,-0.8589396,2017-12-03 22:12:05,46.23449134182013
6.7789283,-0.716404,7.9498124,-0.0016886778,4.0142238E-4,6.29127E-5,0.0,6.3736205,-0.667893,7.4230237,-0.4100918,0.04372706,-0.520809,-0.3322194,-0.105647646,-0.85872453,2017-12-03 22:12:07,52.43036228620227
6.7717524,-0.714012,7.9534,-0.0016373396,4.0253997E-4,-0.0023157299,0.0,6.370058,-0.6659689,7.4262547,-0.40408584,0.03847513,-0.50442135,-0.33218825,-0.10496392,-0.859586,2017-12-03 22:12:08,59.17038064116524
6.789692,-0.70922804,7.928284,0.0032531396,3.9574504E-4,-0.0023951456,0.0,6.372218,-0.67035484,7.4240055,-0.40671033,0.0412652,-0.49590662,-0.33233833,-0.10503478,-0.8592643,2017-12-03 22:12:09,49.78608711696197
6.76936,-0.725972,7.9450283,7.927194E-4,0.0028339326,7.598102E-5,0.0,6.368818,-0.67140436,7.426828,-0.39934593,0.041411623,-0.5098282,-0.331933,-0.10562994,-0.8585094,2017-12-03 22:12:10,59.641765835335086
6.7777324,-0.70683604,7.9211082,7.75937E-4,4.1121244E-4,0.0024793744,0.0,6.37277,-0.6732665,7.4232697,-0.40496263,0.03356953,-0.49783847,-0.33214816,-0.10581236,-0.8582191,2017-12-03 22:12:11,49.84010050132752
6.768164,-0.71162003,7.9258924,7.4345246E-4,4.3159723E-4,0.0023653284,0.0,6.3742433,-0.66973597,7.4223223,-0.39870474,0.044276074,-0.508354,-0.33208138,-0.10624906,-0.85793924,2017-12-03 22:12:12,60.33094766879941
6.792084,-0.690092,7.930676,0.0031700842,4.5332313E-4,0.0021894947,0.0,6.370717,-0.6684341,7.4254646,-0.39505556,0.04557795,-0.5016238,-0.33193478,-0.1059524,-0.85832936,2017-12-03 22:12:13,54.939414303686874
6.776536,-0.70683604,7.942636,6.9350004E-4,4.78521E-4,-3.4277886E-4,0.0,6.3662777,-0.67455554,7.428719,-0.4270026,0.045436494,-0.51152503,-0.33174396,-0.10576707,-0.858153,2017-12-03 22:12:14,56.030264841847
6.782516,-0.712816,7.9378524,6.550774E-4,-0.0018981397,-3.7827343E-4,0.0,6.3678913,-0.6704861,7.4277034,-0.40625265,0.049505938,-0.5149328,-0.3318945,-0.105539195,-0.85866,2017-12-03 22:12:15,62.1628963465992
6.7669683,-0.69966,7.9258924,6.9942325E-4,5.5758655E-4,0.0020140335,0.0,6.3679934,-0.6715601,7.427522,-0.41332713,0.040059917,-0.5139181,-0.33201712,-0.105197206,-0.85898507,2017-12-03 22:12:16,55.805530216966375
6.7777324,-0.70922804,7.934264,6.783977E-4,5.624816E-4,-4.0913373E-4,0.0,6.3695736,-0.67596555,7.4257674,-0.4117466,0.040438466,-0.50730073,-0.33210576,-0.10534268,-0.85857344,2017-12-03 22:12:17,42.7777095243228
6.762184,-0.714012,7.936656,6.558597E-4,5.4754317E-4,0.0019456968,0.0,6.367707,-0.6738934,7.427556,-0.42078912,0.031746626,-0.5258441,-0.33195785,-0.105376005,-0.85864484,2017-12-03 22:12:18,63.47065768423778
6.7789283,-0.724776,7.93546,-0.0017584711,5.519539E-4,-5.067736E-4,0.0,6.3697886,-0.67137116,7.4259996,-0.4007669,0.051012833,-0.51424485,-0.3318617,-0.10605322,-0.8580371,2017-12-03 22:12:19,61.57928693489295
6.768164,-0.70683604,7.9270883,6.559342E-4,-0.0018994287,0.0018759593,0.0,6.373557,-0.67366236,7.422556,-0.4053712,0.036761604,-0.49855217,-0.33196923,-0.10654296,-0.85737,2017-12-03 22:12:20,60.13643929138159
6.789692,-0.69966,7.928284,6.298162E-4,5.602017E-4,-6.085336E-4,0.0,6.3737874,-0.6695041,7.4227347,-0.39796472,0.038527958,-0.5043535,-0.33189368,-0.10673551,-0.857396,2017-12-03 22:12:21,56.35122091631715
6.776536,-0.70922804,7.922304,6.3978136E-4,5.4226816E-4,-6.113425E-4,0.0,6.373351,-0.6736501,7.4227343,-0.40079322,0.03916589,-0.5222943,-0.33233136,-0.10536487,-0.858707,2017-12-03 22:12:22,55.42088112453412
6.7777324,-0.704444,7.9318724,6.604828E-4,5.522892E-4,-0.0030405074,0.0,6.370543,-0.67325217,7.4251804,-0.39762104,0.031191843,-0.50788754,-0.33224547,-0.10504344,-0.85907584,2017-12-03 22:12:23,47.03585925249722
6.792084,-0.710424,7.934264,6.3830614E-4,5.72294E-4,-5.836189E-4,0.0,6.372698,-0.66825235,7.423782,-0.4002502,0.05054368,-0.5152666,-0.33209366,-0.10585958,-0.85845786,2017-12-03 22:12:24,56.580695581340585
6.768164,-0.7176,7.940244,6.9168955E-4,5.686283E-4,0.0018918887,0.0,6.3725724,-0.671625,7.423586,-0.39439622,0.04717099,-0.5178543,-0.33208054,-0.10594792,-0.8581599,2017-12-03 22:12:25,59.14147908946701
6.7657723,-0.714012,7.930676,-0.0017701164,5.761236E-4,-5.482361E-4,0.0,6.3710327,-0.67083037,7.42498,-0.41626728,0.041985624,-0.5128724,-0.33159795,-0.10711771,-0.8568622,2017-12-03 22:12:26,55.70631885621836
6.7729483,-0.70564,7.924696,6.000437E-4,5.7962537E-4,-0.0029802695,0.0,6.3722277,-0.6711516,7.423925,-0.40430853,0.028508449,-0.5103391,-0.33154613,-0.10752841,-0.85638046,2017-12-03 22:12:27,59.930043883623725
6.7717524,-0.712816,7.960576,-0.0018549562,5.407557E-4,-5.4927915E-4,0.0,6.3651705,-0.66929835,7.430144,-0.41256198,0.033949688,-0.51010054,-0.3316156,-0.10582635,-0.85838616,2017-12-03 22:12:28,41.62060046130403
6.789692,-0.702052,7.9318724,-0.0018437617,-0.0019087344,-5.49905E-4,0.0,6.3625784,-0.66876614,7.4324102,-0.421134,0.04285393,-0.52218556,-0.3318261,-0.10461333,-0.8597734,2017-12-03 22:12:29,49.17398318645621
6.77534,-0.70683604,7.93546,-0.0018408038,4.7608465E-4,-5.572066E-4,0.0,6.365405,-0.6755761,7.4293747,-0.4123276,0.03723989,-0.53120184,-0.33244428,-0.10338342,-0.8607748,2017-12-03 22:12:30,58.287417186173435
6.786104,-0.70085603,7.952204,-0.004250314,-0.0019747615,-5.5497885E-4,0.0,6.37243,-0.6675629,7.424075,-0.4088906,0.04644918,-0.50660104,-0.33301634,-0.10284772,-0.8618682,2017-12-03 22:12:31,64.4237007889203
6.7849083,-0.70683604,7.93546,-0.0018159188,4.344359E-4,0.004364975,0.0,6.3729978,-0.6696378,7.423399,-0.41310617,0.041982263,-0.51086515,-0.3328042,-0.10369824,-0.86080766,2017-12-03 22:12:32,59.9162324024672
6.80524,-0.70922804,7.94742,-0.001759652,4.4475496E-4,0.0017782673,0.0,6.3631773,-0.6497677,7.433585,-0.43967095,0.046304364,-0.50426704,-0.33177963,-0.1044748,-0.86103296,2017-12-03 22:12:33,63.50328781009556
6.7777324,-0.72238404,7.9199123,6.9043785E-4,4.6067685E-4,-6.383732E-4,0.0,6.3751864,-0.6720789,7.421302,-0.4180939,0.0443251,-0.5165508,-0.3325565,-0.10500073,-0.8592203,2017-12-03 22:12:34,53.56610653281895
6.7777324,-0.72238404,7.934264,7.328391E-4,4.959479E-4,0.0018138066,0.0,6.369721,-0.6791338,7.4253516,-0.40681496,0.048034254,-0.51848084,-0.3322406,-0.10501756,-0.85875744,2017-12-03 22:12:35,54.902924402429356
6.7849083,-0.715208,7.934264,-0.0017246082,-0.0019645095,-6.111786E-4,0.0,6.3695507,-0.67983246,7.4254336,-0.4249252,0.03298355,-0.50763446,-0.33202928,-0.10566397,-0.85798264,2017-12-03 22:12:36,56.07125407383486
6.7849083,-0.72358,7.9378524,-0.0016763546,-0.0019780397,0.0018013194,0.0,6.375333,-0.67540425,7.4208713,-0.40479136,0.03501973,-0.51578444,-0.33244902,-0.10544413,-0.8585274,2017-12-03 22:12:37,62.95558469390555
6.780124,-0.727168,7.92948,-0.00412545,-0.001981005,0.0018705502,0.0,6.3729696,-0.6702939,7.423366,-0.41911447,0.05209011,-0.5049182,-0.33224055,-0.105498426,-0.8587493,2017-12-03 22:12:38,60.09218144143381
6.7873,-0.710424,7.940244,7.6238066E-4,4.5513362E-4,-5.2788854E-4,0.0,6.370649,-0.6782301,7.4246383,-0.4202397,0.040565893,-0.50245035,-0.3321843,-0.10536821,-0.85841906,2017-12-03 22:12:39,49.31728698824037
6.78132,-0.715208,7.924696,7.1340427E-4,-0.0019925684,-0.0029487982,0.0,6.374097,-0.6787296,7.4216323,-0.41081133,0.047242373,-0.50784785,-0.33217728,-0.10611493,-0.85756415,2017-12-03 22:12:40,58.1213472777815
6.780124,-0.718796,7.93546,6.9902465E-4,4.5128912E-4,-4.6810508E-4,0.0,6.3735814,-0.67312765,7.4225845,-0.40893504,0.051648356,-0.51048344,-0.3322878,-0.10553849,-0.85854256,2017-12-03 22:12:41,46.86401327655262
6.79328,-0.7176,7.9390483,7.1084127E-4,4.954487E-4,-4.9789995E-4,0.0,6.3752007,-0.67782885,7.4207654,-0.42166767,0.040967166,-0.51469433,-0.33238435,-0.10567368,-0.85812527,2017-12-03 22:12:42,60.448203749813054
6.7849083,-0.71999204,7.9438324,7.2453544E-4,0.0029478073,-4.7960132E-4,0.0,6.3725877,-0.6748354,7.4232836,-0.41351652,0.045156654,-0.50858843,-0.3320668,-0.10606398,-0.85784036,2017-12-03 22:12:43,58.07581637997547
6.78132,-0.718796,7.9378524,-0.0017119274,-0.001935102,-4.657209E-4,0.0,6.377584,-0.67787397,7.418712,-0.40493223,0.039726008,-0.50957215,-0.33244953,-0.10596341,-0.85780925,2017-12-03 22:12:44,59.08891686804413
6.7789283,-0.718796,7.94742,-0.0016803145,-0.0019217357,-4.631579E-4,0.0,6.367037,-0.68345577,7.427255,-0.41189155,0.047300316,-0.51777357,-0.33218685,-0.10472487,-0.85881954,2017-12-03 22:12:45,43.86225616657682
6.774144,-0.721188,7.9438324,-0.001682952,4.9934536E-4,0.0044772774,0.0,6.3729033,-0.6734986,7.423132,-0.41320086,0.058453433,-0.5123282,-0.33231077,-0.105333574,-0.8587484,2017-12-03 22:12:46,47.55727811444946
6.782516,-0.71999204,7.934264,7.855408E-4,5.055666E-4,-3.4840405E-4,3.0,6.3705726,-0.67661715,7.424851,-0.41553137,0.03141491,-0.5201777,-0.332421,-0.10456725,-0.859417,2017-12-03 22:12:47,43.49530101726388
6.786104,-0.718796,7.942636,-0.0016811192,4.917085E-4,-0.002700694,0.0,6.369051,-0.6732104,7.426464,-0.40868133,0.04558562,-0.516172,-0.3321997,-0.1048766,-0.8592574,2017-12-03 22:12:48,58.610706001481255
6.7873,-0.710424,7.934264,7.583387E-4,4.7500432E-4,0.0021814406,0.0,6.37344,-0.67508554,7.42253,-0.41146836,0.03414251,-0.50934184,-0.3323209,-0.10544762,-0.85853034,2017-12-03 22:12:49,60.796502399943925
6.6366043,-0.834808,8.00124,-0.016368613,-0.021573812,0.014400862,0.0,6.2781463,-0.67874885,7.502971,-0.3441057,0.0077551445,-0.5664415,-0.32611817,-0.105365634,-0.8577151,2017-12-03 22:12:50,54.560988114261036
6.6485643,-0.708032,8.045492,-0.0067233406,1.3180077E-5,0.004653096,3.0,6.213338,-0.67735946,7.556852,-0.408914,0.09406053,-0.4718968,-0.32302135,-0.10180874,-0.86144584,2017-12-03 22:12:51,56.811247436761164
6.6545444,-0.710424,8.03114,6.362535E-4,-0.004759282,-0.0026423708,3.0,6.246604,-0.68030196,7.529112,-0.41033262,0.016966041,-0.5163801,-0.3249818,-0.10251324,-0.8607067,2017-12-03 22:12:52,55.43969656539251
6.7275,-0.614744,8.260772,-0.087271675,0.070985585,0.0046684146,3.0,6.184631,-0.6841998,7.5797496,0.248883,0.6134601,-0.8293261,-0.32195854,-0.09941344,-0.86361104,2017-12-03 22:12:53,61.603651984378075
6.5863724,-0.718796,8.07898,7.163435E-4,1.5583634E-4,0.0022491887,3.0,6.198105,-0.67205024,7.569823,-0.39663962,0.043157738,-0.5079618,-0.32226974,-0.10093868,-0.86266226,2017-12-03 22:12:54,50.595612030280755
6.588764,-0.72358,8.093332,-0.0016969182,-0.0022214279,0.0022497326,0.0,6.1954317,-0.6713966,7.5720696,-0.39931262,0.042615447,-0.52724224,-0.32212478,-0.10083407,-0.8628029,2017-12-03 22:12:56,61.12174097354925
6.594744,-0.7176,8.083764,7.298961E-4,-0.0021975562,0.0022100806,0.0,6.1918306,-0.67153865,7.5750036,-0.39454177,0.037689388,-0.505173,-0.32198894,-0.10052613,-0.8631262,2017-12-03 22:12:57,52.18095710014721
6.606704,-0.702052,8.09692,7.768199E-4,2.811104E-4,-0.0027077943,0.0,6.1974473,-0.67160165,7.5704026,-0.37935704,0.041214347,-0.5241256,-0.32218313,-0.10106904,-0.86253166,2017-12-03 22:12:58,71.46937705893984
6.5875683,-0.708032,8.093332,7.801056E-4,-0.002125807,-0.002660185,3.0,6.196338,-0.67244846,7.5712357,-0.39840603,0.043955535,-0.5137246,-0.32199407,-0.1014608,-0.8620129,2017-12-03 22:12:59,66.78812344997401
6.489496,-0.797732,8.104096,-0.0017375909,0.009731241,0.007217437,3.0,6.1052227,-0.67705375,7.6444902,-0.38427347,0.04054624,-0.4811346,-0.31678548,-0.09943041,-0.86336195,2017-12-03 22:13:00,58.20698234370066
6.515808,-0.725972,8.1328,0.0031049028,-0.0023093298,0.0022821128,3.0,6.1295176,-0.6760501,7.625114,-0.3838988,0.03556991,-0.4993138,-0.31788996,-0.10086319,-0.8619262,2017-12-03 22:13:01,57.234077146487024
6.5193963,-0.71162003,8.129212,-0.001804933,2.341196E-4,0.0023286715,3.0,6.1393704,-0.6718945,7.6175504,-0.37763387,0.05527356,-0.5164456,-0.31827024,-0.101572976,-0.86141926,2017-12-03 22:13:02,51.242600699868206
6.5182,-0.72238404,8.136388,-0.0017981529,-0.0022357106,-5.3554773E-5,3.0,6.1336637,-0.673246,7.6220274,-0.38932022,0.03956994,-0.50957686,-0.31813213,-0.100879714,-0.8621161,2017-12-03 22:13:03,54.078405314173
6.5193963,-0.715208,8.155524,-0.0017598644,2.2904575E-4,-0.0024516582,3.0,6.1330314,-0.6714872,7.6226916,-0.38636488,0.043720778,-0.5328326,-0.3181472,-0.100664064,-0.86247605,2017-12-03 22:13:04,57.802143460235385
6.563648,-0.68530804,8.100508,0.003124334,-0.0046059415,-0.0024019927,3.0,6.1272206,-0.6694719,7.627542,-0.37901977,0.049324077,-0.5040625,-0.31802034,-0.099833556,-0.8635384,2017-12-03 22:13:05,46.25625671049654
6.5134163,-0.72238404,8.138781,7.0340186E-4,-0.0021600798,0.0024641603,3.0,6.1341295,-0.66875166,7.622048,-0.39363867,0.05124036,-0.50716454,-0.31870517,-0.0990491,-0.86456907,2017-12-03 22:13:06,59.47325410005742
6.528964,-0.70922804,8.129212,7.245913E-4,2.7462095E-4,-4.9114227E-5,3.0,6.1304307,-0.6786252,7.6241517,-0.39016137,0.0329948,-0.5002759,-0.31834173,-0.09967467,-0.8631985,2017-12-03 22:13:07,58.06804182674032
6.522984,-0.7176,8.118448,-0.0017036274,3.151819E-4,-9.2856586E-5,3.0,6.136801,-0.6753677,7.6193137,-0.38737902,0.043428298,-0.505114,-0.31891048,-0.099092,-0.86414075,2017-12-03 22:13:08,54.98638691310292
6.521788,-0.70564,8.133996,7.41452E-4,-0.0021356195,0.0022964403,3.0,6.133991,-0.67129797,7.621937,-0.3889929,0.043910015,-0.5048837,-0.31867415,-0.0991777,-0.86426246,2017-12-03 22:13:09,59.678310725674706
6.517004,-0.710424,8.125625,-0.001697395,3.014803E-4,-1.823157E-4,3.0,6.1303797,-0.67602366,7.6244235,-0.39738837,0.029616337,-0.5107681,-0.3186544,-0.09860011,-0.86462885,2017-12-03 22:13:10,57.61970972807915
6.53016,-0.714012,8.142368,7.3762983E-4,3.1235814E-4,-1.4635175E-4,3.0,6.1308446,-0.6737369,7.6242523,-0.38615972,0.03429514,-0.5288801,-0.31862777,-0.09873034,-0.86461717,2017-12-03 22:13:11,50.50773208718382
6.521788,-0.712816,8.1328,-0.0016707741,2.9344112E-4,-0.0025312006,3.0,6.131603,-0.6716114,7.623831,-0.37822542,0.0519686,-0.5077736,-0.3185634,-0.09904659,-0.86437863,2017-12-03 22:13:12,53.99380080094527
6.515808,-0.718796,8.147152,7.778071E-4,3.2167882E-4,-2.0332634E-5,3.0,6.1348753,-0.6732009,7.6210566,-0.38093293,0.04559512,-0.52848727,-0.31904975,-0.09819139,-0.8653152,2017-12-03 22:13:13,62.17306419111701
6.526572,-0.69846404,8.130408,-0.001636412,3.1011552E-4,6.560981E-5,3.0,6.133582,-0.67453885,7.6219797,-0.38222587,0.049041167,-0.5096248,-0.3186912,-0.09911201,-0.8641407,2017-12-03 22:13:14,54.787146515565254
6.522984,-0.718796,8.143564,8.124672E-4,0.0027514696,1.4882535E-4,3.0,6.135009,-0.6749244,7.6207976,-0.3903677,0.0366957,-0.51798284,-0.31898117,-0.09848118,-0.8648725,2017-12-03 22:13:15,47.23868976095103
6.517004,-0.70922804,8.133996,7.9088286E-4,-0.0021507666,-0.0022653714,3.0,6.1349263,-0.67526966,7.620833,-0.38686174,0.033958383,-0.5215356,-0.31880265,-0.09904828,-0.8641829,2017-12-03 22:13:16,57.593830487269315
6.52418,-0.714012,8.1328,0.0032444708,-0.0021688268,1.6426295E-4,3.0,6.1322904,-0.66944414,7.623468,-0.39308572,0.03380385,-0.5033528,-0.3182774,-0.10005436,-0.8633213,2017-12-03 22:13:17,60.334122570867336
6.52418,-0.715208,8.135192,-0.0016540438,2.982095E-4,-0.00232552,3.0,6.13209,-0.6770926,7.622951,-0.40763798,0.030939402,-0.5170254,-0.31826353,-0.10022946,-0.8626449,2017-12-03 22:13:18,60.32126024874658
6.517004,-0.725972,8.135192,7.5645745E-4,0.0027364492,6.710738E-5,3.0,6.1306596,-0.6718809,7.624566,-0.39591247,0.033759136,-0.5166063,-0.31818646,-0.10006391,-0.8631475,2017-12-03 22:13:19,54.64115337750187
6.522984,-0.71162003,8.117252,-0.0017068163,3.164038E-4,4.735589E-5,3.0,6.137706,-0.67332566,7.618767,-0.37810266,0.03351035,-0.5068582,-0.31860226,-0.10021805,-0.8629375,2017-12-03 22:13:20,66.27938267266346
6.520592,-0.704444,8.128016,-0.0041169934,-0.011882454,-0.0023967028,3.0,6.1393676,-0.6713608,7.6176004,-0.3895967,0.04025924,-0.51998305,-0.3186784,-0.100272514,-0.8630066,2017-12-03 22:13:21,59.35514555436719
6.5182,-0.716404,8.137584,-0.0017039143,3.9651245E-4,-0.002418436,3.0,6.136024,-0.674014,7.62006,-0.36304012,0.037606094,-0.5294839,-0.31847048,-0.100307785,-0.862774,2017-12-03 22:13:22,52.49949715583134
6.52418,-0.708032,8.1399765,7.52043E-4,3.854707E-4,-7.50497E-5,3.0,6.1344,-0.6716512,7.6215754,-0.38619187,0.037576865,-0.52079326,-0.31817105,-0.100871205,-0.8622305,2017-12-03 22:13:23,69.23059680186358
6.514612,-0.72358,8.145956,-0.0016781762,0.0028290898,0.0023133606,3.0,6.134689,-0.6687239,7.621602,-0.39188334,0.040504154,-0.51239365,-0.31829384,-0.1004766,-0.8628832,2017-12-03 22:13:24,60.81433921106911
6.511024,-0.70683604,8.117252,-0.0016888678,-0.0045424104,0.002284333,3.0,6.1392555,-0.6659255,7.6181655,-0.3717682,0.040910542,-0.49908644,-0.31829405,-0.10134351,-0.86205876,2017-12-03 22:13:25,56.38303016583026
6.5253763,-0.70564,8.110076,7.508993E-4,-0.004516743,-0.0026142597,3.0,6.1381545,-0.66790277,7.6188836,-0.3955939,0.050893225,-0.5019564,-0.31816825,-0.10155841,-0.86167014,2017-12-03 22:13:26,60.34127737791019
6.515808,-0.708032,8.157916,7.2717667E-4,3.8211048E-4,0.0022631362,3.0,6.1345534,-0.66905457,7.6216793,-0.39082304,0.05093743,-0.5182973,-0.31817916,-0.10081913,-0.86245275,2017-12-03 22:13:27,58.70033966310566
6.515808,-0.70922804,8.137584,-0.0016647615,4.0844083E-4,-2.392456E-4,3.0,6.1370497,-0.6693286,7.619646,-0.37636665,0.045879416,-0.50717443,-0.3183,-0.10095176,-0.86229986,2017-12-03 22:13:28,53.78060589130652
6.534944,-0.712816,8.124428,-0.0016407557,4.0277094E-4,-2.579093E-4,3.0,6.135517,-0.6731838,7.6205416,-0.40421093,0.033652242,-0.5230226,-0.31827,-0.10082042,-0.8622078,2017-12-03 22:13:29,59.21400638690535
6.527768,-0.70922804,8.129212,-0.001611881,0.0028488412,-2.0581484E-4,3.0,6.1334643,-0.67437094,7.6220894,-0.3751678,0.039641105,-0.51190615,-0.31840557,-0.09999764,-0.86309934,2017-12-03 22:13:30,52.37831928280998
6.517004,-0.718796,8.1399765,-0.001596801,4.1159987E-4,-2.5508553E-4,3.0,6.13764,-0.66866076,7.6192303,-0.38295186,0.032195248,-0.52433425,-0.31848386,-0.100476116,-0.8629135,2017-12-03 22:13:31,63.01842712000177
6.517004,-0.69966,8.125625,7.964261E-4,4.0994585E-4,-2.6423484E-4,3.0,6.138885,-0.6675152,7.618327,-0.3876871,0.040516794,-0.50490475,-0.31855318,-0.100485355,-0.862983,2017-12-03 22:13:32,63.80825973015512
6.52418,-0.708032,8.128016,7.9008564E-4,3.6335737E-4,0.0021058694,3.0,6.1368475,-0.6716342,7.6196065,-0.39092064,0.044769775,-0.531134,-0.318466,-0.1004371,-0.862772,2017-12-03 22:13:33,61.44720729915321
6.522984,-0.721188,8.126821,7.938072E-4,3.6833435E-4,-3.9479136E-4,3.0,6.1407876,-0.6688148,7.616679,-0.38817632,0.032041226,-0.5173165,-0.31859943,-0.10075645,-0.8625977,2017-12-03 22:13:34,67.02645723697059
6.5253763,-0.710424,8.124428,-0.0016711466,3.7180632E-4,-3.9564073E-4,3.0,6.13617,-0.66889864,7.6203938,-0.39040217,0.039133377,-0.5183868,-0.31833524,-0.10065183,-0.8626766,2017-12-03 22:13:35,59.96201701431013
6.528964,-0.704444,8.133996,-0.0016817711,3.5291165E-4,0.0020312965,3.0,6.139692,-0.6713063,7.6173425,-0.37611645,0.051077716,-0.5058891,-0.318558,-0.100719266,-0.8624805,2017-12-03 22:13:36,56.19138342670783
6.5193963,-0.712816,8.142368,7.6179206E-4,3.5076588E-4,-4.1757524E-4,3.0,6.137974,-0.6700605,7.6188393,-0.38381404,0.039167497,-0.50439274,-0.31864488,-0.10006417,-0.8633212,2017-12-03 22:13:37,60.60297263524295
6.521788,-0.716404,8.141172,7.47744E-4,-0.0020804852,-4.0891021E-4,3.0,6.1401944,-0.6714362,7.616927,-0.38637775,0.048555795,-0.50989366,-0.31874946,-0.10021778,-0.86307424,2017-12-03 22:13:38,58.13951904009816
6.527768,-0.718796,8.123232,-0.001727093,3.6036968E-4,-4.0657818E-4,3.0,6.13629,-0.667302,7.6204376,-0.37832245,0.04671002,-0.506383,-0.31843758,-0.1003165,-0.8631744,2017-12-03 22:13:39,60.1899550822813
6.5313563,-0.710424,8.138781,-0.0017011017,3.753081E-4,-3.7497282E-4,3.0,6.139521,-0.66606724,7.6179395,-0.37628713,0.052728772,-0.51605624,-0.31849286,-0.10077423,-0.8627326,2017-12-03 22:13:40,51.801881854485366
6.517004,-0.715208,8.124428,7.726699E-4,-0.002013348,-3.8658828E-4,3.0,6.138942,-0.6699141,7.6180716,-0.38523793,0.02974588,-0.51472884,-0.3185648,-0.10051346,-0.8628042,2017-12-03 22:13:41,60.38873327904635
6.514612,-0.70683604,8.137584,0.0031254888,0.0027929023,-3.7940592E-4,3.0,6.1508946,-0.65788347,7.6094747,-0.3613257,0.06928455,-0.523326,-0.31787115,-0.104798816,-0.8584863,2017-12-03 22:13:42,53.206651079149474
6.5193963,-0.703248,8.129212,6.7669526E-4,0.0028223097,-0.0028101355,3.0,6.1310735,-0.6670431,7.624656,-0.3823428,0.044576954,-0.49737963,-0.31725153,-0.10296699,-0.8599515,2017-12-03 22:13:44,67.4347492084753
6.522984,-0.70683604,8.126821,6.731674E-4,3.9232522E-4,0.002107881,3.0,6.1334214,-0.66870666,7.6226234,-0.3931506,0.035737377,-0.5245289,-0.3178361,-0.101659566,-0.86145514,2017-12-03 22:13:45,57.149175128982314
6.522984,-0.69846404,8.131604,-0.0017388649,4.0064752E-4,-3.1246245E-4,3.0,6.135391,-0.6688038,7.6210294,-0.39357263,0.04401216,-0.52373105,-0.3180366,-0.10143198,-0.86174124,2017-12-03 22:13:46,61.91823939393448
6.511024,-0.7176,8.130408,7.05909E-4,0.0028218478,0.0021356195,3.0,6.131672,-0.67502666,7.6234717,-0.38294017,0.03898542,-0.5117197,-0.3181885,-0.100335486,-0.8626406,2017-12-03 22:13:47,60.32244989921749
6.511024,-0.727168,8.117252,7.3909387E-4,3.722161E-4,-2.687946E-4,3.0,6.1234245,-0.6742539,7.6301675,-0.3959715,0.034974135,-0.50382805,-0.31760305,-0.10048916,-0.8624293,2017-12-03 22:13:48,61.12623603976723
6.5182,-0.704444,8.135192,-0.0017074607,3.8200617E-4,-2.1139532E-4,3.0,6.13563,-0.66799206,7.6209054,-0.37898237,0.03764796,-0.5130904,-0.31779695,-0.10221066,-0.86085504,2017-12-03 22:13:49,71.64558272461173
6.5134163,-0.71162003,8.129212,7.50687E-4,-0.0020798743,-2.3209304E-4,3.0,6.1311007,-0.66847664,7.624511,-0.37992346,0.045535427,-0.510681,-0.31717664,-0.1032337,-0.8595377,2017-12-03 22:13:50,67.35926365674806
6.503848,-0.712816,8.130408,0.0032101162,3.382936E-4,-0.002616942,3.0,6.128386,-0.6700443,7.626553,-0.3802461,0.04516367,-0.5086387,-0.31777555,-0.1008599,-0.8622876,2017-12-03 22:13:51,41.18268473020899
6.517004,-0.718796,8.141172,7.6332316E-4,3.3044815E-4,-1.2558699E-4,3.0,6.1296387,-0.66976815,7.625572,-0.37420976,0.050223876,-0.5048364,-0.3178904,-0.10074619,-0.8624522,2017-12-03 22:13:52,44.35455616241791
6.517004,-0.714012,8.14476,7.5118616E-4,3.1548738E-4,-0.002504006,3.0,6.12854,-0.67227864,7.626234,-0.38607204,0.041733403,-0.5053706,-0.31788573,-0.10059324,-0.862472,2017-12-03 22:13:53,41.14052956072808
6.517004,-0.716404,8.1399765,-0.0016879253,-0.0021260977,6.8619847E-6,3.0,6.1293902,-0.6658651,7.6261134,-0.39359367,0.048146922,-0.5114701,-0.31802893,-0.10017033,-0.8633757,2017-12-03 22:13:54,52.296427429378255
6.5193963,-0.708032,8.141172,-0.0016908981,3.202483E-4,0.0024942234,3.0,6.1300497,-0.6669278,7.625488,-0.38217095,0.04110424,-0.5097037,-0.31838018,-0.09920851,-0.8644576,2017-12-03 22:13:55,60.41793038910563
6.515808,-0.714012,8.143564,7.7363104E-4,-0.002082765,3.9488077E-5,3.0,6.1306853,-0.66999334,7.6247106,-0.39588675,0.047606677,-0.52363753,-0.3182747,-0.09974577,-0.8636409,2017-12-03 22:13:56,52.307596695260315
6.517004,-0.712816,8.1328,7.536486E-4,3.8514286E-4,1.3969839E-5,3.0,6.1316776,-0.67273897,7.6236715,-0.39130643,0.04127309,-0.5258727,-0.31848574,-0.09933697,-0.8639676,2017-12-03 22:13:56,52.6321520898091
6.515808,-0.703248,8.150741,-0.0016188323,3.70197E-4,-6.664544E-5,3.0,6.1307397,-0.66767645,7.6248693,-0.38985214,0.049923576,-0.5198907,-0.31842944,-0.09920975,-0.86441666,2017-12-03 22:13:57,61.58952049948867
6.52418,-0.708032,8.155524,8.376129E-4,3.8912147E-4,-0.0025262982,3.0,6.130635,-0.66869843,7.6248636,-0.38278177,0.041725513,-0.52228844,-0.31847194,-0.099074624,-0.8645136,2017-12-03 22:13:58,62.722523447559794
6.514612,-0.721188,8.136388,8.550659E-4,3.8852543E-4,-1.3267994E-4,3.0,6.133053,-0.6692107,7.6228747,-0.3839514,0.049585357,-0.5182979,-0.3183805,-0.09987711,-0.8635527,2017-12-03 22:13:59,59.6535643617286
6.522984,-0.703248,8.125625,8.512251E-4,4.137382E-4,-0.0026046112,0.0,6.1273623,-0.6697531,7.627402,-0.3896417,0.037082948,-0.51616263,-0.31801838,-0.09987539,-0.8634727,2017-12-03 22:14:00,59.70291240401505
6.528964,-0.70683604,8.135192,-0.0015791059,4.0780008E-4,-2.2602081E-4,3.0,6.1453714,-0.68087447,7.6119137,-0.37880817,0.03074556,-0.516103,-0.31920767,-0.10003472,-0.86276305,2017-12-03 22:14:01,62.07252612261299
6.511024,-0.708032,8.130408,8.393526E-4,3.9322674E-4,-2.456978E-4,3.0,6.130873,-0.67064273,7.624501,-0.38134736,0.036193304,-0.49873045,-0.31783116,-0.10120266,-0.86186224,2017-12-03 22:14:02,43.04219943511298
6.52418,-0.71162003,8.14476,-0.0016066357,3.9563328E-4,0.0021222085,3.0,6.134357,-0.6711187,7.621657,-0.3778636,0.032129344,-0.51353467,-0.31812012,-0.1010111,-0.86209506,2017-12-03 22:14:03,60.166580982789554
6.526572,-0.702052,8.133996,7.9438835E-4,-0.0020669177,0.002058223,3.0,6.132794,-0.66849256,7.6231465,-0.38779813,0.04791143,-0.5084581,-0.31828412,-0.100114726,-0.8633117,2017-12-03 22:14:04,58.39513039499634
6.5182,-0.704444,8.125625,8.319542E-4,-0.0020367801,0.0019740313,3.0,6.1356564,-0.674684,7.6202974,-0.3753677,0.032152064,-0.50413024,-0.3183253,-0.10070758,-0.8622524,2017-12-03 22:14:05,56.5255617685698
6.520592,-0.71162003,8.148348,8.060597E-4,0.002874434,0.0019021928,3.0,6.138612,-0.6694548,7.6183753,-0.39752868,0.039773207,-0.5204051,-0.31841305,-0.100915916,-0.862349,2017-12-03 22:14:06,58.135725374430706
6.521788,-0.710424,8.122036,0.0032805912,4.2098016E-4,-5.6545436E-4,3.0,6.133107,-0.6666203,7.623059,-0.38030922,0.048587654,-0.51213294,-0.31797606,-0.10111122,-0.8622388,2017-12-03 22:14:07,58.86664299216215
6.508632,-0.70683604,8.131604,-0.0016354807,4.5125932E-4,-5.907342E-4,3.0,6.133104,-0.6677682,7.622961,-0.3934686,0.034283817,-0.5062515,-0.31781754,-0.10163283,-0.8615419,2017-12-03 22:14:08,54.326598062196744
6.526572,-0.702052,8.129212,8.24213E-4,0.002939105,-6.377697E-4,3.0,6.1395445,-0.6711413,7.617478,-0.37506783,0.054830637,-0.5081471,-0.3187671,-0.10002156,-0.8633196,2017-12-03 22:14:09,54.86758018939442
6.520592,-0.710424,8.130408,-0.0016351454,-0.0019391328,-6.8446994E-4,3.0,6.1353307,-0.66823786,7.6211276,-0.3924375,0.037402168,-0.51526016,-0.31873223,-0.09919918,-0.864433,2017-12-03 22:14:10,59.60483199347962
6.509828,-0.7176,8.125625,0.0032631047,0.0029409975,-7.416457E-4,3.0,6.1375074,-0.6682728,7.6193705,-0.38188863,0.040955257,-0.50386137,-0.31901515,-0.09873997,-0.86498874,2017-12-03 22:14:11,53.48117462377053
6.5182,-0.715208,8.117252,-0.0015969537,4.805252E-4,0.0016972721,3.0,6.1390276,-0.67267233,7.617759,-0.37678048,0.032967694,-0.50666827,-0.31887522,-0.09960426,-0.8637169,2017-12-03 22:14:12,49.12593857711432
6.5074363,-0.710424,8.124428,8.3626434E-4,-0.0019898266,-7.7192485E-4,3.0,6.137495,-0.6669994,7.6194906,-0.3854887,0.038640622,-0.5168968,-0.31828085,-0.10105129,-0.862327,2017-12-03 22:14:13,50.70130985213922
6.5122204,-0.716404,8.131604,8.3785877E-4,-0.0019790307,0.0016968399,3.0,6.1302533,-0.6712686,7.624946,-0.3915344,0.039155368,-0.50187457,-0.3183307,-0.09950662,-0.8638437,2017-12-03 22:14:14,59.43183926091336
6.52418,-0.70564,8.143564,8.558892E-4,4.420504E-4,-6.9351494E-4,3.0,6.13327,-0.6701536,7.622618,-0.38851827,0.03787841,-0.5053987,-0.31844342,-0.09974209,-0.8636576,2017-12-03 22:14:15,53.884366179891636
6.5014563,-0.724776,8.126821,0.0032906495,4.0061772E-4,-0.0031074882,3.0,6.1348624,-0.6721207,7.6211624,-0.40127778,0.045479313,-0.5367536,-0.31858402,-0.09966494,-0.8636433,2017-12-03 22:14:16,58.87475476952083
6.5182,-0.70683604,8.157916,7.751323E-4,-0.0045517683,0.0017822087,3.0,6.139079,-0.67205817,7.617773,-0.36596507,0.027601855,-0.5628671,-0.31866154,-0.10028248,-0.8629499,2017-12-03 22:14:17,46.782641197251834
6.508632,-0.712816,8.125625,7.471703E-4,-0.0021156892,0.0018164739,3.0,6.1281924,-0.66864204,7.626832,-0.37445992,0.03938998,-0.5095558,-0.317882,-0.100453176,-0.86285853,2017-12-03 22:14:18,56.21346270198288
6.5074363,-0.69966,8.148348,0.0031590424,-0.0020932406,0.0017897934,3.0,6.1258984,-0.66640025,7.62887,-0.38392976,0.038043752,-0.5182821,-0.3177272,-0.10042553,-0.86300784,2017-12-03 22:14:19,50.35990686054889
6.5122204,-0.715208,8.129212,7.1907416E-4,3.431067E-4,-6.004423E-4,0.0,6.126744,-0.66462433,7.6283464,-0.3735165,0.049387716,-0.52359015,-0.31777436,-0.100409396,-0.86314297,2017-12-03 22:14:20,54.020696364739024
6.508632,-0.72358,8.143564,-0.00169814,-0.002097115,-0.0030227974,0.0,6.12315,-0.6702622,7.6307406,-0.39744216,0.029397799,-0.5283716,-0.31774893,-0.09988102,-0.8633982,2017-12-03 22:14:21,55.38184137198259
6.5074363,-0.714012,8.147152,7.3228404E-4,-0.0020773783,-0.003046915,3.0,6.120724,-0.66353774,7.6332746,-0.39986792,0.042102307,-0.5174661,-0.31735528,-0.10048409,-0.8630663,2017-12-03 22:14:22,46.54199975754298
6.522984,-0.70922804,8.151937,7.454939E-4,0.0028213263,-5.8660656E-4,3.0,6.1249514,-0.66752183,7.6295347,-0.39922845,0.032138184,-0.50087386,-0.31750596,-0.100955606,-0.8622957,2017-12-03 22:14:23,49.07319825070071
6.528964,-0.70564,8.128016,0.00326249,7.1118027E-4,0.0019152239,3.0,6.1348596,-0.6630856,7.6219573,-0.38573244,0.037770417,-0.5156261,-0.31802243,-0.10124298,-0.8623129,2017-12-03 22:14:24,60.91905976307349
6.521788,-0.724776,8.145956,-0.0016458146,6.793514E-4,-5.1861256E-4,3.0,6.139021,-0.6607684,7.618807,-0.38157123,0.046067633,-0.5271493,-0.3185422,-0.100398615,-0.86349696,2017-12-03 22:14:25,45.56542060057324
6.52418,-0.704444,8.143564,7.779822E-4,-0.0017889589,0.0019249022,3.0,6.1348934,-0.6677561,7.6215196,-0.39048284,0.034295946,-0.5100848,-0.3183997,-0.100161165,-0.86331934,2017-12-03 22:14:27,52.44681654716979
6.5253763,-0.708032,8.1399765,0.0031953081,6.8065524E-4,0.0018705875,3.0,6.1346965,-0.6657165,7.6218586,-0.3894833,0.042315513,-0.51213706,-0.31820846,-0.10068169,-0.8628219,2017-12-03 22:14:28,59.81369713027648
6.509828,-0.71999204,8.131604,8.0836564E-4,6.820038E-4,-5.30906E-4,3.0,6.137363,-0.6664894,7.6196427,-0.382033,0.03675861,-0.5155489,-0.3183982,-0.10064258,-0.8628449,2017-12-03 22:14:29,55.7572887006095
6.5253763,-0.71162003,8.1328,8.0873445E-4,7.0236623E-4,0.0018683225,0.0,6.13429,-0.6674062,7.6220374,-0.392282,0.033449776,-0.50119424,-0.31837398,-0.10011147,-0.8633945,2017-12-03 22:14:30,61.823990030633276
6.53016,-0.70922804,8.150741,7.930957E-4,6.6450983E-4,-5.9843063E-4,3.0,6.1340218,-0.66609925,7.622368,-0.38776597,0.039540786,-0.5080407,-0.31850886,-0.09959693,-0.8640816,2017-12-03 22:14:31,58.03483189312533
6.515808,-0.70922804,8.111272,7.971525E-4,6.9364905E-4,-5.987957E-4,3.0,6.1363215,-0.6667599,7.6204576,-0.39383858,0.042468145,-0.51593,-0.3186669,-0.099580094,-0.86408067,2017-12-03 22:14:32,61.473515357621395
6.5193963,-0.703248,8.14476,8.315183E-4,-0.001773566,-5.735904E-4,3.0,6.135595,-0.6643024,7.621257,-0.3885849,0.040141605,-0.52589554,-0.3184453,-0.100083016,-0.8636278,2017-12-03 22:14:33,62.069724536043516
6.533748,-0.702052,8.137584,-0.0015881918,6.7928433E-4,-5.334765E-4,3.0,6.1334753,-0.6661317,7.622805,-0.38113692,0.04788038,-0.52075934,-0.31823325,-0.10036322,-0.86316544,2017-12-03 22:14:34,51.76709021839855
6.53016,-0.694876,8.128016,8.448027E-4,6.7522377E-4,-5.3568184E-4,3.0,6.1346335,-0.66430694,7.6220317,-0.38715458,0.053293053,-0.50718087,-0.3182269,-0.100579314,-0.8630292,2017-12-03 22:14:35,50.52539012512459
6.5325522,-0.70683604,8.138781,-0.0015934668,7.0530176E-4,0.0019622147,0.0,6.1365576,-0.6644686,7.6204686,-0.3888187,0.043563467,-0.5087439,-0.3185371,-0.09999198,-0.8637339,2017-12-03 22:14:36,60.870076307517465
6.527768,-0.708032,8.130408,8.8073313E-4,-0.0017536804,0.001944229,3.0,6.13919,-0.66553575,7.618255,-0.38857788,0.042496275,-0.5121534,-0.31866717,-0.100141734,-0.863514,2017-12-03 22:14:37,42.13020439883843
6.5193963,-0.702052,8.141172,9.139031E-4,6.60643E-4,-4.90956E-4,3.0,6.138678,-0.6623468,7.6189456,-0.3807178,0.050469227,-0.523423,-0.31869024,-0.09989223,-0.8639982,2017-12-03 22:14:38,40.24851663989284
6.522984,-0.69607204,8.117252,9.4407797E-4,5.830154E-4,-5.075559E-4,3.0,6.139742,-0.66573465,7.6177917,-0.38204587,0.045885406,-0.52457684,-0.31871513,-0.10010684,-0.8635479,2017-12-03 22:14:39,56.30246048262791
6.5373363,-0.69966,8.126821,9.193346E-4,6.1189383E-4,0.0018781647,3.0,6.141152,-0.6652271,7.616698,-0.39140055,0.042804904,-0.52686644,-0.31874982,-0.10027453,-0.8633918,2017-12-03 22:14:40,56.447281437505964
6.5122204,-0.710424,8.130408,8.933842E-4,6.047785E-4,-6.031841E-4,3.0,6.141907,-0.66867375,7.6157885,-0.3846651,0.029790305,-0.49309158,-0.31866556,-0.10077247,-0.862597,2017-12-03 22:14:41,62.1748941295871
6.514612,-0.70922804,8.129212,-0.0015703179,5.943626E-4,-5.7860464E-4,3.0,6.1373754,-0.6614919,7.6200695,-0.3820207,0.040560123,-0.4995745,-0.31803244,-0.10168579,-0.8619025,2017-12-03 22:14:42,53.033071151135346
6.527768,-0.69966,8.131604,-0.0015784614,-0.0018363744,0.0018812269,3.0,6.1385455,-0.6635317,7.6189494,-0.38324237,0.04450031,-0.51504624,-0.31850925,-0.100466855,-0.8632442,2017-12-03 22:14:43,56.285124878138134
6.5385323,-0.704444,8.133996,-0.0015666075,5.806312E-4,-5.396679E-4,3.0,6.1394687,-0.66602004,7.6179876,-0.39069152,0.042012,-0.535145,-0.3185049,-0.10072425,-0.8627946,2017-12-03 22:14:44,43.72340166695936
6.5134163,-0.70922804,8.150741,-0.0015841722,5.692616E-4,-5.53526E-4,3.0,6.13787,-0.6640163,7.619453,-0.41381812,0.054779712,-0.50019115,-0.3184605,-0.10049395,-0.8631767,2017-12-03 22:14:45,59.58414865205157
6.514612,-0.714012,8.128016,-0.0015693456,-0.0018151402,-0.0029986575,0.0,6.1419563,-0.6666949,7.615925,-0.38222355,0.043729108,-0.52883565,-0.31872135,-0.100561865,-0.86296856,2017-12-03 22:14:46,57.55907445137413
6.5134163,-0.70085603,8.122036,8.5332245E-4,-0.004239157,0.0018529221,0.0,6.140925,-0.66177773,7.617182,-0.3617273,0.041470293,-0.52638245,-0.31855723,-0.10076238,-0.8630198,2017-12-03 22:14:47,58.16307220699234
6.539728,-0.704444,8.138781,-0.0015642233,6.457791E-4,-0.0030145496,3.0,6.136803,-0.6674698,7.62001,-0.4005331,0.039366234,-0.50441784,-0.31867468,-0.099670246,-0.8639352,2017-12-03 22:14:48,48.835446795339536
6.545708,-0.694876,8.125625,-0.0015621632,6.330833E-4,0.0018211976,3.0,6.136291,-0.6655437,7.620588,-0.38908526,0.040096376,-0.51579964,-0.3186885,-0.0994774,-0.8642752,2017-12-03 22:14:49,63.743440699429506
6.528964,-0.702052,8.133996,8.975044E-4,5.958006E-4,0.0018394813,3.0,6.139152,-0.6630761,7.6185007,-0.39937985,0.04615195,-0.52028,-0.3188384,-0.099532515,-0.86438274,2017-12-03 22:14:50,42.29636854232233
6.520592,-0.718796,8.101705,-0.0040173084,5.784407E-4,-5.7361275E-4,3.0,6.1362195,-0.6621512,7.620942,-0.39154842,0.03990078,-0.5190344,-0.31850332,-0.0999787,-0.86388713,2017-12-03 22:14:51,54.48812922867775
6.517004,-0.69966,8.129212,8.523017E-4,5.721301E-4,-0.0030482188,3.0,6.13603,-0.66685563,7.6206856,-0.38814944,0.049548388,-0.49656656,-0.31835872,-0.10050359,-0.86297655,2017-12-03 22:14:52,57.94170555936701
6.539728,-0.712816,8.137584,8.461438E-4,-0.00183703,-0.0056118667,3.0,6.1330695,-0.67346114,7.6224866,-0.40785426,0.0190229,-0.4935697,-0.31839097,-0.09994277,-0.8632165,2017-12-03 22:14:53,61.51932074606229
6.527768,-0.703248,8.129212,8.628443E-4,-0.0017995462,0.0017407686,3.0,6.1421814,-0.66345644,7.6160235,-0.39515492,0.04816358,-0.52156013,-0.31888983,-0.10000063,-0.86383206,2017-12-03 22:14:54,59.83110888713675
6.534944,-0.714012,8.142368,-0.0015965812,6.5439194E-4,-7.526949E-4,3.0,6.1407714,-0.6669236,7.6168604,-0.39536884,0.035128452,-0.5231161,-0.3187808,-0.100135304,-0.86345094,2017-12-03 22:14:55,56.57944695379076
6.533748,-0.708032,8.131604,-0.0015342273,6.631389E-4,-6.893426E-4,3.0,6.1400943,-0.6663314,7.6174574,-0.3864777,0.042896602,-0.5177344,-0.31879127,-0.099949814,-0.8637008,2017-12-03 22:14:56,54.43866498000374
6.53016,-0.71162003,8.124428,-0.0015342198,6.5972656E-4,-6.970763E-4,3.0,6.140274,-0.66779274,7.617184,-0.38151392,0.045023236,-0.51083237,-0.31878147,-0.100050606,-0.8634944,2017-12-03 22:14:57,60.18547209038125
6.528964,-0.70085603,8.150741,9.255074E-4,6.8461895E-4,-7.046163E-4,3.0,6.143034,-0.6669968,7.6150274,-0.38593,0.033859234,-0.53571314,-0.3189926,-0.09992696,-0.86371213,2017-12-03 22:14:58,53.48670049962393
6.5313563,-0.725972,8.131604,-0.0015583597,-0.0017617419,-7.2758645E-4,3.0,6.14151,-0.6688481,7.6160955,-0.38266954,0.037987933,-0.5083324,-0.31893912,-0.09982539,-0.86370754,2017-12-03 22:14:59,53.55631169956639
6.526572,-0.712816,8.133996,-0.001561176,-0.004181236,0.0017225444,0.0,6.142431,-0.6670707,7.615509,-0.38294542,0.029001346,-0.51968265,-0.31905127,-0.09961662,-0.8640692,2017-12-03 22:15:00,57.38599612228316
6.5325522,-0.69966,8.117252,-0.0014975928,0.0031480268,0.0017407164,0.0,6.141568,-0.67101246,7.6158586,-0.39098436,0.023863545,-0.49302143,-0.3189984,-0.099696465,-0.86372954,2017-12-03 22:15:01,45.44088001565037
6.5253763,-0.702052,8.12084,9.697862E-4,-0.004167743,-6.539747E-4,3.0,6.140453,-0.67110276,7.6167493,-0.38492346,0.04769326,-0.5280109,-0.31910276,-0.09913294,-0.8643799,2017-12-03 22:15:02,60.80683468271437
6.533748,-0.70922804,8.129212,0.010778971,0.01042749,-6.612167E-4,3.0,6.143834,-0.66908085,7.6141987,-0.38393387,0.037755147,-0.523385,-0.31922776,-0.09938588,-0.8642313,2017-12-03 22:15:03,58.325484509640916
6.534944,-0.70922804,8.1399765,0.0010141358,6.763339E-4,-6.478131E-4,3.0,6.1400294,-0.6672836,7.617425,-0.3877385,0.031180443,-0.5165706,-0.3188273,-0.09984279,-0.86376923,2017-12-03 22:15:04,60.967677718458965
6.53614,-0.71162003,8.126821,-0.0014378726,7.038042E-4,-6.644428E-4,3.0,6.138995,-0.66379786,7.6185637,-0.3839888,0.039450187,-0.5166279,-0.31882304,-0.099565335,-0.8642992,2017-12-03 22:15:05,54.65967503567394
6.5253763,-0.70683604,8.1399765,-0.0014120974,-0.001723975,-6.689206E-4,3.0,6.139581,-0.6619012,7.6182547,-0.38579497,0.038954806,-0.512154,-0.3187473,-0.099886134,-0.8640398,2017-12-03 22:15:06,52.6860381109471
6.528964,-0.710424,8.124428,9.793937E-4,7.444024E-4,-6.982684E-4,3.0,6.1446776,-0.66455245,7.6139154,-0.38548225,0.053047553,-0.52247196,-0.31886902,-0.10060296,-0.8630732,2017-12-03 22:15:07,56.14683671724936
6.539728,-0.712816,8.123232,9.907857E-4,-0.0017418638,0.0041514486,3.0,6.143202,-0.66719055,7.6148753,-0.37739015,0.03725348,-0.51672906,-0.31887516,-0.10033973,-0.86321294,2017-12-03 22:15:08,48.35478375128203
6.526572,-0.716404,8.136388,0.0010177903,6.9464E-4,0.0016929358,3.0,6.140879,-0.66642874,7.6168137,-0.39047757,0.039211262,-0.5147908,-0.31880465,-0.10007074,-0.86355823,2017-12-03 22:15:10,56.28324742131124
6.5325522,-0.708032,8.135192,0.0010325536,-0.0017372742,-0.0031352043,3.0,6.145024,-0.6638737,7.6136947,-0.39470425,0.048942313,-0.5095371,-0.3190237,-0.10016729,-0.86363345,2017-12-03 22:15:11,56.300054182370296
6.5134163,-0.70683604,8.130408,0.0010339171,6.9671124E-4,0.0017466322,3.0,6.1421533,-0.66721725,7.6157193,-0.38561493,0.036030732,-0.5134931,-0.319121,-0.099338844,-0.8643855,2017-12-03 22:15:12,59.463054131537646
