ACC_X,ACC_Y,ACC_Z,GYRO_X,GYRO_Y,GYRO_Z,LIGH_1,GRAV_X,GRAV_Y,GRAV_Z,LINACC_X,LINACC_Y,LINACC_Z,ROTVEC_X,ROTVEC_Y,ROTVEC_Z,TIME,VOICE
0.0,0.0,0.0,0.0,0.0,0.0,105.0,0.0,0.0,0.0,0.0,0.0,0.0,0.0,0.0,0.0,2017-01-30 11:44:17,42.88577072959741
1.255249,1.2944794,9.610519,0.06618042,0.00725913,0.0885545,106.0,1.1123965,1.0406375,9.687623,-0.099814415,-0.29415646,0.08527764,-0.01310807,-0.07679119,-0.7938774,2017-01-30 11:44:18,50.50467153823778
1.0983429,1.2029419,9.675888,0.0,0.0,0.0,106.0,1.1408674,1.2800041,9.655589,-0.018011484,0.07815811,-0.014291223,-0.0044738096,-0.08748182,-0.77604973,2017-01-30 11:44:19,53.009440816823314
1.0460358,1.359848,9.571289,0.0,0.0,0.0,107.0,1.1314434,1.2237911,9.663982,0.09950174,0.09805867,0.033418234,-0.00482094,-0.085444205,-0.7688461,2017-01-30 11:44:20,54.83486475819241
0.94143677,1.255249,9.571289,0.0018268297,0.007150213,-0.0023565956,108.0,1.0689089,1.2073057,9.673171,0.09727193,-0.044018917,0.111975476,-0.0027625388,-0.082449496,-0.7678692,2017-01-30 11:44:21,59.241996015482805
1.8305664,3.3473358,9.152878,-0.14595191,-0.071942985,-0.25805777,129.0,1.1371112,0.87136924,9.701448,-1.7814411,0.76342154,1.8532618,-0.015467142,-0.072599955,-0.79011583,2017-01-30 11:44:22,50.49077332822628
5.3348236,-2.7197113,7.6884155,-0.40669936,-0.16514084,-0.51991403,176.0,2.3462486,-0.8106677,9.487271,-2.801835,1.6857729,1.807165,-0.12671229,-0.015091996,-0.8925582,2017-01-30 11:44:23,54.71621946388963
1.5167542,0.31381226,9.257477,-0.22546436,0.119952925,-0.54629534,117.0,3.9442067,-2.2251556,8.698408,2.856921,-2.546238,-0.68272907,-0.21702714,0.09697345,-0.96709985,2017-01-30 11:44:24,51.07610600651033
0.6276245,0.78453064,9.728195,0.14235522,0.2472229,-0.13329607,112.0,2.6630888,-0.68121463,9.413517,2.036553,-1.4439541,-0.20244886,0.13464268,-0.043767538,0.9879093,2017-01-30 11:44:25,61.058119645901954
0.6276245,0.83683777,9.728195,0.064485654,0.07200238,-0.005985977,113.0,1.1986294,0.41534826,9.724257,0.52778035,-0.36381894,0.07109033,0.06250651,0.017142123,0.9957309,2017-01-30 11:44:26,50.12105310949483
0.6276245,0.7322235,9.780502,0.0,0.0,0.0,112.0,0.7862031,0.7116,9.749149,0.15966707,-0.10562082,0.0787019,0.04227551,0.03383115,0.9966919,2017-01-30 11:44:27,51.48747475809454
0.6276245,0.78453064,9.728195,0.0,0.0,0.0,112.0,0.68848836,0.78031516,9.751282,0.021091316,0.058436707,0.039974026,0.03738549,0.037754074,0.99693525,2017-01-30 11:44:28,48.64465737709688
0.6276245,0.78453064,9.675888,0.0,0.0,0.0,112.0,0.65964544,0.77965903,9.753327,-0.0065829116,0.0039607203,0.09636911,0.03584057,0.03795934,0.99717885,2017-01-30 11:44:29,50.65966149562689
0.7453003,0.7453003,9.688965,0.0,0.0,0.0,110.0,0.6675755,0.7709307,9.753482,-0.06975798,0.076469705,0.110386826,0.036110032,0.037433203,0.9971249,2017-01-30 11:44:30,47.6304073493924
0.6276245,0.78453064,9.675888,0.0,0.0,0.0,113.0,0.6861676,0.7613441,9.752943,0.060105372,-0.015106903,0.09609229,0.037181776,0.03682075,0.9970213,2017-01-30 11:44:31,51.642403122682154
0.6276245,0.78453064,9.571289,0.0,0.0,0.0,118.0,0.66787547,0.7703321,9.753509,0.040147718,-0.004892838,0.19201665,0.036202263,0.03740177,0.997144,2017-01-30 11:44:32,52.13062970680333
0.6276245,0.83683777,9.728195,0.0,0.0,0.0,123.0,0.6522402,0.77996725,9.753801,0.011863508,-0.037732523,0.056165643,0.03540241,0.03796394,0.99719363,2017-01-30 11:44:33,47.97441535459046
0.6276245,0.78453064,9.571289,0.0,0.0,0.0,126.0,0.64513713,0.77583236,9.754602,0.018851792,-2.776609E-4,0.029638221,0.03494806,0.03787062,0.9973436,2017-01-30 11:44:34,51.55602203269001
0.66685486,0.7453003,9.571289,0.0,0.0,0.0,128.0,0.6405892,0.7761905,9.754874,-0.1222824,0.04099026,0.19337502,0.034700118,0.03789149,0.99735576,2017-01-30 11:44:35,56.38902675694063
0.67993164,0.7322235,9.728195,0.0,0.0,0.0,128.0,0.6512906,0.7567928,9.75569,0.0237637,-0.017749358,0.08516791,0.035171047,0.036947384,0.99734294,2017-01-30 11:44:36,51.1236013397819
0.67993164,0.78453064,9.728195,0.0,0.0,0.0,129.0,0.6590208,0.7382483,9.756591,0.087290265,-0.011766816,0.03170904,0.03551294,0.035899837,0.9974572,2017-01-30 11:44:37,48.90938086180404
0.66685486,0.7060852,9.64975,0.0,0.0,0.0,129.0,0.6640386,0.75707304,9.754808,-0.112321205,0.062435355,0.057121664,0.035749603,0.036948286,0.99748445,2017-01-30 11:44:38,51.12471363584578
0.5753174,0.78453064,9.623596,0.0,0.0,0.0,128.0,0.7033676,0.7352257,9.753723,0.04902689,-0.040331855,0.06963635,0.037826184,0.035619453,0.9972405,2017-01-30 11:44:39,49.108948960361076
0.67993164,0.78453064,9.675888,0.0,0.0,0.0,129.0,0.6741634,0.7532419,9.754411,0.047627416,0.017743176,0.029482765,0.036111396,0.03685206,0.99748594,2017-01-30 11:44:40,52.26342586834103
0.67993164,0.88912964,9.675888,0.0,0.0,0.0,129.0,0.65492135,0.7761645,9.753924,-0.012761126,-0.02676814,0.083443746,0.035316072,0.03796132,0.99748373,2017-01-30 11:44:41,53.7142180660991
0.6276245,0.7322235,9.728195,0.0,0.0,0.0,129.0,0.65049154,0.7839336,9.7536,0.024069987,0.008019485,0.01500699,0.035164326,0.038347524,0.9974135,2017-01-30 11:44:42,49.85814154151352
0.6276245,0.78453064,9.728195,0.0,0.0,0.0,129.0,0.6530215,0.780522,9.753704,-0.05523654,0.0041621597,0.09687788,0.035280135,0.038142323,0.9974215,2017-01-30 11:44:43,52.5454309625802
0.7060852,0.7453003,9.64975,0.0,0.0,0.0,129.0,0.64671123,0.78413266,9.753835,-0.047926486,0.04863388,0.02890666,0.034979764,0.038331002,0.99740124,2017-01-30 11:44:44,47.18037148153107
0.6276245,0.78453064,9.780502,0.0,0.0,0.0,129.0,0.6708124,0.7657206,9.753671,0.10013068,0.042876005,0.028723769,0.03633553,0.037161622,0.99715304,2017-01-30 11:44:45,46.63132720880013
0.67993164,0.78453064,9.675888,0.0,0.0,0.0,128.0,0.665678,0.760331,9.754443,-0.058303434,-0.014592732,0.043167125,0.036042973,0.0369152,0.997195,2017-01-30 11:44:46,51.82504424159121
0.6276245,0.7322235,9.675888,0.0,0.0,0.0,128.0,0.6445372,0.77387637,9.754797,-0.022691142,-0.0029700468,0.029897595,0.034849893,0.037786722,0.99742556,2017-01-30 11:44:47,47.72854687847844
0.7322235,0.78453064,9.728195,0.0,0.0,0.0,129.0,0.64342475,0.7785767,9.754498,0.016888786,0.0022168707,0.08405061,0.034720745,0.038125407,0.9975167,2017-01-30 11:44:48,50.453889188054895
0.7453003,0.86299133,9.688965,0.0,0.0,0.0,128.0,0.6597819,0.7788708,9.753381,-0.007615151,-0.06559074,0.02845276,0.03572133,0.03794695,0.99727106,2017-01-30 11:44:49,55.146245256023576
0.6276245,0.7322235,9.728195,0.0,0.0,0.0,128.0,0.68731636,0.78474885,9.751008,0.060629886,0.104201965,0.02605274,0.037283767,0.038038027,0.99701077,2017-01-30 11:44:50,52.82704537042811
0.6276245,0.78453064,9.728195,0.0,0.0,0.0,128.0,0.65610677,0.78681284,9.752991,0.015950434,0.051314063,0.08254426,0.03549251,0.03842045,0.9973456,2017-01-30 11:44:51,55.818670688962946
0.66685486,0.7060852,9.64975,0.0,0.0,0.0,128.0,0.6519895,0.7713581,9.754502,-0.06988887,-0.005001741,0.056814905,0.035314843,0.0376542,0.9974387,2017-01-30 11:44:52,53.43352887778682
0.6276245,0.78453064,9.675888,0.0,0.0,0.0,129.0,0.68943334,0.7658456,9.75236,0.061775964,-0.010329411,0.15008153,0.03723789,0.037121512,0.9971093,2017-01-30 11:44:53,52.455706444166225
0.6276245,0.78453064,9.728195,0.0,0.0,0.0,128.0,0.6767798,0.7734371,9.752648,0.047725096,-0.0021085914,0.08231232,0.036732275,0.037470825,0.99702334,2017-01-30 11:44:54,47.363099086721945
0.7453003,0.7060852,9.64975,0.0,0.0,0.0,128.0,0.63965744,0.7756956,9.754974,-0.05301858,0.08121944,0.11162633,0.034837727,0.037792806,0.99723554,2017-01-30 11:44:55,53.02193843680279
0.7322235,0.83683777,9.623596,0.0,0.0,0.0,128.0,0.6434804,0.7550997,9.756339,0.01598483,-0.03374754,0.045006003,0.03481064,0.03680541,0.9972992,2017-01-30 11:44:56,56.87622662736381
0.6276245,0.78453064,9.623596,0.0,0.0,0.0,128.0,0.66212445,0.7484787,9.755601,0.035621077,-0.027762193,0.112385325,0.03583457,0.036313195,0.9972146,2017-01-30 11:44:57,47.54824123964319
0.6276245,0.78453064,9.675888,0.0,0.0,0.0,128.0,0.6562168,0.7634655,9.75484,0.029680828,-0.012894292,0.029911727,0.035462957,0.037196897,0.9973136,2017-01-30 11:44:58,53.0786686170876
0.67993164,0.7322235,9.728195,0.0,0.0,0.0,128.0,0.6524747,0.7786371,9.753892,-0.014988077,0.044203676,0.028883383,0.035343606,0.037957877,0.9972897,2017-01-30 11:44:59,55.98765403515728
0.6276245,0.78453064,9.728195,0.0,0.0,0.0,129.0,0.65534526,0.7881696,9.7529335,0.015016757,0.011996727,0.055242047,0.03552553,0.038428627,0.9972526,2017-01-30 11:45:00,54.14253425263393
0.67993164,0.67993164,9.728195,0.0,0.0,0.0,129.0,0.64515424,0.78255,9.754065,-0.04986491,0.08737464,0.029205935,0.035083726,0.03808207,0.9971494,2017-01-30 11:45:01,54.08723378923664
0.5753174,0.78453064,9.623596,0.0,0.0,0.0,129.0,0.6498116,0.77458274,9.754392,0.023275612,-0.0017770506,0.19290783,0.03536659,0.037598602,0.9970568,2017-01-30 11:45:02,47.94781841065702
0.6276245,0.7322235,9.728195,0.0,0.0,0.0,128.0,0.64746624,0.7779872,9.754276,0.021466399,0.0150030935,0.09743404,0.035279576,0.037768845,0.9970596,2017-01-30 11:45:03,53.24581399384492
0.67993164,0.78453064,9.728195,0.0,0.0,0.0,129.0,0.6467647,0.7759771,9.754484,0.020228717,-0.04124376,0.1385187,0.035263855,0.037632912,0.9969851,2017-01-30 11:45:04,57.41124372079253
0.6276245,0.78453064,9.675888,0.0,0.0,0.0,129.0,0.6516246,0.780911,9.753766,-0.02922038,0.058221966,0.028890865,0.035441183,0.03791498,0.99710613,2017-01-30 11:45:05,47.117392466201544
0.6276245,0.67993164,9.675888,0.0,0.0,0.0,128.0,0.6450777,0.78669596,9.7537365,0.019401502,-0.08538192,0.13774474,0.035124045,0.038282037,0.9971554,2017-01-30 11:45:06,48.12597564056545
0.7322235,0.7322235,9.623596,0.0,0.0,0.0,129.0,0.6398486,0.78267825,9.754404,-0.041168787,0.04717944,0.0839575,0.03483388,0.038084347,0.99712825,2017-01-30 11:45:07,49.807940876435936
0.78453064,0.7453003,9.688965,0.0,0.0,0.0,129.0,0.6599844,0.76663375,9.754337,0.0047188844,-0.04999522,0.124804415,0.03581402,0.03717329,0.99701667,2017-01-30 11:45:08,49.44002338488099
0.5753174,0.7322235,9.623596,0.0,0.0,0.0,129.0,0.6702267,0.7724952,9.753175,0.0444671,-0.018715248,0.12363475,0.036399055,0.037407294,0.99708575,2017-01-30 11:45:09,49.30791281199244
0.6276245,0.78453064,9.571289,0.0,0.0,0.0,129.0,0.6556336,0.78485656,9.753181,0.029097656,0.06297821,0.13721602,0.03553358,0.038236674,0.9972155,2017-01-30 11:45:10,50.198267817567846
0.7322235,0.7322235,9.728195,0.0,0.0,0.0,129.0,0.64988244,0.7852329,9.753535,-0.017514562,0.022493443,0.08308877,0.03540167,0.038142208,0.99703526,2017-01-30 11:45:11,54.32600607613957
0.6276245,0.78453064,9.675888,0.0,0.0,0.0,129.0,0.65110064,0.78230345,9.75369,-0.016373783,0.006123503,-0.012109008,0.035571866,0.037886184,0.99685436,2017-01-30 11:45:12,50.348731106866865
0.7322235,0.78453064,9.623596,0.0,0.0,0.0,129.0,0.6422526,0.78573287,9.754,-0.024666147,-0.04596566,0.04272985,0.035061482,0.03812055,0.99700946,2017-01-30 11:45:13,49.2224070858743
0.7060852,0.7453003,9.767426,0.0,0.0,0.0,129.0,0.64146966,0.79097503,9.753629,-0.07894802,0.054379553,0.06955405,0.034959134,0.038486727,0.9970819,2017-01-30 11:45:14,49.114954376830546
0.6276245,0.83683777,9.623596,0.0,0.0,0.0,129.0,0.6577408,0.76464516,9.754644,0.031204794,-0.01171465,0.19316055,0.035656806,0.037150532,0.99719036,2017-01-30 11:45:15,49.81893846474051
0.67993164,0.78453064,9.728195,0.0,0.0,0.0,129.0,0.6499412,0.772048,9.754583,-0.017455798,-0.058793135,0.08413707,0.035280988,0.03760119,0.9971313,2017-01-30 11:45:16,52.16010373255067
0.6276245,0.7322235,9.728195,0.0,0.0,0.0,129.0,0.6513446,0.7854239,9.753423,0.024563741,0.06452525,0.069293015,0.0355627,0.038109712,0.99688584,2017-01-30 11:45:17,50.73299401186305
0.67993164,0.78453064,9.571289,0.0,0.0,0.0,129.0,0.64234024,0.77486104,9.754865,0.016950512,-0.055766296,0.02984439,0.035128172,0.037564296,0.99693906,2017-01-30 11:45:18,47.812618695311016
0.6276245,0.7060852,9.571289,0.0,0.0,0.0,129.0,0.64763916,0.77513283,9.754492,-0.06356423,0.027206767,0.17948864,0.035227496,0.037592877,0.9968812,2017-01-30 11:45:19,49.60895246890428
0.67993164,0.78453064,9.728195,0.0,0.0,0.0,129.0,0.67902994,0.7584598,9.75367,0.05241296,-0.017185256,0.028690519,0.037140448,0.03639311,0.99648005,2017-01-30 11:45:20,49.4708764347933
0.6276245,0.78453064,9.623596,0.0,0.0,0.0,129.0,0.65865237,0.77081245,9.754097,0.030751204,-0.0046471828,0.08367153,0.036099672,0.03709813,0.99657226,2017-01-30 11:45:21,50.0734904290308
0.7322235,0.94143677,9.675888,0.0,0.0,0.0,129.0,0.65438247,0.7782308,9.753796,0.027846519,0.0018709897,0.16507107,0.03593572,0.03749466,0.996535,2017-01-30 11:45:22,53.13706036376365
0.6276245,0.83683777,9.675888,0.0,0.0,0.0,129.0,0.65160596,0.80323404,9.751954,0.025332192,0.026055805,0.027076093,0.03583069,0.038759958,0.99656785,2017-01-30 11:45:23,47.95183817573659
0.6276245,0.78453064,9.728195,0.0,0.0,0.0,129.0,0.6393983,0.79389566,9.753527,0.012862287,0.017535813,-0.012261971,0.035074655,0.03844869,0.9967557,2017-01-30 11:45:24,50.046034459191816
0.67993164,0.7322235,9.675888,0.0,0.0,0.0,129.0,0.6345021,0.7850137,9.754566,0.062251844,0.048585355,0.0842069,0.034755215,0.037989423,0.99682975,2017-01-30 11:45:25,51.29366688926767
0.6276245,0.7322235,9.675888,0.0,0.0,0.0,129.0,0.6398706,0.7954139,9.753372,-0.06870896,0.01821817,0.110256314,0.035068274,0.038497858,0.9967799,2017-01-30 11:45:26,51.10704144652729
0.7060852,0.9022064,9.610519,0.0,0.0,0.0,129.0,0.6426311,0.79688585,9.753071,-0.09335864,0.061355833,0.028178424,0.035233296,0.038582806,0.99673015,2017-01-30 11:45:27,52.846130076182796
0.6276245,0.78453064,9.728195,0.0,0.0,0.0,129.0,0.6634929,0.79187596,9.752081,0.038606763,0.015093447,0.027076093,0.036400676,0.038173415,0.99654955,2017-01-30 11:45:28,56.12824538475331
0.6276245,0.78453064,9.571289,0.0,0.0,0.0,129.0,0.6703628,0.7889836,9.751846,-0.03700356,0.012854962,0.026839167,0.036839064,0.03796292,0.996454,2017-01-30 11:45:29,53.40714318350052
0.7453003,0.66685486,9.64975,0.0,0.0,0.0,129.0,0.6548192,0.78010297,9.753616,-0.039818514,0.11270595,0.08317024,0.03589846,0.03759431,0.9967082,2017-01-30 11:45:30,48.45680650615996
0.6276245,0.88912964,9.728195,0.0,0.0,0.0,129.0,0.6693554,0.7642027,9.753889,0.042819425,0.055944618,0.028961528,0.036620647,0.03672227,0.9966022,2017-01-30 11:45:31,49.44039762117008
0.6276245,0.83683777,9.728195,0.0,0.0,0.0,129.0,0.6565891,0.77049917,9.754262,0.028230174,-0.005087523,0.13835825,0.035889946,0.037188858,0.99675226,2017-01-30 11:45:32,50.30977143428843
0.6276245,0.78453064,9.728195,0.0,0.0,0.0,129.0,0.6368413,0.7852574,9.754394,0.011012444,0.007990336,0.029492741,0.034913197,0.038000695,0.9968368,2017-01-30 11:45:33,45.29748655343837
0.7322235,0.78453064,9.623596,0.0,0.0,0.0,129.0,0.63293934,0.80193365,9.753291,-0.11671385,0.06596166,0.028436134,0.034689847,0.03890302,0.99683326,2017-01-30 11:45:35,34.73584356069105
0.67993164,0.83683777,9.728195,0.0,0.0,0.0,129.0,0.6417723,0.80144495,9.752754,0.05609737,0.025085134,0.055066638,0.035307556,0.038747136,0.99659497,2017-01-30 11:45:36,43.96202290346559
0.823761,0.7453003,9.64975,0.0,0.0,0.0,129.0,0.64850724,0.7980634,9.752585,-0.10061186,0.03532398,0.041278366,0.035631612,0.038560696,0.99660426,2017-01-30 11:45:37,51.42805882486098
0.67993164,0.78453064,9.675888,0.0,0.0,0.0,128.0,0.69932914,0.778218,9.750677,-0.006804874,5.9174397E-4,0.09379951,0.038285017,0.03725715,0.9963352,2017-01-30 11:45:38,49.576061498486894
0.67993164,0.78453064,9.675888,0.0,0.0,0.0,128.0,0.68336654,0.76896644,9.752543,0.056830596,0.01984735,0.027615622,0.03711284,0.03699928,0.99663544,2017-01-30 11:45:39,49.15164418636853
0.7453003,0.7060852,9.728195,0.0,0.0,0.0,129.0,0.6457678,0.7808729,9.754159,-0.04795007,0.04496813,0.042822957,0.035271063,0.037864603,0.99697995,2017-01-30 11:45:40,50.01754441603022
0.6276245,0.78453064,9.675888,0.0,0.0,0.0,130.0,0.65384495,0.76973,9.754506,0.013066533,-0.004923493,0.043105606,0.03555736,0.037403587,0.9970177,2017-01-30 11:45:41,47.84888229876888
0.67993164,0.78453064,9.728195,0.0,0.0,0.0,130.0,0.6490765,0.7639528,9.755279,0.023670591,0.09662693,0.030270025,0.035354502,0.037059356,0.9970787,2017-01-30 11:45:42,45.422305091019375
0.6276245,0.88912964,9.728195,0.0,0.0,0.0,129.0,0.64071864,0.770207,9.75534,0.014182631,-0.07425454,0.03041135,0.03485439,0.037433743,0.99713373,2017-01-30 11:45:43,44.76716176738538
0.7060852,0.7453003,9.728195,0.0,0.0,0.0,129.0,0.6565249,0.7693774,9.754355,0.028523631,0.07629003,0.029402958,0.035864864,0.03716577,0.99666744,2017-01-30 11:45:44,47.8643525495618
0.6276245,0.78453064,9.675888,0.0,0.0,0.0,130.0,0.66232693,0.7540969,9.755156,0.022927234,0.019447746,-0.010751462,0.03626251,0.03628396,0.9966134,2017-01-30 11:45:45,49.578016765186035
0.66685486,0.78453064,9.64975,0.0,0.0,0.0,130.0,0.63983333,0.76459044,9.755839,-0.055705663,0.0025621282,0.09901687,0.034819968,0.03712409,0.9971056,2017-01-30 11:45:46,50.371535524856775
0.6276245,0.78453064,9.623596,0.0,0.0,0.0,130.0,0.64215446,0.76553863,9.755613,0.07009987,-0.051682234,0.12602729,0.03484891,0.03725247,0.99723685,2017-01-30 11:45:47,45.40686709475328
0.67993164,0.78453064,9.728195,0.0,0.0,0.0,130.0,0.64100736,0.7708879,9.755267,-0.026676644,-0.004498584,0.05752153,0.034846004,0.037491105,0.9971691,2017-01-30 11:45:48,48.43285708406698
0.6276245,0.78453064,9.623596,0.0,0.0,0.0,130.0,0.63961416,0.7870185,9.754069,0.013078223,0.0106586665,0.042762272,0.03500074,0.03815477,0.9968694,2017-01-30 11:45:49,48.33963903905112
0.823761,0.7060852,9.767426,0.0,0.0,0.0,130.0,0.6276301,0.7829134,9.755179,-0.025571767,0.02228878,0.19348808,0.034459665,0.038044546,0.9968173,2017-01-30 11:45:50,49.29726702678022
0.6276245,0.78453064,9.728195,0.0,0.0,0.0,130.0,0.6478647,0.7501076,9.756434,0.022862392,-0.027625076,0.031509522,0.035321705,0.036231272,0.9969041,2017-01-30 11:45:51,49.999801916483875
0.6276245,0.78453064,9.675888,0.0,0.0,0.0,130.0,0.6549379,0.7642162,9.754868,0.057369083,-0.014173695,0.098083295,0.03582902,0.03680138,0.99683195,2017-01-30 11:45:52,48.344484721266035
0.7453003,0.7453003,9.64975,0.0,0.0,0.0,130.0,0.64746594,0.77362084,9.754623,-0.0594173,0.036852106,0.17952855,0.035438478,0.037372682,0.99675506,2017-01-30 11:45:53,45.41183690532235
0.67993164,0.78453064,9.675888,0.0,0.0,0.0,130.0,0.66568375,0.75217843,9.7550745,0.03841904,-0.023263399,0.030126207,0.036367606,0.036167618,0.9965856,2017-01-30 11:45:54,47.9873210038638
0.6276245,0.78453064,9.728195,0.0,0.0,0.0,130.0,0.65521306,0.7596317,9.755206,0.027516175,-0.0015044815,0.09833269,0.03576141,0.036661256,0.9968152,2017-01-30 11:45:55,46.949317840027845
0.6276245,0.78453064,9.728195,0.0,0.0,0.0,130.0,0.6423903,0.77653944,9.754728,0.08395605,1.7966903E-4,-0.051921755,0.034928087,0.03778026,0.9971623,2017-01-30 11:45:56,46.59134961585751
0.67993164,0.78453064,9.623596,0.0,0.0,0.0,130.0,0.63928246,0.7824313,9.754461,-0.041734915,0.006071494,0.084014036,0.03467826,0.038185645,0.9973324,2017-01-30 11:45:57,50.88959005656839
0.7060852,0.66685486,9.64975,0.0,0.0,0.0,130.0,0.6551418,0.7777365,9.753784,-0.12371497,0.123932935,0.23333074,0.03549447,0.037774622,0.99708444,2017-01-30 11:45:58,49.4495273114604
0.6276245,0.78453064,9.780502,0.0,0.0,0.0,130.0,0.690026,0.75302994,9.753318,0.035467073,-0.021980517,0.0283397,0.037398174,0.036374398,0.99690264,2017-01-30 11:45:59,47.67967773274121
0.7322235,0.7322235,9.675888,0.0,0.0,0.0,130.0,0.67881805,0.746328,9.754619,0.025041386,-0.0300318,0.029690593,0.03677424,0.036062676,0.9970448,2017-01-30 11:46:00,50.873684321897635
0.6276245,0.83683777,9.728195,0.0,0.0,0.0,130.0,0.65819013,0.7742906,9.753854,0.032421272,0.03821864,-0.011942744,0.03583357,0.03752582,0.99703866,2017-01-30 11:46:01,54.26547585752691
0.6276245,0.78453064,9.780502,0.0,0.0,0.0,130.0,0.6429626,0.7771233,9.754643,0.017357182,6.1870995E-4,0.097768225,0.035036482,0.03777032,0.99711436,2017-01-30 11:46:02,51.332403880077486
0.6276245,0.7322235,9.728195,0.0,0.0,0.0,130.0,0.6348747,0.77833873,9.755076,0.008803211,0.09780584,0.030079653,0.034552716,0.037936356,0.9972014,2017-01-30 11:46:03,46.19380851127189
0.66685486,0.7060852,9.64975,0.0,0.0,0.0,130.0,0.6323866,0.7440311,9.757915,-0.090163,0.024749905,0.14179493,0.034239467,0.036337234,0.9973258,2017-01-30 11:46:04,45.89992006464803
0.6276245,0.78453064,9.728195,0.0,0.0,0.0,130.0,0.6523666,0.73266166,9.75746,0.025110748,-0.07216295,0.03267171,0.035285518,0.03543775,0.99721247,2017-01-30 11:46:05,42.935625617612
0.6276245,0.78453064,9.728195,0.0,0.0,0.0,130.0,0.6500958,0.7598483,9.755531,-0.0030602969,-0.018597096,0.12606719,0.035337374,0.036761947,0.997128,2017-01-30 11:46:06,46.74486997442418
0.5753174,0.78453064,9.728195,0.0,0.0,0.0,130.0,0.6414713,0.7842781,9.7541685,-0.011787599,0.0072418367,0.08374302,0.034873545,0.038191654,0.99722594,2017-01-30 11:46:07,47.71261350548308
0.6276245,0.78453064,9.675888,0.0,0.0,0.0,130.0,0.6334272,0.77813184,9.755187,0.0076143723,0.056630872,0.030181905,0.034491777,0.037922975,0.99720305,2017-01-30 11:46:08,44.3482858477767
0.6276245,0.78453064,9.623596,0.0,0.0,0.0,130.0,0.6331843,0.7797462,9.755074,0.006338244,0.0023084718,0.16645604,0.03453248,0.037838653,0.9970496,2017-01-30 11:46:09,38.76786865545747
0.67993164,0.78453064,9.623596,0.0,0.0,0.0,130.0,0.6352708,0.7863272,9.75441,-0.07288936,0.010300523,0.19289286,0.034753293,0.038154036,0.99691486,2017-01-30 11:46:10,44.48209388675479
0.6276245,0.83683777,9.675888,0.0,0.0,0.0,130.0,0.6384811,0.78727436,9.754124,0.011945082,0.051775597,0.08367735,0.034836784,0.038268853,0.9970341,2017-01-30 11:46:11,44.66324644564977
0.6276245,0.78453064,9.728195,0.0,0.0,0.0,130.0,0.6267249,0.7805285,9.755428,0.02602281,0.0042383815,0.030585095,0.034116257,0.038048364,0.99721456,2017-01-30 11:46:12,43.40864138672956
0.67993164,0.78453064,9.623596,0.0,0.0,0.0,130.0,0.6190668,0.78807646,9.75531,-0.0074692545,0.011716677,0.08486364,0.03369717,0.03849811,0.9972809,2017-01-30 11:46:13,47.158749937831665
0.6276245,0.78453064,9.623596,0.0,0.0,0.0,130.0,0.63275,0.79055285,9.754233,0.005520017,0.014262387,0.11106602,0.034463033,0.038508173,0.99711955,2017-01-30 11:46:14,47.88860241817421
0.5753174,0.78453064,9.728195,0.0,0.0,0.0,130.0,0.64124924,0.7940606,9.753391,0.014713326,-0.023160107,-0.039637342,0.035075404,0.038537387,0.99689955,2017-01-30 11:46:15,46.37401222987109
0.67993164,0.83683777,9.623596,0.0,0.0,0.0,130.0,0.6243825,0.794433,9.7544565,-0.0021534825,0.018073209,0.11125057,0.034019746,0.038713682,0.99712783,2017-01-30 11:46:16,44.9588672543492
0.66685486,0.823761,9.532059,0.0,0.0,0.0,130.0,0.63265693,0.77016693,9.755869,-0.06562814,-0.05893129,0.15362212,0.03423382,0.03757891,0.99719113,2017-01-30 11:46:17,44.96788462131035
0.6276245,0.88912964,9.675888,0.0,0.0,0.0,130.0,0.6728709,0.7588103,9.754068,0.044767417,-0.153886,-0.038843427,0.036541518,0.03660103,0.99685186,2017-01-30 11:46:18,46.084302021049126
0.67993164,0.83683777,9.571289,0.0,0.0,0.0,130.0,0.6672738,0.78156114,9.752656,-1.2319125E-4,0.08692339,0.19117203,0.036478024,0.037701145,0.99664134,2017-01-30 11:46:19,42.76749335713755
0.6276245,0.78453064,9.728195,0.0,0.0,0.0,130.0,0.6613803,0.7746705,9.753607,0.13018675,-0.0016892944,0.055919573,0.03617709,0.03735866,0.996687,2017-01-30 11:46:20,43.836593475019825
0.67993164,0.7322235,9.728195,0.0,0.0,0.0,130.0,0.6481855,0.76170325,9.755515,0.076130934,-0.014656535,-0.0102742845,0.035314873,0.036781922,0.99686176,2017-01-30 11:46:21,43.76689165713526
0.7453003,0.7453003,9.610519,0.0,0.0,0.0,130.0,0.63595366,0.76783735,9.755839,-0.031151898,-0.009900399,0.19444409,0.0346513,0.037221372,0.9970942,2017-01-30 11:46:22,44.79154842758834
0.67993164,0.83683777,9.571289,0.0,0.0,0.0,130.0,0.65931225,0.77536196,9.753693,0.019155951,0.012622555,0.096866235,0.036006395,0.03746531,0.9968001,2017-01-30 11:46:23,49.356186119352046
0.6276245,0.78453064,9.780502,0.0,0.0,0.0,130.0,0.68101674,0.76930183,9.752681,0.1498232,0.00656244,0.082234174,0.037266325,0.036917523,0.99648184,2017-01-30 11:46:24,39.6526830459951
0.7060852,0.7060852,9.64975,0.0,0.0,0.0,130.0,0.6614209,0.7698993,9.753983,-0.00619614,0.07333916,0.042840414,0.036175705,0.03710324,0.9966761,2017-01-30 11:46:25,35.33782381967884
0.67993164,0.78453064,9.728195,0.0,0.0,0.0,130.0,0.66250896,0.7457444,9.755785,0.035972986,0.010245656,0.030856937,0.036149386,0.03586977,0.99672633,2017-01-30 11:46:26,45.53855484312698
0.7453003,0.7453003,9.688965,0.0,0.0,0.0,130.0,0.6492514,0.75743103,9.755776,-0.04538628,0.035552647,0.09894953,0.035386782,0.03667911,0.9968634,2017-01-30 11:46:27,48.65780449586139
0.66685486,0.7453003,9.532059,0.0,0.0,0.0,130.0,0.65811396,0.7700648,9.754193,-0.02290344,0.06180672,0.056505654,0.036085412,0.037088964,0.99668276,2017-01-30 11:46:28,46.072940262824076
0.6276245,0.78453064,9.675888,0.0,0.0,0.0,130.0,0.6740199,0.7578971,9.75406,0.04748391,-0.018462734,0.09723285,0.036872946,0.03626471,0.9964381,2017-01-30 11:46:29,47.16667392386556
0.6276245,0.83683777,9.571289,0.0,0.0,0.0,130.0,0.6475611,0.7675788,9.7550955,0.022998106,-0.065088205,0.12552184,0.035663415,0.03682503,0.99651676,2017-01-30 11:46:30,49.20017390474192
0.6276245,0.78453064,9.623596,0.0,0.0,0.0,130.0,0.63702023,0.79974884,9.753204,0.010484245,0.023389032,0.17810033,0.035084184,0.038653314,0.9965655,2017-01-30 11:46:31,47.09582514529278
0.6276245,0.78453064,9.728195,0.0,0.0,0.0,130.0,0.64786667,0.7821364,9.753918,-0.02115216,-0.03354688,0.056214694,0.035520125,0.037785087,0.99655014,2017-01-30 11:46:32,40.02797126095993
0.5230255,0.83683777,9.728195,0.0,0.0,0.0,130.0,0.6638961,0.7764974,9.753292,0.03647661,-0.041819815,0.13747373,0.0363792,0.037277505,0.9964828,2017-01-30 11:46:33,41.798054235523445
0.6276245,0.78453064,9.780502,0.0,0.0,0.0,130.0,0.65157676,0.79049194,9.752997,0.026027383,-0.04002588,0.027977245,0.035821997,0.03817089,0.9965999,2017-01-30 11:46:34,50.48896320846048
0.67993164,0.78453064,9.728195,0.0,0.0,0.0,130.0,0.6434124,0.7838649,9.754075,0.01687642,0.061986495,0.029146912,0.03518874,0.037978686,0.99686307,2017-01-30 11:46:35,45.22124610328063
0.6276245,0.7322235,9.571289,0.0,0.0,0.0,130.0,0.6341279,0.77261114,9.75558,0.008410153,-0.09886447,0.18040392,0.034770336,0.03739658,0.9968218,2017-01-30 11:46:36,41.9247689328677
0.67993164,0.7322235,9.675888,0.0,0.0,0.0,130.0,0.63634133,0.7766479,9.755116,-0.09891706,0.042009823,0.08458432,0.034922596,0.037522733,0.9966981,2017-01-30 11:46:37,49.896488561333086
0.6276245,0.78453064,9.728195,0.0,0.0,0.0,130.0,0.6344073,0.77816486,9.755121,0.06346194,-0.05281932,0.17995584,0.03482406,0.037651956,0.9967974,2017-01-30 11:46:38,50.34922128906419
0.6276245,0.78453064,9.675888,0.0,0.0,0.0,130.0,0.6285011,0.79074216,9.754492,0.0019980776,-0.09671188,0.17955765,0.034489073,0.038225327,0.9968076,2017-01-30 11:46:39,49.03456149805476
0.6276245,0.78453064,9.623596,0.0,0.0,0.0,130.0,0.63484406,0.8193141,9.751722,0.008130102,0.08360404,0.08130559,0.034959383,0.03971014,0.9966401,2017-01-30 11:46:40,47.282597719519444
0.6276245,0.88912964,9.675888,0.0,0.0,0.0,130.0,0.63356656,0.8032811,9.7531395,0.006595901,-0.012917414,-0.012705896,0.03481386,0.038976442,0.99670404,2017-01-30 11:46:41,48.13952217105709
0.5753174,0.67993164,9.675888,0.0,0.0,0.0,130.0,0.64731634,0.79786134,9.752682,0.020329412,0.021219963,0.027805993,0.035533443,0.03855304,0.996629,2017-01-30 11:46:42,46.08190890495635
0.7060852,0.7453003,9.610519,0.0,0.0,0.0,130.0,0.63582736,0.7911257,9.753986,-0.112183265,0.0833761,-0.06639836,0.03488025,0.038396794,0.99686164,2017-01-30 11:46:43,49.197730449297666
0.6276245,0.78453064,9.728195,0.0,0.0,0.0,130.0,0.64542174,0.76685876,9.755294,0.020484453,-0.010899905,0.030369783,0.035310596,0.03703561,0.996775,2017-01-30 11:46:44,41.51153482383779
0.6276245,0.78453064,9.623596,0.0,0.0,0.0,130.0,0.65691066,0.7570279,9.755295,-0.009976568,-0.021024084,0.12580615,0.036026843,0.036270574,0.99652946,2017-01-30 11:46:45,51.03549358727173
0.66685486,0.7453003,9.64975,-0.0015012132,-0.0014289833,0.0010273266,130.0,0.6550347,0.7702279,9.754387,-0.08046404,0.08921051,0.15204178,0.035968788,0.037026033,0.9964816,2017-01-30 11:46:46,50.65299315474631
0.6276245,0.78453064,9.832794,0.0,0.0,0.0,130.0,0.6735732,0.7538496,9.754405,0.006168395,-0.022697011,0.11121316,0.036838025,0.036138743,0.99651664,2017-01-30 11:46:47,51.08244374331342
0.6276245,0.78453064,9.675888,0.0,0.0,0.0,130.0,0.6511694,0.76995546,9.754668,0.02642174,-0.007246201,0.09778818,0.035731588,0.037099164,0.9967086,2017-01-30 11:46:48,53.946346605134615
0.7453003,0.66685486,9.728195,0.0,0.0,0.0,130.0,0.6544642,0.77167046,9.754312,-0.11040388,0.13210091,0.16568375,0.035692003,0.037278924,0.99673367,2017-01-30 11:46:49,52.03031862332951
0.6276245,0.78453064,9.675888,0.0,0.0,0.0,130.0,0.6916671,0.7617151,9.752526,0.051510774,-0.05550573,0.08207955,0.037812952,0.036518622,0.99655306,2017-01-30 11:46:50,53.977416346548
0.6276245,0.78453064,9.728195,0.0,0.0,0.0,130.0,0.67485124,0.77666074,9.752525,0.050750997,-0.001150547,0.027544957,0.037031252,0.03729582,0.99658906,2017-01-30 11:46:51,43.72136573930837
0.6276245,0.78453064,9.675888,0.0,0.0,0.0,130.0,0.6444876,0.78727716,9.753729,0.0187007,0.010831788,0.110479936,0.035469186,0.03797854,0.99656415,2017-01-30 11:46:52,44.074518798946734
0.6276245,0.83683777,9.728195,0.0,0.0,0.0,130.0,0.6392576,0.78484005,9.75427,0.012721638,0.008480243,0.02934144,0.035162464,0.03792014,0.99655616,2017-01-30 11:46:53,52.436939582192224
0.7453003,0.66685486,9.532059,0.0,0.0,0.0,130.0,0.63762814,0.79423064,9.753616,0.011092148,0.072352275,0.028688023,0.035091676,0.038374316,0.99658436,2017-01-30 11:46:54,50.28423959495866
0.5753174,0.83683777,9.832794,0.0,0.0,0.0,130.0,0.6484076,0.76473,9.755262,0.008251267,0.02923124,0.030334035,0.03559211,0.03668346,0.996604,2017-01-30 11:46:55,46.531810112032076
0.6276245,0.7322235,9.675888,0.0,0.0,0.0,130.0,0.6537136,0.7627306,9.755066,-0.05399413,-0.056059185,0.1391846,0.035889234,0.036574893,0.9965173,2017-01-30 11:46:56,47.62393007036779
0.7060852,0.78453064,9.767426,0.0,0.0,0.0,130.0,0.64591324,0.7763025,9.754514,-0.007863404,-5.7309127E-5,0.11130793,0.03559967,0.037365492,0.99642986,2017-01-30 11:46:57,47.96708631106934
0.6276245,0.67993164,9.728195,0.0,0.0,0.0,130.0,0.66023064,0.7801686,9.753247,-0.048830807,-0.07834672,0.0011671734,0.036291327,0.03743289,0.99633753,2017-01-30 11:46:58,48.83205133096762
0.67993164,0.78453064,9.728195,0.0,0.0,0.0,130.0,0.66201043,0.79326004,9.75207,0.035474453,-0.023960827,0.0271426,0.03647526,0.03811002,0.99629766,2017-01-30 11:46:59,49.01384735078514
0.67993164,0.67993164,9.780502,0.0,0.0,0.0,130.0,0.6468395,0.79583454,9.752878,0.020303536,0.06033575,0.096051544,0.035736945,0.03826846,0.9962713,2017-01-30 11:47:00,48.24049494010832
0.6276245,0.83683777,9.728195,0.0,0.0,0.0,130.0,0.6372423,0.77840704,9.754916,0.010706363,-0.052434158,0.029988207,0.035153877,0.03744191,0.9963802,2017-01-30 11:47:01,50.03789689428675
0.66685486,0.66685486,9.767426,0.0,0.0,0.0,129.0,0.6480916,0.7732538,9.754612,0.06241665,0.1194771,0.09778568,0.03575516,0.036991622,0.9963213,2017-01-30 11:47:02,49.37781637350412
0.67993164,0.78453064,9.675888,0.0,0.0,0.0,129.0,0.6527399,0.74662876,9.756376,0.026203884,-0.029731069,0.085929394,0.03585079,0.03568939,0.99638337,2017-01-30 11:47:03,47.24840367077214
0.78453064,0.78453064,9.571289,0.0,0.0,0.0,130.0,0.65466475,0.76365924,9.754929,-0.082284264,0.054122828,0.11192061,0.035948385,0.03653409,0.9963172,2017-01-30 11:47:04,49.0131415986053
0.6276245,0.83683777,9.728195,0.0,0.0,0.0,129.0,0.6848691,0.768287,9.75249,0.05966327,-0.021797366,0.04109797,0.03769462,0.036612477,0.99603796,2017-01-30 11:47:05,47.61001592351738
0.67993164,0.78453064,9.675888,0.0,0.0,0.0,130.0,0.68665946,0.77391756,9.751919,0.060123455,0.07927987,0.13595408,0.03779597,0.036904506,0.99604475,2017-01-30 11:47:06,47.84069443801731
0.6276245,0.7322235,9.780502,0.0,0.0,0.0,129.0,0.65807784,0.7811328,9.753315,0.02979924,0.045545895,-0.012350091,0.03632262,0.037416685,0.9961617,2017-01-30 11:47:07,47.212427821733776
0.7322235,0.88912964,9.780502,0.0,0.0,0.0,129.0,0.6434931,0.7788128,9.754474,-0.024212142,-0.051387735,0.043135535,0.03552866,0.037389554,0.9962691,2017-01-30 11:47:08,51.03917446549593
0.5753174,0.7322235,9.728195,0.0,0.0,0.0,129.0,0.6461237,0.7953887,9.752961,-0.03555088,0.018400958,0.16433285,0.035665315,0.0382164,0.9962719,2017-01-30 11:47:09,51.23043960834239
0.6276245,0.7322235,9.728195,0.0,0.0,0.0,129.0,0.644858,0.7883306,9.753618,0.018322034,0.011970801,0.028690519,0.0356027,0.037773475,0.99626166,2017-01-30 11:47:10,51.85537648636214
0.823761,0.823761,9.610519,0.0,0.0,0.0,129.0,0.64045566,0.7739784,9.755059,-0.013321021,-0.04324241,0.2071957,0.03528301,0.037223175,0.9964185,2017-01-30 11:47:11,49.63348051240591
0.6276245,0.67993164,9.728195,0.0,0.0,0.0,129.0,0.68087757,0.7792889,9.751898,0.08158226,0.002929104,0.026969684,0.03756365,0.037293397,0.99618095,2017-01-30 11:47:12,46.463911959602626
0.6276245,0.78453064,9.675888,0.0,0.0,0.0,129.0,0.6782608,0.78028905,9.752,0.012958773,0.0041440264,0.08139039,0.037326556,0.037435845,0.9963622,2017-01-30 11:47:13,46.13958915683308
0.7453003,0.7060852,9.610519,0.0,0.0,0.0,129.0,0.66880494,0.76314145,9.75401,-0.06919056,0.070032686,0.1517159,0.03655037,0.036679506,0.9964267,2017-01-30 11:47:14,47.62223028270276
0.67993164,0.78453064,9.675888,0.0,0.0,0.0,129.0,0.69097716,0.7531584,9.753241,0.064872526,-0.023349494,0.110014394,0.037881546,0.035904367,0.9962322,2017-01-30 11:47:15,51.62794504457764
0.6276245,0.88912964,9.675888,0.0,0.0,0.0,129.0,0.65628535,0.77541727,9.753892,0.031967323,0.039067626,0.069743596,0.036173485,0.0372234,0.99644417,2017-01-30 11:47:16,53.670946920484
0.6276245,0.78453064,9.623596,0.0,0.0,0.0,129.0,0.6389802,0.78653693,9.75415,-0.014796457,0.051038165,0.029222563,0.03531405,0.037810795,0.9962836,2017-01-30 11:47:17,45.72455960489865
0.66685486,0.7453003,9.688965,0.0,0.0,0.0,129.0,0.6357214,0.7865381,9.754363,0.009185411,0.010178319,0.1792592,0.035202283,0.03777156,0.9961888,2017-01-30 11:47:18,45.060937758202826
0.6276245,0.67993164,9.728195,0.0,0.0,0.0,129.0,0.6535933,0.7681054,9.754651,0.027912922,-0.04938602,0.08416783,0.035994396,0.03681876,0.99629354,2017-01-30 11:47:19,46.3569185921478
0.7322235,0.78453064,9.728195,0.0,0.0,0.0,129.0,0.6629366,0.76355,9.754378,0.03637789,0.09589542,-0.025009431,0.036486316,0.03650715,0.99622273,2017-01-30 11:47:20,44.82405308400725
0.6276245,0.83683777,9.623596,0.0,0.0,0.0,129.0,0.65985334,0.76970947,9.754105,0.03309485,-0.07572619,0.05650815,0.036295705,0.0368387,0.9962985,2017-01-30 11:47:21,45.96566772979284
0.6276245,0.7322235,9.728195,0.0,0.0,0.0,129.0,0.6574903,0.78851044,9.752762,0.03107495,-0.08476846,0.027952306,0.036259446,0.03777252,0.9962623,2017-01-30 11:47:22,48.53717105304054
0.5753174,0.78453064,9.623596,0.0,0.0,0.0,129.0,0.65142167,0.7935134,9.752762,0.07913253,0.070368126,0.08243536,0.036010344,0.038088955,0.99618125,2017-01-30 11:47:23,49.19402302319466
0.67993164,0.67993164,9.675888,0.0,0.0,0.0,129.0,0.63740534,0.7773192,9.7549925,0.066440865,0.0016245033,0.12528326,0.03508346,0.03754068,0.9966129,2017-01-30 11:47:24,51.12910660426422
0.7060852,0.66685486,9.688965,0.0,0.0,0.0,129.0,0.62582093,0.77144325,9.756209,-0.06881678,0.0087037645,0.0857623,0.034251124,0.037398566,0.9969194,2017-01-30 11:47:25,42.901719770251006
0.67993164,0.78453064,9.623596,0.0,0.0,0.0,129.0,0.65912986,0.7624708,9.754721,0.034801863,-0.055445977,0.11141933,0.036130313,0.036637057,0.9965271,2017-01-30 11:47:26,45.92035029731249
0.6276245,0.78453064,9.571289,0.0,0.0,0.0,129.0,0.6676332,0.7652003,9.753928,0.041097187,0.043321908,0.08348199,0.036643278,0.036678664,0.99638045,2017-01-30 11:47:27,45.689610019393285
0.7322235,0.78453064,9.623596,0.0,0.0,0.0,129.0,0.64327943,0.76274806,9.755757,0.01674346,-0.013611775,0.08531089,0.035284113,0.036740452,0.996622,2017-01-30 11:47:28,47.97044773583488
0.67993164,0.78453064,9.728195,0.0,0.0,0.0,129.0,0.64565045,0.77167714,9.754898,-0.022406934,-0.005885486,0.043729097,0.03541573,0.037111577,0.9965715,2017-01-30 11:47:29,54.52071012325624
0.66685486,0.7453003,9.688965,0.0,0.0,0.0,129.0,0.6519766,0.7900907,9.753004,0.011820279,0.040971555,-0.02640605,0.03587352,0.0380569,0.9964599,2017-01-30 11:47:30,53.92644100075664
0.6276245,0.78453064,9.728195,0.0,0.0,0.0,129.0,0.6616597,0.7834637,9.752886,-0.0482122,0.007833685,0.028008835,0.03634921,0.037648074,0.99630827,2017-01-30 11:47:31,46.7229054779694
0.6276245,0.78453064,9.728195,0.0,0.0,0.0,129.0,0.6697569,0.777251,9.7528305,-0.091963485,4.800873E-4,0.04148536,0.037057158,0.03705035,0.9959497,2017-01-30 11:47:32,46.53792151200506
0.6276245,0.78453064,9.675888,0.0,0.0,0.0,129.0,0.6503223,0.77616554,9.754231,-0.05793573,-1.942691E-4,0.124645635,0.035929978,0.037170384,0.996145,2017-01-30 11:47:33,48.11222165863341
0.67993164,0.7322235,9.728195,0.0,0.0,0.0,128.0,0.64675987,0.7636018,9.75546,0.020216145,-0.066819586,0.03049947,0.03557397,0.036689367,0.9964191,2017-01-30 11:47:34,48.84379316792318
0.67993164,0.78453064,9.728195,0.0,0.0,0.0,127.0,0.65058964,0.7741322,9.754376,-0.07163786,0.052212097,0.02947362,0.035716243,0.037259437,0.9965197,2017-01-30 11:47:35,48.98484054150603
0.6276245,0.7322235,9.728195,0.0,0.0,0.0,126.0,0.6545725,0.7680138,9.754593,0.027562002,-0.007819084,0.029655678,0.035939433,0.036919467,0.9964431,2017-01-30 11:47:36,41.24195848213848
0.6276245,0.83683777,9.728195,0.0,0.0,0.0,119.0,0.65548503,0.7755257,9.753937,-0.011904139,0.13424619,0.029097864,0.036101557,0.037145376,0.9963005,2017-01-30 11:47:37,45.061898093135
0.6276245,0.83683777,9.675888,0.0,0.0,0.0,112.0,0.6506933,0.78396845,9.753584,-0.01742078,-0.10047635,0.083113715,0.035919264,0.037622925,0.9962376,2017-01-30 11:47:38,46.474682128259765
0.6276245,0.78453064,9.623596,0.0,0.0,0.0,114.0,0.6381034,0.79454064,9.75356,0.011567455,0.05904191,0.13759428,0.03530204,0.03821852,0.99626136,2017-01-30 11:47:39,44.094713079707226
0.88912964,0.78453064,9.728195,0.0,0.0,0.0,115.0,0.64812523,0.7574908,9.755846,-0.07375321,0.008371652,0.044537973,0.03580764,0.036183298,0.9964125,2017-01-30 11:47:40,46.051348613685306
0.6276245,0.78453064,9.623596,0.0,0.0,0.0,112.0,0.6848631,0.7331881,9.755194,0.017466085,-0.043171696,0.030265037,0.03744622,0.034948237,0.9963413,2017-01-30 11:47:41,48.127275411689006
0.6276245,0.78453064,9.728195,0.0,0.0,0.0,114.0,0.65543395,0.76249677,9.754968,0.015277636,0.054238696,0.03003975,0.035904117,0.036687505,0.99660033,2017-01-30 11:47:42,46.97853464925464
0.66685486,0.7060852,9.64975,0.0,0.0,0.0,117.0,0.65152735,0.77903205,9.753923,0.010289612,0.07170613,0.08347451,0.035731167,0.037573315,0.9965346,2017-01-30 11:47:43,52.61246608472949
0.67993164,0.67993164,9.728195,0.0,0.0,0.0,116.0,0.6633933,0.7503168,9.755375,0.036900375,-0.024564467,0.03032988,0.03638735,0.036003772,0.9964045,2017-01-30 11:47:44,52.70733679824935
0.6276245,0.78453064,9.675888,0.0,0.0,0.0,116.0,0.6423879,0.7481341,9.7569475,0.003976723,-0.030011432,0.032040738,0.035346497,0.035828225,0.99651784,2017-01-30 11:47:45,55.89574663413594
0.7453003,0.78453064,9.688965,0.0,0.0,0.0,116.0,0.62991196,0.76567465,9.7564,-0.13183732,0.08615053,0.09939262,0.034617234,0.0369282,0.9966295,2017-01-30 11:47:46,27.205688464071468
0.6276245,0.78453064,9.675888,0.0,0.0,0.0,116.0,0.66554344,0.7849609,9.752502,0.037346534,0.0075216796,0.02777357,0.036584266,0.037579652,0.9962284,2017-01-30 11:47:48,28.20699077144692
0.6276245,0.78453064,9.728195,0.0,0.0,0.0,116.0,0.6633886,0.7917926,9.752095,0.039107684,0.015395268,0.19046125,0.036863606,0.037818857,0.99590635,2017-01-30 11:47:49,31.139871971325917
0.6276245,0.78453064,9.728195,0.0,0.0,0.0,116.0,0.6465094,0.7917103,9.753236,0.019166863,-0.025562206,0.028365472,0.035782777,0.037986428,0.99613875,2017-01-30 11:47:50,32.729382947979
0.66685486,0.78453064,9.64975,0.0,0.0,0.0,116.0,0.64175993,0.7878157,9.753865,-0.039257426,0.011455902,0.056178115,0.03543081,0.037894115,0.9963298,2017-01-30 11:47:51,40.201134765906595
0.6276245,0.7322235,9.728195,0.0,0.0,0.0,116.0,0.656787,0.77380717,9.753986,0.084191054,-0.0022249762,0.029068766,0.03615031,0.03711807,0.9962788,2017-01-30 11:47:52,48.74017477122911
0.6276245,0.78453064,9.728195,0.0,0.0,0.0,116.0,0.6568107,0.77319336,9.754032,-0.010259841,0.06440647,0.069986336,0.03619541,0.037035182,0.99627095,2017-01-30 11:47:53,35.21480919989256
0.7060852,0.7060852,9.688965,0.0,0.0,0.0,116.0,0.64503896,0.7767537,9.754536,-0.02338628,0.041972414,0.13858189,0.035585556,0.037293024,0.9962975,2017-01-30 11:47:54,38.90751975833475
0.6276245,0.7322235,9.675888,0.0,0.0,0.0,116.0,0.6403741,0.76507443,9.755767,0.013732783,0.0039336504,0.03071977,0.035287865,0.03681282,0.9963598,2017-01-30 11:47:55,44.460640841966885
0.6276245,0.78453064,9.780502,0.0,0.0,0.0,116.0,0.6462185,0.7431848,9.757073,0.019246565,-0.033797733,-0.008639909,0.035433855,0.035667878,0.9965355,2017-01-30 11:47:56,45.59258288830456
0.5753174,0.78453064,9.728195,0.0,0.0,0.0,117.0,0.6385183,0.7680307,9.755655,0.06624098,0.020436132,0.057862367,0.035089888,0.03699607,0.9965652,2017-01-30 11:47:57,42.97020958973475
0.7060852,0.823761,9.610519,0.0,0.0,0.0,117.0,0.637036,0.7861762,9.754308,-0.057601694,0.009816434,0.15196282,0.03512713,0.037879523,0.9964423,2017-01-30 11:47:58,48.477503754511346
0.6276245,0.78453064,9.675888,0.0,0.0,0.0,117.0,0.6542588,0.76469857,9.754874,0.026359132,-0.06414715,0.029880967,0.035961643,0.036741428,0.9962827,2017-01-30 11:47:59,52.535006497470164
0.6276245,0.78453064,9.780502,0.0,0.0,0.0,118.0,0.6575403,0.75169736,9.755665,0.031647783,0.02970644,0.030702313,0.03620023,0.035928927,0.9962584,2017-01-30 11:48:00,45.569793329887716
0.7060852,0.7060852,9.688965,0.0,0.0,0.0,118.0,0.6508909,0.7701229,9.754673,-0.08576038,0.07632453,0.070616476,0.035843767,0.036943197,0.9962275,2017-01-30 11:48:01,44.70247567828751
0.6276245,0.88912964,9.623596,0.0,0.0,0.0,117.0,0.6724329,0.7499384,9.754786,-0.049445514,-0.026421325,0.029856859,0.036962092,0.03575241,0.99615574,2017-01-30 11:48:02,46.85616553086258
0.6276245,0.78453064,9.675888,0.0,0.0,0.0,118.0,0.65627855,0.766394,9.754605,0.032087497,-0.012173903,-0.024789132,0.03621749,0.03662056,0.99632895,2017-01-30 11:48:03,47.832499047537944
0.6276245,0.78453064,9.728195,0.0,0.0,0.0,118.0,0.6433417,0.7812892,9.754286,0.071287096,0.04579046,0.17918189,0.035452306,0.03758974,0.9964052,2017-01-30 11:48:04,50.22909326670131
0.6276245,0.83683777,9.675888,0.0,0.0,0.0,118.0,0.64054984,0.78711593,9.754002,0.014134156,0.0102135455,0.02910867,0.035378918,0.037826896,0.9963195,2017-01-30 11:48:05,48.36672981969159
0.6276245,0.6276245,9.532059,0.0,0.0,0.0,118.0,0.638455,0.7935406,9.753618,-0.05618274,0.058041833,0.1104126,0.035453536,0.03810815,0.99613297,2017-01-30 11:48:06,-2.5351175787169393
0.6276245,0.78453064,9.675888,-0.0036866027,-0.004861942,-0.01078259,118.0,0.6693709,0.7678415,9.753603,0.040420286,0.034072846,0.19214715,0.036907863,0.036620196,0.9958233,2017-01-30 11:48:07,-2.2525499830826785
0.67993164,0.67993164,9.728195,0.0,0.0,0.0,118.0,0.6766195,0.75589114,9.754036,0.009222508,-0.020468658,0.02910784,0.037372615,0.03585955,0.99577963,2017-01-30 11:48:08,-2.559516209287931
0.66685486,0.7453003,9.728195,0.0,0.0,0.0,118.0,0.6723801,0.7435491,9.755277,-0.03649074,-0.03129624,0.13923863,0.036886502,0.03553073,0.99621344,2017-01-30 11:48:09,-2.5840526859606467
0.6276245,0.83683777,9.728195,0.0,0.0,0.0,118.0,0.68340415,0.7320862,9.755379,0.055949137,-0.110184565,0.030349832,0.037424754,0.03483606,0.9962331,2017-01-30 11:48:10,15.833227796545756
0.823761,0.66685486,9.571289,0.0,0.0,0.0,118.0,0.65435183,0.77398646,9.754137,-0.05390627,-0.015993662,0.07006947,0.035978008,0.037190013,0.9964197,2017-01-30 11:48:11,24.408254801989244
0.6276245,0.78453064,9.623596,0.0,0.0,0.0,118.0,0.65941155,0.77805775,9.753471,0.07269956,-0.038701013,0.11029788,0.036214147,0.037393115,0.9963765,2017-01-30 11:48:12,35.19429064968619
0.7322235,0.78453064,9.728195,0.0,0.0,0.0,118.0,0.66348684,0.77702075,9.753278,0.0386861,0.02727556,0.08276207,0.03658375,0.037234236,0.99631834,2017-01-30 11:48:13,41.11394429059267
0.6276245,0.78453064,9.675888,0.0,0.0,0.0,118.0,0.6512991,0.7856915,9.753405,-0.016097888,0.009331723,0.11019812,0.035828352,0.03782045,0.9964036,2017-01-30 11:48:14,42.491180666587304
0.67993164,0.7322235,9.623596,0.0,0.0,0.0,118.0,0.64009523,0.797176,9.753215,0.013559246,0.020816201,0.055527188,0.035282,0.03846667,0.99648213,2017-01-30 11:48:15,45.45943340928979
0.6276245,0.78453064,9.728195,0.0,0.0,0.0,118.0,0.63014877,0.7925096,9.754241,0.003894111,0.05794545,0.029220067,0.034752123,0.038329918,0.99654704,2017-01-30 11:48:16,28.85178281609454
0.66685486,0.7453003,9.610519,0.0,0.0,0.0,118.0,0.64473444,0.77875364,9.7543955,-0.12078062,0.044761755,0.07039203,0.035364058,0.037555207,0.99643475,2017-01-30 11:48:17,39.79840836022372
0.6276245,0.83683777,9.728195,0.0,0.0,0.0,118.0,0.67568964,0.7623267,9.753598,0.04800047,-0.013374225,0.02869966,0.03705713,0.036471855,0.9962427,2017-01-30 11:48:18,38.584890736312104
0.6276245,0.7453003,9.532059,0.0,0.0,0.0,118.0,0.6675246,0.7657766,9.753891,-0.09444503,0.11147524,0.1106728,0.036776543,0.03657945,0.9961929,2017-01-30 11:48:19,37.69959272832071
0.6276245,0.88912964,9.728195,0.0,0.0,0.0,118.0,0.68101627,0.75403,9.753875,0.052253712,-0.07555457,0.083484486,0.037417363,0.035886753,0.9959096,2017-01-30 11:48:20,42.177379897448276
0.6276245,0.78453064,9.675888,0.0,0.0,0.0,118.0,0.67683196,0.75848025,9.753819,0.10682281,0.021201206,0.02888837,0.037378713,0.03600899,0.9960057,2017-01-30 11:48:21,-2.1068375215831305
0.7453003,0.66685486,9.64975,0.0,0.0,0.0,117.0,0.6399029,0.77639955,9.754903,-0.0151254,-3.431793E-4,0.15266943,0.03525974,0.03735192,0.9964209,2017-01-30 11:48:22,40.28907492316215
0.67993164,0.78453064,9.728195,0.0,0.0,0.0,118.0,0.65493804,0.75490344,9.755591,-0.024520304,-0.022498481,0.030639132,0.036013458,0.036142804,0.9963214,2017-01-30 11:48:23,44.9890265174344
0.6276245,0.7322235,9.728195,0.0,0.0,0.0,118.0,0.66819733,0.76430345,9.753961,0.041320607,0.08505921,0.028916636,0.03675947,0.036540084,0.9962114,2017-01-30 11:48:24,18.526610390051992
0.6276245,0.88912964,9.728195,0.0,0.0,0.0,117.0,0.6513722,0.776696,9.754121,0.026064428,2.119866E-5,0.09723618,0.035928816,0.037287433,0.9963605,2017-01-30 11:48:25,35.57278753762511
0.67993164,0.78453064,9.623596,0.0,0.0,0.0,117.0,0.63844556,0.7839034,9.754398,-0.001401242,0.047936514,0.09758949,0.03521271,0.037726983,0.99643177,2017-01-30 11:48:26,28.701925962462354
0.7453003,0.78453064,9.610519,0.0,0.0,0.0,117.0,0.6523142,0.76788104,9.754755,-0.08567745,-0.007105968,0.029885124,0.035834406,0.036862906,0.9962446,2017-01-30 11:48:27,33.36808892803843
0.6276245,0.78453064,9.780502,0.0,0.0,0.0,117.0,0.6720773,0.761516,9.753912,0.00468028,-0.014843791,-0.011877069,0.037100296,0.036228202,0.9959069,2017-01-30 11:48:28,28.180949007433554
0.67993164,0.83683777,9.728195,0.0,0.0,0.0,117.0,0.65572524,0.7822121,9.7533865,0.030854182,0.004762736,0.13739724,0.036311954,0.037394848,0.9961166,2017-01-30 11:48:29,26.866195137507304
0.6276245,0.78453064,9.728195,0.0,0.0,0.0,117.0,0.6381995,0.7878717,9.754094,-0.029197518,0.011511913,0.029166032,0.035301805,0.037815873,0.99617165,2017-01-30 11:48:30,33.53989219999586
0.78453064,0.66685486,9.64975,0.0,0.0,0.0,117.0,0.6588015,0.7779313,9.753523,-0.051820178,0.12651911,0.15114728,0.036387026,0.03723269,0.99587315,2017-01-30 11:48:31,33.96523257486169
0.6276245,0.83683777,9.623596,0.0,0.0,0.0,117.0,0.6769976,0.7533525,9.754206,0.04982075,-0.0645613,0.11109761,0.03741796,0.035690915,0.995707,2017-01-30 11:48:32,17.551361175899533
0.7060852,0.6276245,9.728195,0.0,0.0,0.0,117.0,0.6578717,0.7690123,9.7542925,-0.05026083,0.08665966,0.17928496,0.03641913,0.03658197,0.99589294,2017-01-30 11:48:33,46.45514175668072
0.6276245,0.78453064,9.728195,0.0,0.0,0.0,117.0,0.677185,0.7685312,9.753008,0.009036137,-0.1434861,0.08257086,0.037384123,0.03656422,0.9958177,2017-01-30 11:48:34,54.59007884898846
0.6276245,0.78453064,9.728195,0.0,0.0,0.0,117.0,0.65666354,0.77118367,9.754202,0.033285584,-0.005622373,0.029096201,0.036503218,0.036751837,0.99592555,2017-01-30 11:48:35,-0.5567157913254096
0.7453003,0.7453003,9.610519,0.0,0.0,0.0,117.0,0.6429877,0.7652216,9.755583,-0.05164997,0.016102461,0.044275273,0.035614,0.03653525,0.99619305,2017-01-30 11:48:36,30.073863377178714
0.6276245,0.7322235,9.728195,0.0,0.0,0.0,117.0,0.6739756,0.74829847,9.754805,0.032806747,0.0131851,0.070776924,0.037102126,0.035564207,0.9959176,2017-01-30 11:48:37,60.08680757578575
0.7060852,0.7060852,9.728195,0.0,0.0,0.0,117.0,0.6584601,0.7593976,9.755006,-0.090658985,0.14648198,0.16628146,0.036406722,0.03616204,0.99591666,2017-01-30 11:48:38,19.170375507275374
0.6276245,0.83683777,9.728195,0.0,0.0,0.0,117.0,0.6588056,0.7408251,9.756411,0.032269612,-0.03553462,0.099584654,0.036301795,0.03526616,0.9960582,2017-01-30 11:48:39,28.33443953715321
0.6276245,0.78453064,9.728195,0.0,0.0,0.0,117.0,0.6564192,0.7550042,9.755485,0.030822905,-0.024180606,0.08519201,0.036236055,0.035885863,0.9961095,2017-01-30 11:48:40,28.06111049712838
0.6276245,0.6276245,9.728195,0.0,0.0,0.0,116.0,0.65628177,0.7838913,9.753215,0.015800951,0.062152658,0.096399866,0.036408536,0.037394274,0.9958034,2017-01-30 11:48:41,36.687892399502836
0.6276245,0.88912964,9.623596,0.0,0.0,0.0,116.0,0.6571177,0.76173145,9.754914,0.030571535,-0.0137543455,0.084400594,0.0364077,0.03627299,0.99579364,2017-01-30 11:48:42,46.77970356894505
0.7060852,0.7060852,9.64975,0.0,0.0,0.0,116.0,0.6534928,0.76974654,9.754528,-0.082005985,0.03424784,0.029599981,0.03616375,0.03673761,0.9959645,2017-01-30 11:48:43,46.93421808120249
0.7322235,0.78453064,9.780502,0.0,0.0,0.0,116.0,0.6625029,0.7738595,9.753595,-0.0459429,-0.04348417,-0.03941122,0.036623795,0.036913443,0.9959512,2017-01-30 11:48:44,49.55209915408212
0.6276245,0.78453064,9.728195,0.0,0.0,0.0,117.0,0.65733427,0.7800376,9.753453,0.03198743,-0.12029705,0.028556675,0.03632073,0.037303317,0.9961951,2017-01-30 11:48:45,54.95645313582642
0.6276245,0.78453064,9.675888,0.0,0.0,0.0,115.0,0.6459557,0.7907112,9.753354,0.018405529,0.014687554,0.055706754,0.035747778,0.03794036,0.9961475,2017-01-30 11:48:46,53.36508573595837
0.78453064,0.78453064,9.728195,0.0,0.0,0.0,115.0,0.6371455,0.7964702,9.753465,0.0108543895,0.04785993,0.08295992,0.035396982,0.03823229,0.99603164,2017-01-30 11:48:47,47.1219138861919
0.66685486,0.7453003,9.64975,0.0,0.0,0.0,115.0,0.6600768,0.78137463,9.75316,0.031764634,-0.034008835,0.10992711,0.036433224,0.037432965,0.9959821,2017-01-30 11:48:48,56.7892398206153
0.5230255,0.83683777,9.728195,0.0,0.0,0.0,115.0,0.6840883,0.76734924,9.752621,0.11203367,-0.049871616,0.04131245,0.03778391,0.0364304,0.995774,2017-01-30 11:48:49,58.94741805456611
0.67993164,0.7322235,9.728195,0.0,0.0,0.0,115.0,0.6585432,0.7838345,9.753067,0.018386876,0.007474658,0.014519004,0.036467955,0.037444342,0.99594146,2017-01-30 11:48:50,42.54084791089855
0.6276245,0.78453064,9.728195,0.0,0.0,0.0,115.0,0.64247257,0.7820155,9.754286,0.015936613,0.005655678,0.029357234,0.03556285,0.03748581,0.9961246,2017-01-30 11:48:51,38.79840429572304
0.7060852,0.66685486,9.64975,0.0,0.0,0.0,115.0,0.64508605,0.777154,9.7545,-0.0904127,0.082516305,0.124914974,0.035635017,0.037269715,0.9962117,2017-01-30 11:48:52,48.945606306716456
0.6276245,0.83683777,9.571289,0.0,0.0,0.0,114.0,0.6697725,0.7630597,9.75395,0.04323654,-0.013300133,0.04264173,0.036972195,0.036311235,0.99600744,2017-01-30 11:48:53,54.15393243921005
0.6276245,0.78453064,9.675888,0.0,0.0,0.0,114.0,0.65044266,0.77613395,9.754227,0.025764009,-0.015706284,0.042942666,0.036170453,0.036923777,0.99585676,2017-01-30 11:48:54,49.288884832225044
0.7060852,0.7453003,9.610519,0.0,0.0,0.0,114.0,0.64007515,0.7848183,9.754218,-0.06777711,0.088166215,0.19286874,0.035571788,0.03752317,0.995889,2017-01-30 11:48:55,15.131967840743624
0.6276245,0.78453064,9.675888,0.0,0.0,0.0,114.0,0.6646478,0.7500655,9.755308,0.039564703,-0.027553739,0.15296122,0.036802214,0.03554324,0.99567676,2017-01-30 11:48:56,6.472912597390488
0.6276245,0.78453064,9.728195,0.0,0.0,0.0,114.0,0.6603897,0.75786245,9.754994,0.036176033,-0.020116646,-0.024446627,0.03683465,0.035756625,0.9954337,2017-01-30 11:48:57,29.382514917842556
0.7453003,0.58839417,9.571289,0.0,0.0,0.0,114.0,0.6354154,0.77777183,9.755087,-0.12802146,0.18011057,0.08455522,0.035430137,0.037063956,0.9956588,2017-01-30 11:48:58,34.08066043052061
0.6276245,0.7322235,9.571289,0.0,0.0,0.0,114.0,0.65904784,0.78142184,9.753226,0.08529297,0.060532983,0.028333882,0.036542263,0.03723859,0.99566287,2017-01-30 11:48:59,32.2940584200213
0.78453064,0.7322235,9.675888,0.0,0.0,0.0,114.0,0.6591595,0.7668658,9.7543745,0.032623492,-0.009494038,0.12478863,0.036474716,0.036537927,0.99578637,2017-01-30 11:49:00,32.0964442908869
0.6276245,0.83683777,9.780502,0.0,0.0,0.0,114.0,0.64422965,0.78473437,9.753951,0.01769366,0.00837451,0.056263737,0.035801962,0.03748548,0.9958451,2017-01-30 11:49:01,39.86823989173005
0.7453003,0.66685486,9.64975,0.0,0.0,0.0,115.0,0.65495825,0.7698547,9.754421,-0.06692017,0.034356013,0.04311392,0.036430433,0.03653079,0.99572307,2017-01-30 11:49:02,40.53845767449243
0.6276245,0.78453064,9.728195,0.0,0.0,0.0,115.0,0.6721323,0.7556533,9.754364,0.045596346,-0.061567508,0.0839176,0.037222244,0.035782207,0.99561787,2017-01-30 11:49:03,32.48629502698873
0.5753174,0.7322235,9.728195,0.0,0.0,0.0,116.0,0.6507349,0.77370054,9.7544,0.025365235,-0.0038691193,0.19293359,0.03619149,0.036786873,0.99576193,2017-01-30 11:49:04,43.298898370517676
0.6276245,0.78453064,9.728195,0.0,0.0,0.0,115.0,0.64139736,0.7794164,9.754564,-0.039620038,0.003056608,0.043256078,0.035627283,0.037234165,0.99587977,2017-01-30 11:49:05,50.6326438646975
0.6276245,0.7060852,9.610519,0.0,0.0,0.0,116.0,0.66196597,0.76997936,9.753939,0.06121659,0.008329983,0.19246805,0.036662564,0.036643635,0.99567103,2017-01-30 11:49:06,49.49407146299591
0.6276245,0.83683777,9.728195,0.0,0.0,0.0,116.0,0.6629113,0.7556341,9.754996,0.009134648,0.02013535,0.11179093,0.03672171,0.035848696,0.99570006,2017-01-30 11:49:07,47.484869378068986
0.6276245,0.7322235,9.728195,0.0,0.0,0.0,116.0,0.6380218,0.77544147,9.755102,0.010673266,0.04138306,0.030112073,0.03537071,0.037110116,0.99603075,2017-01-30 11:49:08,49.03791001599021
0.6276245,0.78453064,9.780502,0.0,0.0,0.0,116.0,0.63415635,0.78478897,9.754607,0.0075055207,0.008651444,-0.052054767,0.035168983,0.03763847,0.9960953,2017-01-30 11:49:09,47.39532999562961
0.6276245,0.78453064,9.728195,0.0,0.0,0.0,116.0,0.6408902,0.7683116,9.755478,0.0019958955,-0.009882369,0.044231214,0.03538722,0.036834978,0.99623954,2017-01-30 11:49:10,44.404047431895535
0.5753174,0.83683777,9.832794,0.0,0.0,0.0,116.0,0.65582067,0.75943977,9.755179,0.02969179,-0.016100176,0.09826286,0.036201384,0.036245063,0.9960649,2017-01-30 11:49:11,43.965311547223955
0.6276245,0.83683777,9.728195,0.0,0.0,0.0,117.0,0.6440472,0.7921982,9.753359,0.018088121,-0.053218406,0.028470216,0.035840195,0.03782277,0.99584526,2017-01-30 11:49:12,44.96724662673802
0.67993164,0.78453064,9.728195,0.0,0.0,0.0,117.0,0.6376995,0.79194343,9.753798,-0.029437562,0.057376824,0.05601767,0.035474688,0.03796109,0.9959159,2017-01-30 11:49:13,46.555466400608736
0.6276245,0.7322235,9.728195,0.0,0.0,0.0,118.0,0.6369818,0.783,9.754566,0.010445796,0.006640169,0.07049926,0.035409447,0.03743982,0.99589324,2017-01-30 11:49:14,49.01838783907226
0.6276245,0.78453064,9.728195,0.0,0.0,0.0,119.0,0.6396497,0.7860471,9.754147,0.012778844,0.008730316,0.08379872,0.035563614,0.037511893,0.9958309,2017-01-30 11:49:15,48.06038168955273
0.7453003,0.78453064,9.728195,0.0,0.0,0.0,119.0,0.6489778,0.78371555,9.753717,-0.086520985,0.04821682,0.11051153,0.03602873,0.03742655,0.99586153,2017-01-30 11:49:16,45.77742337303495
0.6276245,0.83683777,9.728195,0.0,0.0,0.0,119.0,0.6840192,0.7703362,9.752389,0.016622193,-0.006023589,0.027460994,0.03794251,0.03646975,0.9956329,2017-01-30 11:49:17,49.402020819634046
0.5753174,0.83683777,9.728195,0.0,0.0,0.0,119.0,0.6805257,0.7773939,9.752073,0.057980523,0.04115725,0.026924793,0.037838854,0.036906864,0.9957616,2017-01-30 11:49:18,44.78329264182898
0.6276245,0.6276245,9.571289,0.0,0.0,0.0,119.0,0.6481139,0.7865829,9.753544,0.021577898,0.13280618,0.2874023,0.035798218,0.037703115,0.9960829,2017-01-30 11:49:19,47.14832198394595
0.6276245,0.88912964,9.675888,0.0,0.0,0.0,119.0,0.6432782,0.7707034,9.755133,0.071028605,-0.006220144,0.030261712,0.03566202,0.03676953,0.9959264,2017-01-30 11:49:20,40.38495415991409
0.6276245,0.78453064,9.728195,0.0,0.0,0.0,119.0,0.64294165,0.78107435,9.75433,0.016405685,-0.03614652,0.08388269,0.03564157,0.03745162,0.9959894,2017-01-30 11:49:21,44.52056370950899
0.7453003,0.86299133,9.571289,0.0,0.0,0.0,119.0,0.63644665,0.78787047,9.754209,0.01023012,0.011986648,0.04284208,0.035264447,0.03785794,0.9961791,2017-01-30 11:49:22,47.40967935624952
0.6276245,0.83683777,9.675888,0.0,0.0,0.0,119.0,0.6500063,0.77922,9.754009,0.13091628,-0.036894713,-0.025387682,0.035885334,0.037356984,0.9960758,2017-01-30 11:49:23,48.14633957150843
0.78453064,0.78453064,9.675888,0.0,0.0,0.0,119.0,0.6564426,0.7717432,9.754172,0.030023122,-0.059003353,0.0837106,0.036320504,0.03684042,0.99597025,2017-01-30 11:49:24,43.96367570919648
0.67993164,0.7322235,9.728195,0.0,0.0,0.0,119.0,0.6487388,0.7822412,9.753852,0.022202792,-0.03497966,0.1378869,0.035983257,0.037378803,0.9959197,2017-01-30 11:49:25,46.665242252481235
0.6276245,0.78453064,9.623596,0.0,0.0,0.0,119.0,0.64275575,0.7902441,9.753603,0.016219782,-0.09507849,0.04229507,0.035636887,0.03783391,0.99592584,2017-01-30 11:49:26,43.746681109394885
0.67993164,0.83683777,9.728195,0.0,0.0,0.0,119.0,0.632328,0.7911682,9.754209,-0.034883488,0.014935964,0.08374053,0.03510842,0.037977252,0.9960866,2017-01-30 11:49:27,42.76646777959134
0.6276245,0.7322235,9.728195,0.0,0.0,0.0,119.0,0.6424691,0.79725325,9.753052,-0.08077168,0.020486739,0.12358819,0.035563003,0.038233392,0.99606884,2017-01-30 11:49:28,41.76478151629273
0.6276245,0.83683777,9.675888,0.0,0.0,0.0,119.0,0.64747816,0.79292965,9.753072,0.0209422,0.016569871,0.028144341,0.03586571,0.038017854,0.99608046,2017-01-30 11:49:29,47.42978980466078
0.6276245,0.78453064,9.675888,0.0,0.0,0.0,119.0,0.63091516,0.7834083,9.754929,0.0056818128,0.06167049,0.029904244,0.03509675,0.03755301,0.9960409,2017-01-30 11:49:30,46.17409299282566
0.6276245,0.7322235,9.728195,0.0,0.0,0.0,119.0,0.6225952,0.78621536,9.755236,0.05108498,0.009573897,0.043916974,0.034650963,0.037700433,0.99603564,2017-01-30 11:49:31,44.560443453395074
0.7453003,0.7060852,9.571289,0.0,0.0,0.0,119.0,0.63818353,0.78555757,9.754282,-0.031559195,0.06435592,0.17927583,0.035253152,0.037712615,0.99610263,2017-01-30 11:49:32,44.86021408277227
0.6276245,0.7322235,9.728195,0.0,0.0,0.0,119.0,0.6567559,0.7793597,9.753546,0.029687373,-0.052244674,0.12405706,0.036358424,0.037157692,0.9958992,2017-01-30 11:49:33,48.45692180625974
0.67993164,0.78453064,9.728195,0.0,0.0,0.0,119.0,0.6448411,0.78920627,9.75355,0.018383812,0.012234901,0.17849024,0.035867248,0.037665427,0.9958059,2017-01-30 11:49:34,43.96348691899911
0.6276245,0.78453064,9.728195,0.0,0.0,0.0,119.0,0.65250915,0.78661674,9.753248,0.02572946,0.010476607,-0.02616164,0.036180574,0.0376002,0.9959047,2017-01-30 11:49:35,44.01911898188102
0.67993164,0.78453064,9.728195,0.0,0.0,0.0,119.0,0.64530146,0.7849216,9.753865,0.019359054,0.00805918,0.09703998,0.03571315,0.03762761,0.9961762,2017-01-30 11:49:36,47.678086728873765
0.7453003,0.66685486,9.610519,0.0,0.0,0.0,119.0,0.63909304,0.79299206,9.75362,-0.014683657,0.08473401,0.178516,0.035449345,0.038040888,0.9960739,2017-01-30 11:49:37,45.6650731547755
0.6276245,0.83683777,9.728195,0.0,0.0,0.0,119.0,0.652221,0.7830676,9.753553,0.025685035,-0.02053293,-0.039476063,0.03620238,0.037370812,0.99583566,2017-01-30 11:49:38,47.467134450991715
0.67993164,0.78453064,9.832794,0.0,0.0,0.0,119.0,0.66078836,0.77094495,9.7539425,-0.047469728,-0.059896246,-0.025467489,0.03652541,0.036748946,0.9958789,2017-01-30 11:49:39,49.993821636278994
0.6276245,0.6276245,9.623596,0.0,0.0,0.0,119.0,0.64947623,0.78337604,9.753712,-0.0720795,-0.034397114,0.0288069,0.03594504,0.037495356,0.99609977,2017-01-30 11:49:40,46.62291688661578
0.67993164,0.83683777,9.675888,0.0,0.0,0.0,119.0,0.6485862,0.788511,9.753357,0.021955423,0.011883563,0.12379935,0.03597353,0.037705086,0.9959473,2017-01-30 11:49:41,44.94611398177238
0.7060852,0.66685486,9.610519,0.0,0.0,0.0,119.0,0.65011907,0.7718652,9.754586,-0.05813899,0.0636071,0.11138026,0.036113292,0.03674701,0.99573493,2017-01-30 11:49:42,46.51411862463025
0.5753174,0.78453064,9.728195,0.0,0.0,0.0,119.0,0.6799274,0.7340851,9.755471,0.052038033,-0.041168317,0.0577942,0.037517156,0.03466039,0.99553365,2017-01-30 11:49:43,46.023100797148935
0.6276245,0.88912964,9.728195,0.0,0.0,0.0,119.0,0.67555934,0.74832314,9.754693,0.049023356,-0.12337911,0.029764583,0.037281964,0.035515603,0.9955469,2017-01-30 11:49:44,44.8170977001196
0.47071838,0.83683777,9.728195,0.0,0.0,0.0,119.0,0.659429,0.7664715,9.754388,-0.022857716,0.0039471076,0.08400988,0.036543895,0.036410477,0.99564385,2017-01-30 11:49:45,46.96666652067382
0.7322235,0.78453064,9.728195,0.0,0.0,0.0,119.0,0.66379315,0.7655481,9.754164,-0.030850286,0.111828335,0.0019910114,0.036756303,0.036401343,0.9957843,2017-01-30 11:49:46,47.24836134605346
0.6276245,0.78453064,9.728195,0.0,0.0,0.0,119.0,0.65505,0.78036785,9.75358,0.028514016,0.004008054,0.028652277,0.03630124,0.037286088,0.995885,2017-01-30 11:49:47,47.88857328757092
0.7060852,0.7453003,9.571289,0.0,0.0,0.0,119.0,0.6543541,0.7796544,9.753683,-0.041017123,0.0049451073,0.11039431,0.036197014,0.037343513,0.9959753,2017-01-30 11:49:48,47.004677298092794
0.67993164,0.78453064,9.728195,0.0,0.0,0.0,119.0,0.66696376,0.76599276,9.753912,0.08128881,-0.010367028,0.11070605,0.036815606,0.03651717,0.99599,2017-01-30 11:49:49,46.898157673983825
0.6276245,0.78453064,9.675888,0.0,0.0,0.0,119.0,0.65987664,0.7818768,9.753134,0.00707152,0.045490608,0.08269307,0.036536146,0.03732847,0.9960183,2017-01-30 11:49:50,44.9333719592405
0.6276245,0.78453064,9.675888,0.0,0.0,0.0,119.0,0.6517364,0.7789335,9.753917,0.025772635,0.0031013433,0.124250755,0.036068212,0.03730745,0.9960877,2017-01-30 11:49:51,48.73834677683427
0.6276245,0.78453064,9.675888,0.0,0.0,0.0,119.0,0.64078337,0.771706,9.755218,0.014547322,-0.004566441,0.084743105,0.035452284,0.036971193,0.99615115,2017-01-30 11:49:52,45.753139243453774
0.6276245,0.78453064,9.885101,0.0,0.0,0.0,119.0,0.65794057,0.76147133,9.754879,-0.066514745,-0.027095059,0.12535724,0.03628336,0.036330443,0.995872,2017-01-30 11:49:53,47.53017394547858
0.6276245,0.78453064,9.675888,0.0,0.0,0.0,119.0,0.67519665,0.7543707,9.754252,0.048308577,-0.06293467,0.070215784,0.03723055,0.03583155,0.995881,2017-01-30 11:49:54,49.347166719954814
0.7453003,0.7453003,9.688965,0.0,0.0,0.0,119.0,0.6514086,0.7729131,9.754417,0.03981223,0.07896647,0.11106934,0.036081623,0.036993716,0.996072,2017-01-30 11:49:55,48.65687748555477
0.7322235,0.83683777,9.728195,0.0,0.0,0.0,119.0,0.64615345,0.76492673,9.755396,0.01974863,0.098130986,-0.01044803,0.03571798,0.036609933,0.9961087,2017-01-30 11:49:56,50.82994722246692
0.78453064,0.7453003,9.610519,0.0,0.0,0.0,119.0,0.6439489,0.7459037,9.757015,-0.13161817,0.03692952,0.11381187,0.035493158,0.035649903,0.9962161,2017-01-30 11:49:57,56.33809769679604
0.6276245,0.78453064,9.675888,0.0,0.0,0.0,119.0,0.6732068,0.7366377,9.755744,-0.10482114,-0.041389763,0.031057287,0.036860846,0.034992665,0.996187,2017-01-30 11:49:58,61.40748248762854
0.67993164,0.78453064,9.780502,0.0,0.0,0.0,119.0,0.66861683,0.75727785,9.75448,0.043904506,-0.020068845,0.029503547,0.036928106,0.0360383,0.9960593,2017-01-30 11:49:59,48.82949392954952
0.7322235,0.7322235,9.728195,0.0,0.0,0.0,119.0,0.6486132,0.76735723,9.755043,0.022937939,-0.064240515,0.030117061,0.035812777,0.036723267,0.9962397,2017-01-30 11:50:00,49.98152638926804
0.78453064,0.7060852,9.532059,0.0,0.0,0.0,119.0,0.6522624,0.7594787,9.755416,-0.11337481,0.10819802,0.15307014,0.035746414,0.036530778,0.99633247,2017-01-30 11:50:01,65.72466822663684
0.6276245,0.78453064,9.675888,0.0,0.0,0.0,119.0,0.6927029,0.725614,9.755205,0.06764389,-0.051199548,0.08468823,0.037975557,0.034362845,0.9960206,2017-01-30 11:50:02,50.902692486147494
0.66685486,0.823761,9.610519,0.0,0.0,0.0,119.0,0.6800796,0.75553656,9.753822,-0.080778435,0.030947655,0.11069359,0.037493348,0.035829425,0.99606407,2017-01-30 11:50:03,50.74021832391807
0.67993164,0.78453064,9.728195,0.0,0.0,0.0,119.0,0.6746061,0.7602123,9.7538395,0.0072091036,-0.01614751,0.19235499,0.037262846,0.036082212,0.9958678,2017-01-30 11:50:04,53.57549710174168
0.6276245,0.78453064,9.728195,0.0,0.0,0.0,119.0,0.66403544,0.7588686,9.754669,0.035926484,-0.016289456,0.029753774,0.03662524,0.03617877,0.9960373,2017-01-30 11:50:05,53.4690794077219
0.6276245,0.78453064,9.675888,0.0,0.0,0.0,119.0,0.63625246,0.7829016,9.7546215,0.010716806,0.0056952178,0.12503801,0.03518675,0.0376098,0.9963376,2017-01-30 11:50:06,46.61772308584454
0.5230255,0.94143677,9.728195,0.0,0.0,0.0,119.0,0.63592774,0.7764589,9.755157,0.105046324,-0.123026945,0.030251736,0.035110246,0.03731855,0.9963311,2017-01-30 11:50:07,43.31756846775075
0.67993164,0.78453064,9.728195,0.0,0.0,0.0,119.0,0.62872434,0.77881026,9.755438,-0.053142652,0.0033823815,0.030488662,0.03470798,0.03750346,0.9964169,2017-01-30 11:50:08,43.835507212861586
0.67993164,0.83683777,9.675888,0.0,0.0,0.0,119.0,0.6215915,0.78654456,9.755274,-0.0043201107,0.009815084,0.12567814,0.034387756,0.037907388,0.9963836,2017-01-30 11:50:10,46.90445713748093
0.6276245,0.78453064,9.623596,0.0,0.0,0.0,119.0,0.6317094,0.7823771,9.754959,0.00468693,0.0060695196,0.11178012,0.034999475,0.037539046,0.9961261,2017-01-30 11:50:11,48.77250641742599
0.67993164,0.78453064,9.623596,0.0,0.0,0.0,119.0,0.6432079,0.78067905,9.754344,0.002375549,0.032020837,0.02942291,0.035608213,0.037397563,0.9960388,2017-01-30 11:50:12,44.44384834071356
0.6276245,0.78453064,9.571289,0.0,0.0,0.0,119.0,0.6555402,0.7749834,9.753977,0.028138261,-0.001766659,0.11085902,0.03619148,0.037030347,0.9960533,2017-01-30 11:50:13,46.392727134754914
0.6276245,0.78453064,9.675888,0.0,0.0,0.0,119.0,0.65638024,0.7815536,9.753396,-0.038257454,-0.035667162,0.028467724,0.036338348,0.037346352,0.9959705,2017-01-30 11:50:14,45.975273921920426
0.67993164,0.78453064,9.675888,0.0,0.0,0.0,119.0,0.6536196,0.7905312,9.752858,-0.013777415,0.0141714085,0.082411245,0.036294457,0.037757415,0.9958244,2017-01-30 11:50:15,46.48081610369786
0.6276245,0.7322235,9.728195,0.0,0.0,0.0,119.0,0.6617586,0.7784262,9.753282,-0.005638428,0.0020663498,0.08283523,0.03679757,0.03689534,0.9956297,2017-01-30 11:50:16,45.65732351654296
0.67993164,0.78453064,9.675888,0.0,0.0,0.0,119.0,0.66958714,0.76237977,9.754016,0.043051157,-0.05484104,0.16529137,0.037179574,0.036046438,0.9954627,2017-01-30 11:50:17,41.95176422217778
0.6276245,0.88912964,9.623596,0.0,0.0,0.0,119.0,0.6469405,0.78165954,9.754018,0.020404544,-0.035561327,0.02909038,0.035946827,0.03728612,0.9956613,2017-01-30 11:50:18,54.0969635405107
0.78453064,0.823761,9.728195,0.0,0.0,0.0,119.0,0.6265728,0.78864837,9.754786,-0.026991818,0.027575092,0.15229118,0.035006456,0.03776921,0.9957183,2017-01-30 11:50:19,55.14731975384223
0.6276245,0.78453064,9.675888,0.0,0.0,0.0,119.0,0.64137053,0.7634588,9.755828,0.06874975,-0.01078778,0.030770479,0.035663042,0.036413614,0.9956582,2017-01-30 11:50:20,45.64719866987996
0.66685486,0.7060852,9.767426,0.0,0.0,0.0,119.0,0.6392281,0.75763154,9.756423,-0.028980024,0.09043094,-0.009328242,0.035482444,0.03608213,0.995822,2017-01-30 11:50:21,43.54315868507092
0.6276245,0.7322235,9.728195,-0.0023065396,-0.0058946046,-0.016985022,119.0,0.66482615,0.75397646,9.754994,-0.005398956,-0.048921887,0.09830608,0.036744874,0.035728034,0.99554276,2017-01-30 11:50:22,44.89898434764819
0.6276245,0.78453064,9.675888,0.0,0.0,0.0,119.0,0.6807476,0.76177824,9.75329,0.052843068,0.041315306,0.0419667,0.037855286,0.035883054,0.995213,2017-01-30 11:50:23,50.705192623179386
0.6276245,0.83683777,9.675888,0.0,0.0,0.0,120.0,0.6431304,0.7756311,9.75475,0.017972568,-0.13732362,0.02976375,0.035839844,0.036941532,0.9957396,2017-01-30 11:50:24,59.56356222081681
0.6276245,0.78453064,9.675888,0.0,0.0,0.0,119.0,0.63656336,0.7788608,9.754926,0.0100273825,-0.038360015,0.08447874,0.03539709,0.03720651,0.99585205,2017-01-30 11:50:25,58.016179999923104
0.6276245,0.78453064,9.675888,0.0,0.0,0.0,119.0,0.6372197,0.7838374,9.754483,0.01068371,0.0074775675,-0.011305952,0.035539445,0.03738797,0.9956801,2017-01-30 11:50:26,50.28413783502909
0.66685486,0.6276245,9.688965,0.0,0.0,0.0,119.0,0.65541977,0.77741235,9.753792,0.013958799,0.04426784,0.04238319,0.036420405,0.037063822,0.9955617,2017-01-30 11:50:27,42.83577134339104
0.6276245,0.83683777,9.728195,0.0,0.0,0.0,119.0,0.6700948,0.73479307,9.756098,0.04306617,-0.040124234,0.08557609,0.03703292,0.03478287,0.99561864,2017-01-30 11:50:28,41.538150072045326
0.6276245,0.78453064,9.675888,0.0,0.0,0.0,119.0,0.6532719,0.7598407,9.75532,0.027850157,-0.11527801,0.04420378,0.03638607,0.035825156,0.9955039,2017-01-30 11:50:29,42.11530086641758
0.6276245,0.78453064,9.780502,0.0,0.0,0.0,119.0,0.64281386,0.77982116,9.754437,0.016703714,0.0038349833,0.0839334,0.035799682,0.03719443,0.9957218,2017-01-30 11:50:30,43.338507742955315
0.67993164,0.83683777,9.675888,0.0,0.0,0.0,119.0,0.63593614,0.7710521,9.755586,-0.031117452,-0.045977715,0.08510223,0.035293378,0.036876187,0.99598783,2017-01-30 11:50:31,44.78516399144663
0.6276245,0.78453064,9.610519,0.0,0.0,0.0,119.0,0.63303846,0.7760877,9.755375,0.006502481,0.06782964,-0.010414777,0.035238206,0.03704842,0.99579906,2017-01-30 11:50:32,43.5533991490282
0.6276245,0.78453064,9.623596,0.0,0.0,0.0,119.0,0.6533266,0.750714,9.756023,0.024442315,-0.023128571,0.031057287,0.03625158,0.03562288,0.9953976,2017-01-30 11:50:33,45.06176523724456
0.67993164,0.78453064,9.728195,0.0,0.0,0.0,119.0,0.67677605,0.7498838,9.754488,0.049397193,-0.06873479,0.029726341,0.037569392,0.035208207,0.99520886,2017-01-30 11:50:34,46.22139793337992
0.58839417,0.7060852,9.64975,0.0,0.0,0.0,119.0,0.6674001,0.7722734,9.753387,-0.01361723,0.13211712,0.11018149,0.037071194,0.03662503,0.9955446,2017-01-30 11:50:35,47.58242035777159
0.6276245,0.83683777,9.728195,0.0,0.0,0.0,119.0,0.6581052,0.74825776,9.755891,0.032375965,-0.027365705,0.12619355,0.036419895,0.035598885,0.9958727,2017-01-30 11:50:36,48.915359680928994
0.6276245,0.7322235,9.675888,0.0,0.0,0.0,119.0,0.643651,0.76948893,9.755203,0.017626166,-0.009776116,-0.010390669,0.035752647,0.036535975,0.9958305,2017-01-30 11:50:37,60.990057182213604
0.6276245,0.7322235,9.623596,0.0,0.0,0.0,119.0,0.6472738,0.7844251,9.753774,0.020691087,0.0078106676,0.13783287,0.03609353,0.037309553,0.99555147,2017-01-30 11:50:38,47.13988158253885
0.6276245,0.78453064,9.623596,0.0,0.0,0.0,119.0,0.6348982,0.78204066,9.754778,0.009122022,-0.048725225,0.084275894,0.03547088,0.037274186,0.9956271,2017-01-30 11:50:39,51.06559732553214
0.7453003,0.7453003,9.571289,0.0,0.0,0.0,119.0,0.62989235,0.78228116,9.755083,0.0033563508,0.0059214407,-0.0107049085,0.0351412,0.03733966,0.99571216,2017-01-30 11:50:40,52.1821293032973
0.6276245,0.78453064,9.675888,0.0,0.0,0.0,119.0,0.6551303,0.7712934,9.754296,-0.055619363,-0.004197023,0.16567045,0.036299765,0.03669629,0.99561036,2017-01-30 11:50:41,57.16710804126964
0.6276245,0.78453064,9.728195,0.0,0.0,0.0,119.0,0.67579204,0.76513654,9.753372,0.04828468,-0.0111161,0.02850347,0.037413515,0.03628601,0.9956647,2017-01-30 11:50:42,59.556679266084856
0.5753174,0.83683777,9.675888,0.0,0.0,0.0,119.0,0.6416633,0.7826713,9.754286,0.015127323,0.006311434,0.029357234,0.035596382,0.03740847,0.9957492,2017-01-30 11:50:43,42.30312184910075
0.67993164,0.78453064,9.623596,0.0,0.0,0.0,119.0,0.62657666,0.7996172,9.753892,4.0682724E-5,-0.01760367,0.056204718,0.035016343,0.038259566,0.99573267,2017-01-30 11:50:44,45.16263276225716
0.6276245,0.78453064,9.728195,0.0,0.0,0.0,119.0,0.6466033,0.79785174,9.752729,0.020067338,0.02149191,-0.013059207,0.036065783,0.038058776,0.9956309,2017-01-30 11:50:45,43.035310344688405
0.6276245,0.78453064,9.728195,0.0,0.0,0.0,119.0,0.6543991,0.79638034,9.75233,0.027863145,0.020020524,0.027401973,0.036486544,0.03792525,0.9955607,2017-01-30 11:50:46,46.14970190744086
0.6276245,0.83683777,9.728195,0.0,0.0,0.0,119.0,0.6412483,0.8043319,9.752551,0.015197986,0.028029254,0.027585693,0.035847228,0.038407907,0.9956187,2017-01-30 11:50:47,48.35888425615352
0.6276245,0.83683777,9.623596,0.0,0.0,0.0,119.0,0.63299656,0.79858243,9.753563,0.0060672853,0.021372302,0.12407119,0.035356607,0.038166244,0.9956898,2017-01-30 11:50:48,46.94529108481178
0.7060852,0.823761,9.64975,0.0,0.0,0.0,119.0,0.63356996,0.78554815,9.754583,-0.03578412,0.0101189315,0.15229118,0.03522883,0.03756285,0.9957353,2017-01-30 11:50:49,47.953981718478424
0.67993164,0.78453064,9.780502,0.0,0.0,0.0,119.0,0.6682806,0.76610047,9.753814,0.09622602,-0.07836106,0.09698678,0.037143026,0.036253475,0.9954413,2017-01-30 11:50:50,44.243948234569274
0.6276245,0.7322235,9.728195,0.0,0.0,0.0,119.0,0.6649668,0.77379805,9.753433,0.041074224,-0.004177903,0.08293332,0.03710344,0.03659731,0.9954971,2017-01-30 11:50:51,43.30333604118227
0.6276245,0.78453064,9.728195,0.0,0.0,0.0,119.0,0.6440807,0.78808975,9.75369,-0.022933366,0.011788845,0.028732082,0.035758425,0.037724014,0.9959725,2017-01-30 11:50:52,46.51785278105709
0.67993164,0.78453064,9.728195,0.0,0.0,0.0,119.0,0.64977074,0.77719057,9.754187,0.023234773,-0.09451168,0.042879485,0.036127213,0.037009615,0.9957031,2017-01-30 11:50:53,48.840920211751765
0.6276245,0.78453064,9.623596,0.0,0.0,0.0,119.0,0.6477244,0.7789953,9.754179,0.07693851,0.0019189983,0.110946305,0.036135454,0.037025668,0.99561125,2017-01-30 11:50:54,47.615417303509666
0.78453064,0.7060852,9.64975,0.0,0.0,0.0,119.0,0.6329156,0.7840948,9.754743,-0.15706451,0.10307746,0.15239759,0.035263225,0.03745744,0.9957838,2017-01-30 11:50:55,51.32399912821999
0.6276245,0.83683777,9.623596,0.0,0.0,0.0,119.0,0.66349566,0.77491075,9.753445,0.0914411,-0.12403222,0.0966185,0.036886495,0.036849193,0.99569,2017-01-30 11:50:56,47.84513821146578
0.6276245,0.78453064,9.675888,0.0,0.0,0.0,119.0,0.65844643,0.78707945,9.752813,0.03380168,0.009003872,0.09599585,0.036623094,0.037459254,0.99582094,2017-01-30 11:50:57,46.53119507495309
0.66685486,0.78453064,9.571289,0.0,0.0,0.0,119.0,0.6452857,0.78515804,9.753846,-0.09021303,0.063279614,0.13788107,0.03580961,0.03754878,0.99593693,2017-01-30 11:50:58,48.260485396494744
0.6276245,0.78453064,9.728195,0.0,0.0,0.0,120.0,0.665039,0.76403594,9.754197,0.037973452,0.029181983,0.029254982,0.036773995,0.03636999,0.99581665,2017-01-30 11:50:59,45.15860271797058
0.7453003,0.7060852,9.610519,0.0,0.0,0.0,119.0,0.6542633,0.76994216,9.754461,-0.10930804,0.14384496,0.08403648,0.036351454,0.036598623,0.9956588,2017-01-30 11:51:00,42.08535617471567
0.6276245,0.78453064,9.728195,0.0,0.0,0.0,119.0,0.6740377,0.73936045,9.755482,0.04999522,-0.07985738,0.03053189,0.037286215,0.034909125,0.9955722,2017-01-30 11:51:01,35.21513391635405
0.6276245,0.78453064,9.728195,0.0,0.0,0.0,120.0,0.68476367,0.7252358,9.755795,0.019138027,-0.051845428,0.09889716,0.03787732,0.034086075,0.9955431,2017-01-30 11:51:02,41.95031622878049
0.7453003,0.7060852,9.767426,0.0,0.0,0.0,119.0,0.6574762,0.75563866,9.755364,0.05818087,-0.020721171,0.030436289,0.036495328,0.035818554,0.9955996,2017-01-30 11:51:03,46.19206342756834
0.6276245,0.83683777,9.780502,0.0,0.0,0.0,119.0,0.65993404,0.77836174,9.753412,-0.03602042,0.04260562,0.055833116,0.03671142,0.036893398,0.99541044,2017-01-30 11:51:04,45.48214966566037
0.6276245,0.94143677,9.675888,0.0,0.0,0.0,120.0,0.6634396,0.76871955,9.753938,0.091384985,-0.04850129,0.056250438,0.036917966,0.036395587,0.9954209,2017-01-30 11:51:05,44.24314980169775
0.67993164,0.78453064,9.728195,0.0,0.0,0.0,120.0,0.6295076,0.78608626,9.754805,0.004297301,0.008004158,0.029927522,0.035278976,0.037365433,0.99553627,2017-01-30 11:51:06,43.24707247597811
0.6276245,0.83683777,9.728195,0.0,0.0,0.0,120.0,0.63315874,0.7985663,9.753553,0.006622763,-0.018654563,0.08310706,0.03549532,0.0380434,0.9954208,2017-01-30 11:51:07,43.16876965113873
0.6276245,0.7060852,9.688965,0.0,0.0,0.0,120.0,0.6330598,0.7932962,9.753989,-0.047752995,0.0034688907,0.015414336,0.035418294,0.03783939,0.9955593,2017-01-30 11:51:08,45.960874283525825
0.5753174,0.78453064,9.675888,0.0,0.0,0.0,120.0,0.6506972,0.7775022,9.754101,0.024161225,-0.03971865,0.04279303,0.036184948,0.03701288,0.99568164,2017-01-30 11:51:09,50.26948241562597
0.78453064,0.7322235,9.675888,0.0,0.0,0.0,120.0,0.6645841,0.7672975,9.753973,0.0377955,0.031718966,0.029067937,0.036861096,0.036412913,0.99563104,2017-01-30 11:51:10,46.5217019375178
0.7322235,0.78453064,9.728195,0.0,0.0,0.0,119.0,0.6528088,0.7757518,9.754099,-0.05603913,-3.3252803E-4,0.029188477,0.036325168,0.036876447,0.9955982,2017-01-30 11:51:11,49.29615846383919
0.6276245,0.83683777,9.728195,0.0,0.0,0.0,118.0,0.64857143,0.7898337,9.753251,0.02248601,-0.042241503,0.17821673,0.036148805,0.037580557,0.9956522,2017-01-30 11:51:12,43.71367866510957
0.7322235,0.78453064,9.728195,0.0,0.0,0.0,114.0,0.6414144,0.80108696,9.752807,-0.03911813,-0.07118318,0.02789328,0.0358191,0.03822962,0.9956688,2017-01-30 11:51:13,43.86487093632145
0.66685486,0.78453064,9.492844,0.0,0.0,0.0,116.0,0.6639643,0.794452,9.751841,0.012848779,-0.010411296,0.2719996,0.03694093,0.03781407,0.99560004,2017-01-30 11:51:14,45.9380413115819
0.6276245,0.78453064,9.675888,-7.542638E-4,0.0027243136,0.007249601,119.0,0.6812611,0.77933764,9.751866,0.056315124,0.0036862807,0.08125239,0.037792128,0.037060656,0.99570686,2017-01-30 11:51:15,42.1072873832582
0.66685486,0.66685486,9.532059,0.0,0.0,0.0,119.0,0.65088856,0.7872541,9.753305,-0.04162565,0.1202585,0.069063574,0.036271475,0.037591327,0.9958033,2017-01-30 11:51:16,43.34791027756451
0.6276245,0.7322235,9.728195,0.0,0.0,0.0,119.0,0.6449443,0.7705356,9.755036,0.01788741,-0.0044680336,0.016414415,0.03585447,0.0367397,0.9956789,2017-01-30 11:51:17,47.0938265510179
0.6276245,0.7322235,9.675888,0.0,0.0,0.0,119.0,0.65044487,0.7608934,9.755426,0.02390887,0.025394645,0.13946143,0.036120698,0.03615197,0.9956827,2017-01-30 11:51:18,45.45258858842361
0.66685486,0.823761,9.728195,0.0,0.0,0.0,119.0,0.6500136,0.76144147,9.755413,0.022938043,0.1091264,0.0712674,0.03608156,0.036255963,0.9956757,2017-01-30 11:51:19,46.33663197404832
0.6276245,0.78453064,9.728195,-0.0012203903,3.4809456E-4,0.0016243204,119.0,0.6566735,0.7466273,9.756112,0.030300785,0.011960149,-0.009751384,0.036456794,0.035375904,0.99555546,2017-01-30 11:51:20,46.22324574542823
0.6276245,0.7060852,9.767426,0.0,0.0,0.0,119.0,0.64721364,0.76087826,9.755643,0.02120656,0.051517837,0.19420967,0.03600005,0.036084045,0.9956431,2017-01-30 11:51:21,40.99182420677697
0.6276245,0.7322235,9.728195,0.0,0.0,0.0,119.0,0.6578735,0.765996,9.75453,0.030432496,0.016665732,0.029678958,0.036539804,0.036308635,0.99551755,2017-01-30 11:51:22,44.75610383748413
0.78453064,0.78453064,9.571289,0.0,0.0,0.0,119.0,0.64518034,0.7735994,9.754778,-0.006679968,-0.004081418,0.11154902,0.03593709,0.036802944,0.9957885,2017-01-30 11:51:23,39.698854985002164
0.67993164,0.78453064,9.571289,0.0,0.0,0.0,119.0,0.6387195,0.7812365,9.754593,-0.014103189,-0.035767753,0.15216897,0.035452046,0.03738053,0.99597126,2017-01-30 11:51:24,42.23961250485779
0.5230255,0.78453064,9.675888,0.0,0.0,0.0,119.0,0.64939433,0.7863966,9.753474,0.10423647,0.0106534185,0.06938031,0.036026765,0.037593916,0.9959216,2017-01-30 11:51:25,44.99245606178949
0.67993164,0.78453064,9.728195,0.0,0.0,0.0,119.0,0.63750535,0.7896556,9.753995,0.011537891,0.013363574,0.12436714,0.03543441,0.037831813,0.9959883,2017-01-30 11:51:26,47.720231527587245
0.5753174,0.7322235,9.623596,0.0,0.0,0.0,119.0,0.63497496,0.7876771,9.754321,0.008742265,0.011266413,0.029377189,0.03522388,0.037780587,0.99608344,2017-01-30 11:51:27,47.83068720331243
0.5753174,0.78453064,9.780502,0.0,0.0,0.0,119.0,0.6386759,0.7899085,9.753898,0.1483434,0.01354875,0.028969841,0.035433367,0.037869394,0.996049,2017-01-30 11:51:28,45.449323603653696
0.6276245,0.7453003,9.688965,0.0,0.0,0.0,119.0,0.6180497,0.78052247,9.755982,-0.076306865,0.060580056,0.098983616,0.03430702,0.037619106,0.9962138,2017-01-30 11:51:29,43.554660973391854
0.78453064,0.83683777,9.728195,0.0,0.0,0.0,119.0,0.6393693,0.75863427,9.756334,0.06576978,-0.058069315,0.03146879,0.03531694,0.03626267,0.99602747,2017-01-30 11:51:30,45.15677050821828
0.5753174,0.94143677,9.728195,0.0,0.0,0.0,119.0,0.6486225,0.7679084,9.754999,-0.005154184,-0.008451408,0.03007051,0.03588962,0.03668033,0.9960141,2017-01-30 11:51:31,44.58046546543973
0.6276245,0.67993164,9.623596,0.0,0.0,0.0,119.0,0.63787216,0.7834085,9.754475,0.011336192,0.0070487624,0.1521299,0.035372373,0.037536684,0.99605525,2017-01-30 11:51:32,44.23833233720298
0.6276245,0.66685486,9.688965,0.0,0.0,0.0,119.0,0.64329314,0.7751874,9.754776,-0.025222614,0.040169332,0.11160555,0.03560201,0.0370885,0.99598646,2017-01-30 11:51:33,25.8501633741275
0.6276245,0.78453064,9.728195,0.0,0.0,0.0,119.0,0.6552436,0.7713306,9.754286,0.029147068,-0.0044061523,0.08376048,0.036390632,0.03668186,0.9956889,2017-01-30 11:51:34,25.19175570217543
0.6276245,0.78453064,9.728195,0.0,0.0,0.0,119.0,0.64800453,0.7765903,9.754353,0.10451299,-1.8070819E-4,0.13833165,0.036193635,0.0368686,0.99550897,2017-01-30 11:51:35,42.30983676347969
0.6276245,0.78453064,9.728195,0.0,0.0,0.0,119.0,0.6381274,0.7864746,9.754211,-0.070346616,0.009619152,0.029338116,0.035579406,0.037483122,0.995661,2017-01-30 11:51:36,45.214159489862226
0.67993164,0.78453064,9.728195,0.0,0.0,0.0,119.0,0.6418999,0.7845911,9.754116,0.015363885,0.008231316,0.08366987,0.035708524,0.037462283,0.99579734,2017-01-30 11:51:37,44.47466459912499
0.7060852,0.78453064,9.571289,0.0,0.0,0.0,119.0,0.6407456,0.76332176,9.755879,0.027531656,-0.0112979505,0.12617692,0.035530504,0.036498632,0.995895,2017-01-30 11:51:38,43.8258980166491
0.67993164,0.78453064,9.675888,0.0,0.0,0.0,119.0,0.6529696,0.74712515,9.756323,0.02591152,-0.06982933,0.08589116,0.036139734,0.03548511,0.995768,2017-01-30 11:51:39,49.010303891470464
0.58839417,0.7453003,9.688965,0.0,0.0,0.0,119.0,0.64876693,0.7730978,9.754579,-0.017848182,-0.031813785,0.13866584,0.036061596,0.03676711,0.99578243,2017-01-30 11:51:40,56.74799098131551
0.6276245,0.78453064,9.728195,0.0,0.0,0.0,119.0,0.64594245,0.7713935,9.754903,0.01940644,0.035894737,-0.065368354,0.035890136,0.036743324,0.9958277,2017-01-30 11:51:41,33.56614064018541
0.6276245,0.78453064,9.675888,0.0,0.0,0.0,119.0,0.6473696,0.76185286,9.755557,0.02083366,-8.866028E-4,0.12597159,0.035866186,0.036313556,0.9958993,2017-01-30 11:51:42,47.14697782051906
0.6276245,0.83683777,9.571289,0.0,0.0,0.0,119.0,0.6357507,0.77569765,9.755229,0.00946754,0.053285327,0.08480961,0.035343047,0.03703069,0.9958828,2017-01-30 11:51:43,42.35027306823409
0.6276245,0.7322235,9.623596,0.0,0.0,0.0,119.0,0.6380368,0.77787524,9.754908,0.011157146,0.0014987661,0.12534477,0.035463158,0.037139338,0.9958271,2017-01-30 11:51:44,43.46414898570338
0.6276245,0.78453064,9.675888,0.0,0.0,0.0,119.0,0.6391087,0.773965,9.755147,0.012572728,-0.043255817,0.030220145,0.03550371,0.036951084,0.9958657,2017-01-30 11:51:45,46.20720205258725
0.67993164,0.88912964,9.675888,0.0,0.0,0.0,119.0,0.6404854,0.7820611,9.754412,0.013767647,0.0052967034,0.08400988,0.035619922,0.03731464,0.99579716,2017-01-30 11:51:46,45.310410089329956
0.67993164,0.78453064,9.728195,0.0,0.0,0.0,119.0,0.64303184,0.78547645,9.75397,0.016467826,0.077789426,0.028997272,0.03573911,0.037562273,0.9958552,2017-01-30 11:51:47,44.10887110737944
0.5753174,0.7322235,9.675888,0.0,0.0,0.0,119.0,0.64037704,0.783316,9.754318,-0.06825512,0.03457517,0.0293855,0.035600353,0.037427407,0.9958538,2017-01-30 11:51:48,42.3822481273791
0.6276245,0.66685486,9.532059,0.0,0.0,0.0,118.0,0.63815963,0.77756226,9.754924,-0.070607126,0.029672097,0.09803258,0.03550809,0.03714556,0.9957364,2017-01-30 11:51:49,45.271138697199056
0.78453064,0.78453064,9.885101,0.0,0.0,0.0,118.0,0.6616292,0.7684306,9.754086,-0.07284987,-0.008176812,-0.03899556,0.036757346,0.036456022,0.99557114,2017-01-30 11:51:50,48.00818349599142
0.6276245,0.78453064,9.728195,0.0,0.0,0.0,118.0,0.66073954,0.7836969,9.75293,0.036394775,0.006487258,0.08240294,0.036941815,0.037126876,0.99541324,2017-01-30 11:51:51,51.22419380518118
0.7453003,0.7453003,9.610519,0.0,0.0,0.0,118.0,0.6451667,0.78644454,9.753752,-0.036302187,0.14528154,0.15151723,0.03597884,0.037451915,0.9955902,2017-01-30 11:51:52,46.64349057031664
0.67993164,0.78453064,9.571289,0.0,0.0,0.0,118.0,0.66074926,0.7555182,9.755152,-0.0066477545,-0.02084166,0.098326035,0.036626957,0.035834942,0.9956698,2017-01-30 11:51:53,58.354778944350436
0.6276245,0.78453064,9.728195,0.0,0.0,0.0,118.0,0.67749846,0.74937814,9.754477,0.051383372,-0.069763854,0.08414788,0.037520945,0.0353024,0.99554133,2017-01-30 11:51:54,62.70600092392014
0.6276245,0.66685486,9.688965,0.0,0.0,0.0,118.0,0.66443247,0.7706393,9.753719,0.037896503,0.04876087,0.09689284,0.036895294,0.036529116,0.9955902,2017-01-30 11:51:55,47.08012361803617
0.5753174,0.78453064,9.728195,0.0,0.0,0.0,118.0,0.65954065,0.76156116,9.754765,0.033481464,-0.01506991,0.16602874,0.036673777,0.03607025,0.99552745,2017-01-30 11:51:56,45.07602171148403
0.78453064,0.66685486,9.688965,0.0,0.0,0.0,118.0,0.63992244,0.77572215,9.754954,-0.10896346,-0.06975471,0.098193854,0.03568019,0.03686904,0.99561316,2017-01-30 11:51:57,49.39996464672725
0.6276245,0.83683777,9.675888,0.0,0.0,0.0,118.0,0.65759194,0.7610437,9.754936,-0.09152714,-0.09703817,0.08448955,0.036506463,0.036110587,0.99562514,2017-01-30 11:51:58,47.05213279828762
0.6276245,0.88912964,9.728195,0.0,0.0,0.0,118.0,0.66438186,0.7549653,9.754949,0.039790772,-0.02178838,0.029917546,0.036960278,0.03571028,0.995546,2017-01-30 11:51:59,38.44753278903292
0.58839417,0.7453003,9.571289,0.0,0.0,0.0,118.0,0.6398256,0.7777259,9.754802,0.013289586,0.0013660666,0.029873485,0.035711925,0.036989234,0.9955304,2017-01-30 11:52:00,42.52179534546393
0.6276245,0.78453064,9.728195,0.0,0.0,0.0,119.0,0.64347637,0.7646746,9.755593,0.016174631,0.031158604,0.08504237,0.035805225,0.036421545,0.9955654,2017-01-30 11:52:01,47.45581323495813
0.67993164,0.78453064,9.571289,0.0,0.0,0.0,118.0,0.64848894,0.7594058,9.755673,0.02195298,-0.11229648,0.08522693,0.03601739,0.0360814,0.9956839,2017-01-30 11:52:02,47.47620225532408
0.6276245,0.83683777,9.675888,0.0,0.0,0.0,118.0,0.6474066,0.78478265,9.7537365,0.07536633,0.00825532,0.028821034,0.0359971,0.037435774,0.9957736,2017-01-30 11:52:03,48.081608729334505
0.5753174,0.83683777,9.675888,0.0,0.0,0.0,118.0,0.64778477,0.7821201,9.753925,0.0212488,-0.03510072,0.05623797,0.035964124,0.037347358,0.995862,2017-01-30 11:52:04,46.57912953372233
0.67993164,0.83683777,9.780502,0.0,0.0,0.0,118.0,0.64345586,0.7841827,9.7540455,0.016919909,-0.033038113,0.029117815,0.03586805,0.03735718,0.99562776,2017-01-30 11:52:05,46.5624857321104
0.6276245,0.78453064,9.780502,0.0,0.0,0.0,118.0,0.64293796,0.7776465,9.754603,0.016535215,0.042559795,0.1249765,0.03580361,0.037065893,0.99568284,2017-01-30 11:52:06,49.242772745370225
0.6276245,0.78453064,9.728195,0.0,0.0,0.0,118.0,0.6402098,0.7793812,9.754644,0.06843567,0.002138415,0.0978713,0.035592675,0.037176203,0.9958526,2017-01-30 11:52:07,71.03178186645431
0.67993164,0.78453064,9.728195,0.0,0.0,0.0,118.0,0.64226747,0.79152656,9.753531,-0.025336089,-0.012714468,0.028668901,0.035792556,0.037734333,0.9956811,2017-01-30 11:52:08,75.82465092009213
0.5753174,0.7322235,9.728195,0.0,0.0,0.0,118.0,0.63643146,0.7909801,9.753958,0.06561978,0.014931443,0.09702585,0.035538975,0.03780172,0.9957515,2017-01-30 11:52:09,67.06417922859934
0.5753174,0.83683777,9.675888,0.0,0.0,0.0,118.0,0.61978763,0.78636485,9.7554035,-0.0067483443,-0.003615307,0.112197444,0.034460798,0.03770039,0.99601805,2017-01-30 11:52:10,57.898903450270254
0.6276245,0.78453064,9.832794,0.0,0.0,0.0,116.0,0.6189039,0.7865781,9.755443,-0.048493132,0.05107937,0.04413478,0.0344408,0.037745774,0.99603486,2017-01-30 11:52:11,59.18845656476787
0.6276245,0.78453064,9.728195,0.0,0.0,0.0,116.0,0.63249683,0.7912375,9.754193,0.005960825,-0.025983376,0.08374635,0.035130978,0.037952486,0.99604195,2017-01-30 11:52:12,71.93041804295379
0.67993164,0.78453064,9.728195,0.0,0.0,0.0,118.0,0.6356931,0.7956777,9.753624,0.009157094,0.01931785,0.12403877,0.03542017,0.038065746,0.9958158,2017-01-30 11:52:13,58.98152050314253
0.7322235,0.78453064,9.571289,0.0,0.0,0.0,119.0,0.63506097,0.791777,9.753983,-0.14129885,0.056278232,0.1924988,0.035469715,0.037801612,0.9956806,2017-01-30 11:52:14,67.06488799888935
0.6276245,0.83683777,9.675888,0.0,0.0,0.0,119.0,0.6439298,0.79891753,9.752819,0.01714078,-0.017818669,0.08234973,0.03591332,0.0381428,0.99567455,2017-01-30 11:52:15,47.69453706348317
0.6276245,0.78453064,9.728195,0.0,0.0,0.0,118.0,0.6343991,0.79196787,9.754011,0.008990571,0.057270154,0.083425455,0.035463672,0.03785877,0.99569494,2017-01-30 11:52:16,46.39699273179453
0.6276245,0.88912964,9.832794,0.0,0.0,0.0,119.0,0.63333213,0.7604007,9.756591,0.020416493,0.106624074,0.15424645,0.035259444,0.036052424,0.9957304,2017-01-30 11:52:17,50.67995386956204
0.78453064,0.67993164,9.780502,0.0,0.0,0.0,118.0,0.6394927,0.74138004,9.757653,0.012697842,-0.035345808,0.060010497,0.035410937,0.035241183,0.9958675,2017-01-30 11:52:18,48.81661780614579
0.6276245,0.78453064,9.675888,0.0,0.0,0.0,119.0,0.6432408,0.7695607,9.755224,0.016366197,-0.07664729,0.16666055,0.035726693,0.036570836,0.99576074,2017-01-30 11:52:19,51.806409267981515
0.6276245,0.83683777,9.728195,0.0,0.0,0.0,118.0,0.63827026,0.789975,9.75392,0.011734238,0.013615204,0.08347285,0.03555256,0.03777981,0.9957151,2017-01-30 11:52:20,48.50237935133934
0.6276245,0.7322235,9.571289,0.0,0.0,0.0,118.0,0.64057106,0.7854261,9.754135,0.027655471,0.1316494,0.07006864,0.035706803,0.037450187,0.99566984,2017-01-30 11:52:21,53.04820445231124
0.6276245,0.78453064,9.728195,0.0,0.0,0.0,118.0,0.64959866,0.7549131,9.755948,0.023062687,-0.021446757,0.017399529,0.036042724,0.035835873,0.99572223,2017-01-30 11:52:22,47.12071770302073
0.7453003,0.7060852,9.728195,0.0,0.0,0.0,118.0,0.6411371,0.7595596,9.756147,-0.039850935,0.11916193,0.08571741,0.03559156,0.03615713,0.9958077,2017-01-30 11:52:23,49.30674041574025
0.5753174,0.67993164,9.675888,0.0,0.0,0.0,118.0,0.6627486,0.74460125,9.755856,0.03621256,-0.08623995,0.017307252,0.036785357,0.035165828,0.9954621,2017-01-30 11:52:24,39.93731538503606
0.6276245,0.78453064,9.675888,0.0,0.0,0.0,119.0,0.658788,0.76247287,9.754744,0.08914852,-0.111300446,0.043434806,0.0368492,0.035898864,0.99526024,2017-01-30 11:52:25,43.03204429932408
0.6276245,0.78453064,9.728195,0.0,0.0,0.0,119.0,0.6376555,0.7694318,9.755602,0.011760788,-0.006657938,0.13957281,0.03565982,0.036529012,0.9954203,2017-01-30 11:52:26,45.52064330892173
0.6276245,0.83683777,9.728195,0.0,0.0,0.0,119.0,0.63397986,0.7699974,9.7557955,0.0074438998,-0.074464194,-0.037233993,0.035389133,0.036611933,0.9955407,2017-01-30 11:52:27,49.50357178384587
0.6276245,0.78453064,9.623596,0.0,0.0,0.0,119.0,0.63322264,0.77645046,9.755334,0.0067481366,-0.04043998,0.15295874,0.035324723,0.03701493,0.9956493,2017-01-30 11:52:28,45.59978833202322
0.6276245,0.78453064,9.728195,0.0,0.0,0.0,119.0,0.63084096,0.7730032,9.755762,-0.036567274,-0.0031219185,0.030817034,0.03517762,0.036851283,0.99567676,2017-01-30 11:52:29,45.952451761210405
0.67993164,0.78453064,9.728195,0.0,0.0,0.0,119.0,0.6395441,0.7817851,9.754496,0.013008133,-0.10353754,0.13853034,0.03581571,0.03717783,0.99535066,2017-01-30 11:52:30,46.877364722895514
0.6276245,0.78453064,9.675888,0.0,0.0,0.0,120.0,0.6403541,0.79193944,9.753623,0.014703662,-0.05286873,-0.012195465,0.03588375,0.037649833,0.99540937,2017-01-30 11:52:32,48.904441267607666
0.5753174,0.83683777,9.675888,0.0,0.0,0.0,120.0,0.6339608,0.79296494,9.753957,0.007424935,-0.03787624,0.09713143,0.03546356,0.037800964,0.99553484,2017-01-30 11:52:33,48.072310275986965
0.6276245,0.66685486,9.610519,0.0,0.0,0.0,120.0,0.62943923,0.7905571,9.754447,0.0031536126,0.042056426,0.029452005,0.035248984,0.037716985,0.99552375,2017-01-30 11:52:34,46.21269715168657
0.6276245,0.78453064,9.728195,0.0,0.0,0.0,120.0,0.64548016,0.76452136,9.755473,-0.021916868,-0.011838414,0.030545192,0.035985287,0.03625435,0.9954602,2017-01-30 11:52:35,44.82373598324987
0.5753174,0.67993164,9.675888,0.0,0.0,0.0,120.0,0.6579854,0.7597991,9.755007,0.045069758,-0.016560676,0.09818056,0.036631446,0.03593384,0.9953838,2017-01-30 11:52:36,50.384394766880696
0.66685486,0.823761,9.688965,0.0,0.0,0.0,120.0,0.6434635,0.7798773,9.754391,-0.03602572,-0.024020214,0.07024654,0.03589559,0.037094604,0.9955424,2017-01-30 11:52:37,53.73908218618628
0.67993164,0.78453064,9.728195,0.0,0.0,0.0,120.0,0.6640309,0.7721447,9.753627,0.09225615,-0.004321669,0.028688855,0.036912996,0.03661765,0.9955206,2017-01-30 11:52:38,47.66648893395022
0.6276245,0.78453064,9.728195,0.0,0.0,0.0,120.0,0.6434959,0.77846247,9.754501,0.016959917,0.0021026682,0.02957338,0.035826262,0.03708544,0.9956825,2017-01-30 11:52:39,46.38533994469781
0.6276245,0.78453064,9.571289,0.0,0.0,0.0,120.0,0.6319934,0.78157103,9.755006,0.005729614,0.0049999743,0.057317022,0.03525726,0.037284136,0.9956857,2017-01-30 11:52:40,46.84723016825555
0.6276245,0.78453064,9.571289,0.0,0.0,0.0,120.0,0.63509476,0.7764359,9.755214,-0.0052321204,-0.04058655,0.12562327,0.035339154,0.037066527,0.9957894,2017-01-30 11:52:41,45.42114489242296
0.6276245,0.88912964,9.728195,0.0,0.0,0.0,120.0,0.62870926,0.78490776,9.75495,0.0021732785,0.008547945,-0.010839582,0.03506441,0.03746819,0.9956364,2017-01-30 11:52:42,46.17774041735387
0.78453064,0.7322235,9.623596,0.0,0.0,0.0,120.0,0.61997104,0.7868688,9.755351,-0.0067267297,0.010626764,0.084905215,0.034750007,0.037522748,0.99550253,2017-01-30 11:52:43,48.755230437958595
0.6276245,0.78453064,9.571289,0.0,0.0,0.0,118.0,0.6357733,0.7847201,9.754506,0.008614554,0.10431694,0.09767096,0.035572406,0.03733164,0.9953784,2017-01-30 11:52:44,60.38001777951018
0.6276245,0.78453064,9.728195,0.0,0.0,0.0,118.0,0.6541286,0.7496822,9.756048,0.025584912,0.017206246,0.11274446,0.036298573,0.035600577,0.9954173,2017-01-30 11:52:45,60.950462124715884
0.67993164,0.78453064,9.728195,0.0,0.0,0.0,119.0,0.6637777,0.7374736,9.756328,0.038290806,-0.040198013,0.07228827,0.03696143,0.034615103,0.9952255,2017-01-30 11:52:46,58.01074311612665
0.7453003,0.823761,9.610519,0.0,0.0,0.0,119.0,0.64779145,0.7603932,9.755643,-0.11494803,-0.015966645,0.19415896,0.036048405,0.036072016,0.9955473,2017-01-30 11:52:47,48.65122424728889
0.67993164,0.78453064,9.675888,0.0,0.0,0.0,119.0,0.67872155,0.7787724,9.75209,-0.05853714,0.042214327,0.08184845,0.03780669,0.036632743,0.99501485,2017-01-30 11:52:48,46.13908172856675
0.66685486,0.7060852,9.610519,0.0,0.0,0.0,120.0,0.6722954,0.78661686,9.751905,0.045759387,-0.098705694,0.08145856,0.037667252,0.037046365,0.9948689,2017-01-30 11:52:49,47.66073642888301
0.6276245,0.7322235,9.780502,0.0,0.0,0.0,120.0,0.67501694,0.80206,9.750459,-0.10403144,0.13504612,0.025684463,0.037738472,0.037854,0.99483955,2017-01-30 11:52:50,45.049942363169
0.67993164,0.78453064,9.623596,0.0,0.0,0.0,120.0,0.69692165,0.77288985,9.751273,0.09891701,0.011871094,0.05335745,0.0389977,0.036253106,0.9946927,2017-01-30 11:52:51,48.94706981961504
0.6276245,0.78453064,9.675888,0.0,0.0,0.0,119.0,0.6527009,0.76661664,9.7548275,0.02932388,0.08470865,0.08423933,0.036644954,0.03614668,0.9951553,2017-01-30 11:52:52,46.775754886106384
0.67993164,0.78453064,9.728195,0.0,0.0,0.0,120.0,0.6293293,0.7742469,9.755762,0.003615307,-0.029887564,0.085304245,0.035101373,0.03691967,0.99576795,2017-01-30 11:52:53,49.595895443677165
0.66685486,0.823761,9.728195,0.0,0.0,0.0,120.0,0.63176745,0.7732408,9.755684,-0.020615594,-0.030472295,0.15325801,0.035072222,0.036993615,0.99598885,2017-01-30 11:52:54,52.780076778356964
0.6276245,0.78453064,9.728195,0.0,0.0,0.0,119.0,0.6610537,0.77084285,9.753933,0.03451776,-0.0055170036,0.05624545,0.03691966,0.036503308,0.99548954,2017-01-30 11:52:55,42.40639755867199
0.6276245,0.78453064,9.675888,0.0,0.0,0.0,120.0,0.6602394,0.7784488,9.753384,0.03544608,0.055307098,0.028438626,0.036850672,0.03686135,0.995468,2017-01-30 11:52:56,47.8935766918264
0.66685486,0.86299133,9.571289,0.0,0.0,0.0,120.0,0.6429977,0.79911345,9.752865,0.016795523,-0.005672045,0.1642148,0.03599175,0.037988108,0.9954456,2017-01-30 11:52:57,56.42998799070096
0.6276245,0.83683777,9.728195,0.0,0.0,0.0,119.0,0.64807594,0.78973264,9.753292,0.007919623,-2.475775E-4,0.09646637,0.036212698,0.037538555,0.99542654,2017-01-30 11:52:58,45.72723249768384
0.6276245,0.78453064,9.675888,0.0,0.0,0.0,119.0,0.6588423,0.78677124,9.75281,-0.008430728,0.011041021,0.068684496,0.036824908,0.03726934,0.99524915,2017-01-30 11:52:59,49.307689261323986
0.7060852,0.823761,9.571289,0.0,0.0,0.0,119.0,0.647741,0.7869143,9.753543,-0.10137808,0.07865623,0.19205903,0.036315754,0.03726822,0.99514395,2017-01-30 11:53:00,46.57157598813295
0.6276245,0.78453064,9.728195,0.0,0.0,0.0,119.0,0.66453254,0.76176816,9.75441,-0.01770878,0.02695046,0.043131378,0.037019238,0.035938885,0.9951276,2017-01-30 11:53:01,46.48790721761902
0.6276245,0.78453064,9.780502,0.0,0.0,0.0,119.0,0.65951097,0.77530473,9.753683,-0.060677323,-0.0027450707,0.17859912,0.036944512,0.036533028,0.9951459,2017-01-30 11:53:02,46.467248707949324
0.6276245,0.78453064,9.728195,0.0,0.0,0.0,119.0,0.6398163,0.79439026,9.75346,0.013293535,0.017054945,0.08309127,0.035847273,0.03772202,0.99534863,2017-01-30 11:53:03,58.086746443152684
0.6276245,0.78453064,9.675888,0.0,0.0,0.0,118.0,0.64070535,0.7984597,9.753069,0.014180242,-0.032290757,0.082614094,0.03589463,0.037998594,0.99537784,2017-01-30 11:53:04,61.80135082130991
0.6276245,0.88912964,9.623596,0.0,0.0,0.0,119.0,0.6343356,0.79347306,9.753892,0.0069141407,-0.024091654,0.029048817,0.035535388,0.037777785,0.99542654,2017-01-30 11:53:05,51.36299868524739
0.6276245,0.78453064,9.571289,0.0,0.0,0.0,119.0,0.6285064,0.7909655,9.754473,0.0020031175,0.014978829,0.029513523,0.035264947,0.0376608,0.9953681,2017-01-30 11:53:06,56.52880631252195
0.6276245,0.78453064,9.728195,0.0,0.0,0.0,119.0,0.63211113,0.7813899,9.755013,0.0055751437,-0.008590238,0.12542708,0.03538376,0.037100986,0.9954436,2017-01-30 11:53:07,58.01391229446146
0.67993164,0.83683777,9.623596,0.0,0.0,0.0,119.0,0.63613445,0.7732703,9.755398,0.009470086,-0.04368909,0.030456241,0.035486177,0.036804046,0.99557495,2017-01-30 11:53:08,46.57535888222402
0.78453064,0.78453064,9.64975,0.0,0.0,0.0,119.0,0.6388498,0.7764591,9.754966,-0.055787966,9.923882E-5,0.07089913,0.035648897,0.036936373,0.9955519,2017-01-30 11:53:09,46.979758530060174
0.67993164,0.78453064,9.780502,0.0,0.0,0.0,119.0,0.6643619,0.7693283,9.753828,0.039624505,0.03285922,0.028852625,0.03704468,0.036344353,0.99524546,2017-01-30 11:53:10,55.035451636863186
0.6276245,0.83683777,9.675888,0.0,0.0,0.0,119.0,0.6757967,0.76371723,9.753483,0.050868835,-0.013210767,0.028487675,0.037752893,0.03590172,0.9950722,2017-01-30 11:53:11,60.07889745732487
0.6276245,0.78453064,9.688965,0.0,0.0,0.0,119.0,0.6539821,0.77629447,9.753977,0.014264672,-5.9060095E-4,0.0699215,0.036530614,0.036757495,0.99528325,2017-01-30 11:53:12,54.50945403829884
0.6276245,0.88912964,9.780502,0.0,0.0,0.0,119.0,0.66003275,0.7692455,9.754128,0.033448994,0.034627024,0.02913361,0.03687863,0.036348995,0.99512917,2017-01-30 11:53:13,45.41057531636018
0.6276245,0.78453064,9.623596,0.0,0.0,0.0,119.0,0.6408721,0.77167124,9.755214,0.01544894,0.008577612,0.12558253,0.03586652,0.03658451,0.9953843,2017-01-30 11:53:14,47.13754218704473
0.6276245,0.78453064,9.623596,0.0,0.0,0.0,119.0,0.63735104,0.77683294,9.755034,0.06529645,0.06857481,0.13906904,0.03561977,0.03691733,0.9954551,2017-01-30 11:53:15,53.984478877068575
0.6276245,0.78453064,9.780502,0.0,0.0,0.0,119.0,0.6332228,0.7759295,9.755375,0.0066868267,-4.3031204E-4,0.08492848,0.03533983,0.036951043,0.99560523,2017-01-30 11:53:16,54.317464507197315
0.66685486,0.66685486,9.492844,0.0,0.0,0.0,119.0,0.62563086,0.7705925,9.756289,-0.06947747,0.0347723,0.16761988,0.03481993,0.036814585,0.9958615,2017-01-30 11:53:17,47.883779525291644
0.6276245,0.78453064,9.728195,0.0,0.0,0.0,119.0,0.6426939,0.74706393,9.7570095,0.01766737,-0.031813737,0.113895826,0.03554034,0.03560717,0.99599904,2017-01-30 11:53:18,44.72553671821932
0.67993164,0.78453064,9.728195,0.0,0.0,0.0,119.0,0.6578531,0.7440322,9.756231,0.08558382,-0.034114517,0.09955557,0.036353875,0.035233613,0.9958339,2017-01-30 11:53:19,48.1904202727739
0.7060852,0.7060852,9.767426,0.0,0.0,0.0,119.0,0.6495882,0.7725802,9.754565,0.023052245,0.09156283,0.17946121,0.03615171,0.036723945,0.9956026,2017-01-30 11:53:20,56.415331232600145
0.6276245,0.7322235,9.675888,0.0,0.0,0.0,119.0,0.6665546,0.7510649,9.755102,-0.0015093135,-0.06576271,0.016568208,0.036989566,0.035486262,0.9954078,2017-01-30 11:53:21,58.68449465318504
0.6276245,0.78453064,9.728195,0.0,0.0,0.0,119.0,0.6560511,0.776124,9.753852,0.08566472,-0.097588405,0.056212198,0.03662321,0.036719378,0.9954762,2017-01-30 11:53:22,61.32723244975396
0.67993164,0.7322235,9.675888,0.0,0.0,0.0,119.0,0.64343745,0.78623843,9.753881,0.016419195,0.050826337,0.0425985,0.035806093,0.037528314,0.99576557,2017-01-30 11:53:23,49.394976075536036
0.6276245,0.7453003,9.571289,0.0,0.0,0.0,119.0,0.660504,0.7723027,9.753855,0.07661539,-0.006045931,0.19240652,0.03666817,0.036705505,0.9956663,2017-01-30 11:53:24,51.50039194880566
0.5753174,0.78453064,9.675888,0.0,0.0,0.0,119.0,0.6640604,0.7565188,9.754849,0.039369915,-0.01944551,-0.06557702,0.03690223,0.03587893,0.99564326,2017-01-30 11:53:25,49.47122702140302
0.67993164,0.7322235,9.675888,0.0,0.0,0.0,119.0,0.63709116,0.77523744,9.755179,-0.04370452,-0.0022713742,0.030328218,0.035399202,0.036977075,0.99589574,2017-01-30 11:53:26,47.83987255936273
0.6276245,0.78453064,9.728195,0.0,0.0,0.0,119.0,0.64293045,0.7848079,9.75403,0.016807577,0.008192139,-0.011764841,0.035724252,0.03750537,0.9958705,2017-01-30 11:53:27,45.58624039093196
0.6276245,0.83683777,9.675888,0.0,0.0,0.0,119.0,0.63934004,0.77642417,9.754938,0.013988363,5.046632E-4,0.0707578,0.03554944,0.037129756,0.99593335,2017-01-30 11:53:28,43.82780441194094
0.6276245,0.83683777,9.675888,0.0,0.0,0.0,119.0,0.63057846,0.7821958,9.755046,0.004274596,0.004907126,-0.05154434,0.03516628,0.037301052,0.995749,2017-01-30 11:53:29,49.1500569776328
0.6276245,0.78453064,9.728195,0.0,0.0,0.0,119.0,0.6316833,0.792373,9.754154,0.0050118207,-0.01177887,0.029279092,0.035262335,0.037821006,0.99569285,2017-01-30 11:53:30,52.545716740108375
0.66685486,0.7060852,9.728195,0.0,0.0,0.0,119.0,0.6324083,0.788777,9.754398,0.04595028,0.09533791,0.19286874,0.035224933,0.037758306,0.9957654,2017-01-30 11:53:31,49.3312444917888
0.5753174,0.83683777,9.728195,0.0,0.0,0.0,119.0,0.64969146,0.76386267,9.755245,0.023155484,-0.026117425,-0.065025024,0.03606424,0.036336068,0.9957419,2017-01-30 11:53:32,47.012681709117714
0.7060852,0.78453064,9.610519,0.0,0.0,0.0,119.0,0.63272554,0.7706705,9.755825,-0.061912198,0.035171747,0.058137532,0.03513928,0.036832266,0.9959361,2017-01-30 11:53:33,49.15685629153032
0.78453064,0.78453064,9.571289,0.0,0.0,0.0,119.0,0.63670856,0.7748609,9.755234,-0.09600748,-0.0027455902,0.11194389,0.035451047,0.03694244,0.9957321,2017-01-30 11:53:34,50.50525823882361
0.6276245,0.83683777,9.675888,0.0,0.0,0.0,119.0,0.6740008,0.76630884,9.753405,0.102541976,-0.16100128,0.13748537,0.03753601,0.03610345,0.99526393,2017-01-30 11:53:35,49.45976326892983
0.7060852,0.7453003,9.64975,0.0,0.0,0.0,119.0,0.64723295,0.78339785,9.753859,-0.020164084,0.020658407,0.056171466,0.03608105,0.037257593,0.995477,2017-01-30 11:53:36,45.63776447573566
0.6276245,0.78453064,9.728195,0.0,0.0,0.0,119.0,0.65302825,0.7776672,9.753932,0.0264923,-0.05317398,0.08348531,0.036340546,0.036975462,0.9956424,2017-01-30 11:53:37,45.181684437835834
0.6276245,0.78453064,9.675888,0.0,0.0,0.0,119.0,0.64529437,0.78516287,9.753846,0.017666278,0.023124933,0.08341465,0.035866905,0.037494723,0.9958243,2017-01-30 11:53:38,41.32311180880844
0.7060852,0.6276245,9.571289,0.0,0.0,0.0,119.0,0.64137715,0.78736603,9.753927,-0.10774198,0.06548765,0.06985998,0.035688978,0.037640058,0.99586487,2017-01-30 11:53:39,41.50491447070716
0.6276245,0.78453064,9.728195,0.0,0.0,0.0,119.0,0.658605,0.7797547,9.75339,0.03196701,0.0031064872,0.09659357,0.036574885,0.037098303,0.995697,2017-01-30 11:53:40,36.61904484410735
0.6276245,0.78453064,9.623596,0.0,0.0,0.0,119.0,0.6538516,0.786733,9.753149,0.028058559,0.008860417,0.16449745,0.03640886,0.037396744,0.99567086,2017-01-30 11:53:41,45.14405620813093
0.7322235,0.78453064,9.728195,0.0,0.0,0.0,119.0,0.6603716,0.7828568,9.753022,-0.01884379,0.15334228,0.19165419,0.036777828,0.037171006,0.99548966,2017-01-30 11:53:42,51.06779989817323
0.6276245,0.78453064,9.675888,0.0,0.0,0.0,119.0,0.66554165,0.7531729,9.755008,-0.0030902764,0.017054114,0.030212665,0.036902364,0.035654675,0.995577,2017-01-30 11:53:43,59.868363069842616
0.66685486,0.7453003,9.532059,0.0,0.0,0.0,119.0,0.64618576,0.77886444,9.7542925,-0.034831636,0.09784705,0.151947,0.035922207,0.037136894,0.9957654,2017-01-30 11:53:44,68.26774174516304
0.5753174,0.7322235,9.623596,0.0,0.0,0.0,119.0,0.67923117,0.75865835,9.753638,-0.013130285,-0.019881072,0.15130441,0.037633806,0.035868134,0.99551713,2017-01-30 11:53:45,59.46144893075058
0.5753174,0.78453064,9.780502,0.0,0.0,0.0,119.0,0.6835724,0.7439577,9.754469,0.10857512,0.009790092,0.016024524,0.037861414,0.035029568,0.99538594,2017-01-30 11:53:46,47.11191757830651
0.6276245,0.78453064,9.728195,0.0,0.0,0.0,120.0,0.6497723,0.7602101,9.755526,-0.044735875,-0.056922663,0.112303026,0.036040906,0.036162414,0.9957762,2017-01-30 11:53:47,51.05253028670981
0.5753174,0.78453064,9.675888,0.0,0.0,0.0,119.0,0.65565497,0.76539636,9.754726,0.028977582,0.015754035,0.1115698,0.03625772,0.03647213,0.99595153,2017-01-30 11:53:48,45.39050739365386
0.6276245,0.78453064,9.728195,0.0,0.0,0.0,119.0,0.655596,0.77718496,9.753798,0.029060038,8.251371E-4,0.06973029,0.03633942,0.037104324,0.99584144,2017-01-30 11:53:49,53.4979289464212
0.6276245,0.88912964,9.675888,0.0,0.0,0.0,119.0,0.64962834,0.78681207,9.753426,-0.017419169,0.009962279,0.110235535,0.03607447,0.03757046,0.99588484,2017-01-30 11:53:50,58.89645900306783
0.7453003,0.78453064,9.571289,0.0,0.0,0.0,119.0,0.6465989,0.7828723,9.753943,-0.03466911,-0.0074448865,0.24698435,0.03592393,0.037343673,0.99580044,2017-01-30 11:53:51,64.1472857050501
0.6276245,0.7322235,9.571289,0.0,0.0,0.0,120.0,0.66953015,0.7847898,9.752242,0.19159344,0.0083523765,0.0955062,0.037208248,0.037215523,0.99543273,2017-01-30 11:53:52,47.17980305685441
0.6276245,0.83683777,9.623596,0.0,0.0,0.0,120.0,0.6735763,0.78103364,9.752266,0.0470403,0.0046738368,0.054578654,0.037403483,0.03706563,0.99555486,2017-01-30 11:53:53,46.818923039332965
0.6276245,0.88912964,9.728195,0.0,0.0,0.0,120.0,0.64646536,0.78710335,9.7536125,0.00722043,-0.030645365,0.19210975,0.035960123,0.03757655,0.9958546,2017-01-30 11:53:54,46.40146161069452
0.6276245,0.78453064,9.728195,0.0,0.0,0.0,120.0,0.63956004,0.79087794,9.753762,0.013522095,0.01445572,0.06966711,0.035529964,0.037889365,0.9960015,2017-01-30 11:53:55,42.6709843502489
0.7060852,0.6276245,9.728195,0.0,0.0,0.0,120.0,0.6352036,0.78098315,9.754843,-0.059434135,0.07272507,0.084396444,0.035135925,0.037391707,0.99624085,2017-01-30 11:53:56,40.936261975828046
0.67993164,0.78453064,9.623596,0.0,0.0,0.0,119.0,0.66345954,0.7479326,9.755553,0.038687296,-0.029407531,0.0850615,0.036511067,0.035667825,0.9961476,2017-01-30 11:53:57,42.55776777968309
0.7322235,0.88912964,9.728195,0.0,0.0,0.0,119.0,0.6699828,0.76039606,9.754143,0.0979282,-0.05682478,0.12455752,0.03690749,0.03628763,0.99587053,2017-01-30 11:53:58,45.829662741919236
0.66685486,0.78453064,9.610519,0.0,0.0,0.0,119.0,0.64314383,0.78829086,9.753735,0.017613126,-0.016363705,-0.012035021,0.035813574,0.03760773,0.9958281,2017-01-30 11:53:59,50.68614597051961
0.6276245,0.78453064,9.728195,0.0,0.0,0.0,119.0,0.64535075,0.7814706,9.754138,0.018814746,-0.062990986,0.07007114,0.035929795,0.037234537,0.9956796,2017-01-30 11:54:00,50.2801306920744
0.67993164,0.78453064,9.675888,0.0,0.0,0.0,119.0,0.6546502,0.76914996,9.7544985,-0.01249287,-0.0075402805,0.1521615,0.03638959,0.03653526,0.99561393,2017-01-30 11:54:01,45.7592645918015
0.6276245,0.78453064,9.780502,0.0,0.0,0.0,119.0,0.6527451,0.77894187,9.753849,0.026209133,0.002582028,-0.01194025,0.036244556,0.03713449,0.99573445,2017-01-30 11:54:02,47.4219013082213
0.6276245,0.7060852,9.64975,0.0,0.0,0.0,119.0,0.64735657,0.7787628,9.754223,0.061819766,0.03004162,0.12459575,0.036010765,0.03712692,0.9957201,2017-01-30 11:54:03,46.457391849774645
0.6276245,0.78453064,9.728195,0.0,0.0,0.0,119.0,0.6415728,0.77292496,9.755069,0.015036813,0.09190763,0.030140338,0.03578341,0.036735334,0.9955322,2017-01-30 11:54:04,44.2227990362532
0.67993164,0.7322235,9.675888,0.0,0.0,0.0,119.0,0.63101166,0.7745538,9.755629,0.004475671,-0.0018060427,-0.02378074,0.035215095,0.036920164,0.9956348,2017-01-30 11:54:05,40.057601414765436
0.7060852,0.7060852,9.688965,0.0,0.0,0.0,120.0,0.64781344,0.76572603,9.755224,0.019665968,0.10017827,0.0711186,0.03598752,0.036453806,0.99555624,2017-01-30 11:54:06,47.30054406954593
0.67993164,0.78453064,9.728195,0.0,0.0,0.0,120.0,0.66229814,0.74276274,9.756027,0.090586394,-0.033286106,0.1263939,0.03664091,0.03522679,0.9957613,2017-01-30 11:54:07,55.401774490279855
0.6276245,0.83683777,9.728195,0.0,0.0,0.0,120.0,0.64711136,0.7664414,9.755215,0.020575378,-0.050779417,0.030286651,0.035898015,0.036643833,0.9957391,2017-01-30 11:54:08,45.43861977024964
0.7453003,0.66685486,9.64975,0.0,0.0,0.0,120.0,0.63961226,0.7883305,9.753964,-0.10950688,0.08007243,0.097138084,0.0357689,0.037550572,0.9955842,2017-01-30 11:54:09,50.42021025881194
0.6276245,0.78453064,9.675888,0.0,0.0,0.0,120.0,0.6683623,0.7493256,9.755111,0.040475987,-0.025002468,0.13908234,0.036970045,0.0355561,0.9955775,2017-01-30 11:54:10,49.93766751325522
0.7322235,0.78453064,9.675888,0.0,0.0,0.0,119.0,0.6684935,0.7669505,9.753733,0.016376745,-0.012578392,0.06980096,0.037198156,0.036159255,0.9955101,2017-01-30 11:54:11,46.356348941968136
0.823761,0.78453064,9.688965,0.0,0.0,0.0,120.0,0.6595007,0.79388964,9.75219,-0.1560981,0.057441823,-0.04087268,0.03680428,0.03771213,0.9954151,2017-01-30 11:54:12,46.05785094399071
0.6276245,0.78453064,9.780502,0.0,0.0,0.0,120.0,0.6738536,0.7825263,9.752126,0.00642917,0.0063592866,0.027184166,0.03754266,0.037029736,0.99529403,2017-01-30 11:54:13,44.691020272492665
0.6276245,0.7322235,9.675888,0.0,0.0,0.0,120.0,0.6619162,0.7900186,9.752339,-0.019101135,0.05451984,0.027411116,0.036854073,0.03756133,0.9955395,2017-01-30 11:54:14,49.83671122163932
0.67993164,0.83683777,9.623596,0.0,0.0,0.0,120.0,0.65094143,0.7787702,9.7539835,0.024405427,0.0024103606,0.029055465,0.036292728,0.036988202,0.9954879,2017-01-30 11:54:15,46.43145647013847
0.6276245,0.83683777,9.675888,0.0,0.0,0.0,120.0,0.64874244,0.76136404,9.755504,0.022298655,-0.041532647,0.030515265,0.036088202,0.03617346,0.99558645,2017-01-30 11:54:16,48.90233655708445
0.6276245,0.83683777,9.571289,0.0,0.0,0.0,120.0,0.6487112,0.77600735,9.754353,0.022344481,-0.0010670512,0.07032967,0.036142137,0.03684984,0.9955654,2017-01-30 11:54:17,48.722921597917505
0.6276245,0.94143677,9.728195,0.0,0.0,0.0,120.0,0.6478852,0.791798,9.753138,0.07583062,-0.0662839,0.069071054,0.036183465,0.037671622,0.9954821,2017-01-30 11:54:18,50.53002032880633
0.6276245,0.78453064,9.675888,0.0,0.0,0.0,120.0,0.6309325,0.79465765,9.754017,0.0030831583,0.017696673,0.08370312,0.035307042,0.037907787,0.9955553,2017-01-30 11:54:19,48.28184385087968
0.6276245,0.78453064,9.610519,0.0,0.0,0.0,120.0,0.6230107,0.78570944,9.75525,-0.017145613,0.06383109,0.19376658,0.034854375,0.03736186,0.99566984,2017-01-30 11:54:20,46.04030958246814
0.6276245,0.78453064,9.728195,0.0,0.0,0.0,121.0,0.6415495,0.75717545,9.756307,0.014245188,-0.017984517,0.031334944,0.03564279,0.036036905,0.99565065,2017-01-30 11:54:21,46.3022029279598
0.67993164,0.83683777,9.675888,0.0,0.0,0.0,120.0,0.6362252,0.7650056,9.756043,0.009689243,-0.011354221,0.01749513,0.035410665,0.036419004,0.9957027,2017-01-30 11:54:22,46.84817558392707
0.6276245,0.83683777,9.728195,0.0,0.0,0.0,120.0,0.63564676,0.7767212,9.755155,0.0629714,-0.13626339,0.030300785,0.035356335,0.037036385,0.9957625,2017-01-30 11:54:23,45.07480633297331
0.6276245,0.78453064,9.728195,0.0,0.0,0.0,120.0,0.6407014,0.79487187,9.753363,0.014274284,-0.11861602,0.02850264,0.035762418,0.037875105,0.9956333,2017-01-30 11:54:24,44.024065888318106
0.67993164,0.83683777,9.675888,0.0,0.0,0.0,120.0,0.6371085,0.80376256,9.75287,0.037813216,0.027402751,0.09604324,0.035708398,0.038248,0.9953988,2017-01-30 11:54:25,48.507875665388156
0.6276245,0.78453064,9.780502,0.0,0.0,0.0,119.0,0.6370893,0.79372734,9.753693,-0.030307746,-0.050734166,0.028764505,0.035725977,0.03773311,0.9953161,2017-01-30 11:54:26,42.48114902701118
0.6276245,0.78453064,9.728195,0.0,0.0,0.0,120.0,0.63947517,0.7903452,9.753811,-0.014536877,-0.026845662,0.15147816,0.035760924,0.03761094,0.99544907,2017-01-30 11:54:27,34.60928131486308
0.7453003,0.7060852,9.571289,0.0,0.0,0.0,119.0,0.641344,0.80468327,9.752516,-0.107775085,0.08280488,0.16379084,0.03587902,0.0383773,0.9955163,2017-01-30 11:54:28,42.30601775713459
0.6276245,0.78453064,9.675888,0.0,0.0,0.0,121.0,0.65504783,0.782949,9.753374,0.027947733,0.036836725,0.15082473,0.036488075,0.037354857,0.9954988,2017-01-30 11:54:29,42.96175682034694
0.67993164,0.67993164,9.623596,0.0,0.0,0.0,121.0,0.649274,0.7628697,9.75535,-0.0039812955,0.013542463,0.03040387,0.03608335,0.03625595,0.99570465,2017-01-30 11:54:30,44.52751590763779
0.7453003,0.66685486,9.728195,0.0,0.0,0.0,120.0,0.6476855,0.77173674,9.75476,-0.03333183,0.049858317,0.13879387,0.036006898,0.036732044,0.9957014,2017-01-30 11:54:31,39.211683288552145
0.6276245,0.88912964,9.728195,0.0,0.0,0.0,120.0,0.66100264,0.7607301,9.754731,-0.047879305,-0.056101788,0.12515606,0.036593735,0.036159303,0.9957381,2017-01-30 11:54:32,31.898928040232445
0.6276245,0.78453064,9.728195,0.0,0.0,0.0,120.0,0.66369784,0.774074,9.753496,0.09164327,0.038575277,0.12391075,0.036889225,0.03673211,0.99554884,2017-01-30 11:54:33,50.081961192661225
0.7060852,0.66685486,9.688965,0.0,0.0,0.0,120.0,0.64144826,0.7837791,9.75421,-0.0123284245,0.0074192714,0.07014346,0.035725433,0.03738144,0.99571186,2017-01-30 11:54:34,53.09423113021666
0.5753174,0.83683777,9.728195,0.0,0.0,0.0,120.0,0.6565212,0.74587727,9.75618,-0.026222484,0.1368305,0.08555198,0.036299974,0.035564236,0.9956918,2017-01-30 11:54:35,56.48769453070155
0.6276245,0.78453064,9.728195,0.0,0.0,0.0,121.0,0.6674014,0.7217596,9.757256,-2.4960385E-4,-0.06646009,0.10031622,0.03682397,0.03409464,0.99573624,2017-01-30 11:54:36,63.7472559448772
0.6276245,0.83683777,9.728195,0.0,0.0,0.0,119.0,0.64399904,0.77006143,9.755136,0.018611073,-0.008906295,0.07119758,0.0359237,0.036461238,0.995579,2017-01-30 11:54:37,61.99612854977249
0.6276245,0.78453064,9.728195,0.0,0.0,0.0,120.0,0.63521904,0.7876502,9.754307,0.008683086,0.011290418,0.02937802,0.035569627,0.037498146,0.9954362,2017-01-30 11:54:38,54.047488183914254
0.6276245,0.78453064,9.675888,0.0,0.0,0.0,119.0,0.6519052,0.7764465,9.754103,-0.0835936,0.0818088,0.19261934,0.036372222,0.036826484,0.99540406,2017-01-30 11:54:39,54.61112227430058
0.6276245,0.78453064,9.675888,0.0,0.0,0.0,119.0,0.6683337,0.76899445,9.753583,0.09627912,-0.0073652877,0.13761754,0.037165415,0.0363346,0.9951876,2017-01-30 11:54:40,50.52606684783238
0.6276245,0.78453064,9.675888,0.0,0.0,0.0,119.0,0.63271767,0.7808175,9.755018,-0.0062347963,0.0048862915,0.084459625,0.035455655,0.03716357,0.9954687,2017-01-30 11:54:41,44.12172269664364
0.6276245,0.78453064,9.623596,0.0,0.0,0.0,119.0,0.63426775,0.7784652,9.755106,0.007441457,0.015383266,0.030224303,0.03535335,0.03709221,0.995671,2017-01-30 11:54:42,46.41339875538152
0.66685486,0.7060852,9.64975,0.0,0.0,0.0,119.0,0.6326204,0.78832287,9.754421,-0.062087346,0.053368874,0.19289866,0.03530387,0.0376376,0.9956964,2017-01-30 11:54:43,49.630209321397444
0.6276245,0.78453064,9.571289,0.0,0.0,0.0,119.0,0.64669365,0.7629453,9.755516,0.07463903,-0.013414492,0.19403258,0.036012527,0.03611671,0.9955828,2017-01-30 11:54:44,53.792050528655935
0.6276245,0.83683777,9.623596,0.0,0.0,0.0,119.0,0.64241827,0.75054306,9.756761,0.01736134,-0.02702164,0.045448266,0.03569841,0.03563073,0.99580747,2017-01-30 11:54:45,48.78346243442938
0.6276245,0.78453064,9.728195,0.0,0.0,0.0,119.0,0.63105226,0.7760464,9.755507,-0.036344793,-3.1340765E-4,0.08506066,0.035112087,0.037122533,0.9959023,2017-01-30 11:54:46,49.86802766184637
0.7060852,0.7453003,9.571289,0.0,0.0,0.0,119.0,0.640224,0.77886885,9.754684,-0.09645692,0.0024131143,0.15242502,0.035494827,0.03721965,0.9959049,2017-01-30 11:54:47,47.534724007132226
0.6276245,0.78453064,9.728195,0.0,0.0,0.0,119.0,0.66260123,0.76402324,9.754364,0.03457933,-0.106473126,0.056682725,0.036676306,0.036337063,0.9956679,2017-01-30 11:54:48,47.06397516079453
0.6276245,0.78453064,9.728195,0.0,0.0,0.0,119.0,0.6635272,0.7601067,9.754607,0.036991198,-0.07073453,0.13864174,0.03669709,0.03622097,0.9957271,2017-01-30 11:54:49,48.87007860353525
0.67993164,0.83683777,9.728195,0.0,0.0,0.0,119.0,0.6428122,0.7925715,9.753409,0.05713725,0.0025913804,0.12382429,0.035859562,0.037796497,0.99563146,2017-01-30 11:54:50,51.335261497844854
0.6276245,0.78453064,9.675888,0.0,0.0,0.0,119.0,0.64516,0.7811896,9.754174,-0.092696235,0.08884156,0.124560006,0.035971656,0.037189227,0.9953317,2017-01-30 11:54:51,49.4403349419277
0.6276245,0.83683777,9.675888,0.0,0.0,0.0,119.0,0.6605435,0.7561571,9.755116,-0.047714546,-0.115545124,0.12553099,0.036762733,0.03572104,0.9953494,2017-01-30 11:54:52,49.734559482685356
0.6276245,0.78453064,9.623596,0.0,0.0,0.0,119.0,0.6311655,0.7756307,9.755532,0.0025009224,0.001822877,0.16674285,0.035134595,0.037038326,0.9958162,2017-01-30 11:54:54,48.202838571575775
0.6276245,0.78453064,9.728195,0.0,0.0,0.0,119.0,0.62045777,0.7997995,9.754268,-0.0059802565,0.023578523,0.029322319,0.03465726,0.038347486,0.99584746,2017-01-30 11:54:55,46.301538595158185
0.6276245,0.78453064,9.728195,0.0,0.0,0.0,119.0,0.6471278,0.76881874,9.755026,0.02326418,-0.009856079,0.07096397,0.036000066,0.03655269,0.9956376,2017-01-30 11:54:56,47.723495943007705
0.66685486,0.7060852,9.610519,0.0,0.0,0.0,119.0,0.67861503,0.7581353,9.753722,0.010273505,0.13081065,0.1651251,0.03759821,0.035755716,0.9954128,2017-01-30 11:54:57,49.092520136606424
0.67993164,0.83683777,9.675888,0.0,0.0,0.0,119.0,0.67929965,0.75408614,9.753988,0.011035565,-0.07714157,0.029151069,0.03771896,0.035528462,0.995299,2017-01-30 11:54:58,47.99954880560076
0.6276245,0.78453064,9.675888,0.0,0.0,0.0,119.0,0.6601639,0.7522699,9.755443,0.031564754,-0.13022202,0.084916845,0.036663808,0.035589624,0.9955008,2017-01-30 11:54:59,47.40200181138131
0.67993164,0.7322235,9.728195,0.0,0.0,0.0,119.0,0.63893044,0.7809355,9.754604,-0.055286936,0.04502076,0.02968228,0.035622172,0.03720742,0.9956876,2017-01-30 11:55:00,47.11036159769435
0.6276245,0.78453064,9.675888,0.0,0.0,0.0,119.0,0.66198516,0.7648814,9.754338,-0.0077228593,0.07277989,0.11109096,0.036746427,0.036318425,0.9953729,2017-01-30 11:55:01,49.20792529916962
0.6276245,0.78453064,9.728195,0.0,0.0,0.0,119.0,0.6665938,0.74983513,9.755194,0.038303748,-0.026519317,0.030384747,0.036984943,0.035435952,0.9954863,2017-01-30 11:55:02,47.09116324396798
0.6276245,0.67993164,9.780502,0.0,0.0,0.0,119.0,0.643257,0.7738438,9.754885,-0.06500107,0.038345054,0.070817664,0.035751905,0.036947474,0.9957273,2017-01-30 11:55:03,58.68980020106064
0.6276245,0.78453064,9.780502,0.0,0.0,0.0,118.0,0.64047754,0.7838847,9.754267,0.13652468,0.0075248494,0.15192124,0.035705414,0.03736289,0.99565345,2017-01-30 11:55:04,61.44857801522059
0.67993164,0.83683777,9.675888,0.0,0.0,0.0,118.0,0.6301982,0.7844702,9.754889,-0.037081547,0.008097785,0.029954124,0.03516822,0.037452046,0.9957137,2017-01-30 11:55:05,56.08523065174963
0.67993164,0.83683777,9.728195,0.0,0.0,0.0,118.0,0.6431666,0.77930367,9.7544565,0.056714106,0.0036414934,0.0295235,0.035855792,0.037091214,0.9955131,2017-01-30 11:55:06,52.61368317414335
0.6276245,0.83683777,9.728195,0.0,0.0,0.0,118.0,0.64713144,0.7783258,9.7542715,-0.06112665,0.0019660199,0.08382532,0.0360639,0.037012845,0.9955654,2017-01-30 11:55:07,48.51018828149102
