ACC_X,ACC_Y,ACC_Z,GYRO_X,GYRO_Y,GYRO_Z,LIGH_1,GRAV_X,GRAV_Y,GRAV_Z,LINACC_X,LINACC_Y,LINACC_Z,ROTVEC_X,ROTVEC_Y,ROTVEC_Z,TIME,VOICE
4.6926355,0.61291564,8.350976,0.35590225,1.7813919,1.1196811,2.0,7.088228,2.6740463,6.2271085,-2.4709308,-2.03389,2.2447476,0.42449796,0.048034612,0.8764769,2016-12-06 16:57:02,30.268676405716775
5.056554,0.17238252,8.197746,-0.03352681,0.030255243,0.08081823,2.0,5.142957,1.0842677,8.279176,-0.062567644,-0.82548106,0.08371725,0.27580243,0.042574223,0.9588385,2016-12-06 16:57:03,12.732183650359678
5.171476,0.16280572,8.207323,-0.042038225,-0.024187002,0.0014021688,2.0,5.0133305,0.3335832,8.421736,0.08067961,-0.22462043,-0.2631477,0.26542577,0.012656261,0.963878,2016-12-06 16:57:04,33.51610320263888
7.144298,-0.6512229,5.3438582,0.09668872,-0.0048925653,0.12339096,2.0,5.137354,0.21390934,8.350583,0.7057753,0.2628028,-1.2816228,0.27240407,0.005899237,0.96197325,2016-12-06 16:57:05,36.01190872587709
1.8674773,1.7717092,11.147403,0.30867606,0.13840516,0.16442491,2.0,5.9159613,-0.16044088,7.8195944,-5.7252765,2.9389915,-1.0502814,-0.3154379,-0.042551413,-0.9357013,2016-12-06 16:57:06,24.57015660048521
1.6663644,0.93852705,9.605537,0.12885614,0.42286283,-0.18967201,2.0,3.1895304,0.8013415,9.238785,-1.5414685,0.15208279,0.36356035,-0.1499979,-0.08033514,-0.95585734,2016-12-06 16:57:07,37.50549373192165
1.7142484,0.9864111,9.519346,-0.057177667,-1.1357824E-4,-0.010241696,2.0,1.6573194,1.0893861,9.604006,0.045223914,-0.10872118,-0.056142367,-0.07033719,-0.073380485,-0.96973014,2016-12-06 16:57:08,34.97841107013199
1.733402,1.0534488,9.461885,3.198467E-4,-0.0031040697,-0.006213102,2.0,1.7014472,1.0045226,9.60554,-0.026144497,-0.023857638,-0.057676982,-0.07382035,-0.069313206,-0.9707522,2016-12-06 16:57:09,43.064635627742035
1.685518,0.9959879,9.461885,7.0872426E-5,-2.9452372E-5,-0.0021972999,2.0,1.706861,1.0096047,9.604048,-0.0043176683,-0.015319253,-0.11066532,-0.07416138,-0.069498144,-0.9711027,2016-12-06 16:57:10,42.418381275614294
1.7142484,0.9576807,9.519346,0.0015721051,0.001832755,0.009531519,2.0,1.7020556,1.0117664,9.604672,-0.026752813,-0.017480997,-0.07042943,-0.07378049,-0.06967399,-0.9707596,2016-12-06 16:57:11,38.40253161704916
1.6567876,1.0055647,9.509769,-0.0,-0.0,-0.0,2.0,1.7028219,1.0097613,9.604749,-0.027519187,-0.0018556103,-0.097745776,-0.0736677,-0.06976578,-0.9702168,2016-12-06 16:57:12,31.05273813165536
1.6759412,1.0055647,9.528923,-6.1540346E-4,-2.0387456E-4,-0.006184808,2.0,1.6960489,1.0123568,9.605672,-0.047986705,-0.0044509913,-0.11228973,-0.07339511,-0.06971497,-0.97054523,2016-12-06 16:57:13,52.64691986246868
1.9440918,1.2162545,9.471462,-4.4117318E-4,-0.0070771575,-0.006811724,2.0,1.7039948,1.0171461,9.60376,0.27095568,0.07248165,-0.110377684,-0.07377842,-0.07000908,-0.9706107,2016-12-06 16:57:14,49.97579103499174
2.2984335,1.340753,9.471462,0.017756866,-0.038341302,-0.011139588,2.0,1.8955721,1.1278313,9.555376,0.338165,0.23420343,-0.089234725,-0.08217025,-0.077842906,-0.9692692,2016-12-06 16:57:15,37.494788115761224
2.2697031,1.3024458,9.423578,0.012279373,-0.030428605,-0.0050475555,2.0,2.2481997,1.3049825,9.455846,0.10812024,0.0434319,-0.07142618,-0.09798251,-0.091024786,-0.96654814,2016-12-06 16:57:16,26.941717849592017
1.8770541,1.1300632,9.452309,-0.012647467,0.03053671,-2.0868376E-4,2.0,2.215889,1.2873906,9.4658785,-0.34990135,-0.1296611,0.013883045,-0.09660637,-0.08967579,-0.9669712,2016-12-06 16:57:17,41.175164495027076
1.8579005,1.1779473,9.481039,-0.006313936,0.023286983,0.0115450155,2.0,1.9154036,1.1761473,9.54559,-0.07665665,-0.018417792,-0.05220856,-0.082487635,-0.08066063,-0.9686127,2016-12-06 16:57:18,47.29487453501705
1.7908629,1.13964,9.519346,2.0932312E-4,0.0015590399,0.002682091,2.0,1.8405273,1.1523687,9.563206,-0.0017804797,-0.049120516,-0.056203052,-0.07907769,-0.07847906,-0.9693419,2016-12-06 16:57:19,40.92161850347164
1.8579005,1.1300632,9.500193,2.743274E-4,0.0025510292,0.004193696,2.0,1.8300829,1.144629,9.566138,0.008664018,-5.197828E-4,-0.0727563,-0.0787587,-0.07784437,-0.9697574,2016-12-06 16:57:20,41.94225554528218
1.8291701,1.13964,9.490616,-8.1736967E-4,-8.078054E-5,-0.0029989025,2.0,1.8316205,1.1429724,9.566044,-0.0064938567,-0.012483518,-0.031800486,-0.07898221,-0.07764913,-0.97011137,2016-12-06 16:57:21,44.84392206095879
1.8579005,1.1300632,9.433155,-1.3735767E-4,7.857294E-4,0.007887078,2.0,1.8298501,1.1414545,9.566564,-0.018343909,-0.024585875,-0.04594041,-0.078856856,-0.07760583,-0.9699778,2016-12-06 16:57:22,47.482924196275924
1.8100165,1.1109096,9.433155,0.0,0.0,0.0,2.0,1.83493,1.1368606,9.566135,-0.037044037,-0.0063717565,-0.0727538,-0.079180546,-0.07741593,-0.97001505,2016-12-06 16:57:23,47.87686662309217
1.8291701,1.1300632,9.509769,0.0037786928,0.002630037,0.01873564,2.0,1.831257,1.1370454,9.566818,0.007489986,0.020684177,-0.1279177,-0.07882244,-0.07755668,-0.9695529,2016-12-06 16:57:24,46.688620922039206
1.7621324,1.1013328,9.5385,-0.0019087627,-9.5537526E-4,-0.0054112864,1.0,1.8316274,1.1354648,9.566936,-0.10184336,-0.00497597,-0.046312843,-0.0787458,-0.07759616,-0.9692371,2016-12-06 16:57:25,34.11187616365562
1.388637,1.1013328,9.624691,0.009389764,0.0394523,0.017831853,2.0,1.6943892,1.1340803,9.592357,-0.49579853,0.105371274,0.064469695,-0.071942605,-0.0758302,-0.97014475,2016-12-06 16:57:26,39.38437004964396
1.7908629,1.3024458,9.500193,0.019757846,0.0019536163,0.010872798,2.0,1.5236363,1.2109565,9.611583,0.38321224,0.39624456,0.018003067,-0.06194275,-0.07815894,-0.9690205,2016-12-06 16:57:27,46.33966819129707
1.7525556,1.292869,9.519346,0.0060197935,-0.024227943,0.004952678,2.0,1.7150831,1.2743883,9.571041,0.001080716,0.0059244023,-0.07765859,-0.07086276,-0.08361358,-0.96809053,2016-12-06 16:57:28,50.32361464374855
1.685518,1.3024458,9.5385,-0.002715934,0.003399718,-0.002288167,2.0,1.7391413,1.3043227,9.562663,-0.00935713,-0.051250774,-0.0011788118,-0.071582824,-0.08553246,-0.9674864,2016-12-06 16:57:29,49.96279509371235
2.7102363,0.20111294,9.174581,0.0027207416,-0.008982133,-0.0075458214,2.0,1.7264755,1.2990987,9.56567,2.8908224,0.4034447,-0.37193507,-0.07097938,-0.08513856,-0.9674906,2016-12-06 16:57:30,48.52597681710954
1.6280571,0.82360536,9.548077,-0.052349858,-0.016319884,-0.13403332,2.0,1.81437,1.0631475,9.5785265,-0.13906738,-0.096102886,-0.044283587,-0.08124026,-0.07093024,-0.97670287,2016-12-06 16:57:31,44.26195083203801
1.5993267,0.9672575,9.576807,-0.008105046,0.013403087,-0.040970955,2.0,1.6301848,0.8772949,9.63033,-0.0774651,0.08974973,-0.15056784,-0.07655035,-0.055945624,-0.98611057,2016-12-06 16:57:32,43.484656244927265
1.5705963,0.93852705,9.576807,-6.28528E-4,0.015433766,0.00841316,2.0,1.5508989,0.96841776,9.634691,-0.02542,-0.01499348,0.022135558,-0.07237788,-0.059404798,-0.98732305,2016-12-06 16:57:33,48.299637806926796
1.5993267,0.94810385,9.471462,-0.0019552908,-1.4932756E-4,0.007359535,2.0,1.5462614,0.93463975,9.638772,0.074559845,0.005164264,-0.07728782,-0.07232128,-0.057698186,-0.987346,2016-12-06 16:57:34,46.42545355548307
1.5801731,0.8810662,9.548077,0.0012372434,-0.0030371717,-0.0019356845,2.0,1.5886366,0.93594265,9.631752,0.018564414,-0.03699977,-0.1383699,-0.074173436,-0.0584437,-0.9864817,2016-12-06 16:57:35,44.37823516976707
1.5610195,0.94810385,9.624691,-0.0030083256,-0.004134793,-0.015326142,2.0,1.602782,0.92464226,9.630499,-0.02282171,-0.025699325,-0.08263571,-0.0752525,-0.057604373,-0.98708934,2016-12-06 16:57:36,45.154800030596235
1.5993267,0.91937345,9.528923,0.0,-0.0,-0.0,2.0,1.6060004,0.9229931,9.630121,-0.02604006,0.016810851,-0.15036002,-0.07544983,-0.05751344,-0.9871295,2016-12-06 16:57:37,45.61182209784354
1.5801731,0.90979666,9.5385,-0.001835169,0.0013512806,-0.007904585,2.0,1.5915185,0.9229268,9.632532,-0.03879895,0.0032569042,-0.12552932,-0.07472987,-0.057384867,-0.9872349,2016-12-06 16:57:38,46.05472420667077
1.5801731,0.90021986,9.56723,0.0,0.0,0.0,2.0,1.5868961,0.92130136,9.6334505,-0.006935807,0.04574328,-0.031105502,-0.074670956,-0.057052717,-0.98762894,2016-12-06 16:57:39,41.57661759178923
1.5705963,0.8619126,9.634268,0.0022155535,1.5886438E-4,0.0058084615,2.0,1.594134,0.9167571,9.6326885,-0.055034738,0.023046894,-0.11206526,-0.07499426,-0.056968868,-0.98744273,2016-12-06 16:57:40,39.66022285331738
1.6663644,0.9576807,9.519346,-8.6083595E-4,6.92861E-5,0.006158433,2.0,1.5952296,0.9118954,9.632969,-0.042509966,-0.04019318,-0.0987259,-0.07487564,-0.056999613,-0.98698515,2016-12-06 16:57:41,38.89434247166471
1.5993267,0.80445176,9.56723,-0.008505673,0.00593481,-0.0061198147,2.0,1.5577444,0.870378,9.642939,0.008595642,-0.053157203,-0.08145523,-0.07322709,-0.054633055,-0.987226,2016-12-06 16:57:42,41.4527780927027
1.4748282,0.8523358,9.643845,-0.0023329346,0.0010260729,0.008417177,2.0,1.5282528,0.8273283,9.6514435,-0.016394256,-0.037348144,-0.07633929,-0.07205923,-0.052161396,-0.9875812,2016-12-06 16:57:43,42.43575388211237
1.4460979,0.8619126,9.5385,0.002472879,0.011401571,0.009287304,2.0,1.5256481,0.8272818,9.651859,-0.16361333,0.017179748,-0.13123634,-0.07193226,-0.0521333,-0.98760587,2016-12-06 16:57:44,42.97686185138942
1.5035586,0.89064306,9.595961,0.0023944422,7.533411E-4,-0.0018349816,2.0,1.4656255,0.83844954,9.6601925,0.005372094,0.0060120025,-0.12594998,-0.06883926,-0.05223399,-0.9879221,2016-12-06 16:57:45,43.04387718036974
1.5514427,0.82360536,9.5385,0.0021943976,-0.005464162,-0.0036969904,2.0,1.4998957,0.86882335,9.652246,0.025583146,0.043739956,-0.09076269,-0.07042914,-0.05396459,-0.9878083,2016-12-06 16:57:46,34.96667643842226
1.4748282,0.90021986,9.557653,-1.05605395E-4,-0.0016376679,0.009694704,2.0,1.5295104,0.86691886,9.647768,-0.0040313825,-0.03607768,-0.04542333,-0.07201013,-0.05399307,-0.98782855,2016-12-06 16:57:47,43.806977408520815
1.541866,0.8714894,9.548077,0.00428583,0.0035966535,0.020686429,2.0,1.5177724,0.8665852,9.6496525,-0.0059138024,-0.02212366,-0.08816814,-0.0712798,-0.054072782,-0.98756075,2016-12-06 16:57:48,39.89713801591446
1.5035586,0.8523358,9.595961,0.0011475577,8.1558316E-4,0.004165814,2.0,1.5144317,0.8828566,9.648702,-0.04343429,-0.02477469,-0.10083829,-0.07098268,-0.054905176,-0.9874868,2016-12-06 16:57:49,41.245729949088876
1.3599066,0.7661445,9.653421,-0.002063406,0.011772196,0.007107644,2.0,1.4794838,0.87396985,9.654931,-0.13106945,-0.097610064,0.042756453,-0.06911001,-0.054399773,-0.98729014,2016-12-06 16:57:50,43.56070814867489
1.3311762,0.842759,9.624691,-0.0056178723,0.007632204,-0.00943651,2.0,1.3869154,0.8259596,9.672881,-0.038501028,-0.022359133,-0.07053667,-0.06477674,-0.05122751,-0.98791516,2016-12-06 16:57:51,42.25349591043097
1.5035586,0.7661445,9.816227,0.0022664575,-0.0021883291,0.011413191,2.0,1.3694859,0.80692333,9.6769705,-0.021071468,-0.016943187,-0.101866625,-0.06415391,-0.049960632,-0.988381,2016-12-06 16:57:52,39.036648768659276
1.541866,0.8714894,9.528923,-2.712915E-4,-0.003387804,-0.0027902066,2.0,1.434935,0.80569375,9.667585,0.049682908,0.03876783,-0.13334207,-0.06746863,-0.05038172,-0.98806673,2016-12-06 16:57:53,44.603771099055756
1.4077905,0.7086837,9.557653,0.0018473569,-0.003909877,7.976249E-4,2.0,1.5275618,0.83404356,9.650974,-0.11104564,-0.11216513,0.0058516613,-0.07217538,-0.052229762,-0.98804486,2016-12-06 16:57:54,42.6612052095366
1.5610195,0.20111294,9.730036,-0.005515607,0.01582199,0.0131773,2.0,1.4881473,0.78361386,9.661355,-0.48024166,-0.3069017,-0.19521306,-0.070342444,-0.04959841,-0.98795164,2016-12-06 16:57:55,38.339391679555554
1.6089035,0.80445176,9.548077,-0.0073968302,-0.008924637,-0.012083502,1.0,1.4583337,0.6581504,9.675252,0.17610809,0.13182974,-0.20911025,-0.069760725,-0.042812586,-0.988681,2016-12-06 16:57:56,42.38445225834934
1.7525556,0.8619126,9.500193,0.019472172,-0.015320587,1.898124E-4,1.0,1.6620057,0.71929246,9.637985,0.20398204,0.19327079,-0.10374209,-0.08004076,-0.04682989,-0.9884197,2016-12-06 16:57:57,39.651183218919805
1.8291701,0.81402856,9.509769,0.005239963,-0.011724898,-0.0030156842,2.0,1.7909695,0.86804795,9.602568,0.075018115,-0.07806776,-0.12280592,-0.08556465,-0.05553372,-0.98709965,2016-12-06 16:57:58,44.731254702210904
2.030283,0.9864111,9.423578,-0.006348572,-0.015988044,-0.012779301,2.0,1.8568782,0.87515473,9.589395,0.14531288,0.023788221,-0.123253174,-0.08902022,-0.05614571,-0.9870226,2016-12-06 16:57:59,53.94457755215123
1.9153614,0.4405331,9.576807,-0.016344855,0.0026563192,0.009138245,1.0,1.9279609,0.82808685,9.579542,-0.061973248,-0.48757812,0.050042972,-0.093059786,-0.054029293,-0.987004,2016-12-06 16:58:00,56.29498650287954
1.8100165,0.6703765,9.500193,-0.0020044497,-0.003561325,-0.0027329917,1.0,1.927338,0.6609119,9.59265,0.11571414,0.37423453,-0.12650946,-0.09405077,-0.045446437,-0.9874039,2016-12-06 16:58:01,46.46324096225834
2.0685902,0.33518824,9.500193,0.0034331891,-3.5012513E-4,0.016087135,2.0,1.953881,0.6549489,9.58769,0.08917113,-0.2871995,-0.026205702,-0.09531954,-0.045586225,-0.98693115,2016-12-06 16:58:02,30.352207962878744
2.2409728,0.20111294,9.490616,-0.029833738,-0.02729803,-0.0028884385,2.0,2.0222392,0.41575482,9.58687,0.26597917,-0.22506998,-0.09348859,-0.1004184,-0.03349317,-0.9873292,2016-12-06 16:58:03,38.12328126526189
2.2601264,0.18195933,9.509769,-0.0086591635,-0.012810703,0.01329026,2.0,2.218856,0.23076439,9.549546,0.042121533,-0.05369987,-0.056163985,-0.11178986,-0.024733335,-0.98696303,2016-12-06 16:58:04,43.06395135265967
2.2888567,0.18195933,9.490616,0.0,0.0,0.0,2.0,2.2617652,0.1834165,9.540502,0.01283288,0.034509055,-0.006258177,-0.114279106,-0.022585422,-0.98672223,2016-12-06 16:58:05,39.922107074341966
2.2601264,0.18195933,9.528923,-0.0,0.0,-0.0,2.0,2.2755957,0.18307576,9.537218,-0.041858833,0.0076091113,-0.057456683,-0.11502339,-0.022512648,-0.9867739,2016-12-06 16:58:06,39.04449945465095
1.8770541,0.50757074,9.519346,0.02230335,0.02516178,7.814948E-4,1.0,2.178642,0.26401305,9.55794,-0.33989516,0.30804154,-0.01007643,-0.10956098,-0.026021652,-0.9873478,2016-12-06 16:58:07,41.11818261587706
1.7142484,0.5363012,9.490616,0.025628148,0.03449292,-2.1285584E-4,2.0,1.9095165,0.47513935,9.607204,-0.23421362,0.11053559,-0.10020233,-0.09438221,-0.035509232,-0.9882196,2016-12-06 16:58:08,34.2659715615574
1.6567876,0.5554548,9.5385,0.00393447,0.011304077,0.0050920094,2.0,1.7282479,0.57158333,9.636226,-0.107426494,-0.026769439,-0.11560254,-0.08424872,-0.039892342,-0.9881454,2016-12-06 16:58:10,34.21462017706081
1.5993267,0.5267244,9.586384,-9.2341745E-4,0.0034830729,0.0040024514,2.0,1.6752764,0.5818584,9.644961,-0.054454993,-0.10514624,-0.015375265,-0.08138819,-0.04024678,-0.98810494,2016-12-06 16:58:11,40.79909548557259
1.6472107,0.545878,9.557653,-0.0011675686,0.0034863206,0.008572906,2.0,1.6419581,0.54718816,9.652718,0.0061039673,-0.043235343,-0.11847391,-0.0799199,-0.038225885,-0.9883632,2016-12-06 16:58:12,52.24436245192568
1.6089035,0.58418524,9.56723,-9.353888E-4,2.3117785E-4,-0.0048209648,2.0,1.6255105,0.53066576,9.656423,0.008931183,-0.013092563,-0.040457852,-0.079188235,-0.037265226,-0.9884783,2016-12-06 16:58:13,13.885008386660576
1.6089035,0.5363012,9.5385,-0.002388972,-8.53382E-4,-0.017125247,1.0,1.6192852,0.5342446,9.657272,-0.012084276,-0.0030510486,-0.10940837,-0.07897056,-0.03714646,-0.9889017,2016-12-06 16:58:14,11.522883443830565
1.3120226,0.47884035,9.691729,-0.002360443,0.025670452,-0.0015977127,2.0,1.5838851,0.53504497,9.663095,-0.24909091,-0.11281423,-0.04713003,-0.077166505,-0.03693994,-0.9890854,2016-12-06 16:58:15,12.481265918645123
1.091756,0.45968673,9.634268,-0.00246265,0.015590351,0.0014984901,2.0,1.3642609,0.4980468,9.698512,-0.015846519,0.0059060613,-0.06892641,-0.06612123,-0.03378629,-0.98978406,2016-12-06 16:58:16,24.35889138355053
1.3503298,0.60333884,9.576807,0.0037385265,-6.4945646E-4,3.2199355E-4,2.0,1.2763675,0.50156,9.710289,0.11290791,-0.02484779,-0.107944414,-0.061668977,-0.03331661,-0.9902584,2016-12-06 16:58:17,30.369306610882532
1.3503298,0.5267244,9.615114,0.002930061,-0.0054343864,0.016469963,2.0,1.3086383,0.5221351,9.704908,0.039776064,0.022678826,-0.07532258,-0.06300723,-0.03489306,-0.98948157,2016-12-06 16:58:18,44.388075216733526
1.3120226,0.5363012,9.634268,0.0,-0.0,-0.0,2.0,1.3693277,0.5297049,9.69612,-0.061774354,-0.02575206,-0.09377539,-0.06592171,-0.03591379,-0.9887987,2016-12-06 16:58:19,48.634713240404075
1.292869,0.48841715,9.643845,-0.0035167187,0.0036163167,-0.0047848853,2.0,1.3311311,0.5199195,9.701966,-0.009957448,-0.029586991,-0.14048311,-0.06408457,-0.0350789,-0.9891089,2016-12-06 16:58:20,44.4095082779601
1.1683705,0.34476504,9.653421,0.0012620867,0.0076101813,0.008708894,2.0,1.3054881,0.5258632,9.705131,-0.17499931,-0.11725275,-0.07554455,-0.0627531,-0.035186835,-0.98923504,2016-12-06 16:58:21,36.314979890195175
1.4652514,0.095768064,9.691729,-0.005779241,0.015467685,0.014180468,2.0,1.2191261,0.47265393,9.71909,0.14290859,0.34456694,-0.38915253,-0.058596797,-0.03210487,-0.9891681,2016-12-06 16:58:22,43.964161132022994
1.982399,0.1340753,9.5385,-0.016572803,-0.050608464,-0.01430945,2.0,1.4433888,0.31842443,9.694618,0.5588022,-0.223082,-0.13313423,-0.07107702,-0.02569236,-0.9887611,2016-12-06 16:58:23,45.173825203215294
2.030283,0.19153613,9.56723,-0.009070416,-0.035546325,-0.02560246,2.0,1.9037808,0.20092492,9.617985,0.09841021,0.00338029,-0.05650067,-0.09559131,-0.021944284,-0.98796195,2016-12-06 16:58:24,42.2035239171641
2.0494366,0.1340753,9.557653,0.0048151356,-0.0018706544,0.0034622627,2.0,2.0230813,0.19810227,9.593658,-0.020890241,-0.07551914,-0.08665597,-0.1018212,-0.022180965,-0.9877698,2016-12-06 16:58:25,44.395401679344474
2.0207062,0.23942018,9.500193,7.1422575E-4,-3.3283466E-4,0.013168291,2.0,2.0372372,0.17913784,9.591037,0.019435223,0.03878772,-0.05679329,-0.10260668,-0.021567533,-0.987399,2016-12-06 16:58:26,47.43903067967756
2.1068976,0.095768064,9.490616,0.0020577635,-0.0014204984,0.008986665,2.0,2.0436215,0.1735209,9.589781,0.053911936,-0.06455812,-0.11001856,-0.102838755,-0.021942487,-0.98663354,2016-12-06 16:58:27,49.4922087640217
2.087744,0.1340753,9.528923,-0.007424377,-0.0043582306,-0.0068362956,2.0,2.0774934,0.1407851,9.583037,-0.0072006863,-0.045442667,-0.048793495,-0.104837954,-0.020251751,-0.98675203,2016-12-06 16:58:28,49.78064050120308
2.087744,-0.038307227,9.548077,-0.00859053,-0.0017205217,7.660884E-4,2.0,2.0972,0.070516795,9.579518,0.054814957,-0.12499819,-0.031655006,-0.10630635,-0.01671737,-0.98675877,2016-12-06 16:58:29,49.915377805968475
2.1068976,-0.10534488,9.519346,-0.0099493135,-0.0014378598,-0.0023004706,2.0,2.1036053,-0.011562645,9.578366,0.06202998,-0.08377978,-0.04412314,-0.10716435,-0.012451852,-0.9868738,2016-12-06 16:58:30,45.97619164029079
1.6663644,-0.02873042,9.643845,0.0016799248,0.038284,0.00590781,1.0,2.0506208,-0.047551006,9.589739,-0.5932437,0.17013414,-0.055496432,-0.10468348,-0.010039576,-0.9874461,2016-12-06 16:58:31,49.87489126465081
1.9632454,0.51714754,9.481039,0.051006317,0.012580156,0.076673284,1.0,1.9132313,0.16861609,9.616732,0.034478374,0.30809605,-0.05524787,-0.0959435,-0.021864519,-0.98593616,2016-12-06 16:58:32,57.64262286636078
1.9057846,0.4309563,9.5385,0.026117703,-0.009988751,0.043433826,1.0,1.9664599,0.45343447,9.596761,-0.032370564,0.023277689,-0.1033788,-0.09521753,-0.040435016,-0.97945046,2016-12-06 16:58:33,54.350424727981725
1.8387469,0.4309563,9.548077,-0.008196248,0.0042245556,0.0026117135,2.0,1.9468672,0.45539847,9.600662,-0.094499886,-0.04678804,-0.10728019,-0.09393763,-0.04096583,-0.97840446,2016-12-06 16:58:34,51.22115087724106
1.8579005,0.45968673,9.548077,-0.0056069507,0.0031119692,-0.004109257,2.0,1.9015507,0.39914984,9.612242,-0.07642408,-0.031400464,-0.105239294,-0.09209991,-0.03781169,-0.97847736,2016-12-06 16:58:35,41.764492234817425
1.1587936,0.21068975,9.509769,-0.015434062,0.0388281,0.010038771,2.0,1.697913,0.30955502,9.653584,-0.51294297,-0.18697187,-0.078479104,-0.08268012,-0.031117197,-0.98006386,2016-12-06 16:58:36,44.29015655657746
2.0685902,-0.08619126,9.605537,-0.02432958,-0.004447038,0.0074425517,1.0,1.4971819,0.119349256,9.690954,0.5186296,-0.24193236,-0.17033166,-0.074118845,-0.020130994,-0.97991186,2016-12-06 16:58:37,45.39304012202312
2.078167,-0.10534488,9.548077,-0.018623395,-0.045360867,-0.015640704,1.0,1.8997072,-0.025944296,9.620854,0.17058562,-0.08301848,-0.059370384,-0.09597821,-0.016160564,-0.979089,2016-12-06 16:58:38,43.572088687693395
2.135628,-0.10534488,9.576807,-0.0059116143,-0.0032399478,-0.019242708,1.0,2.076111,-0.10694526,9.583775,0.021422286,-0.002017523,0.018570859,-0.10581702,-0.012896086,-0.9795042,2016-12-06 16:58:39,44.33332419943379
2.2218192,-0.24899697,9.586384,-0.0050586164,-0.005431051,0.0017094805,2.0,2.1129405,-0.13020977,9.575434,0.052694675,-0.06047509,-0.013949551,-0.10794359,-0.011703964,-0.97983336,2016-12-06 16:58:40,30.902558479374882
2.1452048,-0.17238252,9.471462,-0.0050303736,-0.005407079,-0.0018620052,2.0,2.1581638,-0.17996034,9.564536,0.04833253,-0.010724522,-0.030292472,-0.11066104,-0.00992801,-0.9790304,2016-12-06 16:58:41,12.25228490267737
2.135628,-0.1436521,9.56723,-0.0011456254,-0.0037278477,-0.014053031,1.0,2.1905496,-0.18753418,9.557024,-0.0385348,-0.030391386,-0.06364254,-0.112418965,-0.009453194,-0.9794112,2016-12-06 16:58:42,14.70419679573756
2.2122424,-0.22026655,9.595961,-0.0041266903,-0.0013389798,-0.0031908725,1.0,2.2062743,-0.18274496,9.5535,0.05470335,-0.03518059,-0.032877047,-0.11321434,-0.009466955,-0.9798571,2016-12-06 16:58:43,38.09859451117358
2.2505496,-0.22984336,9.500193,-0.0017689697,-0.0021444284,-0.0013929135,1.0,2.2169137,-0.2110992,9.550451,0.0032028682,0.006793989,-0.05706929,-0.113990515,-0.0082870405,-0.97954226,2016-12-06 16:58:44,35.85378586501808
2.2409728,-0.22026655,9.509769,-0.0012931732,-0.0011222695,-0.0046085045,1.0,2.236913,-0.2227346,9.545523,-0.016796406,0.018429378,0.029581692,-0.11511852,-0.00784473,-0.9794546,2016-12-06 16:58:45,12.105191640810844
2.4037786,-0.22984336,9.481039,-2.9308492E-4,-0.0038811886,-0.005325096,2.0,2.2431462,-0.22121038,9.544094,0.045072094,0.112247586,0.0582506,-0.11542252,-0.008014698,-0.9793621,2016-12-06 16:58:46,13.550082829983722
2.3175871,-0.29688102,9.5385,-0.011500733,-0.0070904694,-0.006310573,1.0,2.3013873,-0.26645547,9.529061,0.04131245,-0.060432862,-0.04929977,-0.11879327,-0.006423617,-0.97870463,2016-12-06 16:58:47,10.025709983657077
2.3558946,-0.2777274,9.471462,-0.009217959,-0.0010605734,-9.574696E-4,1.0,2.3487089,-0.34032488,9.515153,0.034851845,-0.027424522,-0.008150262,-0.12187948,-0.002759604,-0.97880924,2016-12-06 16:58:48,35.01138030887085
2.327164,-0.31603462,9.509769,-0.0010297877,-0.0022629525,-0.0042413063,2.0,2.362747,-0.33805096,9.511759,0.02081376,-0.029698415,0.09058645,-0.12259115,-0.0025950584,-0.9792543,2016-12-06 16:58:49,34.823031082987
2.3463178,-0.34476504,9.461885,0.0010966972,0.0031733366,-0.0028395874,2.0,2.369872,-0.32400373,9.510474,-0.013551972,0.024356093,-0.030712286,-0.12284451,-0.00316386,-0.9794868,2016-12-06 16:58:50,16.910814921229683
2.336741,-0.32561144,9.404425,-2.4848865E-4,0.004661205,-0.0034712467,2.0,2.3432887,-0.30542523,9.5176735,0.013031357,-0.007842777,0.0029495235,-0.12132741,-0.0036598553,-0.9799645,2016-12-06 16:58:51,22.46483193105332
2.3654714,-0.38307226,9.500193,-0.0026968296,-4.454729E-4,-0.0014821267,2.0,2.3361516,-0.3142719,9.51914,-0.020692594,-0.026236799,0.015103422,-0.12103344,-0.003141005,-0.98001707,2016-12-06 16:58:52,26.492831249261393
2.3175871,-0.34476504,9.461885,-0.0024159795,-7.047904E-4,0.0028580355,2.0,2.3424149,-0.3314538,9.517017,0.041145977,-0.077156626,0.03084613,-0.12149274,-0.002583754,-0.9796197,2016-12-06 16:58:53,18.879160562885335
2.2601264,-0.4213795,9.490616,-0.009001585,0.0032710864,0.0066048484,2.0,2.3411193,-0.3634757,9.516167,-0.039280705,-0.1813382,-0.022784818,-0.121693715,-0.0010803543,-0.97942585,2016-12-06 16:58:54,15.186784142149804
1.4556746,-0.21068975,9.624691,-0.008901054,0.037913024,-0.0050433017,2.0,2.2428205,-0.49316248,9.533989,-0.97612804,0.45230144,-0.16318978,-0.117734656,0.0063586477,-0.97994506,2016-12-06 16:58:55,17.492530680707713
1.6184803,-0.05746084,9.615114,0.031051397,0.042124823,0.013985475,2.0,1.8042021,-0.37623027,9.63191,-0.19700104,0.3217489,-0.01594555,-0.09431408,0.0037563941,-0.98188716,2016-12-06 16:58:56,17.300753666919594
1.6376339,-0.038307227,9.576807,0.013380085,-0.007734724,0.0078010797,2.0,1.5898453,-0.107282996,9.676325,0.017355677,0.066421956,-0.060359653,-0.08104927,-0.008702784,-0.981563,2016-12-06 16:58:57,24.58958730722771
1.6376339,-0.047884032,9.653421,0.00283444,3.5982174E-4,0.00552346,2.0,1.6258092,-0.0762413,9.670642,-0.018608268,0.0762413,-0.0682971,-0.08258718,-0.010669501,-0.98124737,2016-12-06 16:58:58,27.10421497542647
1.6472107,-0.076614454,9.56723,0.0,0.0,0.0,2.0,1.6171418,-0.054731373,9.67224,-0.009940821,2.4998703E-4,-0.06989573,-0.081902936,-0.012036395,-0.98051196,2016-12-06 16:58:59,21.285809945654556
1.6759412,-0.02873042,9.605537,0.0017341105,-0.0033379605,-5.940849E-4,2.0,1.6378062,-0.042816956,9.668823,0.0102557875,0.042816956,-0.06647817,-0.082837865,-0.012849107,-0.9803768,2016-12-06 16:59:00,35.2118468283321
1.685518,0.076614454,9.548077,0.0069111427,-0.003091406,-8.2918664E-4,2.0,1.6770719,-0.003530439,9.662184,-0.029009951,0.05801183,-0.05983925,-0.08451117,-0.01495238,-0.9807056,2016-12-06 16:59:01,30.967080191067488
1.7046716,-0.02873042,9.653421,-0.001636431,-0.001368718,5.3171685E-4,2.0,1.6945543,0.026710894,9.659098,-0.019251501,-0.040331244,-0.04313221,-0.08514777,-0.016521534,-0.98086053,2016-12-06 16:59:02,29.816289298704838
1.685518,-0.02873042,9.615114,-0.008204149,9.43597E-4,-0.014566223,2.0,1.6863194,-0.017111622,9.660561,0.016224042,-0.03736977,-0.04459533,-0.085144676,-0.014103295,-0.9811742,2016-12-06 16:59:03,33.05507214500548
1.6663644,-0.009576807,9.615114,8.328724E-4,3.0819274E-4,0.0037031604,2.0,1.6853231,-0.024976328,9.660717,0.01722038,-0.0022643665,-0.08561266,-0.08519253,-0.013518938,-0.98153925,2016-12-06 16:59:04,33.60407014096777
1.2545617,-0.11492168,9.672575,0.0023097165,0.015400663,0.017703053,2.0,1.6607851,-0.020337598,9.664977,-0.3123707,-0.088625185,0.03270995,-0.08386008,-0.013814612,-0.9810745,2016-12-06 16:59:05,27.63226711336386
1.5227122,-0.047884032,9.662998,-3.9722183E-4,0.013538392,4.9699476E-4,2.0,1.4889232,-0.031020835,9.692912,0.022935497,-0.0643216,0.045636978,-0.07520013,-0.011999931,-0.9811524,2016-12-06 16:59:06,27.74868091344011
1.6184803,-0.24899697,9.682152,-2.0234723E-4,-0.0024053182,0.00845682,2.0,1.3826369,-0.042390328,9.708599,0.374388,-0.06657246,-0.05177295,-0.06992109,-0.010499028,-0.98143655,2016-12-06 16:59:07,40.6701863615838
1.7429788,-0.45968673,9.615114,-0.023753148,-0.022051126,0.0036089343,2.0,1.5297611,-0.20476674,9.684436,0.24088402,-0.24470471,-0.054850493,-0.078837655,-0.0039799954,-0.980142,2016-12-06 16:59:08,34.7109450980398
1.8483237,-0.5267244,9.662998,-0.017358461,-0.010918427,-0.015391554,2.0,1.7707022,-0.4193489,9.636345,0.040803887,-0.057363268,-0.0476205,-0.09304308,0.005111416,-0.97997713,2016-12-06 16:59:09,32.10161283720864
1.7429788,-0.5267244,9.595961,-0.0029085937,-0.002138458,0.0025106072,2.0,1.8138925,-0.4848659,9.625232,-0.01600665,-0.0054666046,-0.009266724,-0.0958216,0.008245232,-0.9800986,2016-12-06 16:59:10,33.927222277597416
1.4748282,-0.4309563,9.682152,-0.0032929352,0.009835712,0.0029037634,2.0,1.7780051,-0.5116847,9.630537,-0.07546162,-0.033129193,0.026288833,-0.0942615,0.0096945055,-0.9798191,2016-12-06 16:59:11,12.522460504731184
1.0821792,0.10534488,9.595961,0.04033676,0.04140494,0.011794935,2.0,1.5167959,-0.37899628,9.681224,-0.45440868,0.43347767,0.043704156,-0.07977813,0.0055182725,-0.98143494,2016-12-06 16:59:12,39.99568884534664
0.90021986,0.25857377,9.653421,0.039513286,0.033325896,0.02460878,2.0,1.1427157,-0.014044928,9.739836,-0.27101344,0.32731292,-0.13749036,-0.05749714,-0.010034455,-0.9812475,2016-12-06 16:59:13,40.836688749532755
0.842759,0.2777274,9.797073,0.016857952,0.012004745,0.008047746,2.0,0.9574713,0.22623037,9.757175,-0.11300975,0.059796926,-0.059487596,-0.045816515,-0.020576637,-0.98074794,2016-12-06 16:59:14,18.599821886447852
0.842759,0.48841715,9.682152,0.013014388,0.0046761106,-0.009441028,2.0,0.88101643,0.38873574,9.759255,-0.063795604,0.11521711,-0.034327697,-0.040375974,-0.028039247,-0.98054206,2016-12-06 16:59:15,16.305867651895674
0.80445176,0.50757074,9.615114,0.007608045,0.0027609987,-0.012904556,2.0,0.83953935,0.50033003,9.75783,-0.035938796,0.044483833,-0.10100372,-0.037309468,-0.03312367,-0.98104507,2016-12-06 16:59:16,35.71339000127411
0.8523358,0.45968673,9.605537,-0.0,-0.0,-0.0,2.0,0.83208203,0.50944763,9.757997,0.039620247,-0.005494766,-0.12841152,-0.03690937,-0.03344188,-0.9813902,2016-12-06 16:59:17,40.512766405490915
0.8331822,0.4309563,9.682152,-0.0030587034,4.3038925E-4,0.010776996,2.0,0.83365023,0.49344364,9.758685,-0.0028090305,0.010509236,-0.12909985,-0.037054654,-0.03274916,-0.9809254,2016-12-06 16:59:18,46.05685897072362
0.8714894,0.32561144,9.672575,-0.0069035343,-0.0016127068,-0.0086847525,2.0,0.8374481,0.4581073,9.760083,0.061494768,-0.10397824,-0.116876945,-0.03752221,-0.031086743,-0.980589,2016-12-06 16:59:19,39.50221049640667
0.8619126,0.16280572,9.605537,-0.011226854,-0.0038847341,0.00368175,2.0,0.8719892,0.35246626,9.761445,0.09505553,-0.025577923,-0.1046183,-0.04040962,-0.025921669,-0.9815767,2016-12-06 16:59:21,49.906852113636724
0.8619126,0.18195933,9.710882,-0.00926085,-0.0012842057,0.0126143815,2.0,0.899756,0.2496892,9.7620945,-8.1313495E-4,-0.20882817,-0.037166655,-0.042721953,-0.021131976,-0.98114115,2016-12-06 16:59:22,43.85965635369616
0.1436521,0.9864111,10.218452,-6.1648607E-4,0.013847188,-0.0024637885,2.0,0.8745003,0.17318098,9.766047,-0.2888253,0.5350771,-0.19094175,-0.042212542,-0.016981192,-0.9815554,2016-12-06 16:59:23,16.536044083123823
0.38307226,2.2888567,9.452309,0.12831177,0.030714134,0.020303456,1.0,0.6317332,0.9749519,9.7375965,-0.29122445,1.1906832,-0.09439057,-0.021938851,-0.055131536,-0.9790832,2016-12-06 16:59:24,43.54378408080319
0.45010993,2.078167,9.232041,0.079203136,0.013520811,0.023630733,2.0,0.4263384,2.0475113,9.581039,-0.12669076,0.2543274,-0.23748153,6.173697E-4,-0.107249975,-0.9721723,2016-12-06 16:59:25,44.841836856392945
0.82360536,0.20111294,9.77792,-0.12796393,-0.016593626,-0.019025821,2.0,0.43700868,1.6572,9.65573,0.33935112,-1.4120337,0.0828186,-0.0040757824,-0.08762553,-0.9739788,2016-12-06 16:59:26,45.149662815305206
0.8523358,0.32561144,9.643845,-0.10795708,-0.025623662,-0.03196325,1.0,0.6985267,0.52879554,9.767438,0.1595552,-0.24276827,-0.11061129,-0.029690603,-0.033433348,-0.97974676,2016-12-06 16:59:27,49.54464365179607
0.8331822,0.24899697,9.653421,4.9003935E-4,-0.0056280135,-0.002599511,1.0,0.85937685,0.24987212,9.765727,0.012325359,-0.0047058687,-0.108901255,-0.04058536,-0.020960234,-0.98026264,2016-12-06 16:59:28,43.6346207777709
0.90979666,0.22026655,9.682152,3.9511413E-4,-0.0014736017,0.0034891886,1.0,0.8716499,0.2554865,9.764494,5.226925E-5,-0.010320241,-0.09404724,-0.041192338,-0.021273565,-0.98064595,2016-12-06 16:59:29,46.46970182018835
0.8714894,0.2681506,9.682152,-9.741142E-4,-6.409432E-4,-0.008435081,1.0,0.8766166,0.2525101,9.764126,-0.0049143485,0.006276518,-0.0664391,-0.041489866,-0.02113495,-0.9808104,2016-12-06 16:59:30,44.388464066731494
0.8523358,0.20111294,9.653421,-0.0,0.0,-0.0,1.0,0.8800051,0.25225094,9.763828,-0.008302912,-0.020705013,-0.07976183,-0.041679718,-0.021120977,-0.98095673,2016-12-06 16:59:31,44.999296305333026
0.8523358,0.23942018,9.653421,0.0010448385,7.824672E-4,0.009236256,1.0,0.88043034,0.25433153,9.763737,-0.008728133,-0.022785624,-0.10691025,-0.04163129,-0.021326916,-0.98051053,2016-12-06 16:59:32,15.8981002411676
0.90021986,0.2777274,9.653421,0.001846466,0.0020090207,0.012717906,1.0,0.8742591,0.25243688,9.764339,0.06554491,-0.061752014,-0.0530324,-0.041379124,-0.021094771,-0.9808778,2016-12-06 16:59:33,12.843602257703484
1.1492168,0.20111294,9.691729,-0.0035675452,-0.01416002,0.009555625,2.0,0.95505744,0.24006642,9.75708,0.13457035,-0.022140859,-0.12749457,-0.04552747,-0.021321295,-0.98043656,2016-12-06 16:59:34,13.88999868448016
1.1204864,0.12449849,9.682152,-0.006035464,-0.009525918,-0.009505842,2.0,1.1020999,0.20831358,9.742297,-0.026092537,-0.03124906,-0.044610295,-0.05334922,-0.020854563,-0.98116934,2016-12-06 16:59:35,13.778296757173932
1.1587936,0.2873042,9.672575,6.8117934E-4,-0.0014853657,-0.0014709524,1.0,1.1353565,0.19599165,9.738735,0.035993353,0.035554256,-0.109149,-0.055198807,-0.020392446,-0.9816086,2016-12-06 16:59:36,25.976951859255124
1.0534488,0.21068975,9.643845,0.0038383794,1.4069906E-4,0.010062978,1.0,1.1522949,0.22865406,9.736032,-0.13076884,-0.024348844,-0.07920568,-0.055615783,-0.022525603,-0.98043424,2016-12-06 16:59:37,16.32552188827056
1.3982137,0.076614454,9.730036,-0.008457768,-0.013739805,-0.015413914,2.0,1.1738241,0.22741176,9.73349,0.16096996,-0.118448965,-0.063043155,-0.05664897,-0.022827042,-0.9798516,2016-12-06 16:59:38,32.65978715889011
1.1875241,0.19153613,9.586384,-0.01349701,-0.021543896,-0.020542974,2.0,1.3159261,0.1484881,9.716825,0.005247708,-0.05314568,-0.114479415,-0.064695135,-0.019858915,-0.98059696,2016-12-06 16:59:39,17.50243147387398
1.1779473,0.21068975,9.624691,0.0034441683,-0.001071855,0.002514935,1.0,1.3661155,0.12655073,9.710205,-0.18114527,0.06413413,-0.039758712,-0.06746053,-0.019140525,-0.98068273,2016-12-06 16:59:40,40.04457338269414
0.842759,0.23942018,9.710882,0.005694615,0.024771739,0.0103942985,2.0,1.2053078,0.17071332,9.730801,-0.3063649,0.07445293,-0.11483522,-0.05883771,-0.020134132,-0.98029006,2016-12-06 16:59:41,44.39373851152487
0.90021986,0.19153613,9.701305,0.0032614272,0.014468838,-0.0034711508,2.0,0.9476678,0.20715979,9.758555,-0.04872481,0.010765776,-0.115349814,-0.04549958,-0.019543612,-0.9807069,2016-12-06 16:59:42,44.024906702531716
0.6991069,0.5267244,9.672575,0.01683228,0.008847446,-0.014943715,2.0,0.858583,0.27795497,9.7650385,-0.21842664,0.23961824,-0.1082121,-0.040436693,-0.02205702,-0.9816588,2016-12-06 16:59:43,38.290674603947366
3.016694,2.2122424,9.653421,0.035249572,0.019344483,0.03967055,2.0,0.7547837,0.38000247,9.770173,-0.060146004,1.6221887,0.8264568,-0.034192167,-0.026281094,-0.9812963,2016-12-06 16:59:44,40.03857941868634
-0.80445176,-0.7086837,9.710882,-0.07563509,0.12187109,1.0621569,2.0,0.13680308,-0.11581421,9.805013,-0.9676443,-0.5243421,-0.08008438,-0.008976558,0.0017166358,-0.8709701,2016-12-06 16:59:45,37.79774104462199
-0.8714894,-0.6703765,9.691729,-0.028418915,0.047916025,0.24792549,2.0,-0.88082427,-0.8623713,9.728868,0.009122075,0.22221495,0.009680722,-0.006776512,0.06260926,-0.6174019,2016-12-06 16:59:46,52.08960264714226
-0.79487497,-0.6799533,9.662998,0.00509357,-0.0037295106,-0.0052747116,2.0,-0.8715142,-0.6751837,9.744485,0.027052712,0.007786715,-0.0467975,-0.0023390187,0.05625031,-0.5781452,2016-12-06 16:59:47,46.18855858791945
-0.8810662,-0.6512229,9.749189,0.0,0.0,-0.0,2.0,-0.8638065,-0.67233884,9.745367,0.005724574,-0.035919208,-0.0885414,-0.0024459334,0.055844128,-0.5781949,2016-12-06 16:59:48,46.90928527855603
-0.78529817,-0.6512229,9.701305,0.0,0.0,-0.0,1.0,-0.856509,-0.67904025,9.745547,0.025667787,0.038883958,-0.04785993,-0.0031685485,0.055725757,-0.57486516,2016-12-06 16:59:49,49.76024365407608
-0.94810385,-0.33518824,9.701305,0.019854587,0.0066517424,0.013427787,2.0,-0.8546829,-0.6266107,9.74922,-0.12598208,0.29972234,-0.024292003,-0.0011147466,0.054101303,-0.5736864,2016-12-06 16:59:50,42.596344129375936
-0.9576807,-0.35434186,9.691729,0.018603615,0.010172467,0.024874661,2.0,-0.9417096,-0.42200488,9.752205,0.029146288,0.108736865,-0.08175783,0.009509239,0.051822353,-0.5661412,2016-12-06 16:59:51,28.729570841898365
-0.9576807,-0.30645782,9.739613,0.0017248087,-6.5494544E-4,-0.007709625,1.0,-0.96182656,-0.33346117,9.753671,-0.005218092,-0.0070475154,-0.028742058,0.013752364,0.050120875,-0.5651326,2016-12-06 16:59:52,11.713607319626476
-0.93852705,-0.31603462,9.710882,-0.0014135315,-0.0022067379,0.0051933,1.0,-0.9439223,-0.3249218,9.755708,0.058599647,-0.0019665656,-0.08526102,0.013725823,0.04908122,-0.5673738,2016-12-06 16:59:53,12.419509530450803
-0.9768343,-0.29688102,9.844957,-0.0040849796,-2.2000323E-4,0.037605084,2.0,-0.93605703,-0.32253557,9.756545,-0.16719113,-0.1269359,0.1590681,0.01332541,0.04875576,-0.562784,2016-12-06 16:59:54,38.46118982139065
-0.91937345,-0.40222588,9.749189,-0.013389491,-0.0076900967,0.100436464,1.0,-0.9629754,-0.33329976,9.753563,0.06403243,-0.102551356,0.21653144,0.0025767586,0.05196238,-0.37297407,2016-12-06 16:59:55,66.69890080063715
-0.90021986,-0.37349546,9.749189,0.055914365,0.018866662,-0.65051985,2.0,-0.8793333,-0.37139902,9.760084,-0.019609593,0.058131017,-0.048776038,0.0029076578,0.048639514,-0.44283417,2016-12-06 16:59:56,31.04795352688329
-0.94810385,-0.36391866,9.615114,0.0011669107,0.008279875,-0.011110484,2.0,-0.89774346,-0.36523417,9.75864,-0.06930123,0.024725486,-0.03371169,0.008459401,0.048747227,-0.52902025,2016-12-06 16:59:57,39.9639577733632
-0.9959879,-0.35434186,9.730036,-4.7669225E-4,7.213731E-4,0.0037086976,2.0,-0.9327708,-0.36609668,9.755322,-0.03427387,-0.015273063,-0.044014238,0.009316845,0.050301347,-0.5280809,2016-12-06 16:59:58,36.7810106926055
-0.90021986,-0.31603462,9.749189,5.282292E-4,-0.004920678,0.0043605133,2.0,-0.93446827,-0.36380607,9.755245,0.07638636,0.009677033,0.024164813,0.00945691,0.050314113,-0.527995,2016-12-06 16:59:59,39.1784261990028
-0.8331822,-0.33518824,9.816227,0.003417626,-0.004709325,0.007926062,1.0,-0.89786476,-0.34042853,9.759526,0.012542229,0.054401245,0.060744558,0.009585908,0.048070867,-0.529902,2016-12-06 17:00:00,43.79170969888291
-0.48841715,-0.36391866,9.77792,-0.0015896067,-0.0027343743,0.0037638342,0.0,-0.8734843,-0.32775906,9.762171,0.34229073,-0.12171242,-0.03724314,0.00951945,0.046660215,-0.5307768,2016-12-06 17:00:01,44.65215403854635
-0.12449849,-0.50757074,9.730036,-0.017879639,-0.044469554,0.021852594,0.0,-0.54650897,-0.4050072,9.7830305,0.4103055,-0.09894566,-0.044482272,-0.003029217,0.03457014,-0.5226844,2016-12-06 17:00:02,41.808238890789355
-0.20111294,-0.7086837,9.816227,-0.011619176,-0.01366162,0.0040910337,0.0,-0.19932416,-0.5296378,9.790309,0.008639298,-0.069657445,-0.09262152,-0.017856112,0.022679297,-0.51724696,2016-12-06 17:00:03,45.039796672446
-0.25857377,-0.641646,9.787497,-0.004512561,0.0079345,-0.009523932,0.0,-0.17644542,-0.6203439,9.78542,-0.068720825,0.007428312,0.034850597,-0.022294795,0.024195515,-0.5216766,2016-12-06 17:00:04,37.86989970213074
-0.24899697,-0.62249243,9.739613,0.0014192854,0.0023141769,0.0046512713,0.0,-0.22310735,-0.6316226,9.783745,-0.04929959,0.032327335,-0.03157603,-0.021538684,0.026531689,-0.52182555,2016-12-06 17:00:05,38.59948839183624
-0.25857377,-0.60333884,9.77792,1.07679814E-4,9.4315235E-4,-0.012004977,0.0,-0.23595405,-0.62097216,9.784124,0.004408153,0.035297222,-0.07281698,-0.020758282,0.026787028,-0.52102274,2016-12-06 17:00:06,37.18147070978137
-0.25857377,-0.61291564,9.691729,1.1842457E-4,3.341212E-4,-0.009577094,0.0,-0.23768313,-0.6229856,9.783956,0.019757567,0.010069936,0.036315385,-0.020640127,0.027038788,-0.5260669,2016-12-06 17:00:07,45.25152354526216
-0.23942018,-0.62249243,9.758766,2.0373789E-4,-7.333244E-4,0.012414081,0.0,-0.23482291,-0.6124439,9.784691,-0.05120438,-4.7172216E-4,-0.03252207,-0.020295931,0.02660324,-0.5249067,2016-12-06 17:00:08,43.274830099223145
-0.23942018,-0.545878,9.768343,0.0,-0.0,0.0,0.0,-0.23895074,-0.611618,9.784641,0.007404853,0.012322656,-0.005232328,-0.020266876,0.02667156,-0.5211645,2016-12-06 17:00:09,40.776552577238235
-0.25857377,-0.61291564,9.77792,0.002479961,-9.1787876E-4,0.0035133117,0.0,-0.23795992,-0.6099403,9.78477,-0.0072063236,0.024265347,-0.0053611826,-0.02017002,0.026621759,-0.5227718,2016-12-06 17:00:10,40.10888018863974
-0.20111294,-0.61291564,9.768343,-8.327982E-4,0.00136129,-0.0060104476,0.0,-0.23755614,-0.60491484,9.785093,-0.02123046,0.005619568,0.007936612,-0.01987938,0.026532095,-0.5254335,2016-12-06 17:00:11,35.3818007031757
-0.2777274,-0.6512229,9.730036,-8.946511E-5,-4.1056654E-5,-0.0021964351,0.0,-0.23894937,-0.60742855,9.784903,-0.006216871,-0.019107424,0.03536768,-0.019917848,0.026685027,-0.5264935,2016-12-06 17:00:12,21.193383841935432
-0.2873042,-0.78529817,9.873688,-0.0015046411,0.0011141539,-0.0033161382,0.0,-0.2349104,-0.6152217,9.784514,0.01698483,-0.024934612,-0.005105136,-0.020428592,0.026670624,-0.5244476,2016-12-06 17:00:13,26.944735746010252
-0.2681506,-0.63206923,9.77792,8.401374E-5,9.727384E-4,-0.0029520763,0.0,-0.23867781,-0.637909,9.782969,-0.033729147,0.024993377,-0.0035605438,-0.021331428,0.02742894,-0.5238804,2016-12-06 17:00:14,24.95687402217628
-0.2777274,-0.62249243,9.749189,0.0012197596,8.447937E-4,-0.0046870676,0.0,-0.25050923,-0.6329,9.782999,0.005342972,-0.0072563333,-0.058071032,-0.020729741,0.027859459,-0.52594787,2016-12-06 17:00:15,20.702803569856258
-0.29688102,-0.6512229,9.825804,0.0,-0.0,-0.0,0.0,-0.2605604,-0.6311174,9.782852,-0.025466893,0.018201804,0.037418544,-0.020360393,0.028263764,-0.52661455,2016-12-06 17:00:16,36.83393513394529
-0.2873042,-0.62249243,9.749189,1.5669105E-4,0.0025129493,-0.0047607403,0.0,-0.27999017,-0.63273513,9.782211,-0.00603715,0.01981945,0.010818799,-0.01979901,0.0292247,-0.52978975,2016-12-06 17:00:17,36.148214450647245
-0.30645782,-0.6512229,9.844957,2.77442E-4,-1.498324E-4,0.009322711,0.0,-0.2917535,-0.62871104,9.782126,0.0057262103,-0.0114453025,0.03814429,-0.019288843,0.029636519,-0.53030294,2016-12-06 17:00:18,18.018108845632877
-0.2873042,-0.60333884,9.758766,-5.8434227E-5,-5.4104403E-5,-0.002197197,0.0,-0.28854716,-0.6255954,9.782421,0.016140208,0.026300106,0.07871021,-0.019357791,0.029336417,-0.52692837,2016-12-06 17:00:19,16.591731302483886
-0.30645782,-0.58418524,9.730036,0.0018996993,6.3717365E-4,-0.010809055,0.0,-0.28368217,-0.6206477,9.782878,-0.015965475,0.007732108,-0.071570836,-0.019218892,0.029028617,-0.5285451,2016-12-06 17:00:20,9.340247615235626
-0.29688102,-0.58418524,9.77792,-8.467624E-4,1.6917108E-4,0.002021977,0.0,-0.28426817,-0.6164728,9.783125,-0.028999822,0.0035571666,-0.017336348,-0.01905969,0.02891648,-0.52744853,2016-12-06 17:00:21,15.104612261836063
-0.29688102,-0.62249243,9.710882,-0.002061397,-0.0021422496,-9.107387E-4,0.0,-0.28172308,-0.6243985,9.782697,0.009316136,-0.015757775,-0.0032870395,-0.019488273,0.02900891,-0.52696306,2016-12-06 17:00:22,26.369296139207638
-0.33518824,-0.63206923,9.758766,-4.8084353E-4,-8.009441E-4,0.011171921,0.0,-0.27597207,-0.63036424,9.782478,0.003565116,0.031068923,0.010551945,-0.01995348,0.02888455,-0.52543783,2016-12-06 17:00:23,47.36870356783711
-0.2777274,-0.60333884,9.758766,0.0024811514,9.4756525E-4,0.008090507,0.0,-0.29283607,-0.6265561,9.782232,0.006808797,0.013640455,0.010798016,-0.019340193,0.029511683,-0.5253135,2016-12-06 17:00:24,50.24251871327838
-0.29688102,-0.60333884,9.77792,-2.3148656E-4,4.397916E-4,-0.0043691033,0.0,-0.29753503,-0.62110776,9.782438,0.01150773,0.008192139,-0.04388954,-0.018972393,0.029572709,-0.5254665,2016-12-06 17:00:25,48.804455718254765
-0.2777274,-0.6512229,9.787497,-1.7372465E-4,0.0011736647,-0.011983861,0.0,-0.28925833,-0.62730753,9.782291,-0.05125036,0.028012212,-0.057362746,-0.019319868,0.029474612,-0.52960813,2016-12-06 17:00:26,34.38732657010013
-0.32561144,-0.61291564,9.749189,-0.0012287449,8.408384E-5,0.009246375,0.0,-0.29134518,-0.6309937,9.781991,-0.008302472,0.04531879,0.03827896,-0.019416042,0.0296694,-0.5298053,2016-12-06 17:00:27,33.21399048300899
-0.2777274,-0.63206923,9.768343,-1.5055096E-4,-0.0021573154,0.0049322853,0.0,-0.29614148,-0.63257664,9.781746,0.010114177,0.006040683,-0.0023360094,-0.019487789,0.02983351,-0.5260281,2016-12-06 17:00:28,24.86727051002184
-0.34476504,-0.641646,9.787497,0.0016576892,-6.1034592E-5,-0.0055755246,0.0,-0.28843582,-0.629837,9.782152,-0.024832154,0.044162005,0.02449734,-0.019590426,0.029415539,-0.52560705,2016-12-06 17:00:29,27.597764047406656
-0.2777274,-0.62249243,9.77792,-0.0,-0.0,0.0,0.0,-0.29204428,-0.6264176,9.782266,0.00601699,-0.013738758,-0.03009628,-0.019309083,0.029503943,-0.5266487,2016-12-06 17:00:30,30.730753661533015
-0.30645782,-0.63206923,9.797073,1.1646942E-4,-0.001619484,-0.0040865354,0.0,-0.28886122,-0.62228835,9.782622,-0.010786429,0.009372718,-0.016833398,-0.01921213,0.029256824,-0.5267496,2016-12-06 17:00:31,20.86648967410634
-0.2873042,-0.63206923,9.787497,7.60662E-5,0.001388029,0.0017034103,0.0,-0.29240575,-0.6208977,9.782607,-0.007241889,0.021602422,0.051284134,-0.019015642,0.029399611,-0.5279309,2016-12-06 17:00:32,38.50016771975462
-0.2873042,-0.62249243,9.797073,-0.0,-0.0,-0.0,0.0,-0.29740715,-0.6155672,9.782792,-0.015860833,-0.0109687485,0.05109875,-0.01871117,0.029433573,-0.5261657,2016-12-06 17:00:33,40.09510118564273
-0.32561144,-0.61291564,9.77792,-5.433225E-4,-0.0011665596,-0.0017826825,0.0,-0.29152858,-0.62670517,9.782262,-0.021739408,0.0137895215,-0.016472606,-0.019248577,0.029546063,-0.529145,2016-12-06 17:00:34,43.09527901921485
-0.2777274,-0.60333884,9.797073,8.84862E-4,-0.0019307968,0.013385883,0.0,-0.28939694,-0.6245485,9.782463,0.030610347,-0.0019874782,-0.0030534384,-0.019235667,0.0293804,-0.5284857,2016-12-06 17:00:35,44.355326721466746
-0.32561144,-0.6512229,9.77792,2.0479289E-5,0.0015483925,-0.00641157,0.0,-0.2897709,-0.61825424,9.782852,0.017363964,-0.021902062,-0.017062845,-0.01901429,0.029186554,-0.52670527,2016-12-06 17:00:36,27.6259182743369
-0.30645782,-0.60333884,9.77792,-4.4119378E-4,8.3681743E-4,-0.008171986,0.0,-0.28728202,-0.62779385,9.782317,-0.025985973,0.014878187,-0.043769,-0.019398604,0.029399412,-0.5294852,2016-12-06 17:00:37,33.618570430068225
-0.25857377,-0.6512229,9.77792,-6.958278E-4,-0.0020099746,0.0058436254,0.0,-0.28220907,-0.6341359,9.782056,0.037042815,0.021220274,0.010974255,-0.019804459,0.029355459,-0.5296495,2016-12-06 17:00:38,34.99767818154097
-0.31603462,-0.60333884,9.797073,1.21397796E-4,-5.897938E-4,0.008773922,0.0,-0.27633047,-0.6355094,9.782136,-0.036937524,0.03621407,0.0108944485,-0.020093335,0.02908961,-0.5275956,2016-12-06 17:00:39,39.57442959068472
-0.2681506,-0.6512229,9.701305,0.0012180164,0.0021402105,0.0029048214,0.0,-0.28879976,-0.6251677,9.782441,0.0163928,-0.0013682488,-0.030272517,-0.0193496,0.029324539,-0.5264319,2016-12-06 17:00:40,44.62759837187576
-0.25857377,-0.62249243,9.710882,-0.0016519899,-0.0025999483,-4.2335593E-4,0.0,-0.28631917,-0.63241744,9.782047,0.054773264,0.005881485,-0.05711917,-0.019798296,0.029366735,-0.5244757,2016-12-06 17:00:41,41.75858396700238
-0.2777274,-0.6512229,9.730036,0.0017309929,0.001046824,-0.0054539847,0.0,-0.28038883,-0.6335579,9.7821455,-0.032879148,0.020642247,-0.016357053,-0.019953419,0.029176055,-0.52602625,2016-12-06 17:00:42,37.645058392883676
-0.2873042,-0.641646,9.768343,2.042693E-4,0.0013747432,0.0027814365,0.0,-0.28875524,-0.62570345,9.782409,0.0027279507,0.012787781,-0.08472066,-0.019402249,0.029318381,-0.5256141,2016-12-06 17:00:43,41.005908678206644
-0.30645782,-0.6512229,9.80665,0.0,0.0,-0.0,0.0,-0.29403266,-0.6293327,9.782019,0.035246074,0.016417116,-0.029849378,-0.019481905,0.02960331,-0.5237834,2016-12-06 17:00:45,43.44552955022862