ACC_X,ACC_Y,ACC_Z,GYRO_X,GYRO_Y,GYRO_Z,LIGH_1,GRAV_X,GRAV_Y,GRAV_Z,LINACC_X,LINACC_Y,LINACC_Z,ROTVEC_X,ROTVEC_Y,ROTVEC_Z,TIME,VOICE
5.793968,-0.12449849,7.422025,-0.007330383,0.0012217305,0.039095376,16.0,6.0098996,-0.4116,7.7381997,0.017199999,0.2704,-0.0139999995,0.105525,-0.307173,0.371058,2017-06-05 06:47:24,33.134302025639336
5.755661,-0.1436521,7.6135616,-0.0061086523,0.010995574,0.034208454,17.0,6.0401998,-0.20699999,7.7228,0.009099999,0.0967,-0.097799994,0.115471,-0.304812,0.364994,2017-06-05 06:47:25,39.269264089055575
5.861006,-0.1340753,7.422025,-0.008552114,-0.002443461,0.028099801,17.0,6.0469,-0.1583,7.7187,0.0015,0.034399997,-0.0222,0.117038,-0.30406,0.362594,2017-06-05 06:47:26,41.688826422283626
5.793968,-0.15322891,7.422025,-0.0012217305,-0.002443461,0.03176499,17.0,6.0369997,-0.1602,7.7265,-0.0058999998,0.023799999,-0.0142,0.116702996,-0.304035,0.362124,2017-06-05 06:47:27,40.36905605058432
5.803545,-0.1436521,7.422025,-0.004886922,-0.002443461,0.02443461,17.0,6.0379,-0.1554,7.7258997,5.9999997E-4,0.031799998,-0.019299999,0.11706,-0.304003,0.36239,2017-06-05 06:47:28,42.05892937067483
5.803545,-0.1340753,7.4028716,-0.012217305,-0.0061086523,0.03176499,17.0,6.0382,-0.14,7.7258997,-0.0084,0.0242,-9.0E-4,0.117781,-0.303667,0.362241,2017-06-05 06:47:29,41.745657928113864
5.8226986,-0.12449849,7.422025,0.013439035,-0.002443461,0.029321533,17.0,6.0413,-0.13509999,7.7235,0.0139999995,0.0014,0.0264,0.118068,-0.303657,0.362146,2017-06-05 06:47:30,41.09145185708779
5.793968,-0.12449849,7.4028716,0.002443461,-0.0012217305,0.02687807,17.0,6.0383997,-0.1305,7.7258997,-0.018299999,0.007999999,-0.0251,0.118211,-0.303498,0.362108,2017-06-05 06:47:31,39.140234184143246
5.793968,-0.1436521,7.4028716,0.0,-0.0061086523,0.029321533,17.0,6.0362997,-0.1302,7.7275996,-0.029,-0.012399999,0.017099999,0.118179,-0.303373,0.362125,2017-06-05 06:47:32,41.441075574064136
5.793968,-0.11492168,7.422025,-0.0061086523,0.0012217305,0.02687807,17.0,6.0343,-0.13409999,7.7289996,0.0,0.0111,-0.0095,0.117961,-0.303334,0.362209,2017-06-05 06:47:33,39.29098515368046
5.813122,-0.16280572,7.422025,0.0036651916,-0.0036651916,0.034208454,16.0,6.0329,-0.1374,7.7300997,0.0095999995,0.014099999,0.0098,0.11778,-0.303313,0.362275,2017-06-05 06:47:34,41.749363109395404
5.803545,-0.16280572,7.422025,0.004886922,-0.004886922,0.030543262,17.0,6.033,-0.1381,7.73,-0.0037,0.005,0.0053999997,0.117759,-0.303331,0.362292,2017-06-05 06:47:35,39.726535958138165
5.7843914,-0.1340753,7.422025,0.0036651916,0.002443461,0.02565634,17.0,6.0353,-0.1335,7.7282996,0.0209,0.0103,0.0064999997,0.118017,-0.303373,0.362214,2017-06-05 06:47:36,40.190426463531935
5.803545,-0.1436521,7.441179,-0.008552114,-0.0012217305,0.029321533,17.0,6.0336,-0.1356,7.7296,0.0028,-0.0072999997,0.0052,0.11789,-0.303315,0.362266,2017-06-05 06:47:37,43.5458717821745
5.7843914,-0.15322891,7.441179,-0.0061086523,-0.002443461,0.03176499,19.0,6.0315,-0.1321,7.7313,0.0122,-0.0123,-0.019199999,0.118118,-0.30317,0.362195,2017-06-05 06:47:38,39.87628424477441
5.8322754,-0.11492168,7.422025,-0.004886922,0.002443461,0.032986723,19.0,6.0368,-0.131,7.7271,-0.0069999998,-0.0195,0.024999999,0.118171,-0.303412,0.362179,2017-06-05 06:47:39,40.11720604975807
5.813122,-0.1436521,7.422025,-0.002443461,-0.008552114,0.034208454,19.0,6.0357,-0.1364,7.7279,0.020299999,0.0033999998,0.026999999,0.117871,-0.303399,0.362297,2017-06-05 06:47:40,40.586980850777806
5.803545,-0.1340753,7.3645644,-0.002443461,-0.004886922,0.028099801,19.0,6.0351996,-0.1361,7.7282996,4.0E-4,0.0296,-0.0219,0.117910996,-0.303415,0.36228698,2017-06-05 06:47:41,40.543976371301795
5.765238,-0.15322891,7.431602,0.004886922,0.0061086523,0.029321533,19.0,6.0294,-0.1348,7.7328997,-0.0084999995,0.0198,-0.0111,0.117961,-0.303136,0.362285,2017-06-05 06:47:42,41.43512615842877
5.7843914,-0.1340753,7.422025,0.013439035,-0.0012217305,0.028099801,19.0,6.032,-0.13319999,7.7307997,0.023699999,1.0E-4,-0.003,0.11797,-0.303178,0.36228698,2017-06-05 06:47:43,43.628800778780985
5.803545,-0.15322891,7.422025,0.0012217305,-0.0012217305,0.030543262,19.0,6.0336,-0.1343,7.7296,-0.0221,0.012399999,-0.0126,0.117935,-0.303349,0.362309,2017-06-05 06:47:44,42.27603975875704
5.803545,-0.12449849,7.422025,-0.009773844,-0.002443461,0.02687807,19.0,6.0295997,-0.1374,7.7327,-0.0374,0.0045,-0.0166,0.117738,-0.303114,0.36238798,2017-06-05 06:47:45,38.74507275220467
5.813122,-0.12449849,7.422025,0.004886922,-0.004886922,0.02321288,19.0,6.0341997,-0.1356,7.7290998,0.008599999,-0.016999999,0.011,0.117926,-0.303343,0.362327,2017-06-05 06:47:46,41.134868422595986
5.803545,-0.1340753,7.4507556,0.0036651916,0.0012217305,0.029321533,19.0,6.0354,-0.132,7.7282,0.0037,0.0081,0.0094,0.118112,-0.303343,0.362266,2017-06-05 06:47:47,39.5391357270796
5.793968,-0.1340753,7.431602,-0.010995574,0.004886922,0.036651913,19.0,6.0343,-0.1347,7.7290998,0.010199999,0.0013,0.024699999,0.117969,-0.303328,0.362322,2017-06-05 06:47:48,39.45890149585576
5.7843914,-0.1340753,7.422025,-0.0012217305,-0.004886922,0.032986723,19.0,6.0285,-0.1371,7.7335997,0.0431,0.013599999,-8.0E-4,0.117732,-0.303043,0.36242,2017-06-05 06:47:49,40.73573905087826
5.7843914,-0.15322891,7.4507556,0.002443461,-0.0061086523,0.029321533,17.0,6.0358996,-0.1329,7.7278,-0.0075,0.009,-0.0041,0.118126,-0.303353,0.362288,2017-06-05 06:47:50,42.5844473734269
5.7748146,-0.15322891,7.422025,0.004886922,-0.0061086523,0.032986723,19.0,6.0305,-0.1339,7.732,-0.006,-0.0157,0.031,0.117807,-0.303192,0.362405,2017-06-05 06:47:51,40.194711525955455
5.7843914,-0.1436521,7.422025,0.010995574,-0.0036651916,0.02443461,17.0,6.0354,-0.1364,7.7282,-0.02,0.0122,-0.0094,0.117931,-0.303419,0.362375,2017-06-05 06:47:52,41.604236962283
5.793968,-0.16280572,7.4028716,-0.0061086523,-0.0012217305,0.03176499,17.0,6.0337996,-0.138,7.7293997,-0.0144,0.0148,-0.0235,0.117824,-0.303357,0.362419,2017-06-05 06:47:53,40.22819042407573
5.7843914,-0.1340753,7.4603324,-0.002443461,-0.0012217305,0.02565634,17.0,6.0337,-0.13499999,7.7295,0.0143,0.0121,-0.0176,0.117957,-0.303293,0.36238,2017-06-05 06:47:54,40.851021282167544
5.7843914,-0.12449849,7.422025,0.0,-0.002443461,0.021991149,19.0,6.0348,-0.13849999,7.7286,-0.0191,-0.0041,-0.0275,0.117785,-0.303495,0.362452,2017-06-05 06:47:55,38.80966514870633
5.793968,-0.15322891,7.393295,-0.0061086523,-0.008552114,0.028099801,17.0,6.032,-0.1322,7.7309,-0.0211,-0.0094,0.0033,0.118048,-0.303143,0.362368,2017-06-05 06:47:56,41.25225513766697
5.793968,-0.17238252,7.431602,-0.0036651916,-0.002443461,0.02565634,17.0,6.0327,-0.1387,7.7302,0.0144,0.005,0.0061,0.117805,-0.303305,0.362462,2017-06-05 06:47:57,41.05065710337265
5.793968,-0.1340753,7.422025,0.004886922,-0.014660766,0.02565634,17.0,6.0362997,-0.13509999,7.7275,-0.0033,0.011899999,0.0025,0.118026,-0.303438,0.362397,2017-06-05 06:47:58,41.318079653772095
5.793968,-0.15322891,7.431602,0.002443461,0.002443461,0.03176499,17.0,6.0323,-0.1363,7.7306,-0.0042,-0.0162,0.0033,0.117886,-0.30323198,0.362456,2017-06-05 06:47:59,40.523626973459734
5.803545,-0.15322891,7.422025,0.007330383,0.0012217305,0.029321533,17.0,6.0344996,-0.1375,7.7288,-0.012,-0.024699999,-0.0022,0.117885,-0.30338,0.36246,2017-06-05 06:48:00,38.87370495965301
5.7843914,-0.1436521,7.422025,-0.0012217305,-0.007330383,0.02565634,17.0,6.0316,-0.1355,7.7310996,0.0067,0.0018999999,-0.0053999997,0.117954,-0.303189,0.362464,2017-06-05 06:48:01,39.12777111567851
5.803545,-0.1436521,7.4124484,0.008552114,-0.007330383,0.028099801,17.0,6.0334,-0.1381,7.7296996,-2.9999999E-4,-0.0044,4.9999997E-4,0.117844,-0.303322,0.362509,2017-06-05 06:48:02,42.41114445949374
5.7843914,-0.15322891,7.422025,0.004886922,-0.0036651916,0.040317107,17.0,6.0323,-0.1423,7.7303996,-0.0197,0.0206,-0.0099,0.117563,-0.303399,0.362623,2017-06-05 06:48:03,41.386127625478025
5.7748146,-0.1340753,7.422025,-0.0012217305,-0.0012217305,0.035430185,17.0,6.0299,-0.1369,7.7324996,-0.0241,-0.0142,-0.0311,0.117827,-0.303097,0.362554,2017-06-05 06:48:04,41.04736067880842
5.7843914,-0.1340753,7.422025,-0.013439035,-0.002443461,0.032986723,17.0,6.0323997,-0.1426,7.7303996,-0.0075999997,0.0196,0.0061999997,0.117632,-0.303345,0.362635,2017-06-05 06:48:05,40.63802601810612
5.8226986,-0.1340753,7.479486,-0.0012217305,0.013439035,0.030543262,17.0,6.0311,-0.14019999,7.7314,-0.0042,0.0072,-0.062299997,0.117702,-0.303287,0.362619,2017-06-05 06:48:06,40.02215011656286
5.7843914,-0.1340753,7.422025,0.0012217305,-0.0012217305,0.02443461,17.0,6.0291,-0.1644,7.7325997,-0.0095,0.030199999,-0.0064999997,0.116372,-0.30365,0.36236,2017-06-05 06:48:07,40.35263280940618
5.803545,-0.1340753,7.4603324,0.004886922,-0.0012217305,0.036651913,17.0,6.0376,-0.1528,7.7261,-0.013599999,0.0087,-0.0084999995,0.116717,-0.304059,0.361054,2017-06-05 06:48:08,40.409637927169165
5.793968,-0.1340753,7.431602,0.0012217305,-0.0036651916,0.03176499,19.0,6.0333,-0.14109999,7.7296996,-4.0E-4,-0.0106999995,4.0E-4,0.117109,-0.303607,0.360824,2017-06-05 06:48:09,40.91464763597248
5.7843914,-0.15322891,7.422025,0.0,-0.0061086523,0.02443461,16.0,6.0325,-0.14109999,7.7303,-0.0169,-0.0115,-0.0095,0.117092,-0.303564,0.360839,2017-06-05 06:48:10,40.569440765474184
5.7748146,-0.15322891,7.441179,0.0,-0.0012217305,0.029321533,19.0,6.0334997,-0.1335,7.7296996,-0.0042,0.0202,0.0253,0.117457,-0.303475,0.360726,2017-06-05 06:48:11,40.16550165955172
5.813122,-0.1340753,7.4124484,0.012217305,-0.0012217305,0.029321533,17.0,6.032,-0.1337,7.7309,-0.040999997,0.0106,-0.023699999,0.117373,-0.303292,0.360771,2017-06-05 06:48:12,41.891666479424494
5.7748146,-0.1436521,7.4124484,0.002443461,-0.002443461,0.02687807,17.0,6.0270996,-0.1286,7.7348,-0.013599999,-0.012499999,-0.0164,0.117479,-0.303037,0.360752,2017-06-05 06:48:13,46.25064551930025
5.803545,-0.1340753,7.4124484,0.004886922,0.0012217305,0.02443461,17.0,6.0355,-0.1356,7.7281,-0.0077,-0.0077,-0.0138,0.117458,-0.303626,0.360764,2017-06-05 06:48:14,42.36718245408598
5.813122,-0.1436521,7.422025,0.004886922,0.0012217305,0.034208454,17.0,6.0357,-0.1383,7.7279,-0.0098,-0.0042,0.0042,0.117305,-0.303687,0.360821,2017-06-05 06:48:15,42.26863124508703
5.803545,-0.16280572,7.431602,-0.0036651916,0.0012217305,0.034208454,17.0,6.0347,-0.1414,7.7286,0.0155,0.0177,0.0013,0.117147,-0.303681,0.360883,2017-06-05 06:48:16,41.52492015519199
5.717354,-0.15322891,7.4028716,-0.004886922,-0.002443461,0.02565634,16.0,6.0351,-0.1383,7.7283998,-0.0426,0.024699999,-0.0018999999,0.116982,-0.303789,0.35987,2017-06-05 06:48:17,42.89898629455842
5.851429,-0.1436521,7.422025,-0.0012217305,-0.012217305,0.02443461,16.0,6.0291,-0.1449,7.7328997,-0.0044,0.008599999,-0.0773,0.117354,-0.303075,0.362709,2017-06-05 06:48:18,48.90888684978735
5.793968,-0.1340753,7.422025,0.0036651916,0.0,0.02687807,17.0,6.0285997,-0.1545,7.7331,-0.0077,0.0087,-0.014699999,0.117065,-0.303271,0.36287498,2017-06-05 06:48:19,46.27834211801396
5.793968,-0.1436521,7.422025,0.017104227,0.0036651916,0.019547688,17.0,6.0284,-0.1379,7.7335997,0.041699998,0.0053,-0.023599999,0.118011,-0.302977,0.363369,2017-06-05 06:48:20,40.005412413882695
5.793968,-0.1340753,7.4124484,-0.0036651916,0.0061086523,0.03176499,16.0,6.032,-0.13769999,7.7307997,0.0071,-0.0050999997,-0.0246,0.118115,-0.303125,0.363344,2017-06-05 06:48:21,55.44357230826536
5.803545,-0.16280572,7.4028716,-0.0036651916,-0.0036651916,0.029321533,16.0,6.0304,-0.1371,7.7321,-0.0095999995,0.0041,0.015,0.118105,-0.303022,0.363354,2017-06-05 06:48:22,54.18361139958087
5.765238,-0.12449849,7.422025,0.002443461,-0.0012217305,0.02565634,17.0,6.0355997,-0.1378,7.7279997,-0.019399999,0.005,-0.029099999,0.118199,-0.303327,0.363328,2017-06-05 06:48:23,40.85789054905571
5.765238,-0.1340753,7.431602,0.004886922,-0.004886922,0.035430185,17.0,6.0295997,-0.139,7.7325997,0.0039,0.0063,0.0026,0.118032,-0.303132,0.363401,2017-06-05 06:48:24,38.19166745782714
5.7748146,-0.15322891,7.441179,-0.0061086523,0.0036651916,0.032986723,16.0,6.0315,-0.1375,7.7311997,-0.0028,0.0041,-0.0058999998,0.118125,-0.303089,0.363379,2017-06-05 06:48:26,41.34248099116852
5.803545,-0.16280572,7.422025,0.0036651916,-0.0061086523,0.029321533,16.0,6.0304,-0.1388,7.732,-0.0064,0.0045,-0.010199999,0.118135,-0.303104,0.363384,2017-06-05 06:48:27,40.105679283290044
5.7843914,-0.12449849,7.3645644,-0.0012217305,0.0012217305,0.029321533,16.0,6.0306,-0.1406,7.7318997,0.0037999998,0.0064999997,0.0033999998,0.117972,-0.303092,0.363452,2017-06-05 06:48:28,49.1488506708405
5.755661,-0.15322891,7.431602,0.008552114,0.0061086523,0.029321533,16.0,6.0274997,-0.1424,7.7342,0.048299998,-0.0013,0.010199999,0.117927,-0.303065,0.363481,2017-06-05 06:48:29,50.93555717874943
5.793968,-0.15322891,7.4028716,0.009773844,-0.0012217305,0.02565634,16.0,6.0306997,-0.1382,7.7317996,-0.0109,-0.0128999995,-0.0089,0.118086,-0.303051,0.36343,2017-06-05 06:48:30,41.20043025234473
5.813122,-0.1340753,7.422025,0.0012217305,-0.0012217305,0.03176499,19.0,6.0325,-0.1396,7.7303,0.0047999998,0.0148,-0.0034999999,0.118137,-0.30317,0.363428,2017-06-05 06:48:31,42.34260523708082
5.765238,-0.12449849,7.422025,-0.02076942,-0.0036651916,0.03176499,19.0,6.0337,-0.1399,7.7293997,-0.0145,-0.003,-0.0042,0.118088,-0.303251,0.363448,2017-06-05 06:48:32,39.28550586909661
5.793968,-0.1340753,7.441179,0.007330383,0.0,0.02443461,17.0,6.0308,-0.1369,7.7317,-0.0211,-0.0056,-0.0381,0.118158,-0.303029,0.363439,2017-06-05 06:48:33,40.66308450715339
5.803545,-0.12449849,7.441179,-0.009773844,-0.0036651916,0.037873644,17.0,6.0301,-0.13949999,7.7321997,-0.012999999,-0.0033,-0.029099999,0.118028,-0.303038,0.363492,2017-06-05 06:48:34,40.581899977758695
5.7843914,-0.15322891,7.441179,-0.004886922,0.002443461,0.03176499,17.0,6.032,-0.1382,7.7307997,-0.025899999,-0.0244,0.0028,0.11813,-0.303118,0.363455,2017-06-05 06:48:35,45.29537322624542
5.803545,-0.12449849,7.422025,-0.0061086523,0.0,0.028099801,17.0,6.0323997,-0.13759999,7.7304997,0.0186,-0.0053999997,0.020399999,0.118167,-0.303133,0.363452,2017-06-05 06:48:36,41.900818632164814
5.813122,-0.12449849,7.422025,0.0,0.0061086523,0.032986723,17.0,6.0344996,-0.1346,7.7289,0.030499998,-0.0179,0.0046,0.11835,-0.303193,0.363394,2017-06-05 06:48:37,38.43803796531451
5.7843914,-0.1340753,7.422025,-0.0061086523,0.0,0.032986723,17.0,6.0312,-0.1391,7.7314,0.009,-0.0138,0.037699997,0.118080996,-0.303087,0.363502,2017-06-05 06:48:38,40.36027669601563
5.793968,-0.1340753,7.422025,-0.004886922,0.002443461,0.034208454,17.0,6.0288997,-0.1391,7.7331996,0.023,-0.013499999,0.0309,0.117997,-0.30294698,0.363541,2017-06-05 06:48:39,39.42716692961969
5.793968,-0.1340753,7.4124484,-0.008552114,-0.002443461,0.028099801,16.0,6.0294,-0.1365,7.7328997,0.0033999998,0.0211,0.0071,0.118158,-0.302934,0.363497,2017-06-05 06:48:40,41.159927430394035
5.7843914,-0.1436521,7.4124484,-0.002443461,0.0012217305,0.029321533,16.0,6.0339,-0.1405,7.7293,-0.0202,0.0064999997,0.0082,0.118118,-0.303299,0.363515,2017-06-05 06:48:41,38.76524629550201
5.7748146,-0.10534488,7.4028716,0.004886922,-0.004886922,0.030543262,17.0,6.033,-0.1387,7.73,0.0018,-0.012999999,-0.0036,0.118154,-0.30318,0.363517,2017-06-05 06:48:42,42.144406475766736
5.7843914,-0.15322891,7.4028716,-0.004886922,-0.004886922,0.032986723,17.0,6.0346,-0.1362,7.7288,-0.0213,0.011299999,0.010799999,0.118375,-0.303183,0.36345,2017-06-05 06:48:43,41.02786201734054
5.7843914,-0.15322891,7.4124484,0.004886922,-0.004886922,0.028099801,16.0,6.0316997,-0.13859999,7.731,0.0138,-0.012499999,-0.036399998,0.118132,-0.303105,0.363541,2017-06-05 06:48:44,41.64953638581583
5.7843914,-0.1436521,7.422025,0.008552114,-0.0012217305,0.02443461,16.0,6.0337996,-0.1408,7.7293,0.0223,0.0169,0.017199999,0.118080996,-0.303231,0.363567,2017-06-05 06:48:45,41.402442869753486
5.803545,-0.1436521,7.422025,-0.0012217305,-0.0012217305,0.030543262,17.0,6.0348,-0.13769999,7.7286,-4.9999997E-4,-0.0049,-0.0093,0.118246,-0.303257,0.363514,2017-06-05 06:48:46,38.969814403417644
5.793968,-0.1436521,7.431602,-0.004886922,-0.002443461,0.030543262,17.0,6.0308,-0.13319999,7.7317996,0.0201,0.0099,0.0092,0.118359,-0.302945,0.363487,2017-06-05 06:48:47,41.79108330260148
5.793968,-0.1436521,7.422025,0.004886922,0.0012217305,0.030543262,14.0,6.0297,-0.1393,7.7324996,-0.0069,-0.0134,-0.0023,0.118064,-0.303001,0.363598,2017-06-05 06:48:48,40.66122010720782
5.7843914,-0.15322891,7.422025,-0.0012217305,-0.002443461,0.02443461,17.0,6.0302997,-0.138,7.7321,0.0033999998,-0.0149,0.012,0.118139,-0.303006,0.363584,2017-06-05 06:48:49,39.27607001242358
5.7748146,-0.1340753,7.4124484,0.004886922,0.0012217305,0.019547688,14.0,6.0348,-0.1406,7.7286,-0.009,-0.010799999,-0.037299998,0.118132,-0.303305,0.363592,2017-06-05 06:48:50,42.757760716274014
5.755661,-0.1340753,7.4124484,-0.008552114,-0.0012217305,0.029321533,14.0,6.034,-0.14299999,7.7290998,0.0026999998,-0.009099999,0.0056999996,0.118007,-0.303306,0.363639,2017-06-05 06:48:51,51.34820857625431
5.793968,-0.12449849,7.469909,-0.015882496,0.0061086523,0.02076942,14.0,6.0316997,-0.141,7.731,0.0021,0.0175,0.049599998,0.118044,-0.303138,0.363634,2017-06-05 06:48:52,43.44342804775445
5.7843914,-0.1340753,7.422025,0.0,0.0012217305,0.035430185,16.0,6.0295997,-0.1365,7.7327,0.0267,0.0134,0.0,0.118197,-0.302935,0.363585,2017-06-05 06:48:53,55.69690987572827
5.7843914,-0.11492168,7.422025,-0.004886922,0.0012217305,0.028099801,14.0,6.0306,-0.137,7.7318997,0.0299,-0.025799999,0.0016999999,0.118103,-0.303063,0.363617,2017-06-05 06:48:54,58.9447164632694
5.793968,-0.1340753,7.4028716,-0.0012217305,0.0,0.03176499,14.0,6.0306997,-0.1409,7.7317,-8.0E-4,0.0077,-0.024699999,0.118028,-0.303079,0.363648,2017-06-05 06:48:55,44.59746927377288
5.803545,-0.1340753,7.393295,-0.004886922,-0.004886922,0.03176499,14.0,6.0355,-0.1366,7.7281,-0.0139,-0.0164,0.0053999997,0.118335,-0.303267,0.363553,2017-06-05 06:48:56,40.71498725163772
5.7843914,-0.1340753,7.431602,0.0,0.0012217305,0.032986723,14.0,6.0295,-0.1422,7.7325997,0.0013,-0.0095999995,-0.012999999,0.117947,-0.303036,0.363697,2017-06-05 06:48:57,41.88125738153574
5.803545,-0.12449849,7.4124484,-0.010995574,-0.009773844,0.034208454,14.0,6.0332,-0.1363,7.7297997,0.0278,0.0030999999,0.0212,0.118299,-0.303134,0.363581,2017-06-05 06:48:58,38.436896334406946
5.813122,-0.1340753,7.4124484,-0.0012217305,0.0012217305,0.02687807,14.0,6.0315,-0.1392,7.7310996,-0.0034999999,0.0061,-0.0069,0.118133,-0.303091,0.363645,2017-06-05 06:48:59,39.01527025898418
5.793968,-0.16280572,7.422025,0.0061086523,-0.002443461,0.02443461,16.0,6.0337,-0.1344,7.7295,-0.0021,-0.0084999995,0.0115,0.118524,-0.303076,0.36352,2017-06-05 06:49:00,39.29231116614871
5.793968,-0.12449849,7.431602,0.002443461,0.002443461,0.034208454,17.0,6.029,-0.1392,7.7331,-0.0022,0.0144,0.0016,0.118134,-0.302906,0.36366,2017-06-05 06:49:01,39.74800373242136
5.803545,-0.12449849,7.4507556,-0.013439035,-0.002443461,0.029321533,17.0,6.0259,-0.1378,7.7356,0.0389,-0.0163,-0.0018,0.118133,-0.302704,0.363672,2017-06-05 06:49:02,39.42739842762736
5.7843914,-0.11492168,7.4124484,-0.012217305,-0.0012217305,0.034208454,17.0,6.0281,-0.14119999,7.7337,-0.0246,0.0072999997,-0.0055,0.117973,-0.302933,0.363722,2017-06-05 06:49:03,37.05179378664099
5.7843914,-0.1340753,7.4028716,0.009773844,-0.0012217305,0.03176499,16.0,6.0318,-0.14029999,7.7309,-0.0026999998,-0.0026,0.0139999995,0.118109,-0.303112,0.363683,2017-06-05 06:49:04,37.49324018315023
5.803545,-0.1340753,7.422025,0.002443461,-0.0036651916,0.029321533,16.0,6.0316997,-0.1378,7.731,-0.0087,0.0047,-0.0105,0.118209,-0.30307,0.363658,2017-06-05 06:49:05,39.72432107793308
5.793968,-0.1340753,7.441179,-0.007330383,-0.009773844,0.02565634,17.0,6.0316,-0.1382,7.731,-0.012999999,0.0056999996,0.005,0.118185,-0.30313,0.363663,2017-06-05 06:49:06,40.13249582283815
5.813122,-0.1340753,7.441179,-0.0036651916,-0.002443461,0.02321288,14.0,6.0302997,-0.1387,7.7321,0.0253,-0.0221,0.0254,0.118142,-0.303004,0.36369,2017-06-05 06:49:07,40.1528422677125
5.793968,-0.1340753,7.422025,-0.0012217305,-0.002443461,0.028099801,16.0,6.0299997,-0.1383,7.7324,0.0174,-0.0149,0.013499999,0.118166,-0.30295599,0.363689,2017-06-05 06:49:08,41.17137319180252
5.813122,-0.15322891,7.4124484,-0.002443461,-0.004886922,0.02687807,19.0,6.0305,-0.13949999,7.7318997,-0.020499999,-0.0127,-0.0111,0.118115,-0.303031,0.363711,2017-06-05 06:49:09,43.60477263544229
5.7748146,-0.1340753,7.422025,-0.0012217305,0.002443461,0.032986723,17.0,6.0297,-0.13409999,7.7327,-0.0202,-0.0084999995,0.012399999,0.118343,-0.302879,0.363658,2017-06-05 06:49:10,41.089834942826286
5.7843914,-0.12449849,7.422025,0.0061086523,-0.0061086523,0.028099801,17.0,6.0298,-0.14119999,7.7324996,5.9999997E-4,-0.0018999999,-0.0023,0.118029,-0.303017,0.363769,2017-06-05 06:49:11,39.08476138538036
5.793968,-0.15322891,7.4124484,0.007330383,-0.0012217305,0.030543262,16.0,6.0308,-0.1361,7.7317,0.0126,0.0026,0.024899999,0.118282996,-0.302983,0.363685,2017-06-05 06:49:12,39.707569577438065
5.793968,-0.12449849,7.422025,-0.0036651916,0.002443461,0.036651913,19.0,6.0323997,-0.1388,7.7303996,-0.0263,0.0158,-0.0317,0.118203,-0.303122,0.363713,2017-06-05 06:49:13,43.14994316102708
5.7843914,-0.1436521,7.431602,0.002443461,-0.007330383,0.02687807,16.0,6.0319,-0.1372,7.7309,-0.0050999997,0.0039999997,0.0041,0.118259996,-0.303061,0.363703,2017-06-05 06:49:14,46.04351978200629
5.7843914,-0.15322891,7.393295,-0.0061086523,0.0012217305,0.028099801,14.0,6.0297,-0.1373,7.7325997,0.0028,-0.0055,-0.0319,0.118211,-0.302935,0.363732,2017-06-05 06:49:15,40.37141523221206
5.7843914,-0.1340753,7.431602,-0.010995574,-0.0036651916,0.035430185,16.0,6.0301,-0.1384,7.7321997,0.0177,0.0058,0.013599999,0.118168,-0.30303898,0.36375,2017-06-05 06:49:16,39.83289400698132
5.803545,-0.1340753,7.4028716,0.007330383,0.002443461,0.029321533,16.0,6.0312,-0.13499999,7.7314997,-0.0206,-0.0067999996,-0.009,0.118349,-0.302976,0.363694,2017-06-05 06:49:17,40.122704010916735
5.793968,-0.1340753,7.422025,-0.002443461,-0.0036651916,0.028099801,16.0,6.0285,-0.1437,7.7334,0.0224,0.0094,0.0056,0.117955,-0.302987,0.363843,2017-06-05 06:49:18,42.11411742759435
5.793968,-0.15322891,7.422025,0.007330383,-0.002443461,0.02565634,16.0,6.0294,-0.1401,7.7328,-0.0149,-0.011299999,-0.0138,0.118086,-0.302968,0.363808,2017-06-05 06:49:19,40.99623836906459
5.765238,-0.1340753,7.441179,-0.009773844,0.0061086523,0.028099801,16.0,6.0297,-0.1366,7.7325997,-0.0264,0.0039999997,-0.0101,0.118301,-0.30306,0.363756,2017-06-05 06:49:20,40.235400073288204
5.803545,-0.15322891,7.431602,0.002443461,-0.002443461,0.035430185,16.0,6.0260997,-0.1382,7.7353997,0.0134,-0.0221,-0.042099997,0.118102,-0.302747,0.363817,2017-06-05 06:49:21,41.137809835162216
5.7748146,-0.17238252,7.431602,0.008552114,-0.002443461,0.02687807,17.0,6.0313,-0.1384,7.7313,-0.0050999997,-0.0128999995,0.0016,0.118131,-0.303032,0.363805,2017-06-05 06:49:22,44.76090324380895
5.793968,-0.1340753,7.393295,-0.0012217305,-0.0036651916,0.02443461,16.0,6.0326,-0.1373,7.7303,0.0084,0.0138,-0.0188,0.118297,-0.303098,0.36376,2017-06-05 06:49:23,40.104349237422845
5.8322754,-0.1340753,7.441179,0.002443461,0.0,0.035430185,17.0,6.0291,-0.1321,7.7331996,0.0201,-0.0013,0.0309,0.118444,-0.302798,0.363711,2017-06-05 06:49:24,41.90459997476046
5.803545,-0.1436521,7.431602,-0.0012217305,0.0,0.035430185,17.0,6.0327,-0.1375,7.7303,0.0072,0.024,-0.0034999999,0.118291,-0.303101,0.363762,2017-06-05 06:49:25,41.35863714540716
5.793968,-0.12449849,7.4028716,0.0,-0.009773844,0.029321533,14.0,6.0322,-0.1318,7.7307,0.0028,0.0088,-0.01,0.118537,-0.302969,0.363691,2017-06-05 06:49:26,40.42626141905992
5.793968,-0.16280572,7.431602,-0.007330383,-0.0012217305,0.040317107,17.0,6.0278,-0.1345,7.7341,-0.019199999,-0.0178,-0.0023999999,0.118322,-0.302762,0.36379,2017-06-05 06:49:27,41.77575635169258
5.803545,-0.15322891,7.431602,0.008552114,-0.0012217305,0.02443461,17.0,6.0281997,-0.14379999,7.7337,0.0154,0.0106,-0.0045,0.117917,-0.302962,0.363928,2017-06-05 06:49:28,40.01954669874746
5.7748146,-0.12449849,7.422025,-0.0061086523,-0.0012217305,0.029321533,16.0,6.0323997,-0.13759999,7.7304997,0.037,0.0041,0.0117,0.11828,-0.303087,0.36378,2017-06-05 06:49:29,39.509958147090224
5.793968,-0.1340753,7.4124484,0.0,-0.004886922,0.028099801,16.0,6.0287,-0.1405,7.7332997,-0.015299999,0.0175,0.0083,0.118018,-0.302897,0.363873,2017-06-05 06:49:30,38.48529046512099
5.803545,-0.15322891,7.4124484,-0.004886922,-0.007330383,0.030543262,16.0,6.0319,-0.1418,7.7307997,-0.021399999,0.0077,0.0234,0.118083,-0.303139,0.363851,2017-06-05 06:49:31,40.17985250674195
5.765238,-0.11492168,7.422025,0.008552114,0.002443461,0.028099801,17.0,6.0302,-0.1387,7.7321,0.0064,-0.0042999997,0.0030999999,0.11819,-0.302983,0.363835,2017-06-05 06:49:32,42.184017368836436
5.7843914,-0.15322891,7.422025,-0.008552114,0.0,0.034208454,16.0,6.0299,-0.1363,7.7324,-0.0033999998,-0.0164,0.0023999999,0.118254,-0.302847,0.363835,2017-06-05 06:49:33,38.57264349828392
5.793968,-0.1436521,7.4124484,-0.014660766,-0.0012217305,0.03176499,16.0,6.032,-0.1357,7.7309,0.0033999998,0.0122,0.015199999,0.118373,-0.30302,0.3638,2017-06-05 06:49:34,40.11322791844091
5.793968,-0.1340753,7.441179,0.0012217305,0.0,0.03176499,16.0,6.0285,-0.1358,7.7335,0.0,0.0128999995,0.0022,0.118292,-0.302861,0.363844,2017-06-05 06:49:35,40.27727412126489
5.765238,-0.1436521,7.422025,0.0012217305,-0.0036651916,0.034208454,16.0,6.0323,-0.1336,7.7307,-0.0018999999,-0.0088,-0.045599997,0.118479,-0.302995,0.363789,2017-06-05 06:49:36,40.46799719686721
5.793968,-0.1340753,7.441179,-0.0012217305,-0.002443461,0.02443461,16.0,6.0263,-0.1382,7.7352,0.0053,0.0149,0.0037,0.118125,-0.30277,0.363922,2017-06-05 06:49:37,39.460622105084646
5.7843914,-0.12449849,7.441179,0.0061086523,-0.0012217305,0.02565634,16.0,6.0264997,-0.13599999,7.7351,-0.0039,-0.006,-0.0164,0.118232,-0.302752,0.3639,2017-06-05 06:49:38,39.795809512588605
5.803545,-0.1436521,7.422025,-0.0012217305,0.0036651916,0.029321533,14.0,6.0325,-0.1428,7.7303,0.015899999,0.0184,-0.0167,0.118121,-0.303103,0.363975,2017-06-05 06:49:39,37.2967406283228
5.803545,-0.12449849,7.422025,0.009773844,-0.004886922,0.02687807,14.0,6.0288997,-0.1363,7.7332997,-0.0036,-0.0056999996,-0.0026999998,0.1183,-0.30284598,0.363921,2017-06-05 06:49:40,41.89375241649665
5.7843914,-0.1340753,7.431602,-0.0012217305,0.004886922,0.028099801,14.0,6.0277,-0.1392,7.7341,-0.0093,0.0064,-0.0221,0.1181,-0.30279,0.363996,2017-06-05 06:49:41,44.01124144831727
5.793968,-0.1340753,7.4028716,-0.002443461,-0.002443461,0.030543262,14.0,6.0274997,-0.1329,7.7344,-0.0084999995,0.0,-0.0089,0.118429,-0.302702,0.363892,2017-06-05 06:49:42,37.164336404612385
5.803545,-0.11492168,7.422025,0.007330383,-0.002443461,0.028099801,14.0,6.0319,-0.13239999,7.731,0.0016,-0.0084999995,0.008599999,0.118459,-0.302934,0.363899,2017-06-05 06:49:43,41.15406576268385
5.7843914,-0.15322891,7.422025,-0.004886922,-0.004886922,0.03176499,16.0,6.0264997,-0.1375,7.7351,0.016099999,0.0039,0.0067999996,0.118208,-0.30273,0.36399,2017-06-05 06:49:44,39.86448621569547
5.7365074,-0.12449849,7.431602,0.002443461,-0.0036651916,0.032986723,16.0,6.0253,-0.1399,7.7359996,0.0,-0.0032,-0.015,0.118088,-0.302692,0.364046,2017-06-05 06:49:45,44.27541132879312
5.793968,-0.12449849,7.422025,0.0036651916,-0.0061086523,0.02076942,16.0,6.0273,-0.13949999,7.7344,-0.0018,0.0061999997,0.0288,0.118143,-0.302813,0.364022,2017-06-05 06:49:46,42.98542521229202
5.7843914,-0.1340753,7.431602,-0.0036651916,-0.0061086523,0.028099801,16.0,6.0285,-0.1327,7.7335997,0.0028,-2.9999999E-4,0.0075,0.118467,-0.302749,0.36391,2017-06-05 06:49:47,41.12305032452036
5.765238,-0.15322891,7.431602,0.008552114,0.0012217305,0.019547688,16.0,6.0301,-0.1355,7.7323,-0.0072,0.0025,-0.014099999,0.118394,-0.302907,0.363928,2017-06-05 06:49:48,40.17950222389055
5.7748146,-0.1340753,7.431602,-0.017104227,-0.0036651916,0.032986723,16.0,6.0302997,-0.139,7.732,-0.0218,0.0055,-4.0E-4,0.118236996,-0.302972,0.364002,2017-06-05 06:49:49,39.922719828986274
5.7748146,-0.1436521,7.431602,0.002443461,0.0061086523,0.03176499,16.0,6.0278997,-0.1373,7.7339997,0.0116,-0.0056999996,0.015,0.118258,-0.3028,0.364009,2017-06-05 06:49:50,40.469121141168586
5.803545,-0.12449849,7.422025,-0.012217305,0.0036651916,0.034208454,16.0,6.0297,-0.1378,7.7325997,0.0257,0.0139999995,0.016999999,0.118278,-0.302911,0.364006,2017-06-05 06:49:51,41.77843310398284
5.7843914,-0.15322891,7.4124484,0.0036651916,0.0012217305,0.02687807,17.0,6.0298,-0.1349,7.7324996,0.0061,0.0028,0.0224,0.11837,-0.30291,0.363964,2017-06-05 06:49:52,40.49970599725303
5.765238,-0.1340753,7.422025,-0.004886922,0.0012217305,0.030543262,16.0,6.0299,-0.13859999,7.7324,-0.0275,0.0053,4.0E-4,0.118247,-0.302937,0.364008,2017-06-05 06:49:53,41.94903584205791
5.755661,-0.1340753,7.441179,-0.0012217305,-0.0036651916,0.02076942,16.0,6.0292,-0.1358,7.733,-0.0198,0.0126,-0.0074,0.118355,-0.302844,0.363977,2017-06-05 06:49:54,44.24332068787339
5.803545,-0.1436521,7.3645644,-0.0012217305,-0.015882496,0.035430185,16.0,6.0283,-0.1415,7.7335997,-0.008599999,0.0168,-0.0084,0.114649996,-0.304091,0.354159,2017-06-05 06:49:55,42.762942079879025
5.7748146,-0.1436521,7.4124484,-0.0036651916,0.002443461,0.035430185,16.0,6.0136,-0.14469999,7.745,0.0243,0.0115,-0.0089,0.116718,-0.302468,0.361499,2017-06-05 06:49:56,47.631013777317435
5.793968,-0.1340753,7.4028716,-0.002443461,0.004886922,0.037873644,16.0,6.0250998,-0.1557,7.7358,-0.0069,0.022699999,-0.0235,0.116891,-0.303197,0.362485,2017-06-05 06:49:57,44.48810172064861
5.803545,-0.1340753,7.4124484,-0.0036651916,-0.0061086523,0.03176499,17.0,6.0313997,-0.1549,7.731,0.0025,0.012399999,-0.011399999,0.116064,-0.303915,0.360073,2017-06-05 06:49:58,39.18832260536331
5.803545,-0.1340753,7.4507556,0.0036651916,0.0012217305,0.028099801,17.0,6.0270996,-0.145,7.7345,0.0026999998,0.0116,-0.0075999997,0.116431,-0.303465,0.359902,2017-06-05 06:49:59,41.56320482721298
5.803545,-0.1340753,7.422025,0.0061086523,-0.0036651916,0.028099801,14.0,6.0302,-0.1382,7.7321997,-0.0072999997,-0.015,0.0232,0.116807,-0.303515,0.359774,2017-06-05 06:50:00,41.71292719487586
5.813122,-0.1340753,7.2209125,0.0,0.07574729,0.019547688,16.0,6.0367,-0.1248,7.7272997,0.029,0.0324,-0.45479998,0.118098,-0.304223,0.360317,2017-06-05 06:50:01,40.19381409667426
5.793968,-0.1340753,7.422025,0.004886922,-0.015882496,0.032986723,16.0,6.0292997,-0.1461,7.7327,-0.029099999,0.0128,0.0199,0.116704,-0.30341,0.360802,2017-06-05 06:50:02,37.36455765484516
5.813122,-0.16280572,7.422025,-0.012217305,-0.0036651916,0.02321288,16.0,6.0239997,-0.1503,7.7367997,0.0055,-0.0016999999,0.015199999,0.117028,-0.303035,0.362515,2017-06-05 06:50:03,43.229952901975196
5.7748146,-0.1436521,7.431602,-0.010995574,-0.0036651916,0.036651913,14.0,6.0204997,-0.147,7.7394996,0.0179,-0.0061,-9.999999E-4,0.117035,-0.302808,0.362431,2017-06-05 06:50:04,39.80104756709761
5.7843914,-0.1340753,7.4028716,0.007330383,-0.0061086523,0.018325957,14.0,6.0241,-0.13849999,7.737,-0.0023999999,-0.0131,0.0041,0.117495,-0.302848,0.362273,2017-06-05 06:50:05,40.71013758663453
5.803545,-0.12449849,7.4124484,-0.0036651916,-0.007330383,0.02687807,14.0,6.0253,-0.1343,7.7360997,0.0187,0.010199999,-0.009099999,0.117799,-0.302937,0.362172,2017-06-05 06:50:06,41.88088334310466
5.7843914,-0.15322891,7.441179,0.0036651916,-0.002443461,0.029321533,16.0,6.0266,-0.1291,7.7351,-2.0E-4,0.014699999,-0.0115,0.118052,-0.302819,0.362092,2017-06-05 06:50:07,38.978057200011285
5.7748146,-0.1436521,7.422025,-0.014660766,-0.004886922,0.030543262,16.0,6.0260997,-0.13059999,7.7355,-0.030299999,-0.0117999995,0.024699999,0.117898,-0.302814,0.362143,2017-06-05 06:50:08,45.06799725844928
5.803545,-0.12449849,7.4507556,-0.0061086523,0.0,0.02687807,16.0,6.0277,-0.13769999,7.7341,0.0197,0.012999999,0.0315,0.117619,-0.303037,0.362243,2017-06-05 06:50:10,42.03805684040258
5.7843914,-0.1340753,7.431602,-0.002443461,0.0012217305,0.02076942,17.0,6.0249,-0.1336,7.7363997,-9.0E-4,-0.0089,-0.0168,0.117740996,-0.302803,0.362207,2017-06-05 06:50:11,44.92903850081852
5.803545,-0.11492168,7.441179,0.004886922,0.0,0.032986723,17.0,6.0249,-0.13069999,7.7365,-0.0165,-0.0117,-0.0315,0.117869,-0.302744,0.362173,2017-06-05 06:50:12,46.26251340073965
5.803545,-0.12449849,7.4028716,-0.009773844,-0.015882496,0.030543262,16.0,6.0218997,-0.1311,7.7387996,-0.0056,0.0165,-0.0156,0.117786996,-0.302584,0.362213,2017-06-05 06:50:13,40.92081054192025
5.755661,-0.10534488,7.4603324,0.0,0.04886922,0.030543262,16.0,6.0267997,-0.1218,7.7351,-0.0084,-0.0199,0.006,0.117846,-0.303216,0.359871,2017-06-05 06:50:14,42.59778267081792
5.7843914,-0.1340753,7.422025,-0.004886922,-0.0061086523,0.034208454,14.0,6.0318,-0.1504,7.7307,-0.0336,0.0050999997,0.010799999,0.11753,-0.303304,0.363255,2017-06-05 06:50:15,44.32990674543501
5.7843914,-0.1436521,7.4028716,0.0061086523,0.002443461,0.029321533,16.0,6.0284,-0.1469,7.7335,0.0,-0.0058,-1.0E-4,0.116601996,-0.30344298,0.360658,2017-06-05 06:50:16,42.95952296722363
5.803545,-0.1436521,7.441179,-0.007330383,-0.0061086523,0.029321533,16.0,6.0271997,-0.1328,7.7345996,-0.0106999995,0.0178,-0.0188,0.117207,-0.30316,0.360381,2017-06-05 06:50:17,40.621617044272654
5.793968,-0.1340753,7.4028716,-0.0036651916,-0.0012217305,0.029321533,16.0,6.0245,-0.1371,7.7366,-0.0077,0.0042999997,-0.0015,0.116935,-0.303081,0.360486,2017-06-05 06:50:18,43.187285889671124
5.793968,-0.15322891,7.422025,-0.0036651916,0.0012217305,0.030543262,17.0,6.0239997,-0.1304,7.7370996,-0.0264,-0.0019999999,0.012999999,0.117246,-0.302932,0.360386,2017-06-05 06:50:19,44.05730979334565
5.7843914,-0.1340753,7.441179,-0.002443461,0.0012217305,0.030543262,19.0,6.021,-0.1327,7.7394,0.009,-0.0101,-0.0089,0.117077,-0.302804,0.360452,2017-06-05 06:50:20,44.967836629045095
5.7748146,-0.1340753,7.441179,0.010995574,-0.0036651916,0.028099801,16.0,6.0253997,-0.1352,7.7359,4.9999997E-4,0.0111,-0.012499999,0.11713,-0.303116,0.360441,2017-06-05 06:50:21,41.31580673948478
5.793968,-0.1340753,7.4603324,-0.004886922,0.0,0.02565634,16.0,6.0250998,-0.13159999,7.7363,-8.0E-4,-0.0112,0.0185,0.11725,-0.30306,0.360405,2017-06-05 06:50:22,44.618432396822485
5.7748146,-0.1340753,7.422025,-0.0012217305,0.0,0.036651913,14.0,6.0228996,-0.1327,7.738,0.021599999,-4.0E-4,0.0081,0.117125,-0.302907,0.360456,2017-06-05 06:50:23,45.12821862975021
5.7843914,-0.1340753,7.422025,-0.0012217305,-0.007330383,0.030543262,16.0,6.0255,-0.13069999,7.7359,1.0E-4,-0.0018,-0.024,0.117277,-0.303018,0.360415,2017-06-05 06:50:24,43.01487189164323
5.803545,-0.12449849,7.422025,-0.002443461,-0.0012217305,0.02321288,16.0,6.0241,-0.1346,7.737,0.0098,0.0197,-0.0157,0.117172,-0.303016,0.360464,2017-06-05 06:50:25,44.64958458734961
5.7843914,-0.1340753,7.422025,-0.0012217305,-0.002443461,0.02687807,19.0,6.021,-0.13679999,7.7394,-0.0112,0.021399999,-0.021599999,0.116913,-0.302872,0.360563,2017-06-05 06:50:26,46.87551714818035
5.7748146,-0.12449849,7.441179,0.004886922,-0.007330383,0.02443461,11.0,6.0253997,-0.1352,7.7359996,0.009699999,0.0021,-0.0019999999,0.117085,-0.303092,0.360507,2017-06-05 06:50:27,49.472975009847666
5.803545,-0.1340753,7.441179,0.004886922,0.002443461,0.02687807,17.0,6.0267997,-0.13059999,7.7349,-0.0028,0.026899999,-0.0099,0.117325,-0.303084,0.360435,2017-06-05 06:50:28,46.62769072446265
5.793968,-0.1340753,7.4028716,-0.007330383,0.0,0.02565634,14.0,6.0253,-0.1322,7.7360997,-0.0029,0.0088,0.026099999,0.117189,-0.302932,0.360491,2017-06-05 06:50:29,42.34973862504234
5.793968,-0.1340753,7.422025,-0.004886922,0.0036651916,0.021991149,16.0,6.0256996,-0.14039999,7.7356,4.0E-4,0.0064999997,0.017199999,0.116866,-0.303203,0.360602,2017-06-05 06:50:30,41.487087671578564
5.7843914,-0.1340753,7.4507556,0.004886922,0.0012217305,0.030543262,13.0,6.0207996,-0.1346,7.7395997,0.023699999,5.9999997E-4,0.0044,0.117022,-0.302736,0.360555,2017-06-05 06:50:31,42.96336020304086
5.7843914,-0.11492168,7.431602,-0.0036651916,-0.0061086523,0.029321533,17.0,6.0231,-0.13,7.7377996,0.020299999,-0.022599999,0.0166,0.117276,-0.302859,0.360478,2017-06-05 06:50:32,41.08314657252222
5.803545,-0.15322891,7.422025,0.002443461,-0.0061086523,0.02565634,16.0,6.0235996,-0.13059999,7.7374997,0.0064999997,-0.0121,0.0026999998,0.117259,-0.302898,0.360489,2017-06-05 06:50:33,39.708082723660084
5.7748146,-0.12449849,7.431602,0.0036651916,0.0012217305,0.030543262,16.0,6.0263996,-0.1303,7.7352996,0.0321,-0.0222,-0.0063,0.117341,-0.303051,0.360463,2017-06-05 06:50:34,40.315788661518596
5.755661,-0.1340753,7.431602,0.002443461,0.0,0.030543262,16.0,6.0242996,-0.1322,7.7369,2.0E-4,0.0092,-0.012499999,0.117259,-0.30308,0.360499,2017-06-05 06:50:35,39.80477127892959
5.793968,-0.12449849,7.469909,0.002443461,0.0,0.030543262,16.0,6.0243998,-0.12629999,7.7369,-0.0121,0.0121,-0.0079,0.117477,-0.302856,0.36044,2017-06-05 06:50:36,40.69900626349907
5.7748146,-0.11492168,7.4603324,-0.002443461,-0.002443461,0.030543262,16.0,6.021,-0.1296,7.7394996,-0.003,-0.0128,-0.0050999997,0.117254,-0.302725,0.360523,2017-06-05 06:50:37,40.764069430757424
5.793968,-0.1436521,7.4124484,0.0061086523,0.002443461,0.02687807,16.0,6.0276,-0.1362,7.7342,-0.0082,-0.0061999997,-0.030599998,0.117105,-0.30324998,0.360581,2017-06-05 06:50:38,38.90788975662569
5.7843914,-0.11492168,7.422025,-0.019547688,0.002443461,0.036651913,17.0,6.0281,-0.1361,7.7338996,0.011899999,-0.0167,0.0256,0.117134,-0.303246,0.360576,2017-06-05 06:50:39,40.35798831676988
5.803545,-0.1340753,7.393295,0.004886922,-0.004886922,0.02076942,19.0,6.0270996,-0.13239999,7.7346997,0.026099999,-7.0E-4,0.0341,0.117221,-0.30298,0.360552,2017-06-05 06:50:40,42.63473436571271
5.793968,-0.11492168,7.422025,0.013439035,0.0012217305,0.03176499,17.0,6.0263,-0.1349,7.7352996,-0.014099999,-0.0075,-0.038,0.117148,-0.303126,0.360587,2017-06-05 06:50:41,40.860858628714
5.7748146,-0.12449849,7.431602,0.009773844,-0.009773844,0.02321288,16.0,6.0221,-0.1301,7.7386,0.042999998,0.0067999996,0.0089,0.117255,-0.302845,0.360568,2017-06-05 06:50:42,40.32854627870576
5.793968,-0.11492168,7.422025,-0.009773844,-0.002443461,0.028099801,17.0,6.027,-0.1268,7.7349,-0.0326,-0.014099999,-0.0244,0.117446996,-0.30299,0.36051,2017-06-05 06:50:43,40.86545678731685
5.7748146,-0.11492168,7.422025,-0.0012217305,-0.0012217305,0.02687807,17.0,6.02,-0.137,7.7401,0.0067,-0.0072999997,-0.0050999997,0.116973,-0.302744,0.360678,2017-06-05 06:50:44,40.9099097859153
5.793968,-0.1340753,7.431602,-0.007330383,0.0,0.02687807,17.0,6.023,-0.1361,7.7377996,-0.013499999,-0.0149,-0.0121,0.11703,-0.302953,0.360664,2017-06-05 06:50:45,41.66373353218635
5.803545,-0.1436521,7.422025,0.007330383,-0.0061086523,0.02565634,17.0,6.023,-0.1378,7.7377996,-0.0088,0.0245,-0.018199999,0.117004,-0.303034,0.360683,2017-06-05 06:50:46,42.75929093450494
5.7843914,-0.1340753,7.431602,-0.002443461,-0.002443461,0.029321533,17.0,6.022,-0.13059999,7.7387,0.0079,0.0173,-0.0083,0.117258,-0.302796,0.360608,2017-06-05 06:50:47,44.11414740676555
5.7843914,-0.15322891,7.4124484,-0.0061086523,-0.0012217305,0.028099801,16.0,6.0248,-0.1326,7.7365,-0.0186,-0.011899999,0.0064,0.117306,-0.302916,0.360594,2017-06-05 06:50:48,42.44108002250287
5.8322754,-0.12449849,7.2209125,0.007330383,-0.059864793,0.02565634,17.0,6.0645,-0.1284,7.7054996,-0.0698,-0.0156,0.1568,0.120552,-0.304293,0.366557,2017-06-05 06:50:49,40.7392914731824
5.7843914,-0.15322891,7.4603324,0.0012217305,0.0036651916,0.032986723,14.0,6.0242,-0.1399,7.7367997,-0.0313,0.0155,-0.0201,0.117547,-0.302814,0.362456,2017-06-05 06:50:50,41.01183708529419
5.7748146,-0.11492168,7.4603324,-0.0036651916,-0.0012217305,0.030543262,17.0,6.0178,-0.1362,7.7419,-0.0071,0.0023,-0.0016999999,0.117621,-0.302454,0.362566,2017-06-05 06:50:51,40.512384077520906
5.803545,-0.1436521,7.431602,-0.0061086523,0.0061086523,0.034208454,16.0,6.0183997,-0.133,7.7414,0.0301,-0.0098,-0.0122,0.117734,-0.302378,0.362592,2017-06-05 06:50:52,40.07148102848411
5.793968,-0.15322891,7.4028716,0.017104227,-0.002443461,0.030543262,16.0,6.016,-0.13419999,7.7433,-0.0229,-0.0078,0.022,0.117533,-0.302142,0.36265,2017-06-05 06:50:53,39.92632069209618
5.7748146,-0.10534488,7.4124484,-0.002443461,-0.004886922,0.030543262,16.0,6.0197997,-0.1335,7.7404,-0.0039999997,7.0E-4,-0.0184,0.117777,-0.302546,0.362582,2017-06-05 06:50:54,39.10169998724494
5.7748146,-0.1340753,7.441179,0.013439035,-0.010995574,0.02687807,16.0,6.0214996,-0.1325,7.7391,0.013499999,-0.010199999,-0.005,0.117834,-0.302539,0.362577,2017-06-05 06:50:55,41.39638121844612
5.803545,-0.1340753,7.393295,-0.0061086523,-0.013439035,0.03176499,16.0,6.0288,-0.1383,7.7332997,0.018299999,0.025899999,0.0348,0.117241,-0.303243,0.361394,2017-06-05 06:50:56,40.570718464073536
5.803545,-0.12449849,7.441179,0.0061086523,0.007330383,0.028099801,16.0,6.0122,-0.131,7.7462997,0.017199999,0.0078,0.0037,0.117931,-0.30189,0.363344,2017-06-05 06:50:57,40.495716517438225
5.7843914,-0.15322891,7.422025,0.002443461,-0.0061086523,0.019547688,16.0,6.0204997,-0.1284,7.7398996,0.010199999,-0.0039,-2.9999999E-4,0.118228,-0.302312,0.363206,2017-06-05 06:50:58,39.40273309072904
5.7843914,-0.15322891,7.422025,-0.002443461,0.0,0.028099801,16.0,6.0221996,-0.133,7.7384996,-0.0150999995,0.01,-0.0154,0.118071,-0.302492,0.363281,2017-06-05 06:50:59,39.85376156221247
5.7748146,-0.12449849,7.422025,-0.014660766,-0.0012217305,0.02687807,16.0,6.0199,-0.1331,7.7402997,0.0221,0.0197,0.0099,0.118015,-0.302367,0.3633,2017-06-05 06:51:00,41.11039762972739
5.765238,-0.1436521,7.4507556,-0.018325957,-0.0061086523,0.035430185,16.0,6.0182,-0.1285,7.7416997,-0.0137,-0.0127,0.0173,0.118178,-0.302184,0.363251,2017-06-05 06:51:01,39.330110681883525
5.7843914,-0.12449849,7.422025,-0.009773844,-0.0036651916,0.02687807,17.0,6.0224,-0.1347,7.7383,-0.011299999,0.0104,9.999999E-4,0.118001,-0.302536,0.363307,2017-06-05 06:51:02,41.70116574798144
5.793968,-0.1340753,7.4507556,0.002443461,0.0012217305,0.02321288,16.0,6.0216,-0.1317,7.739,-0.0195,-0.01,-0.0117,0.118052,-0.302386,0.363302,2017-06-05 06:51:03,41.16145769953718
5.765238,-0.12449849,7.431602,0.0,0.0061086523,0.028099801,16.0,6.0176,-0.13229999,7.7421,-0.0138,0.0,-0.0284,0.118002,-0.302215,0.363327,2017-06-05 06:51:04,41.08632084328225
5.7843914,-0.10534488,7.431602,-0.015882496,-0.004886922,0.039095376,16.0,6.0197,-0.1322,7.7404,-0.009099999,0.0092,0.0069999998,0.118084,-0.302384,0.36331,2017-06-05 06:51:05,40.58129041944254
5.803545,-0.1436521,7.422025,0.0012217305,-0.013439035,0.03176499,16.0,6.0174,-0.1309,7.7422,-0.012,0.0177,-0.0081,0.118065,-0.302181,0.363328,2017-06-05 06:51:06,40.321235773289985
5.765238,-0.1436521,7.431602,0.018325957,-0.002443461,0.018325957,16.0,6.0183,-0.1302,7.7416,-0.0056999996,-0.013499999,0.0301,0.118197,-0.302245,0.363295,2017-06-05 06:51:07,42.26920031047132
5.813122,-0.1436521,7.441179,-0.004886922,0.0036651916,0.030543262,17.0,6.0169997,-0.13069999,7.7426,-0.0064999997,0.016099999,-0.0321,0.118072,-0.302146,0.363354,2017-06-05 06:51:08,41.46765679717241
5.7843914,-0.1436521,7.422025,-0.004886922,-0.002443461,0.02687807,17.0,6.0183997,-0.1302,7.7415,0.0037,0.016999999,-0.0111,0.118129,-0.302218,0.36334,2017-06-05 06:51:09,41.31436901822604
5.803545,-0.1436521,7.4507556,0.0012217305,0.0061086523,0.030543262,17.0,6.0197,-0.1328,7.7404,-0.0336,0.010199999,-0.0537,0.118051,-0.302339,0.363377,2017-06-05 06:51:10,41.385909641414955
5.7843914,-0.1436521,7.422025,0.008552114,-0.0036651916,0.030543262,17.0,6.0164,-0.13059999,7.7426,-0.0157,-0.0028,-0.0050999997,0.118087,-0.302143,0.363374,2017-06-05 06:51:11,40.59421347334563
5.7748146,-0.12449849,7.441179,-0.015882496,-0.004886922,0.03176499,17.0,6.0169997,-0.1304,7.7426,-1.0E-4,0.0067,0.012,0.118096,-0.302137,0.363379,2017-06-05 06:51:12,40.97135190597416
5.7748146,-0.12449849,7.441179,-0.015882496,-0.0012217305,0.032986723,17.0,6.0183997,-0.1357,7.7414,0.0015,0.0123,0.018299999,0.117896,-0.302319,0.363452,2017-06-05 06:51:13,38.92580736847896
5.793968,-0.1436521,7.422025,-0.009773844,-0.0061086523,0.034208454,17.0,6.021,-0.1304,7.7394996,-0.0252,-0.0018999999,0.0165,0.118193,-0.302362,0.363359,2017-06-05 06:51:14,39.72076941868242
5.803545,-0.12449849,7.431602,-0.002443461,0.0,0.028099801,16.0,6.0158,-0.1347,7.7434998,0.0163,0.0139,-0.014599999,0.117595,-0.302259,0.362228,2017-06-05 06:51:15,42.43790238649676
5.755661,-0.10534488,7.4507556,-0.018325957,0.007330383,0.03176499,16.0,6.0136,-0.1441,7.745,0.0156,0.029299999,0.0067,0.116977,-0.30244,0.362158,2017-06-05 06:51:16,39.551227219343275
5.7748146,-0.12449849,7.4028716,-0.0012217305,-0.002443461,0.028099801,16.0,6.0109,-0.1494,7.7469997,0.0053,0.0278,-0.031,0.117428,-0.302018,0.364988,2017-06-05 06:51:17,39.9793764081221
5.7843914,-0.1340753,7.441179,-0.004886922,-0.013439035,0.032986723,16.0,6.0193996,-0.1399,7.7405996,0.006,0.0061,0.0128999995,0.117361,-0.302594,0.362442,2017-06-05 06:51:18,41.025765281159
5.7843914,-0.1436521,7.422025,-0.004886922,0.0,0.035430185,17.0,6.0242996,-0.1305,7.7369,0.0184,-0.0023,-8.0E-4,0.117907,-0.302766,0.362238,2017-06-05 06:51:19,40.18900648151057
5.803545,-0.1340753,7.431602,0.0061086523,0.0,0.03176499,17.0,6.0283,-0.1355,7.7337,-0.0314,0.0023,0.0092,0.11793,-0.303081,0.362549,2017-06-05 06:51:20,39.252252851784334
5.8226986,-0.1436521,7.431602,0.0012217305,-0.002443461,0.032986723,14.0,6.0206,-0.1493,7.7394996,0.0196,0.0155,-0.0075,0.117092,-0.302875,0.363004,2017-06-05 06:51:21,39.649434237032594
5.7748146,-0.1340753,7.5848308,-0.010995574,0.11362094,0.036651913,18.0,5.9421,-0.1407,7.7999997,0.0139,0.026099999,0.1201,0.115997,-0.299035,0.363153,2017-06-05 06:51:22,40.65121676289919
5.7843914,-0.12449849,7.441179,0.0061086523,-0.008552114,0.034208454,18.0,6.0162,-0.14479999,7.743,0.0055,0.010199999,0.027199998,0.116545,-0.302694,0.361176,2017-06-05 06:51:23,37.62476816528532
5.7748146,-0.1436521,7.441179,0.002443461,-0.002443461,0.030543262,17.0,6.0137997,-0.1409,7.7448997,2.0E-4,0.0072,-0.021699999,0.116689,-0.302494,0.360991,2017-06-05 06:51:24,41.825078252853494
5.7843914,-0.12449849,7.422025,-0.009773844,-0.0061086523,0.029321533,17.0,6.0158997,-0.13229999,7.7433996,0.003,0.009099999,0.0053999997,0.117387,-0.302346,0.361683,2017-06-05 06:51:25,40.13541854252612
5.7748146,-0.12449849,7.4507556,-0.002443461,-0.0012217305,0.030543262,17.0,6.0207996,-0.124199994,7.7397,-0.030499998,0.0117,-0.0084999995,0.117862,-0.302473,0.361521,2017-06-05 06:51:26,39.43518783534473
5.7843914,-0.12449849,7.4507556,0.002443461,0.0,0.030543262,16.0,6.0195,-0.12969999,7.7407,-0.0267,-0.0025,-0.024,0.117591,-0.302496,0.36162,2017-06-05 06:51:27,39.328345491332
5.803545,-0.11492168,7.441179,0.0061086523,-0.002443461,0.028099801,16.0,6.0224,-0.1303,7.7384,0.0137,-0.0025,-0.022499999,0.117632,-0.302675,0.361611,2017-06-05 06:51:28,41.76880866292103
5.7843914,-0.1436521,7.431602,-0.0012217305,0.0,0.030543262,16.0,6.0231,-0.1337,7.7377996,0.0206,0.0103,0.0169,0.117497,-0.302775,0.361662,2017-06-05 06:51:29,40.43792613191069
5.813122,-0.11492168,7.4507556,-0.0012217305,0.002443461,0.02687807,16.0,6.0224,-0.1267,7.7384996,-0.0128999995,0.0037,0.0101,0.117775,-0.302608,0.361573,2017-06-05 06:51:30,40.74986396387558
5.7843914,-0.12449849,7.422025,0.0012217305,0.0012217305,0.029321533,16.0,6.0221,-0.1286,7.7386,0.0092,0.0056999996,4.0E-4,0.117707,-0.302624,0.361611,2017-06-05 06:51:31,40.30312888685491
5.765238,-0.11492168,7.4507556,0.007330383,-0.0036651916,0.029321533,16.0,6.0197,-0.1294,7.7405,-0.0158,-0.0033999998,-0.034399997,0.117596,-0.302396,0.361658,2017-06-05 06:51:32,41.32389932321637
5.803545,-0.12449849,7.431602,0.0036651916,0.0012217305,0.03176499,16.0,6.0174,-0.1312,7.7423,-0.0032,0.0256,-0.0028,0.117488,-0.302403,0.361699,2017-06-05 06:51:33,43.299286629528915
5.7843914,-0.1340753,7.431602,-0.0036651916,0.0,0.032986723,16.0,6.0204,-0.12529999,7.74,0.011,-0.0087,-0.0109,0.117887,-0.302423,0.361564,2017-06-05 06:51:34,42.94731964206577
5.7748146,-0.1436521,7.441179,0.0,-0.0012217305,0.02687807,16.0,6.0169,-0.1302,7.7426,0.0032,-0.0023999999,-0.014699999,0.117522,-0.30235898,0.361695,2017-06-05 06:51:35,45.97866888851292
5.7748146,-0.10534488,7.422025,-0.010995574,-0.002443461,0.034208454,16.0,6.0172997,-0.1282,7.7423997,0.0323,-0.0046,0.0176,0.117514,-0.302256,0.36171,2017-06-05 06:51:36,43.1203520067767
5.803545,-0.15322891,7.4507556,0.0061086523,0.0,0.028099801,16.0,6.0179,-0.134,7.7419,-0.0037,-0.0083,-0.0148,0.117381,-0.302479,0.361759,2017-06-05 06:51:37,46.966936933828464
5.793968,-0.1340753,7.422025,0.007330383,0.0,0.029321533,16.0,6.0172,-0.1296,7.7425,0.018099999,0.0053999997,0.023,0.117635,-0.302373,0.361685,2017-06-05 06:51:38,45.77747863291699
5.793968,-0.12449849,7.431602,0.0,-0.0036651916,0.032986723,14.0,6.0218,-0.1275,7.7388997,-0.014599999,0.0133,-0.0158,0.117772,-0.302577,0.36165,2017-06-05 06:51:39,54.49518613438029
5.7748146,-0.11492168,7.431602,0.0,-0.0061086523,0.029321533,17.0,6.0211997,-0.1241,7.7394996,0.0274,0.0011999999,-4.9999997E-4,0.117944,-0.302459,0.361601,2017-06-05 06:51:40,57.82306427476164
5.803545,-0.12449849,7.431602,-0.002443461,0.0,0.035430185,14.0,6.0182,-0.1301,7.7416997,-0.0042,0.0067999996,0.0426,0.117578,-0.302419,0.361739,2017-06-05 06:51:41,42.65185541565879
5.7843914,-0.1340753,7.4124484,0.0036651916,-0.0036651916,0.032986723,17.0,6.0200996,-0.1273,7.7402,0.0148,-0.024999999,0.033,0.11775,-0.302473,0.361697,2017-06-05 06:51:42,41.557082929908454
5.7748146,-0.1340753,7.441179,0.0036651916,0.0,0.029321533,17.0,6.0188,-0.1282,7.7412996,-2.0E-4,-0.0039999997,0.012499999,0.117683,-0.302413,0.361728,2017-06-05 06:51:43,41.90105999033519
5.7843914,-0.11492168,7.431602,-0.012217305,-0.0036651916,0.036651913,17.0,6.0190997,-0.1285,7.7409997,-0.018,-0.0023999999,-0.0033,0.117635,-0.30253,0.361751,2017-06-05 06:51:44,43.90130044912627
5.7843914,-0.1340753,7.422025,-0.009773844,-0.0012217305,0.030543262,17.0,6.0224,-0.1301,7.7384,-0.0092,-0.0025,-0.010199999,0.11769,-0.30265,0.36174,2017-06-05 06:51:45,45.11560276070482
5.793968,-0.1340753,7.422025,0.013439035,-0.0036651916,0.029321533,16.0,6.0172,-0.1283,7.7423997,-0.0039,-0.0235,-0.036,0.117647,-0.302326,0.361763,2017-06-05 06:51:46,45.80726270421565
5.793968,-0.12449849,7.431602,-0.0012217305,0.0,0.030543262,16.0,6.0183,-0.124699995,7.7416997,-0.0121,0.010799999,-0.0279,0.117897,-0.30233,0.36168998,2017-06-05 06:51:47,43.59372968545836
5.7843914,-0.1436521,7.441179,0.0,-0.0036651916,0.028099801,14.0,6.0214996,-0.1293,7.7391,0.0083,-0.0034999999,0.0106,0.11771,-0.302584,0.361764,2017-06-05 06:51:48,42.88897101870084
5.7843914,-0.12449849,7.422025,0.004886922,0.0,0.03176499,14.0,6.0218997,-0.12969999,7.7387996,0.0232,-0.0028,-0.0072,0.117774,-0.302626,0.36175,2017-06-05 06:51:49,40.44379332348982
5.7843914,-0.1340753,7.431602,0.004886922,0.0,0.02687807,16.0,6.0197,-0.1287,7.7405,0.0175,0.0053999997,0.0231,0.1177,-0.302468,0.361787,2017-06-05 06:51:50,41.56454972054981
5.7748146,-0.12449849,7.4507556,0.012217305,-0.0012217305,0.03176499,16.0,6.0171,-0.1249,7.7426,-7.0E-4,0.0019999999,0.0224,0.117817,-0.30225,0.361768,2017-06-05 06:51:51,42.63769805074061
5.7748146,-0.11492168,7.422025,0.007330383,-0.0036651916,0.030543262,17.0,6.0193,-0.1275,7.7408,-0.0075999997,-0.0047,-0.011299999,0.117755,-0.30242,0.361794,2017-06-05 06:51:52,39.82552048200944
5.7843914,-0.1340753,7.431602,-0.0036651916,-0.002443461,0.030543262,16.0,6.0221,-0.13679999,7.7384996,-0.0115,0.0037999998,-0.0109,0.117407,-0.302793,0.361923,2017-06-05 06:51:53,41.19594740230846
5.8322754,-0.12449849,6.895301,-0.0012217305,0.18203785,0.02687807,18.0,6.0334,-0.1349,7.7296996,0.0252,0.003,-0.25419998,0.117164,-0.303007,0.360911,2017-06-05 06:51:54,41.18402540210032
5.7748146,-0.11492168,7.441179,-0.0036651916,-0.004886922,0.029321533,18.0,6.0073,-0.1434,7.7499,0.0013,0.011,-0.0011999999,0.11665,-0.302172,0.361828,2017-06-05 06:51:55,41.69252018353689
5.765238,-0.1340753,7.4507556,-0.0061086523,-0.007330383,0.03176499,14.0,6.0024,-0.1467,7.7535996,-0.0121,0.0128999995,-0.0081,0.116878,-0.30166,0.362938,2017-06-05 06:51:56,41.466078694844796
5.803545,-0.12449849,7.469909,-0.0012217305,-0.0012217305,0.029321533,14.0,6.0014997,-0.14639999,7.7542996,-0.016999999,0.015299999,-0.0211,0.116601996,-0.301715,0.362899,2017-06-05 06:51:57,42.347449215803266
5.7748146,-0.15322891,7.431602,-0.004886922,0.0012217305,0.02443461,14.0,6.0099998,-0.1303,7.7479997,0.005,0.0064,0.0357,0.117607,-0.301874,0.36246,2017-06-05 06:51:58,43.30257829323281
5.765238,-0.11492168,7.441179,-0.007330383,-0.0061086523,0.028099801,14.0,6.0018997,-0.1227,7.7544,0.0201,-0.019399999,-0.015899999,0.117755,-0.301271,0.362414,2017-06-05 06:51:59,39.74881339090545
5.7748146,-0.1340753,7.431602,-0.010995574,0.002443461,0.032986723,14.0,6.0053,-0.12969999,7.7517,0.012999999,0.0066,-0.0026999998,0.117523,-0.301593,0.362497,2017-06-05 06:52:00,41.22224123644034
5.793968,-0.12449849,7.4507556,0.012217305,-0.0061086523,0.029321533,14.0,6.0060997,-0.1312,7.7510996,-0.0047,0.007999999,0.0208,0.11753,-0.301541,0.362505,2017-06-05 06:52:01,43.81947404584501
5.7748146,-0.12449849,7.4507556,0.014660766,0.002443461,0.02321288,16.0,6.0018,-0.1294,7.7544,0.0128999995,0.0064,0.0098,0.117459,-0.301388,0.36254,2017-06-05 06:52:02,40.556054426893915
5.7748146,-0.12449849,7.441179,0.008552114,-0.0036651916,0.032986723,14.0,6.0044,-0.1258,7.7524,-2.0E-4,-0.0066,-0.011899999,0.117749,-0.301538,0.362453,2017-06-05 06:52:03,44.48067231270965
5.7748146,-0.10534488,7.4603324,-0.008552114,0.0012217305,0.032986723,16.0,6.0044,-0.123799995,7.7524996,-0.0067999996,0.0011999999,0.021499999,0.117778,-0.301428,0.362458,2017-06-05 06:52:04,41.878239953501506
5.7748146,-0.1340753,7.422025,0.0,0.0,0.02443461,14.0,6.0077,-0.1251,7.7499,0.0047,-0.0273,0.0039,0.117677,-0.301601,0.362506,2017-06-05 06:52:05,41.71696521762611
5.7748146,-0.1340753,7.4603324,-0.0061086523,0.0012217305,0.028099801,16.0,6.0039,-0.1239,7.7528996,0.018,-0.0184,0.0175,0.11777,-0.301397,0.362486,2017-06-05 06:52:06,42.12285759184269
5.746084,-0.1436521,7.431602,-0.0012217305,-0.008552114,0.03176499,14.0,6.0028996,-0.1258,7.7535996,-0.0175,0.0213,-0.013499999,0.117754,-0.301379,0.362501,2017-06-05 06:52:08,41.22834614229839
5.7843914,-0.12449849,7.431602,0.004886922,0.0036651916,0.029321533,16.0,6.0059,-0.1266,7.7513,-0.0109,0.012499999,-0.0014,0.117704,-0.30155998,0.362528,2017-06-05 06:52:09,40.88373777716142
5.7748146,-0.10534488,7.4603324,-0.002443461,-0.0012217305,0.032986723,16.0,6.0032,-0.1251,7.7534,-0.0039,-0.0267,0.0053999997,0.117724,-0.301441,0.362536,2017-06-05 06:52:10,40.82391500229165
5.7843914,-0.1340753,7.4507556,0.012217305,-0.0036651916,0.02565634,16.0,6.0046997,-0.1269,7.7521996,0.022499999,-0.0145,0.0368,0.117666,-0.301494,0.362564,2017-06-05 06:52:11,41.09420076013372
5.793968,-0.1436521,7.441179,-0.009773844,0.0012217305,0.030543262,16.0,6.0058,-0.1285,7.7513,0.0026999998,0.0132,-0.0044,0.117739,-0.301562,0.362547,2017-06-05 06:52:12,40.259244733691155
5.7748146,-0.1436521,7.431602,0.008552114,-0.002443461,0.034208454,14.0,6.0023,-0.13,7.7539997,0.0026999998,-0.011299999,-0.0197,0.117481,-0.301415,0.362641,2017-06-05 06:52:13,41.30393932208858
5.7748146,-0.1340753,7.422025,0.002443461,0.008552114,0.034208454,14.0,6.0056996,-0.1269,7.7514,-0.0018,0.0036,-0.018099999,0.117763,-0.301625,0.36256,2017-06-05 06:52:14,44.41053749035727
5.755661,-0.11492168,7.422025,0.0012217305,-0.02565634,0.034208454,14.0,6.0109,-0.1264,7.7474,-0.0126,-0.028199999,0.060999997,0.117235,-0.301894,0.360586,2017-06-05 06:52:15,43.763341952445046
5.793968,-0.11492168,7.4124484,0.0012217305,0.010995574,0.032986723,14.0,6.006,-0.1331,7.7510996,0.0207,0.030599998,-0.03,0.116846,-0.301906,0.360976,2017-06-05 06:52:16,47.339350540818465
5.793968,-0.11492168,7.431602,-0.002443461,-0.007330383,0.032986723,17.0,5.9997,-0.1524,7.7556,0.0056999996,0.0072,-0.0063,0.115515,-0.301937,0.360195,2017-06-05 06:52:17,48.650446753985726
5.7748146,-0.1436521,7.422025,0.007330383,0.0012217305,0.035430185,17.0,5.9985,-0.1319,7.7569,0.006,0.0284,-0.012499999,0.116545,-0.301531,0.36049598,2017-06-05 06:52:18,47.745049563164585
5.746084,-0.1340753,7.441179,-0.0036651916,0.0012217305,0.029321533,16.0,5.9989,-0.1244,7.7567,-0.0173,-0.0081,-0.0069,0.116891,-0.301415,0.360382,2017-06-05 06:52:19,46.17514368268756
5.765238,-0.12449849,7.4507556,0.004886922,-0.0012217305,0.03176499,17.0,6.0041,-0.1214,7.7527,0.0083,-9.999999E-4,-0.0337,0.117148,-0.301651,0.360302,2017-06-05 06:52:20,49.44120851020273
5.7843914,-0.12449849,7.441179,0.0012217305,0.0036651916,0.030543262,17.0,6.0046,-0.1219,7.7523,-0.0219,-0.0099,-0.0298,0.117142,-0.301688,0.36032,2017-06-05 06:52:21,48.33310838286237
5.765238,-0.11492168,7.441179,0.0,-0.002443461,0.028099801,17.0,6.0060997,-0.121599995,7.7511997,9.0E-4,-0.0109,0.0167,0.117213,-0.301802,0.360309,2017-06-05 06:52:22,46.302326465482004
5.765238,-0.11492168,7.479486,-0.008552114,-0.002443461,0.032986723,16.0,6.0041,-0.123799995,7.7527,-0.0296,0.0011999999,-0.023699999,0.117055,-0.301692,0.360376,2017-06-05 06:52:23,48.77592441734329
5.755661,-0.1340753,7.422025,0.0012217305,-0.0036651916,0.02687807,17.0,6.0039997,-0.1237,7.7528,0.0138,0.01,0.0019999999,0.117095,-0.301649,0.360375,2017-06-05 06:52:24,43.11911694443961
5.7748146,-0.11492168,7.441179,-0.010995574,-0.002443461,0.032986723,16.0,6.001,-0.1222,7.7551,-0.0084,0.0177,-0.015999999,0.117061,-0.301485,0.3604,2017-06-05 06:52:25,45.8450396414484
5.765238,-0.11492168,7.4507556,0.0061086523,-0.002443461,0.028099801,16.0,6.0041,-0.122899994,7.7528,0.0137,0.0099,0.0045,0.117093,-0.301642,0.360398,2017-06-05 06:52:26,47.203140966292516
5.755661,-0.1340753,7.469909,0.010995574,0.0012217305,0.030543262,16.0,6.0017,-0.1228,7.7545996,0.0036,0.0296,-0.0025,0.11706,-0.30153,0.360424,2017-06-05 06:52:27,43.945348816211194
5.7748146,-0.12449849,7.469909,0.0,0.0012217305,0.030543262,16.0,6.0000997,-0.1245,7.7558,0.0134,-0.0081,0.0168,0.116948,-0.301471,0.360465,2017-06-05 06:52:28,43.24991752992146
5.765238,-0.11492168,7.4507556,0.002443461,0.004886922,0.03176499,16.0,5.9997,-0.1179,7.7562,-0.0137,0.0055,-0.0064999997,0.117235,-0.301324,0.360375,2017-06-05 06:52:29,42.26744055451288
5.765238,-0.1340753,7.4507556,-0.0036651916,0.0,0.032986723,17.0,6.0011,-0.1276,7.7549,0.017199999,0.0047999998,0.0013,0.116837,-0.301587,0.360521,2017-06-05 06:52:30,41.27299468147716
5.765238,-0.1436521,7.4603324,-0.009773844,0.0012217305,0.034208454,17.0,6.0016,-0.1256,7.7545996,-2.9999999E-4,0.012399999,0.0077,0.116942,-0.301571,0.360495,2017-06-05 06:52:31,42.13988112398799
5.7843914,-0.12449849,7.441179,0.0,0.0012217305,0.030543262,17.0,6.0046997,-0.1241,7.7521996,-0.020299999,0.0013,-0.009099999,0.117081,-0.30172,0.360457,2017-06-05 06:52:32,42.57302716053975
5.746084,-0.12449849,7.4603324,-0.0012217305,-0.0036651916,0.029321533,17.0,5.9961,-0.122999996,7.7588997,-0.0252,4.9999997E-4,-0.022599999,0.11694,-0.301213,0.360522,2017-06-05 06:52:33,45.86310596409685
5.746084,-0.1340753,7.441179,0.002443461,-0.0061086523,0.032986723,19.0,6.0014997,-0.12709999,7.7546997,0.0075,-0.0052,-0.0103,0.116881,-0.301593,0.360547,2017-06-05 06:52:34,46.29205880216192
5.765238,-0.11492168,7.4507556,0.0012217305,-0.004886922,0.03176499,17.0,6.0046,-0.1277,7.7521996,-0.0128,0.0148,-0.0052,0.11693,-0.301779,0.360542,2017-06-05 06:52:35,42.720470930048904
5.755661,-0.12449849,7.4507556,0.002443461,-0.0061086523,0.029321533,17.0,5.9990997,-0.12529999,7.7565,-0.0071,0.020299999,0.027199998,0.116996996,-0.301419,0.360532,2017-06-05 06:52:36,44.69325306763311
5.755661,-0.12449849,7.469909,0.009773844,-0.002443461,0.02565634,16.0,6.0024,-0.12459999,7.7539997,0.019199999,0.0016,-0.0099,0.117024,-0.301591,0.360535,2017-06-05 06:52:37,41.19473590403453
5.755661,-0.1340753,7.441179,0.004886922,-0.002443461,0.02687807,16.0,6.0031,-0.12719999,7.7534,-0.0148,0.0207,0.0117999995,0.11708,-0.301625,0.360513,2017-06-05 06:52:38,44.319552884315115
5.755661,-0.11492168,7.441179,-0.0036651916,-0.002443461,0.03176499,16.0,6.0046,-0.124699995,7.7523,-0.0063,-0.015999999,0.0021,0.117072,-0.301719,0.360523,2017-06-05 06:52:39,42.913371750520135
5.765238,-0.12449849,7.4507556,0.004886922,-0.0061086523,0.02687807,16.0,6.0046997,-0.1302,7.7521996,-0.0367,0.037299998,0.0128,0.116815,-0.301867,0.360618,2017-06-05 06:52:40,40.15466901000869
5.755661,-0.1436521,7.441179,-0.0012217305,0.0,0.028099801,16.0,6.0014997,-0.1295,7.7546997,-0.0139,0.015199999,-0.0044,0.116793,-0.301627,0.360635,2017-06-05 06:52:41,40.189470332735894
5.765238,-0.12449849,7.431602,-0.0036651916,0.007330383,0.030543262,16.0,6.0013,-0.1265,7.7548,0.0109,0.0049,0.0037,0.116835,-0.301516,0.360626,2017-06-05 06:52:42,41.79831617361796
5.755661,-0.12449849,7.431602,0.013439035,-0.0012217305,0.02321288,17.0,5.9992,-0.121999994,7.7565,-0.0138,0.0289,0.0050999997,0.117079,-0.301362,0.360559,2017-06-05 06:52:43,41.09427776767666
5.755661,-0.11492168,7.441179,0.0061086523,-0.0036651916,0.029321533,16.0,6.0035996,-0.1274,7.7531,-0.0019999999,0.014599999,-0.035499997,0.11694,-0.301704,0.360613,2017-06-05 06:52:44,40.45725236211833
5.755661,-0.1340753,7.431602,0.0036651916,-0.0012217305,0.028099801,16.0,6.0032,-0.1267,7.7534,-0.0011999999,-0.0056,-0.0155,0.116968,-0.301668,0.36062,2017-06-05 06:52:45,40.19342469873596
5.7748146,-0.12449849,7.479486,0.007330383,0.0,0.029321533,16.0,6.0011,-0.1255,7.7549996,-0.0133,0.0025,-0.0072,0.116978,-0.301524,0.360622,2017-06-05 06:52:46,42.40474363467878
5.746084,-0.1436521,7.469909,-0.002443461,-0.0036651916,0.02565634,16.0,6.0018,-0.124,7.7545,0.0252,0.0109,0.012999999,0.117062,-0.301538,0.3606,2017-06-05 06:52:47,39.759710385471266
5.755661,-0.12449849,7.441179,0.002443461,-0.002443461,0.03176499,16.0,6.003,-0.125,7.7535996,0.0288,0.0019999999,-0.0093,0.117046,-0.301623,0.360615,2017-06-05 06:52:48,41.519006610589315
5.7843914,-0.1340753,7.4603324,0.0036651916,0.0012217305,0.029321533,16.0,6.0035996,-0.1269,7.7531,0.0185,0.0037999998,0.030399999,0.11698,-0.301689,0.360646,2017-06-05 06:52:49,40.24558779413023
5.765238,-0.1340753,7.469909,0.0012217305,-0.004886922,0.03176499,16.0,6.0052,-0.1236,7.7518997,0.0264,-0.0169,0.0317,0.117082,-0.301774,0.360624,2017-06-05 06:52:50,38.46019066002296
5.793968,-0.1340753,7.469909,-0.0061086523,-0.0036651916,0.035430185,16.0,6.0049996,-0.1282,7.7518997,0.0197,-0.0039,0.0197,0.116961,-0.301794,0.360671,2017-06-05 06:52:51,41.52103175421716
5.7748146,-0.1340753,7.469909,0.0036651916,-0.007330383,0.036651913,16.0,6.0028,-0.1269,7.7535996,-0.0013,-0.0064999997,0.0404,0.117025,-0.301694,0.360664,2017-06-05 06:52:52,40.19908570354784
5.7748146,-0.1436521,7.4507556,-0.0012217305,-0.0012217305,0.030543262,16.0,6.0056996,-0.127,7.7514,-0.0218,-0.0047,0.0019999999,0.117038,-0.301806,0.360667,2017-06-05 06:52:53,40.19529349050348
5.765238,-0.12449849,7.4603324,0.0012217305,-0.0012217305,0.029321533,17.0,6.0007997,-0.12459999,7.7552996,-0.0061,-0.0075,-0.0267,0.117033,-0.301482,0.360681,2017-06-05 06:52:54,39.06828377453305
5.765238,-0.1340753,7.441179,-0.008552114,-0.0012217305,0.02687807,17.0,6.0004997,-0.1285,7.7553997,-0.0088,0.0156,0.011299999,0.116858,-0.301536,0.360755,2017-06-05 06:52:55,40.36812037303842
5.7748146,-0.1340753,7.469909,0.0061086523,-0.0012217305,0.030543262,17.0,6.0006,-0.12719999,7.7552996,0.0044,0.0044,-0.0034999999,0.116925,-0.301519,0.360751,2017-06-05 06:52:56,41.35146222867281
5.7365074,-0.1436521,7.4603324,0.009773844,-0.0036651916,0.02321288,17.0,6.0003,-0.12539999,7.7556,-0.0297,-0.0168,0.0121,0.116996,-0.301469,0.360732,2017-06-05 06:52:57,41.90893946803142
5.7748146,-0.1340753,7.441179,-0.0012217305,0.0012217305,0.028099801,17.0,6.003,-0.126,7.7535,-0.0116,0.012999999,-0.0041,0.117034,-0.301628,0.360725,2017-06-05 06:52:58,41.21075023887365
5.765238,-0.11492168,7.441179,-0.0012217305,0.0012217305,0.028099801,17.0,6.0004997,-0.1256,7.7555,-0.0039999997,0.0127,-0.011899999,0.117002,-0.301476,0.360754,2017-06-05 06:52:59,41.166750784849214
5.7843914,-0.1340753,7.441179,-0.0012217305,-0.0036651916,0.030543262,17.0,6.0035,-0.1226,7.7531996,-0.0299,2.9999999E-4,-0.0464,0.117206,-0.301589,0.360687,2017-06-05 06:53:00,42.45831370189598
5.755661,-0.11492168,7.479486,0.0012217305,0.0,0.029321533,19.0,6.0014997,-0.123799995,7.7546997,0.0195,0.0011,-0.0243,0.117107,-0.301498,0.360728,2017-06-05 06:53:01,41.84624365462273
5.755661,-0.1340753,7.4507556,-0.0012217305,0.0,0.029321533,17.0,6.0028996,-0.1209,7.7537,0.0169,0.0079,0.0464,0.117271,-0.301523,0.36068,2017-06-05 06:53:02,45.21019907969739
5.746084,-0.12449849,7.4507556,-0.0012217305,-0.002443461,0.02687807,16.0,6.0,-0.1258,7.7558,-0.0219,0.0028,-0.0175,0.116994,-0.301449,0.360795,2017-06-05 06:53:03,45.172674013229354
5.755661,-0.10534488,7.441179,-0.0036651916,-0.002443461,0.02687807,16.0,6.0046997,-0.1192,7.7523,0.0207,-0.014099999,0.0088,0.117438,-0.30154,0.360641,2017-06-05 06:53:04,48.029495661307195
5.765238,-0.1340753,7.4507556,0.0012217305,0.0036651916,0.035430185,17.0,6.0016,-0.124,7.7546997,-0.0055,-0.0166,0.0064999997,0.11711,-0.301505,0.360759,2017-06-05 06:53:05,44.052528745462816
5.765238,-0.11492168,7.431602,-0.007330383,0.0036651916,0.034208454,16.0,6.0021,-0.122499995,7.7542996,-0.0131,-0.0187,0.031799998,0.117154,-0.301538,0.36075,2017-06-05 06:53:06,44.935670901837284
5.7843914,-0.1340753,7.441179,0.002443461,0.0,0.02687807,16.0,6.0007997,-0.12539999,7.7552,0.0127,-0.0064,-0.0121,0.117036,-0.301487,0.360798,2017-06-05 06:53:07,44.516941333432676
5.7748146,-0.10534488,7.4507556,-0.002443461,0.0,0.028099801,16.0,6.0028996,-0.1222,7.7537,0.0018,-0.011,0.0179,0.117281,-0.301545,0.360725,2017-06-05 06:53:08,46.409523556708116
5.765238,-0.1340753,7.479486,0.0036651916,-0.002443461,0.036651913,16.0,6.0021996,-0.124299996,7.7542,-0.0013,-0.0072,-0.0163,0.117119,-0.301541,0.360783,2017-06-05 06:53:09,41.31937342082786
5.765238,-0.1436521,7.441179,-0.0061086523,0.0036651916,0.032986723,16.0,6.0077996,-0.12789999,7.7497997,0.0157,-0.0134,0.0033,0.116999,-0.301886,0.36083,2017-06-05 06:53:10,42.47647116358497
5.765238,-0.095768064,7.431602,-0.004886922,-0.002443461,0.030543262,17.0,6.0042,-0.1268,7.7524996,-0.0014,-0.0058,0.0087,0.117059,-0.301702,0.360813,2017-06-05 06:53:11,44.44200012832674
5.7843914,-0.1340753,7.469909,0.052534413,-0.012217305,0.019547688,17.0,5.9846997,-0.1231,7.7676997,-0.1855,0.0212,0.5966,0.117832,-0.300117,0.363996,2017-06-05 06:53:12,42.730522262936915
5.7843914,-0.11492168,7.393295,-0.0061086523,-0.012217305,0.030543262,17.0,5.9765,-0.14119999,7.7736998,0.0412,0.0263,-0.0782,0.11662,-0.299972,0.363628,2017-06-05 06:53:13,47.43051183767555
5.765238,-0.11492168,7.431602,-0.007330383,-0.002443461,0.02565634,19.0,5.9923997,-0.14729999,7.7613997,-0.0139,0.0221,0.012499999,0.116743,-0.301095,0.363748,2017-06-05 06:53:14,41.86767940908713
5.7365074,-0.1340753,7.4507556,-0.0012217305,-0.004886922,0.028099801,19.0,5.9941998,-0.1322,7.7602,-0.0179,0.0184,0.014099999,0.117115,-0.300987,0.36249,2017-06-05 06:53:15,40.77438937968143
5.765238,-0.1340753,7.441179,-0.008552114,0.0012217305,0.029321533,16.0,5.9918,-0.1353,7.7619996,0.0275,0.0021,0.0286,0.117132,-0.300849,0.363104,2017-06-05 06:53:16,40.53109248954618
5.765238,-0.1436521,7.4603324,-0.012217305,0.0036651916,0.034208454,17.0,5.996,-0.1282,7.7588997,-0.0132,0.024899999,0.0023999999,0.117521,-0.300985,0.362977,2017-06-05 06:53:17,39.555779454176864
5.765238,-0.12449849,7.469909,-0.004886922,0.0,0.030543262,17.0,5.9937,-0.1218,7.7608,-0.029099999,0.0191,-0.0219,0.117765,-0.300758,0.362896,2017-06-05 06:53:18,41.72339078468899
5.746084,-0.1340753,7.4603324,-0.004886922,0.0012217305,0.03176499,17.0,5.9954,-0.121599995,7.7595,0.011,0.0079,-9.999999E-4,0.117804,-0.300828,0.362893,2017-06-05 06:53:19,39.35023642507204
5.765238,-0.11492168,7.431602,-0.0061086523,0.0,0.035430185,19.0,5.9933996,-0.121599995,7.7609997,0.033099998,0.0191,0.0187,0.117717,-0.300716,0.362937,2017-06-05 06:53:20,42.0832649407691
5.765238,-0.10534488,7.479486,0.002443461,0.0,0.030543262,19.0,5.9941998,-0.1197,7.7604,0.0165,0.0264,0.011899999,0.117867,-0.300719,0.362899,2017-06-05 06:53:21,42.74749006936665
5.765238,-0.1340753,7.4986396,-0.0012217305,-0.002443461,0.02443461,19.0,5.9941998,-0.12529999,7.7604,-0.019399999,-0.0067999996,-0.0415,0.117627,-0.300869,0.362985,2017-06-05 06:53:22,40.074080192775234
5.7748146,-0.12449849,7.431602,0.0036651916,0.0,0.028099801,17.0,5.9993997,-0.119899996,7.7563996,-0.0138,-0.0202,-0.0145,0.117988,-0.301011,0.362871,2017-06-05 06:53:23,39.57097562896876
5.755661,-0.10534488,7.469909,0.0,0.0,0.03176499,17.0,5.9979997,-0.1196,7.7574997,-0.0295,0.0185,-0.011899999,0.117929,-0.301042,0.362899,2017-06-05 06:53:24,42.85166260940886
5.765238,-0.12449849,7.4603324,-0.002443461,0.0012217305,0.02565634,17.0,5.9976997,-0.1252,7.7577,0.020499999,0.011,0.0037,0.117715,-0.301015,0.36298,2017-06-05 06:53:25,41.47650146004493
5.7843914,-0.10534488,7.4507556,0.0012217305,-0.004886922,0.028099801,17.0,5.9969,-0.122999996,7.7583,-0.0033999998,0.0295,0.036399998,0.11789,-0.300914,0.362936,2017-06-05 06:53:26,40.706124644992784
5.7365074,-0.1340753,7.4603324,-0.002443461,0.0012217305,0.032986723,17.0,6.0006,-0.1191,7.7555,0.0144,-0.0131,-0.023,0.118063,-0.30106,0.362887,2017-06-05 06:53:27,44.79524385189737
5.7748146,-0.12449849,7.469909,-0.010995574,-0.0036651916,0.034208454,17.0,5.9979997,-0.1218,7.7574997,-0.0098,0.0287,-0.014699999,0.117887,-0.300958,0.362953,2017-06-05 06:53:28,39.72127738990418
5.793968,-0.11492168,7.441179,-0.0012217305,0.0012217305,0.03176499,19.0,5.9944,-0.1249,7.7602,0.0242,-0.0071,0.0117,0.117665,-0.300823,0.363042,2017-06-05 06:53:30,39.73127276080057
5.755661,-0.1340753,7.441179,-0.008552114,-0.002443461,0.032986723,19.0,5.9905,-0.121999994,7.7633,-0.0158,-0.011399999,-0.0201,0.117736,-0.300488,0.363025,2017-06-05 06:53:31,40.46893718753794
5.7843914,-0.1340753,7.441179,-0.004886922,0.0012217305,0.030543262,20.0,5.9925,-0.1284,7.7616,0.0187,0.0139,9.999999E-4,0.117471,-0.300775,0.363122,2017-06-05 06:53:32,40.611433536824364
5.765238,-0.1340753,7.4507556,0.0012217305,-0.002443461,0.030543262,17.0,5.9916,-0.1232,7.7623997,-0.0034999999,8.0E-4,-0.0287,0.117685996,-0.300629,0.363062,2017-06-05 06:53:33,40.42413556946219
5.7748146,-0.1436521,7.4603324,-0.002443461,-0.002443461,0.029321533,17.0,5.9951,-0.1183,7.7598,0.029199999,0.0053999997,0.0174,0.117983,-0.30073,0.362968,2017-06-05 06:53:34,39.59711927991385
5.7748146,-0.1340753,7.441179,0.002443461,-0.002443461,0.02443461,20.0,5.9918,-0.119799994,7.7623,0.011,-0.0123,-0.0126,0.117848,-0.300569,0.363034,2017-06-05 06:53:35,40.42517493535363
5.755661,-0.12449849,7.441179,-0.0012217305,0.0012217305,0.028099801,19.0,5.9881997,-0.1227,7.765,0.029099999,-0.009,0.0244,0.117615,-0.300468,0.363123,2017-06-05 06:53:36,42.047982499178325
5.7748146,-0.12449849,7.4507556,-0.002443461,-0.002443461,0.032986723,19.0,5.9968,-0.122499995,7.7584,-0.0033999998,2.0E-4,-0.021399999,0.117849,-0.3009,0.363054,2017-06-05 06:53:37,39.777996001738224
5.7748146,-0.11492168,7.431602,0.0012217305,-0.004886922,0.035430185,19.0,5.9990997,-0.118599996,7.7566,-0.0072,-0.0034999999,-0.0063,0.118082,-0.300957,0.362986,2017-06-05 06:53:38,42.6673192934965
5.755661,-0.11492168,7.469909,-0.0061086523,-0.0036651916,0.030543262,19.0,5.9909,-0.116,7.763,-0.0094,-0.0145,0.0116,0.11801,-0.300445,0.36302,2017-06-05 06:53:39,43.68734404188128
5.746084,-0.095768064,7.4507556,0.0012217305,-0.008552114,0.02687807,19.0,5.9916,-0.12,7.7623997,-0.0104,0.0169,0.0197,0.117851,-0.300558,0.363084,2017-06-05 06:53:40,40.54844095009593
5.7843914,-0.12449849,7.479486,-0.0061086523,0.0012217305,0.034208454,19.0,5.9947996,-0.1195,7.7599998,-0.019399999,-0.0127,-0.0079,0.117951,-0.300728,0.363056,2017-06-05 06:53:41,41.75446078948315
5.755661,-0.11492168,7.469909,-0.004886922,-0.004886922,0.034208454,19.0,5.9944997,-0.124,7.7602,-0.022499999,0.011299999,0.0069,0.117814,-0.300853,0.363106,2017-06-05 06:53:42,38.74107120603661
5.746084,-0.1340753,7.4603324,-0.0012217305,-0.0012217305,0.029321533,19.0,5.9922,-0.123399995,7.7619,0.0,-0.0093,0.0218,0.117722,-0.300653,0.36315,2017-06-05 06:53:43,44.77325822568389
5.7748146,-0.10534488,7.431602,0.002443461,-0.002443461,0.029321533,19.0,5.9925,-0.122499995,7.7616997,-0.1828,0.0213,0.5024,0.116014,-0.30135798,0.358278,2017-06-05 06:53:44,38.800694579800656
5.755661,-0.12449849,7.441179,-0.002443461,0.0012217305,0.030543262,19.0,5.9862,-0.1374,7.7662997,0.0078,-0.0042999997,-0.0039,0.117011,-0.300556,0.363562,2017-06-05 06:53:45,36.96136646335492
5.7748146,-0.1340753,7.201759,0.0036651916,-0.008552114,0.029321533,27.0,5.9339,-0.1311,7.8065,-0.0026999998,0.021,0.1085,0.115746,-0.297139,0.363938,2017-06-05 06:53:46,36.286344286321295
5.7365074,-0.1340753,7.489063,0.02076942,0.0036651916,0.02565634,16.0,5.9523997,-0.1296,7.7924,0.0014,-0.0013,-0.019299999,0.117287,-0.298246,0.366032,2017-06-05 06:53:47,38.34793020712119
5.717354,-0.11492168,7.479486,-0.009773844,-0.004886922,0.035430185,17.0,5.9642997,-0.1453,7.783,-0.0067,0.0033999998,0.035099998,0.116113,-0.299554,0.363881,2017-06-05 06:53:48,40.29544325346915
5.7269306,-0.12449849,7.469909,-0.0061086523,-0.0061086523,0.02565634,17.0,5.9536,-0.12019999,7.7915998,0.0033999998,-0.012,0.0046,0.117041,-0.298387,0.363635,2017-06-05 06:53:49,40.10291407973498
5.717354,-0.1340753,7.479486,-0.007330383,0.0,0.028099801,19.0,5.9565997,-0.1275,7.7892,-0.0138,0.014599999,0.0106999995,0.116852,-0.298656,0.36371,2017-06-05 06:53:50,39.576795537300384
5.7365074,-0.11492168,7.4986396,-0.0061086523,-0.0036651916,0.034208454,19.0,5.9577,-0.11669999,7.7885,-0.0185,-0.015199999,-0.012999999,0.1173,-0.298552,0.363565,2017-06-05 06:53:51,40.80170851993863
5.6982,-0.11492168,7.469909,0.002443461,0.004886922,0.036651913,17.0,5.9542,-0.1232,7.7911,-0.0166,0.0105,-0.0074,0.116992,-0.298498,0.363677,2017-06-05 06:53:52,42.75316934383676
5.717354,-0.12449849,7.469909,-0.013439035,0.0061086523,0.042760566,14.0,5.9547,-0.12329999,7.7907,0.0084,4.9999997E-4,-0.006,0.116947,-0.298505,0.363705,2017-06-05 06:53:53,43.524080212526215
5.707777,-0.10534488,7.479486,-0.0012217305,0.002443461,0.02443461,19.0,5.9553,-0.1196,7.7903,-0.0028,-0.0123,-0.0326,0.117173,-0.298426,0.363639,2017-06-05 06:53:54,42.347109297255386
5.7269306,-0.1436521,7.4603324,-0.002443461,-0.002443461,0.030543262,17.0,5.9537,-0.1219,7.7914996,-0.0014,0.019,0.018199999,0.116991,-0.298421,0.363718,2017-06-05 06:53:55,39.7750325923876
5.717354,-0.12449849,7.4603324,-0.009773844,-0.002443461,0.030543262,19.0,5.96,-0.1218,7.7867,-0.007999999,-0.0208,-0.0335,0.117185,-0.298736,0.363662,2017-06-05 06:53:56,40.91172820465533
5.707777,-0.1340753,7.489063,0.0012217305,-0.0012217305,0.02565634,14.0,5.9530997,-0.119799994,7.792,-0.0284,-0.02,-0.0234,0.117079,-0.298342,0.363713,2017-06-05 06:53:57,43.21502602508782
5.7269306,-0.12449849,7.441179,-0.012217305,-0.0012217305,0.035430185,17.0,5.9547997,-0.1232,7.7906,-0.0023,-0.009,0.0093,0.116969,-0.29850098,0.363768,2017-06-05 06:53:58,40.457000105966955
5.707777,-0.12449849,7.489063,0.002443461,0.004886922,0.030543262,14.0,5.9537,-0.1249,7.7914996,-0.0015,-0.0175,0.0111,0.116874,-0.298468,0.36381,2017-06-05 06:53:59,41.17298127429652
5.7365074,-0.12449849,7.5082164,0.008552114,-0.0036651916,0.032986723,14.0,5.9539,-0.1209,7.7914,-0.0126,0.0093,0.0047999998,0.117036,-0.298447,0.363772,2017-06-05 06:54:00,39.82047242194733
5.717354,-0.11492168,7.4986396,-0.0061086523,0.0036651916,0.036651913,19.0,5.9523997,-0.1252,7.7924,-0.0037999998,-0.0169,0.0222,0.116841,-0.298399,0.363846,2017-06-05 06:54:01,42.058963161570055
5.755661,-0.1436521,7.479486,0.004886922,0.004886922,0.034208454,19.0,5.9549,-0.1215,7.7906,-0.0015,-0.0106999995,8.0E-4,0.117063,-0.29847,0.363786,2017-06-05 06:54:02,41.498457019583775
5.7365074,-0.11492168,7.489063,-0.0061086523,-0.007330383,0.030543262,14.0,5.9529,-0.117,7.7921996,-0.0093,-0.0052,0.0092,0.117224,-0.29827,0.363748,2017-06-05 06:54:03,40.778617706320446
5.717354,-0.12449849,7.469909,-0.0061086523,-0.0036651916,0.03176499,14.0,5.9542,-0.1192,7.7911,-0.0053,0.0067,-0.0056,0.117161,-0.298384,0.363791,2017-06-05 06:54:04,40.49750446087886
5.765238,-0.1436521,7.4986396,0.013439035,-0.002443461,0.030543262,16.0,5.9616,-0.131,7.7853,0.0256,-0.0117999995,0.0106,0.116797,-0.299022,0.363877,2017-06-05 06:54:05,39.613986223054305
5.707777,-0.10534488,7.517793,0.013439035,0.007330383,0.032986723,17.0,5.9572,-0.1407,7.7885,-9.999999E-4,0.0157,-0.0089,0.116215,-0.299118,0.363504,2017-06-05 06:54:06,38.7694580677939
5.717354,-0.1340753,7.489063,0.0012217305,-0.0012217305,0.028099801,20.0,5.9502,-0.1354,7.7939,0.0346,0.021399999,-0.0453,0.116959,-0.298226,0.36577,2017-06-05 06:54:07,38.22695910280027
5.7365074,-0.1340753,7.5082164,0.0,-0.002443461,0.035430185,20.0,5.9551997,-0.13319999,7.7901998,0.029199999,0.018099999,-2.0E-4,0.116639,-0.298667,0.364211,2017-06-05 06:54:08,39.911436682518946
5.6982,-0.11492168,7.5082164,-0.0012217305,-0.009773844,0.02687807,20.0,5.9533,-0.1191,7.7918,0.0033999998,-0.0034999999,0.0071,0.117208,-0.298374,0.363995,2017-06-05 06:54:09,43.18982399264801
5.707777,-0.12449849,7.4507556,-0.002443461,-0.0012217305,0.032986723,20.0,5.9533997,-0.116299994,7.7918,-0.0106999995,-0.0058,-0.011299999,0.117341,-0.298253,0.363963,2017-06-05 06:54:10,39.25900176359656
5.755661,-0.1340753,7.517793,-0.0036651916,-0.004886922,0.037873644,19.0,5.9544,-0.1204,7.791,0.0084999995,-0.0022,0.022799999,0.117234,-0.298347,0.364015,2017-06-05 06:54:11,41.610846824479744