ACC_X,ACC_Y,ACC_Z,GYRO_X,GYRO_Y,GYRO_Z,LIGH_1,GRAV_X,GRAV_Y,GRAV_Z,LINACC_X,LINACC_Y,LINACC_Z,ROTVEC_X,ROTVEC_Y,ROTVEC_Z,TIME,VOICE
0.0,0.0,0.0,0.0,0.0,0.0,0.0,0.0,0.0,0.0,0.0,0.0,0.0,0.0,0.0,0.0,2016-12-07 14:49:18,44.260118881421484
2.5203094,7.1228943,6.377594,0.061722644,-0.09590423,0.045889437,67.0,2.1061094,7.1805053,6.338379,-0.40003473,0.11154486,0.08663934,0.31098917,0.28615102,0.779008,2016-12-07 14:49:19,53.82058112396649
3.9324646,2.977951,8.691956,-0.11481667,0.055433717,0.055672273,42.0,2.2180529,6.4872417,7.011872,-1.5956445,3.3545618,-1.5144655,0.28636774,0.23977415,0.79729396,2016-12-07 14:49:20,37.84454282759053
7.750519,-1.010086,6.6652527,0.12554616,-0.09154232,0.56704384,18.0,5.542149,4.1716423,6.9319816,-1.8700137,4.893796,0.1701895,0.35722816,0.1626056,0.91243744,2016-12-07 14:49:21,48.99361397277826
6.3514404,-0.72242737,7.3843994,-0.1552469,0.04479067,-0.08003351,29.0,7.1304784,-0.43423927,6.71849,0.8106368,0.3012595,-0.82718253,-0.39555058,-0.041845467,-0.90544033,2016-12-07 14:49:22,34.43424024771234
7.5543976,-0.06864929,6.5737305,-0.024797915,-0.050726034,-0.047635265,28.0,6.9874687,-0.20644791,6.8777213,-0.6263057,-0.16558689,0.35357538,-0.38849905,-0.039012354,-0.9132725,2016-12-07 14:49:23,54.22015465061078
7.580536,-0.06864929,6.31221,0.047104456,-0.016634999,0.01932817,24.0,7.655773,0.46590412,6.1108484,0.028531734,0.6498535,-0.35047498,-0.42951724,-0.07240176,-0.8953413,2016-12-07 14:49:24,54.68088988090279
7.24057,-1.1408386,6.1160736,-0.09806617,0.042154428,-0.009010548,28.0,7.5978394,-0.5318423,6.1774087,0.3926757,0.51692444,-0.37397847,-0.42612824,-0.028159838,-0.8942861,2016-12-07 14:49:25,47.543502153558975
7.4890137,-1.3108215,6.377594,-0.026853386,0.0063237264,-0.01547112,26.0,7.6425433,-1.2650834,6.013442,0.21974282,0.047821686,-0.27840325,-0.43882892,-0.025954815,-0.875873,2016-12-07 14:49:26,42.793779740535776
7.5543823,-1.1539154,6.429886,-0.009902547,0.013947524,-0.007650641,26.0,7.3922167,-1.2745328,6.3167334,-0.098974474,-0.17128466,-0.057589695,-0.42160067,0.0053223916,-0.8954722,2016-12-07 14:49:27,39.25511269386046
8.077408,-1.3500519,6.5083466,-0.027871579,-0.008874084,-0.04138293,26.0,7.585007,-1.2342057,6.0921917,-0.57358086,0.45471743,-0.309372,-0.43551677,-4.854489E-4,-0.8884345,2016-12-07 14:49:28,53.16793845173068
9.136536,-0.55244446,5.501541,0.17832485,-0.016923893,0.06193696,20.0,7.7409024,-0.71408725,5.978204,-1.4119713,-0.22375472,1.0612582,-0.44010755,-0.042300288,-0.88183635,2016-12-07 14:49:29,45.494388459629846
8.7573395,-0.48706055,4.5993195,0.038660612,0.03642442,0.018049043,22.0,8.852016,-0.3461135,4.2062335,0.124867596,0.24051628,-0.2583589,-0.51975167,-0.11559072,-0.81843036,2016-12-07 14:49:30,46.02227479076176
8.234314,-0.3432312,5.3576965,0.05191124,0.028600441,0.030195508,34.0,8.30502,-0.35965812,5.2026596,0.09796026,-0.034910765,-0.15451163,-0.4686609,-0.120056055,-0.83763874,2016-12-07 14:49:31,44.58017876198462
8.267014,-0.3530426,5.3348236,-0.013340463,0.0012964633,-0.0092620365,48.0,8.223942,-0.33494198,5.3315105,-0.01636869,0.046427768,0.046815787,-0.46367738,-0.11472887,-0.8435399,2016-12-07 14:49:32,46.26314848829984
8.257202,-0.36283875,5.3054047,-0.03181488,0.0012581092,-0.02056276,42.0,8.222578,-0.34837332,5.332752,-0.031352405,0.019376043,0.0071963216,-0.46414307,-0.11261092,-0.8442671,2016-12-07 14:49:33,51.36450079150441
8.139526,-0.3530426,5.2465515,0.011646861,-0.0015540182,0.008826394,52.0,8.238747,-0.36748406,5.3064485,0.10737579,-0.012294781,0.008244201,-0.4660581,-0.11056946,-0.84421873,2016-12-07 14:49:34,41.363546705398036
8.247391,-0.39227295,5.38385,-0.01735594,1.03485705E-4,-0.011583873,53.0,8.221777,-0.36548412,5.33284,-0.0053287614,0.001936664,0.007905438,-0.46539503,-0.10735455,-0.8464771,2016-12-07 14:49:35,47.227841106332384
8.237579,-0.36283875,5.2955933,-0.0057406425,-0.0016584483,-0.0036140948,41.0,8.221309,-0.34771204,5.3347526,-0.032621827,-0.0072033624,0.050057523,-0.46453613,-0.11074789,-0.8452757,2016-12-07 14:49:36,56.47605106111949
8.217972,-0.3530426,5.325012,-0.023076009,0.004003154,-0.013475903,37.0,8.227934,-0.3511732,5.3243017,0.02848435,-0.024284858,-0.0012544619,-0.46585965,-0.10693704,-0.84692854,2016-12-07 14:49:37,57.393179707074054
8.267014,-0.39227295,5.325012,0.04174497,-0.0016271896,0.027519708,52.0,8.23148,-0.3541489,5.3186197,0.004789235,0.027220847,-0.020556467,-0.46579388,-0.10891628,-0.84570754,2016-12-07 14:49:38,56.13753397580503
8.267014,-0.3432312,5.315201,-0.013054867,5.4116687E-4,-0.008909802,48.0,8.225175,-0.35648754,5.328209,-0.042375706,-0.015978828,0.043513786,-0.46515563,-0.109422095,-0.84559447,2016-12-07 14:49:39,42.1140607078403
8.257202,-0.37265015,5.315201,-0.0065980637,6.2208914E-4,-0.0032278572,52.0,8.227464,-0.35640463,5.32468,-0.012846389,-0.0022755826,-0.02811649,-0.46569607,-0.10788202,-0.8462897,2016-12-07 14:49:40,53.79541123565041
8.257202,-0.3334198,5.325012,-0.0107116,9.248792E-4,-0.0061944663,52.0,8.223134,-0.3685585,5.3305373,-0.0038564936,-0.0014713325,-0.0082225865,-0.4669336,-0.1008988,-0.84951925,2016-12-07 14:49:41,48.91293377202042
8.267014,-0.36283875,5.3446198,-0.019042626,-0.0025195105,-0.012221387,52.0,8.223443,-0.367241,5.3301516,-0.084969215,5.083782E-4,0.0182163,-0.4678817,-0.09696823,-0.8513667,2016-12-07 14:49:42,61.392619040063806
8.20816,-0.3530426,5.3054047,0.008380788,0.0010258817,0.0052571534,52.0,8.22962,-0.35761103,5.321266,-0.037931472,0.023758683,-0.031530306,-0.46606076,-0.10705428,-0.84661764,2016-12-07 14:49:43,54.8223251442932
8.198364,-0.4118805,5.2955933,5.6732626E-4,-2.281536E-4,0.0019509284,52.0,8.22051,-0.37212512,5.334338,0.007439483,0.022864938,-0.0048382827,-0.46606848,-0.10413637,-0.8478455,2016-12-07 14:49:44,47.45127382813315
8.286621,-0.3334198,5.3446198,-0.0023917821,4.7446555E-4,-0.0033868959,52.0,8.220348,-0.36646312,5.3349752,-0.033376668,-0.014130621,-0.018261608,-0.46479133,-0.1093435,-0.84550965,2016-12-07 14:49:45,47.29184184640586
8.247391,-0.3530426,5.3446198,0.009017618,-0.0010101774,0.00661515,52.0,8.232224,-0.35040462,5.317715,0.005376978,0.032008525,-0.00752885,-0.46414238,-0.11594723,-0.8421234,2016-12-07 14:49:46,54.962355999571635
8.257202,-0.3530426,5.3642426,-0.006595668,-4.3471903E-4,-0.0046685636,52.0,8.228541,-0.36372158,5.3225203,-0.011768998,0.0040277718,-0.03027626,-0.46682402,-0.10351533,-0.8482157,2016-12-07 14:49:47,43.75124869071358
8.257202,-0.36283875,5.3348236,0.021436075,-8.9166104E-4,0.014048862,52.0,8.224382,-0.34814495,5.3299823,-0.015985454,0.0063918903,0.018163096,-0.46520436,-0.1087531,-0.8462167,2016-12-07 14:49:49,53.555497058124274
8.247391,-0.37265015,5.3348236,-0.012070825,-5.6623115E-4,-0.008363266,52.0,8.236559,-0.35987997,5.3103657,0.009234304,-0.006586263,-0.041503653,-0.4661584,-0.10918302,-0.8452369,2016-12-07 14:49:50,45.02053894325064
8.198364,-0.3432312,5.285782,0.01745473,2.9459392E-4,0.011215798,52.0,8.223081,-0.3575745,5.3313675,0.010011587,0.051035907,0.033052452,-0.46438858,-0.11174556,-0.8444399,2016-12-07 14:49:51,48.13017686143658
8.237579,-0.36283875,5.354431,-0.042744026,3.347116E-4,-0.027790496,52.0,8.224747,-0.35613108,5.3288927,-0.0155631425,-0.0020020264,0.0033369188,-0.4656418,-0.10737748,-0.84663093,2016-12-07 14:49:52,54.095379489632876
8.198364,-0.38246155,5.3348236,0.020564765,1.877541E-4,0.012928514,52.0,8.224941,-0.3505227,5.328966,-0.015368614,-0.010014003,-0.02383062,-0.4654977,-0.10741121,-0.84683853,2016-12-07 14:49:53,45.14727813619436
8.221237,-0.3432312,5.331543,0.04109273,0.004757559,0.026221339,53.0,8.247957,-0.35223034,5.293157,0.03044377,0.0020230433,0.0017711273,-0.46736282,-0.105740584,-0.8470357,2016-12-07 14:49:54,52.52846884496804
8.237579,-0.36283875,5.3642426,0.033944793,4.2542815E-4,0.022719584,53.0,8.231839,-0.36381167,5.3174124,0.0039545894,-0.037779886,-0.033594057,-0.46656516,-0.10518103,-0.84731495,2016-12-07 14:49:55,51.499311040543034
8.257202,-0.37265015,5.3642426,-0.006476176,3.1471596E-4,-0.002593686,54.0,8.225761,-0.35530412,5.3273826,-0.014548932,0.012445251,-0.03903463,-0.46590877,-0.10632221,-0.8471101,2016-12-07 14:49:56,42.61239219921698
8.227783,-0.37265015,5.354431,0.043633673,-0.0030447203,0.027772563,52.0,8.2233305,-0.36589694,5.3304167,0.010260983,0.015472761,-0.022379968,-0.4642824,-0.11264642,-0.8436813,2016-12-07 14:49:57,32.97603228637842
8.227783,-0.37265015,5.3054047,-0.003689893,-7.8144734E-4,-0.0017862911,52.0,8.22317,-0.36168462,5.330952,0.010100538,-0.007555582,0.032636795,-0.4640044,-0.113639064,-0.8432856,2016-12-07 14:49:58,47.844540449606725
8.27681,-0.36283875,5.3740387,0.024480944,-0.0011116276,0.015704177,55.0,8.223522,-0.3576577,5.3306813,-0.003055101,-0.030647911,-0.049521733,-0.46331912,-0.11639969,-0.84193856,2016-12-07 14:49:59,48.947668454132646
8.247391,-0.39227295,5.3446198,-0.029030357,0.0021233608,-0.018773379,52.0,8.219583,-0.35194492,5.337133,-0.020728134,-0.025056584,0.011577378,-0.46422076,-0.110742114,-0.8452723,2016-12-07 14:50:00,51.25144651942527
8.20816,-0.39227295,5.2465515,0.001301394,0.0011280521,0.0020001486,52.0,8.230749,-0.3542521,5.3197427,-0.023181358,0.0134972865,-0.033054117,-0.46361095,-0.1174977,-0.8412152,2016-12-07 14:50:01,38.339727191241586
7.757065,-0.04902649,4.3541565,0.016848778,0.007832911,0.010897427,52.0,8.188343,-0.36025712,5.384391,-0.22580397,0.062126886,0.6396064,-0.46165302,-0.11081886,-0.84593153,2016-12-07 14:50:02,44.71344802514884
8.691956,-0.578598,7.031372,0.033521242,0.0201935,0.02408916,52.0,8.248403,-0.35501412,5.292278,-0.3324158,0.32600325,-2.9888937,-0.46841013,-0.09988837,-0.8498,2016-12-07 14:50:03,51.15947790877744
8.234314,-0.35630798,5.3184814,-0.04890344,-0.018936222,-0.037899286,52.0,8.156704,-0.37573907,5.431152,-0.069986336,-0.021610035,0.119216286,-0.4610058,-0.10542217,-0.84908533,2016-12-07 14:50:04,53.094631235297115
8.155869,-0.33015442,5.2661743,-0.03317722,3.9130266E-4,-0.023174794,51.0,8.229903,-0.3498045,5.321347,0.084935136,-0.050156865,0.07751311,-0.4687274,-0.09492769,-0.85260004,2016-12-07 14:50:05,41.624223813529056
8.20816,-0.39227295,5.2955933,0.038974065,1.4533818E-4,0.026759438,51.0,8.225399,-0.34999794,5.328292,-4.489128E-5,0.0053498563,-0.053587724,-0.4670804,-0.10062098,-0.8501134,2016-12-07 14:50:06,44.604255349731055
8.247391,-0.3530426,5.3446198,0.009169277,-0.0017055656,0.0060568023,51.0,8.229614,-0.3574093,5.321287,0.01654493,-0.030520927,0.009351519,-0.46764502,-0.10013733,-0.8499722,2016-12-07 14:50:07,50.0812452036715
8.257202,-0.36283875,5.354431,-0.014948841,-7.943256E-5,-0.010729009,51.0,8.234911,-0.36615795,5.3124905,-0.019019771,0.0015914063,-0.02668579,-0.4707122,-0.087091714,-0.85539037,2016-12-07 14:50:08,47.15420239128836
8.257202,-0.36283875,5.3054047,0.0012574763,-0.0019271758,-5.2737375E-4,51.0,8.232247,-0.35611612,5.3173018,0.005557374,-0.01560741,0.018986518,-0.46724567,-0.10305777,-0.84853655,2016-12-07 14:50:09,58.578715640259134
8.267014,-0.38246155,5.3642426,-0.004516736,0.0011070186,-0.0022016263,50.0,8.228005,-0.36234266,5.323441,-0.025924714,-0.0082136495,-0.01573481,-0.46712396,-0.10175482,-0.84913015,2016-12-07 14:50:10,32.422395574835406
8.227783,-0.37265015,5.315201,-0.01749728,5.961176E-4,-0.011011437,51.0,8.22329,-0.35721657,5.3310657,-0.044260312,0.010532825,0.019130338,-0.46669278,-0.10195156,-0.8493315,2016-12-07 14:50:11,45.56013276952481
8.286621,-0.3530426,5.4034576,-0.02082892,0.0018881758,-0.013719095,51.0,8.230825,-0.36919442,5.3186073,-0.023104876,-0.015065364,-0.034189284,-0.467872,-0.09950755,-0.849914,2016-12-07 14:50:12,41.776218595036426
8.267014,-0.39227295,5.325012,0.03049956,-0.0028208543,0.019582026,48.0,8.225939,-0.36711344,5.3263087,-0.029124467,4.4821142E-4,0.029729253,-0.4673517,-0.09984614,-0.84998983,2016-12-07 14:50:13,37.240868489160384
8.27681,-0.3432312,5.2759857,-0.01934594,7.3588523E-4,-0.0118926335,51.0,8.229213,-0.37448835,5.320733,-0.065578684,-0.02035934,0.036038555,-0.46725908,-0.10186899,-0.84867424,2016-12-07 14:50:14,46.912834635836084
8.20816,-0.4020691,5.3348236,0.028947804,9.806745E-4,0.01782068,51.0,8.239095,-0.35534042,5.306735,-0.055696778,0.026029306,-0.032441016,-0.4709223,-0.0872477,-0.8554763,2016-12-07 14:50:15,46.17507945113956
8.198364,-0.38246155,5.354431,0.023668295,-0.0011322307,0.015324627,52.0,8.223774,-0.37672853,5.3289795,-0.030156964,0.004641208,0.0034237914,-0.46959418,-0.08819379,-0.8550473,2016-12-07 14:50:16,46.86215361198573
8.227783,-0.37265015,5.3348236,-0.0074450127,-0.0031182312,-0.005566815,52.0,8.235087,-0.35923555,5.3126907,-0.005222352,0.008513808,-0.012865093,-0.4693129,-0.095275454,-0.85192317,2016-12-07 14:50:17,41.539768056720156
8.188553,-0.4020691,5.325012,0.014440183,-0.0015344719,0.007664244,51.0,8.23042,-0.35712942,5.32006,0.003730133,-0.030241083,-0.0054962724,-0.46793178,-0.0992973,-0.850386,2016-12-07 14:50:18,44.60024243182546
8.217972,-0.3334198,5.3348236,0.0,-0.0,-0.0,51.0,8.233407,-0.36351576,5.315003,0.0075575304,-0.00914756,-0.05269904,-0.4676878,-0.10124086,-0.849167,2016-12-07 14:50:19,40.059239948518275
8.217972,-0.31381226,5.197525,0.01190733,-3.4889352E-4,0.006588591,49.0,8.224824,-0.3567742,5.3287306,-0.015281325,-0.028062299,0.15280452,-0.46844468,-0.094383344,-0.8528783,2016-12-07 14:50:20,47.10590503090758
8.234314,-0.33015442,5.3184814,-0.020285103,0.0037340026,-0.0119609935,51.0,8.244286,-0.34514564,5.2993417,0.01759572,-0.018257294,-0.012594082,-0.47118324,-0.087895215,-0.8552652,2016-12-07 14:50:21,48.57671317500255
8.286621,-0.31707764,5.3184814,0.016980454,-6.204531E-4,0.010869247,51.0,8.237932,-0.33565584,5.3098216,-0.056858964,-0.036008213,0.0115063,-0.46919352,-0.095802456,-0.8522922,2016-12-07 14:50:22,44.26306976993348
8.247391,-0.39227295,5.2955933,-0.03084671,0.0038726784,-0.017242154,50.0,8.230564,-0.34370434,5.3207216,-0.035547245,0.026363887,-0.034154784,-0.4690575,-0.09309882,-0.8535323,2016-12-07 14:50:23,48.60747847022069
8.217972,-0.36283875,5.315201,0.04030425,-0.0020917214,0.023933524,50.0,8.228738,-0.3615634,5.322364,-0.025193153,-0.034675088,0.0104280785,-0.46720892,-0.10178179,-0.8491402,2016-12-07 14:50:24,55.87781373185137
8.237579,-0.36283875,5.325012,0.004484754,0.0016612838,0.0043505733,51.0,8.237477,-0.35528198,5.3092504,-0.003985348,-0.0025687788,-0.014613776,-0.46768355,-0.102179185,-0.84880626,2016-12-07 14:50:25,56.002808112973526
8.247391,-0.38246155,5.3054047,-0.010775026,5.915253E-4,-0.0049271947,50.0,8.225303,-0.37561375,5.3266973,0.039473567,0.0057559824,-0.012478945,-0.46864536,-0.093691245,-0.8525825,2016-12-07 14:50:26,45.72251748525734
8.227783,-0.47071838,5.3054047,0.023167452,-0.001877949,0.011089952,62.0,8.228157,-0.33888566,5.324751,0.029447017,0.08744009,0.01193443,-0.4684704,-0.095475115,-0.85281056,2016-12-07 14:50:27,46.00936884396511
8.139526,-0.3432312,5.3642426,-0.0433182,0.0027556722,-0.026287418,56.0,8.222612,-0.34871796,5.3326774,0.07764446,-0.035449978,0.02074185,-0.46888164,-0.09072174,-0.8547266,2016-12-07 14:50:28,37.88829947977544
8.234314,-0.38246155,5.3446198,4.8763244E-4,-5.232068E-4,0.0032611692,56.0,8.231313,-0.35140368,5.3190613,0.018243318,0.029966047,-0.006494688,-0.46972153,-0.09049864,-0.8543199,2016-12-07 14:50:29,38.34749241111469
8.237579,-0.38246155,5.315201,-0.0056815497,-6.701416E-4,-0.006412353,60.0,8.234999,-0.37175232,5.3119655,0.035549738,-0.031243656,-0.027210768,-0.46775448,-0.1019259,-0.84856933,2016-12-07 14:50:30,45.10640308846373
8.227783,-0.36283875,5.3348236,0.010935775,-0.0016346595,0.005179303,60.0,8.237151,-0.3630035,5.3092346,0.010461331,-0.008874471,-0.016321307,-0.47125193,-0.08518452,-0.85618216,2016-12-07 14:50:31,42.00531200737344
8.27681,-0.4118805,5.3348236,-0.0139198955,1.8797933E-4,-0.008826399,57.0,8.228738,-0.35780212,5.322617,-0.037297174,0.02325423,-0.0053059002,-0.46918204,-0.09259518,-0.85340935,2016-12-07 14:50:32,40.30397891388873
8.267014,-0.36283875,5.2955933,0.009050645,-0.0013256278,0.008173764,48.0,8.236662,-0.37304887,5.3092976,-0.031310838,-0.016875796,0.011778558,-0.46926105,-0.09526663,-0.85159695,2016-12-07 14:50:33,37.73840819779293
8.168945,-0.3432312,5.3184814,-0.005052645,0.003186163,-0.0028652304,43.0,8.227855,-0.35046706,5.324471,0.07116016,-0.009288183,0.009648716,-0.46728614,-0.10121441,-0.84970874,2016-12-07 14:50:34,46.72357240613963
8.198364,-0.38246155,5.3054047,-0.01125743,-3.1152656E-4,-0.0061309575,48.0,8.227382,-0.3561545,5.3248215,-0.013400879,-0.014928897,4.405996E-5,-0.46781102,-0.0981938,-0.8510249,2016-12-07 14:50:35,38.84514165873677
8.198364,-0.39227295,5.325012,-0.024351064,0.0018399477,-0.015770976,51.0,8.227191,-0.3374191,5.326338,0.014121633,0.016709922,0.014402204,-0.46706614,-0.10132088,-0.8500764,2016-12-07 14:50:36,37.40322383780004
8.20816,-0.36283875,5.3446198,-0.0052186646,9.413738E-4,-0.0051205335,52.0,8.23405,-0.35785556,5.314391,0.035276234,-0.033100255,-0.05321737,-0.46912616,-0.09485714,-0.85221004,2016-12-07 14:50:37,43.763432860472456
8.237579,-0.38246155,5.315201,0.011563191,-3.596361E-4,0.0076449886,59.0,8.231517,-0.35004157,5.3188324,0.0048274756,0.03132814,-0.020343648,-0.4676077,-0.100371115,-0.8500399,2016-12-07 14:50:38,43.4753093169368
8.20816,-0.35630798,5.3054047,-0.072082624,-0.016048856,-0.04720513,70.0,8.2197275,-0.33775213,5.3378263,0.00908799,-0.024163747,0.043104775,-0.46717176,-0.09997408,-0.85076094,2016-12-07 14:50:39,41.33525935225478
8.247391,-0.36938477,5.292328,-0.004200719,-4.2513726E-4,-5.354481E-4,64.0,8.238888,-0.34248495,5.3079023,-0.0014223885,0.025264414,0.023207545,-0.46790898,-0.102232926,-0.84905905,2016-12-07 14:50:40,46.82252470470079
8.267014,-0.3432312,5.2955933,-5.4052696E-5,0.0026299371,2.1732609E-4,57.0,8.226489,-0.36716634,5.325453,-0.027441043,0.04144406,-0.02734378,-0.46733475,-0.10006633,-0.8498709,2016-12-07 14:50:41,43.662643095869214
8.217972,-0.4118805,5.3642426,-0.029362872,-3.2718776E-4,-0.01889267,54.0,8.226181,-0.3609169,5.326358,0.026731929,0.047693532,-0.05367958,-0.46793666,-0.09757446,-0.85117,2016-12-07 14:50:42,53.214327295967216
8.286621,-0.36283875,5.2367554,8.018307E-4,-4.8790238E-4,-0.001099561,60.0,8.235307,-0.35350275,5.312734,-0.0050037154,0.014246643,7.9848286E-4,-0.4694052,-0.093771085,-0.85282373,2016-12-07 14:50:43,45.39635107443306
8.20816,-0.36283875,5.285782,-0.046701115,0.001633097,-0.02754327,59.0,8.2398205,-0.35689974,5.3055053,-0.014110826,0.010849662,0.034430783,-0.47054133,-0.08999311,-0.8541755,2016-12-07 14:50:44,46.69349873758891
8.257202,-0.3334198,5.3642426,0.022568488,0.001967772,0.014680777,59.0,8.230386,-0.35054585,5.3205523,-0.00992513,0.044444215,-0.059485108,-0.4687206,-0.094672464,-0.85268337,2016-12-07 14:50:45,45.745833874592286
8.27681,-0.38246155,5.2955933,-0.004613523,-0.0013230767,-0.003819058,59.0,8.233124,-0.36120394,5.3155985,-0.007186762,-0.03431559,-0.023577483,-0.46821856,-0.098951235,-0.8503021,2016-12-07 14:50:46,49.48989685710127
8.2964325,-0.3334198,5.2955933,-0.008169756,0.0019854945,-0.00476101,6.0,8.239341,-0.34684846,5.3069153,0.012651029,-0.019960124,0.022220353,-0.46943852,-0.09494482,-0.8523373,2016-12-07 14:50:47,47.92935574064344
8.267014,-0.3530426,5.325012,-9.529709E-4,0.0012118276,6.403186E-4,41.0,8.2293215,-0.37411672,5.3205924,-0.01098922,-0.0063673663,-0.004963396,-0.46907923,-0.09307496,-0.85277325,2016-12-07 14:50:48,45.23247874391664
8.237579,-0.31381226,5.2759857,-0.01358344,4.4039756E-4,-0.009401797,41.0,8.222251,-0.3562387,5.332736,-0.045299463,0.011510692,0.020800458,-0.4682215,-0.09426404,-0.8529811,2016-12-07 14:50:49,41.653284260497365
8.247391,-0.38246155,5.3446198,-0.032308444,0.0019567462,-0.020602575,46.0,8.234665,-0.35095516,5.313897,-0.060126882,0.03041457,-0.02527878,-0.46747956,-0.10254528,-0.8488491,2016-12-07 14:50:50,48.29812965977087
8.2964325,-0.4020691,5.2955933,0.008011831,0.008912416,0.0082564475,62.0,8.187708,-0.38146654,5.3838944,-0.07984247,-9.682281E-5,0.08557941,-0.46228936,-0.1077248,-0.84692764,2016-12-07 14:50:51,49.34666749824206
8.234314,-0.33015442,5.279251,-0.0014042376,-0.0013701367,-0.0027014066,57.0,8.232148,-0.35073715,5.3178115,-0.0081619,-0.02384883,0.0058757705,-0.4693189,-0.093023576,-0.85333496,2016-12-07 14:50:52,51.76733636085609
8.257202,-0.3432312,5.2759857,0.0051123435,-9.0305606E-4,0.0012696513,56.0,8.240721,-0.32582933,5.306106,4.106721E-4,-0.012561324,0.007790716,-0.4694115,-0.095573865,-0.8525815,2016-12-07 14:50:53,49.798172312081725
8.227783,-0.3530426,5.315201,-0.025947219,0.0025319648,-0.014658809,56.0,8.234778,-0.34842247,5.3138885,-0.04543164,0.021059908,-0.013042579,-0.46938175,-0.09371544,-0.852999,2016-12-07 14:50:54,41.19446566273118
8.257202,-0.36283875,5.3446198,0.020792902,-3.2471918E-4,0.013645714,46.0,8.24174,-0.35977024,5.3023252,0.0014307017,0.035219833,-0.00961006,-0.47039375,-0.091414884,-0.8534649,2016-12-07 14:50:55,44.81841533925382
8.257202,-0.36283875,5.3054047,-0.021491364,3.2063326E-4,-0.01381349,41.0,8.237028,-0.36551195,5.309253,-0.03107308,-0.011383188,0.052652486,-0.4696002,-0.093567476,-0.852531,2016-12-07 14:50:56,47.941955720440816
8.306229,-0.3334198,5.285782,0.01679522,-6.473765E-4,0.010401322,37.0,8.238281,-0.35932952,5.3077316,-0.02966898,-0.005533578,0.010012834,-0.4701105,-0.0914255,-0.85358995,2016-12-07 14:50:57,58.17387296557352
8.051254,-0.2386322,5.5146027,0.022509493,0.004241085,0.016712677,33.0,8.228337,-0.37660336,5.3219385,0.13785115,-0.1314371,-0.1262002,-0.46838441,-0.09396855,-0.8524876,2016-12-07 14:50:58,45.95622436392151
8.168945,-0.33015442,5.3054047,0.006117242,-4.798978E-5,9.455467E-4,38.0,8.219365,-0.35908344,5.3369923,0.033389967,-0.0077413823,0.052336168,-0.4669626,-0.09909843,-0.85082316,2016-12-07 14:50:59,51.54418970482088
8.237579,-0.31381226,5.354431,-0.036753397,-3.5252067E-6,-0.02039699,41.0,8.245994,-0.35304996,5.2961626,-0.02155696,-0.02616164,0.011467644,-0.47031173,-0.09387945,-0.8523465,2016-12-07 14:51:00,54.68340679919234
8.20816,-0.3432312,5.3184814,-0.018207232,0.0013712351,-0.01225208,39.0,8.229228,-0.34946728,5.322413,0.029778713,-0.008958591,0.010477127,-0.4681374,-0.0973476,-0.8515277,2016-12-07 14:51:01,50.651807747821415
8.20816,-0.36283875,5.2759857,0.013584299,-0.0014224628,0.009151741,47.0,8.24051,-0.35517204,5.3045506,0.02744021,0.012577327,0.04709677,-0.46986178,-0.093780376,-0.8525688,2016-12-07 14:51:02,59.23157739595177
8.20816,-0.3530426,5.3054047,0.004070483,4.0908292E-4,0.0023574014,55.0,8.235791,-0.35541973,5.311857,0.02272164,0.025949992,-0.040939603,-0.46815392,-0.09994819,-0.8499271,2016-12-07 14:51:03,56.93549346758124
8.257202,-0.36283875,5.2955933,-0.024533898,3.3334552E-4,-0.0141126895,46.0,8.2294445,-0.35935172,5.3214183,-0.011464735,0.027257035,-0.0028597408,-0.46930292,-0.09198492,-0.85360914,2016-12-07 14:51:04,54.714746948611214
8.227783,-0.37265015,5.3348236,0.0011848654,0.0013455162,0.0015359222,46.0,8.23744,-0.37220693,5.3081474,-0.030110411,0.00916281,-0.017408257,-0.46997508,-0.091643035,-0.85317904,2016-12-07 14:51:05,49.61554921580313
8.20816,-0.36283875,5.285782,0.010357428,-9.986121E-4,0.0056797913,46.0,8.237103,-0.34950757,5.3102155,-0.07130897,0.03186216,-0.015340348,-0.46831378,-0.099807024,-0.85010475,2016-12-07 14:51:06,47.83204863533363
8.247391,-0.37265015,5.3054047,-0.0022023204,5.7236175E-4,-6.289379E-4,47.0,8.244192,-0.3711029,5.2977314,-0.009738083,-0.016973866,-0.014204349,-0.4691539,-0.09892177,-0.8496682,2016-12-07 14:51:07,52.06478284525172
8.27681,-0.30400085,5.3054047,-0.008378522,0.0037801706,-0.0060606976,47.0,8.229567,-0.354653,5.321545,-0.03599699,-0.028472582,-0.007132726,-0.46888158,-0.094359435,-0.8526782,2016-12-07 14:51:08,35.6384259974776
8.257202,-0.4118805,5.2759857,0.007741757,0.0010909067,0.006794332,44.0,8.244827,-0.33608684,5.2990823,0.058998782,0.04528288,7.673084E-4,-0.4691237,-0.09856635,-0.850782,2016-12-07 14:51:09,43.68754251624349
8.221237,-0.3432312,5.3184814,-0.021507919,0.0014216601,-0.0152568305,51.0,8.230847,-0.362955,5.319006,0.058638822,-0.022446318,0.007070377,-0.46816814,-0.09786747,-0.85092586,2016-12-07 14:51:10,47.7697005345765
8.247391,-0.3432312,5.292328,0.016968723,-0.0018320263,0.010320386,51.0,8.235796,-0.34015152,5.3128486,-0.004514068,-0.013263191,0.028153898,-0.46773088,-0.10187984,-0.8494313,2016-12-07 14:51:11,42.84322992889025
8.217972,-0.39227295,5.3054047,-0.011445446,0.0011731127,-0.0060183904,50.0,8.232551,-0.33916572,5.3179374,-0.021379888,0.0149633195,0.006002131,-0.46678403,-0.10471807,-0.84819514,2016-12-07 14:51:12,49.415285237404525
8.227783,-0.37265015,5.325012,0.016346535,-6.8043E-4,0.009508987,50.0,8.229817,-0.34737378,5.321637,-0.010459669,-0.007655158,-0.072122835,-0.4667929,-0.103825405,-0.84848696,2016-12-07 14:51:13,43.11955205201055
8.227783,-0.3334198,5.2759857,0.012054155,-0.002050063,0.00844636,51.0,8.221959,-0.34325135,5.3340387,-0.031971738,-0.0027426546,0.049343828,-0.46745658,-0.097803354,-0.8517077,2016-12-07 14:51:14,40.827772197409104
8.237579,-0.38246155,5.2759857,-0.012684798,6.1816873E-4,-0.005930968,62.0,8.2279625,-0.36722913,5.3231735,-0.012365053,0.016010731,-0.015845792,-0.46776858,-0.0988968,-0.8503737,2016-12-07 14:51:15,42.07853691741366
8.267014,-0.36283875,5.285782,-0.010670298,-0.0014418259,-0.006962851,64.0,8.240839,-0.3665175,5.303266,-0.0130916275,0.0012318605,0.004950926,-0.46762356,-0.10478814,-0.8470815,2016-12-07 14:51:16,41.87792715967241
8.257202,-0.37265015,5.315201,0.054967366,-0.002149404,0.034868624,62.0,8.245097,-0.36112943,5.2970147,-0.008833607,-0.020620737,-0.014920947,-0.46822405,-0.10322285,-0.8479136,2016-12-07 14:51:17,47.427150199004544
8.20816,-0.38246155,5.325012,0.0022691917,3.6081698E-4,0.0021151814,60.0,8.231841,-0.37388942,5.3167095,0.005150859,-0.019760372,0.018394202,-0.46757808,-0.10141683,-0.8488262,2016-12-07 14:51:18,45.90536660222794
8.247391,-0.37265015,5.2955933,-0.054948766,0.0023353917,-0.03478596,70.0,8.24296,-0.3731755,5.299506,0.016269764,-0.00542613,0.0011912816,-0.47090697,-0.08960377,-0.8538325,2016-12-07 14:51:19,42.952633999668265
8.257202,-0.36283875,5.3348236,-0.04529295,0.0017353576,-0.02985488,60.0,8.24441,-0.36468637,5.297838,0.031339936,0.0030629986,-0.041337807,-0.46855834,-0.10165913,-0.84855926,2016-12-07 14:51:20,43.331347084940504
8.27681,-0.3432312,5.354431,0.030886298,-0.0012361245,0.019243848,56.0,8.243255,-0.36153975,5.2998533,0.016564883,-0.007410724,-0.012082406,-0.46967572,-0.09547316,-0.8516037,2016-12-07 14:51:21,44.90072777062251
8.237579,-0.4020691,5.3348236,-0.02263208,2.1030332E-4,-0.015041032,55.0,8.238112,-0.3707177,5.3072104,-0.015818357,-0.0029683323,0.022515472,-0.4684408,-0.09995368,-0.84940255,2016-12-07 14:51:22,49.182335260375424
8.227783,-0.3530426,5.315201,0.00758478,5.5235323E-5,0.0022734716,56.0,8.237848,-0.36923528,5.307722,-0.016082717,-0.015106227,-0.0042131296,-0.4684004,-0.09986466,-0.849535,2016-12-07 14:51:23,51.60995035261514
8.20816,-0.36283875,5.325012,-0.03274655,0.0041389405,-0.021625536,54.0,8.236025,-0.35914204,5.3112445,0.02295524,0.022227678,-0.02793152,-0.46871796,-0.097156085,-0.8511401,2016-12-07 14:51:24,44.61296764593109
8.168945,-0.37265015,5.315201,-0.021151992,7.305302E-4,-0.013562908,53.0,8.237643,-0.370803,5.3079295,0.051814515,0.010566727,0.009614216,-0.46853557,-0.09930738,-0.8497154,2016-12-07 14:51:25,54.50098985120584
8.234314,-0.3432312,5.279251,-0.009310437,0.0025925762,-0.0045660557,56.0,8.232912,-0.3869732,5.314112,0.0046296213,-0.047689375,0.04541626,-0.4694752,-0.09266289,-0.85249937,2016-12-07 14:51:26,38.980302756963965
8.234314,-0.26478577,5.213867,0.034557715,-0.0016932853,0.020080475,53.0,8.239073,-0.34483907,5.307462,0.16179399,-0.13013574,0.104920484,-0.4669521,-0.10646265,-0.84692806,2016-12-07 14:51:27,47.16871638206982
8.195084,-0.3432312,5.331543,-0.113754645,-0.029166779,-0.075479046,54.0,8.146932,-0.36625645,5.446443,-0.08981582,-0.025139948,0.15618052,-0.45691633,-0.1125753,-0.8463776,2016-12-07 14:51:28,44.84409585696571
8.195084,-0.30400085,5.2530975,0.03234237,-0.0036533743,0.02110688,52.0,8.23462,-0.34610948,5.3142867,0.047210667,-0.0738321,0.08651173,-0.46786562,-0.10042014,-0.8500229,2016-12-07 14:51:29,45.156409659004844
8.188553,-0.36283875,5.354431,-0.00422598,0.004675219,0.0031220538,53.0,8.230961,-0.33712876,5.3205304,0.045131534,-0.010240435,0.07669675,-0.46700227,-0.10265435,-0.84928983,2016-12-07 14:51:30,46.20445457663191
8.35527,-0.30400085,5.168106,0.007002487,5.60517E-4,-0.0014848622,53.0,8.223587,-0.3434325,5.3315167,-0.0852818,-0.1183242,0.1152089,-0.46647796,-0.10267844,-0.84929824,2016-12-07 14:51:31,43.94686750592
8.652725,-0.4216919,5.0831146,-0.036246296,-0.006625278,-0.020072121,52.0,8.206186,-0.3266722,5.3593097,-0.44273445,0.16366032,0.22443853,-0.463508,-0.10986966,-0.84675074,2016-12-07 14:51:32,43.991184949561855
8.404297,-0.3432312,5.0308075,-0.01363272,-0.022693504,-0.007217594,51.0,8.237955,-0.36339214,5.3079596,-0.14999507,-0.010527577,0.2709754,-0.4648194,-0.118033886,-0.8401553,2016-12-07 14:51:33,50.903351030847034
8.39122,-0.39553833,5.2530975,0.0027565244,0.006585234,7.6817523E-4,55.0,8.358649,-0.34435907,5.1171064,0.07405233,0.023761205,0.05595615,-0.47560036,-0.11292843,-0.8397743,2016-12-07 14:51:34,48.114456924172295
8.43045,-0.35630798,4.965439,-0.029922085,5.902683E-4,-0.017870603,74.0,8.402002,-0.35415933,5.0449295,-0.028992288,0.013590056,0.10074352,-0.48017713,-0.11096898,-0.8387645,2016-12-07 14:51:35,56.049739005995285
8.508896,-0.36938477,5.0831146,0.03070076,-1.117635E-4,0.017391033,74.0,8.404519,-0.35101178,5.0409565,-0.053716574,0.01673759,0.0014282077,-0.47975805,-0.11344015,-0.8376205,2016-12-07 14:51:36,41.76441750063766
8.35199,-0.36938477,5.0961914,-0.036381587,0.0055138874,-0.021822704,74.0,8.409999,-0.34156814,5.0324583,0.07434661,0.026181228,-0.06155177,-0.4811008,-0.10887777,-0.8399318,2016-12-07 14:51:37,49.673406950526285
8.182022,-0.3432312,5.122345,0.055018377,0.037121013,0.032758188,74.0,8.345765,-0.3428211,5.138197,0.14928761,-0.0012318344,0.056230485,-0.46994635,-0.119373634,-0.8381299,2016-12-07 14:51:38,43.22951204908578
8.325851,-0.39553833,4.7562256,-0.003365424,-0.006555223,8.603087E-4,74.0,8.235019,-0.33286753,5.3145137,-0.018911699,0.034881853,0.4792901,-0.46722543,-0.104679964,-0.84819305,2016-12-07 14:51:39,58.26306507748133
8.325851,-0.35630798,5.16156,0.03117737,6.9614855E-4,0.019380389,75.0,8.295538,-0.3503948,5.218397,-0.053734865,0.0037342375,0.0018043801,-0.47000468,-0.11392919,-0.8411794,2016-12-07 14:51:40,61.88798829028909
8.338928,-0.3432312,5.109268,0.024231905,-0.0034358955,0.014510722,73.0,8.34081,-0.34420693,5.1461463,-0.022084016,-0.003698257,0.092997275,-0.47402927,-0.11395396,-0.83978915,2016-12-07 14:51:41,44.66706768210581
8.394485,-0.39227295,5.1779175,0.02733215,0.0032548988,0.017136764,70.0,8.34735,-0.3537041,5.1348863,-0.07002458,4.2493443E-4,-0.040845662,-0.47570023,-0.10865214,-0.84196025,2016-12-07 14:51:42,46.678668530490874
8.35527,-0.3530426,5.1288757,-0.007957879,-0.0032075094,-0.004520513,75.0,8.343688,-0.36364233,5.140139,-0.019205155,0.0041070585,0.046129115,-0.47423556,-0.11454207,-0.8387849,2016-12-07 14:51:43,45.60422018868525
8.299698,-0.31707764,5.0308075,0.014684116,-2.9604643E-4,0.007978528,77.0,8.36612,-0.3604108,5.1037745,0.044088226,-0.033522487,0.11872746,-0.4775692,-0.10878114,-0.8409748,2016-12-07 14:51:44,51.55954226486574
8.312775,-0.35630798,5.213867,-0.04047132,0.0027177697,-0.025296636,53.0,8.331659,-0.3411466,5.1611495,0.023247864,0.012982438,-0.06906399,-0.47523656,-0.10474957,-0.844715,2016-12-07 14:51:45,56.26427457102266
8.267014,-0.3432312,5.354431,0.017812675,0.0051858327,0.01162466,54.0,8.293247,-0.35318816,5.22185,0.09379784,0.028181566,-0.076465234,-0.46977982,-0.11361197,-0.8413773,2016-12-07 14:51:46,55.23697589678509
8.20816,-0.38246155,5.3054047,-0.022622254,4.418396E-4,-0.014723192,56.0,8.243358,-0.3588536,5.2998753,0.030950045,0.009574703,-0.013042996,-0.46775573,-0.10493044,-0.8471679,2016-12-07 14:51:47,57.41573044845295
8.43045,-0.3432312,4.9262085,-9.856349E-4,-0.044205103,-0.0014025441,59.0,8.442376,-0.35172886,4.977245,-0.12328809,0.028992651,0.22618389,-0.48386773,-0.104911044,-0.8406805,2016-12-07 14:51:48,48.35980730661251
8.43045,-0.31707764,4.7562256,0.0066623483,0.0011558683,0.0045086253,76.0,8.505802,-0.34500918,4.8685417,-0.061805315,0.034953967,0.102034144,-0.4856214,-0.12618779,-0.82768846,2016-12-07 14:51:49,48.30422729438811
8.456604,-0.38246155,4.886978,0.01753187,0.00536747,0.009714551,69.0,8.483669,-0.35039642,4.906625,0.039054584,0.0037326012,-0.023941185,-0.48603123,-0.115981326,-0.8335449,2016-12-07 14:51:50,55.999226237153145
8.39122,-0.36938477,5.056961,0.0019987193,0.0067445384,0.0033356969,54.0,8.404291,-0.36430869,5.0403914,0.01415738,0.0034407037,-0.012757437,-0.48012272,-0.11090017,-0.83852816,2016-12-07 14:51:51,45.910241220267864
8.20816,-0.38246155,5.38385,-0.017039647,0.023718983,-0.01173694,47.0,8.3127165,-0.3586517,5.1904235,0.14050804,0.022718053,-0.21685441,-0.47503978,-0.09549599,-0.84938824,2016-12-07 14:51:52,50.25013753515594
8.335648,-0.4020691,5.540756,0.024711628,-4.165519E-4,0.015105084,46.0,8.230386,-0.3499756,5.320588,0.058176607,0.017773805,-0.045828596,-0.46746856,-0.10086606,-0.849844,2016-12-07 14:51:53,46.44662798069266
8.299698,-0.36938477,5.1877136,-0.018005515,-0.0108523,-0.013755917,52.0,8.38417,-0.32803077,5.0762672,0.11661841,0.012477906,-0.5353161,-0.47750354,-0.11633994,-0.837483,2016-12-07 14:51:54,42.1040971298435
8.35199,-0.3432312,5.109268,-0.013543663,-0.0046326923,-0.008342554,53.0,8.340977,-0.35485312,5.1451497,-0.024807421,-0.014635597,0.042182423,-0.47436056,-0.11196707,-0.8405273,2016-12-07 14:51:55,54.72820053447201
8.338928,-0.3432312,5.122345,0.026705772,-0.0021962142,0.0150099145,61.0,8.363642,-0.3379308,5.1093736,0.04160923,0.0025778974,0.0017432781,-0.4776014,-0.10686474,-0.84264845,2016-12-07 14:51:56,42.368248170880946
8.335648,-0.36283875,5.109268,-0.04052269,0.0018205501,-0.022120807,50.0,8.360869,-0.35285315,5.112899,0.011596914,0.014896242,-0.008351857,-0.47823143,-0.1029008,-0.8440823,2016-12-07 14:51:57,52.4140783618542
8.404297,-0.3432312,5.1288757,-0.0,0.0,0.0,46.0,8.360278,-0.3740144,5.1123643,-0.01623568,-0.019885384,-0.03612709,-0.47780487,-0.10508923,-0.84259427,2016-12-07 14:51:58,54.853822824277
8.374878,-0.3530426,5.070038,-0.011796721,5.560672E-4,-0.0068220655,49.0,8.354353,-0.3661982,5.1226044,-0.008540151,-0.05293022,0.014974152,-0.4762698,-0.10948601,-0.8409006,2016-12-07 14:51:59,51.0664251397711
8.443527,-0.37265015,5.0112,-0.004068498,-0.010022784,-0.0026455952,49.0,8.40066,-0.35821363,5.0468793,-0.043956045,0.009535761,0.048211988,-0.4788523,-0.117232226,-0.8354989,2016-12-07 14:52:00,53.0764520742245
8.273544,-0.30400085,5.187729,0.01766077,0.003542446,0.008523841,53.0,8.410533,-0.3504918,5.0309525,0.14298207,-0.050844155,-0.13115902,-0.47857693,-0.11858526,-0.83511055,2016-12-07 14:52:01,46.289531887382964
8.237579,-0.3334198,5.3348236,0.044444256,0.012394129,0.030054487,49.0,8.260771,-0.33377957,5.2743397,0.047701143,-0.0068912273,-0.037595615,-0.46479544,-0.12152023,-0.838848,2016-12-07 14:52:02,56.07701069348338
8.182022,-0.33015442,5.279251,0.020952241,-0.0016973941,0.013031163,35.0,8.225157,-0.37384516,5.327047,0.052948438,-0.046956826,0.06959271,-0.4632557,-0.117516205,-0.840754,2016-12-07 14:52:03,48.635949649601216
8.20816,-0.35630798,5.3446198,-0.009867267,0.0020307386,-0.007619168,35.0,8.23559,-0.34245932,5.3130183,0.049761154,0.0116697075,0.0147031415,-0.46391103,-0.11770098,-0.8413727,2016-12-07 14:52:04,50.82578859363407
8.257202,-0.39227295,5.3642426,-0.017122315,-0.003831522,-0.009666098,52.0,8.239814,-0.3498896,5.3059826,0.01551077,0.02968153,0.0038398674,-0.4636849,-0.12144203,-0.83872056,2016-12-07 14:52:05,54.065488343039554
8.273544,-0.38246155,5.4753876,0.051826954,1.846648E-4,0.032110333,52.0,8.240322,-0.3521947,5.3050413,-0.040849406,0.015554673,-0.12947726,-0.4631846,-0.12166761,-0.83882284,2016-12-07 14:52:06,50.05401644550696
8.365067,-0.38246155,5.0831146,-0.031676065,-0.0068127858,-0.01864919,51.0,8.335748,-0.34909502,5.1540112,-0.040766273,0.0050340323,0.046381008,-0.47086245,-0.1253137,-0.83374023,2016-12-07 14:52:07,62.12979635696709
8.195084,-0.33015442,5.3446198,-0.009511829,0.014245147,-0.0060684886,51.0,8.31128,-0.35258025,5.193139,0.12545201,-0.039312266,-0.13241681,-0.4691495,-0.119430974,-0.8380648,2016-12-07 14:52:08,53.84987167675461
8.182022,-0.3432312,5.3446198,-0.006831084,0.0016903718,-0.0052734916,50.0,8.227077,-0.34011713,5.3263416,0.014006912,0.04125262,0.028026292,-0.46225795,-0.1211126,-0.83985674,2016-12-07 14:52:09,48.71959350373543
8.247391,-0.38246155,5.354431,0.015915751,-0.0022030831,0.012136845,50.0,8.230052,-0.35520694,5.3207583,-0.010257658,0.012542437,-0.018417895,-0.46270147,-0.1210818,-0.839195,2016-12-07 14:52:11,53.70720549656081
8.237579,-0.38246155,5.2661743,0.015495146,-0.0023119703,0.010177989,49.0,8.223409,-0.36492288,5.3303647,-0.031807136,0.0029891669,0.07490401,-0.4620719,-0.12109009,-0.8391329,2016-12-07 14:52:12,44.86151575330478
8.178741,-0.39227295,5.315201,-0.033434197,0.0022575948,-0.021446867,50.0,8.225089,-0.3623019,5.327948,0.03926075,0.019067831,0.0023921235,-0.46288854,-0.11860533,-0.84053063,2016-12-07 14:52:13,44.96480800843792
8.27681,-0.3530426,5.3446198,-0.0033933797,-2.9315453E-4,-0.0025519638,49.0,8.21715,-0.36784044,5.339805,-0.050222535,-0.02707825,3.724314E-4,-0.4611245,-0.1230679,-0.8380773,2016-12-07 14:52:14,46.907711024433915
8.267014,-0.39227295,5.3446198,-0.022900706,0.0032236553,-0.013899758,49.0,8.224689,-0.3568894,5.328931,-0.029241681,-0.016380694,0.016995091,-0.46139258,-0.12399785,-0.83768755,2016-12-07 14:52:15,46.28963691695179
8.159134,-0.3530426,5.315201,0.015564147,-4.6294773E-4,0.010977837,47.0,8.217411,-0.36695844,5.339464,0.031387318,-0.01372577,0.014147405,-0.46196243,-0.11973437,-0.83994925,2016-12-07 14:52:16,43.053388725506075
8.20816,-0.36283875,5.3348236,-0.009509816,-5.4270745E-4,-0.0062330067,48.0,8.222525,-0.35302937,5.332526,-0.004164913,0.0010996546,0.0069706184,-0.46238214,-0.11976389,-0.8402559,2016-12-07 14:52:17,50.69945777174479
8.217972,-0.3530426,5.2955933,0.027818957,-0.004554284,0.018894473,49.0,8.2451,-0.36797434,5.2965384,0.018409582,-0.013845298,0.0118434,-0.46610537,-0.11376028,-0.84220237,2016-12-07 14:52:18,48.3664997807043
8.221237,-0.31707764,5.3707733,-0.030525796,0.0018197515,-0.021423366,49.0,8.241192,-0.327412,5.305275,0.028356327,0.052768845,-0.0070957323,-0.4638642,-0.11972277,-0.8405391,2016-12-07 14:52:19,49.83835172514767
8.234314,-0.3432312,5.2530975,0.015760966,0.018567873,0.020146513,49.0,8.225759,-0.27999702,5.3318744,-0.04022508,0.025239993,0.09254338,-0.4583176,-0.12938139,-0.83715916,2016-12-07 14:52:20,48.0050476095558
8.20816,-0.3432312,5.3054047,0.01886187,-0.003663387,0.010820965,49.0,8.214683,-0.3419042,5.3453255,0.0016127608,-0.0013955005,0.047010317,-0.45995522,-0.12641259,-0.83707607,2016-12-07 14:52:21,56.887288001751685
8.20816,-0.3530426,5.3642426,-0.014295083,7.9285406E-4,-0.0077753537,49.0,8.228797,-0.34604937,5.3233004,0.0021073963,0.021699999,-0.015875718,-0.46347085,-0.1173802,-0.84158146,2016-12-07 14:52:22,54.00989931987147
8.247391,-0.38246155,5.325012,0.0015907267,-7.518908E-4,6.2258437E-4,49.0,8.225258,-0.360055,5.327841,-0.015052712,-0.005925961,0.002284883,-0.45977262,-0.1301851,-0.8339315,2016-12-07 14:52:23,50.177796459215
8.20816,-0.37265015,5.2955933,0.0428418,-0.0018989192,0.027588889,49.0,8.229231,-0.37085855,5.3209596,0.02978121,-0.030349884,0.049885023,-0.4620409,-0.12340614,-0.83743095,2016-12-07 14:52:24,49.23924003790867
8.178741,-0.3334198,5.4230804,-0.004977847,0.0013149506,-0.002762048,49.0,8.232726,-0.36486322,5.3159657,0.019656563,0.0028861612,-0.10493296,-0.46387753,-0.11720724,-0.8409909,2016-12-07 14:52:25,51.77115708628497
8.267014,-0.37265015,5.2759857,-0.02242857,-9.6676336E-4,-0.016068617,49.0,8.224094,-0.36450005,5.329337,0.03826483,-0.037611723,0.017401606,-0.46268377,-0.11969017,-0.8399207,2016-12-07 14:52:26,57.08036425064791
8.227783,-0.3334198,5.256363,-0.020856326,0.001134468,-0.013530669,50.0,8.232191,-0.35672903,5.3173466,0.03274154,-0.016220352,0.005411062,-0.46315533,-0.119890235,-0.8397886,2016-12-07 14:52:27,55.800255341004686
8.227783,-0.37265015,5.285782,0.010533655,2.3586E-4,0.006659208,50.0,8.23305,-0.34322876,5.3169045,-0.0069855824,0.010785546,0.018157693,-0.4624036,-0.12290399,-0.8385116,2016-12-07 14:52:28,47.81719346456757
8.217972,-0.43148804,5.3054047,0.031046115,-8.072384E-4,0.02107639,50.0,8.236589,-0.3636789,5.3100576,0.010293405,0.046216536,0.02484026,-0.46271235,-0.123179644,-0.83759594,2016-12-07 14:52:29,51.05814715684577
8.168945,-0.36283875,5.315201,-0.011764793,6.9282856E-4,-0.009685017,50.0,8.229005,-0.36425498,5.321767,-0.038545813,-0.010125945,-0.0037891567,-0.46365485,-0.116997406,-0.84125775,2016-12-07 14:52:30,58.22917198624552
8.247391,-0.37265015,5.3348236,-0.014598436,0.0019228586,-0.008705915,50.0,8.221963,-0.35903686,5.3329926,-0.004726886,-0.0049078017,0.0074365735,-0.4634949,-0.115042314,-0.8426704,2016-12-07 14:52:31,48.81578647766411
8.227783,-0.3334198,5.3054047,-0.008542656,0.0011774334,-0.0052298275,49.0,8.224674,-0.37026313,5.32804,-0.05649651,-0.016134104,0.02972468,-0.4630843,-0.11782078,-0.84071964,2016-12-07 14:52:32,44.855386579159045
8.198364,-0.38246155,5.2955933,-0.020420644,0.0025748252,-0.01340507,49.0,8.231364,-0.3612647,5.3183203,0.01829486,-0.020756036,-0.0072358097,-0.46251643,-0.1216759,-0.838724,2016-12-07 14:52:33,45.203930179984184
8.110107,-0.30400085,5.325012,0.0136318365,-0.0016467882,0.007978604,49.0,8.226803,-0.35033464,5.3261027,-0.013507288,-0.009825969,0.014167356,-0.4632501,-0.11777303,-0.8413228,2016-12-07 14:52:34,52.66774176830364
8.198364,-0.3432312,5.3054047,-0.055430364,0.0026717442,-0.034758884,51.0,8.220314,-0.34866226,5.336223,-0.0063762246,-0.0081535615,0.05152854,-0.46207798,-0.12003479,-0.8403103,2016-12-07 14:52:35,47.09533928108396
8.227783,-0.3432312,5.3642426,0.03684115,-0.0013558988,0.024396013,51.0,8.22793,-0.3498071,5.3243976,0.04210054,0.0043219286,0.039703015,-0.46122822,-0.12571773,-0.8368471,2016-12-07 14:52:36,51.891013180115735
8.227783,-0.3530426,5.4230804,0.015647795,0.0028562883,0.009905265,48.0,8.211433,-0.35360292,5.3495526,0.01198431,0.0141464695,-0.071345545,-0.45911586,-0.12780143,-0.83601063,2016-12-07 14:52:37,49.826499163171135
8.20816,-0.3432312,5.3184814,-0.011475277,-0.0024603494,-0.010026372,52.0,8.236989,-0.35509554,5.310021,0.023919571,-0.01458686,-0.00191453,-0.46552584,-0.112987824,-0.8434329,2016-12-07 14:52:38,51.59322664583434
8.168945,-0.35630798,5.331543,-0.004288532,1.4617904E-4,-0.0025821198,54.0,8.227085,-0.34298727,5.3261447,0.04128086,-0.0022794018,5.6488195E-4,-0.46118608,-0.12550536,-0.83721256,2016-12-07 14:52:39,50.78396840127781
8.227783,-0.37265015,5.3348236,0.004733375,8.8028767E-4,0.004150575,54.0,8.212264,-0.3514672,5.3484206,-0.028046245,-0.010958512,0.009244279,-0.46053267,-0.12326426,-0.8386412,2016-12-07 14:52:40,45.15337457943643
8.335648,-0.4216919,5.325012,-0.008250932,-0.001317443,-0.005395758,54.0,8.22359,-0.3634928,5.3301826,-0.046264622,-0.010287169,0.021734864,-0.46206424,-0.12117278,-0.8391153,2016-12-07 14:52:41,47.03024502443894
8.188553,-0.4020691,5.354431,0.013118342,9.417218E-4,0.0085001495,52.0,8.2295475,-0.3701734,5.320519,0.002857247,0.011196349,-0.005036968,-0.46251908,-0.12150829,-0.83853495,2016-12-07 14:52:42,42.0628362490648
8.2964325,-0.4216919,5.560364,-1.9927726E-4,0.0026263536,-1.7110516E-4,52.0,8.211344,-0.36709976,5.348781,-0.05402832,0.01422373,-0.11632744,-0.46075562,-0.122814335,-0.8383768,2016-12-07 14:52:43,44.600689122088006
8.168945,-0.36938477,5.3707733,0.00865705,-4.5341623E-4,0.0041001043,52.0,8.216797,-0.35537255,5.3411937,0.04458868,0.02599717,-0.011602734,-0.463435,-0.11360468,-0.8437338,2016-12-07 14:52:44,50.42846074716057
8.257202,-0.38246155,5.315201,0.019619007,-0.0022829364,0.014409636,53.0,8.220228,-0.34694633,5.336465,-0.033702545,0.007182709,0.024529759,-0.4619732,-0.120539285,-0.84006715,2016-12-07 14:52:45,46.2495246945042
8.198364,-0.38246155,5.285782,0.019672673,-1.20129174E-4,0.012280496,53.0,8.22456,-0.36485308,5.328591,0.038731202,0.030137014,0.0030351493,-0.46191984,-0.12219213,-0.83846635,2016-12-07 14:52:46,49.07418236153638
8.051254,-0.19940186,5.1484985,0.018196292,-0.0018170179,0.010188505,53.0,8.228638,-0.35163987,5.323182,0.08392592,-0.091193885,0.10630048,-0.46305642,-0.11910351,-0.8405116,2016-12-07 14:52:47,48.85111544402706
8.221237,-0.35630798,5.3576965,-0.010220612,-3.7435314E-4,-0.006068274,53.0,8.226873,-0.32829487,5.327398,-2.2279377E-4,0.012844752,-0.024731355,-0.46154252,-0.12385727,-0.8386691,2016-12-07 14:52:48,52.27369365597352
8.217972,-0.3530426,5.3348236,-0.0124429725,-9.109E-5,-0.004703157,56.0,8.223635,-0.36855567,5.3297644,0.010565246,-8.062765E-4,-0.009412205,-0.46275127,-0.11890208,-0.84014595,2016-12-07 14:52:49,51.90029746886496
8.178741,-0.38246155,5.3642426,-0.022651725,0.0010314493,-0.014695682,55.0,8.227716,-0.36442548,5.323745,0.05550807,-0.01029647,-0.0018110307,-0.46353886,-0.11691134,-0.8413221,2016-12-07 14:52:50,53.51485346456654
8.20816,-0.36283875,5.38385,-0.01974004,-0.001587423,-0.012824224,54.0,8.225923,-0.3516017,5.327378,0.012853039,-0.011093005,-0.02541844,-0.46163335,-0.12371323,-0.8379713,2016-12-07 14:52:51,55.007967852501295
8.767151,-0.029418945,5.4524994,-0.019031424,-0.0014994175,-0.01373765,54.0,8.229455,-0.35800081,5.321495,-0.2832623,-0.16731595,-0.004060998,-0.46178374,-0.12478484,-0.837075,2016-12-07 14:52:52,48.85900207457895
8.247391,-0.36938477,5.331543,0.017405808,0.003935227,0.017919501,52.0,8.246829,-0.32945454,5.2963834,-0.007101967,0.011054167,-0.04279303,-0.46401003,-0.12060285,-0.8397779,2016-12-07 14:52:53,52.32205141786619
8.234314,-0.36938477,5.292328,-0.012031671,-3.6119178E-4,-0.00662628,51.0,8.227014,-0.34060913,5.326408,3.233835E-4,0.02714026,0.041713145,-0.46283883,-0.1193291,-0.84074354,2016-12-07 14:52:54,53.43870565526501
8.20816,-0.4118805,5.315201,0.015900511,0.0013143104,0.011463287,55.0,8.226845,-0.36203766,5.3252554,0.041015666,0.0057117403,-0.041161563,-0.4623547,-0.121088535,-0.83910745,2016-12-07 14:52:55,52.0123636805654
8.188553,-0.36283875,5.3348236,-0.0052320585,-0.0033595555,-0.0056920694,56.0,8.21064,-0.36875385,5.3497486,-0.016050296,-0.0010044684,-0.0030480349,-0.46317783,-0.11363006,-0.8434647,2016-12-07 14:52:56,49.202841124991195
8.198364,-0.38246155,5.3348236,-0.015400484,0.0010994098,-0.0096197035,58.0,8.220625,-0.35771722,5.3351445,-0.0060644797,0.010032162,-0.004031902,-0.46322545,-0.11571462,-0.8423883,2016-12-07 14:52:57,54.53036839901654
8.247391,-0.37265015,5.354431,-0.0034864277,-1.3645814E-4,-0.0027079564,57.0,8.224873,-0.3620148,5.328304,-0.042678308,-0.007885772,-0.010872003,-0.46326312,-0.11715929,-0.8413489,2016-12-07 14:52:58,49.32156553004368
8.20816,-0.36283875,5.354431,0.045939695,-0.001160463,0.030360667,56.0,8.229239,-0.37181625,5.32088,0.016170006,-0.031307563,-0.0046757595,-0.46415704,-0.11510235,-0.8420047,2016-12-07 14:52:59,52.30553352386569
8.178741,-0.36283875,5.3054047,0.0026000568,2.6506008E-4,0.0012367347,50.0,8.211913,-0.35953957,5.348421,0.026084328,-0.005410569,0.009244694,-0.45976856,-0.126124,-0.83674204,2016-12-07 14:53:00,53.53540013498704
8.247391,-0.4020691,5.3936615,0.011036207,-6.05301E-4,0.006282072,51.0,8.2299,-0.36174506,5.320551,-0.092055395,0.018913804,-0.018790742,-0.46150404,-0.12548633,-0.8365025,2016-12-07 14:53:01,53.35597155999638
8.20816,-0.35630798,5.279251,0.037075195,-0.0013815416,0.021914622,54.0,8.223989,-0.35884798,5.3298826,0.03815925,-0.01833931,0.072428346,-0.46368206,-0.11502234,-0.84266204,2016-12-07 14:53:02,55.62592763680841
8.221237,-0.3432312,5.2400208,-0.031922877,-8.7599E-4,-0.02071957,56.0,8.232382,-0.35789463,5.316973,0.019312397,-0.017385967,0.08675989,-0.46453702,-0.11475059,-0.8425123,2016-12-07 14:53:03,53.26029557403113
8.20816,-0.3530426,5.285782,-0.040149756,0.0036601531,-0.026144298,56.0,8.222448,-0.34316975,5.333288,-0.004241395,0.038199987,0.048593562,-0.46116444,-0.12388209,-0.8383026,2016-12-07 14:53:04,50.964175262242975
8.188553,-0.36283875,5.3446198,0.034952603,5.20975E-5,0.02319903,56.0,8.217764,-0.36280695,5.339206,0.03193516,0.0049424055,-0.01359042,-0.46526647,-0.10612959,-0.847318,2016-12-07 14:53:05,52.898267545038124
8.237579,-0.38246155,5.3446198,0.013490347,-0.0010931714,0.008636323,56.0,8.220246,-0.36169788,5.3354573,-0.033684257,-0.0075688832,0.023521783,-0.46118668,-0.12367946,-0.8378325,2016-12-07 14:53:06,47.65854421698268
8.227783,-0.36283875,5.354431,0.0144865485,-1.9429905E-4,0.010777184,55.0,8.217531,-0.36213496,5.3396106,-0.022424856,0.020454604,-3.034318E-5,-0.4617881,-0.12040931,-0.83973783,2016-12-07 14:53:07,45.841904186921255
8.1493225,-0.3530426,5.2759857,-0.0147498585,-7.053533E-4,-0.009840871,56.0,8.22341,-0.34693164,5.331563,0.051201,-0.033663653,0.033247814,-0.46010306,-0.12869371,-0.8353071,2016-12-07 14:53:08,47.24047668483274
8.247391,-0.33015442,5.2661743,-0.004577086,0.0018620373,-9.3758374E-4,56.0,8.22154,-0.35279915,5.334059,-0.018769544,-0.039531164,0.07660448,-0.46022806,-0.1272627,-0.83600634,2016-12-07 14:53:09,48.14594174162875
8.260468,-0.38246155,5.292328,-0.013530641,-3.360341E-4,-0.006935815,55.0,8.224279,-0.34916097,5.330076,-0.016030345,0.0049680467,0.031760998,-0.4597333,-0.13007964,-0.83436316,2016-12-07 14:53:10,50.62651235515994
8.227783,-0.38246155,5.354431,0.038092818,1.1518756E-4,0.024538472,54.0,8.236184,-0.35522747,5.311259,-0.01774619,-0.0010984335,-0.014297042,-0.46178555,-0.12618338,-0.83616745,2016-12-07 14:53:11,48.79781083164097
8.188553,-0.36283875,5.315201,-0.012846474,0.0036782983,-0.009442227,54.0,8.236157,-0.35159937,5.311543,0.009467073,0.002529681,-3.927987E-4,-0.4641609,-0.11689923,-0.8415124,2016-12-07 14:53:12,46.07008211828927
8.237579,-0.3432312,5.315201,0.004263984,0.0011731677,0.0044891504,54.0,8.232197,-0.3601894,5.317105,-0.008113683,0.034800667,0.018789496,-0.46477517,-0.11323189,-0.8432036,2016-12-07 14:53:13,45.857556816658445
8.227783,-0.39227295,5.2955933,0.027328935,-1.8520076E-4,0.01712476,54.0,8.226845,-0.35158348,5.325955,-0.013465722,0.016165901,0.027639728,-0.4635007,-0.116595425,-0.8419366,2016-12-07 14:53:14,42.69907220159205
8.188553,-0.36283875,5.3348236,-0.01742856,0.0021531372,-0.010200191,54.0,8.224667,-0.36198062,5.3286242,-0.015643781,0.005768789,-0.024172293,-0.46128058,-0.12449912,-0.8372258,2016-12-07 14:53:15,45.744238854354286
8.20816,-0.36283875,5.354431,-0.024543874,9.3303283E-4,-0.017066851,54.0,8.219789,-0.35678706,5.3364944,0.06120012,-0.002658016,-0.016302185,-0.46386498,-0.11286807,-0.843979,2016-12-07 14:53:16,42.69010744193999
8.217972,-0.3530426,5.3446198,0.012505083,4.0522293E-4,0.009636856,53.0,8.216373,-0.3731044,5.3406367,0.003303666,-0.018975347,0.015080561,-0.46224445,-0.11835118,-0.8405725,2016-12-07 14:53:17,46.06076320212999
8.1493225,-0.3432312,5.3446198,0.0014920635,-0.0019834572,-8.979795E-4,50.0,8.217636,-0.33711994,5.341087,0.031807136,0.017009094,0.08363287,-0.46197644,-0.11963727,-0.8410034,2016-12-07 14:53:18,40.06068559402046
8.20816,-0.35630798,5.3054047,0.01657125,-4.924794E-4,0.011213479,51.0,8.228556,-0.33624023,5.3243055,0.028960697,0.018693738,0.02626431,-0.4606345,-0.12783411,-0.8360689,2016-12-07 14:53:19,45.269262605894724
8.227783,-0.37265015,5.315201,-0.011164223,0.0015053102,-0.0049267313,51.0,8.2258215,-0.35007375,5.3276353,0.012752449,0.031295978,-0.025161147,-0.46339008,-0.11666669,-0.841929,2016-12-07 14:53:20,53.72622875490761
8.237579,-0.39227295,5.3054047,0.009236651,-0.00253557,0.005556066,52.0,8.225594,-0.35704303,5.3275266,-0.0010965111,0.024326684,0.029211339,-0.46248484,-0.12056112,-0.8395892,2016-12-07 14:53:21,47.03952099362535
8.27681,-0.37265015,5.3054047,-0.013921138,0.0016186264,-0.009296942,52.0,8.223749,-0.36397937,5.3299026,0.03792066,-0.009850337,-0.009273374,-0.46120638,-0.12454682,-0.837174,2016-12-07 14:53:22,43.661857427608304
8.217972,-0.36283875,5.354431,0.019799476,3.154309E-4,0.01166047,51.0,8.222797,-0.3664837,5.331198,-0.004525706,0.016103761,-0.020538177,-0.46194842,-0.12149622,-0.8388769,2016-12-07 14:53:23,49.297461518721555
8.227783,-0.36283875,5.325012,0.012244397,-0.0012129853,0.008291752,52.0,8.216301,-0.36075288,5.3415947,0.01685169,-0.020244176,0.0024187258,-0.46102026,-0.1230232,-0.8383487,2016-12-07 14:53:24,42.277980913620084
8.237579,-0.3432312,5.315201,-0.022397997,-4.532735E-4,-0.014568046,52.0,8.217187,-0.36348826,5.340047,-0.023123166,0.031501833,8.7080774E-4,-0.46147156,-0.12172541,-0.8389647,2016-12-07 14:53:25,50.49664730023
8.188553,-0.36283875,5.325012,-0.0075813285,0.0021240206,-0.0049395934,52.0,8.219895,-0.35648644,5.336349,0.035081703,-0.0021610684,0.036482897,-0.45892584,-0.13142805,-0.8334619,2016-12-07 14:53:26,51.13475516981684
8.217972,-0.3334198,5.3348236,0.03635901,4.6384873E-4,0.021737661,51.0,8.219143,-0.35939607,5.3373127,0.032167926,-0.017117374,-0.027220743,-0.46198905,-0.1195386,-0.84042734,2016-12-07 14:53:27,51.10472269385841
8.31604,-0.39227295,5.3740387,-0.033395894,-2.471241E-4,-0.019806983,52.0,8.221695,-0.35852495,5.3334403,-0.07193246,0.02121235,-0.021261426,-0.46135393,-0.12398861,-0.8375937,2016-12-07 14:53:28,53.022430126800934
8.234314,-0.38246155,5.331543,0.0,-0.0,0.0,51.0,8.233359,-0.34366098,5.316398,0.020290028,0.02408838,0.018082874,-0.46318924,-0.119982414,-0.8401228,2016-12-07 14:53:29,51.17934628100805
6.220688,-0.016342163,3.7101898,0.025274623,0.006371132,0.011590253,52.0,8.18566,-0.3192702,5.3910503,0.95325553,-0.16944638,-0.5065603,-0.45384446,-0.13480029,-0.8342345,2016-12-07 14:53:30,48.47689108271716
8.20816,-0.36938477,5.3054047,-0.022293191,-0.0021389124,-0.0076532345,51.0,8.231008,-0.29561207,5.3229246,-0.009302471,0.0721373,0.024609566,-0.46167675,-0.12519091,-0.8384295,2016-12-07 14:53:31,67.64116810110045
8.20816,-0.31707764,5.3054047,0.0027300948,-0.0022513536,1.3450779E-4,54.0,8.231545,-0.34145227,5.319349,0.018475257,-0.041804615,0.021033643,-0.46244693,-0.12242199,-0.8388935,2016-12-07 14:53:32,42.68723414338165
8.195084,-0.33015442,5.279251,-0.009676416,-2.5421122E-4,-0.006105505,54.0,8.25533,-0.34507948,5.2821245,0.06950168,-0.018191153,0.011049906,-0.4666384,-0.11373307,-0.8427419,2016-12-07 14:53:33,42.58528386210902
8.257202,-0.38246155,5.315201,0.019083709,3.3674398E-5,0.015732117,53.0,8.242677,-0.3563373,5.301105,-0.011254411,0.0250324,-0.010830438,-0.46444336,-0.11815816,-0.8402872,2016-12-07 14:53:34,42.830796895622534
8.221237,-0.3432312,5.292328,-0.02400829,7.850208E-4,-0.016896354,53.0,8.247878,-0.3569825,5.2929654,0.021187853,-0.016473828,-0.0053499597,-0.46611595,-0.113382384,-0.84282595,2016-12-07 14:53:35,41.15452961219155
8.227783,-0.36283875,5.325012,-0.013604878,3.4951646E-4,-0.009033962,53.0,8.243267,-0.34550723,5.300902,0.0301977,-0.018618893,0.029827349,-0.4646611,-0.11760951,-0.8410787,2016-12-07 14:53:36,31.943009579149646
8.188553,-0.38246155,5.2955933,0.010144455,-0.0018491392,0.0068512214,53.0,8.2422905,-0.35134238,5.3020363,0.04284125,0.016407011,0.0037209885,-0.46356598,-0.12169292,-0.83863825,2016-12-07 14:53:37,43.22765653566663
8.286621,-0.37265015,5.3446198,-0.019367477,2.7526612E-4,-0.013548612,54.0,8.254665,-0.36102587,5.282096,0.027882474,0.019557945,-0.0025072612,-0.46788946,-0.10843992,-0.84499884,2016-12-07 14:53:38,41.86371128639938
8.237579,-0.36283875,5.2759857,-0.014688683,-0.0019797545,-0.011794611,52.0,8.25205,-0.36315972,5.286036,-0.0034225448,-0.039036788,0.003557634,-0.46635872,-0.114216864,-0.8420541,2016-12-07 14:53:39,40.04850213694547
8.217972,-0.38246155,5.285782,0.046359215,-0.0013371978,0.030598372,49.0,8.2464695,-0.36022922,5.2949367,0.00615925,-0.0061002,0.010241862,-0.4650026,-0.11744464,-0.84056824,2016-12-07 14:53:40,39.611904374860345
8.227783,-0.37265015,5.285782,-0.01863547,-9.166481E-4,-0.011012063,45.0,8.256298,-0.36699447,5.2791324,0.056848988,-0.012865458,-0.0055623623,-0.4665407,-0.114984244,-0.8413433,2016-12-07 14:53:41,40.82273606398999
8.237579,-0.36283875,5.285782,0.0023781126,-4.0910676E-5,0.0016440721,57.0,8.237904,-0.34790418,5.3090777,0.038454372,0.019845195,-0.0028576625,-0.46364507,-0.11977345,-0.83996266,2016-12-07 14:53:42,42.73632855828674
8.247391,-0.35630798,5.292328,-0.008332433,-3.6048368E-4,-0.0062547405,57.0,8.243187,-0.35687146,5.3002734,0.0028771986,-0.0027424209,0.015578521,-0.46751693,-0.1058536,-0.8467859,2016-12-07 14:53:43,42.79901914229504
8.27681,-0.36283875,5.315201,0.00972673,3.927846E-4,0.007227372,57.0,8.24151,-0.35448182,5.303043,0.014819942,0.013267582,0.004727717,-0.46696872,-0.10743745,-0.8461142,2016-12-07 14:53:44,37.29330015681883
8.2964325,-0.37265015,5.2955933,0.01651438,-0.0012477257,0.01089247,57.0,8.243054,-0.36840206,5.2996917,0.02970057,0.013148963,-0.01178978,-0.46415168,-0.11977593,-0.83914787,2016-12-07 14:53:45,41.922264880220496
8.247391,-0.3530426,5.3348236,-0.010876822,-1.03247236E-4,-0.009073407,54.0,8.24705,-0.35730255,5.294232,0.0067395116,0.010446809,-0.031324137,-0.46460482,-0.11926771,-0.8396777,2016-12-07 14:53:46,41.21054364108977
8.27681,-0.36283875,5.3054047,-0.016578397,8.521156E-4,-0.010169782,54.0,8.243943,-0.35602787,5.299154,-0.023607826,-0.0018988389,0.028079081,-0.4643693,-0.11908249,-0.8398894,2016-12-07 14:53:47,38.42124730058383
8.257202,-0.36283875,5.2955933,-0.023786789,2.1886849E-4,-0.016287731,56.0,8.245309,-0.37210476,5.2959256,0.032239422,-0.0043553896,0.011230717,-0.46540117,-0.115781106,-0.8411354,2016-12-07 14:53:48,48.912059656179956
8.286621,-0.3530426,5.3054047,0.06505904,-0.0024762591,0.04123866,55.0,8.251904,-0.36067563,5.286434,-0.015647106,-0.0065466193,-0.025501158,-0.46547067,-0.11744539,-0.8404019,2016-12-07 14:53:49,36.57229002029487
8.247391,-0.38246155,5.2955933,0.0013548766,-0.0023501772,0.0010005222,54.0,8.251243,-0.36556435,5.2871313,-0.0435487,0.015805393,0.029677292,-0.46478516,-0.120779485,-0.8383557,2016-12-07 14:53:50,47.2941572615938
8.267014,-0.32362366,5.325012,0.012824059,0.0025535051,0.007987686,56.0,8.262051,-0.35180032,5.271163,0.0353602,0.015949057,-0.054392852,-0.46752566,-0.11122585,-0.84372586,2016-12-07 14:53:51,42.75996382972468
8.20816,-0.33015442,5.292328,0.014919493,-1.2862122E-4,0.0086529525,55.0,8.258193,-0.33867085,5.278065,0.058743566,-0.025402853,-0.006629777,-0.4676075,-0.11043298,-0.8445579,2016-12-07 14:53:52,43.69937766576818
8.20816,-0.33015442,5.2530975,0.0033310212,-6.390945E-4,5.8248464E-4,57.0,8.253421,-0.34223497,5.285292,0.05397179,-0.015346636,0.041458346,-0.46598485,-0.11574599,-0.8418483,2016-12-07 14:53:53,39.6540407759858
8.247391,-0.3432312,5.2465515,-0.00494171,9.88935E-5,-0.0021977194,54.0,8.249396,-0.3516446,5.290954,-0.031774715,-0.02475627,0.033499703,-0.46419314,-0.1215751,-0.8384817,2016-12-07 14:53:54,41.16465985796259
8.227783,-0.36283875,5.315201,-0.0040991106,0.001825871,-0.004654445,56.0,8.245554,-0.35499048,5.2967176,0.005243967,-0.028102126,-0.0015973814,-0.46582845,-0.11362484,-0.8428492,2016-12-07 14:53:55,41.11227987780208
8.247391,-0.37265015,5.315201,0.01935419,-0.0013013833,0.013088718,56.0,8.24266,-0.35959142,5.3009095,0.015969658,-0.019082718,0.0025941343,-0.46390244,-0.12062772,-0.8389545,2016-12-07 14:53:56,47.274333138456996
8.237579,-0.3432312,5.2955933,0.019216722,-0.0016898728,0.011560841,56.0,8.250942,-0.34857652,5.288747,0.010051491,-0.022699298,0.004891487,-0.4645534,-0.1206546,-0.8390689,2016-12-07 14:53:57,41.72647985465961
8.227783,-0.38246155,5.315201,-0.018866487,9.295666E-4,-0.011005233,84.0,8.249114,-0.34919834,5.291557,0.008803679,0.004930689,-0.020378564,-0.46644577,-0.112384066,-0.8434754,2016-12-07 14:53:58,41.79290271663132
8.286621,-0.3432312,5.2759857,0.035291832,-0.0021740757,0.022389306,79.0,8.244531,-0.3514703,5.2985463,-0.009399736,0.01627909,-0.01338924,-0.46276227,-0.12549858,-0.83642423,2016-12-07 14:53:59,40.39833090514943
8.31604,-0.31381226,5.472107,0.008452627,0.0010308202,0.0054845125,57.0,8.252663,-0.35422203,5.285685,0.012352585,-9.300393E-5,9.905179E-4,-0.46370944,-0.12427675,-0.8368058,2016-12-07 14:54:00,37.64766718726833
8.247391,-0.37265015,5.2955933,0.019673245,3.846187E-4,0.0135167455,59.0,8.243852,-0.3790014,5.2977023,-0.010078924,-0.038492717,-0.027853377,-0.46604013,-0.11257814,-0.8426542,2016-12-07 14:54:01,38.15882969765766
8.247391,-0.35630798,5.226944,-0.013228698,-2.9203013E-4,-0.007815988,67.0,8.249827,-0.36187592,5.289592,0.0231373,-0.007746863,0.045757934,-0.46425176,-0.12178035,-0.83799595,2016-12-07 14:54:02,40.96205740450182
8.227783,-0.37265015,5.2955933,0.0062420694,8.68699E-5,0.0050813034,65.0,8.25518,-0.3574498,5.2815356,0.0015553997,0.011291664,0.023671422,-0.46554404,-0.11825977,-0.8399517,2016-12-07 14:54:03,43.22602278676356
8.217972,-0.37265015,5.3054047,0.013028211,0.0012653428,0.007965217,64.0,8.25581,-0.3709736,5.279619,0.042740658,-0.030464893,-0.018695971,-0.46573162,-0.11724874,-0.8401514,2016-12-07 14:54:04,50.19651745929639
8.195084,-0.35630798,5.213867,0.0035460135,-0.0014102444,0.0014687185,58.0,8.251531,-0.35691887,5.287272,0.06651974,-0.015769804,0.08306591,-0.46545327,-0.11779373,-0.840326,2016-12-07 14:54:05,48.208060366431255
8.20816,-0.36938477,5.3054047,0.012019698,0.0020511723,0.0073992503,57.0,8.252596,-0.34712058,5.2862606,0.03952677,-0.006611904,0.015186139,-0.46581304,-0.115894385,-0.8416557,2016-12-07 14:54:06,45.64749187597428
8.286621,-0.36283875,5.285782,-0.044903006,0.0011225461,-0.02853004,63.0,8.24887,-0.3471357,5.2920737,-0.031906895,-0.006943159,0.033984363,-0.4667899,-0.11111812,-0.8442018,2016-12-07 14:54:07,41.848413737219346
8.267014,-0.39227295,5.3054047,0.009804204,0.0017383503,0.0066086347,63.0,8.248403,-0.3687679,5.291339,-0.005528278,-0.04187954,-0.020596785,-0.46518648,-0.11732581,-0.84032404,2016-12-07 14:54:08,40.96277726872224
8.237579,-0.36283875,5.256363,-0.007077314,0.0021527032,-0.003954938,51.0,8.247698,-0.36445478,5.292734,0.0083788745,0.045662407,0.047459643,-0.46510977,-0.11769396,-0.84028244,2016-12-07 14:54:09,42.35322718509413
8.237579,-0.4020691,5.2759857,8.115186E-4,0.0012087051,8.167973E-4,54.0,8.239416,-0.37106,5.3051596,0.012726678,-0.003310628,0.034084953,-0.46238503,-0.12523608,-0.83607316,2016-12-07 14:54:10,46.695948516535736
8.247391,-0.4118805,5.2759857,0.0057637016,-0.0010618764,0.002461541,52.0,8.251597,-0.36611897,5.286538,0.010692438,0.02806087,0.029956203,-0.46458325,-0.12083526,-0.83836627,2016-12-07 14:54:11,46.447967224010185
8.335648,-0.43148804,5.2171326,0.00968747,0.016545216,0.0062665856,59.0,8.221888,-0.36741588,5.3325377,0.36294684,0.0820556,-0.0338792,-0.4626221,-0.12047205,-0.83926266,2016-12-07 14:54:12,43.21663058975154
8.247391,-0.35630798,5.292328,0.006077172,-0.00687141,-9.197105E-4,64.0,8.234307,-0.36954677,5.313191,-0.006002962,-0.029038088,0.04211675,-0.46450192,-0.11720312,-0.84081584,2016-12-07 14:54:13,45.70677176836714
8.365067,-0.37265015,5.3446198,0.018606596,5.4454105E-4,0.013526892,56.0,8.242936,-0.36774343,5.2999196,-0.17443839,5.949134E-6,-0.025636246,-0.46452677,-0.11818106,-0.840032,2016-12-07 14:54:14,39.876000768889206
8.247391,-0.3432312,5.2661743,0.017323248,-7.0382474E-4,0.0099651385,31.0,8.258765,-0.3693334,5.275109,0.045695998,-0.028824724,0.017654743,-0.4660056,-0.117865875,-0.8397253,2016-12-07 14:54:15,43.52804360403116
8.247391,-0.4020691,5.2661743,0.003958184,-5.198364E-4,0.005016598,34.0,8.250066,-0.3545247,5.289719,0.023375887,0.01322469,0.032265194,-0.46402827,-0.12244505,-0.83785224,2016-12-07 14:54:16,41.91971853074966
8.267014,-0.36283875,5.2465515,-0.027993258,7.9966715E-4,-0.019002734,34.0,8.25346,-0.37202546,5.283217,-4.7052713E-4,-0.0042760763,0.012142675,-0.46449503,-0.12264924,-0.83710355,2016-12-07 14:54:17,39.03843241456782
8.267014,-0.3432312,5.2955933,-0.026320094,0.0033087786,-0.017251968,34.0,8.253847,-0.34664086,5.28434,0.013537215,-0.0061321543,-3.5497363E-4,-0.46328455,-0.12606302,-0.8360166,2016-12-07 14:54:18,43.63444739619731
8.267014,-0.4020691,5.285782,-0.034658626,0.0011831552,-0.02122877,34.0,8.245885,-0.35822675,5.295983,0.019195179,0.009522641,0.024908425,-0.46501586,-0.117290735,-0.84071994,2016-12-07 14:54:19,40.87060617924409
8.247391,-0.3530426,5.2661743,0.022903766,-0.0010153386,0.014566331,33.0,8.258443,-0.3647291,5.2759347,0.018132754,-0.024220405,0.018480243,-0.46577126,-0.118576884,-0.8394479,2016-12-07 14:54:20,42.715430232316194
8.257202,-0.3530426,5.2661743,-0.060702246,0.004930695,-0.038513567,42.0,8.251501,-0.36882564,5.286501,0.038431093,-0.028316969,0.0018060427,-0.4649752,-0.119189866,-0.8392098,2016-12-07 14:54:21,42.5699335093862
8.227783,-0.3432312,5.2661743,0.0033959253,-1.2256428E-4,9.963792E-4,62.0,8.241739,-0.35593665,5.302587,0.028669734,-0.029048298,0.03151243,-0.46262768,-0.1250717,-0.8366505,2016-12-07 14:54:22,40.87797162473188
8.247391,-0.37265015,5.256363,0.021149553,-2.036738E-5,0.0131961545,54.0,8.244684,-0.3506958,5.298357,0.0043735746,0.0034332478,0.013662329,-0.46583423,-0.11329183,-0.8431546,2016-12-07 14:54:23,43.30679376161234
8.217972,-0.38246155,5.2955933,-0.024407757,0.0015306345,-0.015958248,56.0,8.25067,-0.37187997,5.287583,-0.0032604374,0.009489778,0.0028884215,-0.4659413,-0.11528963,-0.8412414,2016-12-07 14:54:24,45.720337761414626
8.217972,-0.3432312,5.2955933,0.009425101,2.9457035E-4,0.0074825822,54.0,8.242575,-0.37709615,5.2998257,0.015884863,-0.022967087,0.015130856,-0.46491325,-0.116618514,-0.84056586,2016-12-07 14:54:25,38.90596699257592
8.198364,-0.37265015,5.256363,0.028802099,-2.388642E-4,0.016677098,56.0,8.242762,-0.3746532,5.2997093,0.029691426,-0.0069038016,0.015014471,-0.46370745,-0.12116616,-0.838291,2016-12-07 14:54:26,42.02396012862903
8.247391,-0.4216919,5.285782,-0.0116401,0.0018357184,-0.0066081164,53.0,8.247878,-0.3675991,5.2922387,-0.006052841,1.5028707E-4,0.0075438134,-0.46473712,-0.11898639,-0.83945405,2016-12-07 14:54:27,40.651246746281885
8.384689,-0.44129944,5.432892,-0.011602812,-0.002928827,-0.006803862,54.0,8.244099,-0.37231648,5.2977924,-0.44568315,0.104395665,-0.15034631,-0.46567655,-0.115246475,-0.84132314,2016-12-07 14:54:28,25.02262065825469
8.247391,-0.3432312,5.2661743,0.009203513,-0.011155405,-0.011679256,52.0,8.213441,-0.4487877,5.339323,0.00798566,-0.077031024,0.07159453,-0.46315172,-0.11842938,-0.8386406,2016-12-07 14:54:29,50.52956008669063
8.217972,-0.39227295,5.226944,-0.007102293,9.3334634E-4,-0.0012780656,51.0,8.250599,-0.37491468,5.2874827,0.010288416,-0.0071653035,0.0027878317,-0.46433097,-0.121636,-0.8376299,2016-12-07 14:54:30,43.39634015306987
8.267014,-0.38246155,5.2465515,-0.008341386,-0.0033004018,-0.007300012,53.0,8.259028,-0.34591654,5.276284,-0.049383737,-0.0054078405,0.22313544,-0.4652661,-0.12227092,-0.837917,2016-12-07 14:54:31,50.052147265089395
8.521973,-0.2386322,5.122345,-0.013756102,4.0699344E-4,-0.008184205,61.0,8.269131,-0.35305673,5.2599645,-0.16287388,-0.053371426,0.07220098,-0.46715325,-0.1169128,-0.84035754,2016-12-07 14:54:33,43.23467775430239
8.195084,-0.35630798,5.292328,0.0033392922,0.0026047858,0.0041945823,61.0,8.267893,-0.3338432,5.263163,0.06844341,0.020285847,-0.021531604,-0.4661925,-0.11880686,-0.83999556,2016-12-07 14:54:34,47.654059494561494
8.221237,-0.3432312,5.279251,-0.001706877,0.002073392,-0.0010712999,57.0,8.241384,-0.35303292,5.3033347,0.0010732342,-0.012524226,0.018639857,-0.4639291,-0.119558245,-0.8398383,2016-12-07 14:54:35,49.71474062486691
8.103561,-0.39553833,5.462311,0.0136416145,0.0022803834,0.008153326,57.0,8.2461195,-0.34240845,5.296665,0.15563309,0.038961295,-0.16509435,-0.46189347,-0.12846789,-0.83500683,2016-12-07 14:54:36,44.6273475751716
8.237579,-0.36283875,5.285782,-0.009499079,-0.008573417,-0.005900565,56.0,8.218143,-0.37971246,5.3374476,-0.035787497,-0.025583431,0.052753076,-0.46122,-0.1240425,-0.836985,2016-12-07 14:54:37,47.98561582354328
8.188553,-0.3530426,5.2661743,0.015745847,-0.0016027403,0.0078047924,51.0,8.248086,-0.36571404,5.292043,0.04863721,-0.011585016,0.03458915,-0.46311426,-0.1254067,-0.83592594,2016-12-07 14:54:38,49.313795058424475
8.267014,-0.38246155,5.2955933,-0.020139813,5.937041E-4,-0.0131786205,46.0,8.245792,-0.36766365,5.2954836,-0.008138623,8.572988E-5,0.024408804,-0.4634929,-0.1232384,-0.8371442,2016-12-07 14:54:39,41.45524321768106
8.267014,-0.38246155,5.3054047,0.0030183233,4.0333226E-4,0.0019909353,45.0,8.248117,-0.35650316,5.292625,0.021617645,0.011581042,0.04851625,-0.46633196,-0.112650044,-0.8431901,2016-12-07 14:54:40,38.187822931095766
8.257202,-0.36283875,5.2759857,0.018458221,-0.0026896957,0.011791519,50.0,8.241915,-0.3646147,5.301725,-0.025636246,-0.024105994,0.030650353,-0.4635999,-0.12167032,-0.8382271,2016-12-07 14:54:41,43.835818923833536
8.257202,-0.3530426,5.2955933,-0.02457586,-3.450139E-4,-0.016545001,52.0,8.255392,-0.3584774,5.2811356,0.0014614607,-0.017968722,-0.0035592967,-0.46592262,-0.1169935,-0.84059405,2016-12-07 14:54:42,36.75511406770643
8.267014,-0.39227295,5.3446198,-0.0037184975,0.0010764062,-5.8388733E-4,52.0,8.248353,-0.35949394,5.2920537,-0.005577326,0.008255449,-0.0062615024,-0.4664333,-0.1122573,-0.8432723,2016-12-07 14:54:43,38.84485599273442
8.267014,-0.3432312,5.2759857,8.066661E-4,0.0018188602,-4.7018184E-4,52.0,8.235122,-0.37671745,5.311427,-0.018808614,-0.02258842,0.040352687,-0.4642877,-0.116277866,-0.84114057,2016-12-07 14:54:44,37.596779151695536
8.237579,-0.3432312,5.2759857,0.010122131,0.0010199844,0.0058688754,52.0,8.249617,-0.3486799,5.290806,0.022229496,-0.020919468,0.020876525,-0.46512163,-0.11756364,-0.8408589,2016-12-07 14:54:45,47.75227814585
8.20816,-0.38246155,5.2759857,-0.020491032,4.2835515E-4,-0.013804355,47.0,8.253466,-0.3549887,5.284382,0.040396336,0.012760684,-0.013933339,-0.46528843,-0.11867643,-0.8398639,2016-12-07 14:54:46,43.63792624175862
8.217972,-0.37265015,5.2759857,0.016239118,-8.515131E-4,0.00945933,48.0,8.248358,-0.3594732,5.2920456,0.008138623,-0.0042880788,0.020902297,-0.46592832,-0.114427365,-0.8421681,2016-12-07 14:54:47,47.05564354874329
8.267014,-0.3334198,5.3054047,-0.00886945,6.937725E-4,-0.0060414798,51.0,8.245173,-0.35077384,5.297591,0.03207648,0.0031084614,-6.974775E-4,-0.46633172,-0.11148469,-0.8440576,2016-12-07 14:54:48,42.55546667471016
8.227783,-0.3334198,5.2759857,-0.0028432633,-0.0017481233,-8.169267E-5,52.0,8.24989,-0.35424584,5.2900105,0.06406152,0.013503548,0.07341761,-0.46574372,-0.11622983,-0.8411789,2016-12-07 14:54:49,39.02718755406708
8.227783,-0.3432312,5.2759857,-0.019420657,0.0013310724,-0.011717846,52.0,8.249309,-0.36269653,5.290345,0.022619387,-0.022187855,0.01927083,-0.46477643,-0.119290784,-0.83940184,2016-12-07 14:54:50,44.28190596474284
8.198364,-0.37265015,5.2955933,0.0132402,-5.8367E-4,0.008173128,52.0,8.248466,-0.35515335,5.2921696,0.03543834,0.026558205,-0.0061879302,-0.465367,-0.11665289,-0.8411159,2016-12-07 14:54:51,33.530719104832365
8.267014,-0.3530426,5.285782,-0.01425535,3.2755206E-4,-0.008878746,52.0,8.243631,-0.37252724,5.2985063,-0.01005731,-0.031770326,-1.6875796E-4,-0.4658966,-0.113233484,-0.8425362,2016-12-07 14:54:52,40.88158763007604
8.237579,-0.39227295,5.325012,-0.016436296,0.0010851459,-0.010240981,52.0,8.250645,-0.3584435,5.2885523,0.023954486,-0.0043144473,-0.023382954,-0.46327642,-0.12539424,-0.8360765,2016-12-07 14:54:53,37.903086260943425
8.217972,-0.36283875,5.2955933,0.033033047,-4.9033744E-4,0.0226975,51.0,8.246319,-0.37305015,5.2942843,0.020345727,0.009698881,0.008570079,-0.4635683,-0.123063505,-0.83703756,2016-12-07 14:54:54,39.56329839682325
8.237579,-0.38246155,5.285782,-0.027771268,-0.0013375264,-0.018218791,50.0,8.237367,-0.37116995,5.308334,-0.01656322,-0.030661264,0.010018653,-0.46578628,-0.11157277,-0.8436335,2016-12-07 14:54:55,43.73618000789159
8.237579,-0.37265015,5.3054047,-0.04794764,0.0029694014,-0.030022835,51.0,8.247674,-0.36222187,5.2929254,0.02155114,0.0062830388,0.0073987483,-0.46463588,-0.119287394,-0.83946747,2016-12-07 14:54:56,41.10535770829492
8.217972,-0.38246155,5.2367554,0.05227079,-0.003169379,0.034377545,49.0,8.257018,-0.3834259,5.2768407,0.05756891,-0.015676513,-0.007854312,-0.466253,-0.11651956,-0.8399885,2016-12-07 14:54:57,40.40321586247059
8.234314,-0.36938477,5.2661743,-0.009317876,8.985504E-4,-0.00653054,49.0,8.251255,-0.3629085,5.287295,0.024564676,-0.008779467,0.02984065,-0.46510458,-0.11867907,-0.8396864,2016-12-07 14:54:58,41.49220011017741
8.335648,-0.43148804,5.325012,-0.002075658,3.7891467E-4,6.5174577E-4,50.0,8.251323,-0.36137718,5.287294,0.024632843,0.019992571,-0.011021226,-0.46374342,-0.12393131,-0.83676505,2016-12-07 14:54:59,46.284996184585594
8.195084,-0.35630798,5.292328,-0.015216359,-0.0022341015,-0.012533765,50.0,8.22985,-0.37884068,5.3194385,0.044021722,-0.011091316,0.061984472,-0.46204886,-0.12388815,-0.8368826,2016-12-07 14:55:00,46.54764070839799
8.221237,-0.38246155,5.2400208,-0.029078081,5.822587E-4,-0.018150792,51.0,8.24726,-0.35060593,5.2943516,0.020570183,0.030763803,0.009656614,-0.46510634,-0.11727993,-0.84092414,2016-12-07 14:55:01,48.71989433247382
8.257202,-0.3530426,5.3054047,0.0060999272,0.0027167154,0.0038246003,45.0,8.256018,-0.36321902,5.2798324,0.02932814,-0.036330685,-0.045723435,-0.46784157,-0.10891564,-0.84466594,2016-12-07 14:55:02,50.49119891406215
8.20816,-0.37265015,5.2759857,0.024245411,7.461296E-4,0.015195678,44.0,8.24786,-0.34959128,5.2934856,0.048410263,-0.009082613,-0.045690183,-0.46366906,-0.12270513,-0.8380075,2016-12-07 14:55:03,43.48864938006329
8.257202,-0.32362366,5.3740387,-0.039854802,-4.2664996E-4,-0.02332499,46.0,8.238743,-0.3627465,5.30678,0.025673658,-0.035858158,-0.05963682,-0.4622998,-0.12544298,-0.83622,2016-12-07 14:55:04,42.39191517873042
8.247391,-0.36938477,5.3054047,0.0,0.0,0.0,48.0,8.246064,-0.3603624,5.2955585,0.019374745,-0.01985374,0.010863691,-0.46517196,-0.116693504,-0.8409935,2016-12-07 14:55:05,43.033036724140445
8.227783,-0.36283875,5.256363,-0.017142603,0.0011501737,-0.009267797,47.0,8.248619,-0.3575659,5.2917686,0.008851896,0.011566545,-0.020919753,-0.46740156,-0.10841146,-0.84531426,2016-12-07 14:55:06,41.3703864268308
8.247391,-0.38246155,5.325012,-0.010288055,-2.3519393E-4,-0.0083464235,50.0,8.250816,-0.36083242,5.288121,0.037746917,0.034157667,0.0034262857,-0.46577823,-0.11604283,-0.8412185,2016-12-07 14:55:07,44.660831193843364
8.227783,-0.37265015,5.285782,0.024276614,-5.969144E-4,0.015176261,50.0,8.242774,-0.34782574,5.301517,0.029969089,0.005800925,0.016378252,-0.4623397,-0.1262155,-0.83619773,2016-12-07 14:55:08,43.54361743744698
8.335648,-0.37265015,5.285782,-0.0061865607,-0.0073266015,-0.004677543,52.0,8.274307,-0.35789567,5.25149,-0.12944733,0.023474064,-0.046825346,-0.46882328,-0.11240882,-0.8423528,2016-12-07 14:55:09,45.316703954982394
8.234314,-0.33015442,5.292328,0.004590943,0.0016293734,0.001430128,52.0,8.259848,-0.3506402,5.2746916,0.019537684,-0.02375188,-0.02362362,-0.46466592,-0.122943275,-0.83748746,2016-12-07 14:55:10,43.61843711096151
8.42392,-0.50994873,6.3056793,-0.005023896,-3.9261107E-5,-0.0026088061,51.0,8.251794,-0.3444103,5.287689,-0.17920099,0.13230187,-1.1819758,-0.46340507,-0.124895565,-0.83679724,2016-12-07 14:55:11,45.477084694033856
8.273544,-0.33015442,5.2530975,-0.04159949,-0.011550151,-0.02814235,47.0,8.214586,-0.35234433,5.344795,-0.03065825,-0.024360562,0.08765896,-0.45968,-0.13102576,-0.8337013,2016-12-07 14:55:12,47.13548921116963
8.217972,-0.3432312,5.2955933,-0.02062731,0.0021510934,-0.012430353,42.0,8.250583,-0.3424632,5.289706,0.037513316,0.025286185,0.045872655,-0.46533963,-0.116989605,-0.84125394,2016-12-07 14:55:13,44.738255147829435
8.31604,-0.43148804,5.3054047,0.007891285,-4.3738828E-4,0.004597514,48.0,8.240026,-0.35157025,5.305539,-2.8348013E-4,0.04341982,0.02084452,-0.46255198,-0.12468274,-0.8370265,2016-12-07 14:55:14,49.61963524399102
8.195084,-0.35630798,5.2400208,-0.023094159,2.9502148E-4,-0.016062692,50.0,8.238477,-0.36234757,5.3072214,0.053194508,-0.007241577,0.07622623,-0.46274194,-0.123686686,-0.8372881,2016-12-07 14:55:15,44.66973062306673
8.217972,-0.3530426,5.2661743,0.007875583,-9.2815544E-4,0.007683211,52.0,8.250496,-0.38520712,5.286902,0.03742603,-0.017457746,0.043068197,-0.4638844,-0.1235686,-0.83618677,2016-12-07 14:55:16,47.50695770877727
8.27681,-0.38246155,5.2661743,-0.013978629,0.0016035849,-0.009250631,52.0,8.250057,-0.36947602,5.2887087,-0.017014626,0.011837971,0.016881615,-0.4636889,-0.12394155,-0.8365483,2016-12-07 14:55:17,45.96543057418539
8.198364,-0.37265015,5.2759857,0.025967969,6.082815E-4,0.015761003,52.0,8.250724,-0.36321175,5.288103,0.037654642,-0.009082691,0.0034079966,-0.46479413,-0.119589895,-0.8392078,2016-12-07 14:55:18,47.846648615564725
8.27681,-0.37265015,5.226944,0.011484745,2.2420492E-4,0.007944788,52.0,8.256147,-0.35399878,5.2802553,0.0022171305,0.013750604,0.02280103,-0.46484885,-0.121167056,-0.8384392,2016-12-07 14:55:19,48.696754954503554
8.237579,-0.36283875,5.3054047,-0.030347597,0.0022580177,-0.017403949,53.0,8.249695,-0.36730054,5.2894244,0.009384772,0.027689528,0.018350143,-0.46482083,-0.11932448,-0.83919746,2016-12-07 14:55:20,42.51836314517345
8.237579,-0.37265015,5.3348236,0.011777363,-5.0555076E-4,0.0073496485,51.0,8.25737,-0.36777085,5.277402,0.01738124,-0.027504873,-0.03505344,-0.46387652,-0.12555353,-0.83546233,2016-12-07 14:55:21,40.28582943514916
8.20816,-0.37265015,5.285782,-0.008940434,-5.5082997E-5,-0.0043581333,51.0,8.247915,-0.36725846,5.292203,0.034845613,-0.026749775,-0.019732628,-0.46494237,-0.118365474,-0.8397576,2016-12-07 14:55:22,46.61965052172192
8.20816,-0.3432312,5.2759857,-0.020715835,-0.0020121562,-0.012386005,51.0,8.249069,-0.3779837,5.2896504,0.008758788,-0.037474997,0.0049554985,-0.4664289,-0.113197036,-0.8421655,2016-12-07 14:55:23,45.914175134647564
8.267014,-0.37265015,5.2171326,0.041257348,-5.7537673E-4,0.027789455,51.0,8.252929,-0.3661683,5.2844586,0.026238956,0.01520144,0.040624533,-0.46518496,-0.11891434,-0.8393754,2016-12-07 14:55:24,43.66108213194376
8.20816,-0.36283875,5.285782,0.02841009,0.001091548,0.017101208,50.0,8.246369,-0.37379056,5.2941546,0.0073663266,-0.02092721,0.007333905,-0.4635598,-0.123441614,-0.83676463,2016-12-07 14:55:25,46.4212995250191
8.247391,-0.36283875,5.256363,-0.0034091412,-6.5797544E-4,-0.002729772,51.0,8.251419,-0.3583834,5.287347,-0.002511418,-0.0042543584,0.043512955,-0.46463796,-0.12064124,-0.83873177,2016-12-07 14:55:26,47.99679135534869
8.237579,-0.4118805,5.285782,-0.0075237546,7.069611E-4,-0.004258413,51.0,8.247077,-0.35813522,5.294135,-0.006853402,0.03685486,0.0094404705,-0.46435237,-0.12020404,-0.8391056,2016-12-07 14:55:27,46.927061875616744
8.20816,-0.3530426,5.2661743,0.019964341,3.224066E-4,0.012674823,51.0,8.248001,-0.38515842,5.290796,0.061343104,-0.030575847,0.021047777,-0.4631864,-0.12518014,-0.8353946,2016-12-07 14:55:28,44.520081939092336
8.237579,-0.4118805,5.2759857,-0.020264126,-0.0015080351,-0.0140246125,51.0,8.253226,-0.3528648,5.2848973,0.05377726,0.014884578,0.05468423,-0.46308914,-0.12745172,-0.8349713,2016-12-07 14:55:29,50.944372726754274
8.247391,-0.36283875,5.2465515,-0.021024879,0.0011208036,-0.013189411,54.0,8.25069,-0.36690944,5.2879,0.010379862,-0.012780403,0.044066194,-0.46628824,-0.11391089,-0.8421137,2016-12-07 14:55:30,53.186678552755644
8.237579,-0.3432312,5.285782,0.016987137,2.3444113E-4,0.012173788,56.0,8.25105,-0.3629299,5.2876105,-0.015898164,0.019817501,-0.011548282,-0.46443674,-0.12118104,-0.83828455,2016-12-07 14:55:31,50.55554775448476
8.247391,-0.36283875,5.3054047,-0.014042359,-5.4598175E-4,-0.009788535,57.0,8.247212,-0.35301802,5.294266,-0.020339075,-0.01250934,0.0368121,-0.4640484,-0.12181213,-0.83837545,2016-12-07 14:55:32,50.232224507693104
8.20816,-0.37265015,5.285782,-0.0024261689,3.086386E-4,-0.0015422427,56.0,8.247977,-0.35250995,5.2931094,0.048528306,0.015239446,0.008414621,-0.4640228,-0.121677004,-0.8384534,2016-12-07 14:55:33,45.56537730161395
8.237579,-0.38246155,5.285782,0.021014763,1.9174884E-4,0.014697407,52.0,8.246517,-0.36764956,5.294353,0.04706851,-0.027140858,0.009658276,-0.46402457,-0.121301234,-0.838207,2016-12-07 14:55:34,51.48025210262063
8.237579,-0.37265015,5.2661743,-0.04777518,3.431603E-4,-0.03042833,52.0,8.244112,-0.36643165,5.298181,-0.023439068,-0.012302602,0.040727198,-0.46353137,-0.122631244,-0.8375598,2016-12-07 14:55:35,48.3281839689415
8.2964325,-0.3530426,5.256363,-0.017321493,0.0011589311,-0.011054609,52.0,8.255001,-0.3583847,5.281752,0.041931782,-0.031496353,0.051538933,-0.4641028,-0.123709545,-0.8369095,2016-12-07 14:55:36,49.517663691291915
8.267014,-0.38246155,5.2955933,-0.00552726,7.8606093E-4,-0.003152016,52.0,8.251096,-0.36335725,5.2875137,-0.016455147,-0.022848573,-0.010801757,-0.46528932,-0.1178419,-0.84015274,2016-12-07 14:55:37,45.53497995892726
8.257202,-0.36283875,5.2661743,0.035586987,-0.0014978362,0.02168646,51.0,8.251403,-0.35606325,5.2875295,-0.0025438394,-9.593953E-4,0.030166525,-0.46286488,-0.12713622,-0.83518094,2016-12-07 14:55:38,51.07811888527323
8.286621,-0.3530426,5.3054047,0.013505747,1.3805673E-4,0.009739273,53.0,8.258079,-0.34904674,5.277566,0.03138815,0.018702649,-0.007128985,-0.46570814,-0.1182347,-0.8400991,2016-12-07 14:55:39,49.34172671347282
8.20816,-0.3432312,5.2955933,0.023593526,-6.0504116E-4,0.017438086,52.0,8.244437,-0.36895734,5.2975016,0.05860806,-0.014828308,-8.134467E-4,-0.4654171,-0.115235925,-0.8415291,2016-12-07 14:55:40,49.19107829192994
8.217972,-0.3530426,5.256363,-0.02982735,8.2608414E-5,-0.019432316,52.0,8.252171,-0.36432776,5.285767,-0.015380251,0.0034216354,0.01469275,-0.46539128,-0.118080005,-0.8399136,2016-12-07 14:55:41,46.2889779951093
8.247391,-0.4020691,5.2661743,-0.007254727,4.6153605E-4,-0.0040157908,52.0,8.253433,-0.36500138,5.2837505,0.013122386,0.016368328,0.026296316,-0.46643,-0.11423432,-0.84190726,2016-12-07 14:55:42,45.22868566384133
8.257202,-0.36283875,5.2955933,0.014490305,0.0010210985,0.008097496,54.0,8.241416,-0.36226115,5.302661,0.001106487,-0.008132129,0.017966488,-0.46435863,-0.11822625,-0.84027165,2016-12-07 14:55:43,48.863563151439934
8.237579,-0.3432312,5.2465515,0.018225882,-0.0023059063,0.012140447,54.0,8.25922,-0.35879898,5.2751236,-0.0092318095,0.03659336,0.0054875435,-0.46669754,-0.11522037,-0.84138685,2016-12-07 14:55:44,44.68980829765204
8.188553,-0.43148804,5.3642426,-0.011323848,0.0037479457,-0.0046305573,52.0,8.251229,-0.37852585,5.286239,-0.029941654,0.043704934,-0.025696103,-0.46564445,-0.1165382,-0.84032243,2016-12-07 14:55:45,46.874837570109065
8.267014,-0.37265015,5.3054047,0.05417548,0.008289551,0.032607462,52.0,8.210351,-0.37159,5.349996,-0.12530154,0.009779727,0.1197824,-0.4602437,-0.12283804,-0.8384374,2016-12-07 14:55:46,45.63904222375315
8.247391,-0.3432312,5.2400208,-0.025055703,-0.0022164115,-0.017102754,53.0,8.250693,-0.35033143,5.2890177,-0.0032371604,0.017417973,0.01794321,-0.4638858,-0.12336122,-0.8374857,2016-12-07 14:55:47,54.539582965643746
8.234314,-0.33015442,5.2530975,-0.013239201,9.593818E-4,-0.009335265,53.0,8.266112,-0.37001878,5.2635403,-0.0012087394,0.06534975,-0.0215474,-0.4668801,-0.11690793,-0.8399281,2016-12-07 14:55:48,48.428345961911305
8.27681,-0.4020691,5.2465515,-0.0055651693,6.822723E-4,-0.0026230528,54.0,8.25211,-0.3622576,5.286003,0.0526608,-0.008128569,0.014928846,-0.4647483,-0.12045206,-0.8387005,2016-12-07 14:55:49,50.963969820409176
8.237579,-0.38246155,5.2955933,-0.013175017,-0.0010045378,-0.006323454,51.0,8.258925,-0.38018084,5.2740893,0.019109555,-0.027574,-0.011489674,-0.46532938,-0.12080917,-0.8376618,2016-12-07 14:55:50,44.430814065854506
8.257202,-0.38246155,5.3642426,-0.0068804948,1.6537511E-4,-0.005599604,51.0,8.26776,-0.35409868,5.262049,0.013829009,-0.013590004,-0.03626592,-0.46605417,-0.120394096,-0.83852583,2016-12-07 14:55:51,49.86469339159964
8.227783,-0.36283875,5.2955933,0.0057272743,-0.0026997544,0.0033472762,51.0,8.252157,-0.3707377,5.285342,-0.0017732056,-0.04384938,0.04150864,-0.46649393,-0.11437662,-0.84169406,2016-12-07 14:55:52,47.92060939397625
8.286621,-0.37265015,5.2171326,-0.0058530006,-1.8137899E-4,-0.0026102064,51.0,8.258128,-0.3572987,5.2769346,0.017818512,0.01045068,0.060341362,-0.46572015,-0.11863775,-0.83963513,2016-12-07 14:55:53,49.021950409256846
8.247391,-0.36283875,5.285782,0.01262302,-6.752507E-5,0.007193594,51.0,8.266729,-0.35862753,5.2633605,0.040038865,0.009121841,-0.021334166,-0.46612853,-0.11950835,-0.83893704,2016-12-07 14:55:54,47.51933293272102
8.237579,-0.39227295,5.285782,-0.025425501,0.0026446125,-0.015860343,51.0,8.258424,-0.35541952,5.276601,-0.023797367,0.025047414,-0.03375284,-0.465741,-0.118379444,-0.83985627,2016-12-07 14:55:55,48.18678487799511
8.188553,-0.36283875,5.3348236,6.6664375E-5,0.004537933,-5.503531E-4,51.0,8.234377,-0.36892316,5.3131294,0.07578895,-0.0147940945,-0.02604692,-0.4630147,-0.12097735,-0.8387502,2016-12-07 14:55:56,48.1366841405456
8.20816,-0.38246155,5.3184814,-0.007108097,-0.0016095183,-0.0053936904,52.0,8.243881,-0.3535644,5.2994156,0.043771494,0.013661316,-0.011526668,-0.46584082,-0.113047324,-0.8432063,2016-12-07 14:55:57,41.8931628264839
8.195084,-0.3432312,5.2530975,-0.03319369,-8.713966E-4,-0.018503446,54.0,8.244672,-0.3828094,5.296154,0.01668875,0.014703999,0.013651938,-0.46433413,-0.119636014,-0.83875656,2016-12-07 14:55:58,44.86906990736517
8.247391,-0.43148804,5.325012,-0.0039135492,-0.0011143466,-0.0038461192,54.0,8.251913,-0.35379905,5.286886,0.02522308,3.3000807E-4,0.029432056,-0.46466887,-0.12065411,-0.8388636,2016-12-07 14:55:59,40.52145598839866
8.227783,-0.38246155,5.2661743,-0.0018171052,0.0013082756,-0.0016278616,54.0,8.252655,-0.3638076,5.285045,0.02681007,-0.010408231,-0.028259892,-0.46541068,-0.11817765,-0.83984536,2016-12-07 14:56:00,43.746966139362506
8.198364,-0.3530426,5.2661743,-0.01391785,8.454738E-4,-0.00921664,52.0,8.243504,-0.36664248,5.2991138,-0.010408958,-0.026568754,7.4195315E-4,-0.4617411,-0.12890027,-0.8339527,2016-12-07 14:56:01,46.388820035029724
8.188553,-0.3432312,5.285782,-0.0036298838,0.0017474645,-0.0016063823,50.0,8.244624,-0.37568283,5.2967377,0.031554416,-0.02155379,-0.0015774298,-0.46263516,-0.12597944,-0.8353401,2016-12-07 14:56:02,45.441570914402625
8.227783,-0.37265015,5.2661743,-0.030523878,-2.9847844E-4,-0.018823054,50.0,8.250781,-0.3714164,5.287442,0.05219027,-0.01776788,0.014994935,-0.46677703,-0.11212848,-0.8428879,2016-12-07 14:56:03,45.910853932734874
8.217972,-0.38246155,5.3348236,0.038426723,-8.9568325E-4,0.023747688,50.0,8.25067,-0.36572504,5.288013,0.038401168,0.0011090069,-0.02523472,-0.46567845,-0.11648157,-0.8407605,2016-12-07 14:56:04,47.71936484716442
8.267014,-0.3530426,5.2955933,-0.021464014,0.0012412044,-0.014029246,49.0,8.237388,-0.36625358,5.308643,0.0515593,0.015116152,0.02394825,-0.46395075,-0.11864994,-0.8400105,2016-12-07 14:56:05,47.21192968491492
8.227783,-0.4020691,5.325012,-0.0055461223,3.3180765E-4,-0.0024605035,54.0,8.246908,-0.36215663,5.294122,0.020218534,0.0055927318,0.05028863,-0.46423244,-0.12067388,-0.83870995,2016-12-07 14:56:06,45.18488824647565
8.227783,-0.3530426,5.285782,0.006859257,1.601982E-4,0.0032785349,54.0,8.242045,-0.35428855,5.302222,0.015356143,0.013460837,0.031147067,-0.4639333,-0.12006724,-0.8394939,2016-12-07 14:56:07,47.42229362677258
8.267014,-0.37265015,5.2465515,-0.012728302,5.913837E-5,-0.008651993,54.0,8.243278,-0.36800066,5.2993727,-0.010653366,-2.5129245E-4,0.05553883,-0.46411538,-0.12009172,-0.8389723,2016-12-07 14:56:08,48.23117074573017
8.237579,-0.38246155,5.315201,0.037813358,2.6911944E-6,0.02607299,52.0,8.244669,-0.3601511,5.2977467,0.072460346,0.007598265,-0.027808903,-0.46213308,-0.12760627,-0.8348975,2016-12-07 14:56:09,43.624038098719325
8.237579,-0.39227295,5.285782,0.005388446,-0.0017253242,0.003919395,52.0,8.254198,-0.36564097,5.2825093,2.6768507E-4,0.01572873,-0.0021855405,-0.46557304,-0.11807954,-0.83979493,2016-12-07 14:56:10,47.798037897365475
8.221237,-0.3432312,5.279251,0.014295729,5.90161E-4,0.0064735943,55.0,8.250461,-0.35044473,5.2893753,0.023770764,-0.00993604,0.031921443,-0.46383014,-0.12299807,-0.8378256,2016-12-07 14:56:11,47.42983235986743
8.267014,-0.3530426,5.256363,-0.0061389753,0.001101281,-0.0041869674,57.0,8.250449,-0.34847012,5.2895217,0.010139611,-0.007961422,-0.008793703,-0.46292165,-0.12645958,-0.83581626,2016-12-07 14:56:12,50.32149599749515
8.227783,-0.39227295,5.2759857,-0.0030983696,-1.6757753E-4,-0.0012323875,58.0,8.248619,-0.36246723,5.291436,-0.0054742424,0.00596376,-0.006579898,-0.46325225,-0.124907374,-0.83629304,2016-12-07 14:56:13,48.66826524041638
8.237579,-0.37265015,5.285782,0.013776575,-0.001126849,0.008419435,58.0,8.240763,-0.36679858,5.3033643,-0.01316811,0.01457117,0.018669369,-0.46169415,-0.12829974,-0.8343871,2016-12-07 14:56:14,50.711831620682155
8.217972,-0.37265015,5.2759857,-0.02217739,5.89388E-4,-0.015151993,57.0,8.24521,-0.37337658,5.2959895,0.032139663,-0.046488248,0.024915079,-0.4646835,-0.118579686,-0.8395848,2016-12-07 14:56:15,50.06099259788111
8.257202,-0.4118805,5.285782,0.010099029,-5.3202466E-4,0.005485871,57.0,8.24024,-0.36483574,5.3043113,-0.013690179,0.016533995,0.03323659,-0.46150035,-0.12877278,-0.83420235,2016-12-07 14:56:16,50.852402585344564
8.247391,-0.37265015,5.2661743,-0.0145271355,6.005521E-4,-0.011215802,57.0,8.244092,-0.36609948,5.298236,-0.009841998,-0.023736915,0.0272939,-0.46584386,-0.113399915,-0.84270334,2016-12-07 14:56:17,48.71835096720564
8.237579,-0.3530426,5.285782,0.011594691,-3.346483E-4,0.0062388564,56.0,8.259424,-0.3522123,5.27525,0.046354406,-0.011703636,-0.009445042,-0.46485615,-0.12210741,-0.8379005,2016-12-07 14:56:18,49.647236984533805
8.217972,-0.4020691,5.2955933,-0.01736111,3.736923E-4,-0.0107916845,56.0,8.248222,-0.36132008,5.2921314,0.021532852,0.020049646,0.0074365735,-0.46231693,-0.12824605,-0.8343814,2016-12-07 14:56:19,45.64970451832701
8.267014,-0.3432312,5.285782,-0.026144618,5.580261E-4,-0.017477117,56.0,8.248193,-0.3664322,5.291827,-0.005737771,-0.025923492,0.0071323104,-0.46302778,-0.12579997,-0.8356632,2016-12-07 14:56:20,36.62633701707411
8.227783,-0.39227295,5.285782,0.019130172,-0.0012311753,0.012617949,54.0,8.258088,-0.36117125,5.2767324,0.0041582626,-0.020662563,-0.035203077,-0.46331537,-0.12770061,-0.83441824,2016-12-07 14:56:21,37.49978220533325
8.227783,-0.3530426,5.3054047,-0.01055059,0.0010934236,-0.006806719,54.0,8.252018,-0.36367738,5.2860494,0.011708311,0.03131268,-0.012265711,-0.46328208,-0.12586221,-0.83559316,2016-12-07 14:56:22,44.78489717759197
8.217972,-0.3432312,5.2661743,0.002858003,2.2240634E-4,3.7738532E-4,54.0,8.2470455,-0.3569921,5.2942605,0.03397605,-0.0028630402,-0.0040547634,-0.46366274,-0.12280132,-0.83772796,2016-12-07 14:56:23,41.77764468737287
8.237579,-0.3530426,5.2661743,0.0020417082,-1.4207394E-4,0.0014426687,54.0,8.243086,-0.35993505,5.300225,0.016395293,0.021434704,0.01552989,-0.46436334,-0.11887167,-0.8399119,2016-12-07 14:56:24,40.30284072578947
8.227783,-0.37265015,5.2661743,-0.029696802,-7.714355E-4,-0.020433877,41.0,8.249796,-0.36075723,5.2897167,0.023105709,0.0069921548,0.07312374,-0.46337458,-0.1250093,-0.83625185,2016-12-07 14:56:25,40.60988767396921
8.227783,-0.4020691,5.256363,0.051135883,-7.7420316E-4,0.034092285,42.0,8.254236,-0.370636,5.2821035,0.041166134,0.051594786,0.011029123,-0.46516892,-0.1191925,-0.8389997,2016-12-07 14:56:26,47.18912244186916
8.198364,-0.37265015,5.285782,0.0076736226,1.969112E-4,0.00256204,54.0,8.249142,-0.3638359,5.290527,0.022704182,0.029273715,-0.02193147,-0.46390715,-0.12272567,-0.8374259,2016-12-07 14:56:27,45.24437315372885
8.20816,-0.3530426,5.285782,-0.025815759,1.0509623E-4,-0.016659869,54.0,8.231421,-0.3785353,5.3170295,0.032663397,-0.02423046,0.04489669,-0.46191883,-0.12475906,-0.83631694,2016-12-07 14:56:28,45.60739171436279
8.234314,-0.3432312,5.2530975,-9.6361653E-4,-3.600525E-4,-0.0015572949,54.0,8.248719,-0.35191014,5.291994,0.02162014,-0.012214429,0.048743207,-0.46332338,-0.12448393,-0.836864,2016-12-07 14:56:29,42.48554032997002
8.27681,-0.36283875,5.285782,-0.012128607,8.867815E-4,-0.005126349,54.0,8.256513,-0.35782263,5.279428,0.00258208,-0.0036935809,0.035594214,-0.46501273,-0.120719686,-0.83851624,2016-12-07 14:56:30,49.700934735559954
8.227783,-0.39227295,5.2759857,0.0068285777,2.454623E-4,0.0047934954,54.0,8.251632,-0.3695184,5.2862477,0.024942096,-0.001769023,0.0287936,-0.4646608,-0.120651774,-0.8383567,2016-12-07 14:56:31,45.79466117052686
8.237579,-0.38246155,5.3054047,0.0035901328,0.0011113328,0.0019973405,54.0,8.24749,-0.37533438,5.292298,0.020800458,-0.0075849895,0.06208423,-0.46374434,-0.12280756,-0.8370955,2016-12-07 14:56:32,43.94267146734946
8.247391,-0.39227295,5.2661743,-0.034921084,-0.001085521,-0.021016138,41.0,8.261408,-0.36272964,5.271429,-0.019762972,0.018640066,3.5455797E-4,-0.46523833,-0.121841185,-0.83757246,2016-12-07 14:56:33,41.30674636283541
8.247391,-0.39227295,5.2759857,0.0075628506,-4.7900603E-4,0.0038765874,39.0,8.249342,-0.3755199,5.2893987,0.02265264,-0.021390878,-0.022537086,-0.46380422,-0.123287395,-0.8367611,2016-12-07 14:56:34,39.006391603457516
8.247391,-0.36283875,5.2661743,-0.030053472,7.470413E-4,-0.018187277,46.0,8.244672,-0.36808798,5.2971973,0.017981453,0.026902087,0.039743334,-0.46222076,-0.1276283,-0.8346022,2016-12-07 14:56:35,37.13051406516458
8.247391,-0.3432312,5.2661743,-0.03989482,0.0022449258,-0.027562046,52.0,8.257304,-0.35780683,5.2781906,0.0033734967,-0.03091848,0.034356795,-0.4645446,-0.12278367,-0.8374146,2016-12-07 14:56:36,32.55751774046012
8.20816,-0.37265015,5.285782,0.05700177,-0.0019035672,0.037964206,53.0,8.2494,-0.3697047,5.2897186,0.009089653,0.02528538,0.032264363,-0.46296138,-0.12631932,-0.83518344,2016-12-07 14:56:37,43.02855618644588
8.267014,-0.3530426,5.2661743,0.023416664,-5.3467098E-5,0.013662411,53.0,8.24844,-0.37470534,5.290862,0.021750657,0.0066644074,-0.021073546,-0.46240154,-0.12806295,-0.8340719,2016-12-07 14:56:38,41.71306457005929
8.257202,-0.38246155,5.2759857,-0.029520996,8.19829E-4,-0.01875992,54.0,8.253199,-0.3647254,5.2841334,0.026508301,0.0030239788,0.0402999,-0.46436003,-0.12231891,-0.8375326,2016-12-07 14:56:39,46.08467998971611
8.257202,-0.3432312,5.2955933,0.023001142,-5.1136518E-5,0.015176758,53.0,8.256938,-0.35541305,5.278926,0.02959915,-0.02889154,-0.004779259,-0.4633047,-0.12717396,-0.8349703,2016-12-07 14:56:40,43.31361826839152
8.198364,-0.39227295,5.2759857,-0.032923903,1.6721546E-4,-0.02010331,49.0,8.246812,-0.36798438,5.2938704,0.03374245,-0.013855351,0.050036736,-0.46454844,-0.11967054,-0.83906937,2016-12-07 14:56:41,46.49427132428932
8.257202,-0.36283875,5.315201,0.01663489,-0.0013142631,0.009601383,51.0,8.260151,-0.36680415,5.2731166,0.019840283,9.452369E-4,-0.025198558,-0.46604183,-0.11805867,-0.83963007,2016-12-07 14:56:42,48.00879865252072
8.188553,-0.3530426,5.285782,0.025977844,-0.0010602318,0.01637203,49.0,8.248008,-0.36117265,5.292476,0.03493872,-0.0070436187,0.02140192,-0.463639,-0.12326626,-0.83728415,2016-12-07 14:56:43,44.54977413882634
8.257202,-0.3530426,5.325012,-0.0032380312,-2.1852985E-4,-0.0014168632,51.0,8.250714,-0.3725262,5.287468,0.01040397,-0.018397192,-0.010847064,-0.46372306,-0.124084316,-0.8363217,2016-12-07 14:56:44,35.966307658870655
8.237579,-0.38246155,5.3054047,0.023835352,-4.6722492E-4,0.015346809,57.0,8.240652,-0.36159799,5.3038945,0.013616191,-0.0074584736,0.0061189313,-0.46272972,-0.12416016,-0.8369862,2016-12-07 14:56:45,40.31314693653768
8.178741,-0.37265015,5.2955933,-0.035168458,0.0015658129,-0.021147197,57.0,8.245454,-0.3629523,5.2963324,0.032384906,0.00479708,-0.015603461,-0.4628241,-0.12545873,-0.8360243,2016-12-07 14:56:46,28.226910107760546
8.227783,-0.37265015,5.315201,0.011943374,7.607658E-4,0.0043706344,56.0,8.238669,-0.35846913,5.3071856,0.011980154,-0.004340114,-0.018370094,-0.46050104,-0.13122137,-0.8331901,2016-12-07 14:56:47,40.65673294546357
8.217972,-0.3530426,5.325012,0.033325475,-0.0022970503,0.020550821,55.0,8.244352,-0.3590043,5.298318,0.017662225,-0.018495599,0.013622842,-0.46235713,-0.12690054,-0.8353788,2016-12-07 14:56:48,40.79415973057975
8.217972,-0.39227295,5.325012,-0.0070340536,-6.856495E-4,-0.0032653543,56.0,8.247656,-0.35677665,5.293324,0.061826933,0.051833794,-0.018611593,-0.4641205,-0.12134916,-0.838475,2016-12-07 14:56:49,34.30435540790228
8.237579,-0.37265015,5.2955933,-0.0020265488,-6.4421043E-4,-0.0013221742,56.0,8.245637,-0.37147444,5.295458,0.018947447,-0.0037250933,0.02438303,-0.46520838,-0.116567634,-0.8407172,2016-12-07 14:56:50,38.29078524696955
8.20816,-0.38246155,5.3054047,0.056752544,-0.001322146,0.036431566,51.0,8.241028,-0.37672597,5.302259,0.05519882,-0.00897662,-0.009676565,-0.46244296,-0.12562491,-0.835613,2016-12-07 14:56:51,33.99598016143645
8.27681,-0.37265015,5.2759857,-0.022984961,3.3466757E-4,-0.015560074,47.0,8.246252,-0.36777174,5.294757,0.032926094,-9.541995E-4,0.01039732,-0.46303576,-0.12504156,-0.83608013,2016-12-07 14:56:52,39.16346019541474
8.247391,-0.37265015,5.2955933,0.01907916,-2.1633426E-4,0.014052241,49.0,8.243531,-0.39263994,5.2972074,0.0029328973,-0.026386928,0.012850545,-0.4643073,-0.11980537,-0.83833736,2016-12-07 14:56:53,39.888632613944594
8.234314,-0.3432312,5.2661743,-0.0102889575,5.973928E-4,-0.007254129,46.0,8.2502365,-0.36727345,5.28858,0.009935937,-0.027302185,0.03107682,-0.46359617,-0.12424369,-0.8364424,2016-12-07 14:56:55,42.491717993695744
8.247391,-0.36283875,5.2465515,0.010559212,-7.334881E-4,0.006200557,48.0,8.250776,-0.35094506,5.2888494,0.024086665,0.01680433,0.004154522,-0.46461746,-0.12032964,-0.83917284,2016-12-07 14:56:56,42.654700532161065
8.247391,-0.39227295,5.2661743,0.0029141363,-0.0013011793,0.0015345501,47.0,8.250748,-0.3581585,5.2884083,0.037678752,0.023211235,-0.023527188,-0.4645151,-0.12090445,-0.83860874,2016-12-07 14:56:57,39.11927487810269
8.27681,-0.36283875,5.2661743,-0.027786931,0.001971357,-0.019737558,46.0,8.24729,-0.36550322,5.293299,-0.020028163,4.8447773E-4,0.035360616,-0.46373552,-0.122786954,-0.83739287,2016-12-07 14:56:58,41.00863083676211
8.227783,-0.3432312,5.256363,0.020582678,-6.019655E-4,0.013417014,46.0,8.250025,-0.3636014,5.2891674,0.023334322,-0.009472372,-0.022768192,-0.46365643,-0.12386301,-0.83680207,2016-12-07 14:56:59,41.15381032084894
8.257202,-0.39227295,5.2955933,0.01563126,-0.0018686684,0.009077302,46.0,8.250417,-0.367843,5.2882624,0.010106358,-9.360144E-5,0.030808305,-0.46614513,-0.114516035,-0.8417797,2016-12-07 14:57:00,40.53365716241793
8.227783,-0.3530426,5.285782,0.018409021,-3.8121393E-4,0.012163188,48.0,8.2469635,-0.3678076,5.2936473,0.034222122,-0.027085342,0.022078197,-0.4605518,-0.13408858,-0.83070016,2016-12-07 14:57:01,42.97390510392567
8.168945,-0.38246155,5.2955933,-0.033865944,0.0015368842,-0.023198208,47.0,8.248048,-0.35765034,5.292652,0.034978624,-0.0035212897,-0.03290365,-0.46332467,-0.1243934,-0.8367742,2016-12-07 14:57:02,37.17372100380848
8.2964325,-0.3530426,5.256363,0.03135097,-0.0012610652,0.022812337,48.0,8.239348,-0.3649985,5.305686,-0.014582185,-0.010869457,0.020991245,-0.46110487,-0.12986618,-0.83352035,2016-12-07 14:57:03,47.881423321429594
8.257202,-0.38246155,5.2661743,0.0020403378,5.1431824E-4,6.7022565E-4,48.0,8.245073,-0.36198497,5.296992,0.01838298,0.005764399,0.012296886,-0.4628159,-0.12533356,-0.83617586,2016-12-07 14:57:04,47.00052021009285
8.227783,-0.3530426,5.2661743,-0.009298009,5.6666817E-4,-0.006435373,49.0,8.242379,-0.35364184,5.3017454,0.0020691555,4.8717952E-4,0.030671138,-0.4619723,-0.12754221,-0.83524,2016-12-07 14:57:05,44.32348522132922
8.217972,-0.3432312,5.2759857,1.5612417E-4,-0.002015518,0.0012192985,49.0,8.238076,-0.35502702,5.308338,-0.015854936,0.026342712,0.023643157,-0.46209505,-0.12642696,-0.8358384,2016-12-07 14:57:06,42.53564646120775
8.257202,-0.37265015,5.2955933,-0.04625692,0.0017816401,-0.029961023,50.0,8.244909,-0.37160605,5.2965817,0.0045988625,-0.0038567013,0.011887046,-0.46490243,-0.11756722,-0.8401938,2016-12-07 14:57:07,39.68984568525375
8.286621,-0.38246155,5.256363,0.029451689,-0.0019233384,0.017797895,49.0,8.247126,-0.3529151,5.2944074,0.007605747,0.015511808,0.0630099,-0.46285698,-0.12620312,-0.83588415,2016-12-07 14:57:08,37.37834959108018
8.237579,-0.4020691,5.2661743,0.004734064,9.201895E-4,0.0025882053,51.0,8.252562,-0.3649857,5.2851124,0.012251164,0.0027636716,0.041278366,-0.46622777,-0.11463505,-0.84175545,2016-12-07 14:57:09,43.3813139816302
8.267014,-0.38246155,5.315201,0.016770901,-9.81257E-4,0.0099076275,52.0,8.26009,-0.36488625,5.273344,0.047020294,0.002863118,0.029510198,-0.46454337,-0.12386582,-0.8364744,2016-12-07 14:57:10,44.149995510060364
8.27681,-0.36283875,5.325012,-0.0055309366,7.760219E-4,-0.0034160118,51.0,8.255905,-0.36442658,5.279924,0.0019752164,0.016943134,0.008849402,-0.4629192,-0.12842289,-0.833966,2016-12-07 14:57:11,47.034135868695294
8.257202,-0.4020691,5.285782,0.017518885,-1.2926695E-4,0.011087109,51.0,8.252806,-0.369986,5.284383,-0.014745123,-0.0022366405,0.04054888,-0.463719,-0.12456584,-0.836109,2016-12-07 14:57:12,51.54865904808893
8.237579,-0.36283875,5.2955933,-0.0122009525,-1.2369032E-4,-0.008962592,51.0,8.254347,-0.3600024,5.2826657,4.1649136E-4,-0.005873354,0.025211442,-0.46115226,-0.13419195,-0.8307272,2016-12-07 14:57:13,38.04269945372089
8.257202,-0.38246155,5.256363,0.0261045,-0.0015398134,0.01963691,50.0,8.254539,-0.36983135,5.2816854,0.014228874,0.011538384,0.024231317,-0.4673497,-0.110895485,-0.8434349,2016-12-07 14:57:14,42.75518612535766
8.267014,-0.37265015,5.285782,-0.0028983078,-2.5845624E-5,-0.0018554174,54.0,8.241492,-0.37947813,5.301338,0.028422832,0.0018916168,0.016643444,-0.46155775,-0.12914383,-0.8334265,2016-12-07 14:57:15,44.160480096665424
8.227783,-0.37265015,5.3348236,0.0036358025,8.103299E-5,0.0018693609,41.0,8.253978,-0.36412016,5.282959,0.040908426,0.0036292577,0.0118845515,-0.4612231,-0.13377047,-0.8308529,2016-12-07 14:57:16,35.490904086596885
8.237579,-0.3530426,5.2661743,-0.0015800834,3.927559E-4,-9.1238244E-4,41.0,8.242224,-0.3684285,5.3009806,0.0019136986,-0.014299458,0.04352667,-0.4616787,-0.1287977,-0.8339989,2016-12-07 14:57:17,44.17592359927309
8.306229,-0.47071838,5.2171326,-0.01714786,0.0016835186,-0.009022949,47.0,8.252071,-0.3747562,5.285193,-0.15168265,0.14281699,0.041359004,-0.4640938,-0.123045266,-0.8367666,2016-12-07 14:57:18,41.389154763039436
8.237579,-0.37265015,5.256363,0.0067996103,2.88794E-4,5.9915334E-4,36.0,8.257892,-0.37844458,5.2758307,0.044822283,-0.037935887,0.018376745,-0.4639147,-0.125599,-0.8351334,2016-12-07 14:57:19,36.37203190777923
8.20816,-0.39553833,5.2400208,-0.02931458,6.8219635E-4,-0.01626821,45.0,8.257597,-0.34105477,5.278841,0.044527166,0.04031497,0.048627235,-0.46260744,-0.1298592,-0.83381766,2016-12-07 14:57:20,42.470870071761325
8.20816,-0.31707764,5.226944,-0.042548474,0.0015245456,-0.03048965,43.0,8.259962,-0.3508102,5.2744994,0.060513448,-0.037542205,0.04428608,-0.46452573,-0.12368663,-0.8370693,2016-12-07 14:57:21,44.06863332810306
8.221237,-0.3432312,5.2530975,-0.014327344,-1.1173907E-4,-0.008607123,46.0,8.256423,-0.34713873,5.280282,0.04335334,-0.006630063,0.02282805,-0.46458802,-0.12241428,-0.8379392,2016-12-07 14:57:22,54.714600684047596
8.198364,-0.37265015,5.256363,0.022243924,-0.0032855046,0.012911803,46.0,8.259761,-0.34518215,5.275188,0.033070743,0.022567248,-0.009506976,-0.4639191,-0.12638268,-0.83567303,2016-12-07 14:57:23,50.04559802999466
8.306229,-0.39227295,5.354431,-0.014716493,0.0018244444,-0.007933934,47.0,8.252717,-0.37677252,5.2840405,0.026027799,-0.036263816,-0.014274596,-0.46438113,-0.12208786,-0.8372809,2016-12-07 14:57:24,45.44873998052427
8.168945,-0.30400085,5.2661743,0.013143131,4.1007253E-4,0.0056491415,46.0,8.262821,-0.34576863,5.2703547,0.04975118,-0.01888029,0.01290084,-0.46174744,-0.1342739,-0.83097506,2016-12-07 14:57:25,54.41586211318979
8.168945,-0.38246155,5.3054047,0.014109583,-3.5830776E-4,0.01257727,46.0,8.336891,-0.39435768,5.1488934,0.11026961,-0.04424935,-0.06811836,-0.47519338,-0.10800916,-0.8412592,2016-12-07 14:57:26,45.35368105238376
8.05127,-0.27786255,5.3446198,-0.015044263,0.010298666,-0.006927823,48.0,8.262395,-0.39758703,5.267365,0.22639005,-0.12518007,-0.071811505,-0.4667621,-0.11555197,-0.83995754,2016-12-07 14:57:27,47.87771279986508
8.142792,-0.35630798,5.279251,0.021208504,-0.0012945443,0.0139908455,49.0,8.229209,-0.356633,5.321966,0.111482516,-0.01612431,0.05089175,-0.46157396,-0.12496004,-0.8370071,2016-12-07 14:57:28,46.66580686653337
8.182022,-0.33015442,5.3576965,0.008872857,-0.0011062546,0.009037548,51.0,8.240473,-0.30945212,5.30747,0.06826468,0.058297254,0.0636363,-0.4601748,-0.13287559,-0.83362424,2016-12-07 14:57:29,43.534995678872804
8.384689,-0.3530426,5.256363,0.030055502,9.983481E-4,0.01939587,34.0,8.235234,-0.3353793,5.3140216,0.035785,0.018749721,-0.011534151,-0.45881885,-0.13600165,-0.83100075,2016-12-07 14:57:30,41.820447953910985
8.20816,-0.3432312,5.3184814,-0.053191174,0.006303858,-0.028578714,26.0,8.202178,-0.3900334,5.361206,0.006774427,-0.012498455,0.057401404,-0.45793208,-0.1304266,-0.8334109,2016-12-07 14:57:31,40.131526412422815
8.260468,-0.3432312,5.213867,0.015094327,6.911648E-4,0.0074317814,37.0,8.21222,-0.33911437,5.3492823,-0.055330165,0.0013943315,0.14630942,-0.45849642,-0.1304668,-0.8348905,2016-12-07 14:57:32,45.610973320046675
8.182022,-0.3432312,5.3446198,9.241667E-5,-0.0029237485,0.0016093188,41.0,8.202192,-0.34951615,5.3639803,0.016362872,-0.009007457,0.024804097,-0.45851603,-0.12782773,-0.8362922,2016-12-07 14:57:33,45.387438703583044
8.260468,-0.38246155,5.436157,-0.0048048813,-0.002000054,-0.0033511051,42.0,8.214344,-0.35138652,5.3452296,-0.06682733,0.029983219,-0.07566883,-0.45950067,-0.12802538,-0.8357955,2016-12-07 14:57:34,44.44944022961021
8.155869,-0.3432312,5.3184814,-0.001046302,1.0089868E-4,-9.925156E-4,39.0,8.225826,-0.35921398,5.3270183,0.06739345,0.007928429,0.014803732,-0.4616367,-0.12358806,-0.8378307,2016-12-07 14:57:35,48.6846394683547
8.198364,-0.3432312,5.325012,-0.017792258,1.977387E-4,-0.009315265,41.0,8.220404,-0.3536975,5.3357525,0.021242721,-0.0015927313,-0.004004053,-0.46207803,-0.120325156,-0.8398813,2016-12-07 14:57:36,43.40117692939468
8.237579,-0.38246155,5.3348236,0.01442449,-0.0014333286,0.00953124,46.0,8.215667,-0.35885358,5.3427,0.0030974983,0.022454577,0.002748344,-0.45780328,-0.13442944,-0.8316146,2016-12-07 14:57:37,39.801994419720444
8.20816,-0.3334198,5.3348236,0.004358957,8.3540677E-4,0.001997111,53.0,8.222904,-0.36388445,5.3312125,-0.017406179,-0.009755385,-0.00796363,-0.46045735,-0.12696093,-0.8358221,2016-12-07 14:57:38,39.621065048358105
8.178741,-0.36283875,5.3348236,0.0015283709,-7.4115105E-4,0.0023398383,52.0,8.22276,-0.35175338,5.33225,0.03693139,0.015996,0.0339349,-0.45900223,-0.13215075,-0.83307016,2016-12-07 14:57:39,43.823103025544505
8.217972,-0.39227295,5.315201,0.012063761,2.0283676E-4,0.009183016,51.0,8.221033,-0.37179446,5.3335514,0.02102159,0.0084053725,-0.004839945,-0.45993263,-0.12848261,-0.8346471,2016-12-07 14:57:40,42.46066030309856
8.168945,-0.39227295,5.2759857,-0.013696987,-5.7984267E-5,-0.009283504,52.0,8.230945,-0.36564487,5.31867,0.045115735,-0.025136182,0.03397522,-0.46232438,-0.12288126,-0.83784795,2016-12-07 14:57:41,46.50856197813514
8.20816,-0.3432312,5.325012,-6.826724E-4,0.0015115472,1.8939725E-4,52.0,8.209065,-0.3690824,5.352143,0.0371201,-0.02836477,0.012575793,-0.4585265,-0.12988505,-0.83424157,2016-12-07 14:57:42,42.54616144272688
8.227783,-0.4020691,5.325012,0.0109887635,-0.0019298965,0.007619157,52.0,8.218886,-0.3690611,5.33705,0.019437093,0.012308603,0.025114594,-0.45962957,-0.12906933,-0.8344472,2016-12-07 14:57:43,43.51577824815347
8.227783,-0.3432312,5.2759857,-0.024568615,0.0016788957,-0.014943907,49.0,8.21973,-0.3699395,5.33569,0.020091344,0.010389214,0.03759354,-0.46130285,-0.12307309,-0.8379114,2016-12-07 14:57:44,50.393866526520185
8.168945,-0.39227295,5.315201,0.01861614,0.0020246413,0.012750652,54.0,8.225325,-0.36365017,5.3274946,0.08211696,-0.008557115,-7.1618217E-4,-0.46165818,-0.12374033,-0.83758247,2016-12-07 14:57:45,44.6790397732907
8.198364,-0.32362366,5.285782,0.022489391,-0.0027932287,0.01273617,55.0,8.223944,-0.374428,5.3288803,-0.0027466814,-0.006678617,0.030565143,-0.46251512,-0.120112196,-0.8393428,2016-12-07 14:57:46,42.240620734369045
8.217972,-0.4020691,5.2759857,0.0013445087,4.494483E-4,0.0025199917,54.0,8.225169,-0.3670932,5.327497,0.05325104,0.0019791392,0.042445954,-0.46007273,-0.12924422,-0.8342362,2016-12-07 14:57:47,41.170022647127205
8.237579,-0.38246155,5.315201,-0.009130841,0.0023404383,-0.006596838,52.0,8.228675,-0.37147078,5.321778,0.01560554,-0.0037214041,0.0098424135,-0.461033,-0.1263722,-0.83578396,2016-12-07 14:57:48,46.18544526289454
8.198364,-0.36283875,5.325012,0.006987081,-0.009677485,0.006651019,52.0,8.191544,-0.3399391,5.3808403,-8.479464E-5,0.01607882,0.06422238,-0.45653534,-0.13211106,-0.834267,2016-12-07 14:57:49,41.790926358903235
8.20816,-0.35630798,5.292328,-0.008008745,6.2361905E-5,-0.0057178503,47.0,8.218261,-0.3610059,5.338563,0.018811109,-0.0068768873,0.053868294,-0.46074104,-0.12466803,-0.83735937,2016-12-07 14:57:50,53.281957582275666
8.217972,-0.37265015,5.3446198,0.046735086,-0.0018496965,0.028675655,49.0,8.228293,-0.37055343,5.3224306,0.056159824,0.009441925,0.01028426,-0.4600659,-0.13024005,-0.8334789,2016-12-07 14:57:51,44.911648741483674
8.188553,-0.4020691,5.3054047,-0.015153879,-5.616805E-4,-0.009766953,47.0,8.224897,-0.3601751,5.328388,0.02544837,-0.006046061,0.057313696,-0.45744127,-0.13823384,-0.82894945,2016-12-07 14:57:52,46.84798288091894
8.20816,-0.38246155,5.315201,-0.008797323,0.0010107888,-0.0060445573,49.0,8.218484,-0.36249354,5.3381205,0.032655083,0.03249651,0.026184918,-0.45951518,-0.12911902,-0.8346791,2016-12-07 14:57:53,46.757136469823195
8.227783,-0.39227295,5.3446198,-0.0093562845,-0.0013640369,-0.0050547626,43.0,8.2211,-0.36926603,5.3336244,0.02070652,0.013452862,-0.0040023904,-0.46001193,-0.12810878,-0.83500624,2016-12-07 14:57:54,43.742685093636
8.198364,-0.38246155,5.3054047,0.014077961,-4.129219E-4,0.00930493,49.0,8.209173,-0.37272754,5.3517227,0.036964644,-0.004978178,0.039786976,-0.45950803,-0.12643507,-0.83617306,2016-12-07 14:57:55,53.769624465682504
8.159134,-0.3432312,5.315201,0.0033035758,1.9931167E-4,9.434451E-4,31.0,8.21705,-0.37600777,5.339393,0.04484057,-0.021878732,0.041078016,-0.45889017,-0.13104098,-0.8331067,2016-12-07 14:57:56,43.404312659453424
8.178741,-0.36283875,5.3348236,-0.031777333,0.0020875456,-0.02083949,44.0,8.223995,-0.35900858,5.3298607,0.038165905,0.022361133,0.05878638,-0.45948598,-0.1308192,-0.83363074,2016-12-07 14:57:57,46.02207106283192
8.198364,-0.3530426,5.285782,0.021650972,-3.949236E-4,0.015150645,36.0,8.215271,-0.36328253,5.343011,0.056682725,0.018087186,0.03107516,-0.46066022,-0.12393304,-0.8377736,2016-12-07 14:57:58,44.80904473574593
8.178741,-0.38246155,5.325012,-0.010596147,-0.0011669366,-0.0070272326,41.0,8.225447,-0.38018376,5.32615,0.012377525,-0.053295407,5.943938E-4,-0.4600297,-0.12981428,-0.83344424,2016-12-07 14:57:59,40.26392119715681
8.217972,-0.3432312,5.315201,0.019901553,-0.0022750734,0.013198962,37.0,8.228258,-0.37058613,5.322483,0.02954927,-0.0030726627,-0.00423516,-0.45928523,-0.13310494,-0.8316917,2016-12-07 14:58:00,45.61054799885958
8.227783,-0.38246155,5.285782,-0.02281172,7.045236E-4,-0.014728217,43.0,8.2200985,-0.36920536,5.3351736,0.007029642,-0.0014559791,0.06409893,-0.4592351,-0.13067874,-0.83345824,2016-12-07 14:58:01,39.63626805635571
8.237579,-0.36283875,5.325012,0.009164362,7.6840096E-4,0.005447808,45.0,8.214761,-0.36914873,5.343391,-0.011929443,0.012221028,0.01783514,-0.45901,-0.12973662,-0.83419675,2016-12-07 14:58:02,43.235355197863356
8.237579,-0.4118805,5.3348236,0.015123219,-9.1054715E-4,0.00949919,48.0,8.223609,-0.36303774,5.330183,0.024159823,0.04557268,0.004627543,-0.46001905,-0.12888728,-0.83464867,2016-12-07 14:58:03,41.702263174849264
8.217972,-0.38246155,5.3348236,0.017810984,-0.0012814496,0.010956082,46.0,8.224641,-0.37948877,5.3274455,0.03854,0.001458577,0.029520174,-0.45900425,-0.13297206,-0.8315655,2016-12-07 14:58:04,39.23372266857405
8.217972,-0.36283875,5.3054047,-0.050461017,9.798912E-4,-0.032457616,47.0,8.221171,-0.36492637,5.3338137,0.008991557,0.001979243,0.034068327,-0.45906565,-0.13170677,-0.8329292,2016-12-07 14:58:05,40.864587519283155
8.20816,-0.38246155,5.325012,-0.017902426,0.00200357,-0.011985775,47.0,8.223073,-0.36438718,5.330917,0.02362362,0.01698257,0.018981531,-0.46022755,-0.12773933,-0.83533823,2016-12-07 14:58:06,44.35443597001628
8.217972,-0.37265015,5.325012,-0.006614745,-0.0010056098,-0.004474875,47.0,8.215184,-0.36664954,5.3429127,0.029355574,-0.012520511,0.04459741,-0.45760491,-0.13520509,-0.8308682,2016-12-07 14:58:07,51.81052166786835
8.20816,-0.36283875,5.3642426,-0.014690189,8.355206E-4,-0.007928939,48.0,8.219,-0.36423373,5.337206,0.033170503,0.017136,0.011649703,-0.45852146,-0.13278888,-0.83234763,2016-12-07 14:58:08,45.254687933620886
8.217972,-0.38246155,5.325012,0.029404523,-7.884529E-4,0.019325595,46.0,8.216531,-0.3622887,5.341138,0.071563356,-0.02178004,0.0019614997,-0.45703515,-0.13689315,-0.82996,2016-12-07 14:58:09,40.73416499375818
8.237579,-0.39227295,5.325012,0.0021068044,-9.985685E-4,0.0023897681,47.0,8.218737,-0.3511296,5.3384886,0.04652815,0.016619775,-0.014307848,-0.4575881,-0.1358002,-0.8309562,2016-12-07 14:58:10,42.413928379357245
8.217972,-0.3530426,5.325012,-0.018143697,0.0022862921,-0.011625076,47.0,8.218607,-0.37212867,5.3372655,-0.008082925,-0.017999638,0.038950253,-0.4602069,-0.12646253,-0.83595127,2016-12-07 14:58:11,41.072535100109285
8.257202,-0.3530426,5.325012,0.02246127,-3.7182483E-4,0.015785065,49.0,8.213799,-0.37736705,5.344294,-0.026510796,0.004002676,0.032358717,-0.45764217,-0.13442902,-0.8310124,2016-12-07 14:58:12,40.069610269239504
8.227783,-0.38246155,5.38385,0.008473802,0.0012887239,0.004380809,49.0,8.221668,-0.35860342,5.3334765,-0.0061999853,-0.0035462035,-0.031061027,-0.46048558,-0.12602052,-0.836641,2016-12-07 14:58:13,40.98081605449132
8.198364,-0.39227295,5.3348236,0.024314493,-8.524184E-4,0.01711358,51.0,8.225153,-0.37231582,5.327158,-0.015156627,-0.0045664147,-0.03925909,-0.46082926,-0.12629311,-0.8357992,2016-12-07 14:58:14,49.15963653922803
8.217972,-0.37265015,5.2955933,0.0,0.0,-0.0,51.0,8.219853,-0.37149346,5.33539,0.034288626,0.0098516615,0.023047931,-0.45986906,-0.12857452,-0.83462715,2016-12-07 14:58:15,48.19836163450567
8.1493225,-0.38246155,5.2955933,0.061146,-0.001805911,0.038455766,51.0,8.227693,-0.3696794,5.323418,0.08272549,0.025310706,0.0387233,-0.45996323,-0.13011256,-0.83363414,2016-12-07 14:58:16,40.01035732531449
8.20816,-0.38246155,5.325012,0.0055496697,6.4022525E-4,0.0038433967,51.0,8.224473,-0.3728749,5.328171,0.052264262,-0.0051254774,0.016235264,-0.4592127,-0.13205864,-0.8323732,2016-12-07 14:58:17,45.42246630255111
8.198364,-0.3432312,5.2955933,0.020637706,-0.00241847,0.013822878,51.0,8.216884,-0.3835135,5.339114,0.044675138,-0.029384488,0.040799107,-0.4582137,-0.13364188,-0.831197,2016-12-07 14:58:18,48.43608534133593
8.198364,-0.39227295,5.354431,-0.031821538,0.002299633,-0.019359853,51.0,8.227238,-0.3677783,5.3242555,0.04140888,0.027211754,-0.014920947,-0.4588999,-0.13392761,-0.8313126,2016-12-07 14:58:19,52.911162110210064
8.20816,-0.38246155,5.315201,0.009261686,-0.0011436546,0.0046469783,51.0,8.209996,-0.36808488,5.350783,0.051408,0.026905205,-0.0020134572,-0.45867872,-0.12967359,-0.8343914,2016-12-07 14:58:20,48.36249009820801
8.217972,-0.39227295,5.354431,0.0148766255,-4.8751038E-4,0.009661624,51.0,8.214418,-0.37118086,5.343777,0.042210273,-0.017051803,-0.0090194065,-0.45989406,-0.12661588,-0.83597755,2016-12-07 14:58:21,42.88745452898826
8.198364,-0.4020691,5.2955933,1.8602394E-4,-0.0013430039,-9.7387045E-4,51.0,8.2204275,-0.36072016,5.335244,0.033899568,0.01983132,-0.0029087889,-0.4584391,-0.13337202,-0.8320977,2016-12-07 14:58:22,42.81819671639391
8.237579,-0.38246155,5.2955933,0.025874237,-7.7642576E-4,0.017925218,47.0,8.2165,-0.37073526,5.340606,0.0033261115,0.022716107,0.055965297,-0.45904878,-0.13028793,-0.83371556,2016-12-07 14:58:23,42.55468144875739
8.27681,-0.37265015,5.285782,0.004016189,2.3309984E-4,0.0013890197,47.0,8.221523,-0.35903025,5.333669,0.035695218,0.008719144,0.03535438,-0.45983002,-0.12883131,-0.8349065,2016-12-07 14:58:24,39.21820059003105
8.237579,-0.38246155,5.3054047,-0.011042416,9.173514E-4,-0.0067689703,47.0,8.213389,-0.36849862,5.345542,0.041181102,0.01287112,0.047226872,-0.458854,-0.13000827,-0.8340655,2016-12-07 14:58:25,51.000773261026026
8.237579,-0.4118805,5.354431,0.017207785,0.0010871433,0.010060377,47.0,8.222561,-0.37327808,5.3310914,0.035585485,0.009056998,0.00737173,-0.46195945,-0.12139077,-0.83872265,2016-12-07 14:58:26,46.082625868894375
8.20816,-0.3530426,5.3348236,0.035679407,-0.002559592,0.02318282,48.0,8.227319,-0.36400732,5.3243895,0.014248826,0.017362405,-0.0011663421,-0.45967737,-0.1313341,-0.8330135,2016-12-07 14:58:27,45.32817125342322
8.20816,-0.3432312,5.2955933,0.016798278,0.0010902934,0.010257052,48.0,8.221571,-0.36028087,5.333512,0.00850191,-0.019772168,-0.005664615,-0.45971036,-0.12918958,-0.83464617,2016-12-07 14:58:28,44.642431314218896
8.155869,-0.38246155,5.2661743,0.012660274,0.0050588115,0.012581147,48.0,8.223231,-0.3275045,5.3330655,0.07826379,0.053865228,0.075611465,-0.4591148,-0.13107441,-0.83453894,2016-12-07 14:58:29,47.50628908347112
8.139526,-0.36283875,5.354431,0.019768199,8.0613355E-4,0.012635061,47.0,8.212308,-0.35642,5.348023,0.0537199,-0.002290988,0.008846908,-0.4574406,-0.1342902,-0.8319206,2016-12-07 14:58:30,39.997382587171714
8.188553,-0.36283875,5.3054047,-0.053117365,3.0800365E-4,-0.03371484,46.0,8.228134,-0.3608304,5.3233423,0.027385343,-0.006012626,-1.558725E-4,-0.46177903,-0.124053836,-0.8373994,2016-12-07 14:58:31,49.16396291033574
8.178741,-0.36283875,5.3348236,4.6334334E-4,2.3703105E-4,6.5253454E-4,47.0,8.216724,-0.37052533,5.3402753,0.044515524,-0.016396282,0.0010990051,-0.46183845,-0.11999146,-0.8397352,2016-12-07 14:58:32,46.46996330582776
8.168945,-0.39227295,5.325012,0.016991982,-0.0016218454,0.011377049,49.0,8.214921,-0.35934868,5.343814,0.05633274,0.008400723,0.018257866,-0.45980528,-0.12704933,-0.8360962,2016-12-07 14:58:33,44.981517142837134
8.198364,-0.38246155,5.3054047,0.0018342745,-0.0010775771,0.0015623657,49.0,8.213094,-0.37525108,5.345527,2.4108282E-5,0.0061186454,0.04721191,-0.45972657,-0.1270425,-0.83559954,2016-12-07 14:58:34,50.25016179267871
8.188553,-0.3432312,5.3642426,0.011376105,-3.2499354E-4,0.007469562,48.0,8.216255,-0.379927,5.3403373,0.016805965,-0.039418336,0.042021982,-0.45833713,-0.1327055,-0.8319406,2016-12-07 14:58:35,49.386247420290765
8.188553,-0.39227295,5.354431,-0.017539583,0.0022263406,-0.011019917,48.0,8.215604,-0.38199773,5.3411894,0.014985374,-7.1405194E-4,0.0038070302,-0.45854095,-0.13180412,-0.8324516,2016-12-07 14:58:36,39.101053467886715
8.188553,-0.36283875,5.285782,0.033221155,-0.0028946954,0.022917924,47.0,8.228613,-0.3668519,5.322192,0.014845713,-0.011609125,0.011413192,-0.46175843,-0.12407776,-0.8372201,2016-12-07 14:58:37,44.75149067597502
8.198364,-0.4020691,5.315201,-0.004729109,0.0015524458,-0.0042917556,47.0,8.21936,-0.35514483,5.337265,0.08801269,0.0262249,-0.0019112048,-0.45994768,-0.12764218,-0.8358069,2016-12-07 14:58:38,44.846450907837976
8.168945,-0.39227295,5.3446198,0.025855439,-0.0022334082,0.015887413,48.0,8.217481,-0.375371,5.338773,-0.009209364,-0.021241967,0.013217158,-0.46018904,-0.1266832,-0.8357107,2016-12-07 14:58:39,46.72448770833726
8.159134,-0.37265015,5.3054047,0.02486598,-0.0036759723,0.015505658,48.0,8.229623,-0.36295322,5.320899,0.06978433,-0.00946076,-0.01638698,-0.4590743,-0.13385734,-0.8314817,2016-12-07 14:58:40,42.9834560300835
8.237579,-0.4020691,5.3348236,-0.012703375,0.0013346117,-0.0075030746,48.0,8.223871,-0.3759621,5.3288827,0.02442169,0.032648303,-0.05115445,-0.460325,-0.12795931,-0.8347483,2016-12-07 14:58:41,47.81211762682772
8.178741,-0.3432312,5.3348236,0.021660982,-0.0019653358,0.01127054,49.0,8.225977,-0.3841131,5.32505,0.06738847,-0.043604426,0.040355183,-0.46041518,-0.12857182,-0.8340826,2016-12-07 14:58:42,46.92088094995568
8.188553,-0.3530426,5.3642426,-0.042886227,0.0011672531,-0.026119722,50.0,8.221312,-0.36159596,5.3338237,-0.0053786407,-0.0074669165,0.035508588,-0.45729402,-0.13768823,-0.8293171,2016-12-07 14:58:43,44.09135762790261
