ACC_X,ACC_Y,ACC_Z,GYRO_X,GYRO_Y,GYRO_Z,LIGH_1,GRAV_X,GRAV_Y,GRAV_Z,LINACC_X,LINACC_Y,LINACC_Z,ROTVEC_X,ROTVEC_Y,ROTVEC_Z,HUMI_1,TEMP_2,TIME,VOICE
8.820838,-0.06464344,3.86903,0.047036625,0.048258353,-0.05009095,14.0,8.981828,-0.06572481,3.936093,-0.16098976,0.0010813698,-0.06706309,0.37941203,-0.39415938,0.58490527,46.659496,23.772968,2016-11-08 14:14:09,46.62388491584334
8.752603,-0.036511578,3.762488,0.04520403,0.046731193,-0.05100725,14.0,8.982699,-0.060915656,3.9341807,-0.23009682,0.024404079,-0.17169285,0.37744573,-0.39616576,0.5814614,46.659496,23.772968,2016-11-08 14:14:10,49.044155684835346
8.815451,-0.074220255,3.8750155,0.048563786,0.046120327,-0.050396383,14.0,8.979214,-0.064993866,3.9420655,-0.16376305,-0.009226389,-0.06704998,0.3805863,-0.3926381,0.5870637,46.659496,23.772968,2016-11-08 14:14:11,55.5882755407001
8.821436,-0.05327099,3.8720226,0.04734206,0.049785517,-0.052534413,14.0,8.988442,-0.15501842,3.9184494,-0.1670065,0.10174743,-0.046426773,0.38008958,-0.3941667,0.5891523,46.659496,23.95648,2016-11-08 14:14:12,53.94995025511001
8.82802,-0.06464344,3.8660371,0.045814894,0.04642576,-0.04917465,15.0,9.036124,-0.64648354,3.7551172,-0.20810413,0.5818401,0.11091995,0.38380772,-0.40075058,0.61497086,46.659496,23.95648,2016-11-08 14:14:13,50.99615622249196
8.790312,-0.077213004,3.8486793,0.05131268,0.05375614,-0.049785517,15.0,9.082056,-1.0340388,3.552099,-0.29174423,0.9568258,0.2965803,0.3905895,-0.40692413,0.6340276,46.659496,23.95648,2016-11-08 14:14:14,53.222921514312404
8.859145,-0.08319851,3.8786068,0.044898596,0.044593163,-0.050701816,15.0,9.129458,-1.2595445,3.3521562,-0.27031326,1.176346,0.52645063,0.3941056,-0.4156941,0.63877547,46.659496,23.913439,2016-11-08 14:14:15,55.147802078748065
8.7951,-0.06344634,3.8720226,0.048563786,0.04734206,-0.050396383,15.0,9.173368,-1.3043858,3.212205,-0.37826824,1.2409394,0.6598177,0.3982235,-0.42040378,0.6374414,46.659496,23.913439,2016-11-08 14:14:16,57.13418512594198
8.821436,-0.0664391,3.8654387,0.046120327,0.04917465,-0.049480084,15.0,9.2031145,-1.2164176,3.1612346,-0.38167858,1.1499784,0.7042041,0.40131667,-0.4207725,0.6329059,46.659496,23.913439,2016-11-08 14:14:17,58.82752651223104
8.815451,-0.060453594,3.8792052,0.046731193,0.04795292,-0.049480084,16.0,9.222407,-1.0528011,3.1637344,-0.40695667,0.99234754,0.7154708,0.40047073,-0.4216583,0.62287563,46.659496,23.812855,2016-11-08 14:14:18,54.95653283405502
8.815451,-0.050278235,3.8456864,0.049480084,0.04917465,-0.05009095,16.0,9.221587,-0.8602312,3.2237744,-0.4061365,0.809953,0.621912,0.40047243,-0.4181716,0.61584896,46.659496,23.812855,2016-11-08 14:14:19,64.01008246831437
8.831612,-0.045489833,3.8534677,0.04520403,0.05100725,-0.04734206,16.0,9.202806,-0.67647684,3.319808,-0.37119484,0.630987,0.5336597,0.39890763,-0.4137764,0.60929346,46.659496,23.812855,2016-11-08 14:14:20,60.137523756549626
8.820239,-0.0712275,3.839701,0.05100725,0.050701816,-0.05131268,16.0,9.170501,-0.51600015,3.4359918,-0.36223316,0.46512336,0.40789914,0.3934818,-0.41218296,0.5997692,46.659496,23.875444,2016-11-08 14:14:21,61.256189700466805
8.80767,-0.0700304,3.8534677,0.05222898,0.049480084,-0.05100725,15.0,9.133358,-0.38916415,3.549748,-0.32568836,0.31913376,0.30371976,0.39197543,-0.40653518,0.5975375,46.659496,23.875444,2016-11-08 14:14:22,57.71614303493496
8.814254,-0.051475335,3.857059,0.044593163,0.050701816,-0.05100725,15.0,9.089935,-0.29919338,3.6679626,-0.2756815,0.24771805,0.18909645,0.3876689,-0.40359834,0.59334594,46.66414,23.875444,2016-11-08 14:14:23,57.23288197264325
8.819042,-0.059855044,3.8546648,0.05100725,0.04917465,-0.051618114,16.0,9.052113,-0.24643531,3.7641637,-0.23307037,0.18658027,0.09050107,0.38493642,-0.39993587,0.5927142,46.66414,23.875444,2016-11-08 14:14:24,59.867953146535974
8.773552,-0.073023155,3.8019924,0.041233405,0.04886922,-0.048258353,16.0,9.018591,-0.2152163,3.8456604,-0.24503899,0.14219314,-0.04366803,0.38325536,-0.39647698,0.593742,46.66414,23.875444,2016-11-08 14:14:25,63.45650693743687
8.817844,-0.061052144,3.8600516,0.050396383,0.047647487,-0.05100725,16.0,8.990077,-0.18930706,3.9131923,-0.17223263,0.12825492,-0.05314064,0.38236246,-0.39304835,0.59534943,46.99855,23.72405,2016-11-08 14:14:26,61.56184124019948
8.825626,-0.06284779,3.8564603,0.04795292,0.046731193,-0.048563786,16.0,8.966882,-0.17044221,3.9669113,-0.14125538,0.107594416,-0.11045098,0.37900722,-0.39270067,0.59308356,46.99855,23.72405,2016-11-08 14:14:27,65.05984950139839
8.813056,-0.0712275,3.8510735,0.044593163,0.04917465,-0.050701816,16.0,8.953109,-0.16717707,3.998034,-0.1400528,0.09594957,-0.1469605,0.37682614,-0.39280027,0.59171695,46.99855,23.72405,2016-11-08 14:14:28,56.69859996289151
8.820239,-0.0664391,3.8510735,0.047647487,0.051923547,-0.049785517,15.0,8.947438,-0.16394407,4.010841,-0.12719917,0.097504966,-0.15976739,0.37779242,-0.39107543,0.5940084,46.821686,23.84417,2016-11-08 14:14:29,51.10058813026046
8.814254,-0.050876785,3.8253357,0.043066,0.05131268,-0.052534413,17.0,8.943801,-0.16335692,4.01897,-0.12954712,0.112480134,-0.19363427,0.37768826,-0.3904544,0.5947443,46.821686,23.84417,2016-11-08 14:14:30,59.33199067375702
8.811261,-0.07062895,3.8355112,0.044898596,0.04734206,-0.05100725,16.0,8.942609,-0.15651947,4.0218954,-0.13134766,0.085890524,-0.1863842,0.3766469,-0.39146188,0.5924488,46.821686,23.84417,2016-11-08 14:14:31,58.80084817647027
8.771756,-0.08080431,3.78643,0.04337143,0.048563786,-0.05100725,16.0,8.943628,-0.1513073,4.019826,-0.17187214,0.07050299,-0.23339605,0.3769876,-0.39119706,0.5926031,46.935425,23.799278,2016-11-08 14:14:32,62.914709359100165
8.806473,-0.053869538,3.843891,0.04337143,0.051618114,-0.050701816,16.0,8.946351,-0.14051175,4.0141544,-0.13987827,0.08664221,-0.17026353,0.37771156,-0.390818,0.59273726,46.935425,23.799278,2016-11-08 14:14:33,56.801785576407326
8.820239,-0.05686229,3.843891,0.045814894,0.051923547,-0.049785517,16.0,8.953631,-0.12140257,3.9985156,-0.13339233,0.06454028,-0.1546247,0.3800328,-0.3895691,0.5939447,46.935425,23.799278,2016-11-08 14:14:34,61.76743214180961
8.813655,-0.0664391,3.8444893,0.04428773,0.053145275,-0.047036625,16.0,8.958847,-0.10968261,3.987157,-0.14519215,0.043243513,-0.14266777,0.3774748,-0.39265195,0.588552,47.154102,23.702612,2016-11-08 14:14:35,62.846795348441844
8.802881,-0.06284779,3.8253357,0.04917465,0.05009095,-0.05100725,16.0,8.965022,-0.10115882,3.9734793,-0.16214085,0.038311027,-0.14814353,0.38002798,-0.39111418,0.5908955,47.154102,23.702612,2016-11-08 14:14:36,66.93515004109726
8.805874,-0.060453594,3.8253357,0.044898596,0.055588737,-0.051618114,16.0,8.968095,-0.095113985,3.9666893,-0.14306736,0.028674886,-0.12160134,0.3806066,-0.39117247,0.59070396,47.154102,23.702612,2016-11-08 14:14:37,51.293395994757596
8.814852,-0.055066638,3.821146,0.047647487,0.05375614,-0.05222898,16.0,8.9709,-0.09352058,3.9603786,-0.15604782,0.038453944,-0.13923264,0.3786213,-0.39344338,0.58689934,47.154102,23.702612,2016-11-08 14:14:38,51.10979744348067
8.805874,-0.046686932,3.8307228,0.04886922,0.050701816,-0.051923547,16.0,8.975974,-0.09517887,3.9488254,-0.17010021,0.04849194,-0.11810255,0.38013437,-0.3926795,0.5887848,47.154102,23.702612,2016-11-08 14:14:39,50.139424234234355
8.80767,-0.062249243,3.833117,0.0421497,0.050396383,-0.050396383,16.0,8.979001,-0.09383973,3.9419687,-0.1713314,0.031590484,-0.10885167,0.3794552,-0.39363202,0.58720654,47.154102,23.729248,2016-11-08 14:14:40,61.19161026536599
8.808268,-0.08080431,3.8193502,0.045814894,0.053145275,-0.052534413,16.0,8.979841,-0.08457769,3.9402647,-0.17157364,0.0037733763,-0.12091446,0.37848648,-0.3948313,0.5850373,47.154102,23.729248,2016-11-08 14:14:41,53.06337063584944
8.815451,-0.05626374,3.8307228,0.042455133,0.04734206,-0.051923547,16.0,8.990128,-0.06542671,3.9171052,-0.1746769,0.009162966,-0.08638239,0.38192096,-0.39283615,0.58766145,47.154102,23.729248,2016-11-08 14:14:42,52.5562186520999
8.826823,-0.077213004,3.8247373,0.04642576,0.05375614,-0.05131268,16.0,8.986445,-0.05423457,3.9257183,-0.15962219,-0.022978432,-0.100981,0.37889418,-0.3952816,0.58282447,47.65737,23.575447,2016-11-08 14:14:43,60.220119030856196
8.814254,-0.05327099,3.8402996,0.042760566,0.055588737,-0.050396383,16.0,8.98412,-0.049359076,3.9310977,-0.16986656,-0.0039119124,-0.09079814,0.37977082,-0.3942286,0.58403766,47.65737,23.575447,2016-11-08 14:14:44,61.34977054455383
8.801085,-0.07062895,3.819949,0.03848451,0.056505036,-0.050701816,16.0,8.983113,-0.05612784,3.9333081,-0.18202782,-0.01450111,-0.11335921,0.37943208,-0.39424288,0.58406556,47.65737,23.575447,2016-11-08 14:14:45,50.14064663133459
8.820239,-0.065242,3.8367083,0.043676864,0.055588737,-0.05131268,15.0,8.983454,-0.05757921,3.93251,-0.16321468,-0.0076627918,-0.09580159,0.3776838,-0.39611349,0.5813371,47.44567,23.696789,2016-11-08 14:14:46,49.569657179685656
8.820239,-0.05686229,3.819949,0.048258353,0.055588737,-0.04795292,15.0,8.981573,-0.057613984,3.936804,-0.16133404,7.516928E-4,-0.116855145,0.38188493,-0.3918962,0.587953,47.44567,23.696789,2016-11-08 14:14:47,56.16734752843141
8.832211,-0.0664391,3.834314,0.048258353,0.050701816,-0.050396383,15.0,8.984229,-0.067848966,3.9305737,-0.15201855,0.0014098659,-0.096259594,0.37948495,-0.3944787,0.58482105,47.44567,23.696789,2016-11-08 14:14:48,61.56749437709186
8.817246,-0.0700304,3.8253357,0.043066,0.05009095,-0.05009095,15.0,8.984299,-0.074748956,3.9302926,-0.16705227,0.004718557,-0.104956865,0.38170236,-0.39234042,0.58865446,47.44567,23.696789,2016-11-08 14:14:49,58.49161067663988
8.822035,-0.075417355,3.8355112,0.04734206,0.052534413,-0.05222898,15.0,8.987596,-0.07639029,3.9227118,-0.16556072,9.7293407E-4,-0.08720064,0.37975892,-0.39476734,0.5851834,47.44567,23.696789,2016-11-08 14:14:51,66.14698232098108
8.829217,-0.05626374,3.8121676,0.039095376,0.05375614,-0.04917465,15.0,8.991291,-0.073278,3.914296,-0.16207409,0.017014261,-0.10212827,0.3813086,-0.39391097,0.58653224,47.44567,23.696789,2016-11-08 14:14:52,56.32017392707577
8.826224,-0.061650693,3.7954082,0.044898596,0.05375614,-0.05100725,15.0,8.986276,-0.060258072,3.9260147,-0.16005135,-0.0013926215,-0.13060641,0.3805276,-0.3939212,0.58549947,47.393867,23.772814,2016-11-08 14:14:53,61.30398704516124
8.802282,-0.055066638,3.8307228,0.04337143,0.05222898,-0.050396383,15.0,8.990704,-0.059661567,3.9158752,-0.17106342,0.011777535,-0.095327854,0.38056213,-0.3943161,0.5848639,47.393867,23.772814,2016-11-08 14:14:54,56.54296538737626
8.802881,-0.044891283,3.8175547,0.04428773,0.05222898,-0.050396383,15.0,8.995379,-0.05269845,3.905223,-0.1924982,0.0078071654,-0.08766818,0.38269657,-0.39283064,0.58708835,47.393867,23.772814,2016-11-08 14:14:55,60.529339002836444
8.814852,-0.06404489,3.7954082,0.043066,0.05222898,-0.05100725,15.0,8.992958,-0.054652505,3.9107676,-0.17810631,-0.009392388,-0.11535931,0.38105145,-0.3942908,0.584804,47.393867,23.772814,2016-11-08 14:14:56,61.36256501142157
8.811261,-0.059855044,3.8043866,0.043676864,0.04795292,-0.05222898,15.0,8.995,-0.054282796,3.906076,-0.18373871,-0.0055722483,-0.10168934,0.38004526,-0.39554185,0.58283234,47.393867,23.772814,2016-11-08 14:14:57,56.854860032267986
8.813056,-0.04309563,3.8181531,0.044898596,0.054061573,-0.053450707,15.0,8.995243,-0.05205986,3.9055438,-0.18218708,0.008964229,-0.08739066,0.38023508,-0.39549175,0.58295625,47.59923,23.680635,2016-11-08 14:14:58,66.16882731530791
8.808268,-0.053869538,3.816956,0.043676864,0.05681047,-0.05100725,15.0,8.99332,-0.05298925,3.9099553,-0.18505287,-8.802898E-4,-0.09299922,0.3811909,-0.39410108,0.58498687,47.59923,23.680635,2016-11-08 14:14:59,51.37962055800537
8.820239,-0.04369418,3.8109705,0.03848451,0.047036625,-0.05009095,15.0,8.990018,-0.061115563,3.9174268,-0.16977882,0.017421383,-0.10645628,0.3801313,-0.3946733,0.58437383,47.59923,23.680635,2016-11-08 14:15:00,54.34870643721608
8.826823,-0.06464344,3.8235402,0.040317107,0.056199603,-0.047036625,15.0,8.987794,-0.06419483,3.922476,-0.16097069,-4.4861436E-4,-0.09893584,0.3816851,-0.39303237,0.58708864,47.36199,23.800428,2016-11-08 14:15:01,59.800787745961784
8.82802,-0.05566519,3.8181531,0.042760566,0.0571159,-0.049480084,15.0,8.993198,-0.08103344,3.9097583,-0.1651783,0.025368247,-0.09160519,0.3804956,-0.39477575,0.58566517,47.36199,23.800428,2016-11-08 14:15:02,58.26877539368661
8.818443,-0.08020575,3.819949,0.042760566,0.05681047,-0.05222898,15.0,8.995531,-0.08087211,3.9043913,-0.17708778,6.663576E-4,-0.08444238,0.38067785,-0.39497572,0.5855132,47.36199,23.800428,2016-11-08 14:15:03,55.95055910405178
8.834005,-0.0664391,3.8097734,0.040317107,0.05467244,-0.05222898,15.0,8.997522,-0.07486498,3.8999217,-0.163517,0.008425884,-0.09014821,0.3804024,-0.39555076,0.58460635,47.36199,23.800428,2016-11-08 14:15:04,50.22695190763021
8.814254,-0.06943185,3.8295257,0.04062254,0.050701816,-0.05222898,15.0,8.996493,-0.07182225,3.9023495,-0.18223953,0.0023903996,-0.07282376,0.37997016,-0.39576614,0.5839197,47.36199,23.800428,2016-11-08 14:15:05,60.24139113397101
8.820838,-0.06823475,3.8205473,0.042760566,0.05589417,-0.05009095,15.0,8.997696,-0.080094114,3.8994172,-0.17685795,0.011859365,-0.07886982,0.38149878,-0.39446595,0.5865794,47.36199,23.800428,2016-11-08 14:15:06,62.89344052995271
8.81605,-0.0700304,3.8055837,0.046731193,0.054367006,-0.050701816,15.0,8.996757,-0.07233926,3.9017346,-0.18070698,0.0023088604,-0.096150875,0.38180688,-0.39421353,0.586268,47.36199,23.800428,2016-11-08 14:15:07,64.41076359107102
8.810662,-0.06703765,3.8355112,0.03848451,0.05681047,-0.05009095,15.0,8.995057,-0.066139236,3.905762,-0.18439484,-8.9841336E-4,-0.07025075,0.380982,-0.3946015,0.5851643,47.36199,23.800428,2016-11-08 14:15:08,64.4685592564158
8.80767,-0.05566519,3.8247373,0.044898596,0.05467244,-0.051923547,15.0,8.991959,-0.06949293,3.9128318,-0.18428898,0.013827737,-0.08809447,0.3818653,-0.39323837,0.5871184,47.36199,23.800428,2016-11-08 14:15:09,62.60241799305924
8.805275,-0.05267244,3.8349125,0.04062254,0.059253927,-0.048258353,15.0,8.993549,-0.06983458,3.9091675,-0.18887234,0.013570841,-0.091014385,0.38020873,-0.39528817,0.5841909,47.36199,23.800428,2016-11-08 14:15:10,60.529714544633094
8.818443,-0.0676362,3.7960067,0.04734206,0.052839845,-0.04886922,16.0,8.988951,-0.070241705,3.919722,-0.17050743,0.0026055053,-0.1237154,0.3833168,-0.39158356,0.589838,47.36199,23.800428,2016-11-08 14:15:11,51.719090671171976
8.797494,-0.047285482,3.7912183,0.04062254,0.0571159,-0.051923547,15.0,8.989521,-0.080673665,3.9182107,-0.19202709,0.033388183,-0.12699246,0.37976465,-0.3949641,0.58517885,47.47239,23.800428,2016-11-08 14:15:12,55.98415258237011
8.804677,-0.0664391,3.8133647,0.040317107,0.05009095,-0.049480084,15.0,8.990453,-0.08148907,3.9160573,-0.18577576,0.015049972,-0.102692604,0.38078555,-0.39415482,0.5865479,47.47239,23.800428,2016-11-08 14:15:13,60.25720317526171
8.814852,-0.073621705,3.810372,0.043982297,0.05467244,-0.05100725,16.0,8.996588,-0.08472002,3.9018729,-0.18173599,0.011098318,-0.09150076,0.3811075,-0.39474162,0.58628494,47.47239,23.800428,2016-11-08 14:15:14,61.496989270719915
8.820838,-0.062249243,3.7966053,0.03481932,0.05467244,-0.051923547,16.0,9.001103,-0.08135609,3.8915184,-0.18026543,0.01910685,-0.094913006,0.38290495,-0.39374408,0.58798754,47.59103,23.72386,2016-11-08 14:15:15,58.921697151816524
8.791509,-0.0688333,3.7852328,0.033292156,0.058337633,-0.052839845,16.0,9.000016,-0.06883973,3.8942714,-0.20850754,6.429851E-6,-0.10903859,0.38048112,-0.39604187,0.58363134,47.59103,23.72386,2016-11-08 14:15:16,61.87591203465169
8.813056,-0.07062895,3.8085763,0.036957346,0.053450707,-0.050396383,16.0,8.9999,-0.08365619,3.8942523,-0.18684387,0.013027243,-0.085675955,0.38034046,-0.39588115,0.5845126,47.59103,23.72386,2016-11-08 14:15:17,53.89103533699565
8.820838,-0.07062895,3.7954082,0.03390302,0.055588737,-0.049785517,16.0,8.998565,-0.09120558,3.8971643,-0.17772675,0.020576634,-0.101756096,0.38188842,-0.39420494,0.58750844,47.59103,23.841223,2016-11-08 14:15:18,52.39554982188685
8.808268,-0.0724246,3.8061821,0.035430185,0.053450707,-0.048563786,15.0,9.000506,-0.08335546,3.892852,-0.19223881,0.010930859,-0.08666992,0.38099775,-0.39559242,0.58528996,47.59103,23.841223,2016-11-08 14:15:19,58.19493482206095
8.817246,-0.061650693,3.8025908,0.03604105,0.051618114,-0.050396383,16.0,9.003794,-0.07506372,3.8854158,-0.18654728,0.013413027,-0.082824945,0.38253665,-0.39426756,0.5868769,47.59103,23.841223,2016-11-08 14:15:20,52.54958608903095
8.822633,-0.08080431,3.8073792,0.040927973,0.052839845,-0.052839845,16.0,9.007432,-0.069073245,3.8770869,-0.1847992,-0.011731066,-0.06970763,0.38226032,-0.3951296,0.58543426,47.59103,23.841223,2016-11-08 14:15:21,55.05342931657546
8.818443,-0.059855044,3.8217444,0.043982297,0.05131268,-0.05222898,16.0,9.005567,-0.062121525,3.8815327,-0.1871233,0.0022664815,-0.059788227,0.38265795,-0.3947219,0.5856093,47.59103,23.841223,2016-11-08 14:15:22,65.09786085946767
8.800487,-0.076015905,3.8013937,0.03940081,0.058337633,-0.053145275,17.0,9.006876,-0.057210665,3.8785684,-0.20638943,-0.01880524,-0.07717466,0.38180217,-0.3955916,0.58384454,47.59103,23.841223,2016-11-08 14:15:23,62.40058090405568
8.808268,-0.073023155,3.7870286,0.03604105,0.05467244,-0.047647487,15.0,9.004523,-0.054567456,3.884067,-0.19625568,-0.0184557,-0.09703851,0.38309312,-0.3940548,0.5859995,47.59103,23.731674,2016-11-08 14:15:24,60.41384799516184
8.801684,-0.07062895,3.7852328,0.042760566,0.055283304,-0.05009095,16.0,9.00242,-0.05740385,3.8889003,-0.20073605,-0.013225097,-0.1036675,0.3808925,-0.39572054,0.58337635,47.59103,23.731674,2016-11-08 14:15:25,65.96346161352423
8.82802,-0.06584055,3.8013937,0.03940081,0.0580322,-0.053450707,16.0,8.997094,-0.06873305,3.9010227,-0.18822765,4.983023E-4,-0.100227356,0.38285726,-0.3931767,0.5878312,47.59103,23.731674,2016-11-08 14:15:26,54.57037018535874
8.779537,-0.05865794,3.779846,0.036651913,0.05375614,-0.05131268,18.0,8.994158,-0.08326368,3.9075024,-0.21462059,0.02460574,-0.12765646,0.3807019,-0.3947694,0.5858996,47.69563,23.733934,2016-11-08 14:15:27,69.66792663140023
8.808268,-0.0676362,3.7852328,0.038179077,0.056199603,-0.04734206,16.0,8.993323,-0.08193009,3.9094517,-0.18505573,0.014293894,-0.12421894,0.3822768,-0.39328185,0.5881417,47.69563,23.733934,2016-11-08 14:15:28,55.91632418677272
8.820239,-0.07182605,3.7912183,0.03940081,0.061391957,-0.050701816,16.0,8.996312,-0.09072481,3.902374,-0.17607307,0.018898763,-0.11115575,0.38152647,-0.39435002,0.5871373,47.82428,23.682966,2016-11-08 14:15:29,52.9232165834991
8.805275,-0.05805939,3.8175547,0.042455133,0.055283304,-0.054367006,17.0,8.993464,-0.07941344,3.9091778,-0.1881895,0.021354046,-0.09162307,0.38120908,-0.39439747,0.5863899,47.82428,23.682966,2016-11-08 14:15:30,50.74610351172198
8.811859,-0.06703765,3.8019924,0.04062254,0.056199603,-0.05131268,16.0,8.998131,-0.07377163,3.8985357,-0.18627167,0.0067339838,-0.09654331,0.38123986,-0.3947234,0.58562607,47.82428,23.682966,2016-11-08 14:15:31,63.85334885150329
8.795698,-0.08379706,3.7942111,0.043066,0.06169739,-0.049785517,16.0,9.004685,-0.06889526,3.8834648,-0.20898724,-0.014901802,-0.089253664,0.38241366,-0.3946168,0.58608675,47.82428,23.68575,2016-11-08 14:15:32,66.00076980342654
8.830415,-0.07062895,3.8187518,0.033292156,0.056199603,-0.050701816,16.0,9.0020895,-0.068360716,3.8894873,-0.17167473,-0.0022682324,-0.070735455,0.38307506,-0.39370042,0.58722365,47.82428,23.68575,2016-11-08 14:15:33,56.180795597570146
8.816648,-0.061052144,3.8031895,0.03359759,0.062002823,-0.051618114,16.0,8.997034,-0.07238632,3.9010966,-0.18038654,0.011334173,-0.09790707,0.38123724,-0.39464283,0.58565545,47.82428,23.68575,2016-11-08 14:15:34,49.709577010384514
8.808268,-0.06703765,3.7924154,0.04184427,0.0571159,-0.053450707,16.0,9.000336,-0.08103783,3.8932986,-0.1920681,0.014000177,-0.100883245,0.38336864,-0.3931335,0.5888663,47.692444,23.798767,2016-11-08 14:15:35,67.41010691980124
8.80767,-0.06404489,3.7822402,0.0421497,0.06169739,-0.049480084,16.0,8.994594,-0.07996318,3.9065728,-0.18692398,0.015918285,-0.12433267,0.38264614,-0.39309913,0.5886341,47.692444,23.798767,2016-11-08 14:15:36,60.65167571183666
8.811859,-0.053869538,3.803788,0.03604105,0.062002823,-0.05222898,16.0,8.999574,-0.074747786,3.895187,-0.18771458,0.020878248,-0.091398954,0.38160884,-0.39475656,0.5859297,47.692444,23.798767,2016-11-08 14:15:37,49.81227599504887
8.822633,-0.061052144,3.803788,0.040927973,0.058643065,-0.049480084,16.0,8.9967375,-0.08306787,3.9015648,-0.17410469,0.022015728,-0.09777689,0.38093612,-0.39505947,0.585789,47.79622,23.74572,2016-11-08 14:15:39,61.42371805272158
8.809465,-0.065242,3.8031895,0.03634648,0.053145275,-0.04734206,16.0,8.994758,-0.08777794,3.9060235,-0.18529224,0.022535942,-0.10283399,0.3810482,-0.39464068,0.5865057,47.79622,23.74572,2016-11-08 14:15:40,66.62912933492446
8.819042,-0.06404489,3.788824,0.033292156,0.05589417,-0.05131268,16.0,9.001634,-0.090431094,3.8900902,-0.18259144,0.026386201,-0.101266146,0.38131627,-0.39521298,0.5862464,47.79622,23.74572,2016-11-08 14:15:41,50.22025942843075
8.814852,-0.0688333,3.793014,0.038179077,0.058643065,-0.05009095,16.0,9.0021515,-0.08441022,3.8890297,-0.18729973,0.015576921,-0.09601569,0.38193318,-0.3946632,0.58679444,47.79622,23.74572,2016-11-08 14:15:42,65.74317986606499
8.807071,-0.08020575,3.7912183,0.037873644,0.05497787,-0.051923547,17.0,9.006554,-0.0763675,3.87899,-0.19170189,0.014716804,-0.061435223,0.38302186,-0.39425638,0.587205,47.79622,23.74572,2016-11-08 14:15:43,66.54838461399902
8.804677,-0.0664391,3.7924154,0.03848451,0.056505036,-0.05009095,16.0,9.006219,-0.0691995,3.879899,-0.2015419,0.0027604029,-0.087483644,0.3803952,-0.39701334,0.58255863,47.79622,23.74572,2016-11-08 14:15:44,60.327797801889524
8.802282,-0.06344634,3.8019924,0.03481932,0.05497787,-0.05222898,16.0,9.0054865,-0.062151335,3.8817184,-0.20320415,-0.0012950078,-0.07972598,0.38052925,-0.39649576,0.58262527,47.79622,23.74572,2016-11-08 14:15:45,63.35396296114125
8.812458,-0.051475335,3.7912183,0.03756821,0.052839845,-0.05131268,16.0,8.999908,-0.06649317,3.894565,-0.18745041,0.015017834,-0.103346825,0.38281545,-0.39360297,0.58704275,47.79622,23.74572,2016-11-08 14:15:46,65.95739376603595
8.822035,-0.08499416,3.7936125,0.037873644,0.056505036,-0.050701816,16.0,8.998233,-0.06696487,3.8984253,-0.176198,-0.018029287,-0.10481286,0.38051322,-0.39557928,0.58397114,47.79622,23.64732,2016-11-08 14:15:47,49.716282236309155
8.798093,-0.077213004,3.7762547,0.035430185,0.055283304,-0.050396383,16.0,9.004185,-0.0723682,3.884561,-0.20609188,-0.004844807,-0.10830641,0.38223058,-0.3946805,0.5861157,47.79622,23.64732,2016-11-08 14:15:48,63.749684540981065
8.805275,-0.074818805,3.8133647,0.03940081,0.057726767,-0.052839845,16.0,9.003089,-0.0809177,3.8869307,-0.19781399,0.0060988963,-0.07356596,0.38126248,-0.39540568,0.5854402,47.79622,23.64732,2016-11-08 14:15:49,65.81415527833299
8.799889,-0.05746084,3.8127663,0.038179077,0.059864793,-0.05131268,16.0,9.004389,-0.07528584,3.8840325,-0.2045002,0.017824996,-0.071266174,0.38051942,-0.3963904,0.5835167,47.82792,23.704992,2016-11-08 14:15:50,63.31124929611214
8.80767,-0.06344634,3.7948096,0.035430185,0.056199603,-0.049480084,16.0,9.0028,-0.07171528,3.887779,-0.19513035,0.0082689375,-0.09296942,0.38316703,-0.39365417,0.587555,47.82792,23.704992,2016-11-08 14:15:51,61.266089898622695
8.821436,-0.073621705,3.7750576,0.036651913,0.064446285,-0.05100725,16.0,9.006109,-0.067923784,3.880177,-0.18467331,-0.005697921,-0.10511947,0.38234088,-0.3947553,0.5858513,47.82792,23.704992,2016-11-08 14:15:52,60.96793517674831
8.796297,-0.05686229,3.7732618,0.035430185,0.05589417,-0.04917465,16.0,9.008549,-0.07620821,3.8743553,-0.21225166,0.01934592,-0.10109353,0.38326973,-0.3942408,0.5872509,47.75622,23.704992,2016-11-08 14:15:53,66.63181632391576
8.823831,-0.0664391,3.819949,0.036957346,0.05009095,-0.04886922,16.0,9.011003,-0.08366262,3.8684921,-0.18717194,0.017223522,-0.048543215,0.38104528,-0.39690503,0.5838407,47.75622,23.704992,2016-11-08 14:15:54,58.48596330564624
8.80767,-0.06823475,3.7535098,0.030543262,0.06505715,-0.050396383,17.0,9.011939,-0.08880612,3.866192,-0.20426941,0.020571373,-0.11268234,0.38296577,-0.39527076,0.58665884,47.75622,23.704992,2016-11-08 14:15:55,59.40823756765763
8.79929,-0.06703765,3.791817,0.03604105,0.06047566,-0.048563786,16.0,9.004436,-0.084085226,3.883744,-0.20514584,0.017047577,-0.09192705,0.37974086,-0.39726916,0.58290637,47.75622,23.704992,2016-11-08 14:15:56,60.3443845857627
8.814852,-0.061052144,3.7774518,0.03756821,0.05681047,-0.050701816,16.0,9.00748,-0.07556874,3.876852,-0.1926279,0.0145165995,-0.09940028,0.38338,-0.39427933,0.5872539,47.75622,23.704992,2016-11-08 14:15:57,63.94381347383443
8.815451,-0.08140286,3.7960067,0.038789943,0.05955936,-0.050701816,16.0,9.008053,-0.06465718,3.8757188,-0.19260216,-0.01674568,-0.07971215,0.38223416,-0.39534277,0.58503294,47.75622,23.704992,2016-11-08 14:15:58,53.77069196473119
8.81964,-0.059855044,3.7762547,0.03604105,0.051923547,-0.050396383,16.0,9.008863,-0.06424422,3.8738434,-0.18922329,0.0043891743,-0.09758878,0.38199306,-0.39565033,0.5844389,47.62589,23.797567,2016-11-08 14:15:59,61.04029525771295
8.815451,-0.047285482,3.7786489,0.03145956,0.06291912,-0.052534413,16.0,9.010199,-0.06406126,3.8707385,-0.19474792,0.01677578,-0.09208965,0.38012686,-0.3976415,0.5814509,47.62589,23.797567,2016-11-08 14:16:00,67.85998973119484
8.806473,-0.0676362,3.7978024,0.036651913,0.058643065,-0.048563786,15.0,9.008224,-0.063326515,3.8753426,-0.20175076,-0.004309684,-0.07754016,0.38437077,-0.3933602,0.58796936,47.739655,23.733494,2016-11-08 14:16:01,55.115491871415394
8.804677,-0.08678981,3.7732618,0.042760566,0.055283304,-0.052839845,15.0,9.008543,-0.060207803,3.874652,-0.203866,-0.026582006,-0.10139012,0.3812954,-0.3963569,0.5830366,47.739655,23.733494,2016-11-08 14:16:02,57.09156559721524
8.811859,-0.07182605,3.769072,0.031154128,0.05955936,-0.04886922,15.0,9.009371,-0.063877724,3.872669,-0.19751167,-0.007948324,-0.103596926,0.38317084,-0.3947432,0.5858346,47.739655,23.733494,2016-11-08 14:16:03,67.08522296566179
8.80767,-0.05686229,3.7786489,0.042455133,0.055588737,-0.05009095,16.0,9.011493,-0.06371289,3.8677287,-0.20382309,0.0068505965,-0.08907986,0.38312432,-0.39502165,0.58552176,47.739655,23.733494,2016-11-08 14:16:04,64.56950947211764
8.822633,-0.05746084,3.7618895,0.036651913,0.056199603,-0.04886922,16.0,9.008838,-0.067259476,3.873851,-0.18620491,0.009798635,-0.1119616,0.38131586,-0.3963934,0.58349216,47.739655,23.733494,2016-11-08 14:16:05,63.891807361397696
8.822035,-0.074220255,3.7804444,0.04062254,0.05681047,-0.048563786,16.0,9.008073,-0.06860796,3.8756037,-0.18603802,-0.0056122914,-0.09515929,0.382909,-0.39452508,0.5862706,47.739655,23.733494,2016-11-08 14:16:06,66.11879358492473
8.802881,-0.074220255,3.7828386,0.036651913,0.056199603,-0.04917465,17.0,9.008537,-0.06809885,3.8745365,-0.20565605,-0.0061214045,-0.09169793,0.38411036,-0.3934775,0.5878853,47.815735,23.733494,2016-11-08 14:16:07,51.67560424834508
8.809465,-0.0664391,3.7792473,0.035124753,0.057421334,-0.04917465,17.0,9.011152,-0.07342267,3.8683498,-0.20168686,0.0069835708,-0.08910251,0.38109645,-0.3968334,0.58324575,47.815735,23.733494,2016-11-08 14:16:08,55.65009101749201
8.812458,-0.062249243,3.769072,0.033292156,0.0571159,-0.05131268,16.0,9.009238,-0.08538491,3.8725622,-0.1967802,0.02313567,-0.103490114,0.38186187,-0.39582765,0.5855419,47.815735,23.733494,2016-11-08 14:16:09,61.542785564530405
8.816648,-0.07062895,3.7732618,0.03176499,0.06261369,-0.05131268,18.0,9.00853,-0.08730799,3.8741655,-0.19188213,0.016679041,-0.10090375,0.38200536,-0.3955798,0.58592135,47.81008,23.759146,2016-11-08 14:16:10,64.06682755468917
8.80767,-0.060453594,3.7906199,0.038789943,0.062308256,-0.048258353,18.0,9.009874,-0.08501579,3.8710864,-0.2022047,0.024562195,-0.08046651,0.37799287,-0.39963084,0.5795546,47.81008,23.759146,2016-11-08 14:16:11,62.419639774513456
8.799889,-0.076015905,3.7792473,0.03604105,0.054061573,-0.050701816,16.0,9.008921,-0.08359686,3.8733382,-0.20903206,0.0075809583,-0.09409094,0.38290808,-0.3948622,0.5868999,47.81008,23.759146,2016-11-08 14:16:12,65.58581152838539
8.804078,-0.08080431,3.7726634,0.03940081,0.0571159,-0.05100725,17.0,9.00774,-0.07900515,3.87618,-0.20366192,-0.0017991588,-0.10351658,0.3843147,-0.3932961,0.5889229,47.84013,23.750092,2016-11-08 14:16:13,61.76474772860761
8.808268,-0.061650693,3.7672763,0.036651913,0.060170226,-0.050701816,15.0,9.0042305,-0.07746669,3.8843567,-0.1959629,0.015815996,-0.11708045,0.38133657,-0.39567745,0.5849387,47.84013,23.750092,2016-11-08 14:16:14,52.002938698071475
8.817246,-0.08379706,3.7732618,0.03481932,0.06291912,-0.05009095,14.0,9.0085535,-0.07675941,3.8743348,-0.199687,0.006729014,-0.09269333,0.38222778,-0.39555553,0.5853704,47.84013,23.750092,2016-11-08 14:16:15,66.1815149674214
8.81964,-0.061650693,3.7630866,0.04153884,0.056505036,-0.050396383,14.0,9.011179,-0.075342536,3.8682532,-0.19153881,0.013691843,-0.10516667,0.38288838,-0.3952647,0.58601505,47.84013,23.750092,2016-11-08 14:16:16,63.32948358429712
8.804078,-0.06284779,3.7762547,0.033292156,0.059253927,-0.051923547,14.0,9.006811,-0.071908765,3.878476,-0.20273304,0.009060971,-0.10222125,0.38091716,-0.3964642,0.5834186,47.84013,23.750092,2016-11-08 14:16:17,62.860343726537664
8.801684,-0.06584055,3.776853,0.035124753,0.06414085,-0.05100725,14.0,9.006465,-0.08135346,3.879091,-0.20478058,0.015512913,-0.10223794,0.3820053,-0.39538667,0.58561647,47.925396,23.73393,2016-11-08 14:16:18,58.56896882528411
8.806473,-0.060453594,3.7594953,0.03756821,0.061391957,-0.049785517,14.0,9.0069895,-0.082888715,3.8778405,-0.2005167,0.022435121,-0.11834526,0.38205624,-0.39549813,0.5857145,47.925396,23.73393,2016-11-08 14:16:19,60.47725215818189
8.805275,-0.06404489,3.7762547,0.03573562,0.060170226,-0.05100725,14.0,9.006704,-0.084073834,3.8784797,-0.20142937,0.020028941,-0.102225065,0.3815801,-0.3957929,0.58535767,47.925396,23.73393,2016-11-08 14:16:20,56.81709035350005
8.802881,-0.060453594,3.7786489,0.03726278,0.0580322,-0.048258353,14.0,9.002752,-0.06757628,3.8879633,-0.19987106,0.007122688,-0.10931444,0.38273522,-0.39419562,0.58651423,47.925396,23.73393,2016-11-08 14:16:21,57.684867877854714
8.812458,-0.060453594,3.7762547,0.03481932,0.057726767,-0.05100725,14.0,9.004611,-0.07517361,3.8835187,-0.19215298,0.014720015,-0.10726404,0.3813435,-0.39562848,0.58482033,47.925396,23.73393,2016-11-08 14:16:22,68.4054679547886
8.806473,-0.077811554,3.7618895,0.034208454,0.054367006,-0.050396383,14.0,9.010232,-0.07964081,3.870372,-0.2037592,0.0018292591,-0.1084826,0.3832508,-0.39462426,0.5870687,47.925396,23.73393,2016-11-08 14:16:23,63.55108074632409
8.817844,-0.077213004,3.757101,0.032070424,0.061086524,-0.05100725,14.0,9.011933,-0.07387158,3.866522,-0.19408894,-0.0033414215,-0.109421015,0.3808231,-0.39737597,0.582686,48.057575,23.666157,2016-11-08 14:16:24,54.29554703168314
8.813655,-0.07182605,3.7894228,0.03573562,0.061391957,-0.05222898,14.0,9.01129,-0.07000702,3.8680928,-0.1976347,-0.0018190295,-0.078670025,0.3830185,-0.3951042,0.58575237,48.057575,23.666157,2016-11-08 14:16:25,59.6582821744646
8.810662,-0.05805939,3.7672763,0.03359759,0.060170226,-0.050396383,14.0,9.010011,-0.07099457,3.8710535,-0.19934845,0.01293518,-0.10377717,0.38330197,-0.39475343,0.58637834,48.057575,23.666157,2016-11-08 14:16:26,48.24659039637009
8.800487,-0.073621705,3.7523127,0.029321533,0.062002823,-0.04886922,14.0,9.011881,-0.07500965,3.866624,-0.21139431,0.0013879463,-0.11431146,0.38198444,-0.39607343,0.58460146,47.943634,23.712317,2016-11-08 14:16:28,60.32932574829853
8.811859,-0.065242,3.7870286,0.03634648,0.057421334,-0.05100725,14.0,9.007043,-0.08274229,3.8777235,-0.19518375,0.017500289,-0.090694904,0.38281792,-0.39462918,0.5871106,47.943634,23.712317,2016-11-08 14:16:29,63.827763263456355
8.798093,-0.05626374,3.7792473,0.0421497,0.05589417,-0.05100725,14.0,9.011851,-0.077191375,3.8666463,-0.21375847,0.020927634,-0.087399006,0.3815597,-0.39639723,0.5841721,47.943634,23.712317,2016-11-08 14:16:30,64.05032699571535
8.798093,-0.0700304,3.7547069,0.035430185,0.061086524,-0.049785517,14.0,9.019703,-0.06587562,3.8485072,-0.22161007,-0.004154779,-0.09380031,0.38279155,-0.39644772,0.58401185,47.943634,23.712317,2016-11-08 14:16:31,59.33620302324993
8.79929,-0.054468088,3.7822402,0.038179077,0.0580322,-0.048563786,14.0,9.017663,-0.06699498,3.8532662,-0.20580387,-0.0042325184,-0.09077835,0.38067976,-0.39818278,0.5811837,47.943634,23.712317,2016-11-08 14:16:32,62.29158606607495
8.811859,-0.08200141,3.7547069,0.031154128,0.064446285,-0.04917465,14.0,9.013922,-0.07409926,3.8618789,-0.2020626,-0.007902153,-0.10717201,0.38349545,-0.39500663,0.58640903,47.943634,23.712317,2016-11-08 14:16:33,59.05360209201899
8.81605,-0.06823475,3.7672763,0.034208454,0.06566802,-0.04886922,15.0,9.01398,-0.077686176,3.8616745,-0.19793034,0.009451427,-0.09439826,0.3810095,-0.3974673,0.5828735,47.943634,23.712317,2016-11-08 14:16:34,65.07177837769581
8.808268,-0.078410104,3.7714663,0.029321533,0.061391957,-0.050396383,16.0,9.012479,-0.08014935,3.865123,-0.20421124,0.0017392486,-0.09365678,0.38221222,-0.3961166,0.58502007,47.943634,23.712317,2016-11-08 14:16:35,61.3721418873761
8.813655,-0.06284779,3.7726634,0.035430185,0.061086524,-0.05131268,14.0,9.014646,-0.07510697,3.8601713,-0.20099068,0.012259178,-0.08750796,0.38434738,-0.39425755,0.5875831,47.943634,23.712317,2016-11-08 14:16:36,64.86318825896856
8.798691,-0.05686229,3.7565024,0.035430185,0.061391957,-0.048258353,9.0,9.012249,-0.06952976,3.8658702,-0.2135582,0.012667466,-0.10936785,0.38372722,-0.39468715,0.58657116,47.943634,23.712317,2016-11-08 14:16:37,66.36730262365062
8.796297,-0.0676362,3.7960067,0.035430185,0.061391957,-0.054367006,9.0,9.009958,-0.075916536,3.8710816,-0.2136612,0.008280337,-0.07507491,0.3837578,-0.3941516,0.587466,47.943634,23.712317,2016-11-08 14:16:38,65.19768196992915
8.824429,-0.07182605,3.7708676,0.029321533,0.055588737,-0.049785517,8.0,9.009715,-0.07236031,3.8717153,-0.18528652,5.342588E-4,-0.10084772,0.38351688,-0.39423737,0.5871085,47.943634,23.712317,2016-11-08 14:16:39,60.992285478986304
8.801684,-0.046088383,3.7684734,0.034208454,0.061391957,-0.054061573,8.0,9.005626,-0.076650694,3.881137,-0.20394135,0.030562311,-0.11266351,0.38326228,-0.39398527,0.5876588,47.943634,23.712317,2016-11-08 14:16:40,57.83585972132633
8.810662,-0.037110128,3.8019924,0.038179077,0.06169739,-0.050701816,9.0,9.008341,-0.07587913,3.8748448,-0.19767857,0.038769,-0.07285237,0.3837426,-0.39381465,0.5879518,47.943634,23.712317,2016-11-08 14:16:41,62.43019264095847
8.815451,-0.061052144,3.7696705,0.027488936,0.059253927,-0.051618114,11.0,9.010056,-0.073619366,3.8709004,-0.19460487,0.012567222,-0.101229906,0.38172728,-0.39611334,0.58437365,48.00321,23.680721,2016-11-08 14:16:42,65.00120521853803
8.802282,-0.074818805,3.7684734,0.034208454,0.06047566,-0.050701816,11.0,9.013215,-0.073658526,3.863538,-0.21093273,-0.0011602789,-0.09506464,0.38389233,-0.39428753,0.5873562,48.00321,23.680721,2016-11-08 14:16:43,59.74300048306073
8.79929,-0.06943185,3.7708676,0.03481932,0.06719518,-0.05222898,14.0,9.01514,-0.06458295,3.859206,-0.21584988,-0.0048488975,-0.088338375,0.3854928,-0.39334887,0.58839977,48.00321,23.680721,2016-11-08 14:16:44,56.553548648759985
8.812458,-0.061650693,3.7702692,0.03726278,0.061391957,-0.054061573,16.0,9.013443,-0.0703928,3.863067,-0.20098495,0.008742109,-0.092797756,0.38304818,-0.39537013,0.58557254,47.903362,23.727182,2016-11-08 14:16:45,56.937928961025435
8.790312,-0.06464344,3.7654808,0.032070424,0.062308256,-0.05009095,17.0,9.014407,-0.07813597,3.8606675,-0.22409534,0.013492525,-0.09518671,0.38280612,-0.3956029,0.58563584,47.903362,23.727182,2016-11-08 14:16:46,57.748104823848934
8.672996,-0.024540568,3.6499605,0.03390302,0.07238753,-0.050396383,16.0,9.009197,-0.084740184,3.8726711,-0.33620167,0.06019962,-0.22271061,0.38248488,-0.3954068,0.5860654,47.903362,23.727182,2016-11-08 14:16:47,67.31446299347802
8.811859,-0.046686932,3.7720647,0.036957346,0.06291912,-0.05100725,19.0,9.012572,-0.08442045,3.8648162,-0.19891739,0.0161857,-0.10771513,0.38333586,-0.39498776,0.58710253,47.943027,23.727182,2016-11-08 14:16:48,65.92878913952985
8.798691,-0.061052144,3.755904,0.03023783,0.06169739,-0.04734206,14.0,9.013773,-0.07621815,3.8621857,-0.21508217,0.015166007,-0.10628176,0.38282216,-0.3956394,0.5855577,47.943027,23.727182,2016-11-08 14:16:49,62.3654151299002
8.842385,-0.05925649,3.7954082,0.03634648,0.06047566,-0.04886922,13.0,9.012881,-0.082957104,3.8641276,-0.17049599,0.023700614,-0.06871939,0.3828086,-0.39588475,0.5857094,47.70714,23.81879,2016-11-08 14:16:50,56.718468330720306
8.944737,-0.046686932,3.9121256,0.036957346,0.062308256,-0.046120327,13.0,9.017443,-0.077079736,3.8535938,-0.07270527,0.030392803,0.05853176,0.38200122,-0.3966766,0.5840005,47.70714,23.81879,2016-11-08 14:16:51,54.538888008025964
8.801085,-0.0724246,3.7499185,0.028405234,0.06291912,-0.05100725,13.0,9.020668,-0.075988136,3.8460598,-0.21958256,0.0035635382,-0.09614134,0.38113266,-0.39806554,0.58210546,47.70714,23.81879,2016-11-08 14:16:52,59.13037460800754
8.801684,-0.05566519,3.7618895,0.03604105,0.058643065,-0.051923547,13.0,9.015029,-0.06958295,3.8593786,-0.21334457,0.013917755,-0.09748912,0.38299108,-0.39566943,0.58522844,47.83547,23.703888,2016-11-08 14:16:53,62.28531268112409
8.8088665,-0.065242,3.781043,0.031154128,0.062308256,-0.05497787,13.0,9.016682,-0.06663141,3.8555684,-0.20781517,0.0013894066,-0.07452536,0.38389596,-0.39506036,0.58600575,47.83547,23.703888,2016-11-08 14:16:54,65.76756101005319
8.785523,-0.05805939,3.7630866,0.03359759,0.064751714,-0.046731193,13.0,9.016618,-0.06490765,3.855747,-0.23109436,0.006848257,-0.09266043,0.38519067,-0.39370072,0.587965,47.83547,23.703888,2016-11-08 14:16:55,62.782000849801165
8.801085,-0.05626374,3.764882,0.032986723,0.06566802,-0.051618114,14.0,9.018769,-0.060726274,3.8507795,-0.21768379,0.0044625327,-0.085897446,0.38451344,-0.3947581,0.58630574,47.696438,23.748049,2016-11-08 14:16:56,64.75574369232152
8.823232,-0.06823475,3.7481227,0.035124753,0.061086524,-0.051618114,13.0,9.015191,-0.0647358,3.8590858,-0.19195938,-0.003498949,-0.110963106,0.38300028,-0.39558074,0.58497983,47.696438,23.748049,2016-11-08 14:16:57,50.46199698783088
8.787917,-0.062249243,3.7433343,0.027488936,0.063224554,-0.051923547,13.0,9.0164585,-0.06605916,3.8561003,-0.22854137,0.003809914,-0.11276603,0.3829126,-0.39582625,0.5847154,47.696438,23.748049,2016-11-08 14:16:58,58.50747204058461
8.8088665,-0.065242,3.7732618,0.033292156,0.061086524,-0.050396383,13.0,9.011603,-0.078796476,3.8671925,-0.20273685,0.013554476,-0.09393072,0.383527,-0.39440143,0.5874536,47.49525,23.844597,2016-11-08 14:16:59,59.55967781489846
8.818443,-0.061650693,3.7882257,0.032070424,0.06261369,-0.05100725,13.0,9.015231,-0.06885668,3.8589225,-0.19678783,0.0072059855,-0.07069683,0.38138276,-0.3973663,0.58264244,47.49525,23.844597,2016-11-08 14:17:00,58.223485965885814
8.814254,-0.0664391,3.7481227,0.03481932,0.065973446,-0.048563786,13.0,9.018782,-0.0628285,3.850715,-0.20452785,-0.003610596,-0.10259223,0.3834313,-0.39561054,0.5849795,47.49525,23.844597,2016-11-08 14:17:01,59.157494843067
8.814852,-0.047884032,3.7547069,0.03176499,0.06383542,-0.04917465,13.0,9.022102,-0.049290977,3.8431282,-0.2072506,0.0014069453,-0.088421345,0.38234964,-0.39731085,0.5817729,47.477257,23.844597,2016-11-08 14:17:02,62.46564061204708
8.783728,-0.05865794,3.7618895,0.03268129,0.062308256,-0.04734206,13.0,9.021562,-0.049790453,3.8443894,-0.23783398,-0.008867487,-0.08249998,0.38294128,-0.39646795,0.5828435,47.477257,23.844597,2016-11-08 14:17:03,66.54565190149556
8.804677,-0.073023155,3.7732618,0.034513887,0.06688975,-0.047647487,13.0,9.016631,-0.06166706,3.8557675,-0.22691822,-0.0035749413,-0.098068,0.3855124,-0.39343455,0.588196,47.477257,23.844597,2016-11-08 14:17:04,50.01961102448341
8.801684,-0.074220255,3.7576995,0.036957346,0.06169739,-0.052534413,13.0,9.019788,-0.05583558,3.8484676,-0.21810341,-0.018384676,-0.0907681,0.38434252,-0.39519843,0.5854238,47.447124,23.844597,2016-11-08 14:17:05,66.82713375025875
8.797494,-0.078410104,3.7672763,0.036957346,0.06352998,-0.04886922,13.0,9.017909,-0.046777535,3.8529882,-0.22041512,-0.03163257,-0.085711956,0.382679,-0.39638752,0.582792,47.447124,23.844597,2016-11-08 14:17:06,61.069872109036616
8.788516,-0.060453594,3.7553053,0.030543262,0.06047566,-0.048258353,13.0,9.018257,-0.05291852,3.8520935,-0.2297411,-0.007535074,-0.09678817,0.38443077,-0.39467853,0.5857925,47.447124,23.844597,2016-11-08 14:17:07,63.482720190299055
8.796896,-0.06703765,3.7535098,0.036651913,0.06078109,-0.05100725,13.0,9.020666,-0.058527008,3.8463695,-0.22377014,-0.008510642,-0.092859745,0.3821834,-0.39730507,0.5822336,47.447124,23.844597,2016-11-08 14:17:08,52.789636147242646
8.796896,-0.0796072,3.7523127,0.035430185,0.059864793,-0.04917465,13.0,9.022007,-0.062662795,3.8431575,-0.22511101,-0.016944408,-0.09084487,0.38181147,-0.39773816,0.58197415,47.447124,23.844597,2016-11-08 14:17:09,66.79389273148008
8.805275,-0.065242,3.7726634,0.03390302,0.06169739,-0.052839845,13.0,9.020938,-0.064454064,3.84564,-0.21566296,-7.8793615E-4,-0.07297659,0.3816937,-0.3977241,0.58191735,47.447124,23.844597,2016-11-08 14:17:10,65.73043970505051
8.811261,-0.076015905,3.7487214,0.034513887,0.065973446,-0.051618114,13.0,9.022452,-0.06800386,3.8420234,-0.21119118,-0.008012041,-0.09330201,0.38423634,-0.39568186,0.58568805,47.447124,23.844597,2016-11-08 14:17:11,59.36889372507132
8.811261,-0.073023155,3.7487214,0.03145956,0.06383542,-0.053145275,13.0,9.020288,-0.07585721,3.8469484,-0.20902729,0.0028340518,-0.098227024,0.3834631,-0.3959382,0.5855643,47.447124,23.844597,2016-11-08 14:17:12,53.3918456926229
8.795698,-0.0676362,3.7726634,0.029321533,0.06261369,-0.047647487,13.0,9.023898,-0.07523469,3.8384898,-0.22819996,0.0075984895,-0.065826416,0.3829337,-0.3970163,0.58407456,47.181763,23.984869,2016-11-08 14:17:13,65.29981115084647
8.801085,-0.0676362,3.7672763,0.027488936,0.070554934,-0.053145275,13.0,9.018541,-0.081142455,3.8509405,-0.21745586,0.013506256,-0.08366418,0.38469785,-0.3945512,0.58781546,47.181763,23.984869,2016-11-08 14:17:14,63.56496034933565
8.793902,-0.06464344,3.7493198,0.034513887,0.06627888,-0.051923547,13.0,9.015216,-0.077231124,3.8587952,-0.22131348,0.012587681,-0.109475374,0.38216826,-0.39673156,0.5841531,47.181763,23.984869,2016-11-08 14:17:15,59.66248985992745
8.791509,-0.05925649,3.767875,0.03390302,0.06872234,-0.050396383,13.0,9.017025,-0.07581892,3.8545938,-0.22551632,0.016562428,-0.0867188,0.38298795,-0.3961866,0.585007,47.426094,23.856977,2016-11-08 14:17:17,66.0720036539514
8.809465,-0.05865794,3.7702692,0.031154128,0.064751714,-0.04886922,13.0,9.013326,-0.075556174,3.8632455,-0.20386028,0.016898233,-0.09297633,0.38299906,-0.39556137,0.5858402,47.426094,23.856977,2016-11-08 14:17:18,55.65714360305114
8.796896,-0.06584055,3.7445314,0.03176499,0.06383542,-0.04795292,13.0,9.016397,-0.08195844,3.8559363,-0.2195015,0.016117893,-0.111404896,0.38262117,-0.39615393,0.58529353,47.426094,23.856977,2016-11-08 14:17:19,59.25999619606375
8.811859,-0.06584055,3.7469256,0.037873644,0.058643065,-0.05222898,13.0,9.017633,-0.085228555,3.8529747,-0.2057743,0.019388005,-0.10604906,0.3814059,-0.39754078,0.5834793,47.27024,23.946848,2016-11-08 14:17:20,65.0405838795018
8.820239,-0.06943185,3.7427359,0.030848695,0.06261369,-0.046731193,13.0,9.0181265,-0.08032705,3.851927,-0.21105576,0.033640116,-0.10380435,0.3842032,-0.39492694,0.5870692,47.27024,23.946848,2016-11-08 14:17:21,66.87214583365633
8.810662,-0.08020575,3.7481227,0.036957346,0.069027774,-0.05009095,13.0,9.017161,-0.083048284,3.8541265,-0.2064991,0.0028425306,-0.10600376,0.38368914,-0.39544088,0.58651876,47.398396,23.946848,2016-11-08 14:17:22,63.58596291790687
8.789713,-0.077811554,3.74513,0.032986723,0.06078109,-0.04886922,13.0,9.01938,-0.07552052,3.8490899,-0.22966671,-0.0022910312,-0.1039598,0.38378298,-0.39549392,0.5861474,47.398396,23.946848,2016-11-08 14:17:23,68.41560907281182
8.792108,-0.0724246,3.7499185,0.033292156,0.06719518,-0.048563786,13.0,9.025268,-0.07616671,3.8352523,-0.23316002,0.0037421137,-0.085333824,0.3836097,-0.39654985,0.58479816,47.398396,23.946848,2016-11-08 14:17:24,65.17700849893993
8.811261,-0.065242,3.762488,0.033292156,0.06872234,-0.05009095,13.0,9.023625,-0.06749796,3.839275,-0.2123642,0.0022559613,-0.076786995,0.38315755,-0.39677683,0.5839411,47.36622,23.946848,2016-11-08 14:17:25,61.83149697869467
8.809465,-0.06404489,3.727772,0.027183503,0.06169739,-0.04886922,13.0,9.019379,-0.073690675,3.8491282,-0.20991325,0.009645782,-0.12135625,0.38145456,-0.39792663,0.58223325,47.36622,23.946848,2016-11-08 14:17:26,67.68918554335988
8.814852,-0.08439561,3.751714,0.026267206,0.06627888,-0.049785517,13.0,9.017263,-0.07738018,3.8540056,-0.20241165,-0.0070154294,-0.102291584,0.3846857,-0.39455807,0.5875727,47.36622,23.946848,2016-11-08 14:17:27,67.27287106908251
8.824429,-0.05865794,3.739743,0.03176499,0.06872234,-0.051923547,13.0,9.020533,-0.08084493,3.846279,-0.19610405,0.02218699,-0.10653591,0.38472033,-0.3948472,0.587338,47.14714,24.055103,2016-11-08 14:17:28,52.46186449436184
8.8088665,-0.07062895,3.7427359,0.034513887,0.067500606,-0.04886922,13.0,9.015471,-0.08098931,3.8581197,-0.20660496,0.01036036,-0.11538386,0.38354224,-0.39514947,0.58672327,47.14714,24.055103,2016-11-08 14:17:29,63.15106844014515
8.805874,-0.061052144,3.7541082,0.030848695,0.064751714,-0.052839845,13.0,9.020185,-0.07467414,3.8472137,-0.2143116,0.013621993,-0.093105555,0.38379997,-0.39562294,0.58584315,47.14714,24.055103,2016-11-08 14:17:30,63.556066957251275
8.800487,-0.0688333,3.769072,0.034208454,0.062002823,-0.05009095,13.0,9.017776,-0.07907792,3.8527749,-0.21728897,0.010244623,-0.0837028,0.3831223,-0.39586323,0.58567345,47.31541,23.979015,2016-11-08 14:17:31,62.1318933645393
8.778939,-0.074818805,3.7223852,0.03268129,0.060170226,-0.050701816,13.0,9.015031,-0.084751,3.8590732,-0.23609161,0.009932198,-0.136688,0.38303387,-0.39575925,0.58596945,47.31541,23.979015,2016-11-08 14:17:32,66.4397681035392
8.805874,-0.074818805,3.7229836,0.028099801,0.06688975,-0.05009095,13.0,9.01919,-0.08114333,3.8494186,-0.21331596,0.006324522,-0.12643504,0.38302454,-0.39621696,0.58530784,47.31541,23.979015,2016-11-08 14:17:33,62.859394989369015
8.800487,-0.060453594,3.7600937,0.034513887,0.06536258,-0.04734206,13.0,9.0161495,-0.08588351,3.856429,-0.21566296,0.02542992,-0.09633541,0.38501507,-0.39403492,0.58881176,47.27373,24.013073,2016-11-08 14:17:34,59.30742026194059
8.796896,-0.062249243,3.7193923,0.0290161,0.063224554,-0.047647487,13.0,9.017183,-0.08041531,3.8541343,-0.22028732,0.018166065,-0.13474202,0.3823556,-0.3965279,0.58465916,47.27373,24.013073,2016-11-08 14:17:35,62.293778757400524
8.805874,-0.073023155,3.7576995,0.03634648,0.062002823,-0.045814894,13.0,9.018987,-0.067806296,3.8501508,-0.21311283,-0.0052168593,-0.092451334,0.38194188,-0.3973436,0.5826987,47.27373,24.013073,2016-11-08 14:17:36,69.23703858750068
8.810063,-0.0664391,3.7493198,0.032070424,0.06688975,-0.048258353,13.0,9.020862,-0.06489479,3.845807,-0.22636032,0.0068353973,-0.10606408,0.38269976,-0.39688376,0.58334833,47.00756,24.157444,2016-11-08 14:17:37,65.78002636451532
8.79929,-0.07062895,3.7271736,0.037873644,0.062002823,-0.048563786,14.0,9.02377,-0.056968674,3.8391018,-0.22448063,-0.013660274,-0.111928225,0.3819169,-0.3979104,0.58143246,47.00756,24.157444,2016-11-08 14:17:38,62.98170544196299
8.794501,-0.06943185,3.7367504,0.032986723,0.056199603,-0.050396383,14.0,9.022681,-0.06612287,3.841515,-0.22817993,-0.0033089817,-0.1047647,0.38359675,-0.39614224,0.58475935,47.05671,24.157444,2016-11-08 14:17:39,52.18963537685048
8.810063,-0.0700304,3.74094,0.027488936,0.06414085,-0.051923547,13.0,9.026351,-0.06357348,3.8329282,-0.21628761,-0.006456919,-0.09198809,0.38378024,-0.3965703,0.5841012,47.05671,24.157444,2016-11-08 14:17:40,65.40948660196182
8.783129,-0.065242,3.739743,0.02687807,0.062002823,-0.049785517,14.0,9.028019,-0.0665712,3.8289473,-0.24489021,0.0013291985,-0.08920431,0.3850757,-0.39571774,0.5858208,47.05671,24.157444,2016-11-08 14:17:41,61.991915902587884
8.80767,-0.075417355,3.7355533,0.030543262,0.070249505,-0.04886922,14.0,9.031792,-0.079561904,3.8197906,-0.22412205,0.0041445494,-0.08423734,0.38351732,-0.3978514,0.5836059,47.062332,24.157444,2016-11-08 14:17:42,58.14753654569291
8.814254,-0.06703765,3.7481227,0.0290161,0.06811147,-0.049785517,13.0,9.030986,-0.07801292,3.82173,-0.21673203,0.010975271,-0.07360721,0.3831477,-0.3978089,0.583517,47.062332,24.157444,2016-11-08 14:17:43,67.56480691787988
8.789114,-0.0676362,3.7499185,0.034208454,0.065973446,-0.048563786,14.0,9.030297,-0.07270137,3.823459,-0.24118328,0.005065173,-0.07354045,0.38404316,-0.39686874,0.5843172,47.062332,24.157444,2016-11-08 14:17:44,63.21720095783882
8.798691,-0.047285482,3.7343562,0.033292156,0.063224554,-0.050396383,13.0,9.030433,-0.067272626,3.8232386,-0.2317419,0.019987144,-0.08888245,0.38416195,-0.3968263,0.5843837,47.062332,24.157444,2016-11-08 14:17:45,64.00316222905315
8.79929,-0.060453594,3.7379475,0.03481932,0.06291912,-0.049785517,13.0,9.029533,-0.071435004,3.8252873,-0.23024368,0.010981411,-0.08733988,0.38552353,-0.39527288,0.58685,47.062332,24.157444,2016-11-08 14:17:46,57.560695098891344
8.798093,-0.06703765,3.7301662,0.032070424,0.065973446,-0.05009095,13.0,9.027103,-0.067935474,3.8310816,-0.22901058,8.9782476E-4,-0.10091543,0.38319576,-0.39722577,0.5833867,47.062332,24.157444,2016-11-08 14:17:47,62.07036230584766
8.796297,-0.076614454,3.739743,0.02687807,0.07086037,-0.05131268,13.0,9.028966,-0.07016981,3.8266494,-0.23266888,-0.006444648,-0.08690643,0.38436282,-0.39649647,0.5848495,47.085842,24.157444,2016-11-08 14:17:48,63.85723851301794
8.792108,-0.065242,3.7193923,0.03176499,0.06566802,-0.049785517,13.0,9.025879,-0.0692448,3.833943,-0.23377132,0.004002802,-0.11455059,0.3850951,-0.39537144,0.58635616,47.085842,24.157444,2016-11-08 14:17:49,63.56655911352746
8.80767,-0.05207389,3.7355533,0.027488936,0.062308256,-0.04917465,13.0,9.023792,-0.066811144,3.8388948,-0.21612263,0.014737256,-0.10334158,0.3836695,-0.396384,0.5846227,47.085842,24.157444,2016-11-08 14:17:50,50.69124587005469
8.765771,-0.06584055,3.7487214,0.02687807,0.06872234,-0.048563786,13.0,9.025219,-0.0759405,3.8353705,-0.25944805,0.010099947,-0.08664918,0.38361597,-0.3966448,0.5847472,47.085842,24.157444,2016-11-08 14:17:51,68.47936710564207
8.79091,-0.0700304,3.7283707,0.028405234,0.064751714,-0.05100725,13.0,9.025141,-0.07281565,3.83561,-0.234231,0.0027852505,-0.10723925,0.3825132,-0.39779955,0.58292925,47.085842,24.157444,2016-11-08 14:17:52,64.10301805419854
8.786121,-0.045489833,3.7475243,0.034208454,0.062308256,-0.050701816,14.0,9.023943,-0.07153087,3.8384545,-0.22285748,0.008683078,-0.12564611,0.38495177,-0.39501032,0.58696127,47.085842,24.157444,2016-11-08 14:17:53,67.0160918435632
8.801085,-0.040102877,3.7247794,0.0290161,0.06994407,-0.049480084,13.0,9.0308275,-0.08394348,3.8219774,-0.22974205,0.043840602,-0.09719801,0.38176218,-0.39924443,0.58149153,47.236256,24.127728,2016-11-08 14:17:54,58.58016314667191
8.798691,-0.059855044,3.7163997,0.03176499,0.0711658,-0.04917465,13.0,9.0281725,-0.07522855,3.8284261,-0.2294817,0.015373506,-0.11202645,0.38283187,-0.39777982,0.5831928,47.236256,24.127728,2016-11-08 14:17:55,60.83795930071403
8.802881,-0.074818805,3.7301662,0.025961773,0.067500606,-0.05009095,13.0,9.023733,-0.07621815,3.8388574,-0.2208519,0.0013993457,-0.108691216,0.38484484,-0.39535922,0.58668405,47.236256,24.127728,2016-11-08 14:17:56,48.85597555060329
8.801085,-0.0676362,3.7181952,0.029321533,0.06688975,-0.050701816,13.0,9.02315,-0.07916005,3.840167,-0.22206497,0.01152385,-0.121971846,0.38302952,-0.39681622,0.5845167,47.236256,24.127728,2016-11-08 14:17:57,65.85297048571367
8.782531,-0.061650693,3.7187939,0.028405234,0.06291912,-0.05009095,13.0,9.025948,-0.08894231,3.8333733,-0.24341679,0.027291618,-0.11457944,0.38479805,-0.39556056,0.587342,47.236256,24.127728,2016-11-08 14:17:58,60.372233945437195
8.796297,-0.047884032,3.7086184,0.025045475,0.064446285,-0.047036625,13.0,9.027352,-0.08506518,3.830151,-0.23105526,0.037181146,-0.12153268,0.38466573,-0.395979,0.58664393,47.32532,24.127728,2016-11-08 14:17:59,62.17849178844585
8.810662,-0.076614454,3.7241807,0.026267206,0.06994407,-0.047036625,13.0,9.021568,-0.09035364,3.8436341,-0.21090603,0.013739184,-0.11945343,0.38375294,-0.39594612,0.5865927,47.32532,24.127728,2016-11-08 14:18:00,58.93594713639855
8.79091,-0.074818805,3.7110126,0.02687807,0.067500606,-0.053145275,13.0,9.020926,-0.09266017,3.845088,-0.23001671,0.017841361,-0.1340754,0.38207963,-0.3973846,0.5843845,47.32532,24.127728,2016-11-08 14:18:01,68.60104140160568
8.791509,-0.06584055,3.7140055,0.036651913,0.06627888,-0.049785517,13.0,9.024539,-0.09202275,3.8366144,-0.23303032,0.026182197,-0.1226089,0.38364878,-0.39640906,0.58594227,47.40773,24.12052,2016-11-08 14:18:02,67.28428687356848
8.78672,-0.0724246,3.7229836,0.029626964,0.070249505,-0.050701816,13.0,9.0224495,-0.09495646,3.8414555,-0.23572922,0.02253186,-0.11847186,0.38249838,-0.39720306,0.5847672,47.40773,24.12052,2016-11-08 14:18:03,65.04750771009773
8.791509,-0.05686229,3.7445314,0.028405234,0.06872234,-0.051923547,13.0,9.024282,-0.080571376,3.8374739,-0.23277378,0.023709085,-0.092942476,0.38464108,-0.3953772,0.58692324,47.40773,24.12052,2016-11-08 14:18:05,50.677916059717
8.789713,-0.073621705,3.7032316,0.032070424,0.06994407,-0.051618114,13.0,9.02072,-0.09134236,3.845607,-0.23100662,0.017720655,-0.14237547,0.38340056,-0.39619258,0.5861529,47.40773,24.12052,2016-11-08 14:18:06,53.16490726541246
8.773552,-0.0700304,3.7217865,0.029932396,0.069027774,-0.046731193,13.0,9.025555,-0.0824246,3.834441,-0.25200272,0.012394205,-0.11265445,0.38432252,-0.3959007,0.5864692,47.40773,24.12052,2016-11-08 14:18:07,50.15873291410101
8.783728,-0.06284779,3.719991,0.028710667,0.0711658,-0.048258353,13.0,9.025116,-0.08785715,3.8353572,-0.24138832,0.025009356,-0.11536622,0.38160264,-0.39855283,0.58249485,47.40773,24.12052,2016-11-08 14:18:08,62.948302801595375
8.796297,-0.077811554,3.726575,0.0290161,0.06811147,-0.049480084,13.0,9.022217,-0.08852438,3.8421557,-0.22591972,0.010712825,-0.1155808,0.38477013,-0.39508402,0.58792806,47.553917,24.082827,2016-11-08 14:18:09,53.705061453135016
8.780735,-0.06584055,3.7403417,0.029321533,0.067500606,-0.046120327,13.0,9.021591,-0.096209966,3.8434365,-0.22768879,0.020792611,-0.12284708,0.38451257,-0.39521068,0.5879856,47.553917,24.082827,2016-11-08 14:18:10,61.699898281275495
8.801684,-0.06404489,3.7283707,0.024129177,0.064446285,-0.051618114,13.0,9.022478,-0.089813836,3.8415134,-0.22079372,0.025768943,-0.11314273,0.3824411,-0.39727038,0.5845937,47.644436,24.066252,2016-11-08 14:18:11,59.49586198129492
8.815451,-0.05207389,3.7313633,0.02565634,0.065973446,-0.04886922,13.0,9.023416,-0.09766893,3.8391209,-0.2079649,0.045595042,-0.10775757,0.3829108,-0.39705798,0.5855011,47.644436,24.066252,2016-11-08 14:18:12,65.6672134022136
8.791509,-0.06284779,3.7104142,0.02443461,0.06169739,-0.04642576,13.0,9.02794,-0.087598495,3.8287084,-0.23643112,0.024750702,-0.11829424,0.38589627,-0.39468408,0.5887485,47.644436,24.066252,2016-11-08 14:18:13,50.34070971318803
8.797494,-0.0688333,3.7163997,0.027794369,0.0693332,-0.050396383,13.0,9.033012,-0.0831082,3.8168278,-0.23551846,0.014274903,-0.100428104,0.38354716,-0.39777064,0.5839813,47.742786,24.046232,2016-11-08 14:18:14,65.91031534505387
8.815451,-0.06584055,3.7074213,0.02565634,0.074830994,-0.04795292,13.0,9.033127,-0.07675094,3.8166904,-0.21767616,0.010910392,-0.10926914,0.38343972,-0.39793977,0.5831566,47.742786,24.046232,2016-11-08 14:18:15,61.78682212532786
8.793304,-0.0688333,3.7271736,0.024129177,0.06963864,-0.0421497,13.0,9.030876,-0.07440964,3.8220572,-0.23757172,0.0055763423,-0.09488368,0.38505968,-0.3960717,0.58592117,47.742786,24.046232,2016-11-08 14:18:16,50.62186155148893
8.791509,-0.06943185,3.7205894,0.027794369,0.07269296,-0.05100725,13.0,9.026993,-0.09168752,3.830847,-0.23548412,0.022255674,-0.110257626,0.38421056,-0.39631554,0.5863362,47.896225,23.977253,2016-11-08 14:18:17,63.894315412429705
8.809465,-0.08499416,3.7373488,0.025961773,0.07147124,-0.047647487,14.0,9.026107,-0.08739509,3.833035,-0.21664143,0.0024009272,-0.0956862,0.38369346,-0.3965551,0.58561337,47.896225,23.977253,2016-11-08 14:18:18,49.942162141027836
8.797494,-0.060453594,3.7301662,0.03145956,0.06352998,-0.049785517,14.0,9.028434,-0.08500088,3.827603,-0.23093987,0.024547286,-0.097436905,0.3850033,-0.39561296,0.58714324,47.896225,23.977253,2016-11-08 14:18:19,54.94115886358487
8.798093,-0.05327099,3.731962,0.03023783,0.0693332,-0.050701816,14.0,9.031872,-0.07392945,3.8197148,-0.23377895,0.020658463,-0.08775282,0.38396597,-0.39732283,0.58410686,47.896225,24.014221,2016-11-08 14:18:20,52.732337126177846
8.81964,-0.073023155,3.721188,0.028710667,0.06872234,-0.048563786,14.0,9.032122,-0.06419833,3.8192985,-0.2124815,-0.008824825,-0.09811044,0.383383,-0.39772752,0.58268607,47.896225,24.014221,2016-11-08 14:18:21,52.632919638075364
8.793304,-0.0664391,3.7074213,0.026572637,0.065973446,-0.04795292,14.0,9.033646,-0.057779405,3.815794,-0.24034119,-0.008659694,-0.10837269,0.38447273,-0.39722455,0.5833765,47.896225,24.014221,2016-11-08 14:18:22,50.023309180216195
8.801085,-0.05626374,3.7193923,0.03359759,0.07544186,-0.050701816,14.0,9.036134,-0.06287643,3.8098214,-0.2350483,0.006612692,-0.09042907,0.3866044,-0.3952449,0.5865904,47.896225,24.014221,2016-11-08 14:18:23,50.019001580577545
8.78672,-0.06464344,3.7044287,0.022602014,0.06811147,-0.048258353,13.0,9.033194,-0.06343144,3.8167758,-0.24647331,-0.0012120008,-0.112347126,0.38561094,-0.39600277,0.5856165,47.896225,24.014221,2016-11-08 14:18:24,58.87304915991947
8.7951,-0.076015905,3.6966474,0.031154128,0.069027774,-0.047036625,13.0,9.031129,-0.06895634,3.8215616,-0.23602867,-0.0070595667,-0.12491417,0.3837479,-0.39719212,0.58391225,47.896225,24.014221,2016-11-08 14:18:25,62.65795563002504
8.802282,-0.05686229,3.709217,0.029321533,0.067500606,-0.04886922,13.0,9.028654,-0.06979805,3.8273923,-0.22756863,0.007548809,-0.11099267,0.383839,-0.39688697,0.5842776,47.896225,24.031748,2016-11-08 14:18:26,67.2445420040643
8.804677,-0.040102877,3.7193923,0.022296581,0.069027774,-0.047647487,13.0,9.025015,-0.07536504,3.8358576,-0.22033787,0.03526216,-0.11646533,0.38421223,-0.3959882,0.5857455,47.896225,24.031748,2016-11-08 14:18:27,68.20951309150337
8.803479,-0.046088383,3.716998,0.026572637,0.06536258,-0.048258353,13.0,9.022081,-0.08421236,3.842569,-0.21860218,0.03812398,-0.12557101,0.3837515,-0.3960002,0.5860099,47.896225,24.031748,2016-11-08 14:18:28,62.332656726374
8.788516,-0.06703765,3.7187939,0.025961773,0.06688975,-0.050701816,13.0,9.023536,-0.08718144,3.8390865,-0.23501968,0.020143792,-0.12029266,0.38436452,-0.39581648,0.58675414,47.896225,24.031748,2016-11-08 14:18:29,67.80568366300189
8.908825,-0.10594343,3.8115692,0.025350908,0.067500606,-0.04886922,14.0,9.034594,-0.08437223,3.8130543,-0.12576866,-0.021571197,-0.0014851093,0.38401514,-0.39703238,0.5849134,47.896225,24.031748,2016-11-08 14:18:30,57.55301037401803
9.041104,-0.07062895,3.843891,0.025045475,0.07086037,-0.048258353,14.0,9.027486,-0.09597324,3.8295805,0.013618469,0.02534429,0.01431036,0.3840886,-0.3960859,0.58655405,47.72392,24.148802,2016-11-08 14:18:31,50.27112820743015
8.72088,-0.079008654,3.655946,0.035430185,0.06352998,-0.059253927,13.0,9.022589,-0.09512451,3.8411252,-0.30170918,0.01611586,-0.18517923,0.38453293,-0.39527512,0.5880782,47.72392,24.148802,2016-11-08 14:18:32,65.9608771569952
8.797494,-0.08619126,3.7152026,0.022907447,0.06627888,-0.047036625,14.0,9.019033,-0.08276129,3.8497481,-0.2215395,-0.0034299716,-0.13454556,0.38267517,-0.39653352,0.5848887,47.72392,24.148802,2016-11-08 14:18:33,63.80386182789125
8.520964,0.02633622,3.436278,0.015577064,0.07360926,-0.038179077,13.0,9.020648,-0.09321079,3.845723,-0.49968433,0.11954701,-0.4094448,0.3822456,-0.39724258,0.58458734,47.72392,24.148802,2016-11-08 14:18:34,62.78840077580697
7.9906483,-0.25737667,4.455011,0.0106901415,0.16737708,-0.04062254,13.0,9.021715,-0.048715223,3.8440442,-1.0310669,-0.20866145,0.6109667,0.3830877,-0.3964836,0.5864068,47.72392,24.148802,2016-11-08 14:18:35,65.11031659463538
8.783728,-0.08678981,3.7247794,0.029321533,0.06566802,-0.04734206,13.0,9.018782,-0.087583594,3.850233,-0.23505402,7.9378486E-4,-0.12545371,0.38248423,-0.39661255,0.5851624,47.72392,24.148802,2016-11-08 14:18:36,56.462277315887654
8.792108,-0.062249243,3.7313633,0.028099801,0.07360926,-0.046731193,13.0,9.0261,-0.08316198,3.8331435,-0.23399258,0.020912737,-0.101780176,0.38485017,-0.39546585,0.58707577,47.72392,24.148802,2016-11-08 14:18:37,66.34323431302639
8.801085,-0.0724246,3.693056,0.02565634,0.07360926,-0.046120327,13.0,9.030727,-0.07870675,3.8223238,-0.22964191,0.0062821507,-0.1292677,0.38464445,-0.39635056,0.58567405,47.72392,24.148802,2016-11-08 14:18:38,58.94602134218222
8.810662,-0.08738836,3.7152026,0.018936822,0.0729984,-0.047647487,13.0,9.029995,-0.08153116,3.823997,-0.2193327,-0.0058571994,-0.10879445,0.3838142,-0.39713913,0.5846015,47.72392,24.148802,2016-11-08 14:18:39,66.80619489224983
8.79929,-0.07182605,3.7008374,0.0290161,0.06658431,-0.046731193,13.0,9.026738,-0.08066636,3.8316965,-0.22744846,0.008840315,-0.13085914,0.3845621,-0.39580217,0.5865443,47.72392,24.148802,2016-11-08 14:18:40,63.73666869308618
8.822035,-0.037708677,3.726575,0.024740042,0.0693332,-0.046731193,13.0,9.0267315,-0.084070906,3.831636,-0.20469666,0.04636223,-0.105061054,0.38375616,-0.39666328,0.58550626,47.72392,24.148802,2016-11-08 14:18:41,60.97006814662355
8.788516,-0.08379706,3.7014358,0.027794369,0.067500606,-0.048563786,13.0,9.03256,-0.07506489,3.8180635,-0.23327065,0.0020417348,-0.10166383,0.3833863,-0.39785135,0.58339494,47.72392,24.148802,2016-11-08 14:18:42,50.766088320944846
8.793304,-0.06344634,3.7122097,0.026572637,0.07452556,-0.043676864,13.0,9.032467,-0.065636255,3.8184574,-0.23916245,0.002189912,-0.10624766,0.3842784,-0.39693725,0.58402693,47.72392,24.163618,2016-11-08 14:18:43,67.3032336779547
8.796896,-0.06584055,3.7217865,0.02321288,0.06566802,-0.047036625,13.0,9.03313,-0.0607064,3.8169725,-0.23623371,-0.0051341504,-0.095185995,0.38479376,-0.3964962,0.58462936,47.72392,24.163618,2016-11-08 14:18:44,57.041123156151
8.797494,-0.076614454,3.7187939,0.028099801,0.06658431,-0.044593163,13.0,9.030516,-0.058548927,3.823187,-0.23302174,-0.018065527,-0.104393244,0.3852177,-0.39582393,0.5853792,47.693497,24.245792,2016-11-08 14:18:45,49.51193408140453
8.804078,-0.05267244,3.7098155,0.026267206,0.06658431,-0.046731193,13.0,9.032289,-0.06261662,3.8189325,-0.22821045,0.009944178,-0.10911703,0.38455394,-0.39673826,0.5843861,47.693497,24.245792,2016-11-08 14:18:46,60.60677394069633
8.782531,-0.053869538,3.716998,0.023518313,0.070249505,-0.045814894,13.0,9.031509,-0.066734575,3.8207037,-0.24897861,0.012865037,-0.103705645,0.38348234,-0.3975615,0.5830682,47.693497,24.245792,2016-11-08 14:18:47,66.93577372347204
8.789713,-0.059855044,3.7134068,0.027794369,0.06994407,-0.04642576,13.0,9.030516,-0.07107874,3.822974,-0.24080276,0.011223696,-0.109567165,0.3859087,-0.39532444,0.5869017,47.693497,24.245792,2016-11-08 14:18:48,56.92613560035446
8.80767,-0.073621705,3.7193923,0.02565634,0.06780604,-0.04550946,13.0,9.029099,-0.0797735,3.8261435,-0.22142982,0.0061517954,-0.1067512,0.38383916,-0.39712495,0.5846712,47.693497,24.245792,2016-11-08 14:18:49,54.858086388283986
8.804078,-0.08319851,3.733159,0.027183503,0.06780604,-0.04795292,13.0,9.028656,-0.07934447,3.827202,-0.2245779,-0.0038540438,-0.09404302,0.3853549,-0.39543262,0.58717835,47.693497,24.245792,2016-11-08 14:18:50,55.66786222857097
8.810063,-0.06943185,3.7217865,0.02565634,0.07269296,-0.04795292,13.0,9.032991,-0.080694124,3.8169305,-0.22292805,0.011262275,-0.09514403,0.38453326,-0.39682555,0.5852503,47.78296,24.245792,2016-11-08 14:18:51,65.96140732618763
8.796896,-0.05746084,3.6900635,0.021380283,0.07544186,-0.04520403,13.0,9.028863,-0.09150369,3.826437,-0.23196697,0.034042846,-0.13637352,0.38270366,-0.39813834,0.5836763,47.78296,24.245792,2016-11-08 14:18:52,54.310780702054714
8.79091,-0.06404489,3.690662,0.01985312,0.0711658,-0.04795292,13.0,9.027764,-0.096210554,3.8289201,-0.23685455,0.03216566,-0.13825822,0.38196814,-0.39848885,0.58340174,47.78296,24.245792,2016-11-08 14:18:54,60.714152867159974
8.796297,-0.059855044,3.7181952,0.025350908,0.071776666,-0.048258353,13.0,9.025506,-0.09250848,3.8343287,-0.22920895,0.032653436,-0.11613345,0.38283008,-0.3977259,0.58445185,47.78296,24.245792,2016-11-08 14:18:55,64.21185077632516
8.799889,-0.08140286,3.7223852,0.023518313,0.07269296,-0.04734206,13.0,9.032289,-0.078258425,3.8186438,-0.23239994,-0.0031444356,-0.09625864,0.38330734,-0.39803123,0.5832555,47.78296,24.245792,2016-11-08 14:18:56,62.753603840595204
8.796896,-0.07062895,3.7187939,0.021991149,0.07941248,-0.04734206,13.0,9.028333,-0.085362114,3.8278341,-0.23143673,0.0147331655,-0.10904026,0.3834021,-0.39739603,0.5842451,47.78296,24.245792,2016-11-08 14:18:57,63.800375827602295
8.808268,-0.074818805,3.7020345,0.026572637,0.07238753,-0.05009095,13.0,9.030444,-0.08999737,3.8227432,-0.22217655,0.015178569,-0.120708704,0.38460505,-0.39636028,0.586387,47.78296,24.245792,2016-11-08 14:18:58,62.439870169677036
8.806473,-0.06823475,3.7175968,0.02443461,0.071776666,-0.046120327,13.0,9.0322275,-0.08376666,3.8186707,-0.23174095,0.012539163,-0.09269428,0.38608104,-0.39530373,0.58781135,47.78296,24.245792,2016-11-08 14:18:59,59.012133422099936
8.8088665,-0.05207389,3.7355533,0.0290161,0.074830994,-0.047647487,13.0,9.034533,-0.08559096,3.8131719,-0.22566605,0.03351707,-0.0776186,0.3846376,-0.3969502,0.5855169,47.78296,24.245792,2016-11-08 14:19:00,59.025250725403644
8.798093,-0.061650693,3.7223852,0.025961773,0.07391469,-0.04550946,13.0,9.035846,-0.08084464,3.8101637,-0.23775291,0.019193947,-0.08777857,0.38316482,-0.39866027,0.5827266,47.78296,24.245792,2016-11-08 14:19:01,52.36126240525155
8.804078,-0.075417355,3.7140055,0.025045475,0.070249505,-0.047647487,13.0,9.0412855,-0.06416005,3.797553,-0.23720741,-0.011257306,-0.08354759,0.3856618,-0.39697325,0.5846413,47.78296,24.245792,2016-11-08 14:19:02,65.04761008080757
8.79929,-0.08140286,3.6888664,0.020158553,0.07574729,-0.048258353,13.0,9.037671,-0.07450901,3.805961,-0.23838139,-0.006893851,-0.11709452,0.38598093,-0.3962034,0.5859756,47.88351,24.245792,2016-11-08 14:19:03,62.79101652683675
8.805874,-0.05566519,3.7193923,0.021380283,0.07666359,-0.04917465,13.0,9.038275,-0.06381138,3.8047197,-0.2324009,0.008146185,-0.08532739,0.38510424,-0.39708975,0.58411443,47.88351,24.245792,2016-11-08 14:19:04,59.63093781518495
8.787319,-0.06284779,3.7193923,0.02687807,0.06872234,-0.048563786,13.0,9.040769,-0.05713497,3.7988977,-0.25344944,-0.005712822,-0.07950544,0.38534173,-0.39722812,0.5837626,47.88351,24.245792,2016-11-08 14:19:05,56.11087630185027
8.803479,-0.076015905,3.7235823,0.02076942,0.0711658,-0.047647487,13.0,9.040413,-0.057068918,3.7997448,-0.23693371,-0.018946987,-0.07616258,0.38683558,-0.39569053,0.5861394,48.053192,24.245792,2016-11-08 14:19:06,59.11410991858999
8.795698,-0.06464344,3.709217,0.01985312,0.064751714,-0.050701816,13.0,9.036327,-0.056088384,3.8094666,-0.2406292,-0.008555058,-0.10024953,0.38362113,-0.3982831,0.5818733,48.053192,24.245792,2016-11-08 14:19:07,60.47199098486803
8.802881,-0.076614454,3.6822822,0.023823744,0.07696902,-0.04337143,13.0,9.035899,-0.07041618,3.8102467,-0.23301792,-0.006198272,-0.1279645,0.38492322,-0.3969465,0.58448607,48.053192,24.245792,2016-11-08 14:19:08,62.302845688104696
8.801684,-0.05746084,3.7140055,0.023518313,0.06841691,-0.04795292,13.0,9.026229,-0.07351328,3.8330367,-0.22454453,0.016052436,-0.11903119,0.38440296,-0.39619446,0.58543277,48.053192,24.245792,2016-11-08 14:19:09,65.02343991847589
8.7951,-0.059855044,3.7175968,0.022296581,0.07238753,-0.047647487,13.0,9.017482,-0.091634326,3.853183,-0.22238159,0.03177928,-0.13558626,0.38368043,-0.39536637,0.5872435,48.053192,24.245792,2016-11-08 14:19:10,61.83561862612385
8.817844,-0.05327099,3.7044287,0.022602014,0.07452556,-0.04337143,13.0,9.019408,-0.09808979,3.8485103,-0.20156384,0.044818804,-0.1440816,0.3839452,-0.39559728,0.5875289,48.053192,24.245792,2016-11-08 14:19:11,64.13707313609753
8.799889,-0.076015905,3.7098155,0.025961773,0.06872234,-0.049480084,13.0,9.021837,-0.09644436,3.8428562,-0.22194862,0.020428456,-0.13304067,0.3828135,-0.39675915,0.58567935,48.053192,24.245792,2016-11-08 14:19:12,64.97579638623803
8.797494,-0.074220255,3.714604,0.022907447,0.07544186,-0.04520403,13.0,9.030859,-0.0815411,3.8219566,-0.23336506,0.0073208436,-0.10735273,0.38565367,-0.39555252,0.58724725,48.053192,24.245792,2016-11-08 14:19:13,65.48173260953847
8.801085,-0.0664391,3.7098155,0.019242255,0.0693332,-0.047036625,13.0,9.025534,-0.07858283,3.8345761,-0.2244482,0.012143731,-0.12476063,0.38354892,-0.39662132,0.58512324,48.053192,24.245792,2016-11-08 14:19:14,57.80841407667634
8.795698,-0.074220255,3.6996403,0.025350908,0.0720821,-0.046120327,13.0,9.029352,-0.08452128,3.8254495,-0.22766781,0.003716968,-0.12760496,0.3825537,-0.39825088,0.5831274,48.053192,24.276182,2016-11-08 14:19:15,65.11689994300986
8.802282,-0.073023155,3.6996403,0.03023783,0.07422013,-0.04520403,13.0,9.035365,-0.069037005,3.8115346,-0.23308277,-0.00398615,-0.11189437,0.3852337,-0.39643174,0.58522004,48.053192,24.276182,2016-11-08 14:19:16,60.3177874580086
8.802282,-0.08499416,3.7193923,0.025350908,0.06505715,-0.051923547,13.0,9.03511,-0.06352087,3.8122327,-0.23282814,-0.021473289,-0.09284043,0.38433796,-0.39731276,0.5836376,48.277836,24.20323,2016-11-08 14:19:17,66.74390427433862
8.78672,-0.05925649,3.7110126,0.020463986,0.07147124,-0.04886922,13.0,9.032854,-0.07451485,3.817378,-0.2461338,0.015258361,-0.10636544,0.38464448,-0.39669573,0.58517253,48.277836,24.20323,2016-11-08 14:19:18,63.4624386701308
8.8088665,-0.05207389,3.6924577,0.02687807,0.071776666,-0.048258353,13.0,9.042105,-0.061374214,3.795653,-0.23323822,0.009300325,-0.10319543,0.38649404,-0.39651605,0.5853103,48.277836,24.20323,2016-11-08 14:19:19,62.99626160847703
8.781932,-0.06404489,3.7068229,0.021380283,0.069027774,-0.04642576,13.0,9.041524,-0.05888532,3.797076,-0.25959206,-0.0051595718,-0.090253115,0.38465098,-0.3981858,0.58247966,48.02524,24.338808,2016-11-08 14:19:20,50.40790118307366
8.791509,-0.0712275,3.721188,0.02443461,0.0711658,-0.044898596,13.0,9.042471,-0.056246497,3.7948623,-0.25096226,-0.014981002,-0.0736742,0.38454586,-0.3983178,0.58220327,48.02524,24.338808,2016-11-08 14:19:21,66.48275495815643
8.80767,-0.0676362,3.721188,0.024740042,0.07360926,-0.045814894,13.0,9.042257,-0.06022826,3.7953098,-0.23458767,-0.007407941,-0.07412171,0.38333935,-0.39932597,0.5805859,48.02524,24.338808,2016-11-08 14:19:22,66.53234560094708
8.789114,-0.06823475,3.7235823,0.02107485,0.07269296,-0.049785517,13.0,9.04144,-0.060897537,3.79724,-0.252326,-0.0073372126,-0.07365775,0.38519084,-0.3974712,0.58358616,47.932976,24.367783,2016-11-08 14:19:23,56.43769342368802
8.812458,-0.04189853,3.6888664,0.025961773,0.07238753,-0.052534413,13.0,9.043531,-0.062796354,3.7922287,-0.23107338,0.020897824,-0.10336232,0.38713163,-0.3961649,0.5859841,47.932976,24.367783,2016-11-08 14:19:24,50.913894421017794
8.795698,-0.05746084,3.7032316,0.025045475,0.07819075,-0.04642576,13.0,9.037878,-0.074252695,3.8054764,-0.24217987,0.016791854,-0.102244854,0.3842717,-0.39809325,0.5832322,47.932976,24.367783,2016-11-08 14:19:25,57.89285711187544
8.78672,-0.05626374,3.709217,0.019242255,0.0729984,-0.046120327,13.0,9.031478,-0.079441205,3.8205335,-0.24475765,0.023177464,-0.11131644,0.38335112,-0.39776763,0.58351535,47.961426,24.338545,2016-11-08 14:19:26,64.24386619465328
8.78672,-0.060453594,3.7008374,0.02321288,0.0729984,-0.048563786,13.0,9.028961,-0.08080635,3.8264477,-0.2422409,0.020352758,-0.12561035,0.38458297,-0.39633888,0.5857898,47.961426,24.338545,2016-11-08 14:19:27,58.78881069779123
8.796896,-0.06823475,3.6864722,0.021380283,0.07269296,-0.042760566,13.0,9.025187,-0.08333324,3.835289,-0.22829056,0.01509849,-0.14881682,0.3835288,-0.39662224,0.58527094,47.961426,24.338545,2016-11-08 14:19:28,57.103344360487625
8.813056,-0.051475335,3.7002387,0.015271631,0.076052725,-0.04795292,13.0,9.025337,-0.08432167,3.8349159,-0.21228123,0.032846335,-0.13467717,0.3845141,-0.39610958,0.5863661,47.961426,24.338545,2016-11-08 14:19:29,64.00222103981699
8.798093,-0.05746084,3.70383,0.021685716,0.07696902,-0.048563786,13.0,9.033426,-0.087494455,3.8157508,-0.23533344,0.030033614,-0.11192083,0.38215208,-0.39907697,0.5819951,47.961426,24.338545,2016-11-08 14:19:30,60.65838999071423
8.789114,-0.06823475,3.6966474,0.028405234,0.070554934,-0.04795292,13.0,9.040016,-0.07961334,3.800286,-0.24731064,0.01676555,-0.09047055,0.385161,-0.3972783,0.5851667,47.961426,24.338545,2016-11-08 14:19:31,49.66429248414671
8.800487,-0.05865794,3.7056258,0.023823744,0.0729984,-0.046120327,12.0,9.03428,-0.0807403,3.813876,-0.23379326,0.022082362,-0.10825014,0.38445354,-0.3972799,0.58483624,47.961426,24.338545,2016-11-08 14:19:32,61.04412387611514
8.820239,-0.095169514,3.7565024,0.021991149,0.07849618,-0.044898596,12.0,9.040955,-0.07749007,3.7980976,-0.22071552,-0.017679445,-0.04159522,0.3842918,-0.39798537,0.5836082,47.961426,24.338545,2016-11-08 14:19:33,60.17236290901424
8.801085,-0.06464344,3.691859,0.016187929,0.0693332,-0.046120327,12.0,9.039416,-0.07528847,3.8017967,-0.23833084,0.0106450245,-0.10993767,0.38441846,-0.39797488,0.5835401,48.074387,24.3165,2016-11-08 14:19:34,49.60987418690039
8.790312,-0.06943185,3.7062242,0.021380283,0.07971791,-0.050701816,13.0,9.032014,-0.08905834,3.8190567,-0.24170208,0.01962649,-0.112832546,0.38366574,-0.39759246,0.5846245,48.074387,24.3165,2016-11-08 14:19:35,52.97317299786936
8.795698,-0.076015905,3.6942532,0.023823744,0.07147124,-0.04550946,12.0,9.036263,-0.0796224,3.8092005,-0.2405653,0.0036064982,-0.11494732,0.38574454,-0.39609435,0.5865125,48.074387,24.3165,2016-11-08 14:19:36,62.13571441083069
8.811859,-0.061650693,3.7044287,0.023518313,0.06566802,-0.05131268,12.0,9.03935,-0.07177666,3.8020241,-0.22749043,0.010125965,-0.09759545,0.38497263,-0.39721498,0.58461714,48.074387,24.3165,2016-11-08 14:19:37,66.7289633429982
8.804677,-0.08140286,3.691859,0.02107485,0.073303826,-0.044898596,12.0,9.042978,-0.070174485,3.7934153,-0.23830128,-0.011228375,-0.1015563,0.38482037,-0.3980836,0.583431,48.074387,24.3165,2016-11-08 14:19:38,50.60713328864921
8.792108,-0.077811554,3.7098155,0.015271631,0.0729984,-0.04795292,12.0,9.043157,-0.06458002,3.793089,-0.25104904,-0.013231531,-0.08327341,0.38541147,-0.3974958,0.58393717,48.074387,24.3165,2016-11-08 14:19:39,60.69830490385939
8.798093,-0.06703765,3.6595373,0.020463986,0.0720821,-0.045814894,12.0,9.040658,-0.06092267,3.7991066,-0.24256516,-0.0061149783,-0.13956928,0.38495892,-0.3976583,0.58331305,48.074387,24.3165,2016-11-08 14:19:40,65.90891435666931
8.79929,-0.06703765,3.7044287,0.025045475,0.0729984,-0.04886922,12.0,9.044454,-0.061771397,3.790044,-0.24516392,-0.005266253,-0.0856154,0.38424966,-0.39887252,0.5815949,48.074387,24.3165,2016-11-08 14:19:41,63.13608925023266
8.793902,-0.050876785,3.7343562,0.022296581,0.070249505,-0.047036625,12.0,9.043203,-0.055905428,3.7931163,-0.24930096,0.0050286427,-0.058760166,0.38510647,-0.3979083,0.58285403,48.074387,24.3165,2016-11-08 14:19:43,61.49916824983366
8.781932,-0.0700304,3.7187939,0.025961773,0.07391469,-0.048563786,12.0,9.038237,-0.060132105,3.8048737,-0.25630474,-0.009898294,-0.086079836,0.3852332,-0.39739323,0.5837493,48.074387,24.3165,2016-11-08 14:19:44,65.31723679087597
8.785523,-0.0712275,3.7032316,0.02107485,0.076052725,-0.041233405,12.0,9.039756,-0.06633797,3.8011577,-0.2542324,-0.0048895255,-0.09792614,0.3854798,-0.39683765,0.58478147,48.074387,24.3165,2016-11-08 14:19:45,50.138905583588844
8.794501,-0.0796072,3.697246,0.015577064,0.07238753,-0.044898596,12.0,9.037001,-0.07527795,3.8075356,-0.24249935,-0.0043292567,-0.11028957,0.3847987,-0.39732963,0.5846218,48.074387,24.3165,2016-11-08 14:19:46,62.58232074773672
8.786121,-0.073023155,3.7086184,0.019547688,0.0720821,-0.048258353,12.0,9.037172,-0.07835925,3.8070664,-0.25105095,0.0053360984,-0.09844804,0.3845954,-0.39743653,0.5845865,48.074387,24.3165,2016-11-08 14:19:47,65.0193969717408
8.788516,-0.061650693,3.7044287,0.019242255,0.071776666,-0.04795292,12.0,9.038732,-0.07393442,3.8034527,-0.2424345,0.008692421,-0.09244013,0.38658416,-0.39573592,0.5869498,48.074387,24.3165,2016-11-08 14:19:48,65.50339822320515
8.804677,-0.07182605,3.6900635,0.019547688,0.06994407,-0.04917465,12.0,9.033664,-0.07802052,3.8153937,-0.22898674,0.0061944723,-0.12533021,0.3861893,-0.39528057,0.58757585,48.074387,24.307878,2016-11-08 14:19:49,63.96017615957109
8.793902,-0.06404489,3.6996403,0.021991149,0.07819075,-0.048258353,12.0,9.035211,-0.06804565,3.8119164,-0.24130821,0.0040007606,-0.11227608,0.38367525,-0.39809704,0.582713,48.074387,24.307878,2016-11-08 14:19:50,64.99370080200546
8.793902,-0.0724246,3.7014358,0.02321288,0.070554934,-0.04642576,12.0,9.035334,-0.068439625,3.8116229,-0.24143124,-0.003984973,-0.11018705,0.38681665,-0.3951692,0.5874135,48.074387,24.307878,2016-11-08 14:19:51,58.72309243119755
8.789713,-0.089184016,3.6834793,0.024740042,0.07544186,-0.043982297,12.0,9.036868,-0.068964235,3.8079717,-0.24715519,-0.02021978,-0.12449241,0.38433853,-0.39748245,0.5837129,48.014618,24.285385,2016-11-08 14:19:52,58.92442988106281
8.804677,-0.077213004,3.7152026,0.025961773,0.06352998,-0.046120327,12.0,9.0376215,-0.07136048,3.806137,-0.23294449,-0.005852528,-0.090934515,0.3845739,-0.39747697,0.58410543,48.014618,24.285385,2016-11-08 14:19:53,60.61407032187984
8.798093,-0.044891283,3.7020345,0.02443461,0.06566802,-0.050396383,12.0,9.039584,-0.06572189,3.801575,-0.24149132,0.020830609,-0.09954047,0.3867383,-0.39562532,0.5867315,48.014618,24.285385,2016-11-08 14:19:54,59.207313128041825
8.77834,-0.05746084,3.70383,0.02443461,0.06719518,-0.047036625,12.0,9.043172,-0.05609569,3.7931883,-0.26483154,-0.0013651513,-0.08935833,0.38659078,-0.3962956,0.5852821,47.99943,24.285385,2016-11-08 14:19:55,62.71210683535535
8.788516,-0.07062895,3.6984432,0.024740042,0.07269296,-0.051923547,12.0,9.041364,-0.05886983,3.7974567,-0.25284767,-0.011759117,-0.09901357,0.38396838,-0.39858484,0.5817981,47.99943,24.285385,2016-11-08 14:19:56,63.617809941065396
8.783728,-0.08619126,3.6900635,0.025045475,0.069027774,-0.0421497,12.0,9.03251,-0.07351123,3.8182142,-0.24878216,-0.012680031,-0.1281507,0.38558367,-0.39578426,0.5865643,47.99943,24.285385,2016-11-08 14:19:57,67.90855027305638
8.8088665,-0.061052144,3.705027,0.023823744,0.07880162,-0.04550946,12.0,9.029752,-0.09307459,3.824307,-0.22088528,0.032022446,-0.11927986,0.3838229,-0.39737928,0.5849901,47.8496,24.340982,2016-11-08 14:19:58,63.37458928151163
8.825027,-0.05207389,3.6942532,0.02321288,0.06688975,-0.048258353,12.0,9.028237,-0.10399434,3.8275962,-0.20320988,0.05192045,-0.13334298,0.384811,-0.39588732,0.587967,47.8496,24.340982,2016-11-08 14:19:59,55.599324811223205
8.805275,-0.07062895,3.70802,0.024129177,0.073303826,-0.043676864,12.0,9.0326185,-0.10190526,3.8173025,-0.22734356,0.031276308,-0.10928249,0.38448998,-0.3969073,0.58662146,47.8496,24.340982,2016-11-08 14:20:00,50.56929755887082
8.804677,-0.06284779,3.6990416,0.014660766,0.076358154,-0.04734206,12.0,9.036846,-0.08958149,3.8075929,-0.23216915,0.026733696,-0.108551264,0.38488087,-0.39719674,0.58555514,47.8496,24.318975,2016-11-08 14:20:01,51.00039906442676
8.793304,0.010175358,3.5745432,0.02107485,0.06780604,-0.046731193,12.0,9.034956,-0.07292992,3.8124306,-0.24165154,0.08310527,-0.23788738,0.3842126,-0.3974731,0.5841479,47.8496,24.318975,2016-11-08 14:20:02,47.18732023789283
8.819042,-0.047285482,3.684078,0.019242255,0.079107046,-0.044593163,12.0,9.036678,-0.07468437,3.808315,-0.21763611,0.027398884,-0.12423706,0.38421202,-0.39780393,0.5836599,47.8496,24.318975,2016-11-08 14:20:03,54.94577681922578
8.797494,-0.060453594,3.7104142,0.016187929,0.08857546,-0.049785517,12.0,9.023135,-0.08307751,3.8401198,-0.24000645,0.010054357,-0.13748693,0.38457587,-0.39585072,0.5865724,47.8496,24.318975,2016-11-08 14:20:04,59.68102197269559
8.801085,-0.06344634,3.6882677,0.019547688,0.06872234,-0.046120327,12.0,9.036081,-0.07963175,3.8096323,-0.23499584,0.01618541,-0.12136459,0.3842986,-0.39742497,0.5845717,47.8496,24.318975,2016-11-08 14:20:05,49.02724522614819
8.787917,-0.06464344,3.685275,0.025350908,0.07971791,-0.046731193,12.0,9.043497,-0.074776135,3.792093,-0.25557995,0.010132693,-0.10681796,0.3858233,-0.39745545,0.58469653,47.708317,24.318975,2016-11-08 14:20:06,68.87385253441533
8.788516,-0.075417355,3.684078,0.018936822,0.07391469,-0.044898596,12.0,9.044617,-0.0658648,3.7895873,-0.25610065,-0.009552553,-0.10550928,0.38457784,-0.3984689,0.582718,47.708317,24.318975,2016-11-08 14:20:07,63.05864821712569
8.792706,-0.0664391,3.705027,0.017104227,0.074830994,-0.047647487,12.0,9.043367,-0.061644264,3.792636,-0.25066185,-0.004794836,-0.087608814,0.3855945,-0.39735714,0.58407307,47.708317,24.318975,2016-11-08 14:20:08,60.96806857990192
8.803479,-0.05626374,3.7032316,0.0143553335,0.07788532,-0.04520403,12.0,9.03848,-0.07758681,3.8039799,-0.23500061,0.021323066,-0.1007483,0.3854009,-0.39694813,0.58542496,47.708317,24.352825,2016-11-08 14:20:09,64.25463429888688
8.786121,-0.0700304,3.6762967,0.019547688,0.07238753,-0.04520403,11.0,9.042206,-0.07291531,3.7952037,-0.25608444,0.0028849095,-0.118906975,0.3866301,-0.39645335,0.58617264,47.708317,24.352825,2016-11-08 14:20:10,52.538720163857356
8.77834,-0.06703765,3.6900635,0.020463986,0.08002335,-0.049785517,11.0,9.047243,-0.06351093,3.7833517,-0.26890278,-0.0035267174,-0.09328818,0.38563323,-0.39788312,0.58332384,47.708317,24.352825,2016-11-08 14:20:11,61.327942504088654
8.802282,-0.07182605,3.6876693,0.015271631,0.07574729,-0.041233405,11.0,9.04534,-0.06090163,3.7879426,-0.24305725,-0.0109244175,-0.10027337,0.38710746,-0.39614648,0.58574736,48.005417,24.352825,2016-11-08 14:20:12,67.53267550234072
8.793304,-0.061650693,3.6996403,0.023823744,0.076358154,-0.04550946,11.0,9.042834,-0.075925596,3.793647,-0.24952984,0.014274903,-0.09400678,0.38557044,-0.39714918,0.584948,48.005417,24.352825,2016-11-08 14:20:13,64.33310196508604
8.783129,-0.07062895,3.6774938,0.021991149,0.07696902,-0.04520403,11.0,9.037386,-0.07811171,3.8065634,-0.2542572,0.0074827597,-0.12906957,0.38539538,-0.39671165,0.58555657,48.005417,24.352825,2016-11-08 14:20:14,70.09344976372574
8.79091,-0.049679685,3.7140055,0.025961773,0.07422013,-0.050701816,12.0,9.029646,-0.09173253,3.8245893,-0.23873615,0.042052846,-0.11058378,0.38533515,-0.3958727,0.58732086,47.902878,24.409697,2016-11-08 14:20:15,62.99795059708667
8.812458,-0.06823475,3.6882677,0.016493361,0.07819075,-0.04520403,12.0,9.030983,-0.09000468,3.8214712,-0.21852493,0.021769933,-0.1332035,0.38574377,-0.3955192,0.5878063,47.902878,24.409697,2016-11-08 14:20:16,63.12116552822677
8.798691,-0.08080431,3.6739025,0.020158553,0.074830994,-0.04734206,11.0,9.038279,-0.08249971,3.8043559,-0.23958778,0.001695402,-0.13045335,0.3864322,-0.39574432,0.587528,47.902878,24.409697,2016-11-08 14:20:17,63.038685002732045
8.806473,-0.06823475,3.675698,0.019547688,0.0711658,-0.04520403,11.0,9.036988,-0.077714235,3.8075194,-0.23051548,0.009479485,-0.1318214,0.38562158,-0.3966577,0.58575666,48.003403,24.388502,2016-11-08 14:20:18,59.90946604600226
8.798691,-0.077213004,3.6846764,0.019242255,0.06841691,-0.04642576,11.0,9.03887,-0.07516601,3.8031008,-0.24017906,-0.0020469949,-0.118424416,0.38672426,-0.39554825,0.58740175,48.003403,24.388502,2016-11-08 14:20:19,55.958900298255365
8.80767,-0.05865794,3.6762967,0.022296581,0.0693332,-0.04795292,11.0,9.043787,-0.06762801,3.791535,-0.25586987,0.008371521,-0.11284399,0.38465312,-0.3981997,0.58312064,48.003403,24.388502,2016-11-08 14:20:20,66.20290960859194
8.804677,-0.06823475,3.6858735,0.022907447,0.07696902,-0.046731193,11.0,9.047578,-0.06691373,3.7824924,-0.24290085,-0.0013210177,-0.09661889,0.3864094,-0.3973751,0.58462715,48.003403,24.388502,2016-11-08 14:20:21,56.29837891169412
8.796896,-0.07182605,3.6792896,0.02107485,0.07238753,-0.048563786,11.0,9.048875,-0.059089027,3.7795208,-0.25197887,-0.012737021,-0.10023117,0.38544682,-0.3984538,0.5825253,48.003403,24.388502,2016-11-08 14:20:22,48.91416857774882
8.773552,-0.05626374,3.7056258,0.027183503,0.07269296,-0.047036625,11.0,9.048296,-0.04903817,3.7810462,-0.27474403,-0.0072255693,-0.07542038,0.38575915,-0.3981091,0.58253384,48.23798,24.388502,2016-11-08 14:20:23,66.85248675706342
8.804078,-0.0724246,3.7002387,0.025350908,0.07574729,-0.046731193,12.0,9.053989,-0.0376324,3.7675273,-0.24991131,-0.0347922,-0.06728864,0.3858747,-0.39865273,0.58104527,48.23798,24.388502,2016-11-08 14:20:24,66.38496617261622
8.816648,-0.040102877,3.6858735,0.017104227,0.07452556,-0.044898596,11.0,9.053456,-0.047023617,3.7687025,-0.23680878,0.00692074,-0.082829,0.38672632,-0.3977734,0.582792,48.23798,24.388502,2016-11-08 14:20:25,49.02017942414186
8.791509,-0.078410104,3.6870706,0.018325957,0.06780604,-0.043676864,11.0,9.045012,-0.060832657,3.7887278,-0.2535038,-0.017577447,-0.10165715,0.38742572,-0.3960884,0.5863234,48.23798,24.375507,2016-11-08 14:20:26,60.72819948919385
8.792706,-0.06344634,3.693056,0.020463986,0.079107046,-0.04734206,11.0,9.048271,-0.06019699,3.7809443,-0.25556564,-0.0032493547,-0.08788824,0.38647002,-0.39724717,0.58430666,48.23798,24.375507,2016-11-08 14:20:27,62.86104021170666
8.810063,-0.0688333,3.681085,0.023823744,0.07513642,-0.046120327,11.0,9.049728,-0.06028408,3.7774568,-0.23966503,-0.008549217,-0.09637165,0.38806137,-0.39588714,0.58636826,48.23798,24.375507,2016-11-08 14:20:28,64.44993856819752
8.812458,-0.077811554,3.691859,0.01740966,0.07574729,-0.04917465,11.0,9.052975,-0.061875444,3.769644,-0.24051666,-0.01593611,-0.077785015,0.38779294,-0.39675245,0.5856602,48.23798,24.456076,2016-11-08 14:20:29,57.49670659843146
8.8088665,-0.06823475,3.6762967,0.022602014,0.067500606,-0.047036625,11.0,9.046178,-0.06756693,3.7858255,-0.23731136,-6.678179E-4,-0.10952878,0.3860564,-0.3974584,0.58463967,48.23798,24.456076,2016-11-08 14:20:31,61.57551566618078
8.792108,-0.06943185,3.6709096,0.020158553,0.076052725,-0.048563786,11.0,9.0484085,-0.056510407,3.7806747,-0.25630093,-0.012921441,-0.10976505,0.3868493,-0.3970806,0.5845877,48.23798,24.456076,2016-11-08 14:20:32,56.08890059446943
8.802881,-0.0724246,3.7062242,0.01863139,0.06261369,-0.046120327,12.0,9.045325,-0.05921353,3.7880032,-0.24244404,-0.013211068,-0.081779,0.38477823,-0.3983125,0.58257115,48.414772,24.334599,2016-11-08 14:20:33,59.609569759138815
8.811859,-0.06464344,3.6978445,0.021380283,0.0720821,-0.047036625,12.0,9.046695,-0.058957215,3.7847369,-0.23483562,-0.005686227,-0.08689237,0.38814962,-0.39540315,0.5871054,48.414772,24.334599,2016-11-08 14:20:34,62.22005820994758
8.792706,-0.06584055,3.6846764,0.021380283,0.07727446,-0.04550946,12.0,9.044112,-0.057726797,3.7909226,-0.25140667,-0.008113753,-0.10624623,0.3864736,-0.39668608,0.584947,48.414772,24.334599,2016-11-08 14:20:35,57.672928614431996
8.781333,-0.06943185,3.697246,0.026267206,0.07513642,-0.04917465,12.0,9.035631,-0.07089695,3.8108714,-0.2542982,0.0014651045,-0.11362529,0.3848303,-0.39690614,0.5847646,48.414772,24.334599,2016-11-08 14:20:36,58.46575885674532
8.810662,-0.06703765,3.663727,0.018325957,0.071776666,-0.04337143,12.0,9.03446,-0.07972762,3.8134704,-0.24594402,0.01328852,-0.12759686,0.3849576,-0.39661586,0.5855009,48.414772,24.334599,2016-11-08 14:20:37,61.96589476415098
8.814254,-0.06404489,3.6924577,0.018020526,0.081855945,-0.04337143,12.0,9.03748,-0.09061024,3.8060658,-0.22322655,0.02656535,-0.11360812,0.38634136,-0.3958346,0.58784586,48.414772,24.550005,2016-11-08 14:20:38,50.68185437710803
8.799889,-0.0724246,3.681085,0.018936822,0.07086037,-0.047036625,12.0,9.037095,-0.08660598,3.8070726,-0.23720646,0.014181383,-0.12598753,0.3842918,-0.3978652,0.58462906,48.414772,24.550005,2016-11-08 14:20:39,57.92626235407219
8.802282,-0.06823475,3.6912606,0.014966198,0.06688975,-0.049785517,12.0,9.04168,-0.078920394,3.7963383,-0.239398,0.010685645,-0.10507774,0.3855689,-0.39706317,0.5856027,48.414772,24.550005,2016-11-08 14:20:40,59.51419940259981
8.793902,-0.06823475,3.690662,0.017715093,0.06994407,-0.044898596,12.0,9.038432,-0.08068185,3.8040261,-0.24452972,0.012447104,-0.11336422,0.3870256,-0.39545292,0.58794135,48.112816,24.475462,2016-11-08 14:20:41,55.68960347322459
8.805275,-0.05865794,3.66253,0.01985312,0.073303826,-0.04642576,12.0,9.040293,-0.08394173,3.7995338,-0.23501778,0.025283787,-0.1370039,0.38467762,-0.39768985,0.5845972,48.112816,24.475462,2016-11-08 14:20:42,65.2146760373399
8.788516,-0.05566519,3.6685154,0.020158553,0.0720821,-0.047036625,12.0,9.044236,-0.076012395,3.7903056,-0.25572014,0.020347204,-0.12179017,0.38567632,-0.3973823,0.58502126,48.112816,24.475462,2016-11-08 14:20:43,63.508524451661835
8.803479,-0.075417355,3.6900635,0.01740966,0.08246681,-0.047036625,11.0,9.044421,-0.08374825,3.7897012,-0.240942,0.0083308965,-0.09963775,0.38354254,-0.3996842,0.58181757,47.90387,24.553537,2016-11-08 14:20:44,59.06219357850114
8.801684,-0.07062895,3.6858735,0.021380283,0.073303826,-0.047647487,12.0,9.0370035,-0.080033906,3.8074346,-0.23531914,0.009404957,-0.12156105,0.38500607,-0.39705053,0.5853392,47.90387,24.553537,2016-11-08 14:20:45,55.671759805634736
8.789114,-0.061650693,3.6846764,0.01863139,0.08124508,-0.046731193,12.0,9.035146,-0.07806991,3.811881,-0.24603176,0.016419217,-0.12720466,0.38520938,-0.39649928,0.5857058,47.90387,24.553537,2016-11-08 14:20:46,47.49671961934049
8.793902,-0.05925649,3.6780925,0.021991149,0.07391469,-0.045814894,11.0,9.036087,-0.08201105,3.8095691,-0.24218464,0.022754561,-0.13147664,0.38516283,-0.39678133,0.58572954,47.91845,24.52996,2016-11-08 14:20:47,66.06343337819573
8.809465,-0.062249243,3.6990416,0.022602014,0.06963864,-0.04550946,11.0,9.031788,-0.09264117,3.8195043,-0.22232246,0.030391924,-0.120462656,0.38415647,-0.39714414,0.5856432,47.91845,24.52996,2016-11-08 14:20:48,66.04040810897237
8.807071,-0.021547815,3.6661212,0.016187929,0.07086037,-0.03970624,11.0,9.033672,-0.089421034,3.8151212,-0.2266016,0.06787322,-0.14899993,0.38431865,-0.39733753,0.5853457,47.91845,24.52996,2016-11-08 14:20:49,62.77825679654733
8.804677,-0.06703765,3.6870706,0.0143553335,0.08032878,-0.045814894,11.0,9.035765,-0.09471593,3.8100364,-0.23108768,0.027678281,-0.12296581,0.38667288,-0.39529896,0.58872426,47.739025,24.608631,2016-11-08 14:20:50,59.71219775169379
8.807071,-0.05865794,3.6822822,0.018325957,0.07269296,-0.04550946,11.0,9.040786,-0.09348492,3.7981365,-0.23371506,0.034826983,-0.11585426,0.38463148,-0.39778745,0.5852006,47.739025,24.608631,2016-11-08 14:20:51,58.03163051234736
8.7951,-0.06584055,3.6709096,0.01740966,0.07666359,-0.046731193,11.0,9.042825,-0.0882669,3.7934036,-0.24772453,0.022426352,-0.12249398,0.38798743,-0.39504397,0.58936703,47.739025,24.608631,2016-11-08 14:20:52,56.27962535987068
8.806473,-0.073023155,3.679888,0.017715093,0.071776666,-0.048258353,11.0,9.044232,-0.09089988,3.7899873,-0.24075317,0.017278172,-0.09992385,0.38569686,-0.39730942,0.58604276,47.739025,24.584286,2016-11-08 14:20:53,50.36600868171308
8.811859,-0.06943185,3.6727054,0.016493361,0.0729984,-0.044898596,11.0,9.047107,-0.080634795,3.7833514,-0.23524761,0.011202946,-0.11064601,0.38539478,-0.3980342,0.5844219,47.739025,24.584286,2016-11-08 14:20:54,66.63741289564774
8.807071,-0.05925649,3.6792896,0.025045475,0.082161374,-0.047036625,11.0,9.052872,-0.07746055,3.769605,-0.24580097,0.01820406,-0.09031534,0.38569114,-0.39863294,0.5834671,47.598885,24.584286,2016-11-08 14:20:55,65.26714349259777
8.796896,-0.0700304,3.6709096,0.011911872,0.077579886,-0.043676864,11.0,9.051555,-0.06880553,3.7729313,-0.2546587,-0.001224868,-0.102021694,0.38710392,-0.39714977,0.58530813,47.598885,24.584286,2016-11-08 14:20:56,56.37683965722209
8.787917,-0.07062895,3.6858735,0.018020526,0.070249505,-0.047036625,11.0,9.048335,-0.066285364,3.7806916,-0.26041794,-0.004343584,-0.094818115,0.38402474,-0.3996057,0.5811905,47.598885,24.584286,2016-11-08 14:20:57,64.1783917380133
8.803479,-0.06823475,3.6613328,0.016798794,0.08124508,-0.048563786,11.0,9.049884,-0.05980185,3.7770905,-0.24640465,-0.008432899,-0.115757704,0.38697836,-0.3972379,0.5844709,47.54297,24.67194,2016-11-08 14:20:58,67.50461518360817
8.796896,-0.08439561,3.6876693,0.025045475,0.07422013,-0.04734206,11.0,9.052787,-0.052890465,3.7702296,-0.25589085,-0.031505145,-0.0825603,0.38725546,-0.39724484,0.58425105,47.54297,24.67194,2016-11-08 14:20:59,68.81732878935213
8.789713,-0.05566519,3.6721067,0.022296581,0.077579886,-0.04886922,11.0,9.057913,-0.046086043,3.75799,-0.26819992,-0.009579148,-0.08588314,0.3871807,-0.39802572,0.582897,47.54297,24.67194,2016-11-08 14:21:00,64.9497110902076
8.79929,-0.073621705,3.691859,0.019547688,0.07360926,-0.040927973,11.0,9.050924,-0.043349314,3.7748225,-0.2516346,-0.03027239,-0.08296347,0.38660893,-0.39785108,0.582702,47.589424,24.640701,2016-11-08 14:21:01,65.81630795868477
8.803479,-0.0688333,3.6804867,0.017104227,0.08032878,-0.04428773,11.0,9.048764,-0.050293725,3.7799134,-0.24528503,-0.018539574,-0.09942675,0.3858546,-0.39809677,0.58244586,47.589424,24.640701,2016-11-08 14:21:02,61.16198082124487
8.794501,-0.075417355,3.6643257,0.01282817,0.07666359,-0.042455133,11.0,9.042815,-0.060804598,3.7939663,-0.2483139,-0.014612757,-0.12964058,0.38511178,-0.3977597,0.58326924,47.589424,24.640701,2016-11-08 14:21:03,50.104672704498356
8.789713,-0.076614454,3.6804867,0.018325957,0.07086037,-0.044593163,11.0,9.049135,-0.057638243,3.7789204,-0.2594223,-0.018976212,-0.09843373,0.38717118,-0.39654204,0.585358,47.589424,24.640701,2016-11-08 14:21:04,67.66618612454367
8.783129,-0.0700304,3.6511576,0.022602014,0.07971791,-0.04520403,11.0,9.054643,-0.053004738,3.76577,-0.27151394,-0.01702566,-0.11461234,0.38725814,-0.39732316,0.5842389,47.589424,24.640701,2016-11-08 14:21:05,58.27985049490966
8.702923,-0.074818805,3.572149,0.016798794,0.07147124,-0.050396383,11.0,9.058187,-0.04490122,3.7573438,-0.3552637,-0.029917587,-0.18519473,0.38786104,-0.39751074,0.5836263,47.589424,24.640701,2016-11-08 14:21:06,58.705849146335794
8.81605,-0.08738836,3.663727,0.024740042,0.077579886,-0.046120327,11.0,9.058641,-0.04228344,3.7562764,-0.24259186,-0.04510492,-0.092549324,0.3881841,-0.39702237,0.58395344,47.708122,24.580288,2016-11-08 14:21:07,51.24994881374438
8.792108,-0.08020575,3.6828809,0.022907447,0.07513642,-0.05100725,11.0,9.058121,-0.042641167,3.7575305,-0.26601315,-0.037564587,-0.07464957,0.3865271,-0.39869815,0.5816815,47.708122,24.580288,2016-11-08 14:21:08,64.36385773020365
8.798093,-0.06943185,3.6792896,0.022296581,0.08032878,-0.04886922,11.0,9.046687,-0.040011402,3.7850032,-0.23901749,-0.02343494,-0.11169934,0.38704568,-0.39668718,0.5840229,47.708122,24.580288,2016-11-08 14:21:09,62.184380434215555
9.030929,-0.1436521,3.8947675,0.023823744,0.082161374,-0.04734206,11.0,9.036695,-0.06632833,3.808431,-0.005765915,-0.077323765,0.08633661,0.3850089,-0.39721256,0.5841328,47.800316,24.50382,2016-11-08 14:21:10,63.333445802329955
8.680777,0.0011971008,3.6008794,0.022602014,0.07971791,-0.046120327,11.0,9.038054,-0.07401976,3.8050592,-0.35727787,0.07521686,-0.20417976,0.38554865,-0.39601567,0.58614737,47.800316,24.50382,2016-11-08 14:21:11,57.664574008607374
8.819042,-0.0688333,3.657143,0.019547688,0.076052725,-0.04520403,11.0,9.041633,-0.083573185,3.7963543,-0.22259045,0.014739886,-0.13921118,0.3843973,-0.39820674,0.58384067,47.800316,24.52968,2016-11-08 14:21:12,58.38816290998969
8.800487,-0.07062895,3.6601357,0.0143553335,0.07727446,-0.048258353,11.0,9.046611,-0.08517478,3.7844403,-0.24612427,0.014545828,-0.12430453,0.38868445,-0.39487237,0.58944696,47.800316,24.52968,2016-11-08 14:21:13,62.93554404079587
8.69155,-0.04070143,3.5853171,0.013744468,0.070249505,-0.04795292,11.0,9.048157,-0.088666715,3.7806592,-0.35660648,0.047965284,-0.19534206,0.38658482,-0.39735785,0.58615446,47.800316,24.52968,2016-11-08 14:21:14,66.7761476357058
8.773552,5.985504E-4,3.591901,0.02443461,0.07086037,-0.04795292,11.0,9.0542555,-0.07447861,3.7663362,-0.28070354,0.07507716,-0.17443514,0.38634676,-0.39872167,0.5835568,48.005383,24.407633,2016-11-08 14:21:15,62.52096542234379
8.80767,-0.061650693,3.6774938,0.021380283,0.077579886,-0.044593163,11.0,9.0549965,-0.06217384,3.764781,-0.24732685,5.2314624E-4,-0.08728719,0.3876842,-0.3971855,0.5849699,48.005383,24.407633,2016-11-08 14:21:16,67.19249082602141
8.960898,-0.10295067,4.083311,0.016493361,0.071776666,-0.046120327,11.0,9.058567,-0.044225805,3.7564337,-0.09766865,-0.058724865,0.32687736,0.3866884,-0.39860994,0.5822873,48.005383,24.407633,2016-11-08 14:21:17,50.54628082105105
8.81605,-0.062249243,3.6601357,0.032986723,0.076358154,-0.056199603,11.0,9.060312,-0.03502689,3.752318,-0.2442627,-0.027222354,-0.09218216,0.38731268,-0.39851028,0.5815823,47.959213,24.435747,2016-11-08 14:21:18,63.12396563178094
8.797494,-0.05267244,3.6212301,0.02076942,0.08155051,-0.047036625,11.0,9.0602255,-0.051543143,3.7523406,-0.26273155,-0.0011292957,-0.13111043,0.38641328,-0.3991119,0.58168787,47.959213,24.435747,2016-11-08 14:21:20,60.94577542888245
8.881889,-0.073023155,3.702633,0.022602014,0.081855945,-0.05222898,11.0,9.064596,-0.064436235,3.74157,-0.18270683,-0.008586921,-0.03893709,0.38649032,-0.39941916,0.5823435,47.959213,24.435747,2016-11-08 14:21:21,62.94065249444743
8.69993,-0.06943185,3.6733038,0.014660766,0.07880162,-0.040927973,12.0,9.046987,-0.051537003,3.7841434,-0.3470564,-0.017894845,-0.110839605,0.3880193,-0.39630455,0.58540773,47.918865,24.513388,2016-11-08 14:21:22,61.38882680263487
8.659827,0.033518825,3.4596214,0.03176499,0.06627888,-0.05589417,11.0,9.044062,-0.06488427,3.7909267,-0.38423443,0.098403096,-0.33130527,0.38633218,-0.3968745,0.58510137,47.918865,24.513388,2016-11-08 14:21:23,65.55613587634777
8.823831,-0.073621705,3.6619315,0.024129177,0.08399397,-0.046731193,11.0,9.035013,-0.070668116,3.8123405,-0.2111826,-0.002953589,-0.15040898,0.3835385,-0.39833707,0.5823193,47.918865,24.513388,2016-11-08 14:21:24,65.41983835313579
8.811859,-0.06703765,3.6661212,0.02076942,0.07086037,-0.046120327,11.0,9.037353,-0.09008418,3.8063805,-0.22549343,0.02304653,-0.14025927,0.3852118,-0.3971231,0.58602935,47.918865,24.513388,2016-11-08 14:21:25,62.24636735322926
8.544308,0.01316811,3.3357215,0.020158553,0.07941248,-0.047647487,11.0,9.046754,-0.07513006,3.7843075,-0.52878284,0.06196195,-0.31870055,0.387379,-0.3963284,0.5867692,47.918865,24.513388,2016-11-08 14:21:26,63.828656835793645
8.808268,-0.060453594,3.681085,0.025961773,0.07666359,-0.049785517,11.0,9.035578,-0.041167293,3.811437,-0.22731018,-0.019286301,-0.13035178,0.38523063,-0.3966678,0.58320093,47.918865,24.371935,2016-11-08 14:21:27,67.85028458865882
8.771756,-0.065242,3.669114,0.021685716,0.07880162,-0.043982297,11.0,9.038503,-0.0504495,3.804383,-0.26674652,-0.014792498,-0.13526893,0.38543385,-0.3967825,0.5838132,47.918865,24.371935,2016-11-08 14:21:28,66.3531585673679
8.793902,-0.061052144,3.678691,0.019547688,0.0720821,-0.045814894,11.0,9.036564,-0.076013856,3.808558,-0.24266148,0.014961712,-0.12986708,0.38551375,-0.3963844,0.58572257,47.918865,24.371935,2016-11-08 14:21:29,68.19882058714954
8.811859,-0.079008654,3.6942532,0.022296581,0.07269296,-0.04153884,11.0,9.044298,-0.09004238,3.7898507,-0.23243904,0.011033729,-0.095597506,0.38655332,-0.39662415,0.5870276,47.61271,24.650078,2016-11-08 14:21:30,64.73769290179844
8.7951,-0.05865794,3.6834793,0.020158553,0.07544186,-0.047036625,11.0,9.047256,-0.08842326,3.7828171,-0.25215626,0.02976532,-0.099337816,0.38702586,-0.39684436,0.58692074,47.61271,24.650078,2016-11-08 14:21:31,65.9692417770072
8.809465,-0.07062895,3.6703112,0.02107485,0.07422013,-0.04550946,11.0,9.053683,-0.082928166,3.767539,-0.24421787,0.012299217,-0.09722781,0.3869974,-0.39769602,0.5856724,47.61271,24.650078,2016-11-08 14:21:32,61.28950059231694
8.791509,-0.046686932,3.6631286,0.018325957,0.08093964,-0.04520403,11.0,9.057934,-0.07516513,3.7574713,-0.26642513,0.028478198,-0.09434271,0.38746837,-0.39763227,0.5853601,47.744938,24.575964,2016-11-08 14:21:33,65.84269812509157
8.803479,-0.06584055,3.678691,0.018325957,0.07269296,-0.039095376,11.0,9.05531,-0.06823066,3.7639213,-0.25183105,0.002390109,-0.08523035,0.38773412,-0.39726442,0.58546174,47.744938,24.575964,2016-11-08 14:21:34,62.693047182543964
8.810063,-0.07062895,3.6828809,0.027794369,0.080634214,-0.04550946,11.0,9.050141,-0.07570026,3.7761915,-0.24007797,0.005071312,-0.093310595,0.388392,-0.39594382,0.58753526,47.744938,24.575964,2016-11-08 14:21:35,60.67489651911668
8.809465,-0.073023155,3.650559,0.016187929,0.077579886,-0.046731193,11.0,9.060937,-0.071974814,3.7502847,-0.25147152,-0.0010483414,-0.09972572,0.38703984,-0.3986629,0.5838632,47.59458,24.575964,2016-11-08 14:21:36,61.991835010265255
8.811261,-0.073023155,3.667917,0.014966198,0.081855945,-0.050396383,11.0,9.052878,-0.073683955,3.7696612,-0.2416172,6.6079944E-4,-0.101744175,0.38649595,-0.39790785,0.5846222,47.59458,24.575964,2016-11-08 14:21:37,65.61576271667317
8.80767,-0.060453594,3.6613328,0.021685716,0.07941248,-0.049785517,11.0,9.045766,-0.08601883,3.7864387,-0.23809624,0.025565237,-0.12510586,0.38761145,-0.39599657,0.5878921,47.59458,24.575964,2016-11-08 14:21:38,55.742543268122716
8.801684,-0.06284779,3.6553473,0.017104227,0.081855945,-0.048563786,11.0,9.042833,-0.09183044,3.793299,-0.24114895,0.028982647,-0.13795161,0.38613144,-0.39703253,0.58645356,47.737373,24.575964,2016-11-08 14:21:39,60.870870893700946
8.789713,-0.06464344,3.643975,0.014966198,0.08032878,-0.04642576,11.0,9.039262,-0.099784024,3.801602,-0.24954891,0.03514058,-0.15762687,0.38496011,-0.3974107,0.5861175,47.737373,24.575964,2016-11-08 14:21:40,57.831029515858276
8.792108,-0.06584055,3.6595373,0.02076942,0.07544186,-0.045814894,11.0,9.044996,-0.09465484,3.788073,-0.25288868,0.028814293,-0.12853575,0.38428116,-0.3989943,0.5837777,47.737373,24.575964,2016-11-08 14:21:41,63.44892598539712
8.793902,-0.06703765,3.6415808,0.009468411,0.084910266,-0.04917465,11.0,9.046422,-0.095508836,3.784641,-0.24832916,0.028471187,-0.10714722,0.38694584,-0.39685625,0.58727044,47.55779,24.655039,2016-11-08 14:21:42,61.46632569871816
8.792108,-0.062249243,3.6481647,0.014966198,0.07819075,-0.05100725,11.0,9.044175,-0.09408757,3.790042,-0.25206757,0.031838328,-0.14187717,0.38664836,-0.3965661,0.587412,47.55779,24.655039,2016-11-08 14:21:43,60.117699298474264
8.798691,-0.0688333,3.6804867,0.015882496,0.08307768,-0.04337143,11.0,9.045895,-0.09408523,3.785938,-0.24720383,0.025251932,-0.105451345,0.385647,-0.39773914,0.5856442,47.55779,24.655039,2016-11-08 14:21:44,59.57027253523992
8.794501,-0.06284779,3.6619315,0.019242255,0.082161374,-0.043982297,11.0,9.04933,-0.0868506,3.7778928,-0.25482845,0.024002805,-0.11596131,0.38776726,-0.39619836,0.5878098,47.55779,24.655039,2016-11-08 14:21:45,48.990445322760756
8.789114,-0.079008654,3.6469676,0.014966198,0.08277224,-0.046120327,11.0,9.047147,-0.07959931,3.783279,-0.2580328,5.906597E-4,-0.1363113,0.38637763,-0.39734653,0.5856593,47.55779,24.655039,2016-11-08 14:21:46,68.56658946606973
8.795698,-0.08798691,3.663727,0.01863139,0.0711658,-0.040927973,12.0,9.048825,-0.07505846,3.779353,-0.2531271,-0.012928449,-0.11562586,0.38568154,-0.39783692,0.5844828,47.44897,24.705194,2016-11-08 14:21:47,62.63341271136682
8.792108,-0.0664391,3.6750996,0.018020526,0.07544186,-0.047647487,11.0,9.050856,-0.0703551,3.7745812,-0.25874805,0.003916003,-0.09948158,0.38619742,-0.3980062,0.5841392,47.44897,24.705194,2016-11-08 14:21:48,64.79208871503222
8.796297,-0.06943185,3.667917,0.01740966,0.07238753,-0.04550946,12.0,9.054767,-0.060429335,3.765361,-0.25846958,-0.009002514,-0.09744406,0.3849294,-0.39975223,0.58119607,47.44897,24.705194,2016-11-08 14:21:49,52.261195772873606
8.796297,-0.0676362,3.6391866,0.014966198,0.07360926,-0.043676864,12.0,9.054446,-0.061957277,3.766106,-0.25814915,-0.005678922,-0.12691927,0.38569131,-0.39914024,0.5822011,47.44897,24.705194,2016-11-08 14:21:50,65.28520584001312
8.793304,-0.06584055,3.6643257,0.021380283,0.08368854,-0.051618114,12.0,9.062897,-0.061707683,3.7457297,-0.2695923,-0.004132867,-0.08140397,0.3882373,-0.397641,0.5846659,47.44897,24.705194,2016-11-08 14:21:51,51.01862790220341
8.790312,-0.07182605,3.6882677,0.02321288,0.07391469,-0.04734206,12.0,9.0578,-0.06284545,3.7580187,-0.26748848,-0.008980595,-0.069751024,0.3879571,-0.39733395,0.5851201,47.44897,24.705194,2016-11-08 14:21:52,60.79097839549785
8.813056,-0.065242,3.6792896,0.032070424,0.07941248,-0.06261369,12.0,9.059553,-0.058760233,3.7538545,-0.24649715,-0.0064817667,-0.074564934,0.38737813,-0.3979791,0.58377874,47.50876,24.657051,2016-11-08 14:21:53,66.46254324896313
9.333796,0.43275195,3.4398694,-0.004886922,0.07391469,-0.034513887,12.0,9.068503,-0.021704175,3.7325804,0.26529217,0.45445612,-0.29271102,0.38767081,-0.39945522,0.5808882,47.50876,24.657051,2016-11-08 14:21:54,62.81094847208693
8.787917,-0.0664391,3.6673183,0.019242255,0.074830994,-0.044898596,12.0,9.067569,-0.038370356,3.7347174,-0.27965164,-0.028068744,-0.067399025,0.38744438,-0.39927715,0.58131015,47.50876,24.657051,2016-11-08 14:21:55,57.54345220739243
8.799889,-0.08020575,3.6613328,0.015882496,0.08155051,-0.04795292,12.0,9.060995,-0.05050883,3.750496,-0.2611065,-0.029696923,-0.089163065,0.38559347,-0.4003054,0.579897,47.50876,24.657051,2016-11-08 14:21:56,60.62983553551622
8.801085,-0.05686229,3.654749,0.018936822,0.07941248,-0.043066,12.0,9.053369,-0.05886077,3.7687464,-0.2522831,0.0019984804,-0.11399746,0.3864676,-0.39800736,0.58343273,47.50876,24.657051,2016-11-08 14:21:57,59.330373664748144
8.778939,-0.06823475,3.6685154,0.021685716,0.077579886,-0.04520403,12.0,9.051333,-0.056121994,3.7736714,-0.26461315,0.0010553561,-0.12131667,0.38562658,-0.3986167,0.5822648,47.50876,24.657051,2016-11-08 14:21:58,62.968942488965595
8.77834,-0.074818805,3.6703112,0.02076942,0.07971791,-0.04520403,12.0,9.0451,-0.07328239,3.788292,-0.26675987,-0.001536414,-0.11798072,0.38613316,-0.3974007,0.58482987,47.50876,24.657051,2016-11-08 14:21:59,58.1328852033657
8.789114,-0.074818805,3.654749,0.016493361,0.08093964,-0.046120327,12.0,9.0529175,-0.06689181,3.7696939,-0.26380348,-0.007926993,-0.114944935,0.38732094,-0.39734513,0.58499277,47.50876,24.657051,2016-11-08 14:22:00,61.05310644607484
8.839393,-0.06823475,3.7193923,0.014660766,0.07971791,-0.04153884,12.0,9.052628,-0.06996552,3.7703364,-0.2132349,0.0017307699,-0.05094409,0.38672337,-0.397681,0.5846681,47.50876,24.657051,2016-11-08 14:22:01,53.0574900173104
8.820838,-0.077213004,3.667917,0.02076942,0.090713486,-0.046120327,11.0,9.048481,-0.07290859,3.7802198,-0.22764301,-0.0043044165,-0.11230278,0.38588825,-0.3982877,0.5837391,47.50876,24.657051,2016-11-08 14:22:02,57.92852510444416
8.792108,-0.06943185,3.6565444,0.018325957,0.07696902,-0.04062254,12.0,9.049589,-0.07382044,3.7775493,-0.25748158,0.004388593,-0.12100482,0.38686273,-0.39703494,0.585772,47.50876,24.657051,2016-11-08 14:22:03,48.28252164824512
9.026739,-0.0023942017,3.7822402,0.019547688,0.079107046,-0.040317107,12.0,9.054669,-0.0687009,3.7654536,-0.02793026,0.0663067,0.016786575,0.3863668,-0.3982937,0.5841901,47.50876,24.657051,2016-11-08 14:22:04,64.74658395433207
8.829217,-0.109534726,3.5901055,0.021380283,0.08002335,-0.04642576,12.0,9.069892,-0.06998685,3.728614,-0.24067497,-0.039547876,-0.13850856,0.3885451,-0.39757124,0.58581954,47.50876,24.657051,2016-11-08 14:22:05,67.35594889457774
8.801085,-0.0796072,3.6236243,0.022907447,0.07391469,-0.03970624,12.0,9.070993,-0.047089085,3.7262936,-0.26990795,-0.03251812,-0.10266924,0.38737205,-0.39977068,0.58122194,47.50876,24.657051,2016-11-08 14:22:06,61.0659227152194
8.639477,-0.035314474,3.5511997,0.03176499,0.07574729,-0.05100725,12.0,9.069809,-0.043244097,3.729221,-0.43033218,0.007929623,-0.17802143,0.38638258,-0.4007123,0.5795922,47.50876,24.657051,2016-11-08 14:22:08,64.95027409461716
8.84478,-0.4309563,3.6355953,0.024129177,0.076052725,-0.04520403,11.0,9.055865,-0.038808454,3.7630036,-0.21108532,-0.39214784,-0.12740827,0.3858448,-0.39913744,0.580725,47.50876,24.657051,2016-11-08 14:22:09,62.89426034309009
8.798691,-0.062249243,3.6493618,0.01985312,0.07544186,-0.047036625,11.0,9.05141,-0.05624708,3.7734857,-0.25271893,-0.0060021617,-0.12412381,0.38534024,-0.39865085,0.5821839,47.50876,24.657051,2016-11-08 14:22:10,55.12399631044318
8.80767,-0.060453594,3.6493618,0.019547688,0.08032878,-0.04337143,11.0,9.041326,-0.072052844,3.7973216,-0.23365593,0.01159925,-0.14795971,0.38521686,-0.39770266,0.58402723,47.50876,24.724304,2016-11-08 14:22:11,64.01644876916869
8.790312,-0.074220255,3.6601357,0.01985312,0.076358154,-0.047647487,11.0,9.033515,-0.09342647,3.8153992,-0.24320316,0.019206218,-0.15526342,0.38508382,-0.39677772,0.58660585,47.50876,24.724304,2016-11-08 14:22:12,61.64313019564471
8.793304,-0.06943185,3.6367924,0.015577064,0.08002335,-0.04917465,11.0,9.032194,-0.10696839,3.8181698,-0.2388897,0.03753654,-0.18137741,0.3850903,-0.39634666,0.587717,47.50876,24.724304,2016-11-08 14:22:13,64.28436106190392
8.779537,-0.07182605,3.638588,0.00580322,0.074830994,-0.03970624,11.0,9.034957,-0.11320377,3.811447,-0.25541973,0.041377723,-0.17285895,0.3855762,-0.39614284,0.58873403,47.382618,24.750246,2016-11-08 14:22:14,59.9160905225548
8.782531,-0.065242,3.6415808,0.016798794,0.07971791,-0.04520403,11.0,9.040887,-0.11210809,3.79739,-0.22124672,0.04147914,-0.13067007,0.3854731,-0.3972779,0.5872153,47.382618,24.750246,2016-11-08 14:22:15,59.288449661897964
8.781333,-0.075417355,3.639785,0.020463986,0.08399397,-0.04184427,11.0,9.052592,-0.10464754,3.7696192,-0.2712593,0.029230185,-0.12983418,0.38781798,-0.39652568,0.58861786,47.20561,24.873835,2016-11-08 14:22:16,59.273440603400175
8.619724,-0.01436521,3.4793737,0.018020526,0.07788532,-0.04337143,12.0,9.055855,-0.0942036,3.7620478,-0.43613052,0.07983839,-0.28267407,0.38528922,-0.3997981,0.58319324,47.20561,24.873835,2016-11-08 14:22:17,65.15905616700343
8.738237,-0.04309563,3.6403837,0.01740966,0.07941248,-0.04520403,12.0,9.056894,-0.075972944,3.7599578,-0.31865692,0.032877315,-0.11957407,0.3870693,-0.3980798,0.58462405,47.20561,24.873835,2016-11-08 14:22:18,61.645085987758215
8.790312,-0.0664391,3.6499605,0.021991149,0.08582657,-0.04642576,11.0,9.046759,-0.0814955,3.7841637,-0.25644684,0.0150564015,-0.1342032,0.3842309,-0.39929494,0.5823465,47.20561,24.873835,2016-11-08 14:22:19,68.5930398614225
8.797494,-0.06284779,3.651756,0.016493361,0.076358154,-0.04795292,11.0,9.048141,-0.07497867,3.7809951,-0.2506466,0.012130879,-0.12923908,0.38469034,-0.39893603,0.58278584,47.20561,24.873835,2016-11-08 14:22:20,64.55663270908931
8.801085,-0.079008654,3.6888664,0.016798794,0.07666359,-0.044593163,12.0,9.050274,-0.0692296,3.7759922,-0.24918842,-0.009779051,-0.08712578,0.3841617,-0.40004697,0.58085763,47.20561,24.873835,2016-11-08 14:22:21,55.26295346205741
8.801085,-0.07182605,3.6649241,0.008857546,0.08155051,-0.043676864,12.0,9.053647,-0.078869246,3.767711,-0.25256157,0.0070431978,-0.10278678,0.38644215,-0.39810097,0.58465064,47.22831,24.873835,2016-11-08 14:22:22,62.7559176073149
8.792706,-0.047285482,3.638588,0.025045475,0.081855945,-0.048258353,12.0,9.055392,-0.07353023,3.7636228,-0.26268673,0.026244745,-0.12503481,0.3862456,-0.39862,0.58369637,47.22831,24.873835,2016-11-08 14:22:23,55.75787030338851
8.803479,-0.074220255,3.6457705,0.014660766,0.07819075,-0.048258353,12.0,9.056966,-0.066101246,3.7599738,-0.25348663,-0.008119009,-0.114203215,0.38810614,-0.39698297,0.5858396,47.22831,24.873835,2016-11-08 14:22:24,52.41304937260991
8.785523,-0.076614454,3.642778,0.01985312,0.081855945,-0.047036625,12.0,9.058378,-0.0637088,3.7566109,-0.2728548,-0.012905657,-0.11383295,0.38712126,-0.39828905,0.5837357,47.15409,24.946833,2016-11-08 14:22:25,50.76146783722746
8.801085,-0.07062895,3.6421793,0.015271631,0.07086037,-0.040927973,12.0,9.061397,-0.062006377,3.7493517,-0.26031113,-0.008622572,-0.10717249,0.3861868,-0.39941692,0.5821119,47.15409,24.946833,2016-11-08 14:22:26,51.357400266265145
8.798691,-0.07182605,3.6361938,0.017104227,0.08124508,-0.043982297,12.0,9.05835,-0.068572015,3.7565937,-0.2596588,-0.0032540336,-0.12039995,0.38835266,-0.39711094,0.5859595,47.15409,24.946833,2016-11-08 14:22:27,70.2851238611689
8.814254,-0.06584055,3.651756,0.02107485,0.074830994,-0.04886922,12.0,9.057964,-0.06300328,3.7576206,-0.24371052,-0.0028372705,-0.105864525,0.38807696,-0.39713642,0.5854829,47.15409,24.946833,2016-11-08 14:22:28,65.25618963827705
8.790312,-0.073621705,3.6493618,0.019547688,0.07574729,-0.044898596,12.0,9.05952,-0.061667643,3.7538877,-0.26920795,-0.011954062,-0.104525805,0.3880353,-0.3973978,0.5849087,47.15409,24.946833,2016-11-08 14:22:29,50.2566689600657
8.800487,-0.08678981,3.6445735,0.014660766,0.08124508,-0.046731193,12.0,9.057147,-0.06979747,3.7594693,-0.25666046,-0.016992338,-0.11489582,0.387547,-0.39771438,0.58487475,47.15409,24.946833,2016-11-08 14:22:30,67.33056348463096
8.809465,-0.07182605,3.642778,0.01985312,0.07819075,-0.043066,12.0,9.05195,-0.08034254,3.771755,-0.27121544,0.024677347,-0.12478733,0.3852758,-0.39904854,0.58313566,47.297626,24.894724,2016-11-08 14:22:31,50.75468741552156
8.799889,-0.07182605,3.6391866,0.022296581,0.076358154,-0.044898596,12.0,9.055109,-0.07899404,3.764193,-0.2552204,0.007167995,-0.12500644,0.38687968,-0.39799958,0.5849735,47.297626,24.894724,2016-11-08 14:22:32,59.357902085365744
8.787319,-0.077213004,3.650559,0.02107485,0.073303826,-0.048258353,12.0,9.0514965,-0.084853,3.7727454,-0.26417732,0.0076399967,-0.12218642,0.38673234,-0.39734536,0.5860677,47.433273,24.871033,2016-11-08 14:22:33,63.764498705157216
8.804677,-0.06703765,3.651756,0.014660766,0.07513642,-0.044898596,12.0,9.057729,-0.07974223,3.7578678,-0.25305176,0.012704581,-0.106111765,0.38798296,-0.39737576,0.58634114,47.433273,24.871033,2016-11-08 14:22:34,63.166729142486446
8.802282,-0.065242,3.6481647,0.016187929,0.07819075,-0.044898596,12.0,9.058425,-0.07535598,3.7562804,-0.25614262,0.010113977,-0.10811567,0.3882231,-0.3971487,0.586163,47.433273,24.871033,2016-11-08 14:22:35,68.07531544251917
8.803479,-0.08678981,3.643975,0.01740966,0.076052725,-0.04642576,12.0,9.059872,-0.07266805,3.7528422,-0.25639248,-0.014121756,-0.10886717,0.3865605,-0.39909413,0.58327585,47.433273,24.871033,2016-11-08 14:22:36,61.4811907155525
8.78672,-0.0700304,3.6433764,0.013439035,0.0842994,-0.049785517,12.0,9.050932,-0.08598668,3.774074,-0.26421165,0.015956283,-0.13069773,0.38695145,-0.39756903,0.5858855,47.433273,24.871033,2016-11-08 14:22:37,67.3483301767356
8.804078,-0.06464344,3.657143,0.01863139,0.08552113,-0.043676864,12.0,9.048075,-0.09209844,3.7807715,-0.24399662,0.027454995,-0.12362838,0.38549003,-0.39849553,0.5846978,47.433273,24.871033,2016-11-08 14:22:38,67.06116998556675
8.803479,-0.06344634,3.657143,0.018936822,0.08093964,-0.047647487,12.0,9.057958,-0.0808084,3.7572956,-0.25447845,0.017362058,-0.10015249,0.38692373,-0.3982493,0.5848077,47.464645,24.828218,2016-11-08 14:22:39,59.09776444566664
8.794501,-0.08020575,3.6409822,0.023518313,0.076358154,-0.040927973,12.0,9.062176,-0.07396628,3.7472537,-0.26767445,-0.006239474,-0.106271505,0.38743046,-0.39838105,0.58452636,47.464645,24.828218,2016-11-08 14:22:40,61.89179419816894
8.813655,-0.0712275,3.6367924,0.01985312,0.08155051,-0.04734206,12.0,9.056938,-0.07111936,3.75995,-0.24328327,-1.0813773E-4,-0.1231575,0.38640413,-0.39880332,0.5833053,47.464645,24.828218,2016-11-08 14:22:41,64.6739639317843
8.796297,-0.0676362,3.645172,0.025961773,0.071776666,-0.04550946,12.0,9.070973,-0.040540684,3.726421,-0.27467632,-0.027095515,-0.081249,0.38845703,-0.39879152,0.5824766,47.561317,24.808435,2016-11-08 14:22:42,65.55087241528614
8.810063,-0.06284779,3.6511576,0.019242255,0.07880162,-0.04184427,12.0,9.080757,-0.027350657,3.7026362,-0.27069378,-0.035497136,-0.051478624,0.38896286,-0.39967912,0.58071095,47.561317,24.808435,2016-11-08 14:22:43,62.96010162260605
8.789713,-0.062249243,3.6499605,0.02107485,0.08155051,-0.04642576,12.0,9.071019,-0.038080726,3.7263327,-0.28130627,-0.024168517,-0.07637215,0.38809812,-0.39934504,0.5814049,47.561317,24.808435,2016-11-08 14:22:44,53.650003720854464
8.775348,-0.062249243,3.654749,0.016187929,0.074830994,-0.047647487,12.0,9.067201,-0.0432932,3.735557,-0.29185295,-0.018956043,-0.08080816,0.3881508,-0.39848837,0.58264303,47.724384,24.74081,2016-11-08 14:22:45,51.196278070771164
8.802282,-0.06703765,3.6577415,0.017715093,0.07971791,-0.049480084,12.0,9.062134,-0.055472296,3.7476695,-0.25985146,-0.011565354,-0.08992791,0.3880166,-0.39797983,0.5839238,47.724384,24.74081,2016-11-08 14:22:46,66.29520683828913
8.776545,-0.0688333,3.651756,0.02076942,0.07941248,-0.04520403,12.0,9.057051,-0.0609481,3.7598555,-0.26913357,-0.009082299,-0.12426019,0.38585842,-0.39932352,0.5819035,47.724384,24.74081,2016-11-08 14:22:47,62.43480243157133
8.797494,-0.06943185,3.6589386,0.016187929,0.082161374,-0.050396383,12.0,9.056996,-0.062231418,3.7599666,-0.2595024,-0.007200431,-0.101027966,0.3872327,-0.39796257,0.5839237,47.783165,24.74081,2016-11-08 14:22:48,60.45526270760986
8.78672,-0.07182605,3.6487634,0.022296581,0.07819075,-0.04642576,12.0,9.047853,-0.06909078,3.7817962,-0.2611332,-0.0027352646,-0.1330328,0.38687456,-0.3969801,0.5854176,47.783165,24.74081,2016-11-08 14:22:49,67.35743147955462
8.803479,-0.05865794,3.6415808,0.02107485,0.07819075,-0.044593163,12.0,9.04361,-0.07769319,3.7917657,-0.24013042,0.019035246,-0.15018487,0.3860705,-0.39723864,0.5854171,47.783165,24.74081,2016-11-08 14:22:50,60.880748530470605
8.813056,-0.0664391,3.6511576,0.01863139,0.0852157,-0.043982297,12.0,9.043077,-0.080620185,3.7929738,-0.23002148,0.014181085,-0.14181614,0.387455,-0.39569363,0.58779395,47.783165,24.74081,2016-11-08 14:22:51,60.97290115956875
8.792108,-0.06943185,3.645172,0.01863139,0.07422013,-0.045814894,12.0,9.040888,-0.09190789,3.797934,-0.24878025,0.02247604,-0.15276194,0.38464457,-0.3979979,0.58502305,47.783165,24.74081,2016-11-08 14:22:52,57.690461231080604
8.810662,-0.0712275,3.669114,0.02107485,0.08002335,-0.04795292,12.0,9.043678,-0.093294956,3.791249,-0.23301601,0.022067457,-0.122134924,0.3864465,-0.39660466,0.5873809,47.876015,24.74081,2016-11-08 14:22:53,61.54688588025387
8.798691,-0.062249243,3.6445735,0.024740042,0.086132,-0.04550946,12.0,9.055829,-0.07939269,3.7624497,-0.25713825,0.017143443,-0.11787629,0.38746563,-0.3972607,0.58602715,47.876015,24.74081,2016-11-08 14:22:54,62.95649721056617
8.792108,-0.079008654,3.6326025,0.018325957,0.08002335,-0.044593163,12.0,9.05592,-0.07798954,3.7622635,-0.26381207,-0.0010191128,-0.12966108,0.38563123,-0.39917797,0.5830297,47.876015,24.74081,2016-11-08 14:22:55,60.33910893679625
8.792108,-0.075417355,3.645172,0.020463986,0.08399397,-0.043982297,12.0,9.053714,-0.086658,3.7673802,-0.26160622,0.011240646,-0.12220812,0.387006,-0.3976566,0.58591664,47.876015,24.774162,2016-11-08 14:22:57,58.580779079322454
8.775348,-0.06943185,3.6349967,0.019547688,0.081855945,-0.04153884,12.0,9.059964,-0.08268735,3.7524128,-0.28461647,0.013255499,-0.11741614,0.3861551,-0.39951307,0.5831604,47.876015,24.774162,2016-11-08 14:22:58,56.40966099274291
8.801085,-0.08080431,3.642778,0.025961773,0.0729984,-0.043676864,12.0,9.060944,-0.084656894,3.750002,-0.25985813,0.0038525835,-0.10722399,0.38659486,-0.3990277,0.58420056,47.876015,24.774162,2016-11-08 14:22:59,63.502765692688385
8.817246,-0.073023155,3.6685154,0.02107485,0.077579886,-0.043982297,12.0,9.063156,-0.07467326,3.7448661,-0.24590969,0.0016501024,-0.07635069,0.3862901,-0.3997436,0.5824767,48.04182,24.760115,2016-11-08 14:23:00,64.46269406175526
8.796297,-0.06464344,3.6212301,0.019242255,0.080634214,-0.044898596,12.0,9.060608,-0.06409721,3.7512214,-0.26431084,-5.4623187E-4,-0.1299913,0.38633478,-0.3992282,0.58263403,48.04182,24.760115,2016-11-08 14:23:01,61.33755151428444
8.812458,-0.075417355,3.6565444,0.019547688,0.07666359,-0.04642576,12.0,9.062079,-0.061685763,3.7477047,-0.24962139,-0.013731591,-0.0911603,0.38733086,-0.39855677,0.58335364,48.04182,24.760115,2016-11-08 14:23:02,64.17823383732897
8.796297,-0.06943185,3.638588,0.015577064,0.07513642,-0.045814894,12.0,9.0675125,-0.05829203,3.7345955,-0.27121544,-0.011139818,-0.096007586,0.38797975,-0.3987685,0.58349234,48.04182,24.760115,2016-11-08 14:23:03,61.96163418102712
