ACC_X,ACC_Y,ACC_Z,LIGH_1,TIME,VOICE
-0.612,1.685,-1.992,0.0,2017-05-29 09:44:31,-Infinity
-0.153,0.0,9.807,50.0,2017-05-29 09:44:32,-12.747010569416322
-0.306,0.0,9.807,52.0,2017-05-29 09:44:33,1.3333927863473136
-0.306,0.0,9.807,57.0,2017-05-29 09:44:34,9.630496077527065
-0.306,0.0,9.807,42.0,2017-05-29 09:44:35,67.57603604399198
-0.306,0.0,9.807,42.0,2017-05-29 09:44:36,76.69408496052627
-0.306,0.0,9.807,48.0,2017-05-29 09:44:37,62.74649775780705
-0.306,0.0,9.807,46.0,2017-05-29 09:44:39,47.169212815213854
-0.306,0.0,9.807,40.0,2017-05-29 09:44:40,52.7009631785443
-0.306,0.0,9.807,42.0,2017-05-29 09:44:41,52.0100459674625
-0.306,0.0,9.807,35.0,2017-05-29 09:44:42,58.24496356246929
-0.153,-0.153,9.653,35.0,2017-05-29 09:44:44,63.98102459251329
-0.306,0.0,9.653,44.0,2017-05-29 09:44:45,63.75057775936412
-0.306,0.0,9.807,40.0,2017-05-29 09:44:46,48.32658355344982
-0.306,0.0,9.807,35.0,2017-05-29 09:44:47,56.43381576536421
-0.306,0.0,9.807,48.0,2017-05-29 09:44:48,51.018614090784965
-0.306,0.0,9.807,54.0,2017-05-29 09:44:49,48.74475367015897
-0.306,0.0,9.807,42.0,2017-05-29 09:44:50,65.99041800096673
-0.306,0.0,9.807,46.0,2017-05-29 09:44:51,66.75580110643028
-0.306,0.0,9.807,38.0,2017-05-29 09:44:52,57.097381363793616
-0.306,0.0,9.653,42.0,2017-05-29 09:44:54,61.35624332747035
-0.306,0.0,9.807,40.0,2017-05-29 09:44:55,61.28692073384101
-0.306,0.0,9.807,42.0,2017-05-29 09:44:56,63.32817260790878
-0.306,0.0,9.807,44.0,2017-05-29 09:44:57,57.7063814947185
-0.306,0.0,9.807,44.0,2017-05-29 09:44:58,51.29039736037384
-0.306,0.0,9.807,44.0,2017-05-29 09:44:59,61.1417092353171
-0.306,0.0,9.807,40.0,2017-05-29 09:45:00,49.375119994136725
-0.306,0.0,9.807,46.0,2017-05-29 09:45:01,52.339012562161216
-0.306,0.0,9.807,35.0,2017-05-29 09:45:02,45.769968329187016
-0.306,0.0,9.807,38.0,2017-05-29 09:45:03,59.218814221437796
-0.306,0.0,9.807,35.0,2017-05-29 09:45:04,58.63611159369035
-0.306,0.0,9.807,33.0,2017-05-29 09:45:05,50.064413718034864
-0.306,0.0,9.807,38.0,2017-05-29 09:45:06,50.127326836613726
-0.306,0.0,9.807,42.0,2017-05-29 09:45:07,70.23957016499186
-0.306,0.0,9.807,35.0,2017-05-29 09:45:10,62.244049760519886
-0.306,0.0,9.807,40.0,2017-05-29 09:45:11,63.188709083851926
-0.306,0.0,9.807,40.0,2017-05-29 09:45:12,58.5056853645703
-0.306,0.0,9.807,40.0,2017-05-29 09:45:14,60.153159582599386
-0.306,0.0,9.807,38.0,2017-05-29 09:45:15,59.672676564372686
-0.306,0.0,9.807,35.0,2017-05-29 09:45:16,56.73029707035414
-0.306,0.0,9.807,40.0,2017-05-29 09:45:17,55.565088283347784
-0.306,0.0,9.807,40.0,2017-05-29 09:45:18,49.48702933530193
-0.306,0.0,9.653,38.0,2017-05-29 09:45:19,58.38681201899557
-0.306,0.0,9.807,44.0,2017-05-29 09:45:20,62.557974224412085
-0.306,0.0,9.807,48.0,2017-05-29 09:45:21,66.5887633424043
-0.306,0.0,9.807,44.0,2017-05-29 09:45:22,64.11016865130455
-0.306,0.0,9.807,42.0,2017-05-29 09:45:23,58.8095528273994
-0.306,0.0,9.807,44.0,2017-05-29 09:45:24,62.28080170705175
-0.306,0.0,9.807,40.0,2017-05-29 09:45:25,58.21501016875225
-0.306,0.0,9.807,40.0,2017-05-29 09:45:26,54.222685651198354
-0.306,0.0,9.807,38.0,2017-05-29 09:45:27,50.85636613542472
-0.306,0.0,9.807,44.0,2017-05-29 09:45:28,52.544018451528174
-0.306,0.0,9.807,42.0,2017-05-29 09:45:29,54.78981357018785
-0.306,0.0,9.807,38.0,2017-05-29 09:45:30,62.058847933537
-0.306,0.0,9.807,42.0,2017-05-29 09:45:32,77.30298959059033
-0.306,0.0,9.807,48.0,2017-05-29 09:45:33,76.41204580343597
-0.306,0.0,9.807,46.0,2017-05-29 09:45:34,58.05082965189273
-0.306,0.0,9.807,40.0,2017-05-29 09:45:35,47.985214469239004
-0.306,0.0,9.807,42.0,2017-05-29 09:45:36,48.920997529470675
-0.306,0.0,9.807,38.0,2017-05-29 09:45:37,51.06481555372439
-0.306,0.0,9.807,44.0,2017-05-29 09:45:38,49.493064945224965
-0.306,0.0,9.807,38.0,2017-05-29 09:45:39,64.84661143056776
-0.306,0.0,9.807,38.0,2017-05-29 09:45:40,52.25363540911303
-0.306,0.0,9.807,42.0,2017-05-29 09:45:41,48.02859293392558
-0.306,0.0,9.653,44.0,2017-05-29 09:45:42,64.1244949094554
-0.306,0.0,9.807,40.0,2017-05-29 09:45:43,63.10886464064198
-0.306,0.0,9.653,42.0,2017-05-29 09:45:44,62.17857328732961
-0.306,0.0,9.807,35.0,2017-05-29 09:45:45,59.68457205335796
-0.306,0.0,9.807,42.0,2017-05-29 09:45:46,60.63151303974263
-0.306,0.0,9.807,35.0,2017-05-29 09:45:47,61.248671355644774
-0.306,0.0,9.807,40.0,2017-05-29 09:45:48,62.7049277955717
-0.306,0.0,9.807,44.0,2017-05-29 09:45:49,77.99015476219444
-0.306,0.0,9.807,44.0,2017-05-29 09:45:50,52.73459565521588
-0.306,0.0,9.807,50.0,2017-05-29 09:45:51,54.25534510883694
-0.306,0.0,9.653,49.0,2017-05-29 09:45:52,61.37451492255899
-0.306,-0.153,9.807,49.0,2017-05-29 09:45:53,58.77261647820539
-0.306,0.0,9.653,48.0,2017-05-29 09:45:54,49.63689318067657
-0.306,0.0,9.653,49.0,2017-05-29 09:45:57,50.80704776414643
-0.153,0.0,9.807,49.0,2017-05-29 09:45:58,61.875352810904175
-0.766,0.0,9.653,50.0,2017-05-29 09:45:59,63.23774059671392
-0.306,0.0,9.653,49.0,2017-05-29 09:46:00,58.20597535577241
-0.153,0.0,9.807,48.0,2017-05-29 09:46:01,55.73685710553303
-0.306,0.0,9.807,49.0,2017-05-29 09:46:02,71.98563066710983
-0.153,0.306,9.807,49.0,2017-05-29 09:46:03,64.28557126353739
-0.306,0.0,9.807,47.0,2017-05-29 09:46:05,48.620235939436014
-0.306,-0.459,9.96,48.0,2017-05-29 09:46:06,72.51121416806562
-0.306,0.0,9.807,47.0,2017-05-29 09:46:07,72.46782973242097
-0.306,0.0,9.653,48.0,2017-05-29 09:46:08,58.74721347447938
-0.306,0.0,9.653,48.0,2017-05-29 09:46:09,57.710538311654304
-0.306,0.0,9.653,47.0,2017-05-29 09:46:10,64.87782395337871
-0.306,0.0,9.807,46.0,2017-05-29 09:46:12,65.41056919784413
-0.306,0.0,9.807,45.0,2017-05-29 09:46:16,58.78935216046492
-0.306,0.0,9.807,44.0,2017-05-29 09:46:17,79.71397621585747
-0.306,0.0,9.807,46.0,2017-05-29 09:46:19,56.04412050232361
-0.306,0.0,9.653,48.0,2017-05-29 09:46:20,51.137381727823204
-0.306,0.0,9.653,49.0,2017-05-29 09:46:21,52.677032450297716
-0.306,0.0,9.653,49.0,2017-05-29 09:46:24,55.46510923041161
-0.306,0.0,9.807,50.0,2017-05-29 09:46:26,54.24854936291712
-0.306,0.0,9.807,50.0,2017-05-29 09:46:29,61.869452035264
-0.306,0.0,9.807,49.0,2017-05-29 09:46:30,60.74884414932459
-0.306,0.0,9.807,50.0,2017-05-29 09:46:31,50.13823123345152
-0.306,0.0,9.807,49.0,2017-05-29 09:46:32,52.65396867382406
-0.306,0.0,9.807,49.0,2017-05-29 09:46:33,51.59632988449978
-0.306,0.0,9.807,50.0,2017-05-29 09:46:36,60.81348589574149
-0.306,0.0,9.807,50.0,2017-05-29 09:46:37,62.96234791105179
-0.306,0.0,9.807,49.0,2017-05-29 09:46:38,56.97072945696921
-0.306,0.0,9.807,50.0,2017-05-29 09:46:39,53.124209768787985
-0.306,0.0,9.807,49.0,2017-05-29 09:46:40,48.54171765587672
-0.306,0.0,9.653,50.0,2017-05-29 09:46:42,49.30044146910917
-0.306,0.0,9.653,50.0,2017-05-29 09:46:44,62.02780256581591
-0.306,0.0,9.653,50.0,2017-05-29 09:46:45,49.158906291474416
-0.306,0.0,9.653,50.0,2017-05-29 09:46:48,58.046125095451984
-0.306,0.0,9.653,49.0,2017-05-29 09:46:49,57.65450731350387
-0.306,0.0,9.807,49.0,2017-05-29 09:46:50,60.36425348222862
-0.306,0.0,9.653,50.0,2017-05-29 09:46:52,65.65582581294412
-0.306,0.0,9.807,49.0,2017-05-29 09:46:53,65.2678578379739
-0.306,0.0,9.807,50.0,2017-05-29 09:46:54,58.75110583777296
-0.306,0.0,9.653,50.0,2017-05-29 09:46:56,45.46850924724169
-0.306,0.0,9.807,50.0,2017-05-29 09:46:57,49.38456005423974
-0.306,0.0,9.653,50.0,2017-05-29 09:46:59,57.73705322491996
-0.306,0.0,9.807,50.0,2017-05-29 09:47:00,58.219460026254424
-0.306,0.0,9.653,50.0,2017-05-29 09:47:02,59.81703341373829
-0.306,0.0,9.653,49.0,2017-05-29 09:47:03,62.33833822835379
-0.306,0.0,9.653,50.0,2017-05-29 09:47:04,60.601231199547605
-0.306,0.0,9.653,50.0,2017-05-29 09:47:05,58.42532125604624
-0.306,0.0,9.653,50.0,2017-05-29 09:47:08,51.86090776029856
-0.306,0.0,9.653,50.0,2017-05-29 09:47:09,54.77225264840082
-0.306,0.0,9.653,50.0,2017-05-29 09:47:10,63.79133527110842
-0.306,0.0,9.653,50.0,2017-05-29 09:47:13,61.125096907071125
-0.306,0.0,9.653,50.0,2017-05-29 09:47:16,61.66120110468741
-0.306,0.0,9.653,50.0,2017-05-29 09:47:17,52.947227588974215
-0.306,0.0,9.653,50.0,2017-05-29 09:47:19,63.59959574569909
-0.306,0.0,9.807,50.0,2017-05-29 09:47:20,59.61627112585663
-0.306,0.0,9.653,50.0,2017-05-29 09:47:23,46.53960183341856
-0.306,0.0,9.653,50.0,2017-05-29 09:47:25,48.016469034259366
-0.306,0.0,9.653,50.0,2017-05-29 09:47:26,46.594015068872864
-0.306,0.0,9.653,50.0,2017-05-29 09:47:30,45.1614031349455
-0.306,0.0,9.653,50.0,2017-05-29 09:47:34,46.378987830596714
-0.306,0.0,9.653,50.0,2017-05-29 09:47:36,45.220983638281155
-0.306,0.0,9.653,50.0,2017-05-29 09:47:37,53.092948968268985
-0.306,0.0,9.653,50.0,2017-05-29 09:47:38,51.08626662792492
-0.306,0.0,9.653,50.0,2017-05-29 09:47:40,49.42674509148786
-0.306,-0.153,9.807,50.0,2017-05-29 09:47:41,56.72315106760193
-0.306,0.0,9.653,50.0,2017-05-29 09:47:42,56.89035626718251
-0.306,0.0,9.653,50.0,2017-05-29 09:47:44,62.74849163213074
-0.306,-0.153,9.807,50.0,2017-05-29 09:47:45,60.391969932730056
-0.306,-0.153,9.807,50.0,2017-05-29 09:47:46,57.35669045265457
-0.306,0.0,9.807,50.0,2017-05-29 09:47:47,57.580190993355515
-0.306,0.0,9.807,50.0,2017-05-29 09:47:48,46.676590187548854
-0.306,0.0,9.807,50.0,2017-05-29 09:47:49,48.383789013505904
-0.306,-0.153,9.807,50.0,2017-05-29 09:47:50,56.03417443496554
-0.306,0.0,9.653,50.0,2017-05-29 09:47:52,57.7286205605794
-0.306,0.0,9.807,50.0,2017-05-29 09:47:53,47.867982109525215
-0.306,0.0,9.653,50.0,2017-05-29 09:47:54,49.907266130684285
-0.306,0.0,9.653,50.0,2017-05-29 09:47:55,52.15973595303991
-0.306,0.0,9.653,50.0,2017-05-29 09:47:57,56.22096895364747
-0.306,0.0,9.653,50.0,2017-05-29 09:47:58,58.0920628155782
-0.306,0.0,9.653,50.0,2017-05-29 09:48:03,49.62068582084548
-0.306,0.0,9.653,50.0,2017-05-29 09:48:04,54.64012459500075
-0.306,0.0,9.653,50.0,2017-05-29 09:48:05,50.27273637826351
-0.306,0.0,9.653,50.0,2017-05-29 09:48:08,49.519819543772
-0.306,0.0,9.653,50.0,2017-05-29 09:48:09,64.28429684466158
-0.306,0.0,9.653,50.0,2017-05-29 09:48:13,56.15134873200759
-0.306,0.0,9.653,50.0,2017-05-29 09:48:15,60.23700857104734
-0.306,0.0,9.807,49.0,2017-05-29 09:48:17,61.19946882493079
-0.306,0.0,9.653,50.0,2017-05-29 09:48:18,50.12324715823706
-0.306,0.0,9.653,50.0,2017-05-29 09:48:20,53.80722926983861
-0.306,0.0,9.807,49.0,2017-05-29 09:48:22,56.20402730265913
-0.306,0.0,9.653,49.0,2017-05-29 09:48:24,49.60379274106458
-0.306,0.0,9.807,48.0,2017-05-29 09:48:25,54.17392855994486
-0.306,0.0,9.653,49.0,2017-05-29 09:48:26,57.93067941934743
-0.306,0.0,9.653,48.0,2017-05-29 09:48:27,63.65942544620132
-0.306,0.0,9.653,48.0,2017-05-29 09:48:28,57.29012060930715
-0.306,0.0,9.653,48.0,2017-05-29 09:48:30,53.53749072760647
-0.306,0.0,9.653,48.0,2017-05-29 09:48:31,52.236778675028326
-0.306,0.0,9.653,48.0,2017-05-29 09:48:32,51.195087175413
-0.306,0.0,9.653,48.0,2017-05-29 09:48:34,60.292322250886784
-0.306,0.0,9.653,48.0,2017-05-29 09:48:35,58.53465999461682
-0.306,0.0,9.653,48.0,2017-05-29 09:48:36,57.8592868380835
-0.306,0.0,9.653,48.0,2017-05-29 09:48:37,61.80460922123318
-0.306,0.0,9.807,48.0,2017-05-29 09:48:38,60.97985258857673
-0.306,0.0,9.653,47.0,2017-05-29 09:48:40,61.85238253114989
-0.306,0.0,9.807,47.0,2017-05-29 09:48:41,53.818906102398685
-0.306,0.0,9.653,47.0,2017-05-29 09:48:43,52.22652590053148
-0.306,0.0,9.807,47.0,2017-05-29 09:48:44,54.43593839770284
-0.306,0.0,9.807,47.0,2017-05-29 09:48:45,59.23481557243639
-0.306,0.0,9.807,46.0,2017-05-29 09:48:47,55.191889116297716
-0.306,0.0,9.807,46.0,2017-05-29 09:48:48,52.912796260764
-0.306,0.0,9.653,46.0,2017-05-29 09:48:49,59.55366879722714
-0.306,0.0,9.653,46.0,2017-05-29 09:48:51,59.00675177263267
-0.306,0.0,9.653,46.0,2017-05-29 09:48:52,55.249758937818925
-0.306,0.0,9.653,46.0,2017-05-29 09:48:53,49.92533318582298
-0.306,0.0,9.653,46.0,2017-05-29 09:48:55,51.763648507665565
-0.306,0.0,9.653,46.0,2017-05-29 09:48:57,56.23384524282079
-0.306,0.0,9.653,46.0,2017-05-29 09:48:58,55.787023836180666
-0.306,0.0,9.653,46.0,2017-05-29 09:49:00,60.061561586112674
-0.306,0.0,9.653,46.0,2017-05-29 09:49:03,60.19309084008484
-0.306,0.0,9.653,46.0,2017-05-29 09:49:04,58.4276436220338
-0.306,0.0,9.653,46.0,2017-05-29 09:49:05,55.402659530131764
-0.306,0.0,9.653,46.0,2017-05-29 09:49:06,52.773942913593174
-0.306,0.0,9.653,46.0,2017-05-29 09:49:07,56.67788450013995
-0.306,0.0,9.653,46.0,2017-05-29 09:49:10,65.12159865072023
-0.306,0.0,9.807,46.0,2017-05-29 09:49:11,61.26410665122485
-0.306,0.0,9.653,46.0,2017-05-29 09:49:13,60.92174084824031
-0.306,0.0,9.653,46.0,2017-05-29 09:49:14,52.91384808704339
-0.306,0.0,9.653,46.0,2017-05-29 09:49:16,51.84066532341161
-0.306,0.0,9.653,46.0,2017-05-29 09:49:19,48.81370781667733
-0.306,0.0,9.807,45.0,2017-05-29 09:49:20,53.70255040732558
-0.306,0.0,9.653,46.0,2017-05-29 09:49:23,52.617588710029885
-0.306,0.0,9.653,46.0,2017-05-29 09:49:24,61.50200145550058
-0.306,0.0,9.807,46.0,2017-05-29 09:49:25,58.35007691298787
-0.306,0.0,9.653,46.0,2017-05-29 09:49:27,53.0384711217974
-0.306,0.0,9.807,46.0,2017-05-29 09:49:28,51.226156446170265
-0.306,0.0,9.653,46.0,2017-05-29 09:49:29,46.61428102005573
-0.306,0.0,9.653,46.0,2017-05-29 09:49:30,55.0642467288123
-0.306,0.0,9.653,46.0,2017-05-29 09:49:32,67.20379705947701
-0.306,0.0,9.807,45.0,2017-05-29 09:49:33,66.77788467097704
-0.306,0.0,9.653,46.0,2017-05-29 09:49:35,57.272899833200164
-0.306,0.0,9.653,45.0,2017-05-29 09:49:36,57.316631815960044
-0.306,0.0,9.653,46.0,2017-05-29 09:49:38,58.18905267131552
-0.306,0.0,9.807,46.0,2017-05-29 09:49:39,46.53972135839868
-0.306,0.0,9.653,46.0,2017-05-29 09:49:40,48.53083267408198
-0.306,0.0,9.653,46.0,2017-05-29 09:49:44,61.9977523532112
-0.306,0.0,9.653,46.0,2017-05-29 09:49:46,63.524059961952666
-0.306,0.0,9.653,46.0,2017-05-29 09:49:47,59.059841052196475
-0.306,0.0,9.653,46.0,2017-05-29 09:49:49,55.60660616626025
-0.306,0.0,9.653,46.0,2017-05-29 09:49:50,54.7346029571773
-0.306,0.0,9.653,46.0,2017-05-29 09:49:52,55.24104892186819
-0.306,0.0,9.653,46.0,2017-05-29 09:49:54,54.53592287328944
-0.306,0.0,9.653,46.0,2017-05-29 09:49:55,54.56070805219211
-0.306,0.0,9.653,46.0,2017-05-29 09:49:57,52.91862341256251
-0.306,0.0,9.653,46.0,2017-05-29 09:49:58,47.662769693976905
-0.306,0.0,9.653,46.0,2017-05-29 09:49:59,54.26137324555822
-0.306,0.0,9.653,46.0,2017-05-29 09:50:00,61.098261561856965
-0.306,0.0,9.653,46.0,2017-05-29 09:50:01,55.2969998016743
-0.306,0.0,9.653,46.0,2017-05-29 09:50:02,57.64195695290325
-0.306,0.0,9.653,46.0,2017-05-29 09:50:04,46.59976303407391
-0.306,0.0,9.653,46.0,2017-05-29 09:50:06,56.03036709614608
-0.306,0.0,9.807,46.0,2017-05-29 09:50:07,48.25792156000205
-0.306,0.0,9.653,46.0,2017-05-29 09:50:08,55.555276876423264
-0.306,0.0,9.653,46.0,2017-05-29 09:50:09,55.05472182462951
-0.306,0.0,9.653,46.0,2017-05-29 09:50:10,52.96625199878622
-0.306,0.0,9.653,46.0,2017-05-29 09:50:12,48.53738240751534
-0.306,0.0,9.807,46.0,2017-05-29 09:50:13,46.174993880362784
-0.306,0.0,9.807,47.0,2017-05-29 09:50:14,50.22650977689483
-0.306,0.0,9.653,47.0,2017-05-29 09:50:16,58.10291006833901
-0.306,0.0,9.653,47.0,2017-05-29 09:50:17,53.52300400999223
-0.306,0.0,9.807,46.0,2017-05-29 09:50:18,54.05556694639289
-0.306,0.0,9.653,47.0,2017-05-29 09:50:20,49.94362334326024
-0.306,0.0,9.653,46.0,2017-05-29 09:50:21,56.3002322758647
-0.306,0.0,9.807,48.0,2017-05-29 09:50:22,54.39628091259726
-0.306,0.0,9.653,47.0,2017-05-29 09:50:24,46.13543042605008
-0.306,0.0,9.653,47.0,2017-05-29 09:50:25,45.93277273022112
-0.306,0.0,9.807,47.0,2017-05-29 09:50:26,57.03851552196341
-0.306,0.0,9.653,48.0,2017-05-29 09:50:28,52.94650713901451
-0.306,0.0,9.807,47.0,2017-05-29 09:50:29,56.0086894237265
-0.306,0.0,9.653,47.0,2017-05-29 09:50:30,58.07314797789645
-0.306,0.0,9.807,48.0,2017-05-29 09:50:31,59.07634077779996
-0.306,0.0,9.653,47.0,2017-05-29 09:50:33,57.29227480863112
-0.306,0.0,9.807,47.0,2017-05-29 09:50:34,53.26199936984231
-0.306,0.0,9.807,48.0,2017-05-29 09:50:35,48.373232751241346
-0.306,0.0,9.653,48.0,2017-05-29 09:50:36,51.48508500553082
-0.306,0.0,9.653,48.0,2017-05-29 09:50:37,51.935948902134406
-0.459,0.0,9.807,48.0,2017-05-29 09:50:39,57.65789454117116
-0.306,0.0,9.807,48.0,2017-05-29 09:50:40,61.29635888970447
-0.306,0.0,9.807,47.0,2017-05-29 09:50:41,53.26558763742994
-0.306,0.0,9.653,48.0,2017-05-29 09:50:42,57.75355682607473
-0.306,0.0,9.653,48.0,2017-05-29 09:50:44,52.8133296402763
-0.306,0.0,9.653,48.0,2017-05-29 09:50:46,56.800636457858616
-0.306,0.0,9.653,48.0,2017-05-29 09:50:47,50.80994806927088
-0.306,0.0,9.653,48.0,2017-05-29 09:50:48,52.09305834290998
-0.306,0.0,9.653,48.0,2017-05-29 09:50:50,54.16183732818898
-0.306,0.0,9.653,48.0,2017-05-29 09:50:51,51.129010276322255
-0.306,0.0,9.653,48.0,2017-05-29 09:50:52,51.49696881701558
-0.306,0.0,9.653,48.0,2017-05-29 09:50:54,52.06473323906373
-0.306,0.0,9.653,48.0,2017-05-29 09:50:55,50.51232497650308
-0.306,0.0,9.653,48.0,2017-05-29 09:50:58,53.95212965793473
-0.306,0.0,9.653,48.0,2017-05-29 09:50:59,58.541488739294856
-0.306,0.0,9.807,48.0,2017-05-29 09:51:00,57.78907349957752
-0.306,0.0,9.653,48.0,2017-05-29 09:51:01,52.835047494785464
-0.306,0.0,9.807,48.0,2017-05-29 09:51:03,47.60011627330816
-0.306,0.0,9.653,48.0,2017-05-29 09:51:04,46.63248584401185
-0.306,0.0,9.653,48.0,2017-05-29 09:51:06,49.981802719715546
-0.306,0.0,9.807,48.0,2017-05-29 09:51:07,51.03873540150139
-0.306,0.0,9.653,48.0,2017-05-29 09:51:09,47.57240614484868
-0.306,0.0,9.653,48.0,2017-05-29 09:51:10,62.31680392068402
-0.306,0.0,9.653,48.0,2017-05-29 09:51:11,55.50704317451838
-0.306,0.0,9.653,48.0,2017-05-29 09:51:13,55.185648143320336
-0.306,0.0,9.653,48.0,2017-05-29 09:51:14,61.98305737553541
-0.306,0.0,9.653,48.0,2017-05-29 09:51:15,59.36617856686921
-0.306,0.0,9.653,48.0,2017-05-29 09:51:16,60.70954843934363
-0.306,0.0,9.653,48.0,2017-05-29 09:51:18,57.55492262811755
-0.306,0.0,9.653,48.0,2017-05-29 09:51:19,57.08880326093778
-0.306,0.0,9.653,48.0,2017-05-29 09:51:20,56.726238931685636
-0.306,0.0,9.653,48.0,2017-05-29 09:51:22,54.376129616041936
-0.306,0.0,9.653,48.0,2017-05-29 09:51:23,49.83439061567587
-0.306,0.0,9.653,48.0,2017-05-29 09:51:29,49.389914920370394
-0.306,0.0,9.653,48.0,2017-05-29 09:51:31,50.56992475217844
-0.306,0.0,9.653,48.0,2017-05-29 09:51:32,52.64265531493783
-0.306,0.0,9.653,48.0,2017-05-29 09:51:33,53.05168596751404
-0.306,0.0,9.653,48.0,2017-05-29 09:51:35,51.51288364499224
-0.306,0.0,9.653,48.0,2017-05-29 09:51:36,50.84173273940111
-0.306,0.0,9.653,48.0,2017-05-29 09:51:38,52.77082083288698
-0.306,0.0,9.653,48.0,2017-05-29 09:51:40,52.439651999144026
-0.306,0.0,9.653,48.0,2017-05-29 09:51:41,54.997126662421046
-0.306,0.0,9.653,48.0,2017-05-29 09:51:42,51.691629536141605
-0.306,0.0,9.807,49.0,2017-05-29 09:51:43,48.81381143450969
-0.306,0.0,9.807,48.0,2017-05-29 09:51:44,52.62657916234681
-0.306,0.0,9.807,48.0,2017-05-29 09:51:45,54.39194576095033
-0.306,0.0,9.807,48.0,2017-05-29 09:51:47,52.41128545050071
-0.306,0.0,9.653,48.0,2017-05-29 09:51:49,56.51338306948383
-0.306,0.0,9.807,48.0,2017-05-29 09:51:50,60.29261986923001
-0.306,0.0,9.653,49.0,2017-05-29 09:51:51,58.50457444122004
-0.306,0.0,9.807,48.0,2017-05-29 09:51:52,52.999805386073966
-0.306,0.0,9.807,49.0,2017-05-29 09:51:53,49.52610026475444
-0.306,0.0,9.653,48.0,2017-05-29 09:51:55,54.86993620420768
-0.306,0.0,9.807,48.0,2017-05-29 09:51:56,55.690582803004645
-0.306,0.0,9.653,48.0,2017-05-29 09:51:57,50.38650557526325
-0.306,0.0,9.653,49.0,2017-05-29 09:51:59,53.10531277801287
-0.306,0.0,9.807,48.0,2017-05-29 09:52:00,50.1866424094737
-0.306,0.0,9.653,49.0,2017-05-29 09:52:03,54.083002491751564
-0.306,0.0,9.653,49.0,2017-05-29 09:52:08,56.41941042024901
-0.306,0.0,9.807,48.0,2017-05-29 09:52:09,56.12489221061347
-0.306,0.0,9.807,48.0,2017-05-29 09:52:10,54.96613126233589
-0.306,0.0,9.653,49.0,2017-05-29 09:52:11,51.1615809910318
-0.306,0.0,9.653,49.0,2017-05-29 09:52:13,48.945458725830726
-0.306,0.0,9.653,49.0,2017-05-29 09:52:14,47.83874336626485
-0.306,0.0,9.653,49.0,2017-05-29 09:52:16,47.58401163785143
-0.306,0.0,9.653,49.0,2017-05-29 09:52:17,49.60335842256172
-0.306,0.0,9.653,49.0,2017-05-29 09:52:18,51.4251888645747
-0.306,0.0,9.653,49.0,2017-05-29 09:52:19,53.75512367431817
-0.306,0.0,9.653,49.0,2017-05-29 09:52:20,59.42894522989615
-0.306,0.0,9.807,49.0,2017-05-29 09:52:21,55.20893838849993
-0.306,0.0,9.653,48.0,2017-05-29 09:52:22,46.65173736989843
-0.306,0.0,9.807,49.0,2017-05-29 09:52:23,45.547826033320106
-0.306,0.0,9.653,49.0,2017-05-29 09:52:25,50.48870896745885
-0.306,0.0,9.807,48.0,2017-05-29 09:52:26,49.9782093927582
-0.306,0.0,9.653,49.0,2017-05-29 09:52:27,51.11563371383554
-0.306,0.0,9.653,49.0,2017-05-29 09:52:28,48.86236013627483
-0.306,0.0,9.807,49.0,2017-05-29 09:52:29,45.683712638916596
-0.306,0.0,9.653,49.0,2017-05-29 09:52:31,54.71137177070881
-0.306,0.0,9.653,49.0,2017-05-29 09:52:32,60.5947478694181
-0.306,0.0,9.653,49.0,2017-05-29 09:52:33,58.77405387189522
-0.306,0.0,9.653,49.0,2017-05-29 09:52:35,57.80709836303465
-0.306,0.0,9.653,49.0,2017-05-29 09:52:36,57.573825517883684
-0.306,0.0,9.807,49.0,2017-05-29 09:52:37,57.77748167035849
-0.306,0.0,9.653,49.0,2017-05-29 09:52:39,59.96452930892872
-0.306,0.0,9.653,49.0,2017-05-29 09:52:40,55.82437052760661
-0.306,0.0,9.653,49.0,2017-05-29 09:52:41,56.15037054524038
-0.306,0.0,9.653,49.0,2017-05-29 09:52:43,54.508173906903764
-0.306,0.0,9.807,49.0,2017-05-29 09:52:44,52.85585182843281
-0.306,0.0,9.807,49.0,2017-05-29 09:52:45,55.44569225586255
-0.306,0.0,9.653,49.0,2017-05-29 09:52:47,56.642793804583356
-0.306,0.0,9.653,49.0,2017-05-29 09:52:48,50.74093740550043
-0.306,0.0,9.653,49.0,2017-05-29 09:52:51,61.34400434192578
-0.306,0.0,9.807,48.0,2017-05-29 09:52:54,56.37174057094954
-0.306,0.0,9.653,49.0,2017-05-29 09:52:55,61.558976423291185
-0.306,0.0,9.653,50.0,2017-05-29 09:52:56,57.43957625286747
-0.306,0.0,9.807,49.0,2017-05-29 09:52:57,61.48590375518943
-0.306,0.0,9.653,49.0,2017-05-29 09:52:59,47.37001154977342
-0.306,0.0,9.653,49.0,2017-05-29 09:53:01,49.37339621053509
-0.306,0.0,9.653,49.0,2017-05-29 09:53:02,52.66871117549404
-0.306,0.0,9.807,49.0,2017-05-29 09:53:04,55.12745923023667
-0.306,0.0,9.807,50.0,2017-05-29 09:53:05,54.706100098115385
-0.306,0.0,9.653,49.0,2017-05-29 09:53:06,56.25199878074926
-0.306,0.0,9.807,50.0,2017-05-29 09:53:08,48.111771602469446
-0.306,0.0,9.653,49.0,2017-05-29 09:53:09,60.4271782342841
-0.306,0.0,9.807,50.0,2017-05-29 09:53:10,55.50414662120464
-0.306,0.0,9.807,50.0,2017-05-29 09:53:11,50.23983455339049
-0.306,0.0,9.807,49.0,2017-05-29 09:53:12,51.98313131458198
-0.306,0.0,9.653,49.0,2017-05-29 09:53:13,55.246728439121156
-0.306,0.0,9.807,49.0,2017-05-29 09:53:14,51.68873774075742
-0.306,0.0,9.653,49.0,2017-05-29 09:53:15,51.520594001517246
-0.306,0.0,9.653,49.0,2017-05-29 09:53:18,53.339374495007846
-0.306,0.0,9.653,49.0,2017-05-29 09:53:19,50.75083234558909
-0.306,0.0,9.653,49.0,2017-05-29 09:53:20,51.221074857401014
-0.306,0.0,9.807,50.0,2017-05-29 09:53:22,55.37175106716019
-0.306,0.0,9.653,49.0,2017-05-29 09:53:23,58.093327448862205
-0.306,0.0,9.807,50.0,2017-05-29 09:53:24,55.14531889665024
-0.306,0.0,9.653,49.0,2017-05-29 09:53:25,50.95288439056336
-0.306,0.0,9.653,50.0,2017-05-29 09:53:26,53.68941146563681
-0.306,0.0,9.807,50.0,2017-05-29 09:53:27,49.821759520638345
-0.306,0.0,9.807,50.0,2017-05-29 09:53:29,50.60859962431654
-0.306,0.0,9.807,49.0,2017-05-29 09:53:30,55.25456903577131
-0.306,0.0,9.807,50.0,2017-05-29 09:53:31,55.71982101009665
-0.306,0.0,9.807,50.0,2017-05-29 09:53:32,65.2031189314425
-0.306,0.0,9.807,50.0,2017-05-29 09:53:33,60.168340818813746
-0.306,0.0,9.653,49.0,2017-05-29 09:53:34,58.21376868723763
-0.306,0.0,9.807,49.0,2017-05-29 09:53:35,60.21035801841985
-0.306,0.0,9.653,49.0,2017-05-29 09:53:37,58.59663052978003
-0.306,0.153,9.653,50.0,2017-05-29 09:53:38,60.06970814020512
-0.306,0.153,9.807,49.0,2017-05-29 09:53:39,58.94645880391995
-0.306,0.0,9.807,49.0,2017-05-29 09:53:40,57.113663070743385
-0.306,0.0,9.653,49.0,2017-05-29 09:53:41,54.155802521841466
-0.306,0.0,9.653,49.0,2017-05-29 09:53:43,60.78896251985181
-0.306,0.0,9.807,49.0,2017-05-29 09:53:44,52.89816609033066
-0.306,0.0,9.653,49.0,2017-05-29 09:53:45,52.40805630970249
-0.306,0.0,9.653,49.0,2017-05-29 09:53:47,52.3395360521269
-0.306,0.0,9.653,50.0,2017-05-29 09:53:48,55.25348030734891
-0.306,0.0,9.653,49.0,2017-05-29 09:53:49,53.5642003486401
-0.306,0.0,9.807,49.0,2017-05-29 09:53:50,56.35005234718916
-0.306,0.0,9.807,50.0,2017-05-29 09:53:51,52.46019637312729
-0.306,0.0,9.807,50.0,2017-05-29 09:53:52,53.35411127513577
-0.306,0.0,9.807,50.0,2017-05-29 09:53:53,53.42187080030201
-0.306,0.0,9.807,50.0,2017-05-29 09:53:54,54.73605043791454
-0.306,0.0,9.653,49.0,2017-05-29 09:53:56,49.75749629068578
-0.306,0.0,9.807,49.0,2017-05-29 09:53:58,50.40905817469219
-0.306,0.0,9.653,49.0,2017-05-29 09:54:00,52.33654980805802
-0.306,0.0,9.807,49.0,2017-05-29 09:54:01,52.420698507334464
-0.306,0.0,9.807,50.0,2017-05-29 09:54:02,51.19558300927235
-0.306,0.0,9.653,49.0,2017-05-29 09:54:03,50.93303376338386
-0.306,0.0,9.807,50.0,2017-05-29 09:54:04,54.19430247080216
-0.306,0.0,9.653,49.0,2017-05-29 09:54:05,61.52572157307734
-0.306,0.0,9.807,50.0,2017-05-29 09:54:06,52.82755289124437
-0.306,0.0,9.807,49.0,2017-05-29 09:54:08,58.300834956260715
-0.306,0.0,9.653,49.0,2017-05-29 09:54:09,52.91441802633042
-0.306,0.0,9.807,50.0,2017-05-29 09:54:10,50.9290590604321
-0.306,0.0,9.807,50.0,2017-05-29 09:54:11,57.16068970907592
-0.306,0.0,9.807,49.0,2017-05-29 09:54:12,52.9243931299711
-0.306,0.0,9.807,50.0,2017-05-29 09:54:13,51.08948381920704
-0.306,0.0,9.807,50.0,2017-05-29 09:54:14,51.3643168111612
-0.306,0.0,9.807,49.0,2017-05-29 09:54:15,53.25238361923775
-0.306,0.0,9.653,50.0,2017-05-29 09:54:17,53.74292515702094
-0.306,0.0,9.653,49.0,2017-05-29 09:54:18,53.45240915891682
-0.306,0.0,9.807,49.0,2017-05-29 09:54:19,52.55358119027552
-0.306,0.0,9.807,50.0,2017-05-29 09:54:20,54.885685708538134
-0.306,0.0,9.807,49.0,2017-05-29 09:54:21,49.63321182223715
-0.306,0.0,9.653,49.0,2017-05-29 09:54:22,53.40768221226994
-0.306,0.0,9.807,50.0,2017-05-29 09:54:23,53.976161376899825
-0.306,0.0,9.653,50.0,2017-05-29 09:54:24,55.45081744536925
-0.306,0.0,9.807,50.0,2017-05-29 09:54:25,61.68720618088277
-0.306,0.0,9.807,50.0,2017-05-29 09:54:26,54.674550628768884
-0.306,0.0,9.807,49.0,2017-05-29 09:54:28,50.71050024623947
-0.306,0.0,9.807,49.0,2017-05-29 09:54:29,57.31005671994409
-0.306,0.0,9.807,50.0,2017-05-29 09:54:30,55.53493670322659
-0.306,0.0,9.653,50.0,2017-05-29 09:54:31,50.34088360658038
-0.306,0.0,9.653,50.0,2017-05-29 09:54:32,48.40367075176835
-0.306,0.0,9.653,50.0,2017-05-29 09:54:34,52.81186309744946
-0.306,0.0,9.807,50.0,2017-05-29 09:54:35,54.977686143873825
-0.306,0.0,9.653,50.0,2017-05-29 09:54:36,49.69027110044259
-0.306,0.0,9.807,49.0,2017-05-29 09:54:37,52.26285016177685
-0.306,0.0,9.807,49.0,2017-05-29 09:54:38,55.01777745180562
-0.306,0.0,9.807,49.0,2017-05-29 09:54:39,57.84137373731692
-0.306,0.0,9.807,49.0,2017-05-29 09:54:40,58.63322633305642
-0.306,0.0,9.807,50.0,2017-05-29 09:54:41,59.29639409903308
-0.306,0.0,9.807,49.0,2017-05-29 09:54:43,42.18516304197162
-0.306,0.0,9.807,50.0,2017-05-29 09:54:44,45.06121261467609
-0.306,0.0,9.653,50.0,2017-05-29 09:54:45,42.47928024996913
-0.306,0.0,9.653,50.0,2017-05-29 09:54:46,55.55572011911907
-0.306,0.0,9.653,50.0,2017-05-29 09:54:48,56.69196369215436
-0.306,0.0,9.653,50.0,2017-05-29 09:54:49,60.18311758051575
-0.306,0.0,9.653,50.0,2017-05-29 09:54:51,57.16118299009706
-0.306,0.0,9.653,50.0,2017-05-29 09:54:53,48.637897916412584
-0.306,0.0,9.653,50.0,2017-05-29 09:54:55,55.144749117483656
-0.306,0.0,9.653,50.0,2017-05-29 09:54:56,52.17558129851389
-0.306,0.0,9.653,50.0,2017-05-29 09:54:58,54.783091792554686
-0.306,0.0,9.807,50.0,2017-05-29 09:54:59,51.90142055708205
-0.306,0.0,9.653,50.0,2017-05-29 09:55:00,45.568426954225714
-0.306,0.0,9.653,50.0,2017-05-29 09:55:01,48.164095979301855
-0.306,0.0,9.653,50.0,2017-05-29 09:55:02,47.45923121471348
-0.306,0.0,9.653,50.0,2017-05-29 09:55:04,48.39744862453122
-0.306,0.0,9.653,50.0,2017-05-29 09:55:05,57.39303363470167
-0.306,0.0,9.653,50.0,2017-05-29 09:55:06,50.58219635718872
-0.306,0.0,9.653,50.0,2017-05-29 09:55:08,49.93775431897294
-0.306,0.0,9.653,50.0,2017-05-29 09:55:09,53.911977945619505
-0.306,0.0,9.653,50.0,2017-05-29 09:55:11,57.988675723604175
-0.306,0.0,9.653,50.0,2017-05-29 09:55:12,54.342881684711706
-0.306,0.0,9.653,50.0,2017-05-29 09:55:13,55.84711330723256
-0.306,0.0,9.653,50.0,2017-05-29 09:55:14,57.537836942190296
-0.306,0.0,9.653,50.0,2017-05-29 09:55:15,55.882181697429615
-0.306,0.0,9.653,50.0,2017-05-29 09:55:16,56.13145140704497
-0.306,0.0,9.653,50.0,2017-05-29 09:55:18,46.2529543775959
-0.306,0.0,9.653,50.0,2017-05-29 09:55:19,49.50619401336641
-0.306,0.0,9.653,50.0,2017-05-29 09:55:20,60.7570172307381
-0.306,0.0,9.653,50.0,2017-05-29 09:55:23,52.06567937100019
-0.306,0.0,9.653,50.0,2017-05-29 09:55:25,46.29037524139881
-0.306,0.0,9.653,50.0,2017-05-29 09:55:26,50.58671017107355
-0.306,0.0,9.653,50.0,2017-05-29 09:55:28,48.02998017225128
-0.306,0.0,9.653,50.0,2017-05-29 09:55:31,52.21941412743888
-0.306,0.0,9.653,50.0,2017-05-29 09:55:32,56.0252357032749
-0.306,0.0,9.653,50.0,2017-05-29 09:55:33,58.882969110193656
-0.306,0.0,9.653,50.0,2017-05-29 09:55:35,61.606568471332324
-0.306,0.0,9.653,50.0,2017-05-29 09:55:36,56.98047498513044
-0.306,0.0,9.653,50.0,2017-05-29 09:55:38,55.18961271268259
-0.306,0.0,9.653,50.0,2017-05-29 09:55:40,55.86566595025634
-0.306,0.0,9.653,50.0,2017-05-29 09:55:42,52.37743568469191
-0.306,0.0,9.653,50.0,2017-05-29 09:55:43,54.592893682775056
-0.306,0.0,9.653,50.0,2017-05-29 09:55:44,59.97684503149727
-0.306,0.0,9.653,50.0,2017-05-29 09:55:47,50.018586788538634
-0.306,0.0,9.653,50.0,2017-05-29 09:55:48,54.22692887420908
-0.306,0.0,9.653,50.0,2017-05-29 09:55:50,58.189834678277556
-0.306,0.0,9.653,50.0,2017-05-29 09:55:51,54.53685409344227
-0.306,0.0,9.653,50.0,2017-05-29 09:55:52,51.44115894148614
-0.306,0.0,9.653,50.0,2017-05-29 09:55:55,49.85155011347828
-0.306,0.0,9.653,50.0,2017-05-29 09:55:56,56.97248530761074
-0.306,0.0,9.807,50.0,2017-05-29 09:55:57,51.334256597022396
-0.306,0.0,9.653,50.0,2017-05-29 09:55:59,58.65709960519199
-0.306,0.0,9.653,50.0,2017-05-29 09:56:01,55.793161035166975
-0.306,0.0,9.653,50.0,2017-05-29 09:56:03,54.30678184086531
-0.306,0.0,9.653,50.0,2017-05-29 09:56:04,59.126604420617134
-0.306,0.0,9.653,50.0,2017-05-29 09:56:06,55.61488101884673
-0.306,0.0,9.653,50.0,2017-05-29 09:56:07,49.65133425437294
-0.306,0.0,9.807,50.0,2017-05-29 09:56:08,59.55656337374202
-0.306,0.0,9.653,50.0,2017-05-29 09:56:09,59.72467311987004
-0.306,0.0,9.653,50.0,2017-05-29 09:56:10,49.80650763528318
-0.306,0.0,9.653,50.0,2017-05-29 09:56:11,51.66941476035071
-0.306,0.0,9.653,50.0,2017-05-29 09:56:13,53.76810185144471
-0.306,0.0,9.653,50.0,2017-05-29 09:56:15,47.825619956051625
-0.306,0.0,9.653,50.0,2017-05-29 09:56:16,48.39751398729927
-0.306,0.0,9.653,50.0,2017-05-29 09:56:18,58.943843936007625
-0.306,0.0,9.653,50.0,2017-05-29 09:56:19,59.01631024004913
-0.306,0.0,9.653,50.0,2017-05-29 09:56:21,53.1887430867096
-0.306,0.0,9.807,50.0,2017-05-29 09:56:22,61.3013522842501
-0.306,0.0,9.653,50.0,2017-05-29 09:56:23,57.15208486789044
-0.306,0.0,9.653,50.0,2017-05-29 09:56:24,57.87837528847617
-0.306,0.0,9.807,50.0,2017-05-29 09:56:26,57.82885818021398
-0.306,0.0,9.653,50.0,2017-05-29 09:56:29,55.989357270467856
-0.306,0.0,9.653,50.0,2017-05-29 09:56:31,55.210627010707334
-0.306,0.0,9.653,50.0,2017-05-29 09:56:32,54.533636260749965
-0.306,0.0,9.653,50.0,2017-05-29 09:56:33,50.454840975806974
-0.306,0.0,9.653,50.0,2017-05-29 09:56:35,49.97595002623495
-0.306,0.0,9.653,50.0,2017-05-29 09:56:36,53.605747298866916
-0.306,0.0,9.807,50.0,2017-05-29 09:56:38,58.685213684068735
-0.306,0.0,9.653,50.0,2017-05-29 09:56:39,49.89135761180656
-0.306,0.0,9.653,50.0,2017-05-29 09:56:40,53.19749246014419
-0.306,0.0,9.653,50.0,2017-05-29 09:56:42,52.52982223468824
-0.306,0.0,9.807,50.0,2017-05-29 09:56:43,54.83457693501056
-0.306,0.0,9.807,50.0,2017-05-29 09:56:44,51.57352989350211
-0.306,0.0,9.653,50.0,2017-05-29 09:56:45,57.9598225777284
-0.306,0.0,9.807,50.0,2017-05-29 09:56:46,56.1447916786507
-0.306,0.0,9.653,50.0,2017-05-29 09:56:48,54.123387945556885
-0.306,0.0,9.653,50.0,2017-05-29 09:56:50,50.46956649596913
-0.306,0.0,9.653,50.0,2017-05-29 09:56:51,53.30103714180433
-0.306,0.0,9.653,50.0,2017-05-29 09:56:53,48.93226016813989
-0.306,0.0,9.807,50.0,2017-05-29 09:56:55,49.84551952668548
-0.306,0.0,9.653,50.0,2017-05-29 09:56:56,56.021050131174974
-0.306,0.0,9.653,50.0,2017-05-29 09:56:57,49.021558096902815
-0.306,0.0,9.653,50.0,2017-05-29 09:56:59,52.23823914824916
-0.306,0.0,9.653,50.0,2017-05-29 09:57:01,57.53637258545022
-0.306,0.0,9.653,50.0,2017-05-29 09:57:03,53.11111948512311
-0.306,0.0,9.653,50.0,2017-05-29 09:57:04,44.58143888688696
-0.306,0.0,9.807,50.0,2017-05-29 09:57:05,45.04004884438071
-0.306,0.0,9.653,50.0,2017-05-29 09:57:06,56.63973163175783
-0.306,0.0,9.807,50.0,2017-05-29 09:57:07,56.470404124365245
-0.306,0.0,9.653,50.0,2017-05-29 09:57:09,55.14703118785466
-0.306,0.0,9.807,50.0,2017-05-29 09:57:10,57.64573580332767
-0.306,0.0,9.807,50.0,2017-05-29 09:57:11,55.33426732140917
-0.306,0.0,9.653,50.0,2017-05-29 09:57:12,49.9741939760609
-0.306,0.0,9.653,50.0,2017-05-29 09:57:13,51.02485459453737
-0.306,0.0,9.653,50.0,2017-05-29 09:57:14,54.65690782720486
-0.306,0.0,9.653,50.0,2017-05-29 09:57:15,53.52590545094594
-0.306,0.0,9.653,50.0,2017-05-29 09:57:17,49.95838955378015
-0.306,0.0,9.653,50.0,2017-05-29 09:57:18,51.345444344359194
-0.306,0.0,9.653,50.0,2017-05-29 09:57:19,50.70205280269569
-0.306,0.0,9.653,50.0,2017-05-29 09:57:21,50.52451013847448
-0.306,0.0,9.653,50.0,2017-05-29 09:57:22,49.0571558916049
-0.306,0.0,9.653,50.0,2017-05-29 09:57:24,47.67990361521704
-0.306,0.0,9.653,50.0,2017-05-29 09:57:25,53.88787396218143
-0.459,0.0,9.807,50.0,2017-05-29 09:57:26,46.93863523610966
-0.306,0.0,9.653,50.0,2017-05-29 09:57:27,61.01700865424262
-0.306,0.0,9.653,50.0,2017-05-29 09:57:28,55.307454380420815
-0.306,0.0,9.653,50.0,2017-05-29 09:57:30,54.38457226834642
-0.306,0.0,9.653,50.0,2017-05-29 09:57:32,51.780188435228744
-0.306,0.0,9.653,50.0,2017-05-29 09:57:34,57.84305715889608
-0.306,0.0,9.653,50.0,2017-05-29 09:57:35,53.31180195942533
-0.306,0.0,9.653,50.0,2017-05-29 09:57:37,52.4097884531752
-0.306,0.0,9.653,50.0,2017-05-29 09:57:38,55.564837808738915
-0.306,0.0,9.653,50.0,2017-05-29 09:57:39,48.215025767419995
-0.459,0.0,9.807,50.0,2017-05-29 09:57:41,51.84015842035167
-0.306,0.0,9.653,50.0,2017-05-29 09:57:42,51.449703303452125
-0.306,0.0,9.653,50.0,2017-05-29 09:57:43,49.34284423263844
-0.306,0.0,9.653,50.0,2017-05-29 09:57:45,57.91725513083379
-0.306,0.0,9.653,50.0,2017-05-29 09:57:46,55.79510130017582
-0.306,0.0,9.653,50.0,2017-05-29 09:57:47,47.162233843585085
-0.306,0.0,9.653,50.0,2017-05-29 09:57:48,51.88227169962587
-0.459,0.0,9.653,50.0,2017-05-29 09:57:50,50.28177800128452
-0.306,0.0,9.653,50.0,2017-05-29 09:57:51,46.32080316151835
-0.306,0.0,9.807,50.0,2017-05-29 09:57:52,55.71444423326425
-0.306,0.0,9.807,50.0,2017-05-29 09:57:53,59.184639213893455
-0.306,0.0,9.807,50.0,2017-05-29 09:57:54,63.009503882970364
-0.306,0.0,9.807,50.0,2017-05-29 09:57:55,61.09612854433714
-0.306,0.0,9.653,50.0,2017-05-29 09:57:57,62.00360885411271
-0.306,0.0,9.653,50.0,2017-05-29 09:57:58,62.641866041479624
-0.306,0.0,9.653,50.0,2017-05-29 09:58:00,45.853729804684995
-0.306,0.0,9.653,50.0,2017-05-29 09:58:01,48.72888745256859
-0.306,0.0,9.653,50.0,2017-05-29 09:58:02,52.036722165331966
-0.306,0.0,9.653,50.0,2017-05-29 09:58:04,54.85869000323976
-0.306,0.0,9.653,50.0,2017-05-29 09:58:05,52.554239087503106
-0.306,0.0,9.653,50.0,2017-05-29 09:58:07,49.04999055669907
-0.306,0.0,9.653,50.0,2017-05-29 09:58:08,58.578054200231115
-0.306,0.0,9.653,50.0,2017-05-29 09:58:10,51.30683244956597
-0.306,0.0,9.653,50.0,2017-05-29 09:58:11,56.80740659284285
-0.306,0.0,9.653,50.0,2017-05-29 09:58:12,53.86386604072782
-0.306,0.0,9.807,50.0,2017-05-29 09:58:13,53.36275476103537
-0.459,0.0,9.807,50.0,2017-05-29 09:58:14,53.902786676907596
-0.306,0.0,9.653,50.0,2017-05-29 09:58:17,54.90892257701579
-0.306,0.0,9.653,50.0,2017-05-29 09:58:18,53.15537211898321
-0.306,0.0,9.807,50.0,2017-05-29 09:58:19,50.66342537274242
-0.306,0.0,9.807,50.0,2017-05-29 09:58:20,49.39366411476214
-0.306,0.0,9.653,50.0,2017-05-29 09:58:21,49.35209058343069
-0.306,0.0,9.653,50.0,2017-05-29 09:58:22,53.63278493269721
-0.459,0.0,9.807,50.0,2017-05-29 09:58:23,53.1351321704474
-0.306,0.0,9.653,50.0,2017-05-29 09:58:25,52.45660288966032
-0.306,0.0,9.653,50.0,2017-05-29 09:58:26,59.7065771243408
-0.306,0.0,9.653,50.0,2017-05-29 09:58:27,48.801759329482515
-0.306,0.0,9.653,50.0,2017-05-29 09:58:28,58.26202009665411
-0.306,0.0,9.653,50.0,2017-05-29 09:58:30,60.15162541048206
-0.306,0.0,9.653,50.0,2017-05-29 09:58:32,52.25798008001224
-0.306,0.0,9.807,50.0,2017-05-29 09:58:34,48.56643940960464
-0.306,0.0,9.653,50.0,2017-05-29 09:58:35,53.37153706280998
-0.459,0.0,9.653,50.0,2017-05-29 09:58:36,53.35276873498686
-0.306,0.0,9.653,50.0,2017-05-29 09:58:37,49.44031842286344
-0.306,0.0,9.653,50.0,2017-05-29 09:58:38,50.003230356401424
-0.306,0.0,9.653,50.0,2017-05-29 09:58:39,52.04095654697707
-0.306,0.0,9.653,50.0,2017-05-29 09:58:40,57.629359021168
-0.306,0.0,9.653,50.0,2017-05-29 09:58:43,57.2189532321803
-0.306,0.0,9.807,50.0,2017-05-29 09:58:44,56.67849765741407
-0.306,0.0,9.653,50.0,2017-05-29 09:58:45,49.55022347637777
-0.306,0.0,9.653,50.0,2017-05-29 09:58:46,53.70471580294556
-0.306,0.0,9.807,49.0,2017-05-29 09:58:48,58.42048934448867
-0.306,0.0,9.653,50.0,2017-05-29 09:58:49,53.33926251964342
-0.306,0.0,9.807,49.0,2017-05-29 09:58:51,49.19472343021965
-0.306,0.0,9.807,49.0,2017-05-29 09:58:52,53.818366816895875
-0.306,0.0,9.653,50.0,2017-05-29 09:58:54,53.19415175797851
-0.306,0.0,9.653,50.0,2017-05-29 09:58:55,52.95617308923624
-0.306,0.0,9.807,49.0,2017-05-29 09:58:56,55.99563149713556
-0.306,0.0,9.653,50.0,2017-05-29 09:58:58,57.113389927888946
-0.306,0.0,9.807,49.0,2017-05-29 09:58:59,56.94460072624607
-0.306,0.0,9.807,50.0,2017-05-29 09:59:00,54.50068624929945
-0.306,0.0,9.807,50.0,2017-05-29 09:59:01,54.36399739114188
-0.306,0.0,9.807,49.0,2017-05-29 09:59:02,47.14416211793322
-0.306,0.0,9.807,49.0,2017-05-29 09:59:03,50.9813576067789
-0.306,0.0,9.807,50.0,2017-05-29 09:59:04,52.46593610784528
-0.306,0.0,9.807,49.0,2017-05-29 09:59:05,52.15556943508745
-0.306,0.0,9.807,49.0,2017-05-29 09:59:06,49.58944097669864
-0.306,0.0,9.807,50.0,2017-05-29 09:59:07,49.02034166366205
-0.306,0.0,9.653,49.0,2017-05-29 09:59:09,48.34390419646617
-0.306,0.0,9.807,49.0,2017-05-29 09:59:10,54.96697972651748
-0.306,0.0,9.807,50.0,2017-05-29 09:59:11,55.785109724666874
-0.306,0.0,9.807,49.0,2017-05-29 09:59:13,52.00610328791178
-0.306,0.0,9.807,50.0,2017-05-29 09:59:14,55.62041116365414
-0.306,0.0,9.807,49.0,2017-05-29 09:59:15,48.41139138409684
-0.306,0.0,9.653,50.0,2017-05-29 09:59:16,54.36875411392087
-0.306,0.0,9.653,50.0,2017-05-29 09:59:17,50.882174780521865
-0.306,0.0,9.653,50.0,2017-05-29 09:59:18,49.98887501742517
-0.306,0.0,9.653,50.0,2017-05-29 09:59:19,49.84480210652899
-0.306,0.0,9.653,50.0,2017-05-29 09:59:21,48.25897301229085
-0.306,0.0,9.653,50.0,2017-05-29 09:59:22,58.37115161245151
-0.306,0.0,9.653,50.0,2017-05-29 09:59:23,52.05041159792944
-0.306,0.0,9.807,50.0,2017-05-29 09:59:24,52.805661072938875
-0.306,0.0,9.653,49.0,2017-05-29 09:59:26,56.296949602892596
-0.459,0.0,9.807,50.0,2017-05-29 09:59:27,54.830036426511946
-0.306,0.0,9.653,50.0,2017-05-29 09:59:28,52.621258552495206
-0.306,0.0,9.807,50.0,2017-05-29 09:59:29,50.27443503610742
-0.459,0.0,9.807,50.0,2017-05-29 09:59:31,48.133025230540525
-0.459,0.0,9.807,50.0,2017-05-29 09:59:32,51.26110282804313
-0.459,0.0,9.653,50.0,2017-05-29 09:59:33,52.03330444126135
-0.306,-0.153,9.807,50.0,2017-05-29 09:59:34,51.45291621036344
-0.306,0.0,9.653,50.0,2017-05-29 09:59:35,56.77243535272198
-0.306,0.153,9.807,50.0,2017-05-29 09:59:36,58.00183975998821
-0.306,0.0,9.807,50.0,2017-05-29 09:59:37,54.100610375916204
-0.306,0.0,9.807,50.0,2017-05-29 09:59:38,50.19600510704472
-0.306,0.0,9.653,50.0,2017-05-29 09:59:41,56.9302301839193
-0.306,0.0,9.653,50.0,2017-05-29 09:59:43,55.69035487558949
-0.306,0.0,9.653,50.0,2017-05-29 09:59:45,55.020910604824365
-0.306,0.0,9.653,50.0,2017-05-29 09:59:46,53.20534088281004
-0.306,0.0,9.653,50.0,2017-05-29 09:59:47,55.43937061548047
-0.306,0.0,9.653,50.0,2017-05-29 09:59:48,48.56501811741094
-0.306,0.0,9.653,50.0,2017-05-29 09:59:50,43.38076818062553
-0.306,0.0,9.807,50.0,2017-05-29 09:59:51,43.599383543283196
-0.306,0.0,9.653,50.0,2017-05-29 09:59:53,50.027202841999845
-0.306,0.0,9.653,50.0,2017-05-29 09:59:54,49.88508610468334
-0.306,0.0,9.653,50.0,2017-05-29 09:59:55,53.58440574551564
-0.306,0.0,9.653,50.0,2017-05-29 09:59:57,57.930033970083194
-0.459,0.0,9.807,50.0,2017-05-29 09:59:58,50.71663919705231
-0.306,0.0,9.653,50.0,2017-05-29 09:59:59,55.788550395039536
-0.306,0.0,9.807,50.0,2017-05-29 10:00:01,54.57028590561166
-0.306,0.0,9.653,51.0,2017-05-29 10:00:02,49.805402942211636
-0.306,0.0,9.653,50.0,2017-05-29 10:00:03,50.1051645349698
-0.306,0.0,9.653,50.0,2017-05-29 10:00:04,49.578008987751055
-0.459,0.0,9.807,51.0,2017-05-29 10:00:05,50.57302094294788
-0.306,0.0,9.807,51.0,2017-05-29 10:00:06,49.88431456124776
-0.306,0.0,9.653,50.0,2017-05-29 10:00:07,52.262309364933145
-0.306,0.0,9.807,51.0,2017-05-29 10:00:09,51.69068270701912
-0.306,0.0,9.653,51.0,2017-05-29 10:00:10,56.330773766423654
-0.306,0.0,9.653,51.0,2017-05-29 10:00:11,58.27702494071243
-0.306,0.0,9.653,50.0,2017-05-29 10:00:13,54.32100655120281
-0.306,0.0,9.653,51.0,2017-05-29 10:00:14,54.50068167536915
-0.306,0.0,9.653,51.0,2017-05-29 10:00:16,60.41067749606547
-0.306,0.0,9.807,50.0,2017-05-29 10:00:17,60.3206339251298
-0.306,0.0,9.653,51.0,2017-05-29 10:00:19,57.9197720460617
-0.306,0.0,9.807,51.0,2017-05-29 10:00:20,53.51532248570436
-0.306,0.0,9.653,51.0,2017-05-29 10:00:21,55.866215103438975
-0.306,0.0,9.807,51.0,2017-05-29 10:00:22,50.35833724287994
-0.306,0.0,9.653,51.0,2017-05-29 10:00:23,47.412190826556646
-0.306,0.0,9.807,52.0,2017-05-29 10:00:24,52.211778221016544
-0.306,0.0,9.653,51.0,2017-05-29 10:00:25,58.64219566156991
-0.306,0.0,9.653,51.0,2017-05-29 10:00:26,52.418190275284175
-0.306,0.0,9.653,51.0,2017-05-29 10:00:28,54.51357089009211
-0.306,0.0,9.653,52.0,2017-05-29 10:00:29,53.57887474412927
-0.306,0.0,9.807,51.0,2017-05-29 10:00:30,56.58299289759611
-0.306,0.0,9.807,51.0,2017-05-29 10:00:31,51.166620377804655
-0.306,0.0,9.653,52.0,2017-05-29 10:00:32,56.96597818728384
-0.306,0.0,9.653,51.0,2017-05-29 10:00:33,51.17058799912863
-0.306,0.0,9.807,51.0,2017-05-29 10:00:35,49.89260718237672
-0.306,0.0,9.807,51.0,2017-05-29 10:00:36,47.95437832531698
-0.306,0.0,9.807,52.0,2017-05-29 10:00:37,43.930448428888425
-0.306,0.0,9.807,52.0,2017-05-29 10:00:38,65.26076840945709
-0.306,0.0,9.653,52.0,2017-05-29 10:00:39,64.15858311452551
-0.306,0.0,9.653,52.0,2017-05-29 10:00:40,50.739145745896764
-0.306,0.0,9.653,52.0,2017-05-29 10:00:41,51.00984854712124
-0.306,0.0,9.653,52.0,2017-05-29 10:00:43,47.49410690004709
-0.306,0.0,9.653,52.0,2017-05-29 10:00:44,54.30747090824597
-0.306,0.0,9.807,52.0,2017-05-29 10:00:45,51.10140528272829
-0.306,0.0,9.807,51.0,2017-05-29 10:00:46,53.26678334528927
-0.306,0.0,9.653,52.0,2017-05-29 10:00:48,59.95391662323484
-0.306,0.0,9.653,52.0,2017-05-29 10:00:49,51.17188065172009
-0.306,0.0,9.653,52.0,2017-05-29 10:00:51,52.641858071273155
-0.306,0.0,9.653,52.0,2017-05-29 10:00:53,52.93046754522217
-0.306,0.0,9.653,52.0,2017-05-29 10:00:54,53.1795099502115
-0.306,0.0,9.653,52.0,2017-05-29 10:00:55,52.30232318883105
-0.306,0.0,9.653,52.0,2017-05-29 10:00:56,57.61837624190147
-0.306,0.0,9.807,52.0,2017-05-29 10:00:57,55.98245334368589
-0.306,0.0,9.653,52.0,2017-05-29 10:00:59,50.58121206689091
-0.306,0.0,9.653,52.0,2017-05-29 10:01:00,51.34188576610087
-0.306,0.0,9.653,52.0,2017-05-29 10:01:01,49.00832499593231
-0.306,0.0,9.653,52.0,2017-05-29 10:01:02,49.93513051939846
-0.306,0.0,9.653,52.0,2017-05-29 10:01:03,50.41308088198687
-0.306,0.0,9.807,52.0,2017-05-29 10:01:04,51.62059486604634
-0.306,0.0,9.653,52.0,2017-05-29 10:01:06,46.26222376997894
-0.306,0.0,9.807,52.0,2017-05-29 10:01:07,45.88818433517159
-0.306,0.0,9.653,52.0,2017-05-29 10:01:08,51.892257735643696
-0.306,0.0,9.653,52.0,2017-05-29 10:01:09,63.582535317207565
-0.306,0.0,9.653,52.0,2017-05-29 10:01:11,52.42488038845898
-0.459,0.0,9.653,52.0,2017-05-29 10:01:12,56.058988112185126
-0.306,0.0,9.653,52.0,2017-05-29 10:01:13,52.44841947093569
-0.459,0.0,9.807,52.0,2017-05-29 10:01:15,49.68539041301936
-0.306,0.0,9.653,52.0,2017-05-29 10:01:16,47.14647163928981
-0.306,0.0,9.653,52.0,2017-05-29 10:01:18,57.88945532858556
-0.306,0.0,9.653,52.0,2017-05-29 10:01:20,54.778388624501346
-0.306,0.0,9.653,52.0,2017-05-29 10:01:22,55.649085602132004
-0.306,0.0,9.653,52.0,2017-05-29 10:01:23,56.641488784228684
-0.306,0.0,9.653,52.0,2017-05-29 10:01:24,52.179559499731134
-0.306,0.0,9.807,53.0,2017-05-29 10:01:26,54.027278157101684
-0.306,0.0,9.653,52.0,2017-05-29 10:01:27,53.44917494047781
-0.306,0.0,9.653,52.0,2017-05-29 10:01:28,52.76893098278546
-0.306,0.0,9.807,52.0,2017-05-29 10:01:29,52.94318641546192
-0.306,0.0,9.807,53.0,2017-05-29 10:01:30,52.43915274562191
-0.306,0.0,9.653,52.0,2017-05-29 10:01:32,49.00574734612408
-0.306,0.0,9.653,52.0,2017-05-29 10:01:33,52.83206357796093
-0.306,0.0,9.807,53.0,2017-05-29 10:01:34,56.860004445181616
-0.306,0.0,9.653,52.0,2017-05-29 10:01:35,56.59778138766783
-0.306,0.0,9.807,52.0,2017-05-29 10:01:36,54.04890019506218
-0.306,0.0,9.807,52.0,2017-05-29 10:01:37,55.830262373369365
-0.306,0.0,9.807,53.0,2017-05-29 10:01:38,50.57976620862148
-0.306,0.0,9.807,53.0,2017-05-29 10:01:39,47.18042577414561
-0.459,0.0,9.807,53.0,2017-05-29 10:01:40,47.17690314116201
-0.306,0.0,9.653,52.0,2017-05-29 10:01:41,54.47592007135442
-0.306,0.0,9.653,52.0,2017-05-29 10:01:42,47.64076704200451
-0.306,0.0,9.653,53.0,2017-05-29 10:01:44,48.834489904912495
-0.306,0.0,9.807,52.0,2017-05-29 10:01:45,50.978950042208496
-0.306,0.0,9.807,52.0,2017-05-29 10:01:46,50.004268373698515
-0.306,0.0,9.653,52.0,2017-05-29 10:01:47,46.75324024735612
-0.306,0.0,9.807,52.0,2017-05-29 10:01:48,45.19468953825289
-0.306,0.0,9.653,53.0,2017-05-29 10:01:49,52.441916145253806
-0.306,0.0,9.807,53.0,2017-05-29 10:01:50,55.7468988594766
-0.306,0.0,9.653,52.0,2017-05-29 10:01:51,49.56729986793886
-0.306,0.0,9.807,53.0,2017-05-29 10:01:53,56.18391893702753
-0.459,0.0,9.807,52.0,2017-05-29 10:01:54,53.8901246430156
-0.306,0.0,9.807,53.0,2017-05-29 10:01:55,49.963967489562584
-0.306,0.0,9.653,53.0,2017-05-29 10:01:57,48.62962000414861
-0.306,0.0,9.653,53.0,2017-05-29 10:01:58,44.30332549144721
-0.306,0.0,9.653,52.0,2017-05-29 10:01:59,54.3649764937139
-0.306,0.0,9.807,53.0,2017-05-29 10:02:00,56.09069414014361
-0.306,0.0,9.653,53.0,2017-05-29 10:02:01,52.663731325565706
-0.306,0.0,9.653,53.0,2017-05-29 10:02:02,53.11728113779745
-0.306,0.0,9.807,52.0,2017-05-29 10:02:03,51.43084068995659
-0.306,0.0,9.653,52.0,2017-05-29 10:02:04,56.52010413436541
-0.306,0.0,9.807,53.0,2017-05-29 10:02:05,50.30949144401585
-0.306,0.0,9.807,53.0,2017-05-29 10:02:06,51.13978846078468
-0.306,0.0,9.807,52.0,2017-05-29 10:02:08,56.99546169615924
-0.306,0.0,9.807,53.0,2017-05-29 10:02:09,49.941660500986266
-0.306,0.0,9.807,52.0,2017-05-29 10:02:10,48.143288726329764
-0.306,0.0,9.807,53.0,2017-05-29 10:02:11,44.27408353929274
-0.306,0.0,9.807,52.0,2017-05-29 10:02:12,46.72502914246935
-0.306,0.0,9.653,53.0,2017-05-29 10:02:13,47.91112227869016
-0.306,0.0,9.807,53.0,2017-05-29 10:02:14,48.4622365179652
-0.306,0.0,9.807,52.0,2017-05-29 10:02:15,55.093152158663415
-0.306,0.0,9.807,53.0,2017-05-29 10:02:16,50.72172700976461
-0.306,0.0,9.653,52.0,2017-05-29 10:02:17,47.64143288095398
-0.306,0.0,9.807,53.0,2017-05-29 10:02:19,46.22016297531629
-0.306,0.0,9.807,53.0,2017-05-29 10:02:20,47.59816635867402
-0.306,0.0,9.807,53.0,2017-05-29 10:02:21,48.0258137060616
-0.306,0.0,9.807,53.0,2017-05-29 10:02:22,46.194350008252286
-0.306,0.0,9.653,52.0,2017-05-29 10:02:23,49.084027598692835
-0.306,0.0,9.653,52.0,2017-05-29 10:02:24,57.09581229851537
-0.306,0.0,9.653,53.0,2017-05-29 10:02:25,46.58967461757031
-0.306,0.0,9.653,52.0,2017-05-29 10:02:26,45.0976746026125
-0.459,0.0,9.807,52.0,2017-05-29 10:02:28,54.61042589721106
-0.306,0.0,9.807,52.0,2017-05-29 10:02:29,51.07322886376744
-0.306,0.0,9.807,53.0,2017-05-29 10:02:30,52.45724034194288
-0.306,0.0,9.807,52.0,2017-05-29 10:02:31,53.98426862089111
-0.306,0.0,9.807,52.0,2017-05-29 10:02:32,45.35386184196062
-0.306,0.0,9.807,53.0,2017-05-29 10:02:33,49.556923343084506
-0.306,0.0,9.807,53.0,2017-05-29 10:02:34,46.76271596135827
-0.306,0.0,9.807,52.0,2017-05-29 10:02:35,48.60307754660365
-0.306,0.0,9.807,53.0,2017-05-29 10:02:36,50.62429907534725
-0.306,0.0,9.807,52.0,2017-05-29 10:02:37,49.94513451097323
-0.306,0.0,9.653,52.0,2017-05-29 10:02:39,52.52667324324391
-0.306,0.0,9.653,52.0,2017-05-29 10:02:40,56.66298001847395
-0.306,0.0,9.807,53.0,2017-05-29 10:02:41,44.8519194049771
-0.306,0.0,9.807,53.0,2017-05-29 10:02:43,44.3757523453164
-0.306,0.0,9.653,52.0,2017-05-29 10:02:44,56.30866864525606
-0.306,0.0,9.653,52.0,2017-05-29 10:02:45,62.27352272405962
-0.306,0.0,9.807,52.0,2017-05-29 10:02:46,53.9624667106076
-0.306,0.0,9.653,52.0,2017-05-29 10:02:48,55.73667505992368
-0.306,0.0,9.807,53.0,2017-05-29 10:02:49,55.95277231637131
-0.459,0.0,9.807,52.0,2017-05-29 10:02:50,52.97610793176542
-0.306,0.0,9.807,52.0,2017-05-29 10:02:51,59.16469643734692
-0.306,0.0,9.653,52.0,2017-05-29 10:02:53,52.65221061983999
-0.306,0.0,9.653,52.0,2017-05-29 10:02:54,50.754805690233326
-0.306,0.0,9.807,52.0,2017-05-29 10:02:55,54.31657612723698
-0.306,0.0,9.807,52.0,2017-05-29 10:02:56,48.767598469601985
-0.306,0.0,9.653,53.0,2017-05-29 10:02:57,54.918104619706355
-0.306,0.0,9.653,52.0,2017-05-29 10:02:58,57.14769956668242
-0.306,0.0,9.653,53.0,2017-05-29 10:02:59,53.39641974780889
-0.459,0.0,9.807,52.0,2017-05-29 10:03:01,57.76376490155792
-0.459,0.0,9.807,52.0,2017-05-29 10:03:02,62.9490857884778
-0.306,0.0,9.653,52.0,2017-05-29 10:03:03,54.75925145464732
-0.459,0.0,9.807,52.0,2017-05-29 10:03:05,50.47932055817118
-0.306,0.0,9.807,52.0,2017-05-29 10:03:06,47.27641686180717
-0.306,0.0,9.653,52.0,2017-05-29 10:03:07,48.27292864917885
-0.459,0.0,9.807,52.0,2017-05-29 10:03:08,59.71450331858267
-0.306,0.0,9.807,52.0,2017-05-29 10:03:09,54.465665131900295
-0.306,0.0,9.653,52.0,2017-05-29 10:03:11,51.518637153151474
-0.306,0.0,9.653,52.0,2017-05-29 10:03:12,46.907050528799694
-0.306,0.0,9.653,52.0,2017-05-29 10:03:13,50.83195434649694
-0.306,0.0,9.653,52.0,2017-05-29 10:03:14,50.906977695047644
-0.306,0.0,9.807,52.0,2017-05-29 10:03:16,49.34364102172016
-0.306,0.0,9.653,52.0,2017-05-29 10:03:17,56.17499663087826
-0.306,0.0,9.653,52.0,2017-05-29 10:03:19,60.839730365383474
-0.306,0.0,9.653,52.0,2017-05-29 10:03:20,50.292448928638336
-0.459,0.0,9.807,52.0,2017-05-29 10:03:21,46.98845126720454
-0.306,0.0,9.653,52.0,2017-05-29 10:03:23,56.535635833752195
-0.306,0.0,9.653,52.0,2017-05-29 10:03:25,54.24758718797746
-0.306,0.0,9.653,52.0,2017-05-29 10:03:26,51.05550951186622
-0.306,0.0,9.653,52.0,2017-05-29 10:03:28,63.319820253568075
-0.306,0.0,9.653,52.0,2017-05-29 10:03:30,55.44267289396609
-0.306,0.0,9.807,52.0,2017-05-29 10:03:31,57.249219830611835
-0.306,0.0,9.653,52.0,2017-05-29 10:03:33,56.09089939267176
-0.306,0.0,9.807,51.0,2017-05-29 10:03:34,49.684384807100415
-0.306,0.0,9.807,51.0,2017-05-29 10:03:35,53.48455391567129
-0.306,0.0,9.807,51.0,2017-05-29 10:03:37,54.169985018988314
-0.306,0.0,9.653,52.0,2017-05-29 10:03:38,47.712607875081794
-0.306,0.0,9.807,51.0,2017-05-29 10:03:39,48.58490070001183
-0.306,0.0,9.653,51.0,2017-05-29 10:03:40,53.57611249704046
-0.306,0.0,9.653,52.0,2017-05-29 10:03:41,52.793237594725596
-0.459,0.0,9.807,51.0,2017-05-29 10:03:43,58.746162256091
-0.306,0.0,9.807,52.0,2017-05-29 10:03:44,59.61498813661482
-0.306,0.0,9.807,51.0,2017-05-29 10:03:45,58.048050922557906
-0.306,0.0,9.807,51.0,2017-05-29 10:03:46,56.34965778134092
-0.306,0.0,9.807,51.0,2017-05-29 10:03:47,52.43701655244462
-0.306,0.0,9.807,51.0,2017-05-29 10:03:48,56.1796872279663
-0.306,0.0,9.653,51.0,2017-05-29 10:03:50,59.11112566669467
-0.306,0.0,9.653,51.0,2017-05-29 10:03:52,58.48597727490234
-0.306,0.0,9.653,51.0,2017-05-29 10:03:53,57.06674617378163
-0.306,0.0,9.807,50.0,2017-05-29 10:03:54,55.5128493699398
-0.306,0.0,9.653,51.0,2017-05-29 10:03:55,54.957611054805355
-0.306,0.0,9.653,51.0,2017-05-29 10:03:56,59.085092043195814
-0.306,0.0,9.653,51.0,2017-05-29 10:03:57,59.62324613349473
-0.459,0.0,9.807,50.0,2017-05-29 10:03:59,60.41907209215278
-0.306,0.0,9.653,50.0,2017-05-29 10:04:00,52.2271433380234
-0.306,0.0,9.653,50.0,2017-05-29 10:04:01,54.412045594400105
-0.306,0.0,9.807,50.0,2017-05-29 10:04:02,54.92539035324241
-0.306,0.0,9.653,50.0,2017-05-29 10:04:03,54.74463726841261
-0.459,0.0,9.807,50.0,2017-05-29 10:04:04,53.71683978819295
-0.306,0.0,9.653,50.0,2017-05-29 10:04:06,56.88667409957232
-0.459,0.0,9.807,50.0,2017-05-29 10:04:07,57.94474422460269
-0.306,0.0,9.653,50.0,2017-05-29 10:04:08,59.804702116866004
-0.306,0.0,9.653,50.0,2017-05-29 10:04:09,54.920361081954326
-0.306,0.0,9.653,50.0,2017-05-29 10:04:10,56.562796294591706
-0.306,0.0,9.653,50.0,2017-05-29 10:04:12,54.133515221080906
-0.459,0.0,9.807,50.0,2017-05-29 10:04:13,48.70894714953521
-0.306,0.0,9.653,50.0,2017-05-29 10:04:14,53.99536106407347
-0.306,0.0,9.653,49.0,2017-05-29 10:04:15,54.012320574248164
-0.306,0.0,9.807,49.0,2017-05-29 10:04:16,49.0511261065467
-0.306,0.0,9.807,49.0,2017-05-29 10:04:17,47.06966801000494
-0.306,0.0,9.653,49.0,2017-05-29 10:04:19,55.523228139228884
-0.459,0.0,9.807,49.0,2017-05-29 10:04:20,57.034717797897905
-0.306,0.0,9.653,49.0,2017-05-29 10:04:21,56.00506336432285
-0.306,0.0,9.653,49.0,2017-05-29 10:04:22,54.96071644334183
-0.306,0.0,9.807,49.0,2017-05-29 10:04:23,62.71487566697063
-0.306,0.0,9.653,49.0,2017-05-29 10:04:25,58.1195721198071
-0.306,0.0,9.653,49.0,2017-05-29 10:04:27,55.34439282875412
-0.306,0.0,9.653,50.0,2017-05-29 10:04:28,54.29481674851765
-0.306,0.0,9.807,49.0,2017-05-29 10:04:29,52.39800513830265
-0.306,0.0,9.653,49.0,2017-05-29 10:04:30,49.984476390348114
-0.306,0.0,9.653,49.0,2017-05-29 10:04:31,47.1921671530673
-0.459,0.0,9.653,50.0,2017-05-29 10:04:33,47.625006653292665
-0.306,0.0,9.807,50.0,2017-05-29 10:04:34,45.95063847832708
-0.306,0.0,9.653,50.0,2017-05-29 10:04:35,43.34864352319763
-0.306,0.0,9.653,50.0,2017-05-29 10:04:36,55.19381460292082
-0.306,0.0,9.807,50.0,2017-05-29 10:04:37,62.540843193154586
-0.306,0.0,9.653,50.0,2017-05-29 10:04:38,51.39143024237339
-0.306,0.0,9.653,50.0,2017-05-29 10:04:39,49.998085017784945
-0.306,0.0,9.653,50.0,2017-05-29 10:04:41,51.35361222206646
-0.459,0.0,9.653,50.0,2017-05-29 10:04:43,56.30801965479671
-0.306,0.0,9.653,50.0,2017-05-29 10:04:44,51.809786651574576
-0.306,0.0,9.807,50.0,2017-05-29 10:04:45,58.13945309936563
-0.306,0.0,9.653,50.0,2017-05-29 10:04:46,57.86356747622973
-0.306,0.0,9.653,50.0,2017-05-29 10:04:47,53.15822329671191
-0.306,0.0,9.653,50.0,2017-05-29 10:04:49,52.40671891075838
-0.306,0.0,9.653,50.0,2017-05-29 10:04:50,51.80475604555888
-0.306,0.0,9.653,50.0,2017-05-29 10:04:52,51.46617572111427
-0.306,0.0,9.807,50.0,2017-05-29 10:04:53,50.1880723920823
-0.306,0.0,9.807,51.0,2017-05-29 10:04:54,54.205926197962754
-0.459,0.0,9.653,51.0,2017-05-29 10:04:55,55.14636677635903
-0.306,0.0,9.653,51.0,2017-05-29 10:04:57,51.942617480522976
-0.306,0.0,9.653,50.0,2017-05-29 10:04:58,54.74192002841718
-0.306,0.0,9.653,51.0,2017-05-29 10:04:59,60.22357586346244
-0.306,0.0,9.807,51.0,2017-05-29 10:05:00,50.39815296788586
-0.306,0.0,9.807,50.0,2017-05-29 10:05:01,57.61062426420642
-0.306,0.0,9.653,51.0,2017-05-29 10:05:02,58.91572552781868
-0.459,0.0,9.807,51.0,2017-05-29 10:05:03,52.80369566340778
-0.459,0.0,9.807,51.0,2017-05-29 10:05:04,52.71917608677798
-0.306,0.0,9.653,51.0,2017-05-29 10:05:05,55.501125155515005
-0.306,0.0,9.807,50.0,2017-05-29 10:05:07,44.29846111377444
-0.306,0.0,9.653,51.0,2017-05-29 10:05:08,51.45829326436635
-0.459,0.0,9.807,51.0,2017-05-29 10:05:09,48.66007006818799
-0.306,0.0,9.653,51.0,2017-05-29 10:05:10,50.96459089896243
-0.306,0.0,9.653,51.0,2017-05-29 10:05:11,49.81195971376259
-0.459,0.0,9.653,51.0,2017-05-29 10:05:12,47.59677663410401
-0.306,0.0,9.653,51.0,2017-05-29 10:05:14,54.9231182870222
-0.459,0.0,9.807,51.0,2017-05-29 10:05:15,57.16944301487251
-0.459,0.0,9.807,51.0,2017-05-29 10:05:16,59.830852454470715
-0.306,0.0,9.653,51.0,2017-05-29 10:05:17,52.96119553084005
-0.306,0.0,9.653,51.0,2017-05-29 10:05:18,54.79722671072355
-0.306,0.0,9.653,51.0,2017-05-29 10:05:20,60.377433973437
-0.306,0.0,9.653,50.0,2017-05-29 10:05:21,53.79321287839298
-0.306,0.0,9.807,51.0,2017-05-29 10:05:22,53.95591460085035
-0.306,0.0,9.653,50.0,2017-05-29 10:05:23,55.03530722055241
-0.306,0.0,9.807,51.0,2017-05-29 10:05:24,50.38321469384857
-0.306,0.0,9.653,50.0,2017-05-29 10:05:25,59.79848458856948
-0.306,0.0,9.807,50.0,2017-05-29 10:05:26,61.71898783736199
-0.306,0.0,9.653,50.0,2017-05-29 10:05:27,56.6147624314043
-0.459,0.0,9.653,50.0,2017-05-29 10:05:28,52.679521626032894
-0.306,0.0,9.653,50.0,2017-05-29 10:05:30,61.63823264503408
-0.306,0.0,9.653,50.0,2017-05-29 10:05:31,50.04006584349105
-0.306,0.0,9.807,50.0,2017-05-29 10:05:32,47.12679000787421
-0.306,0.0,9.653,50.0,2017-05-29 10:05:34,50.08684467803465
-0.306,0.0,9.653,50.0,2017-05-29 10:05:35,54.30424728906453
-0.306,0.0,9.807,50.0,2017-05-29 10:05:36,46.43766624518706
-0.306,0.0,9.653,50.0,2017-05-29 10:05:37,47.92204994685878
-0.306,0.0,9.653,50.0,2017-05-29 10:05:38,52.68813555435497
-0.459,0.0,9.807,50.0,2017-05-29 10:05:39,58.54093568962982
-0.306,0.0,9.807,50.0,2017-05-29 10:05:40,53.54146942642666
-0.306,0.0,9.807,50.0,2017-05-29 10:05:41,53.48989262372261
-0.306,0.153,9.807,50.0,2017-05-29 10:05:43,60.626243928467254
-0.459,0.0,9.807,50.0,2017-05-29 10:05:44,51.46773859113952
-0.459,0.0,9.807,50.0,2017-05-29 10:05:45,55.87948741372899
-0.306,0.0,9.653,50.0,2017-05-29 10:05:46,50.74734202964633
-0.306,-0.153,9.807,50.0,2017-05-29 10:05:47,46.74074705007086
-0.306,0.0,9.653,50.0,2017-05-29 10:05:48,51.0322726786783
-0.306,0.0,9.807,50.0,2017-05-29 10:05:49,52.05482494771344
-0.306,0.0,9.807,50.0,2017-05-29 10:05:50,51.42200995632987
-0.306,0.0,9.807,50.0,2017-05-29 10:05:51,48.10198251245622
-0.306,0.153,9.807,50.0,2017-05-29 10:05:52,54.45706577298162
-0.306,0.153,9.653,50.0,2017-05-29 10:05:53,53.91168229545126
-0.459,0.0,9.807,50.0,2017-05-29 10:05:54,49.982211697395925
-0.459,0.0,9.807,50.0,2017-05-29 10:05:55,51.41931433933646
-0.306,0.0,9.807,50.0,2017-05-29 10:05:56,47.14782132481943
-0.306,0.0,9.653,50.0,2017-05-29 10:05:57,47.44824033258257
-0.306,0.0,9.653,50.0,2017-05-29 10:05:58,51.90666947400952
-0.306,0.0,9.653,50.0,2017-05-29 10:05:59,56.73633273588511
-0.306,0.0,9.653,50.0,2017-05-29 10:06:01,56.09832985566562
-0.459,0.0,9.807,50.0,2017-05-29 10:06:02,52.772477558411744
-0.306,0.0,9.653,50.0,2017-05-29 10:06:03,52.79862043339658
-0.306,0.0,9.653,50.0,2017-05-29 10:06:04,56.08681214647835
-0.306,0.0,9.653,50.0,2017-05-29 10:06:05,56.2379394306393
-0.306,0.0,9.653,50.0,2017-05-29 10:06:06,58.45696757693673
-0.306,0.0,9.807,50.0,2017-05-29 10:06:07,55.778208463868424
-0.459,0.0,9.653,50.0,2017-05-29 10:06:09,52.297733077200725
-0.306,0.0,9.653,50.0,2017-05-29 10:06:10,49.82404695879814
-0.306,0.0,9.653,50.0,2017-05-29 10:06:12,48.8803922448965
-0.306,0.0,9.653,50.0,2017-05-29 10:06:13,49.68920422845399
-0.306,0.0,9.807,50.0,2017-05-29 10:06:14,52.394838274149365
-0.306,0.0,9.653,50.0,2017-05-29 10:06:15,58.758714562370365
-0.459,0.0,9.807,50.0,2017-05-29 10:06:16,58.5863546099264
-0.306,0.0,9.807,50.0,2017-05-29 10:06:17,53.471619742829624
-0.306,0.0,9.653,50.0,2017-05-29 10:06:19,56.28533688845075
-0.306,0.0,9.653,50.0,2017-05-29 10:06:20,52.98348010983158
-0.306,0.0,9.653,50.0,2017-05-29 10:06:21,51.639886468369696
-0.459,0.0,9.807,50.0,2017-05-29 10:06:22,51.37973595432837
-0.306,0.0,9.807,51.0,2017-05-29 10:06:23,54.372672404299806
-0.306,0.0,9.653,50.0,2017-05-29 10:06:24,52.75194679827408
-0.306,0.0,9.653,50.0,2017-05-29 10:06:25,53.67761345069524
-0.459,0.0,9.807,50.0,2017-05-29 10:06:26,56.702469086497075
-0.306,0.0,9.807,50.0,2017-05-29 10:06:28,57.89486019387717
-0.306,0.0,9.653,50.0,2017-05-29 10:06:29,60.288003532473304
-0.306,0.0,9.653,50.0,2017-05-29 10:06:30,55.692169433517726
-0.306,0.0,9.807,50.0,2017-05-29 10:06:31,53.724324444203745
-0.459,0.0,9.653,50.0,2017-05-29 10:06:32,53.73036568733138
-0.459,0.0,9.807,50.0,2017-05-29 10:06:33,50.730737144870886
-0.459,0.0,9.807,50.0,2017-05-29 10:06:34,52.22040765753317
-0.306,0.0,9.653,50.0,2017-05-29 10:06:35,50.167416585618334
-0.306,0.0,9.653,51.0,2017-05-29 10:06:37,55.39394513034459
-0.306,0.0,9.807,50.0,2017-05-29 10:06:38,51.84407813831421
-0.306,0.0,9.653,50.0,2017-05-29 10:06:39,54.30225729757996
-0.306,0.0,9.653,51.0,2017-05-29 10:06:40,53.114779103443155
-0.306,0.0,9.807,51.0,2017-05-29 10:06:41,55.0749727057586
-0.306,0.0,9.653,50.0,2017-05-29 10:06:42,50.055623638717236
-0.306,0.0,9.807,51.0,2017-05-29 10:06:43,46.787017716895
-0.306,0.0,9.653,51.0,2017-05-29 10:06:44,51.24296442500408
-0.306,0.0,9.653,51.0,2017-05-29 10:06:46,50.66543763530956
-0.459,0.0,9.807,50.0,2017-05-29 10:06:47,54.594803179522955
-0.306,0.0,9.807,51.0,2017-05-29 10:06:48,50.47942264658565
-0.459,0.0,9.807,51.0,2017-05-29 10:06:49,52.247103487619185
-0.306,0.0,9.807,50.0,2017-05-29 10:06:50,52.48872644403299
-0.306,0.0,9.653,51.0,2017-05-29 10:06:52,50.466896485182914
-0.306,0.0,9.653,51.0,2017-05-29 10:06:53,53.27040971938317
-0.306,0.0,9.807,50.0,2017-05-29 10:06:55,58.7689955763729
-0.306,0.0,9.653,50.0,2017-05-29 10:06:56,50.85641661240868
-0.306,0.0,9.653,51.0,2017-05-29 10:06:57,54.07587487648953
-0.306,0.0,9.653,50.0,2017-05-29 10:06:58,52.33323501508345
-0.306,0.0,9.653,50.0,2017-05-29 10:06:59,61.932426143712426
-0.306,0.0,9.653,51.0,2017-05-29 10:07:00,57.07706821643515
-0.306,0.0,9.807,51.0,2017-05-29 10:07:01,65.93015572166757
-0.306,0.0,9.807,50.0,2017-05-29 10:07:03,62.18875449954736
-0.306,0.0,9.807,51.0,2017-05-29 10:07:04,51.79346632281397
-0.306,0.0,9.653,51.0,2017-05-29 10:07:05,54.65056422312354
-0.306,0.0,9.653,50.0,2017-05-29 10:07:06,52.9890577097441
-0.306,0.0,9.653,51.0,2017-05-29 10:07:07,51.11420429310478
-0.306,0.0,9.807,50.0,2017-05-29 10:07:08,56.56365850565788
-0.306,0.0,9.653,51.0,2017-05-29 10:07:10,56.56051429549766
-0.306,0.0,9.653,51.0,2017-05-29 10:07:12,56.90075729438224
-0.459,0.0,9.807,51.0,2017-05-29 10:07:13,51.79423047357978
-0.306,0.0,9.807,51.0,2017-05-29 10:07:14,51.031640335741564
-0.306,0.0,9.653,51.0,2017-05-29 10:07:16,59.71218215927219
-0.306,0.0,9.807,51.0,2017-05-29 10:07:17,55.450026169474484
-0.306,0.0,9.653,51.0,2017-05-29 10:07:18,55.08341176570867
-0.459,0.0,9.653,51.0,2017-05-29 10:07:19,55.61199703978033
-0.459,0.0,9.807,51.0,2017-05-29 10:07:20,52.46422591078691
-0.306,0.0,9.807,51.0,2017-05-29 10:07:22,54.783195150787435
-0.306,0.0,9.807,52.0,2017-05-29 10:07:23,50.59634323371178
-0.306,0.0,9.653,51.0,2017-05-29 10:07:24,53.438932854061754
-0.306,0.0,9.807,51.0,2017-05-29 10:07:25,55.60500614354984
-0.306,0.0,9.807,51.0,2017-05-29 10:07:26,52.93188207949943
-0.306,0.0,9.653,51.0,2017-05-29 10:07:28,52.57830881147803
-0.459,0.0,9.807,51.0,2017-05-29 10:07:29,54.28772221354666
-0.459,0.0,9.807,51.0,2017-05-29 10:07:30,57.07330833058674
-0.306,0.0,9.653,51.0,2017-05-29 10:07:32,51.427049033991
-0.306,0.0,9.653,51.0,2017-05-29 10:07:34,49.73331597908177
-0.306,0.0,9.653,51.0,2017-05-29 10:07:35,53.47075970250998
-0.306,0.0,9.653,51.0,2017-05-29 10:07:36,62.020862493892956
-0.306,0.0,9.807,52.0,2017-05-29 10:07:37,52.17585580259791
-0.306,0.0,9.653,51.0,2017-05-29 10:07:39,49.67383197948693
-0.306,0.0,9.653,51.0,2017-05-29 10:07:40,46.27506192208437
-0.306,0.0,9.653,51.0,2017-05-29 10:07:41,51.45408061432288
-0.306,0.0,9.653,51.0,2017-05-29 10:07:42,49.09916950028838
-0.306,0.0,9.653,51.0,2017-05-29 10:07:43,45.32161914507015
-0.306,0.0,9.653,51.0,2017-05-29 10:07:44,47.728288820991295
-0.306,0.0,9.653,51.0,2017-05-29 10:07:46,50.02488502911873
-0.306,0.0,9.807,51.0,2017-05-29 10:07:47,57.54602329429857
-0.306,0.0,9.807,52.0,2017-05-29 10:07:48,65.0479500579209
-0.459,0.0,9.807,51.0,2017-05-29 10:07:49,67.56764358059142
-0.306,0.0,9.807,51.0,2017-05-29 10:07:50,59.48514616326474
-0.306,0.0,9.807,52.0,2017-05-29 10:07:52,54.78966252945596
-0.306,0.0,9.807,52.0,2017-05-29 10:07:53,57.27178143556416
-0.306,0.0,9.807,51.0,2017-05-29 10:07:54,53.69692246985768
-0.306,0.0,9.807,51.0,2017-05-29 10:07:55,54.12713033693435
-0.306,0.0,9.653,51.0,2017-05-29 10:07:56,56.691715867366774
-0.306,0.0,9.807,51.0,2017-05-29 10:07:57,55.586828847641485
-0.459,0.0,9.807,52.0,2017-05-29 10:07:58,56.082021107031885
-0.306,0.0,9.653,51.0,2017-05-29 10:07:59,62.37922919714109
-0.306,0.0,9.807,51.0,2017-05-29 10:08:00,70.79319686673949
-0.306,0.0,9.807,52.0,2017-05-29 10:08:01,64.58899112793287
-0.306,0.0,9.807,52.0,2017-05-29 10:08:02,55.25358629387196
-0.306,0.0,9.653,51.0,2017-05-29 10:08:03,52.44755601831108
-0.459,0.0,9.807,51.0,2017-05-29 10:08:04,53.35716175182411
-0.306,0.0,9.807,51.0,2017-05-29 10:08:06,73.20603008798822
-0.306,0.0,9.653,51.0,2017-05-29 10:08:07,73.31766437714198
-0.306,0.0,9.653,51.0,2017-05-29 10:08:08,69.01962743616588
-0.459,0.0,9.807,50.0,2017-05-29 10:08:09,72.28580180057108
-0.306,0.0,9.807,48.0,2017-05-29 10:08:10,62.630242433508656
-0.459,0.0,9.807,46.0,2017-05-29 10:08:11,68.52600945266127
-0.306,0.0,9.653,46.0,2017-05-29 10:08:12,48.635693675328795
-0.306,0.0,9.653,47.0,2017-05-29 10:08:13,46.32892380992985
-0.306,0.0,9.653,48.0,2017-05-29 10:08:14,55.102932072736444
-0.306,0.0,9.807,50.0,2017-05-29 10:08:16,64.67868821794984
-0.306,0.0,9.807,50.0,2017-05-29 10:08:17,63.641448767836486
-0.306,0.0,9.807,52.0,2017-05-29 10:08:18,72.17377271844288
-0.459,0.0,9.807,55.0,2017-05-29 10:08:19,70.9401330834742
-0.459,0.0,9.807,54.0,2017-05-29 10:08:20,61.72064445758104
-0.306,0.0,9.807,52.0,2017-05-29 10:08:21,58.25594865026058
-0.306,0.0,9.653,52.0,2017-05-29 10:08:22,58.537719660058414
-0.306,0.0,9.807,47.0,2017-05-29 10:08:23,52.83540632570222
-0.306,0.0,9.807,49.0,2017-05-29 10:08:24,61.413261690474116
-0.459,0.0,9.807,50.0,2017-05-29 10:08:25,66.51412773727002
-0.306,0.0,9.653,50.0,2017-05-29 10:08:26,75.77151415029773
-0.306,0.0,9.653,51.0,2017-05-29 10:08:27,80.51483528806303
-0.306,0.0,9.807,50.0,2017-05-29 10:08:28,65.4296035460776
-0.306,0.0,9.653,50.0,2017-05-29 10:08:29,77.28772046386847
-0.306,0.0,9.653,49.0,2017-05-29 10:08:30,65.17321959119255
-0.306,0.0,9.653,48.0,2017-05-29 10:08:32,51.27432947512011
-0.306,0.0,9.653,48.0,2017-05-29 10:08:33,62.763269695629006
-0.306,0.0,9.807,48.0,2017-05-29 10:08:34,57.3306171005816
-0.306,0.0,9.807,46.0,2017-05-29 10:08:35,68.56059117855449
-0.306,0.0,9.807,46.0,2017-05-29 10:08:36,68.62429314665633
-0.306,0.0,9.653,46.0,2017-05-29 10:08:37,63.455272940272785
-0.306,0.0,9.653,47.0,2017-05-29 10:08:39,51.237207206339306
-0.306,0.0,9.653,49.0,2017-05-29 10:08:40,59.375923027665756
-0.306,0.0,9.807,50.0,2017-05-29 10:08:41,60.67359700006422
-0.306,0.0,9.653,50.0,2017-05-29 10:08:42,56.78952467888945
-0.459,0.0,9.807,50.0,2017-05-29 10:08:43,54.56402039356348
-0.306,0.0,9.807,50.0,2017-05-29 10:08:44,53.89041611246414
-0.306,0.0,9.653,51.0,2017-05-29 10:08:45,50.91442224594324
-0.459,0.0,9.807,51.0,2017-05-29 10:08:47,56.478613383274656
-0.306,0.0,9.653,51.0,2017-05-29 10:08:51,57.051779042913665
-0.306,0.0,9.807,52.0,2017-05-29 10:08:52,60.2243744080312
-0.459,0.0,9.807,51.0,2017-05-29 10:08:53,54.31304351223914
-0.306,0.0,9.653,51.0,2017-05-29 10:08:54,52.04542408448587
-0.459,0.0,9.653,50.0,2017-05-29 10:08:55,53.50804095923
-0.306,0.0,9.653,50.0,2017-05-29 10:08:57,51.26441385146104
-0.306,0.0,9.653,51.0,2017-05-29 10:08:58,62.694299599222454
-0.306,0.0,9.807,50.0,2017-05-29 10:08:59,57.930507782483645
-0.306,0.0,9.653,51.0,2017-05-29 10:09:00,51.266105477688996
-0.306,0.0,9.653,51.0,2017-05-29 10:09:02,54.029294829317976
-0.306,0.0,9.807,51.0,2017-05-29 10:09:03,54.34670355629105
-0.306,0.0,9.807,50.0,2017-05-29 10:09:04,55.41810264126391
-0.306,0.0,9.653,50.0,2017-05-29 10:09:05,55.8124602544281
-0.306,0.0,9.807,50.0,2017-05-29 10:09:06,57.36234004904247
-0.306,0.0,9.807,51.0,2017-05-29 10:09:07,59.7645032348639
-0.306,0.0,9.807,51.0,2017-05-29 10:09:08,50.050118795269405
-0.306,0.0,9.807,51.0,2017-05-29 10:09:09,47.9649142083861
-0.306,0.0,9.807,51.0,2017-05-29 10:09:10,65.19967565532122
-0.459,0.0,9.653,50.0,2017-05-29 10:09:11,57.96474615277501
-0.306,0.0,9.653,50.0,2017-05-29 10:09:13,58.17031076135409
-0.306,0.0,9.807,51.0,2017-05-29 10:09:14,57.37632473666203
-0.459,0.0,9.807,50.0,2017-05-29 10:09:15,52.11829780226148
-0.306,0.0,9.807,51.0,2017-05-29 10:09:17,51.481286396954324
-0.306,0.0,9.807,51.0,2017-05-29 10:09:18,51.99061936209798
-0.306,0.0,9.653,51.0,2017-05-29 10:09:19,54.24729111874144
-0.306,0.0,9.653,50.0,2017-05-29 10:09:20,55.07303113850175
-0.306,0.0,9.807,51.0,2017-05-29 10:09:21,54.74297240424188
-0.306,0.0,9.653,51.0,2017-05-29 10:09:22,51.39208283860423
-0.306,0.0,9.807,50.0,2017-05-29 10:09:24,52.76492630232163
-0.306,0.0,9.653,50.0,2017-05-29 10:09:25,57.56477349732719
-0.459,0.0,9.807,50.0,2017-05-29 10:09:27,54.62991059932428
-0.306,0.0,9.653,50.0,2017-05-29 10:09:28,57.751862008038024
-0.306,0.0,9.807,51.0,2017-05-29 10:09:29,52.92525116249398
-0.306,0.0,9.653,50.0,2017-05-29 10:09:30,55.16271688845558
-0.306,0.0,9.653,50.0,2017-05-29 10:09:31,57.42105817846326
-0.459,0.0,9.807,51.0,2017-05-29 10:09:32,55.64786340214826
-0.306,0.0,9.807,50.0,2017-05-29 10:09:34,54.85090571801184
-0.306,0.0,9.653,50.0,2017-05-29 10:09:35,52.95794550228678
-0.306,0.0,9.653,50.0,2017-05-29 10:09:36,54.00632430617647
-0.306,0.0,9.653,50.0,2017-05-29 10:09:38,52.27407535943787
-0.306,0.0,9.653,50.0,2017-05-29 10:09:39,47.85562449532232
-0.306,0.0,9.653,50.0,2017-05-29 10:09:40,53.27180530449658
-0.459,0.0,9.807,50.0,2017-05-29 10:09:41,54.756441348573276
-0.306,0.0,9.653,50.0,2017-05-29 10:09:43,56.214418358033754
-0.459,0.0,9.807,50.0,2017-05-29 10:09:44,54.319106960155345
-0.306,0.0,9.807,50.0,2017-05-29 10:09:45,57.85796537494444
-0.459,0.0,9.807,50.0,2017-05-29 10:09:46,52.93310157181427
-0.306,0.0,9.807,50.0,2017-05-29 10:09:47,56.05265245215439
-0.459,0.0,9.807,50.0,2017-05-29 10:09:48,50.83143762104167
-0.306,0.0,9.807,51.0,2017-05-29 10:09:50,55.601798499811736
-0.306,0.0,9.653,50.0,2017-05-29 10:09:51,53.47767529543772
-0.306,0.0,9.653,50.0,2017-05-29 10:09:52,55.51104353890764
-0.306,0.0,9.653,50.0,2017-05-29 10:09:53,61.16060893944747
-0.459,0.0,9.807,50.0,2017-05-29 10:09:54,54.19171080725947
-0.306,0.0,9.653,50.0,2017-05-29 10:09:55,60.413315057830545
-0.306,0.0,9.807,50.0,2017-05-29 10:09:56,59.630491260239566
-0.306,0.0,9.807,51.0,2017-05-29 10:09:57,56.03674935500928
-0.306,0.0,9.807,50.0,2017-05-29 10:09:58,53.676985092177105
-0.306,0.0,9.807,51.0,2017-05-29 10:09:59,53.08236274580773
-0.306,0.0,9.807,50.0,2017-05-29 10:10:00,54.799749314339195
-0.306,0.0,9.807,51.0,2017-05-29 10:10:01,53.373290657501535
-0.459,0.0,9.807,50.0,2017-05-29 10:10:03,58.141103687204556
-0.306,0.0,9.653,51.0,2017-05-29 10:10:04,56.301757941164794
-0.306,0.0,9.653,50.0,2017-05-29 10:10:05,51.98326163542683
-0.306,0.0,9.807,50.0,2017-05-29 10:10:06,62.16582134572867
-0.306,0.0,9.807,51.0,2017-05-29 10:10:07,49.60204509203091
-0.306,0.0,9.807,50.0,2017-05-29 10:10:08,51.13173938594607
-0.306,0.0,9.807,50.0,2017-05-29 10:10:09,49.61456082434432
-0.459,0.0,9.807,50.0,2017-05-29 10:10:10,55.8341434044194
-0.306,0.0,9.653,51.0,2017-05-29 10:10:12,57.15546318887781
-0.459,0.0,9.807,50.0,2017-05-29 10:10:13,56.88087179587618
-0.306,0.0,9.653,50.0,2017-05-29 10:10:14,55.61431304211409
-0.306,0.0,9.807,51.0,2017-05-29 10:10:15,52.42022715328517
-0.459,0.0,9.807,51.0,2017-05-29 10:10:16,56.24046974181265
-0.459,0.0,9.807,50.0,2017-05-29 10:10:17,53.14432943272127
-0.306,0.0,9.807,50.0,2017-05-29 10:10:18,55.86652820112538
-0.459,0.0,9.807,50.0,2017-05-29 10:10:19,58.555340653562254
-0.306,0.0,9.653,50.0,2017-05-29 10:10:20,63.292131028063274
-0.459,0.0,9.653,51.0,2017-05-29 10:10:21,60.155161096923365
-0.306,0.0,9.807,50.0,2017-05-29 10:10:22,57.05482016790352
-0.459,0.0,9.807,50.0,2017-05-29 10:10:23,52.078534198275605
-0.306,0.0,9.807,50.0,2017-05-29 10:10:24,59.40706822142474
-0.459,0.0,9.807,50.0,2017-05-29 10:10:25,54.37157837916273
-0.306,0.0,9.653,51.0,2017-05-29 10:10:27,50.832509217194456
-0.459,0.0,9.653,51.0,2017-05-29 10:10:28,52.294319135331364
-0.459,0.0,9.653,50.0,2017-05-29 10:10:29,57.27313820637464
-0.306,0.0,9.653,50.0,2017-05-29 10:10:30,58.11740314603845
-0.306,0.0,9.653,51.0,2017-05-29 10:10:31,54.33083403383055
-0.459,0.0,9.807,50.0,2017-05-29 10:10:32,54.01641188706395
-0.306,0.0,9.807,51.0,2017-05-29 10:10:33,54.41525149321593
-0.306,0.0,9.653,51.0,2017-05-29 10:10:34,61.70290704684489
-0.306,0.0,9.807,51.0,2017-05-29 10:10:35,66.24646059811268
-0.306,0.0,9.807,50.0,2017-05-29 10:10:36,61.57994411071532
-0.459,0.0,9.653,51.0,2017-05-29 10:10:37,54.19635121249084
-0.306,0.0,9.807,51.0,2017-05-29 10:10:38,57.38635081628439
-0.306,0.0,9.653,51.0,2017-05-29 10:10:40,54.002312307539256
-0.306,0.0,9.653,51.0,2017-05-29 10:10:41,49.06417188299629
-0.459,0.0,9.807,51.0,2017-05-29 10:10:42,56.064934918662345
-0.306,0.0,9.653,51.0,2017-05-29 10:10:43,57.55461071693017
-0.459,0.0,9.807,51.0,2017-05-29 10:10:45,70.4744574239693
-0.306,0.0,9.807,51.0,2017-05-29 10:10:46,64.28300109449066
-0.459,0.0,9.807,51.0,2017-05-29 10:10:47,59.62992794062738
-0.306,0.0,9.653,51.0,2017-05-29 10:10:49,58.308936742793875
-0.459,0.0,9.807,51.0,2017-05-29 10:10:50,57.8669919012588
-0.306,0.0,9.653,51.0,2017-05-29 10:10:51,55.966066575587206
-0.306,0.0,9.653,51.0,2017-05-29 10:10:52,57.102378190920355
-0.306,0.0,9.653,51.0,2017-05-29 10:10:53,63.883410684696116
-0.306,0.0,9.653,51.0,2017-05-29 10:10:55,60.63002625437215
-0.306,0.0,9.653,51.0,2017-05-29 10:10:56,59.13539445189828
-0.306,0.0,9.653,51.0,2017-05-29 10:10:57,57.68397616706265
-0.306,0.0,9.653,51.0,2017-05-29 10:10:58,52.045862849541734
-0.306,0.0,9.653,51.0,2017-05-29 10:10:59,52.686632034631835
-0.459,0.0,9.807,51.0,2017-05-29 10:11:00,54.780018750461004
-0.306,0.0,9.807,51.0,2017-05-29 10:11:01,54.61918127633278
-0.459,0.0,9.653,51.0,2017-05-29 10:11:03,54.62947093988686
-0.459,0.0,9.807,51.0,2017-05-29 10:11:04,58.01299690722303
-0.306,0.0,9.653,51.0,2017-05-29 10:11:06,58.18866504414049
-0.459,0.0,9.807,51.0,2017-05-29 10:11:07,57.958078098840474
-0.459,0.0,9.807,52.0,2017-05-29 10:11:08,60.64812831994289
-0.459,0.0,9.807,51.0,2017-05-29 10:11:09,58.69655808040909
-0.306,0.0,9.807,51.0,2017-05-29 10:11:10,56.56493411072226
-0.306,0.0,9.807,51.0,2017-05-29 10:11:11,60.47943939371784
-0.459,0.0,9.807,51.0,2017-05-29 10:11:13,57.70284470317552
-0.306,0.0,9.807,52.0,2017-05-29 10:11:14,53.24684403284255
-0.306,0.0,9.807,51.0,2017-05-29 10:11:15,53.832357368442764
-0.306,0.0,9.807,52.0,2017-05-29 10:11:16,56.34205807966449
-0.459,0.0,9.807,52.0,2017-05-29 10:11:17,55.87303054319429
-0.306,0.0,9.653,51.0,2017-05-29 10:11:18,56.81112756553104
-0.306,0.0,9.653,51.0,2017-05-29 10:11:20,50.91435825503231
-0.459,0.0,9.807,51.0,2017-05-29 10:11:21,57.08878734229441
-0.306,0.0,9.653,51.0,2017-05-29 10:11:22,54.846396886141164
-0.459,0.0,9.807,52.0,2017-05-29 10:11:23,54.816462369287784
-0.306,0.0,9.653,51.0,2017-05-29 10:11:24,64.20447815900118
-0.459,0.0,9.807,52.0,2017-05-29 10:11:25,64.53541284523374
-0.459,0.0,9.807,51.0,2017-05-29 10:11:26,58.89213046599173
-0.306,0.0,9.653,51.0,2017-05-29 10:11:28,57.09818817341228
-0.306,0.0,9.807,51.0,2017-05-29 10:11:29,55.72832311432939
-0.459,0.0,9.807,51.0,2017-05-29 10:11:30,59.89739767328249
-0.459,0.0,9.807,52.0,2017-05-29 10:11:31,55.036393513556625
-0.306,0.0,9.807,52.0,2017-05-29 10:11:32,59.830438242836976
-0.306,0.0,9.807,51.0,2017-05-29 10:11:33,55.490515500658795
-0.306,0.0,9.807,52.0,2017-05-29 10:11:35,55.85211978866289
-0.306,0.0,9.807,51.0,2017-05-29 10:11:36,55.51120812831837
-0.306,0.0,9.653,51.0,2017-05-29 10:11:37,57.11505521506143
-0.459,0.0,9.653,51.0,2017-05-29 10:11:39,53.3136512797915
-0.459,0.0,9.807,52.0,2017-05-29 10:11:40,49.65901630646464
-0.306,0.0,9.807,52.0,2017-05-29 10:11:41,55.00212015904289
-0.306,0.0,9.807,51.0,2017-05-29 10:11:42,54.440719531198056
-0.459,0.0,9.807,51.0,2017-05-29 10:11:43,61.87423580647071
-0.306,0.0,9.807,52.0,2017-05-29 10:11:44,73.72300412953018
-0.306,0.0,9.807,51.0,2017-05-29 10:11:45,71.77584368158489
-0.306,0.0,9.653,51.0,2017-05-29 10:11:47,67.56401581292751
-0.306,0.0,9.653,51.0,2017-05-29 10:11:48,58.094249635484594
-0.306,0.0,9.807,51.0,2017-05-29 10:11:49,64.49861612103504
-0.306,0.0,9.807,51.0,2017-05-29 10:11:50,63.68235921476685
-0.306,0.0,9.807,52.0,2017-05-29 10:11:51,60.77322950525839
-0.306,0.0,9.653,51.0,2017-05-29 10:11:52,60.33275669250783
-0.306,0.0,9.807,51.0,2017-05-29 10:11:53,59.96548895604781
-0.306,0.153,9.807,52.0,2017-05-29 10:11:54,50.962436308635155
-0.459,0.0,9.653,51.0,2017-05-29 10:11:55,58.27187741872558
-0.306,0.0,9.653,51.0,2017-05-29 10:11:56,50.9209445905072
-0.459,0.0,9.807,52.0,2017-05-29 10:11:57,56.98557377909281
-0.306,0.0,9.653,52.0,2017-05-29 10:11:59,62.05366172969633
-0.306,0.153,9.807,52.0,2017-05-29 10:12:00,54.24702534866139
-0.306,-0.153,9.807,51.0,2017-05-29 10:12:01,53.28150161953132
-0.306,0.0,9.807,52.0,2017-05-29 10:12:02,55.200499061610984
-0.306,0.0,9.807,51.0,2017-05-29 10:12:03,55.17105411882141
-0.306,-0.153,9.807,51.0,2017-05-29 10:12:04,53.34975464403652
-0.459,0.0,9.653,51.0,2017-05-29 10:12:05,52.526981949892146
-0.306,0.153,9.807,51.0,2017-05-29 10:12:06,51.388717346294314
-0.306,0.153,9.807,51.0,2017-05-29 10:12:07,54.90085244341962
-0.306,-0.153,9.807,51.0,2017-05-29 10:12:08,54.25785331369088
-0.306,0.0,9.807,51.0,2017-05-29 10:12:09,54.905284242357354
-0.459,0.0,9.653,51.0,2017-05-29 10:12:11,60.3028063434802
-0.459,0.0,9.807,51.0,2017-05-29 10:12:12,50.45916084944808
-0.459,0.0,9.807,51.0,2017-05-29 10:12:13,52.574272382041194
-0.306,0.0,9.653,51.0,2017-05-29 10:12:14,51.464039576621516
-0.306,0.0,9.653,51.0,2017-05-29 10:12:16,60.096659062454194
-0.306,0.0,9.807,51.0,2017-05-29 10:12:17,52.65799900493093
-0.306,0.0,9.653,51.0,2017-05-29 10:12:18,50.392455246706945
-0.306,0.0,9.807,51.0,2017-05-29 10:12:19,56.000387675137446
-0.306,0.0,9.807,51.0,2017-05-29 10:12:20,51.50324309105479
-0.306,0.0,9.653,51.0,2017-05-29 10:12:21,48.46279225540731
-0.459,0.0,9.807,50.0,2017-05-29 10:12:22,46.31417005298428
-0.459,0.0,9.653,51.0,2017-05-29 10:12:23,53.657973445996745
-0.306,0.0,9.807,50.0,2017-05-29 10:12:24,54.83265263057792
-0.459,0.0,9.653,51.0,2017-05-29 10:12:25,49.20517085974027
-0.459,0.0,9.807,51.0,2017-05-29 10:12:27,52.26077019602783
-0.306,0.0,9.807,51.0,2017-05-29 10:12:28,52.56453438194186
-0.306,0.0,9.807,51.0,2017-05-29 10:12:29,45.11944784248791
-0.306,0.0,9.807,50.0,2017-05-29 10:12:30,54.64744098266436
-0.459,0.0,9.807,51.0,2017-05-29 10:12:31,54.83893998265022
-0.459,0.0,9.653,51.0,2017-05-29 10:12:32,53.7438572713139
-0.459,0.0,9.807,50.0,2017-05-29 10:12:33,50.50767796390125
-0.306,0.0,9.653,50.0,2017-05-29 10:12:34,47.60609925670779
-0.306,0.0,9.807,51.0,2017-05-29 10:12:35,59.67043206135112
-0.306,0.0,9.807,50.0,2017-05-29 10:12:36,70.77973642140455
-0.306,0.0,9.653,51.0,2017-05-29 10:12:37,69.63012450120202
-0.306,0.0,9.653,51.0,2017-05-29 10:12:39,63.754986964663516
-0.306,0.0,9.653,51.0,2017-05-29 10:12:40,54.67399018672224
-0.306,0.0,9.653,50.0,2017-05-29 10:12:41,48.99174323412446
-0.459,0.0,9.653,50.0,2017-05-29 10:12:42,60.47444622896716
-0.306,0.0,9.807,51.0,2017-05-29 10:12:43,63.587708206986385
-0.306,0.0,9.653,50.0,2017-05-29 10:12:44,53.109390266855215
-0.306,0.0,9.653,50.0,2017-05-29 10:12:45,52.05355902287455
-0.306,0.0,9.807,50.0,2017-05-29 10:12:46,47.882847980892436
-0.459,0.0,9.807,50.0,2017-05-29 10:12:47,53.33705991839221
-0.306,0.0,9.653,51.0,2017-05-29 10:12:48,48.811915247094085
-0.306,0.0,9.807,51.0,2017-05-29 10:12:50,48.304420013752754
-0.306,0.0,9.807,50.0,2017-05-29 10:12:52,49.15852214977188
-0.306,0.0,9.807,51.0,2017-05-29 10:12:53,47.064379925055704
-0.306,0.0,9.653,50.0,2017-05-29 10:12:54,48.47890051574136
-0.306,0.0,9.807,50.0,2017-05-29 10:12:55,52.37986524759579
-0.306,0.0,9.807,50.0,2017-05-29 10:12:56,52.96129305315048
-0.306,0.0,9.653,50.0,2017-05-29 10:12:57,53.68310517039707
-0.306,0.0,9.807,50.0,2017-05-29 10:12:58,50.39836025109591
-0.306,0.0,9.653,50.0,2017-05-29 10:12:59,54.083161404144235
-0.459,0.0,9.807,51.0,2017-05-29 10:13:00,55.08209039096268
-0.306,0.0,9.807,50.0,2017-05-29 10:13:01,53.03696483794845
-0.306,0.0,9.807,50.0,2017-05-29 10:13:02,50.64727771701068
-0.306,0.0,9.653,51.0,2017-05-29 10:13:03,53.35712641731774
-0.306,0.0,9.653,50.0,2017-05-29 10:13:04,55.60693668401832
-0.306,0.0,9.653,51.0,2017-05-29 10:13:05,45.71608833598309
-0.459,0.0,9.653,51.0,2017-05-29 10:13:06,48.96295109829068
-0.306,0.0,9.807,50.0,2017-05-29 10:13:07,47.999611082202556
-0.306,0.0,9.653,50.0,2017-05-29 10:13:09,47.794348632388754
-0.306,0.0,9.807,50.0,2017-05-29 10:13:10,46.538527767438005
-0.306,0.0,9.807,50.0,2017-05-29 10:13:11,48.428989650967765
-0.459,0.0,9.807,50.0,2017-05-29 10:13:12,48.2921191787744
-0.459,0.0,9.807,50.0,2017-05-29 10:13:13,47.63874366702616
-0.306,0.0,9.807,50.0,2017-05-29 10:13:14,55.66093662426879
-0.306,0.0,9.653,50.0,2017-05-29 10:13:15,54.30630595406822
-0.459,0.0,9.653,51.0,2017-05-29 10:13:16,48.76086272606173
-0.459,0.0,9.807,50.0,2017-05-29 10:13:17,50.46764661293789
-0.306,0.0,9.807,51.0,2017-05-29 10:13:18,49.913478023431935
-0.306,0.0,9.807,50.0,2017-05-29 10:13:19,47.03692914832309
-0.306,0.0,9.807,50.0,2017-05-29 10:13:20,49.002031617835854
-0.306,0.0,9.807,51.0,2017-05-29 10:13:21,47.34823373230249
-0.306,0.0,9.807,50.0,2017-05-29 10:13:22,51.314638552016454
-0.459,0.0,9.653,50.0,2017-05-29 10:13:23,45.470443723434116
-0.459,0.0,9.653,50.0,2017-05-29 10:13:24,52.8024243330526
-0.306,0.0,9.807,50.0,2017-05-29 10:13:25,55.2330183510043
-0.306,0.0,9.807,50.0,2017-05-29 10:13:26,58.71798045238967
-0.306,0.0,9.807,51.0,2017-05-29 10:13:27,54.46971874938333
-0.459,0.0,9.653,51.0,2017-05-29 10:13:29,46.689939167328404
-0.306,0.0,9.807,51.0,2017-05-29 10:13:30,46.54652614505845
-0.306,0.0,9.807,50.0,2017-05-29 10:13:31,47.35116262372344
-0.306,0.0,9.653,51.0,2017-05-29 10:13:32,54.42577229409905
-0.459,0.0,9.653,51.0,2017-05-29 10:13:33,51.370594599904315
-0.459,0.0,9.653,51.0,2017-05-29 10:13:34,49.21472379904996
-0.306,0.0,9.807,50.0,2017-05-29 10:13:35,48.959111976582584
-0.306,0.0,9.653,50.0,2017-05-29 10:13:36,47.30948812415812
-0.306,0.0,9.653,50.0,2017-05-29 10:13:37,48.83681854320184
-0.306,0.0,9.807,50.0,2017-05-29 10:13:38,55.49884221875622
-0.306,0.0,9.653,51.0,2017-05-29 10:13:39,49.705208323569835
-0.459,0.0,9.653,50.0,2017-05-29 10:13:40,50.31186096532569
-0.306,0.0,9.807,50.0,2017-05-29 10:13:41,46.81928721718522
-0.459,0.0,9.807,51.0,2017-05-29 10:13:42,52.30684063298546
-0.459,0.0,9.807,50.0,2017-05-29 10:13:43,49.84479535510011
-0.306,0.0,9.807,50.0,2017-05-29 10:13:44,45.39065272675452
-0.306,0.0,9.653,50.0,2017-05-29 10:13:45,54.570019757448236
-0.306,0.0,9.653,50.0,2017-05-29 10:13:46,56.28853676564454
-0.306,0.0,9.807,50.0,2017-05-29 10:13:47,56.87663539880842
-0.306,0.0,9.807,50.0,2017-05-29 10:13:48,58.10266733724547
-0.306,0.0,9.653,50.0,2017-05-29 10:13:50,51.03976079431118
-0.306,0.0,9.653,50.0,2017-05-29 10:13:51,47.84478455771308
-0.306,0.0,9.653,50.0,2017-05-29 10:13:52,49.488216209930854
-0.306,0.0,9.653,50.0,2017-05-29 10:13:53,49.74286398738131
-0.459,0.0,9.653,50.0,2017-05-29 10:13:54,43.56648334091278
-0.306,0.0,9.653,50.0,2017-05-29 10:13:55,45.4741550268822
-0.306,0.0,9.653,50.0,2017-05-29 10:13:56,47.28691167763849
-0.306,0.0,9.807,50.0,2017-05-29 10:13:57,48.75914464854708
-0.306,0.0,9.653,50.0,2017-05-29 10:13:58,46.82629211809049
-0.306,0.0,9.653,50.0,2017-05-29 10:13:59,46.33637627039094
-0.459,0.0,9.807,50.0,2017-05-29 10:14:00,50.63710446299332
-0.306,0.0,9.653,50.0,2017-05-29 10:14:02,53.693451811185895
-0.306,0.0,9.807,50.0,2017-05-29 10:14:03,52.37022509297725
-0.306,0.0,9.653,50.0,2017-05-29 10:14:04,52.95711994085544
-0.306,0.0,9.807,50.0,2017-05-29 10:14:05,50.80570652234138
-0.306,0.0,9.807,50.0,2017-05-29 10:14:06,49.70724060938157
-0.306,0.0,9.653,50.0,2017-05-29 10:14:07,59.69724612726804
-0.306,0.0,9.653,50.0,2017-05-29 10:14:08,57.16564718646717
-0.306,0.0,9.807,51.0,2017-05-29 10:14:09,52.50770925364761
-0.306,0.0,9.807,50.0,2017-05-29 10:14:10,51.59675433809083
-0.306,0.0,9.807,50.0,2017-05-29 10:14:11,53.20254988986386
-0.306,0.0,9.807,50.0,2017-05-29 10:14:12,50.12207647707115
-0.306,0.0,9.807,50.0,2017-05-29 10:14:13,49.693784138101584
-0.306,0.0,9.653,51.0,2017-05-29 10:14:14,55.18934627456051
-0.459,0.0,9.653,51.0,2017-05-29 10:14:15,57.72660388057386
-0.306,0.0,9.807,50.0,2017-05-29 10:14:16,54.36624798407682
-0.306,0.0,9.807,50.0,2017-05-29 10:14:17,55.617308071833094
-0.306,0.0,9.807,50.0,2017-05-29 10:14:19,52.451390617160314
-0.306,0.0,9.653,50.0,2017-05-29 10:14:20,52.85362106875624
-0.306,0.0,9.653,50.0,2017-05-29 10:14:21,54.774631270296005
-0.306,0.0,9.807,50.0,2017-05-29 10:14:22,58.889438663396454
-0.306,0.0,9.807,50.0,2017-05-29 10:14:23,60.43750978130929
-0.306,0.0,9.807,50.0,2017-05-29 10:14:24,51.77300053490481
-0.306,0.0,9.653,50.0,2017-05-29 10:14:25,48.37828579130453
-0.306,0.0,9.807,51.0,2017-05-29 10:14:26,49.79897172462514
-0.306,0.0,9.653,51.0,2017-05-29 10:14:27,50.0970521770443
-0.459,0.0,9.653,50.0,2017-05-29 10:14:28,52.353699446882416
-0.306,0.0,9.807,50.0,2017-05-29 10:14:29,51.162824927912965
-0.306,0.0,9.653,50.0,2017-05-29 10:14:30,50.68488208249558
-0.459,0.0,9.653,50.0,2017-05-29 10:14:31,54.100548185753176
-0.306,0.0,9.653,50.0,2017-05-29 10:14:32,47.10152840569556
-0.306,0.0,9.807,51.0,2017-05-29 10:14:33,48.352167696853996
-0.306,0.0,9.653,50.0,2017-05-29 10:14:34,51.30866758948361
-0.306,0.0,9.653,50.0,2017-05-29 10:14:35,49.89282266599446
-0.459,0.0,9.653,50.0,2017-05-29 10:14:36,47.90113999277172
-0.306,0.0,9.653,50.0,2017-05-29 10:14:37,53.20181434748943
-0.306,0.0,9.653,50.0,2017-05-29 10:14:38,56.374526809368525
-0.306,0.0,9.807,50.0,2017-05-29 10:14:39,55.25871524864159
-0.306,0.0,9.807,50.0,2017-05-29 10:14:40,53.48551043587942
-0.306,0.0,9.653,50.0,2017-05-29 10:14:41,52.46383290653428
-0.306,0.0,9.653,50.0,2017-05-29 10:14:42,50.04009542694994
-0.459,0.0,9.653,50.0,2017-05-29 10:14:44,50.369986665870485
-0.306,0.0,9.807,50.0,2017-05-29 10:14:45,53.83541933494273
-0.306,0.0,9.807,50.0,2017-05-29 10:14:46,57.20275079153784
-0.306,0.0,9.653,50.0,2017-05-29 10:14:47,54.515160394981315
-0.306,0.0,9.807,50.0,2017-05-29 10:14:48,50.44023459446275
-0.459,0.0,9.807,50.0,2017-05-29 10:14:49,53.22585621400621
-0.306,0.0,9.653,50.0,2017-05-29 10:14:50,55.90581854351231
-0.306,0.0,9.653,50.0,2017-05-29 10:14:51,46.555855903038875
-0.306,0.0,9.653,50.0,2017-05-29 10:14:52,53.707327603025696
-0.306,0.0,9.653,50.0,2017-05-29 10:14:54,51.27953172905464
-0.306,0.0,9.653,50.0,2017-05-29 10:14:55,52.02887944939195
-0.306,0.0,9.807,50.0,2017-05-29 10:14:56,52.57642784589889
-0.306,0.0,9.807,50.0,2017-05-29 10:14:57,49.1430207639353
-0.306,0.0,9.653,50.0,2017-05-29 10:14:58,46.689868494866005
-0.306,0.0,9.653,50.0,2017-05-29 10:14:59,53.109544343499884
-0.306,0.0,9.807,50.0,2017-05-29 10:15:00,49.07368342393781
-0.306,0.0,9.653,50.0,2017-05-29 10:15:01,48.98550479329242
-0.306,0.0,9.807,50.0,2017-05-29 10:15:02,49.410224674887075
-0.306,0.0,9.807,50.0,2017-05-29 10:15:03,54.85516676145464
-0.306,0.0,9.653,50.0,2017-05-29 10:15:04,57.82959537160356
-0.306,0.0,9.653,50.0,2017-05-29 10:15:05,50.52271980417107
-0.306,0.0,9.653,50.0,2017-05-29 10:15:06,51.44172698553298
-0.306,0.0,9.807,50.0,2017-05-29 10:15:07,52.91893652661747
-0.306,0.0,9.653,50.0,2017-05-29 10:15:08,46.409828655920506
-0.306,0.0,9.807,50.0,2017-05-29 10:15:09,52.03591798711742
-0.306,0.0,9.807,50.0,2017-05-29 10:15:10,54.3561905111439
-0.306,0.0,9.807,50.0,2017-05-29 10:15:11,55.22556330267729
-0.306,0.0,9.807,50.0,2017-05-29 10:15:12,50.45119000777889
-0.306,0.0,9.807,50.0,2017-05-29 10:15:13,48.54135574339685
-0.459,0.0,9.807,50.0,2017-05-29 10:15:15,47.77781852541185
-0.459,0.0,9.653,50.0,2017-05-29 10:15:16,47.38341981021235
-0.306,0.0,9.807,50.0,2017-05-29 10:15:17,48.54462648092424
-0.306,0.0,9.653,50.0,2017-05-29 10:15:18,47.87286442899522
-0.459,0.0,9.653,50.0,2017-05-29 10:15:19,50.20052675795387
-0.306,0.0,9.653,50.0,2017-05-29 10:15:20,57.46234815154746
-0.306,0.0,9.653,50.0,2017-05-29 10:15:21,57.10375322796918
-0.306,0.0,9.807,50.0,2017-05-29 10:15:22,55.12820987926364
-0.306,0.0,9.653,50.0,2017-05-29 10:15:23,58.709742134319065
-0.306,0.0,9.807,50.0,2017-05-29 10:15:25,54.06160214160835
-0.306,0.0,9.653,50.0,2017-05-29 10:15:26,53.46189533065047
-0.306,0.0,9.653,50.0,2017-05-29 10:15:27,50.35137216408373
-0.306,0.0,9.807,50.0,2017-05-29 10:15:28,64.20509428418674
-0.306,0.0,9.653,50.0,2017-05-29 10:15:29,59.40935063559239
-0.306,0.0,9.653,50.0,2017-05-29 10:15:30,53.19292273912942
-0.306,0.0,9.807,50.0,2017-05-29 10:15:31,52.34388475599131
-0.306,0.0,9.807,50.0,2017-05-29 10:15:32,53.15062164284377
-0.306,0.0,9.653,50.0,2017-05-29 10:15:33,53.3756689183345
-0.306,0.0,9.653,50.0,2017-05-29 10:15:34,53.290424223124916
-0.306,0.0,9.653,50.0,2017-05-29 10:15:35,55.42239808043037
-0.306,0.0,9.653,50.0,2017-05-29 10:15:36,63.4949585250948
-0.306,0.0,9.807,50.0,2017-05-29 10:15:37,48.26899482574205
-0.306,0.0,9.807,50.0,2017-05-29 10:15:38,48.733760296898495
-0.306,0.0,9.807,50.0,2017-05-29 10:15:39,57.43166446272049
-0.306,0.0,9.653,50.0,2017-05-29 10:15:40,52.267336041541405
-0.306,0.0,9.653,50.0,2017-05-29 10:15:41,50.60671144584283
-0.306,0.0,9.807,50.0,2017-05-29 10:15:42,50.9892113796204
-0.306,0.0,9.653,50.0,2017-05-29 10:15:44,54.98469976950467
-0.306,0.0,9.653,50.0,2017-05-29 10:15:45,53.428732681099305
-0.306,0.0,9.807,50.0,2017-05-29 10:15:46,52.48228983151687
-0.306,0.0,9.807,50.0,2017-05-29 10:15:47,50.53609636810642
-0.306,0.0,9.653,50.0,2017-05-29 10:15:48,55.3058805553289
-0.306,0.0,9.807,50.0,2017-05-29 10:15:49,57.97523451105044
-0.306,0.0,9.653,50.0,2017-05-29 10:15:50,60.78668770365945
-0.459,0.0,9.807,50.0,2017-05-29 10:15:51,59.31183161854076
-0.306,0.0,9.807,50.0,2017-05-29 10:15:52,47.8951672656759
-0.306,0.0,9.653,50.0,2017-05-29 10:15:53,50.24321223988197
-0.306,0.0,9.653,50.0,2017-05-29 10:15:54,46.698237943020914
-0.306,0.0,9.653,50.0,2017-05-29 10:15:55,47.20465941456719
-0.306,0.0,9.807,50.0,2017-05-29 10:15:56,49.355961183233596
-0.306,0.0,9.653,50.0,2017-05-29 10:15:57,46.290624580904904
-0.306,0.0,9.807,50.0,2017-05-29 10:15:58,47.30408060203474
-0.306,0.0,9.653,50.0,2017-05-29 10:15:59,55.00140857575395
-0.306,0.0,9.807,50.0,2017-05-29 10:16:01,51.578559062757954
-0.306,0.0,9.653,50.0,2017-05-29 10:16:02,45.73957141810549
-0.306,0.0,9.807,50.0,2017-05-29 10:16:03,49.65820206487947
-0.306,0.0,9.653,50.0,2017-05-29 10:16:04,47.04908234685323
-0.306,0.0,9.653,50.0,2017-05-29 10:16:05,49.78736557819134
-0.306,0.0,9.807,50.0,2017-05-29 10:16:06,52.62874572464937
-0.306,0.0,9.807,50.0,2017-05-29 10:16:07,51.79893624011829
-0.306,0.0,9.653,50.0,2017-05-29 10:16:08,47.57514314272398
-0.306,0.0,9.807,50.0,2017-05-29 10:16:09,49.963666550987554
-0.306,0.0,9.653,50.0,2017-05-29 10:16:10,51.79199286533936
-0.306,0.0,9.653,50.0,2017-05-29 10:16:11,50.51172728734453
-0.306,0.0,9.653,50.0,2017-05-29 10:16:12,50.896413210244575
-0.306,0.0,9.807,50.0,2017-05-29 10:16:13,47.79690243116227
-0.306,0.0,9.807,50.0,2017-05-29 10:16:14,47.772433957450914
-0.306,0.0,9.653,51.0,2017-05-29 10:16:15,54.272902997440724
-0.306,0.0,9.653,50.0,2017-05-29 10:16:16,48.77298117301162
-0.306,0.0,9.653,50.0,2017-05-29 10:16:17,51.04166927328074
-0.306,0.0,9.653,50.0,2017-05-29 10:16:19,54.89617696022122
-0.306,0.0,9.807,51.0,2017-05-29 10:16:20,55.02196100608852
-0.459,0.0,9.807,50.0,2017-05-29 10:16:21,49.78892882027579
-0.306,0.0,9.807,51.0,2017-05-29 10:16:22,51.03858399720012
-0.306,0.0,9.807,50.0,2017-05-29 10:16:23,48.87468724552845
-0.306,0.0,9.807,51.0,2017-05-29 10:16:24,48.40378443320865
-0.306,0.0,9.653,51.0,2017-05-29 10:16:25,52.54619502043771
-0.306,0.0,9.653,51.0,2017-05-29 10:16:26,53.36463405072369
-0.306,0.0,9.653,51.0,2017-05-29 10:16:27,51.989027769274294
-0.306,0.0,9.807,51.0,2017-05-29 10:16:28,48.59924649854108
-0.306,0.0,9.653,51.0,2017-05-29 10:16:29,47.33857837350888
-0.306,0.0,9.653,50.0,2017-05-29 10:16:30,47.278204546043355
-0.306,0.0,9.653,50.0,2017-05-29 10:16:31,53.27695994899479
-0.306,0.0,9.807,51.0,2017-05-29 10:16:32,48.22554659906925
-0.306,0.0,9.807,51.0,2017-05-29 10:16:33,52.26467156086264
-0.306,0.0,9.807,50.0,2017-05-29 10:16:34,50.376936537828286
-0.306,0.0,9.653,50.0,2017-05-29 10:16:35,51.40584575983002
-0.306,0.0,9.807,51.0,2017-05-29 10:16:37,54.65896724277508
-0.306,0.0,9.807,51.0,2017-05-29 10:16:38,51.25502674914901
-0.306,0.0,9.807,51.0,2017-05-29 10:16:39,59.67850093037192
-0.306,0.0,9.807,51.0,2017-05-29 10:16:40,60.943723737246636
-0.306,0.0,9.807,51.0,2017-05-29 10:16:41,50.404076822367905
-0.306,0.0,9.653,51.0,2017-05-29 10:16:42,53.14612707577631
-0.306,0.0,9.807,51.0,2017-05-29 10:16:43,52.251801455512506
-0.306,0.0,9.653,51.0,2017-05-29 10:16:44,51.024108282910625
-0.306,0.0,9.653,51.0,2017-05-29 10:16:45,50.504853561634306
-0.306,0.0,9.653,50.0,2017-05-29 10:16:46,55.81447929973856
-0.306,0.0,9.807,51.0,2017-05-29 10:16:47,51.581563229338485
-0.306,0.0,9.653,51.0,2017-05-29 10:16:48,49.583364939532984
-0.306,0.0,9.653,50.0,2017-05-29 10:16:49,52.68370910191473
-0.306,0.0,9.653,50.0,2017-05-29 10:16:50,47.807210569900505
-0.306,0.0,9.807,50.0,2017-05-29 10:16:51,47.383748525150146
-0.306,0.0,9.807,50.0,2017-05-29 10:16:52,49.49694698827731
-0.306,0.0,9.653,51.0,2017-05-29 10:16:53,49.92525862709293
-0.306,0.0,9.653,50.0,2017-05-29 10:16:54,52.06421200237806
-0.306,0.0,9.807,51.0,2017-05-29 10:16:55,50.27644860769341
-0.306,0.0,9.807,51.0,2017-05-29 10:16:56,51.99981364792819
-0.306,0.0,9.653,51.0,2017-05-29 10:16:58,54.557192349830395
-0.306,0.0,9.807,51.0,2017-05-29 10:16:59,51.66388240300627
-0.306,0.0,9.653,50.0,2017-05-29 10:17:00,63.35252821149383
-0.306,0.0,9.807,51.0,2017-05-29 10:17:01,69.38018291000125
-0.306,0.0,9.653,50.0,2017-05-29 10:17:02,60.50066748675135
-0.306,0.0,9.807,51.0,2017-05-29 10:17:03,56.797133621831186
-0.306,0.0,9.807,50.0,2017-05-29 10:17:04,55.893389095632244
-0.306,0.0,9.653,51.0,2017-05-29 10:17:05,48.164355701628885
-0.306,0.0,9.653,51.0,2017-05-29 10:17:06,50.58539340506914
-0.306,0.0,9.653,51.0,2017-05-29 10:17:07,52.69947889126038
-0.306,0.0,9.653,51.0,2017-05-29 10:17:08,52.814219196289244
-0.306,0.0,9.807,51.0,2017-05-29 10:17:09,56.734944482418996
-0.306,0.0,9.807,51.0,2017-05-29 10:17:10,53.883174730983626
-0.306,0.0,9.653,50.0,2017-05-29 10:17:11,48.715734645500916
-0.306,0.0,9.807,51.0,2017-05-29 10:17:12,51.86050411070348
-0.306,0.0,9.653,50.0,2017-05-29 10:17:13,54.6045147542419
-0.306,0.0,9.807,50.0,2017-05-29 10:17:14,56.64938874014267
-0.306,0.0,9.807,51.0,2017-05-29 10:17:15,56.552903962780235
-0.306,0.0,9.653,50.0,2017-05-29 10:17:16,48.15896234496877
-0.306,0.0,9.653,51.0,2017-05-29 10:17:18,50.12257761420935
-0.306,0.0,9.653,51.0,2017-05-29 10:17:19,50.640922768015066
-0.306,0.0,9.653,50.0,2017-05-29 10:17:20,49.04493727359262
-0.306,0.0,9.807,51.0,2017-05-29 10:17:21,48.66250038381487
-0.306,0.0,9.653,51.0,2017-05-29 10:17:22,52.0398489776199
-0.306,0.0,9.653,51.0,2017-05-29 10:17:23,46.76744321973488
-0.306,0.0,9.807,51.0,2017-05-29 10:17:24,52.571340458581936
-0.306,0.0,9.653,51.0,2017-05-29 10:17:25,51.28646144953897
-0.306,0.0,9.807,51.0,2017-05-29 10:17:26,46.9676171217384
-0.306,0.0,9.807,51.0,2017-05-29 10:17:27,51.31738628044627
-0.306,0.0,9.653,51.0,2017-05-29 10:17:28,52.16540220914273
-0.306,0.0,9.653,51.0,2017-05-29 10:17:30,52.40205990386101
-0.306,0.0,9.807,51.0,2017-05-29 10:17:31,56.37479056519421
-0.306,0.0,9.653,51.0,2017-05-29 10:17:32,52.64911037325263
-0.306,0.0,9.807,51.0,2017-05-29 10:17:33,52.510778000904985
-0.306,0.0,9.653,51.0,2017-05-29 10:17:34,47.26870744889826
-0.306,0.0,9.653,51.0,2017-05-29 10:17:35,53.67139611114109
-0.306,0.0,9.653,51.0,2017-05-29 10:17:36,50.411573250859796
-0.306,0.0,9.653,51.0,2017-05-29 10:17:37,52.4722926819274
-0.306,0.0,9.653,51.0,2017-05-29 10:17:38,50.33752330256622
-0.306,0.0,9.807,52.0,2017-05-29 10:17:39,44.15053674581181
-0.459,0.0,9.653,51.0,2017-05-29 10:17:40,45.40355209418259
-0.306,0.0,9.807,51.0,2017-05-29 10:17:41,51.54100385757601
-0.306,0.0,9.807,51.0,2017-05-29 10:17:42,52.633590287594714
-0.306,0.0,9.653,51.0,2017-05-29 10:17:43,53.83670747190613
-0.306,0.0,9.807,51.0,2017-05-29 10:17:44,53.364118549960146
-0.306,0.0,9.653,51.0,2017-05-29 10:17:46,52.462856436759736
-0.306,0.0,9.653,51.0,2017-05-29 10:17:47,52.491193743695675
-0.306,0.0,9.807,51.0,2017-05-29 10:17:48,52.79449250424616
-0.306,0.0,9.807,51.0,2017-05-29 10:17:49,53.216051741965174
-0.306,0.0,9.807,51.0,2017-05-29 10:17:50,54.94334294896128
-0.306,0.0,9.807,50.0,2017-05-29 10:17:51,54.977453059939414
-0.306,0.0,9.653,51.0,2017-05-29 10:17:52,54.35492886842387
-0.306,0.0,9.807,51.0,2017-05-29 10:17:53,46.0787581016141
-0.306,0.0,9.807,51.0,2017-05-29 10:17:54,45.91326357593416
-0.306,0.0,9.807,51.0,2017-05-29 10:17:56,46.78436059005009
-0.306,0.0,9.653,51.0,2017-05-29 10:17:57,50.37451586189043
-0.306,0.0,9.653,51.0,2017-05-29 10:17:58,49.90224632087158
-0.306,0.0,9.653,51.0,2017-05-29 10:17:59,51.19065131968371
-0.306,0.0,9.653,51.0,2017-05-29 10:18:00,49.506178655281175
-0.306,0.0,9.807,51.0,2017-05-29 10:18:01,46.25369692759194
-0.306,0.0,9.653,51.0,2017-05-29 10:18:02,45.40380160382095
-0.306,0.0,9.807,51.0,2017-05-29 10:18:03,45.669583919879614
-0.306,0.0,9.653,51.0,2017-05-29 10:18:04,45.81154244862128
-0.306,0.0,9.807,52.0,2017-05-29 10:18:05,45.19339917367341
-0.306,0.0,9.653,51.0,2017-05-29 10:18:06,46.09280445976391
-0.306,0.0,9.807,51.0,2017-05-29 10:18:07,44.652210298774165
-0.306,0.0,9.807,51.0,2017-05-29 10:18:08,45.707656119386556
-0.459,0.0,9.807,50.0,2017-05-29 10:18:09,44.960201270579496
-0.306,0.0,9.653,51.0,2017-05-29 10:18:10,45.868620622970866
-0.306,0.0,9.807,51.0,2017-05-29 10:18:11,46.78930200127189
-0.306,0.0,9.653,52.0,2017-05-29 10:18:12,51.13738966579142
-0.306,0.0,9.807,51.0,2017-05-29 10:18:13,49.609196454647595
-0.306,0.0,9.807,51.0,2017-05-29 10:18:14,49.59560445723574
-0.306,0.0,9.807,51.0,2017-05-29 10:18:15,49.21906833771629
-0.306,0.0,9.653,51.0,2017-05-29 10:18:16,47.159628093315675
-0.459,0.0,9.807,51.0,2017-05-29 10:18:18,49.22523375842949
-0.306,0.0,9.807,51.0,2017-05-29 10:18:19,48.97768694931672
-0.306,-0.153,9.653,51.0,2017-05-29 10:18:20,49.72728185245985
-0.459,0.0,9.653,51.0,2017-05-29 10:18:21,52.09258634766268
-0.306,0.0,9.653,52.0,2017-05-29 10:18:22,48.86918023526684
-0.306,0.0,9.653,51.0,2017-05-29 10:18:23,47.24384224847089
-0.459,0.0,9.807,51.0,2017-05-29 10:18:24,47.15705655954871
-0.306,0.0,9.807,51.0,2017-05-29 10:18:25,47.686753466910545
-0.306,0.0,9.807,51.0,2017-05-29 10:18:26,48.24266492922169
-0.306,0.153,9.653,51.0,2017-05-29 10:18:27,49.16400777122186
-0.306,0.0,9.807,51.0,2017-05-29 10:18:28,48.619573358287795
-0.306,0.0,9.653,51.0,2017-05-29 10:18:29,47.771560516363664
-0.306,0.0,9.653,51.0,2017-05-29 10:18:30,47.44774743566044
-0.306,0.153,9.653,51.0,2017-05-29 10:18:31,47.79506191723402
-0.306,0.0,9.653,51.0,2017-05-29 10:18:32,48.1528166394157
-0.306,0.0,9.653,51.0,2017-05-29 10:18:33,48.43814919507543
-0.306,0.0,9.653,51.0,2017-05-29 10:18:34,53.32451823102717
-0.306,0.0,9.653,51.0,2017-05-29 10:18:35,53.869347357067156
-0.306,0.0,9.653,51.0,2017-05-29 10:18:37,44.435206999677
-0.306,0.0,9.807,51.0,2017-05-29 10:18:38,44.83621436593056
-0.306,0.0,9.653,51.0,2017-05-29 10:18:39,45.64580853706103
-0.306,0.0,9.807,51.0,2017-05-29 10:18:40,47.627631266562
-0.306,0.0,9.807,52.0,2017-05-29 10:18:41,49.74978032513587
-0.459,0.0,9.653,51.0,2017-05-29 10:18:42,48.85700644993639
-0.306,0.0,9.807,52.0,2017-05-29 10:18:43,51.47158126767011
-0.306,0.0,9.653,51.0,2017-05-29 10:18:44,54.610379468101314
-0.306,0.0,9.807,51.0,2017-05-29 10:18:45,51.689763263266826
-0.306,0.0,9.653,51.0,2017-05-29 10:18:46,49.61890658353675
-0.306,0.0,9.653,51.0,2017-05-29 10:18:47,51.456993267241195
-0.306,0.0,9.653,51.0,2017-05-29 10:18:48,54.681107629188254
-0.306,0.0,9.653,51.0,2017-05-29 10:18:49,48.04743900344603
-0.306,0.0,9.653,51.0,2017-05-29 10:18:50,52.31358939880429
-0.306,0.0,9.653,51.0,2017-05-29 10:18:51,49.57198417321568
-0.306,0.0,9.653,51.0,2017-05-29 10:18:53,49.12435480153353
-0.306,0.0,9.653,51.0,2017-05-29 10:18:54,53.94779904407958
-0.306,0.0,9.807,51.0,2017-05-29 10:18:55,50.2445794616299
-0.306,0.0,9.653,51.0,2017-05-29 10:18:56,51.401929120371875
-0.306,0.0,9.807,52.0,2017-05-29 10:18:57,55.13164779619653
-0.306,0.0,9.653,51.0,2017-05-29 10:18:58,55.726714387861804
-0.306,0.0,9.653,51.0,2017-05-29 10:18:59,44.80344082354375
-0.306,0.0,9.807,51.0,2017-05-29 10:19:00,44.99179049298043
-0.306,0.0,9.653,52.0,2017-05-29 10:19:02,46.36308982585055
-0.306,0.0,9.653,51.0,2017-05-29 10:19:03,48.84756239586525
-0.306,0.0,9.653,51.0,2017-05-29 10:19:04,52.07904556250833
-0.306,0.0,9.653,51.0,2017-05-29 10:19:05,52.175715263279685
-0.306,0.0,9.653,52.0,2017-05-29 10:19:06,45.985817532143685
-0.306,0.0,9.653,51.0,2017-05-29 10:19:07,44.19580377763192
-0.306,0.0,9.653,51.0,2017-05-29 10:19:08,45.61886787806115
-0.306,0.0,9.807,51.0,2017-05-29 10:19:09,44.20181815879138
-0.306,0.0,9.807,47.0,2017-05-29 10:19:10,47.33914117006072
-0.306,0.0,9.653,47.0,2017-05-29 10:19:11,46.89014650428227
-0.306,0.0,9.807,47.0,2017-05-29 10:19:12,46.933501845338164
-0.459,0.0,9.653,48.0,2017-05-29 10:19:13,47.22553924373973
-0.306,0.0,9.653,48.0,2017-05-29 10:19:14,45.13863939554372
-0.306,0.0,9.807,48.0,2017-05-29 10:19:15,44.674670016941604
-0.306,0.0,9.653,47.0,2017-05-29 10:19:16,44.97271960900245
-0.306,0.0,9.807,47.0,2017-05-29 10:19:17,52.873942828476814
-0.306,0.0,9.653,46.0,2017-05-29 10:19:19,57.98896299291029
-0.306,0.0,9.807,50.0,2017-05-29 10:19:20,47.29399268697789
-0.306,0.0,9.653,50.0,2017-05-29 10:19:21,51.29442329373867
-0.306,0.0,9.653,50.0,2017-05-29 10:19:22,58.911405558108115
-0.306,0.0,9.653,48.0,2017-05-29 10:19:23,63.595294606673576
-0.306,0.0,9.653,50.0,2017-05-29 10:19:24,61.85872039691235
-0.306,0.0,9.807,49.0,2017-05-29 10:19:25,52.982907963497766
-0.306,0.0,9.807,48.0,2017-05-29 10:19:26,49.483424880777704
-0.306,0.0,9.807,48.0,2017-05-29 10:19:27,57.751279990430746
-0.306,0.0,9.653,48.0,2017-05-29 10:19:28,61.45260609996455
-0.306,0.0,9.653,48.0,2017-05-29 10:19:29,64.88288436871863
-0.306,0.0,9.807,48.0,2017-05-29 10:19:30,70.48484242788463
-0.306,0.0,9.653,48.0,2017-05-29 10:19:32,56.1731020627117
-0.306,0.0,9.807,46.0,2017-05-29 10:19:33,46.91473484850257
-0.306,0.0,9.807,47.0,2017-05-29 10:19:34,48.55720205035125
-0.306,0.0,9.653,50.0,2017-05-29 10:19:35,49.20449788962638
-0.306,0.0,9.807,50.0,2017-05-29 10:19:36,49.41214228692468
-0.306,0.0,9.653,50.0,2017-05-29 10:19:37,48.12342636225818
-0.306,0.0,9.807,50.0,2017-05-29 10:19:38,50.32807036849266
-0.306,0.0,9.653,50.0,2017-05-29 10:19:39,50.107892164978765
-0.306,0.0,9.653,50.0,2017-05-29 10:19:40,50.95785363964759
-0.306,0.0,9.653,50.0,2017-05-29 10:19:41,47.573840228901965
-0.306,0.0,9.653,50.0,2017-05-29 10:19:42,48.63660868450414
-0.306,0.0,9.653,50.0,2017-05-29 10:19:43,47.78982174156424
-0.306,0.0,9.807,50.0,2017-05-29 10:19:44,48.17276632198539
-0.306,0.0,9.653,50.0,2017-05-29 10:19:45,49.60482282855919
-0.306,0.0,9.653,50.0,2017-05-29 10:19:46,49.13488075568971
-0.306,0.0,9.653,50.0,2017-05-29 10:19:48,48.003740855920604
-0.306,0.0,9.807,50.0,2017-05-29 10:19:49,46.889935148123655
-0.306,0.0,9.807,50.0,2017-05-29 10:19:50,49.41458571207473
-0.306,0.0,9.653,50.0,2017-05-29 10:19:51,52.4927931365272
-0.306,0.0,9.653,50.0,2017-05-29 10:19:52,52.80203315078903
-0.306,0.0,9.653,50.0,2017-05-29 10:19:53,54.348665063211534
-0.306,0.0,9.807,50.0,2017-05-29 10:19:54,55.09745097585113
-0.306,0.0,9.653,50.0,2017-05-29 10:19:55,45.935107382875415
-0.306,0.0,9.807,49.0,2017-05-29 10:19:56,49.65447554203614
-0.306,0.0,9.653,48.0,2017-05-29 10:19:57,56.504571413172386
-0.306,0.0,9.653,48.0,2017-05-29 10:19:58,52.469722625453244
-0.306,0.0,9.653,48.0,2017-05-29 10:19:59,52.51598248614197
-0.306,0.0,9.653,48.0,2017-05-29 10:20:00,50.646537403134076
-0.306,0.0,9.653,48.0,2017-05-29 10:20:01,51.78731238971331
-0.306,0.0,9.807,48.0,2017-05-29 10:20:02,52.10701093351921
-0.459,0.0,9.807,47.0,2017-05-29 10:20:03,51.50260813993456
-0.306,0.0,9.807,48.0,2017-05-29 10:20:04,56.06746938354304
-0.306,0.0,9.653,46.0,2017-05-29 10:20:05,53.8398003465944
-0.306,0.0,9.807,46.0,2017-05-29 10:20:06,53.247548151770985
-0.306,0.0,9.653,49.0,2017-05-29 10:20:07,53.066412161939695
-0.306,0.0,9.653,49.0,2017-05-29 10:20:08,55.40421560958266
-0.306,0.0,9.653,50.0,2017-05-29 10:20:09,50.71678038834563
-0.306,0.0,9.807,50.0,2017-05-29 10:20:11,50.30429112521701
-0.306,0.0,9.653,48.0,2017-05-29 10:20:12,51.64372841050963
-0.306,0.0,9.653,47.0,2017-05-29 10:20:13,67.19169041165374
-0.306,0.0,9.653,46.0,2017-05-29 10:20:14,60.92383713255636
-0.306,0.0,9.653,48.0,2017-05-29 10:20:15,56.774545123286224
-0.306,0.0,9.807,49.0,2017-05-29 10:20:16,59.317912124916376
-0.306,0.0,9.807,49.0,2017-05-29 10:20:17,55.77446892413957
-0.306,0.0,9.653,49.0,2017-05-29 10:20:18,49.95113151815524
-0.306,0.0,9.807,48.0,2017-05-29 10:20:19,51.60016612552739
-0.306,0.0,9.807,48.0,2017-05-29 10:20:20,63.99341648556236
-0.306,0.0,9.807,47.0,2017-05-29 10:20:21,65.11307316352857
-0.306,0.0,9.807,48.0,2017-05-29 10:20:22,50.87063287156826
-0.306,0.0,9.807,48.0,2017-05-29 10:20:23,50.20045651796149
-0.306,0.0,9.653,48.0,2017-05-29 10:20:24,49.98129393097702
-0.306,0.0,9.807,48.0,2017-05-29 10:20:25,49.36100299968926
-0.306,0.0,9.653,47.0,2017-05-29 10:20:26,49.2028987395115
-0.306,0.0,9.653,48.0,2017-05-29 10:20:27,49.68792214857114
-0.459,0.0,9.807,48.0,2017-05-29 10:20:29,49.4603705498381
-0.306,0.0,9.653,49.0,2017-05-29 10:20:30,47.306227662591695
-0.306,0.0,9.807,49.0,2017-05-29 10:20:31,48.697368617230396
-0.306,0.0,9.653,50.0,2017-05-29 10:20:32,46.45939190845135
-0.306,0.0,9.653,50.0,2017-05-29 10:20:33,49.6147978215228
-0.306,0.0,9.653,50.0,2017-05-29 10:20:34,50.38851191940089
-0.306,0.0,9.653,51.0,2017-05-29 10:20:35,48.72012170191982
-0.306,0.0,9.653,51.0,2017-05-29 10:20:36,52.02806156598132
-0.459,0.0,9.807,50.0,2017-05-29 10:20:37,50.57678617742496
-0.459,0.0,9.807,51.0,2017-05-29 10:20:38,51.38402179689233
-0.306,0.0,9.653,50.0,2017-05-29 10:20:39,54.50444482445601
-0.306,0.0,9.653,51.0,2017-05-29 10:20:40,53.40175783232774
-0.306,0.0,9.653,50.0,2017-05-29 10:20:41,47.76866509414457
-0.306,0.0,9.653,50.0,2017-05-29 10:20:42,47.82014505631707
-0.306,0.0,9.653,51.0,2017-05-29 10:20:43,47.302911716735906
-0.306,0.0,9.653,50.0,2017-05-29 10:20:44,48.05819920185763
-0.306,0.0,9.807,50.0,2017-05-29 10:20:45,46.98976925849168
-0.306,0.0,9.807,50.0,2017-05-29 10:20:47,47.46019437755088
-0.306,0.0,9.653,50.0,2017-05-29 10:20:48,47.88988507441844
-0.306,0.0,9.653,51.0,2017-05-29 10:20:49,46.626963711232534
-0.306,0.0,9.807,50.0,2017-05-29 10:20:50,46.806739940398884
-0.306,0.0,9.653,50.0,2017-05-29 10:20:51,47.639057821701336
-0.306,0.0,9.807,50.0,2017-05-29 10:20:52,45.589139720356755
-0.306,0.0,9.807,50.0,2017-05-29 10:20:53,47.30880470211555
-0.459,0.0,9.653,50.0,2017-05-29 10:20:54,46.4342429836279
-0.306,0.0,9.653,51.0,2017-05-29 10:20:55,46.916744276384826
-0.306,0.0,9.807,51.0,2017-05-29 10:20:56,47.057794954447836
-0.306,0.0,9.807,51.0,2017-05-29 10:20:57,47.17719821120966
-0.306,0.0,9.653,50.0,2017-05-29 10:20:58,47.662676707026634
-0.306,0.0,9.807,51.0,2017-05-29 10:20:59,49.13083643984909
-0.306,0.0,9.807,50.0,2017-05-29 10:21:00,46.32617149438296
-0.306,0.0,9.807,51.0,2017-05-29 10:21:01,47.86537814891478
-0.306,0.0,9.807,50.0,2017-05-29 10:21:02,47.24397152956598
-0.306,0.0,9.807,50.0,2017-05-29 10:21:03,48.538559114152946
-0.459,0.0,9.807,50.0,2017-05-29 10:21:05,52.34289581456067
-0.306,0.0,9.807,50.0,2017-05-29 10:21:06,51.239200145160446
-0.306,0.0,9.653,51.0,2017-05-29 10:21:07,50.81805926405358
-0.306,0.0,9.653,50.0,2017-05-29 10:21:08,50.521509749677364
-0.306,0.0,9.653,50.0,2017-05-29 10:21:09,48.026848910168425
-0.306,0.0,9.807,50.0,2017-05-29 10:21:10,46.80312647752163
-0.306,0.0,9.653,50.0,2017-05-29 10:21:11,55.40122873730709
-0.459,0.0,9.807,48.0,2017-05-29 10:21:12,59.156540875532414
-0.306,0.0,9.653,47.0,2017-05-29 10:21:13,50.03801468062068
-0.306,0.0,9.653,47.0,2017-05-29 10:21:14,52.297859808519796
-0.306,0.0,9.653,47.0,2017-05-29 10:21:15,51.76045474765792
-0.306,0.0,9.653,46.0,2017-05-29 10:21:16,52.12906010378408
-0.306,0.0,9.807,48.0,2017-05-29 10:21:17,45.368192250073854
-0.306,0.0,9.653,48.0,2017-05-29 10:21:18,51.04202481769641
-0.306,0.0,9.807,48.0,2017-05-29 10:21:19,43.09320236181573
-0.306,0.0,9.807,48.0,2017-05-29 10:21:20,54.38816652796766
-0.306,0.0,9.653,46.0,2017-05-29 10:21:21,47.235106224091005
-0.306,0.0,9.653,46.0,2017-05-29 10:21:23,47.77875091550857
-0.306,0.0,9.807,46.0,2017-05-29 10:21:24,47.298504799740556
-0.306,0.0,9.807,46.0,2017-05-29 10:21:25,47.49246588901913
-0.306,0.0,9.653,47.0,2017-05-29 10:21:26,50.61717776660896
-0.306,0.0,9.807,48.0,2017-05-29 10:21:27,53.436819483286015
-0.306,0.0,9.807,47.0,2017-05-29 10:21:28,51.55403008178757
-0.306,0.0,9.807,47.0,2017-05-29 10:21:29,65.19126072009388
-0.306,0.0,9.653,47.0,2017-05-29 10:21:30,68.18981627306985
-0.306,0.0,9.653,47.0,2017-05-29 10:21:31,64.12281045179796
-0.306,0.0,9.653,47.0,2017-05-29 10:21:32,55.98824427857625
-0.306,0.0,9.807,47.0,2017-05-29 10:21:33,52.936288306776184
-0.306,0.0,9.653,47.0,2017-05-29 10:21:34,51.999739658374075
-0.306,0.0,9.653,46.0,2017-05-29 10:21:35,48.40252240238546
-0.306,0.0,9.653,47.0,2017-05-29 10:21:36,48.31517866805583
-0.306,0.0,9.807,47.0,2017-05-29 10:21:37,49.75471617012242
-0.306,0.0,9.653,48.0,2017-05-29 10:21:39,47.089600869447764
-0.306,0.0,9.653,48.0,2017-05-29 10:21:40,52.0567211571253
-0.306,0.0,9.807,47.0,2017-05-29 10:21:41,53.34079872070181
-0.306,0.0,9.653,47.0,2017-05-29 10:21:42,52.41588858971585
-0.306,0.0,9.807,48.0,2017-05-29 10:21:43,47.36953978653409
-0.306,0.0,9.807,49.0,2017-05-29 10:21:44,49.66890245313668
-0.306,0.0,9.653,48.0,2017-05-29 10:21:45,49.52846000306896
-0.306,0.0,9.807,48.0,2017-05-29 10:21:47,49.33027773991958
-0.306,0.0,9.807,49.0,2017-05-29 10:21:48,51.0236429792179
-0.306,0.0,9.807,46.0,2017-05-29 10:21:49,51.7665996611709
-0.306,0.0,9.653,46.0,2017-05-29 10:21:50,48.70952225247319
-0.306,0.0,9.653,46.0,2017-05-29 10:21:51,51.03623821239532
-0.306,0.0,9.653,49.0,2017-05-29 10:21:52,53.396099683659735
-0.306,0.0,9.653,50.0,2017-05-29 10:21:53,50.065204326225285
-0.306,0.0,9.807,50.0,2017-05-29 10:21:54,52.48224124709526
-0.306,0.0,9.653,50.0,2017-05-29 10:21:55,51.414562211362025
-0.306,0.0,9.653,50.0,2017-05-29 10:21:56,50.00308700780266
-0.459,0.0,9.807,50.0,2017-05-29 10:21:57,50.335624662924275
-0.306,0.0,9.807,50.0,2017-05-29 10:21:58,52.44243835989166
-0.306,0.0,9.807,48.0,2017-05-29 10:21:59,49.674993756896775
-0.306,0.0,9.807,48.0,2017-05-29 10:22:01,48.0483784509657
-0.306,0.0,9.653,49.0,2017-05-29 10:22:02,49.08346263755696
-0.306,0.0,9.807,49.0,2017-05-29 10:22:03,48.88381021172893
-0.306,0.0,9.653,50.0,2017-05-29 10:22:05,48.137569472540974
-0.306,0.0,9.653,50.0,2017-05-29 10:22:06,51.895146403168084
-0.306,0.0,9.653,50.0,2017-05-29 10:22:07,49.91442490418191
-0.306,0.0,9.807,50.0,2017-05-29 10:22:08,46.51240387246395
-0.306,0.0,9.653,50.0,2017-05-29 10:22:09,49.20451418948093
-0.306,0.0,9.653,50.0,2017-05-29 10:22:10,49.954211613548836
-0.306,0.0,9.653,50.0,2017-05-29 10:22:11,49.9599959953835
-0.306,0.0,9.653,50.0,2017-05-29 10:22:12,48.805124818433335
-0.306,0.0,9.653,50.0,2017-05-29 10:22:13,47.25222244990023
-0.306,0.0,9.653,50.0,2017-05-29 10:22:14,43.96943626476226
-0.306,0.0,9.653,50.0,2017-05-29 10:22:15,48.32398828255943
-0.306,0.0,9.653,50.0,2017-05-29 10:22:16,52.051984072498115
-0.306,0.0,9.653,50.0,2017-05-29 10:22:17,49.849381657329715
-0.306,0.0,9.653,50.0,2017-05-29 10:22:18,49.40537573476704
-0.306,0.0,9.807,50.0,2017-05-29 10:22:19,48.413701673278744
-0.306,0.0,9.653,50.0,2017-05-29 10:22:20,47.80783316414511
-0.306,0.0,9.653,50.0,2017-05-29 10:22:21,51.03830500198516
-0.306,0.0,9.807,50.0,2017-05-29 10:22:23,50.775809003825294
-0.306,0.0,9.807,50.0,2017-05-29 10:22:24,47.29545744327575
-0.306,0.0,9.807,50.0,2017-05-29 10:22:25,46.86261070270784
-0.306,0.0,9.807,50.0,2017-05-29 10:22:26,45.721585753867934
-0.306,0.0,9.807,50.0,2017-05-29 10:22:27,45.57955100209782
-0.306,0.0,9.653,50.0,2017-05-29 10:22:28,47.060529268484174
-0.306,0.0,9.653,50.0,2017-05-29 10:22:29,44.09109062465689
-0.306,0.0,9.653,50.0,2017-05-29 10:22:30,42.17588557102136
-0.306,0.0,9.653,50.0,2017-05-29 10:22:31,47.71998937923105
-0.306,0.0,9.653,50.0,2017-05-29 10:22:32,49.77735891077386
-0.306,0.0,9.653,50.0,2017-05-29 10:22:33,55.90167782279884
-0.306,0.0,9.653,50.0,2017-05-29 10:22:34,51.63107261898938
-0.306,0.0,9.653,50.0,2017-05-29 10:22:35,42.756722766140925
-0.306,0.0,9.653,50.0,2017-05-29 10:22:37,43.41817701985957
-0.306,0.0,9.807,50.0,2017-05-29 10:22:38,46.55807976213122
-0.306,0.0,9.807,50.0,2017-05-29 10:22:39,47.432040488671845
-0.306,0.0,9.653,50.0,2017-05-29 10:22:40,47.155358079055446
-0.306,0.0,9.807,50.0,2017-05-29 10:22:41,45.5253095675944
-0.306,0.0,9.807,50.0,2017-05-29 10:22:42,44.0367167593825
-0.306,0.0,9.653,50.0,2017-05-29 10:22:43,48.63436196933979
-0.306,0.0,9.807,50.0,2017-05-29 10:22:44,58.40340850869641
-0.306,0.0,9.653,50.0,2017-05-29 10:22:45,52.3082586745968
-0.306,0.0,9.653,50.0,2017-05-29 10:22:46,45.78513322240313
-0.306,0.0,9.653,50.0,2017-05-29 10:22:47,52.95097161815792
-0.306,0.0,9.653,50.0,2017-05-29 10:22:48,46.53540282392092
-0.306,0.0,9.653,50.0,2017-05-29 10:22:50,45.78927987089781
-0.306,0.0,9.653,50.0,2017-05-29 10:22:51,44.90258885500328
-0.306,0.0,9.807,50.0,2017-05-29 10:22:52,44.12799681296396
-0.306,0.0,9.653,50.0,2017-05-29 10:22:53,49.55811426070859
-0.306,0.0,9.807,50.0,2017-05-29 10:22:54,47.51125143751093
-0.459,0.0,9.807,50.0,2017-05-29 10:22:55,42.10751878882023
-0.306,0.0,9.653,50.0,2017-05-29 10:22:56,41.170794882567144
-0.306,0.0,9.807,50.0,2017-05-29 10:22:57,42.913996562911706
-0.306,0.0,9.653,50.0,2017-05-29 10:22:58,45.35675898673348
-0.306,0.0,9.807,50.0,2017-05-29 10:22:59,48.67742757005742
-0.459,0.0,9.807,50.0,2017-05-29 10:23:00,49.62781293737591
-0.306,0.0,9.653,50.0,2017-05-29 10:23:02,46.86653247521272
-0.306,0.0,9.807,50.0,2017-05-29 10:23:03,48.97664403279937
-0.306,0.0,9.653,50.0,2017-05-29 10:23:04,45.90176109436052
-0.306,0.0,9.653,50.0,2017-05-29 10:23:05,47.90240311309542
-0.306,0.0,9.653,50.0,2017-05-29 10:23:06,54.4741017368471
-0.306,0.0,9.653,50.0,2017-05-29 10:23:07,54.6068844994788
-0.306,0.0,9.807,50.0,2017-05-29 10:23:08,53.91654142795097
-0.306,0.0,9.653,50.0,2017-05-29 10:23:09,49.07297044448483
-0.306,0.0,9.653,50.0,2017-05-29 10:23:10,50.44875958576491
-0.306,0.0,9.653,50.0,2017-05-29 10:23:11,52.273973096321924
-0.306,0.0,9.653,50.0,2017-05-29 10:23:12,51.847822541528814
-0.306,0.0,9.807,50.0,2017-05-29 10:23:13,51.30184997156408
-0.306,0.0,9.653,49.0,2017-05-29 10:23:14,51.8232042499292
-0.306,0.0,9.807,50.0,2017-05-29 10:23:15,49.10366365860807
-0.306,0.0,9.653,49.0,2017-05-29 10:23:17,50.01540394686614
-0.306,0.0,9.653,50.0,2017-05-29 10:23:18,49.40211434740553
-0.306,0.0,9.653,49.0,2017-05-29 10:23:19,48.76001162684109
-0.306,0.0,9.653,50.0,2017-05-29 10:23:20,47.757768259105674
-0.306,0.0,9.807,49.0,2017-05-29 10:23:21,47.506052662360574
-0.306,0.0,9.653,50.0,2017-05-29 10:23:22,49.77742919535005
-0.306,0.0,9.653,50.0,2017-05-29 10:23:23,51.78066491814829
-0.306,0.0,9.807,49.0,2017-05-29 10:23:24,46.430775345369604
-0.306,0.0,9.807,50.0,2017-05-29 10:23:25,48.92527046236501
-0.306,0.0,9.807,50.0,2017-05-29 10:23:26,47.70810903539928
-0.306,0.0,9.807,50.0,2017-05-29 10:23:27,56.758372772313734
-0.306,0.0,9.807,49.0,2017-05-29 10:23:28,50.31810732528655
-0.306,0.0,9.807,49.0,2017-05-29 10:23:29,48.1256743281029
-0.306,0.0,9.653,49.0,2017-05-29 10:23:30,43.312600381638404
-0.306,0.0,9.807,49.0,2017-05-29 10:23:31,43.44397493539341
-0.306,0.0,9.807,49.0,2017-05-29 10:23:32,46.40315625577174
-0.306,0.0,9.653,50.0,2017-05-29 10:23:33,47.40405598630332
-0.306,0.0,9.807,49.0,2017-05-29 10:23:34,47.1310485152518
-0.306,0.0,9.807,49.0,2017-05-29 10:23:35,50.420868162515056
-0.306,0.0,9.807,49.0,2017-05-29 10:23:36,50.716734936066786
-0.306,0.0,9.807,50.0,2017-05-29 10:23:38,47.389260584228225
-0.306,0.0,9.653,49.0,2017-05-29 10:23:39,46.485611001008714
-0.306,0.0,9.653,49.0,2017-05-29 10:23:40,46.26286109260009
-0.306,0.0,9.653,49.0,2017-05-29 10:23:41,57.450512650330914
-0.306,0.0,9.653,49.0,2017-05-29 10:23:42,57.568868508939815
-0.306,0.0,9.653,49.0,2017-05-29 10:23:43,51.550719923439786
-0.306,0.0,9.807,50.0,2017-05-29 10:23:44,47.83223457389555
-0.306,0.0,9.653,50.0,2017-05-29 10:23:45,47.60739064630121
-0.459,0.0,9.807,49.0,2017-05-29 10:23:46,49.91069571305516
-0.306,0.0,9.653,49.0,2017-05-29 10:23:48,55.06522493465556
-0.306,0.0,9.653,49.0,2017-05-29 10:23:49,54.70669075743325
-0.306,0.0,9.653,49.0,2017-05-29 10:23:50,50.913102764964016
-0.306,0.0,9.807,48.0,2017-05-29 10:23:51,51.4210106948346
-0.306,0.0,9.653,49.0,2017-05-29 10:23:52,54.45024328941595
-0.306,0.0,9.653,49.0,2017-05-29 10:23:54,45.90676178283924
-0.306,0.0,9.653,50.0,2017-05-29 10:23:55,46.90511272281364
-0.306,0.0,9.807,49.0,2017-05-29 10:23:56,45.39121283151286
-0.306,0.0,9.807,49.0,2017-05-29 10:23:57,53.0374591006715
-0.306,0.0,9.807,49.0,2017-05-29 10:23:58,47.72710756003299
-0.306,0.0,9.807,49.0,2017-05-29 10:23:59,45.97521529379847
-0.306,0.0,9.807,50.0,2017-05-29 10:24:00,46.72164845003205
-0.306,0.0,9.807,48.0,2017-05-29 10:24:01,50.90951375935422
-0.306,0.0,9.807,48.0,2017-05-29 10:24:02,54.70409351576252
-0.306,0.0,9.807,50.0,2017-05-29 10:24:03,52.55595391565697
-0.306,0.0,9.653,50.0,2017-05-29 10:24:04,50.695551735275984
-0.306,0.0,9.807,49.0,2017-05-29 10:24:05,49.63842184513179
-0.306,0.0,9.807,48.0,2017-05-29 10:24:07,49.57125381464502
-0.306,0.0,9.653,46.0,2017-05-29 10:24:08,48.80433025049415
-0.306,0.0,9.653,46.0,2017-05-29 10:24:09,47.18066008185463
-0.306,0.0,9.653,47.0,2017-05-29 10:24:10,49.74407107514672
-0.306,0.0,9.807,48.0,2017-05-29 10:24:11,52.8723223364858
-0.306,0.0,9.807,47.0,2017-05-29 10:24:12,50.91814045544865
-0.306,0.0,9.653,46.0,2017-05-29 10:24:13,52.948676665157144
-0.306,0.0,9.653,47.0,2017-05-29 10:24:14,44.927163987726956
-0.306,0.0,9.807,46.0,2017-05-29 10:24:15,40.69852558901286
-0.306,0.0,9.807,47.0,2017-05-29 10:24:16,61.18675200603975
-0.306,0.0,9.653,46.0,2017-05-29 10:24:17,52.01652257122732
-0.306,0.0,9.807,47.0,2017-05-29 10:24:19,58.63510012609606
-0.306,0.0,9.653,47.0,2017-05-29 10:24:20,53.83326661245354
-0.306,0.0,9.653,46.0,2017-05-29 10:24:21,49.550746824304916
-0.306,0.0,9.807,46.0,2017-05-29 10:24:22,49.82382068603379
-0.306,0.0,9.653,46.0,2017-05-29 10:24:23,49.04554936822499
-0.306,0.0,9.653,46.0,2017-05-29 10:24:24,48.79327558548311
-0.306,0.0,9.807,46.0,2017-05-29 10:24:25,49.31163802353553
-0.306,0.0,9.653,46.0,2017-05-29 10:24:26,50.82052800609917
-0.306,0.0,9.807,46.0,2017-05-29 10:24:27,52.62277522664767
-0.306,0.0,9.653,46.0,2017-05-29 10:24:28,54.455475048797396
-0.306,0.0,9.807,46.0,2017-05-29 10:24:29,55.05527040059508
-0.306,0.0,9.653,46.0,2017-05-29 10:24:30,56.49438885828619
-0.306,0.0,9.653,46.0,2017-05-29 10:24:31,55.96129757805009
-0.306,0.0,9.807,46.0,2017-05-29 10:24:33,54.579778338179636
-0.306,0.0,9.807,46.0,2017-05-29 10:24:34,50.398791873629165
-0.306,0.0,9.653,46.0,2017-05-29 10:24:35,47.717192510766964
-0.459,0.0,9.807,46.0,2017-05-29 10:24:36,48.108452911485955
-0.306,0.0,9.807,46.0,2017-05-29 10:24:37,47.95301238458612
-0.306,0.0,9.653,47.0,2017-05-29 10:24:38,48.913667935216964
-0.306,0.0,9.653,47.0,2017-05-29 10:24:39,49.67950421745969
-0.306,0.0,9.807,46.0,2017-05-29 10:24:40,50.73818139569496
-0.306,0.0,9.807,47.0,2017-05-29 10:24:41,51.72136828840715
-0.306,0.0,9.807,47.0,2017-05-29 10:24:42,52.78074799911137
