ACC_X,ACC_Y,ACC_Z,LIGH_1,TIME,VOICE
0.191,0.191,-9.462,0.0,2017-02-26 22:36:35,-4.328081568025866
0.191,0.306,-9.385,0.0,2017-02-26 22:36:36,8.974337803578434
0.153,0.268,-9.308,0.0,2017-02-26 22:36:37,40.43823033857724
0.229,0.229,-9.347,0.0,2017-02-26 22:36:38,31.639750542319117
0.229,0.268,-9.385,0.0,2017-02-26 22:36:39,32.04063253475455
0.191,0.306,-9.423,0.0,2017-02-26 22:36:40,14.803326315457504
0.191,0.268,-9.423,0.0,2017-02-26 22:36:41,36.933331326676885
0.191,0.383,-9.5,0.0,2017-02-26 22:36:42,29.859529004677462
0.268,0.268,-9.423,0.0,2017-02-26 22:36:43,42.41837136029084
0.268,0.306,-9.385,0.0,2017-02-26 22:36:44,40.59226768097887
0.191,0.306,-9.385,0.0,2017-02-26 22:36:45,42.17760020030159
0.153,0.153,-9.27,0.0,2017-02-26 22:36:46,44.72649179065095
-2.681,-0.344,-8.887,0.0,2017-02-26 22:36:47,37.39282164746118
-0.804,-0.114,-9.194,0.0,2017-02-26 22:36:48,40.08482484499473
-0.574,0.191,-9.538,0.0,2017-02-26 22:36:49,52.82211382679223
-0.996,0.383,-9.002,0.0,2017-02-26 22:36:50,58.242734735713185
0.651,2.413,-9.117,0.0,2017-02-26 22:36:51,56.43090518674914
-9.538,-1.532,2.221,0.0,2017-02-26 22:36:52,60.9452398975813
-8.159,5.095,-0.612,0.0,2017-02-26 22:36:53,45.06218679739732
-7.24,6.091,2.719,0.0,2017-02-26 22:36:54,21.1166018620472
-7.7,5.899,1.838,0.0,2017-02-26 22:36:55,33.22939491985187
-7.585,5.784,1.685,0.0,2017-02-26 22:36:56,11.004243977410933
-8.504,4.865,2.068,0.0,2017-02-26 22:36:57,43.01509003357054
-8.887,4.711,1.11,0.0,2017-02-26 22:36:58,47.92131669790912
-9.194,3.601,1.149,0.0,2017-02-26 22:36:59,53.21968171901752
-8.81,3.447,0.804,0.0,2017-02-26 22:37:00,37.172212931034515
4.06,-0.651,-15.629,0.0,2017-02-26 22:37:01,16.3888881433807
-8.159,-1.417,-5.822,0.0,2017-02-26 22:37:02,67.7062597247949
-1.838,-1.57,-8.504,0.0,2017-02-26 22:37:03,51.83903438431011
-0.153,0.421,-9.27,0.0,2017-02-26 22:37:05,68.9196525717656
-0.804,1.723,-9.462,0.0,2017-02-26 22:37:06,44.85567775171098
-0.421,0.076,-9.194,0.0,2017-02-26 22:37:07,49.54732016419592
-0.612,0.306,-9.194,0.0,2017-02-26 22:37:08,53.65069910930895
-0.612,0.383,-9.079,0.0,2017-02-26 22:37:09,43.16316425266854
-1.379,0.268,-9.117,0.0,2017-02-26 22:37:10,63.44575399321526
-1.149,0.229,-9.27,0.0,2017-02-26 22:37:11,45.93053346920986
-1.034,-0.076,-9.538,0.0,2017-02-26 22:37:12,70.38194154220047
-1.034,0.191,-9.423,0.0,2017-02-26 22:37:13,65.9068904214832
-0.804,0.421,-9.423,0.0,2017-02-26 22:37:14,55.47105719169928
-0.727,0.383,-9.232,0.0,2017-02-26 22:37:15,49.839856458318096
-0.804,0.306,-9.308,0.0,2017-02-26 22:37:16,58.82073467682819
-0.766,0.344,-9.155,0.0,2017-02-26 22:37:17,53.21439182937823
-0.842,0.229,-9.308,0.0,2017-02-26 22:37:18,63.95465315931261
-0.996,0.383,-9.232,0.0,2017-02-26 22:37:19,48.83630165889699
-0.804,0.344,-9.385,0.0,2017-02-26 22:37:20,57.655191908809236
-0.881,0.689,-9.347,0.0,2017-02-26 22:37:21,50.86170491272477
-1.11,0.076,-9.615,0.0,2017-02-26 22:37:22,46.68931472686167
-0.689,0.498,-9.385,0.0,2017-02-26 22:37:23,51.618319971839426
-0.804,0.153,-9.385,0.0,2017-02-26 22:37:24,44.5610331335746
-0.842,0.229,-9.308,0.0,2017-02-26 22:37:25,33.82261588163971
-0.842,0.229,-9.538,0.0,2017-02-26 22:37:26,46.24231067991311
-0.881,0.268,-9.577,0.0,2017-02-26 22:37:27,35.41308846962073
-0.881,0.268,-9.385,0.0,2017-02-26 22:37:28,23.226754843382235
-0.881,0.268,-9.423,0.0,2017-02-26 22:37:29,15.307673168695825
-0.919,0.268,-9.423,0.0,2017-02-26 22:37:30,9.760238204109534
-0.881,0.229,-9.385,0.0,2017-02-26 22:37:31,9.723330377550376
-0.842,0.229,-9.385,0.0,2017-02-26 22:37:32,10.6125068272712
-0.881,0.268,-9.385,0.0,2017-02-26 22:37:33,22.2358922118878
-0.842,0.229,-9.385,0.0,2017-02-26 22:37:34,40.030182673527605
-0.919,0.229,-9.423,0.0,2017-02-26 22:37:35,29.01217727414432
-0.881,0.191,-9.423,0.0,2017-02-26 22:37:37,9.067326655225814
-0.881,0.191,-9.347,0.0,2017-02-26 22:37:38,35.14910369315324
-0.881,0.268,-9.423,0.0,2017-02-26 22:37:39,46.09370111858547
-0.881,0.229,-9.462,0.0,2017-02-26 22:37:40,25.97231195477864
-0.842,0.344,-9.5,0.0,2017-02-26 22:37:41,46.41330400589282
-0.881,0.229,-9.385,0.0,2017-02-26 22:37:42,37.012440861109674
-0.881,0.191,-9.385,0.0,2017-02-26 22:37:43,12.618202521612847
-0.842,0.229,-9.308,0.0,2017-02-26 22:37:44,50.09381077089927
-0.957,0.229,-9.117,0.0,2017-02-26 22:37:45,49.417725395243025
-0.881,0.268,-9.385,0.0,2017-02-26 22:37:46,35.213874994114065
-0.881,0.229,-9.462,0.0,2017-02-26 22:37:47,48.232361050805835
-0.881,0.229,-9.385,0.0,2017-02-26 22:37:48,52.92360893183432
-0.881,0.229,-9.462,0.0,2017-02-26 22:37:49,35.516936769936926
-0.919,0.229,-9.385,0.0,2017-02-26 22:37:50,22.91196654831131
-0.919,0.191,-9.462,0.0,2017-02-26 22:37:51,54.42633790678834
-0.842,0.306,-9.423,0.0,2017-02-26 22:37:52,43.07995747213461
-0.842,0.306,-9.347,0.0,2017-02-26 22:37:53,48.38302725893317
-0.842,0.268,-9.347,0.0,2017-02-26 22:37:54,48.11600216461311
-0.842,0.229,-9.347,0.0,2017-02-26 22:37:55,34.212241451766026
-0.842,0.306,-9.347,0.0,2017-02-26 22:37:56,12.793335823698332
-0.881,0.268,-9.308,0.0,2017-02-26 22:37:57,36.370567006922094
-0.842,0.229,-9.385,0.0,2017-02-26 22:37:58,25.63755630897945
-0.881,0.229,-9.385,0.0,2017-02-26 22:37:59,47.62126628339152
-0.804,0.268,-9.308,0.0,2017-02-26 22:38:00,43.65539990793383
-0.842,0.268,-9.423,0.0,2017-02-26 22:38:01,52.58456221929295
-0.881,0.191,-9.423,0.0,2017-02-26 22:38:02,46.62013932162455
-0.842,0.268,-9.347,0.0,2017-02-26 22:38:03,37.93446250997044
-0.881,0.268,-9.347,0.0,2017-02-26 22:38:04,52.40949002917603
-0.842,0.191,-9.347,0.0,2017-02-26 22:38:05,45.175499739789025
-0.881,0.306,-9.462,0.0,2017-02-26 22:38:06,52.40504847923567
-0.804,0.268,-9.308,0.0,2017-02-26 22:38:07,38.493991973443904
-0.881,0.383,-9.347,0.0,2017-02-26 22:38:09,50.02309077030196
-0.842,0.268,-9.347,0.0,2017-02-26 22:38:10,33.35769068567193
-0.881,0.229,-9.27,0.0,2017-02-26 22:38:11,44.0617911623563
-0.842,0.268,-9.308,0.0,2017-02-26 22:38:12,49.28602589456717
-0.881,0.229,-9.423,0.0,2017-02-26 22:38:13,40.506135423408054
-0.919,0.268,-9.385,0.0,2017-02-26 22:38:14,50.450482865664306
-0.842,0.268,-9.347,0.0,2017-02-26 22:38:15,56.45478387169774
-0.842,0.191,-9.308,0.0,2017-02-26 22:38:16,47.03924712925578
-0.881,0.229,-9.538,0.0,2017-02-26 22:38:17,44.19836721765917
-0.881,0.268,-9.385,0.0,2017-02-26 22:38:18,46.68932736162323
-0.881,0.306,-9.423,0.0,2017-02-26 22:38:19,22.476184936742463
-0.804,0.229,-9.385,0.0,2017-02-26 22:38:20,43.2029490410212
-0.842,0.229,-9.27,0.0,2017-02-26 22:38:21,29.13177212423284
-0.842,0.344,-9.27,0.0,2017-02-26 22:38:22,13.711761336352179
-0.919,0.268,-9.423,0.0,2017-02-26 22:38:23,43.61467332421381
-0.842,0.268,-9.308,0.0,2017-02-26 22:38:24,21.969599968713563
-0.842,0.344,-9.347,0.0,2017-02-26 22:38:25,40.91087610480086
-0.919,0.191,-9.347,0.0,2017-02-26 22:38:26,28.024135785789163
-0.804,0.268,-9.27,0.0,2017-02-26 22:38:27,37.03992660116469
-0.842,0.229,-9.538,0.0,2017-02-26 22:38:28,44.57842719680098
-0.919,0.306,-9.347,0.0,2017-02-26 22:38:29,19.732090596527506
-0.842,0.229,-9.653,0.0,2017-02-26 22:38:30,56.13167287649728
-0.881,0.229,-9.308,0.0,2017-02-26 22:38:31,38.31419878746256
-0.881,0.306,-9.385,0.0,2017-02-26 22:38:32,30.405760735019772
-0.842,0.306,-9.27,0.0,2017-02-26 22:38:33,33.00170098572911
-0.804,0.229,-9.27,0.0,2017-02-26 22:38:34,34.25550140465666
-0.804,0.268,-9.423,0.0,2017-02-26 22:38:35,12.56965663122751
-0.804,0.268,-9.462,0.0,2017-02-26 22:38:36,24.610592408854075
-0.842,0.229,-9.347,0.0,2017-02-26 22:38:37,46.50279845616648
-0.881,0.268,-9.385,0.0,2017-02-26 22:38:38,23.81086864195407
-0.881,0.268,-9.423,0.0,2017-02-26 22:38:39,16.918461271889804
-0.842,0.268,-9.462,0.0,2017-02-26 22:38:40,16.178027556932886
-0.804,0.268,-9.385,0.0,2017-02-26 22:38:42,24.509839210084813
-0.881,0.229,-9.423,0.0,2017-02-26 22:38:43,8.59635454007048
-0.957,0.268,-9.423,0.0,2017-02-26 22:38:44,9.42298777889961
-0.919,0.268,-9.423,0.0,2017-02-26 22:38:45,11.36602913288387
-0.842,0.229,-9.347,0.0,2017-02-26 22:38:46,24.729591778519875
-0.842,0.268,-9.385,0.0,2017-02-26 22:38:47,10.061483616192255
-0.804,0.229,-9.347,0.0,2017-02-26 22:38:48,33.61513328022892
-0.919,0.191,-9.423,0.0,2017-02-26 22:38:49,12.597263656724815
-0.842,0.191,-9.423,0.0,2017-02-26 22:38:50,30.14112638354788
-0.766,0.268,-9.385,0.0,2017-02-26 22:38:51,24.24519552405627
-0.881,0.268,-9.385,0.0,2017-02-26 22:38:52,48.876893171219955
-0.842,0.191,-9.308,0.0,2017-02-26 22:38:53,28.75016587572956
-0.842,0.191,-9.347,0.0,2017-02-26 22:38:54,24.650573804869484
-0.804,0.306,-9.308,0.0,2017-02-26 22:38:55,45.84614913694975
-0.919,0.268,-9.308,0.0,2017-02-26 22:38:56,32.396100603001685
-0.881,0.229,-9.385,0.0,2017-02-26 22:38:57,23.128634187320177
-0.881,0.229,-9.462,0.0,2017-02-26 22:38:58,14.99762235860704
-0.881,0.268,-9.385,0.0,2017-02-26 22:38:59,27.804277229227935
-0.881,0.268,-9.347,0.0,2017-02-26 22:39:00,10.39615479033686
-0.842,0.306,-9.385,0.0,2017-02-26 22:39:01,46.338668330762175
-0.804,0.268,-9.347,0.0,2017-02-26 22:39:02,46.52924604021261
-0.842,0.229,-9.347,0.0,2017-02-26 22:39:03,39.23048263847471
-0.842,0.268,-9.385,0.0,2017-02-26 22:39:04,10.087332072911867
-0.881,0.306,-9.27,0.0,2017-02-26 22:39:05,8.116718610022309
-0.881,0.268,-9.385,0.0,2017-02-26 22:39:06,7.934984513498623
-0.842,0.229,-9.385,0.0,2017-02-26 22:39:07,9.69612453694905
-0.919,0.268,-9.423,0.0,2017-02-26 22:39:08,13.108011425580104
-0.842,0.191,-9.27,0.0,2017-02-26 22:39:09,8.229746826507515
-0.804,0.306,-9.27,0.0,2017-02-26 22:39:10,13.481298562902316
-0.881,0.268,-9.347,0.0,2017-02-26 22:39:11,9.258617842713457
-0.881,0.268,-9.385,0.0,2017-02-26 22:39:12,9.944082399045243
-0.804,0.306,-9.308,0.0,2017-02-26 22:39:13,9.67743537270151
-0.881,0.191,-9.5,0.0,2017-02-26 22:39:14,18.805121423153125
-0.727,0.229,-9.423,0.0,2017-02-26 22:39:16,10.519058521799007
-0.957,0.268,-9.385,0.0,2017-02-26 22:39:17,9.962088711354781
-0.804,0.268,-9.385,0.0,2017-02-26 22:39:18,9.104493046358964
-0.766,0.306,-9.385,0.0,2017-02-26 22:39:19,11.345854616473304
-0.996,0.306,-9.347,0.0,2017-02-26 22:39:20,16.326688042157397
-0.881,0.229,-9.347,0.0,2017-02-26 22:39:21,28.908416557109483
-0.881,0.229,-9.347,0.0,2017-02-26 22:39:22,54.285811726307344
-0.881,0.191,-9.462,0.0,2017-02-26 22:39:23,30.574328147635388
-0.919,0.306,-9.423,0.0,2017-02-26 22:39:24,41.48314534085945
-0.842,0.268,-9.423,0.0,2017-02-26 22:39:25,30.10697383213534
-0.804,0.306,-9.385,0.0,2017-02-26 22:39:26,25.03664360637306
-0.881,0.268,-9.308,0.0,2017-02-26 22:39:27,48.45564710291821
-0.766,0.229,-9.308,0.0,2017-02-26 22:39:28,28.23075402808643
-0.766,0.306,-9.577,0.0,2017-02-26 22:39:29,50.890480180142475
-0.881,0.229,-9.308,0.0,2017-02-26 22:39:30,46.79169916841556
-0.766,0.268,-9.538,0.0,2017-02-26 22:39:31,41.69182433777584
-0.842,0.268,-9.423,0.0,2017-02-26 22:39:32,26.29423536953874
-0.766,0.268,-9.5,0.0,2017-02-26 22:39:33,37.636711339087995
-0.727,0.306,-9.385,0.0,2017-02-26 22:39:34,42.69923891142032
-0.766,0.268,-9.423,0.0,2017-02-26 22:39:35,30.56924940563119
-0.766,0.268,-9.385,0.0,2017-02-26 22:39:36,38.74124371563203
-0.804,0.344,-9.462,0.0,2017-02-26 22:39:37,12.762912267975144
-0.804,0.268,-9.385,0.0,2017-02-26 22:39:38,11.341808442629375
-0.766,0.383,-9.347,0.0,2017-02-26 22:39:39,11.037770041842771
-0.727,0.229,-9.385,0.0,2017-02-26 22:39:40,8.881509625585627
-0.766,0.306,-9.423,0.0,2017-02-26 22:39:41,7.790691969516698
-0.727,0.306,-9.423,0.0,2017-02-26 22:39:42,7.880053253821647
-0.727,0.344,-9.347,0.0,2017-02-26 22:39:43,36.924987123508615
-0.727,0.268,-9.347,0.0,2017-02-26 22:39:44,45.35287034903375
-0.727,0.268,-9.347,0.0,2017-02-26 22:39:45,29.548683358333005
-0.727,0.344,-9.5,0.0,2017-02-26 22:39:46,7.573011114105235
-0.804,0.306,-9.347,0.0,2017-02-26 22:39:47,43.47106329611425
-0.766,0.306,-9.347,0.0,2017-02-26 22:39:48,40.84966742587543
-0.766,0.306,-9.423,0.0,2017-02-26 22:39:49,25.80701171938871
-0.842,0.306,-9.423,0.0,2017-02-26 22:39:50,7.773021895425256
-0.727,0.268,-9.347,0.0,2017-02-26 22:39:51,8.24692647093218
-0.727,0.344,-9.385,0.0,2017-02-26 22:39:52,8.198394307855308
-0.689,0.268,-9.27,0.0,2017-02-26 22:39:53,40.294997003843704
-0.804,0.229,-9.423,0.0,2017-02-26 22:39:55,39.33793106966374
-0.842,0.268,-9.385,0.0,2017-02-26 22:39:56,38.47795864956125
-0.727,0.344,-9.423,0.0,2017-02-26 22:39:57,29.579013096464113
-0.766,0.229,-9.308,0.0,2017-02-26 22:39:58,36.89950716054661
-0.766,0.344,-9.423,0.0,2017-02-26 22:39:59,41.48701473365874
-0.804,0.268,-9.347,0.0,2017-02-26 22:40:00,24.72645051108878
-0.804,0.268,-9.385,0.0,2017-02-26 22:40:01,9.606509777056122
-0.804,0.306,-9.347,0.0,2017-02-26 22:40:02,18.05032020384328
-0.766,0.268,-9.462,0.0,2017-02-26 22:40:03,7.536518693935123
-0.766,0.383,-9.385,0.0,2017-02-26 22:40:04,37.79625727485948
-0.689,0.268,-9.385,0.0,2017-02-26 22:40:05,19.846679299815445
-0.766,0.268,-9.423,0.0,2017-02-26 22:40:06,55.320790039503336
-0.766,0.344,-9.385,0.0,2017-02-26 22:40:07,48.60042235808358
-0.766,0.306,-9.385,0.0,2017-02-26 22:40:08,31.686039309995564
-0.727,0.229,-9.423,0.0,2017-02-26 22:40:09,48.98277085387246
-0.727,0.268,-9.462,0.0,2017-02-26 22:40:10,29.214680136567296
-0.727,0.306,-9.423,0.0,2017-02-26 22:40:11,57.04749143206691
-0.804,0.344,-9.385,0.0,2017-02-26 22:40:12,38.74676165290997
-0.766,0.153,-9.002,0.0,2017-02-26 22:40:13,10.121696561279574
-1.072,0.114,-9.615,0.0,2017-02-26 22:40:14,44.055173403733214
-0.459,0.306,-9.577,0.0,2017-02-26 22:40:15,47.948844921285584
-0.153,0.0,-9.155,0.0,2017-02-26 22:40:16,38.993822243124555
-9.845,-1.034,-0.229,0.0,2017-02-26 22:40:17,31.230996997063812
-9.308,0.344,0.459,0.0,2017-02-26 22:40:18,28.030421376265032
-9.577,0.344,0.804,0.0,2017-02-26 22:40:19,14.200653919406586
-9.653,0.306,1.34,0.0,2017-02-26 22:40:20,40.455572490685654
-9.577,0.421,1.187,0.0,2017-02-26 22:40:21,40.07316031985014
-9.577,0.459,1.264,0.0,2017-02-26 22:40:22,27.42681413742396
-8.925,0.498,3.639,0.0,2017-02-26 22:40:23,45.838581772232274
-9.308,0.268,3.102,0.0,2017-02-26 22:40:24,48.23605099453104
-9.692,0.229,0.421,0.0,2017-02-26 22:40:25,25.91874022029466
-9.347,0.191,2.796,0.0,2017-02-26 22:40:26,31.105880664368165
-9.577,0.191,1.417,0.0,2017-02-26 22:40:27,27.297538791626543
-9.653,0.153,0.689,0.0,2017-02-26 22:40:29,41.83880502316388
-9.653,0.268,-0.766,0.0,2017-02-26 22:40:30,43.67931354067614
-9.653,0.306,-0.804,0.0,2017-02-26 22:40:31,13.144762021766452
-9.577,0.459,-0.229,0.0,2017-02-26 22:40:32,13.447298997172346
-9.692,0.574,0.038,0.0,2017-02-26 22:40:33,11.521748337983063
-9.615,0.574,-0.498,0.0,2017-02-26 22:40:34,12.139481443227812
-0.306,0.268,-9.462,0.0,2017-02-26 22:40:35,55.01091983451657
-0.114,0.038,-9.347,0.0,2017-02-26 22:40:36,45.623012072551404
-3.371,-1.149,-7.968,0.0,2017-02-26 22:40:37,34.366958043807166
-1.302,-0.766,-8.504,0.0,2017-02-26 22:40:38,24.754101155892435
-0.191,-0.306,-9.538,0.0,2017-02-26 22:40:39,52.10158133712603
-1.915,0.0,-9.577,0.0,2017-02-26 22:40:40,27.359542630224407
0.498,-0.574,-9.692,0.0,2017-02-26 22:40:41,32.73862221235495
0.306,-0.383,-9.462,0.0,2017-02-26 22:40:42,57.27238916160501
-0.153,-0.268,-9.5,0.0,2017-02-26 22:40:43,52.02167781249077
-0.191,-0.421,-9.538,0.0,2017-02-26 22:40:44,46.33581699433474
-0.229,-0.383,-9.423,0.0,2017-02-26 22:40:45,44.57200856816265
-0.114,-0.344,-9.347,0.0,2017-02-26 22:40:46,27.90131850423826
-0.114,-0.459,-9.423,0.0,2017-02-26 22:40:47,61.550677263292684
-0.191,-0.421,-9.5,0.0,2017-02-26 22:40:48,50.42243183140744
-0.229,-0.421,-9.538,0.0,2017-02-26 22:40:49,11.52204707881338
-0.153,-0.498,-9.462,0.0,2017-02-26 22:40:50,52.34849978129305
-0.191,-0.459,-9.5,0.0,2017-02-26 22:40:51,48.92067170237802
-0.153,-0.459,-9.462,0.0,2017-02-26 22:40:52,35.45737543660152
-0.114,-0.306,-9.385,0.0,2017-02-26 22:40:53,10.403504242241022
-0.114,-0.421,-9.385,0.0,2017-02-26 22:40:54,8.574031766302857
-0.153,-0.344,-9.538,0.0,2017-02-26 22:40:55,8.976485649724603
-0.191,-0.383,-9.423,0.0,2017-02-26 22:40:56,40.161081493051555
-0.191,-0.459,-9.385,0.0,2017-02-26 22:40:57,25.73064339292315
-0.229,-0.459,-9.385,0.0,2017-02-26 22:40:58,16.889826272080516
-0.153,-0.421,-9.423,0.0,2017-02-26 22:40:59,8.06802447617111
-0.153,-0.459,-9.423,0.0,2017-02-26 22:41:00,8.686237773277552
-0.191,-0.498,-9.5,0.0,2017-02-26 22:41:01,8.444917374141736
-0.153,-0.421,-9.423,0.0,2017-02-26 22:41:03,7.633402366202139
-0.191,-0.421,-9.5,0.0,2017-02-26 22:41:04,9.99320884174513
-0.191,-0.383,-9.538,0.0,2017-02-26 22:41:05,29.37398378770751
-0.268,-0.459,-9.347,0.0,2017-02-26 22:41:06,9.543367471486896
-0.191,-0.459,-9.423,0.0,2017-02-26 22:41:07,47.16806910729656
-0.229,-0.459,-9.615,0.0,2017-02-26 22:41:08,46.73726850398736
-0.268,-0.383,-9.5,0.0,2017-02-26 22:41:09,11.920248561897363
-0.229,-0.459,-9.462,0.0,2017-02-26 22:41:10,42.99778431040671
-0.268,-0.383,-9.385,0.0,2017-02-26 22:41:11,20.98643725817057
-0.153,-0.459,-9.462,0.0,2017-02-26 22:41:12,31.08640327469248
-0.191,-0.421,-9.462,0.0,2017-02-26 22:41:13,20.985017674822135
-0.153,-0.459,-9.423,0.0,2017-02-26 22:41:14,41.75465916975892
-0.191,-0.459,-9.423,0.0,2017-02-26 22:41:15,33.57347198163656
-0.153,-0.421,-9.385,0.0,2017-02-26 22:41:16,42.5601835504626
-0.191,-0.421,-9.423,0.0,2017-02-26 22:41:17,40.685307084883
-0.191,-0.383,-9.385,0.0,2017-02-26 22:41:18,19.863080201443072
-0.191,-0.421,-9.385,0.0,2017-02-26 22:41:19,7.817413540722703
-0.191,-0.421,-9.385,0.0,2017-02-26 22:41:20,9.209035688109404
-0.153,-0.421,-9.385,0.0,2017-02-26 22:41:21,47.56378479971853
-0.153,-0.459,-9.347,0.0,2017-02-26 22:41:22,20.083506202513426
-0.191,-0.383,-9.538,0.0,2017-02-26 22:41:23,7.578940049932595
-0.229,-0.383,-9.462,0.0,2017-02-26 22:41:24,11.096484033911096
-0.153,-0.383,-9.462,0.0,2017-02-26 22:41:25,8.170693164140133
-0.153,-0.498,-9.462,0.0,2017-02-26 22:41:26,46.213765947305205
-0.153,-0.421,-9.385,0.0,2017-02-26 22:41:27,31.744570391795857
-0.153,-0.459,-9.423,0.0,2017-02-26 22:41:28,48.006071566668126
-0.153,-0.421,-9.423,0.0,2017-02-26 22:41:29,40.37319872280902
-0.229,-0.383,-9.423,0.0,2017-02-26 22:41:30,12.18331348349892
-0.191,-0.383,-9.462,0.0,2017-02-26 22:41:31,8.757393189266303
-0.114,-0.459,-9.423,0.0,2017-02-26 22:41:32,46.06280940958173
-0.229,-0.459,-9.462,0.0,2017-02-26 22:41:33,40.319656117479745
-0.229,-0.421,-9.5,0.0,2017-02-26 22:41:34,41.851356934011704
-0.153,-0.383,-9.423,0.0,2017-02-26 22:41:35,33.0266801844263
-0.229,-0.383,-9.5,0.0,2017-02-26 22:41:36,50.448132709834496
-0.191,-0.383,-9.423,0.0,2017-02-26 22:41:37,27.023943504632054
-0.191,-0.383,-9.5,0.0,2017-02-26 22:41:38,11.039439570490954
-0.191,-0.459,-9.423,0.0,2017-02-26 22:41:40,30.757098055451916
-0.191,-0.421,-9.347,0.0,2017-02-26 22:41:41,36.20649368839405
-0.191,-0.498,-9.462,0.0,2017-02-26 22:41:42,49.24361768733312
-0.191,-0.459,-9.462,0.0,2017-02-26 22:41:43,29.128129246472305
-0.229,-0.421,-9.423,0.0,2017-02-26 22:41:44,41.87339828114698
-0.191,-0.383,-9.577,0.0,2017-02-26 22:41:45,46.01525403888675
-0.191,-0.498,-9.385,0.0,2017-02-26 22:41:46,27.180822362406353
-0.114,-0.459,-9.462,0.0,2017-02-26 22:41:47,53.19625299677589
-0.191,-0.383,-9.462,0.0,2017-02-26 22:41:48,37.96522230248517
-0.153,-0.498,-9.538,0.0,2017-02-26 22:41:49,8.359752857724011
-0.229,-0.383,-9.385,0.0,2017-02-26 22:41:50,47.00969037891056
-0.229,-0.421,-9.385,0.0,2017-02-26 22:41:51,15.470748916014951
-0.191,-0.421,-9.385,0.0,2017-02-26 22:41:52,50.0360612076263
-0.153,-0.498,-9.423,0.0,2017-02-26 22:41:53,29.51347006739368
-0.191,-0.421,-9.385,0.0,2017-02-26 22:41:54,7.755990717445717
-0.229,-0.421,-9.5,0.0,2017-02-26 22:41:55,7.4236298648116
-0.153,-0.421,-9.423,0.0,2017-02-26 22:41:56,7.757412536027423
-0.191,-0.459,-9.5,0.0,2017-02-26 22:41:57,8.389965841949145
-0.114,-0.459,-9.462,0.0,2017-02-26 22:41:58,9.00964214358558
-0.229,-0.383,-9.462,0.0,2017-02-26 22:41:59,40.4341455049422
-0.191,-0.459,-9.423,0.0,2017-02-26 22:42:00,58.20919936665972
-0.153,-0.459,-9.423,0.0,2017-02-26 22:42:01,41.190096325537766
-0.229,-0.459,-9.423,0.0,2017-02-26 22:42:02,8.045467119646514
-0.153,-0.459,-9.462,0.0,2017-02-26 22:42:03,59.64529846428707
-0.153,-0.421,-9.5,0.0,2017-02-26 22:42:04,42.57760109902986
-0.153,-0.383,-9.423,0.0,2017-02-26 22:42:05,7.466402794069122
-0.153,-0.421,-9.462,0.0,2017-02-26 22:42:06,9.008576521001647
-0.229,-0.459,-9.423,0.0,2017-02-26 22:42:07,9.461566267700878
-0.153,-0.459,-9.5,0.0,2017-02-26 22:42:08,25.64009170650746
-0.153,-0.459,-9.347,0.0,2017-02-26 22:42:09,38.50062309841883
-0.153,-0.421,-9.462,0.0,2017-02-26 22:42:11,37.04166693283797
-0.191,-0.459,-9.462,0.0,2017-02-26 22:42:12,20.994506542213415
-0.268,-0.459,-9.423,0.0,2017-02-26 22:42:13,39.534580827474514
-0.191,-0.421,-9.538,0.0,2017-02-26 22:42:14,34.627731051346984
-0.153,-0.459,-9.462,0.0,2017-02-26 22:42:15,25.777262343881908
-0.153,-0.498,-9.462,0.0,2017-02-26 22:42:16,14.971646040362348
-0.153,-0.536,-9.423,0.0,2017-02-26 22:42:17,8.432765869798297
-0.306,-0.421,-9.5,0.0,2017-02-26 22:42:18,8.108203671370118
-0.191,-0.498,-9.423,0.0,2017-02-26 22:42:19,8.067362694102169
-0.153,-0.498,-9.423,0.0,2017-02-26 22:42:20,8.10558032799888
-0.191,-0.459,-9.462,0.0,2017-02-26 22:42:21,7.252989430583679
-0.229,-0.498,-9.423,0.0,2017-02-26 22:42:22,10.80803987450474
-0.153,-0.459,-9.462,0.0,2017-02-26 22:42:23,7.598153381472898
-0.153,-0.421,-9.462,0.0,2017-02-26 22:42:24,8.034811215342705
-0.306,-0.421,-9.232,0.0,2017-02-26 22:42:25,7.519283276466625
-0.153,-0.459,-9.385,0.0,2017-02-26 22:42:26,9.415230786761
-0.306,-0.421,-9.423,0.0,2017-02-26 22:42:27,33.068491455381206
-0.153,-0.459,-9.423,0.0,2017-02-26 22:42:28,21.1814777973966
-0.191,-0.383,-9.462,0.0,2017-02-26 22:42:29,8.796736817641841
-0.268,-0.421,-9.462,0.0,2017-02-26 22:42:30,20.334551703288675
-0.191,-0.421,-9.538,0.0,2017-02-26 22:42:31,8.809586602643272
-0.191,-0.459,-9.462,0.0,2017-02-26 22:42:32,8.054769636585506
-0.191,-0.421,-9.462,0.0,2017-02-26 22:42:33,15.914450569955553
-0.191,-0.536,-9.5,0.0,2017-02-26 22:42:34,8.74042191007247
-0.153,-0.421,-9.423,0.0,2017-02-26 22:42:35,10.460330783113497
-0.153,-0.421,-9.462,0.0,2017-02-26 22:42:36,47.121593904910625
-0.191,-0.421,-9.423,0.0,2017-02-26 22:42:37,18.752365291794867
-0.153,-0.459,-9.385,0.0,2017-02-26 22:42:39,21.051308097817724
-0.191,-0.498,-9.462,0.0,2017-02-26 22:42:40,47.43188267107824
-0.114,-0.459,-9.385,0.0,2017-02-26 22:42:41,21.142205702339197
-0.229,-0.459,-9.423,0.0,2017-02-26 22:42:42,38.08559953113571
-0.153,-0.421,-9.423,0.0,2017-02-26 22:42:43,34.12673947422266
-0.153,-0.383,-9.5,0.0,2017-02-26 22:42:44,13.309960464702538
-0.268,-0.498,-9.538,0.0,2017-02-26 22:42:45,30.99132113502811
-0.191,-0.459,-9.462,0.0,2017-02-26 22:42:46,20.835488081934077
-0.229,-0.459,-9.423,0.0,2017-02-26 22:42:47,27.248452516309413
-0.229,-0.459,-9.462,0.0,2017-02-26 22:42:48,39.162041882635144
-0.229,-0.421,-9.462,0.0,2017-02-26 22:42:49,18.34257981671311
-0.114,-0.498,-9.462,0.0,2017-02-26 22:42:50,8.72679697397487
-0.191,-0.498,-9.5,0.0,2017-02-26 22:42:51,19.809482763691797
-0.153,-0.459,-9.462,0.0,2017-02-26 22:42:52,8.006043240288886
-0.191,-0.421,-9.385,0.0,2017-02-26 22:42:53,8.99683738300032
-0.229,-0.421,-9.385,0.0,2017-02-26 22:42:54,30.232532636437824
-0.191,-0.421,-9.538,0.0,2017-02-26 22:42:55,11.981413997987554
-0.153,-0.536,-9.423,0.0,2017-02-26 22:42:56,8.168107308261993
-0.191,-0.536,-9.385,0.0,2017-02-26 22:42:57,16.55027700223606
-0.229,-0.498,-9.423,0.0,2017-02-26 22:42:58,12.220861894920972
-0.229,-0.459,-9.347,0.0,2017-02-26 22:42:59,26.983843299305544
-0.229,-0.459,-9.5,0.0,2017-02-26 22:43:00,7.785751591356048
-0.153,-0.421,-9.423,0.0,2017-02-26 22:43:01,7.685745153629275
-0.229,-0.421,-9.462,0.0,2017-02-26 22:43:02,8.848462327361803
-0.268,-0.459,-9.462,0.0,2017-02-26 22:43:03,11.70742877390941
-0.191,-0.498,-9.423,0.0,2017-02-26 22:43:04,30.036351081456406
-0.229,-0.498,-9.462,0.0,2017-02-26 22:43:05,33.148307052366675
-0.153,-0.536,-9.27,0.0,2017-02-26 22:43:06,11.289807760787124
-0.229,-0.459,-9.423,0.0,2017-02-26 22:43:07,7.369564408023324
-0.191,-0.498,-9.577,0.0,2017-02-26 22:43:09,8.438238254613552
-0.153,-0.459,-9.462,0.0,2017-02-26 22:43:10,8.252003712275068
-0.191,-0.498,-9.385,0.0,2017-02-26 22:43:11,7.615813635502868
-0.191,-0.459,-9.462,0.0,2017-02-26 22:43:12,7.7716051787860305
-0.153,-0.421,-9.5,0.0,2017-02-26 22:43:13,7.742460174147107
-0.191,-0.421,-9.385,0.0,2017-02-26 22:43:14,8.13304671715346
-0.191,-0.459,-9.5,0.0,2017-02-26 22:43:15,30.306803478494288
-0.268,-0.383,-9.538,0.0,2017-02-26 22:43:16,10.276839928073151
-0.229,-0.459,-9.385,0.0,2017-02-26 22:43:17,8.36099016394863
-0.229,-0.459,-9.5,0.0,2017-02-26 22:43:18,7.794217373411099
-0.229,-0.498,-9.462,0.0,2017-02-26 22:43:19,13.948585044867334
-0.153,-0.421,-9.385,0.0,2017-02-26 22:43:20,7.595940791723571
-0.268,-0.383,-9.462,0.0,2017-02-26 22:43:21,9.102929054449966
-0.153,-0.421,-9.462,0.0,2017-02-26 22:43:22,8.10558032799888
-0.153,-0.459,-9.385,0.0,2017-02-26 22:43:23,36.90716391887409
-0.153,-0.383,-9.385,0.0,2017-02-26 22:43:24,37.29607274531475
-0.229,-0.498,-9.423,0.0,2017-02-26 22:43:25,18.037877466627744
-0.153,-0.536,-9.385,0.0,2017-02-26 22:43:26,54.214946213902245
-0.114,-0.421,-9.385,0.0,2017-02-26 22:43:27,49.84768543998845
-0.153,-0.421,-9.5,0.0,2017-02-26 22:43:28,33.71404137016854
-0.229,-0.459,-9.423,0.0,2017-02-26 22:43:29,29.421054675324363
-0.229,-0.421,-9.423,0.0,2017-02-26 22:43:30,35.59101227216977
-0.191,-0.459,-9.462,0.0,2017-02-26 22:43:31,32.92397780778478
-0.268,-0.459,-9.462,0.0,2017-02-26 22:43:32,14.009661098723274
-0.268,-0.459,-9.423,0.0,2017-02-26 22:43:33,27.62185313315048
-0.268,-0.459,-9.232,0.0,2017-02-26 22:43:34,9.263645563602635
-0.114,-0.459,-9.423,0.0,2017-02-26 22:43:35,8.72053789748902
-0.229,-0.421,-9.5,0.0,2017-02-26 22:43:36,47.13180934940016
-0.191,-0.459,-9.462,0.0,2017-02-26 22:43:37,47.589090698766185
-0.191,-0.459,-9.385,0.0,2017-02-26 22:43:38,40.17520269140598
-0.191,-0.421,-9.423,0.0,2017-02-26 22:43:39,20.113110237147815
-0.191,-0.421,-9.462,0.0,2017-02-26 22:43:40,8.324340623084577
-0.191,-0.459,-9.462,0.0,2017-02-26 22:43:41,7.668367558643606
-0.153,-0.459,-9.385,0.0,2017-02-26 22:43:43,7.9621917744089306
-0.153,-0.459,-9.5,0.0,2017-02-26 22:43:44,8.375810408055633
-0.191,-0.536,-9.538,0.0,2017-02-26 22:43:45,7.1085088710987225
-0.191,-0.498,-9.423,0.0,2017-02-26 22:43:46,7.660379529803634
-0.114,-0.498,-9.423,0.0,2017-02-26 22:43:47,7.425164745484595
-0.191,-0.498,-9.5,0.0,2017-02-26 22:43:48,8.017439412904148
-0.153,-0.421,-9.423,0.0,2017-02-26 22:43:49,43.52358763681076
-0.153,-0.459,-9.5,0.0,2017-02-26 22:43:50,13.720773468283019
-0.229,-0.383,-9.462,0.0,2017-02-26 22:43:51,8.699418192556683
-0.153,-0.498,-9.423,0.0,2017-02-26 22:43:52,7.647276434590328
-0.191,-0.421,-9.462,0.0,2017-02-26 22:43:53,8.367789054259035
0.0,-0.459,-9.232,0.0,2017-02-26 22:43:54,12.708016190443415
-0.153,-0.421,-9.462,0.0,2017-02-26 22:43:55,29.259885377050118
-0.191,-0.459,-9.5,0.0,2017-02-26 22:43:56,33.30523355777557
-0.153,-0.498,-9.538,0.0,2017-02-26 22:43:57,15.59424992586347
-0.229,-0.383,-9.5,0.0,2017-02-26 22:43:58,7.480819851348634
-0.076,-0.498,-9.577,0.0,2017-02-26 22:43:59,64.34658172150603
-0.191,-0.344,-9.385,0.0,2017-02-26 22:44:00,46.53824787798299
-0.191,-0.459,-9.308,0.0,2017-02-26 22:44:01,8.24692647093218
-0.229,-0.459,-9.27,0.0,2017-02-26 22:44:02,9.330461417167786
-0.229,-0.498,-9.423,0.0,2017-02-26 22:44:03,8.91212852490128
-0.229,-0.536,-9.462,0.0,2017-02-26 22:44:04,8.23484418016667
-0.153,-0.459,-9.423,0.0,2017-02-26 22:44:05,32.12966186168886
-0.229,-0.536,-9.385,0.0,2017-02-26 22:44:06,21.686511047803464
-0.153,-0.498,-9.423,0.0,2017-02-26 22:44:07,34.70629241675584
-0.229,-0.536,-9.347,0.0,2017-02-26 22:44:08,21.66939216740545
-0.191,-0.498,-9.347,0.0,2017-02-26 22:44:09,49.62205786768149
-0.229,-0.498,-9.423,0.0,2017-02-26 22:44:10,32.9216907564715
-0.191,-0.383,-9.423,0.0,2017-02-26 22:44:11,7.398997711893703
-0.191,-0.459,-9.5,0.0,2017-02-26 22:44:12,8.030808500940438
-0.229,-0.459,-9.385,0.0,2017-02-26 22:44:13,7.451937717753072
-0.114,-0.459,-9.462,0.0,2017-02-26 22:44:14,42.53026741511961
-0.153,-0.459,-9.538,0.0,2017-02-26 22:44:16,22.606396107782608
-0.191,-0.498,-9.462,0.0,2017-02-26 22:44:17,22.401346845622
-0.191,-0.498,-9.462,0.0,2017-02-26 22:44:18,8.991490903414546
-0.268,-0.536,-9.308,0.0,2017-02-26 22:44:19,8.67244151076132
-0.114,-0.536,-9.5,0.0,2017-02-26 22:44:20,9.416686278530989
-0.153,-0.498,-9.5,0.0,2017-02-26 22:44:21,9.392364167363306
-0.268,-0.498,-9.232,0.0,2017-02-26 22:44:22,26.186822740678824
-0.229,-0.536,-9.5,0.0,2017-02-26 22:44:23,21.12796727574733
-0.191,-0.498,-9.462,0.0,2017-02-26 22:44:24,24.96781047087541
-0.268,-0.459,-9.462,0.0,2017-02-26 22:44:25,48.96233425156243
-0.153,-0.459,-9.538,0.0,2017-02-26 22:44:26,31.435819515021844
-0.153,-0.498,-9.538,0.0,2017-02-26 22:44:27,10.31171683973935
-0.153,-0.536,-9.423,0.0,2017-02-26 22:44:28,7.863437471453045
-0.114,-0.536,-9.5,0.0,2017-02-26 22:44:29,7.707369819813199
-0.191,-0.498,-9.462,0.0,2017-02-26 22:44:30,7.975055756308126
-0.153,-0.498,-9.462,0.0,2017-02-26 22:44:31,8.613313478977418
-0.268,-0.498,-9.423,0.0,2017-02-26 22:44:32,8.193253967182375
-0.191,-0.574,-9.538,0.0,2017-02-26 22:44:33,8.932241078314503
-0.191,-0.498,-9.462,0.0,2017-02-26 22:44:34,38.52664194718988
-0.153,-0.536,-9.538,0.0,2017-02-26 22:44:35,27.027552338104183
-0.191,-0.536,-9.462,0.0,2017-02-26 22:44:36,41.65996472564001
-0.191,-0.498,-9.347,0.0,2017-02-26 22:44:37,43.11237705625297
-0.191,-0.536,-9.462,0.0,2017-02-26 22:44:38,40.40696268880752
-0.191,-0.459,-9.462,0.0,2017-02-26 22:44:39,23.926797822439035
-0.229,-0.536,-9.347,0.0,2017-02-26 22:44:40,47.27294032056275
-0.153,-0.459,-9.5,0.0,2017-02-26 22:44:41,39.18789393367918
-0.153,-0.536,-9.5,0.0,2017-02-26 22:44:42,44.35578372703492
-0.153,-0.498,-9.462,0.0,2017-02-26 22:44:43,25.075172374214944
-0.153,-0.536,-9.385,0.0,2017-02-26 22:44:44,48.16100075640488
-0.191,-0.536,-9.385,0.0,2017-02-26 22:44:45,42.29946677667252
-0.191,-0.498,-9.423,0.0,2017-02-26 22:44:46,18.43118367401392
-0.153,-0.536,-9.462,0.0,2017-02-26 22:44:47,30.26030258582974
-0.114,-0.498,-9.5,0.0,2017-02-26 22:44:48,29.12240225123821
-0.191,-0.536,-9.462,0.0,2017-02-26 22:44:49,12.22492927505347
-0.229,-0.498,-9.462,0.0,2017-02-26 22:44:50,49.88809213177832
-0.191,-0.536,-9.423,0.0,2017-02-26 22:44:51,35.82835078157875
-0.153,-0.536,-9.462,0.0,2017-02-26 22:44:53,20.52781836550882
-0.153,-0.498,-9.462,0.0,2017-02-26 22:44:54,34.477069141813686
-0.153,-0.498,-9.385,0.0,2017-02-26 22:44:55,46.93925362269675
-0.191,-0.574,-9.462,0.0,2017-02-26 22:44:56,41.86194161520923
-0.229,-0.612,-9.423,0.0,2017-02-26 22:44:57,45.80273854253129
-0.268,-0.498,-9.423,0.0,2017-02-26 22:44:58,28.116541930957524
-0.229,-0.498,-9.385,0.0,2017-02-26 22:44:59,37.735793357492625
-0.191,-0.498,-9.385,0.0,2017-02-26 22:45:00,15.696321889967654
-0.191,-0.536,-9.423,0.0,2017-02-26 22:45:01,41.797382834884544
-0.191,-0.498,-9.423,0.0,2017-02-26 22:45:02,31.683466862268684
-0.191,-0.498,-9.385,0.0,2017-02-26 22:45:03,9.510736709549892
-0.191,-0.536,-9.423,0.0,2017-02-26 22:45:04,37.50539656251512
-0.268,-0.536,-9.462,0.0,2017-02-26 22:45:05,49.47247990344217
-0.153,-0.536,-9.194,0.0,2017-02-26 22:45:06,29.288227588893673
-0.229,-0.498,-9.385,0.0,2017-02-26 22:45:07,21.621044612989806
-0.268,-0.574,-9.385,0.0,2017-02-26 22:45:08,10.501712361578669
-0.191,-0.536,-9.423,0.0,2017-02-26 22:45:09,31.754192228295377
-0.229,-0.498,-9.385,0.0,2017-02-26 22:45:10,19.792477442433444
-0.268,-0.574,-9.385,0.0,2017-02-26 22:45:11,8.56341763926228
-0.153,-0.536,-9.5,0.0,2017-02-26 22:45:12,44.179321538228564
-0.268,-0.498,-9.615,0.0,2017-02-26 22:45:13,55.61805290052175
-0.114,-0.459,-9.577,0.0,2017-02-26 22:45:14,38.31648228195463
-0.153,-0.536,-9.462,0.0,2017-02-26 22:45:15,8.64934989810353
-0.191,-0.459,-9.423,0.0,2017-02-26 22:45:16,45.10622823231141
-0.229,-0.498,-9.538,0.0,2017-02-26 22:45:17,48.95073238587695
-0.229,-0.536,-9.423,0.0,2017-02-26 22:45:18,32.02364044555007
-0.306,-0.459,-9.347,0.0,2017-02-26 22:45:19,31.383273732881257
-0.344,-0.651,-9.423,0.0,2017-02-26 22:45:20,36.43943987133333
-0.306,-0.612,-9.423,0.0,2017-02-26 22:45:21,67.0659973706102
-0.268,-0.498,-9.462,0.0,2017-02-26 22:45:22,51.678777808799225
-0.153,-0.536,-9.423,0.0,2017-02-26 22:45:23,41.935895445022254
-0.306,-0.536,-9.423,0.0,2017-02-26 22:45:25,24.291543226242172
-0.268,-0.498,-9.462,0.0,2017-02-26 22:45:26,10.00551000734111
-0.306,-0.498,-9.385,0.0,2017-02-26 22:45:27,8.107547984070763
-0.191,-0.536,-9.462,0.0,2017-02-26 22:45:28,10.728083225549227
-0.229,-0.498,-9.385,0.0,2017-02-26 22:45:29,42.687616098863
-0.191,-0.536,-9.462,0.0,2017-02-26 22:45:30,37.026107482252655
-0.268,-0.498,-9.423,0.0,2017-02-26 22:45:31,35.145032636272646
-0.191,-0.498,-9.538,0.0,2017-02-26 22:45:32,47.38117720397402
-0.191,-0.498,-9.462,0.0,2017-02-26 22:45:33,16.133317580918636
-0.229,-0.536,-9.423,0.0,2017-02-26 22:45:34,26.03097833740143
-0.229,-0.574,-9.5,0.0,2017-02-26 22:45:35,36.15065697282634
-0.268,-0.574,-9.423,0.0,2017-02-26 22:45:36,27.571846609743442
-0.153,-0.536,-9.423,0.0,2017-02-26 22:45:37,36.882289279879096
-0.229,-0.536,-9.462,0.0,2017-02-26 22:45:38,35.004926916552904
-0.191,-0.536,-9.423,0.0,2017-02-26 22:45:39,22.53085166354405
-0.268,-0.536,-9.462,0.0,2017-02-26 22:45:40,8.311846526955813
-0.191,-0.498,-9.423,0.0,2017-02-26 22:45:41,42.35733207062924
-0.191,-0.574,-9.462,0.0,2017-02-26 22:45:42,36.745646068567794
-0.191,-0.536,-9.5,0.0,2017-02-26 22:45:43,24.28177520001781
-0.153,-0.536,-9.5,0.0,2017-02-26 22:45:44,49.69117449882768
-0.229,-0.574,-9.462,0.0,2017-02-26 22:45:45,29.535940710441967
-0.306,-0.498,-9.423,0.0,2017-02-26 22:45:46,8.18617604976874
-0.229,-0.574,-9.462,0.0,2017-02-26 22:45:47,8.560464661097898
-0.191,-0.536,-9.423,0.0,2017-02-26 22:45:48,47.39651551843035
-0.191,-0.536,-9.423,0.0,2017-02-26 22:45:49,41.629220740133654
-0.229,-0.498,-9.385,0.0,2017-02-26 22:45:50,12.83173091516296
-0.153,-0.498,-9.462,0.0,2017-02-26 22:45:51,9.199866906057077
-0.229,-0.536,-9.5,0.0,2017-02-26 22:45:52,8.202887120453324
-0.191,-0.498,-9.423,0.0,2017-02-26 22:45:53,8.526658023379506
-0.153,-0.498,-9.423,0.0,2017-02-26 22:45:54,8.642398404311983
-0.191,-0.536,-9.538,0.0,2017-02-26 22:45:55,47.70162873786503
-0.268,-0.574,-9.385,0.0,2017-02-26 22:45:56,40.204964282643665
-0.229,-0.536,-9.5,0.0,2017-02-26 22:45:57,9.811919322703474
-0.229,-0.536,-9.385,0.0,2017-02-26 22:45:58,8.584032456387247
-0.268,-0.536,-9.347,0.0,2017-02-26 22:46:00,40.9456508586685
-0.229,-0.498,-9.5,0.0,2017-02-26 22:46:01,36.77609091113741
-0.229,-0.536,-9.538,0.0,2017-02-26 22:46:02,44.129270701463774
-0.191,-0.574,-9.5,0.0,2017-02-26 22:46:03,51.97582197536381
-0.306,-0.536,-9.385,0.0,2017-02-26 22:46:04,21.361071786472415
-0.229,-0.536,-9.385,0.0,2017-02-26 22:46:05,15.06367602459231
-0.229,-0.574,-9.462,0.0,2017-02-26 22:46:06,44.995208001173
-0.229,-0.536,-9.385,0.0,2017-02-26 22:46:07,24.165462491758053
-0.268,-0.574,-9.462,0.0,2017-02-26 22:46:08,8.761343629891265
-0.114,-0.574,-9.538,0.0,2017-02-26 22:46:09,7.611405300001
-0.268,-0.498,-9.308,0.0,2017-02-26 22:46:10,8.617397113334743
-0.268,-0.498,-9.462,0.0,2017-02-26 22:46:11,7.419021965367091
-0.229,-0.536,-9.462,0.0,2017-02-26 22:46:12,8.408972195343487
-0.229,-0.536,-9.423,0.0,2017-02-26 22:46:13,10.45956779210327
-0.229,-0.498,-9.423,0.0,2017-02-26 22:46:14,10.973508695066744
-0.306,-0.498,-9.462,0.0,2017-02-26 22:46:15,8.084536338579047
-0.191,-0.536,-9.423,0.0,2017-02-26 22:46:16,40.88669212347944
-0.229,-0.536,-9.462,0.0,2017-02-26 22:46:17,27.49927955467593
-0.306,-0.459,-9.5,0.0,2017-02-26 22:46:18,7.930205669389422
-0.229,-0.498,-9.385,0.0,2017-02-26 22:46:19,8.508758788732166
-0.229,-0.574,-9.347,0.0,2017-02-26 22:46:20,7.377329374903317
-0.229,-0.536,-9.423,0.0,2017-02-26 22:46:21,7.508758565159194
-0.229,-0.574,-9.462,0.0,2017-02-26 22:46:22,7.56484558858047
-0.229,-0.536,-9.385,0.0,2017-02-26 22:46:23,47.14971501350301
-0.229,-0.574,-9.462,0.0,2017-02-26 22:46:24,51.76262002744388
-0.229,-0.612,-9.462,0.0,2017-02-26 22:46:25,33.10161234622107
-0.191,-0.574,-9.462,0.0,2017-02-26 22:46:26,7.784339021878956
-0.268,-0.498,-9.462,0.0,2017-02-26 22:46:27,46.524571103051535
-0.229,-0.536,-9.423,0.0,2017-02-26 22:46:28,41.037501521727364
-0.191,-0.459,-9.423,0.0,2017-02-26 22:46:29,22.437959482178663
-0.344,-0.498,-9.423,0.0,2017-02-26 22:46:30,8.602209933729522
-0.191,-0.574,-9.5,0.0,2017-02-26 22:46:31,8.822954661890861
-0.229,-0.498,-9.423,0.0,2017-02-26 22:46:32,7.712400119661298
-0.229,-0.498,-9.462,0.0,2017-02-26 22:46:33,7.877288367642611
-0.306,-0.498,-9.423,0.0,2017-02-26 22:46:34,7.256181598914852
-0.229,-0.498,-9.423,0.0,2017-02-26 22:46:35,9.801277018454517
-0.306,-0.536,-9.462,0.0,2017-02-26 22:46:37,12.79199809234045
-0.268,-0.498,-9.538,0.0,2017-02-26 22:46:38,10.726648371379397
-0.191,-0.498,-9.385,0.0,2017-02-26 22:46:39,42.18702170705218
-0.191,-0.536,-9.385,0.0,2017-02-26 22:46:40,26.013086569963463
-0.191,-0.498,-9.423,0.0,2017-02-26 22:46:41,15.216768362280495
-0.229,-0.498,-9.347,0.0,2017-02-26 22:46:42,55.06402776773169
-0.191,-0.459,-9.347,0.0,2017-02-26 22:46:43,40.95145198307537
-0.229,-0.574,-9.423,0.0,2017-02-26 22:46:44,13.043466075294518
-0.268,-0.574,-9.385,0.0,2017-02-26 22:46:45,7.436659092253484
-0.268,-0.536,-9.462,0.0,2017-02-26 22:46:46,38.401950760924805
-0.191,-0.498,-9.5,0.0,2017-02-26 22:46:47,17.4581103007197
-0.268,-0.459,-9.462,0.0,2017-02-26 22:46:48,7.575235413677048
-0.268,-0.574,-9.308,0.0,2017-02-26 22:46:49,8.574620680103886
-0.191,-0.574,-9.538,0.0,2017-02-26 22:46:50,8.400398979436673
-0.229,-0.536,-9.385,0.0,2017-02-26 22:46:51,10.20542546185105
-0.268,-0.574,-9.423,0.0,2017-02-26 22:46:52,8.016100237802869
-0.229,-0.574,-9.538,0.0,2017-02-26 22:46:53,7.886267819373895
-0.229,-0.536,-9.462,0.0,2017-02-26 22:46:54,7.469441943821581
-0.229,-0.498,-9.423,0.0,2017-02-26 22:46:55,41.59718104033675
-0.229,-0.574,-9.308,0.0,2017-02-26 22:46:56,38.607053401247754
-0.191,-0.536,-9.385,0.0,2017-02-26 22:46:57,40.495545341050274
-0.229,-0.498,-9.423,0.0,2017-02-26 22:46:58,51.5758155001551
-0.191,-0.498,-9.385,0.0,2017-02-26 22:46:59,35.82820337791178
-0.229,-0.612,-9.423,0.0,2017-02-26 22:47:00,52.70370056582707
-0.268,-0.498,-9.385,0.0,2017-02-26 22:47:01,55.750545303162454
-0.191,-0.536,-9.385,0.0,2017-02-26 22:47:02,38.08149033103566
-0.229,-0.536,-9.423,0.0,2017-02-26 22:47:03,37.91251031759571
-0.229,-0.498,-9.308,0.0,2017-02-26 22:47:04,24.9197964205328
-0.229,-0.536,-9.462,0.0,2017-02-26 22:47:05,54.99601792091607
-0.229,-0.574,-9.385,0.0,2017-02-26 22:47:07,29.545468236247707
-0.268,-0.574,-9.615,0.0,2017-02-26 22:47:08,52.78729441310976
-0.306,-0.498,-9.615,0.0,2017-02-26 22:47:09,55.23264311128073
-0.268,-0.536,-9.462,0.0,2017-02-26 22:47:10,54.24884959389519
-0.191,-0.498,-9.462,0.0,2017-02-26 22:47:11,47.58158100738471
-0.268,-0.536,-9.462,0.0,2017-02-26 22:47:12,30.024938364455526
-0.229,-0.574,-9.462,0.0,2017-02-26 22:47:13,43.354243031573255
-0.306,-0.574,-9.462,0.0,2017-02-26 22:47:14,51.80432659596061
-0.153,-0.574,-9.462,0.0,2017-02-26 22:47:15,42.031920872369966
-0.229,-0.536,-9.385,0.0,2017-02-26 22:47:16,54.14368723898349
-0.191,-0.498,-9.462,0.0,2017-02-26 22:47:17,49.94885375132715
-0.191,-0.574,-9.347,0.0,2017-02-26 22:47:18,53.11693123439814
-0.191,-0.459,-9.462,0.0,2017-02-26 22:47:19,59.86548910558453
-0.191,-0.459,-9.385,0.0,2017-02-26 22:47:20,52.97712548122131
-0.191,-0.536,-9.385,0.0,2017-02-26 22:47:21,45.2597156744498
-0.191,-0.574,-9.423,0.0,2017-02-26 22:47:22,39.839937426145006
-0.229,-0.536,-9.232,0.0,2017-02-26 22:47:23,53.20625319243287
-0.191,-0.536,-9.423,0.0,2017-02-26 22:47:24,29.065459960185432
-0.191,-0.574,-9.462,0.0,2017-02-26 22:47:25,46.983922035754134
-0.191,-0.536,-9.653,0.0,2017-02-26 22:47:26,50.89323739136982
-0.229,-0.536,-9.423,0.0,2017-02-26 22:47:27,40.8503474404521
-0.191,-0.536,-9.385,0.0,2017-02-26 22:47:28,41.73278055567696
-0.306,-0.574,-9.5,0.0,2017-02-26 22:47:29,45.08390297323926
-0.153,-0.536,-9.5,0.0,2017-02-26 22:47:30,34.72181728007211
-0.229,-0.498,-9.5,0.0,2017-02-26 22:47:31,56.714188930424676
-0.191,-0.498,-9.385,0.0,2017-02-26 22:47:32,41.97647539128168
-0.229,-0.459,-9.462,0.0,2017-02-26 22:47:33,19.00633786212711
-0.191,-0.459,-9.423,0.0,2017-02-26 22:47:34,9.79505694297014
-0.268,-0.536,-9.385,0.0,2017-02-26 22:47:35,8.491385788152444
-0.191,-0.536,-9.462,0.0,2017-02-26 22:47:36,32.883544773740596
-0.229,-0.574,-9.423,0.0,2017-02-26 22:47:37,34.05259627108705
-0.268,-0.574,-9.423,0.0,2017-02-26 22:47:38,14.274189046964272
-0.229,-0.498,-9.462,0.0,2017-02-26 22:47:39,7.2681313766614934
-0.153,-0.536,-9.462,0.0,2017-02-26 22:47:40,7.085337616640502
-0.268,-0.612,-9.385,0.0,2017-02-26 22:47:41,8.096386127155835
-0.191,-0.536,-9.423,0.0,2017-02-26 22:47:42,18.835671769911418
-0.229,-0.498,-9.423,0.0,2017-02-26 22:47:44,41.74782078348479
-0.268,-0.536,-9.385,0.0,2017-02-26 22:47:45,38.83717148741091
-0.229,-0.574,-9.462,0.0,2017-02-26 22:47:46,14.366253546029366
-0.229,-0.536,-9.385,0.0,2017-02-26 22:47:47,7.678512937438317
-0.229,-0.498,-9.462,0.0,2017-02-26 22:47:48,11.74448240988129
-0.229,-0.536,-9.347,0.0,2017-02-26 22:47:49,33.93293910628201
-0.306,-0.536,-9.347,0.0,2017-02-26 22:47:50,36.63199332918365
-0.306,-0.536,-9.385,0.0,2017-02-26 22:47:51,62.13748939419227
-0.114,-0.536,-9.73,0.0,2017-02-26 22:47:52,41.94261967147999
-0.268,-0.459,-9.423,0.0,2017-02-26 22:47:53,16.786623944551927
-0.268,-0.536,-9.385,0.0,2017-02-26 22:47:54,12.341750880491997
-0.229,-0.574,-9.538,0.0,2017-02-26 22:47:55,7.304573666679586
-0.229,-0.574,-9.423,0.0,2017-02-26 22:47:56,10.021576215609617
-0.344,-0.498,-9.423,0.0,2017-02-26 22:47:57,24.487153756620174
-0.306,-0.459,-9.423,0.0,2017-02-26 22:47:58,8.946318707558406
-0.229,-0.498,-9.462,0.0,2017-02-26 22:47:59,48.64468122733891
-0.229,-0.498,-9.5,0.0,2017-02-26 22:48:00,26.911402251532387
-0.268,-0.536,-9.385,0.0,2017-02-26 22:48:01,7.520034066479564
-0.229,-0.536,-9.423,0.0,2017-02-26 22:48:02,26.15630563747964
-0.229,-0.536,-9.347,0.0,2017-02-26 22:48:03,41.124794831101504
-0.153,-0.498,-9.462,0.0,2017-02-26 22:48:04,48.166068115756985
-0.306,-0.574,-9.27,0.0,2017-02-26 22:48:05,14.828931148138745
-0.229,-0.536,-9.423,0.0,2017-02-26 22:48:06,39.90099757718863
-0.306,-0.574,-9.385,0.0,2017-02-26 22:48:07,21.596505985622994
-0.229,-0.536,-9.462,0.0,2017-02-26 22:48:08,42.55147537926446
-0.229,-0.536,-9.423,0.0,2017-02-26 22:48:09,40.78067363325268
-0.268,-0.536,-9.5,0.0,2017-02-26 22:48:10,37.71361801311056
-0.268,-0.498,-9.385,0.0,2017-02-26 22:48:11,40.18005026083699
-0.153,-0.536,-9.385,0.0,2017-02-26 22:48:12,22.74547950694485
-0.229,-0.574,-9.462,0.0,2017-02-26 22:48:14,48.828643312287866
-0.191,-0.574,-9.538,0.0,2017-02-26 22:48:15,50.988600520463635
-0.268,-0.459,-9.385,0.0,2017-02-26 22:48:16,37.48221652021077
-0.191,-0.421,-9.423,0.0,2017-02-26 22:48:17,15.85240353758147
-0.229,-0.536,-9.462,0.0,2017-02-26 22:48:18,14.585345737929401
-0.268,-0.536,-9.385,0.0,2017-02-26 22:48:19,10.041365711918601
-0.229,-0.498,-9.385,0.0,2017-02-26 22:48:20,37.09659028776763
-0.191,-0.498,-9.73,0.0,2017-02-26 22:48:21,13.50879945173789
-0.268,-0.536,-9.462,0.0,2017-02-26 22:48:22,10.354922760897471
-0.229,-0.574,-9.423,0.0,2017-02-26 22:48:23,34.74280588271709
-0.229,-0.536,-9.385,0.0,2017-02-26 22:48:24,9.753959030500301
-0.191,-0.498,-9.462,0.0,2017-02-26 22:48:25,8.622641864508397
-0.268,-0.536,-9.462,0.0,2017-02-26 22:48:26,32.13282159734027
-0.191,-0.459,-9.385,0.0,2017-02-26 22:48:27,18.568315154369714
-0.268,-0.536,-9.385,0.0,2017-02-26 22:48:28,36.2750147242012
-0.153,-0.498,-9.423,0.0,2017-02-26 22:48:29,18.533915997807796
-0.268,-0.536,-9.462,0.0,2017-02-26 22:48:30,7.3336656480640094
-0.268,-0.498,-9.423,0.0,2017-02-26 22:48:31,29.301766829345087
-0.191,-0.612,-9.462,0.0,2017-02-26 22:48:32,36.024889844733636
-0.268,-0.536,-9.5,0.0,2017-02-26 22:48:33,12.055754388214638
-0.229,-0.574,-9.347,0.0,2017-02-26 22:48:34,38.00503290145394
-0.229,-0.536,-9.423,0.0,2017-02-26 22:48:35,38.11636524470481
-0.229,-0.459,-9.423,0.0,2017-02-26 22:48:36,18.439757138558328
-0.229,-0.574,-9.385,0.0,2017-02-26 22:48:37,28.98779263684347
-0.268,-0.498,-9.423,0.0,2017-02-26 22:48:38,32.075733619615036
-0.229,-0.536,-9.385,0.0,2017-02-26 22:48:39,29.258230466754625
-0.191,-0.536,-9.462,0.0,2017-02-26 22:48:40,11.31525937871263
-0.268,-0.498,-9.423,0.0,2017-02-26 22:48:41,49.04817094064117
-0.268,-0.574,-9.462,0.0,2017-02-26 22:48:42,36.17108200633599
-0.229,-0.536,-9.462,0.0,2017-02-26 22:48:43,39.56548560737038
-0.268,-0.612,-9.347,0.0,2017-02-26 22:48:44,20.307293484261372
-0.229,-0.536,-9.462,0.0,2017-02-26 22:48:45,8.028137973680867
-0.268,-0.574,-9.423,0.0,2017-02-26 22:48:46,41.8738850880584
-0.153,-0.498,-9.5,0.0,2017-02-26 22:48:47,29.428114328742645
-0.306,-0.498,-9.385,0.0,2017-02-26 22:48:49,24.43542584551176
-0.268,-0.498,-9.308,0.0,2017-02-26 22:48:50,9.3101266872085
-0.191,-0.574,-9.347,0.0,2017-02-26 22:48:51,48.05048099407487
-0.268,-0.498,-9.423,0.0,2017-02-26 22:48:52,29.487877261424874
-0.229,-0.498,-9.423,0.0,2017-02-26 22:48:53,7.809695242704565
-0.153,-0.498,-9.423,0.0,2017-02-26 22:48:54,45.36616803875219
-0.268,-0.498,-9.385,0.0,2017-02-26 22:48:55,29.04967406469114
-0.268,-0.574,-9.462,0.0,2017-02-26 22:48:56,25.0882814127125
-0.191,-0.574,-9.27,0.0,2017-02-26 22:48:57,38.235533138169274
-0.229,-0.498,-9.385,0.0,2017-02-26 22:48:58,27.68283201914626
-0.191,-0.498,-9.538,0.0,2017-02-26 22:48:59,8.738154053718569
-0.268,-0.574,-9.5,0.0,2017-02-26 22:49:00,9.560295385240664
-0.268,-0.498,-9.308,0.0,2017-02-26 22:49:01,48.919282848672914
-0.268,-0.574,-9.27,0.0,2017-02-26 22:49:02,34.737246949041776
-0.306,-0.498,-9.5,0.0,2017-02-26 22:49:03,51.38279067338551
-0.268,-0.498,-9.423,0.0,2017-02-26 22:49:04,51.92747809331968
-0.268,-0.498,-9.308,0.0,2017-02-26 22:49:05,33.31654420777824
-0.268,-0.536,-9.423,0.0,2017-02-26 22:49:06,44.151547989573004
-0.153,-0.536,-9.5,0.0,2017-02-26 22:49:07,21.778604541992518
-0.229,-0.498,-9.423,0.0,2017-02-26 22:49:08,43.38885805494401
-0.229,-0.574,-9.462,0.0,2017-02-26 22:49:09,47.64442010223394
-0.229,-0.498,-9.423,0.0,2017-02-26 22:49:10,56.98830400332664
-0.229,-0.574,-9.308,0.0,2017-02-26 22:49:11,50.845319826369646
-0.229,-0.421,-9.385,0.0,2017-02-26 22:49:12,41.25120156614657
-0.306,-0.536,-9.423,0.0,2017-02-26 22:49:13,14.62573458603748
-0.229,-0.498,-9.423,0.0,2017-02-26 22:49:14,7.2871828924366895
-0.191,-0.536,-9.538,0.0,2017-02-26 22:49:15,32.22742120501644
-0.191,-0.498,-9.385,0.0,2017-02-26 22:49:16,27.263371339085005
-0.268,-0.574,-9.385,0.0,2017-02-26 22:49:17,47.16414793741591
-0.306,-0.498,-9.423,0.0,2017-02-26 22:49:18,25.65723332094241
-0.229,-0.498,-9.423,0.0,2017-02-26 22:49:19,7.577458574626047
-0.306,-0.536,-9.423,0.0,2017-02-26 22:49:20,41.953439756323746
-0.229,-0.536,-9.385,0.0,2017-02-26 22:49:21,34.10866659054332
-0.229,-0.536,-9.232,0.0,2017-02-26 22:49:23,50.074085321166955
-0.191,-0.498,-9.462,0.0,2017-02-26 22:49:24,41.479669801579504
-0.153,-0.498,-9.5,0.0,2017-02-26 22:49:25,31.984562566359944
-0.191,-0.536,-9.462,0.0,2017-02-26 22:49:26,49.70617857913926
-0.229,-0.498,-9.577,0.0,2017-02-26 22:49:27,32.23785348478479
-0.268,-0.459,-9.5,0.0,2017-02-26 22:49:28,69.74735208545643
-0.191,-0.536,-9.538,0.0,2017-02-26 22:49:29,39.57488219076337
-0.229,-0.574,-9.385,0.0,2017-02-26 22:49:30,22.810067204173862
-0.229,-0.498,-9.423,0.0,2017-02-26 22:49:31,49.781246379939404
-0.306,-0.498,-9.5,0.0,2017-02-26 22:49:32,40.87395765649393
-0.306,-0.574,-9.385,0.0,2017-02-26 22:49:33,38.816308638803996
-0.191,-0.498,-9.423,0.0,2017-02-26 22:49:34,20.38394270330604
-0.268,-0.574,-9.462,0.0,2017-02-26 22:49:35,8.813489872307471
-0.229,-0.536,-9.385,0.0,2017-02-26 22:49:36,9.049943263828744
-0.268,-0.536,-9.462,0.0,2017-02-26 22:49:37,31.422748664256645
-0.229,-0.498,-9.347,0.0,2017-02-26 22:49:38,32.691876670617305
-0.229,-0.498,-9.423,0.0,2017-02-26 22:49:39,11.546177094611451
-0.268,-0.498,-9.462,0.0,2017-02-26 22:49:40,8.175214710429902
-0.229,-0.536,-9.347,0.0,2017-02-26 22:49:41,16.4899809822635
-0.191,-0.498,-9.423,0.0,2017-02-26 22:49:42,7.682130550991129
-0.229,-0.536,-9.577,0.0,2017-02-26 22:49:43,54.9678586796112
-0.268,-0.459,-9.538,0.0,2017-02-26 22:49:44,46.261268433218056
-0.229,-0.574,-9.538,0.0,2017-02-26 22:49:45,56.727297977763776
-0.229,-0.536,-9.538,0.0,2017-02-26 22:49:46,48.45859435409642
-0.191,-0.536,-9.347,0.0,2017-02-26 22:49:47,50.125489197627154
-0.268,-0.498,-9.347,0.0,2017-02-26 22:49:48,55.36428683235488
-0.268,-0.574,-9.615,0.0,2017-02-26 22:49:49,50.630540309223456
-0.306,-0.536,-9.423,0.0,2017-02-26 22:49:50,32.81767288520557
-0.306,-0.536,-9.538,0.0,2017-02-26 22:49:51,42.132592159031994
-0.306,-0.574,-9.462,0.0,2017-02-26 22:49:52,19.766195021685572
-0.306,-0.574,-9.347,0.0,2017-02-26 22:49:53,31.028689933250977
-0.268,-0.421,-9.385,0.0,2017-02-26 22:49:55,42.656433720021255
-0.191,-0.536,-9.423,0.0,2017-02-26 22:49:56,53.04848650556941
-0.268,-0.536,-9.385,0.0,2017-02-26 22:49:57,34.643792109399634
-0.229,-0.536,-9.538,0.0,2017-02-26 22:49:58,7.392044672363303
-0.191,-0.498,-9.423,0.0,2017-02-26 22:49:59,44.333603341221625
-0.268,-0.536,-9.423,0.0,2017-02-26 22:50:00,42.527979161347886
-0.268,-0.498,-9.232,0.0,2017-02-26 22:50:01,46.482697459668145
-0.268,-0.498,-9.462,0.0,2017-02-26 22:50:02,26.083045176615187
-0.268,-0.536,-9.5,0.0,2017-02-26 22:50:03,8.568727945388378
-0.229,-0.536,-9.462,0.0,2017-02-26 22:50:04,11.182608499195084
-0.268,-0.536,-9.462,0.0,2017-02-26 22:50:05,29.971772629351392
-0.229,-0.459,-9.577,0.0,2017-02-26 22:50:06,33.35699178018985
-0.229,-0.574,-9.385,0.0,2017-02-26 22:50:07,17.14704588279945
-0.229,-0.536,-9.462,0.0,2017-02-26 22:50:08,8.83628169902795
-0.229,-0.459,-9.347,0.0,2017-02-26 22:50:09,29.374434450050146
-0.268,-0.574,-9.347,0.0,2017-02-26 22:50:10,8.062727393862911
-0.268,-0.498,-9.5,0.0,2017-02-26 22:50:11,51.56914003719631
-0.306,-0.536,-9.423,0.0,2017-02-26 22:50:12,49.02053872593364
-0.191,-0.536,-9.462,0.0,2017-02-26 22:50:13,32.06420801566348
-0.268,-0.574,-9.232,0.0,2017-02-26 22:50:14,14.537124096096022
-0.229,-0.536,-9.5,0.0,2017-02-26 22:50:15,8.310595138150429
-0.191,-0.498,-9.423,0.0,2017-02-26 22:50:16,48.04775286662029
-0.191,-0.498,-9.423,0.0,2017-02-26 22:50:17,42.94988134501043
-0.268,-0.612,-9.385,0.0,2017-02-26 22:50:18,42.39728003397005
-0.191,-0.574,-9.385,0.0,2017-02-26 22:50:19,37.094932270025936
-0.229,-0.574,-9.5,0.0,2017-02-26 22:50:20,14.363925097317154
-0.268,-0.536,-9.5,0.0,2017-02-26 22:50:21,7.510263657816446
-0.268,-0.536,-9.462,0.0,2017-02-26 22:50:22,20.867941582017405
-0.268,-0.498,-9.462,0.0,2017-02-26 22:50:23,9.154245702962506
-0.229,-0.498,-9.5,0.0,2017-02-26 22:50:25,20.698176315584465
-0.268,-0.498,-9.462,0.0,2017-02-26 22:50:26,7.364898755128003
-0.268,-0.459,-9.385,0.0,2017-02-26 22:50:27,51.684881810755485
-0.229,-0.536,-9.5,0.0,2017-02-26 22:50:28,32.171578953598036
-0.306,-0.536,-9.538,0.0,2017-02-26 22:50:29,8.056760443321735
-0.268,-0.536,-9.423,0.0,2017-02-26 22:50:30,8.790577802491196
-0.229,-0.574,-9.462,0.0,2017-02-26 22:50:31,16.23844663698981
-0.268,-0.498,-9.385,0.0,2017-02-26 22:50:32,12.758644900137082
-0.191,-0.498,-9.462,0.0,2017-02-26 22:50:33,7.8986703356155195
-0.229,-0.536,-9.385,0.0,2017-02-26 22:50:34,8.403462785432547
-0.229,-0.498,-9.423,0.0,2017-02-26 22:50:35,7.987207638438606
-0.191,-0.536,-9.347,0.0,2017-02-26 22:50:36,7.770187999847355
-0.229,-0.498,-9.5,0.0,2017-02-26 22:50:37,7.274491172517452
-0.229,-0.574,-9.462,0.0,2017-02-26 22:50:38,8.574031766302857
-0.229,-0.574,-9.423,0.0,2017-02-26 22:50:39,39.163410419851715
-0.306,-0.536,-9.5,0.0,2017-02-26 22:50:40,13.449599488875666
-0.268,-0.574,-9.423,0.0,2017-02-26 22:50:41,37.05560714528824
-0.229,-0.536,-9.385,0.0,2017-02-26 22:50:42,22.82097902012048
-0.306,-0.536,-9.5,0.0,2017-02-26 22:50:43,41.47266262879613
-0.229,-0.536,-9.385,0.0,2017-02-26 22:50:44,43.412618104191345
-0.191,-0.536,-9.462,0.0,2017-02-26 22:50:45,46.258686008475635
-0.229,-0.498,-9.385,0.0,2017-02-26 22:50:46,43.21503868863732
-0.229,-0.498,-9.423,0.0,2017-02-26 22:50:47,43.52997487694793
-0.153,-0.459,-9.347,0.0,2017-02-26 22:50:48,19.04096095489974
-0.229,-0.498,-9.462,0.0,2017-02-26 22:50:49,43.55417357544377
-0.229,-0.459,-9.5,0.0,2017-02-26 22:50:50,42.78732997369594
-0.229,-0.498,-9.385,0.0,2017-02-26 22:50:51,18.716550146997886
-0.229,-0.498,-9.423,0.0,2017-02-26 22:50:52,7.934984513498623
-0.229,-0.574,-9.423,0.0,2017-02-26 22:50:53,7.207244231758759
-0.229,-0.498,-9.385,0.0,2017-02-26 22:50:54,7.337582092390235
-0.268,-0.459,-9.462,0.0,2017-02-26 22:50:55,46.91256536296763
-0.268,-0.498,-9.462,0.0,2017-02-26 22:50:56,32.62361158620128
-0.229,-0.536,-9.385,0.0,2017-02-26 22:50:58,15.083587239432656
-0.268,-0.459,-9.462,0.0,2017-02-26 22:50:58,50.49681405785943
-0.153,-0.498,-9.538,0.0,2017-02-26 22:51:00,45.28364057303974
-0.268,-0.574,-9.5,0.0,2017-02-26 22:51:01,26.43258889492438
-0.268,-0.574,-9.538,0.0,2017-02-26 22:51:02,31.490662837978793
-0.191,-0.536,-9.423,0.0,2017-02-26 22:51:03,17.57160180159235
-0.306,-0.536,-9.538,0.0,2017-02-26 22:51:04,40.90384959022789
-0.268,-0.498,-9.462,0.0,2017-02-26 22:51:05,22.525140800532178
-0.229,-0.536,-9.462,0.0,2017-02-26 22:51:06,16.702440406100642
-0.268,-0.536,-9.385,0.0,2017-02-26 22:51:07,7.885577751076736
-0.229,-0.536,-9.5,0.0,2017-02-26 22:51:08,8.275409050157107
-0.306,-0.536,-9.462,0.0,2017-02-26 22:51:09,15.27783411173683
-0.229,-0.459,-9.308,0.0,2017-02-26 22:51:10,8.40774848589075
-0.383,-0.459,-9.385,0.0,2017-02-26 22:51:11,9.218185153893105
-0.191,-0.536,-9.5,0.0,2017-02-26 22:51:12,10.839964407655579
-0.229,-0.459,-9.347,0.0,2017-02-26 22:51:13,8.637177472223742
-0.268,-0.459,-9.462,0.0,2017-02-26 22:51:14,8.026802093996684
-0.306,-0.536,-9.462,0.0,2017-02-26 22:51:15,7.387403120636452
-0.191,-0.574,-9.462,0.0,2017-02-26 22:51:16,7.714554180126569
-0.268,-0.574,-9.385,0.0,2017-02-26 22:51:17,47.49209035621267
-0.306,-0.612,-9.385,0.0,2017-02-26 22:51:18,31.282540858044484
-0.229,-0.498,-9.423,0.0,2017-02-26 22:51:19,37.24960636431198
-0.306,-0.536,-9.462,0.0,2017-02-26 22:51:20,20.47271063639226
-0.344,-0.536,-9.423,0.0,2017-02-26 22:51:21,7.566331371974719
-0.153,-0.536,-9.423,0.0,2017-02-26 22:51:22,34.18945242917865
-0.306,-0.536,-9.385,0.0,2017-02-26 22:51:23,40.89484239963766
-0.306,-0.574,-9.462,0.0,2017-02-26 22:51:24,15.244620483902153
-0.229,-0.498,-9.423,0.0,2017-02-26 22:51:25,33.459454794244884
-0.229,-0.498,-9.385,0.0,2017-02-26 22:51:26,18.152365059456663
-0.306,-0.536,-9.423,0.0,2017-02-26 22:51:27,7.2721073403366425
-0.191,-0.574,-9.385,0.0,2017-02-26 22:51:28,43.05171061851883
-0.229,-0.612,-9.423,0.0,2017-02-26 22:51:29,39.325866658525584
-0.229,-0.498,-9.423,0.0,2017-02-26 22:51:30,52.91939342697234
-0.268,-0.536,-9.462,0.0,2017-02-26 22:51:31,48.232070050254954
-0.191,-0.498,-9.462,0.0,2017-02-26 22:51:33,12.96082175510386
-0.268,-0.498,-9.347,0.0,2017-02-26 22:51:34,31.264015899037943
-0.191,-0.498,-9.347,0.0,2017-02-26 22:51:35,52.51573802355747
-0.191,-0.536,-9.462,0.0,2017-02-26 22:51:36,43.3257167099391
-0.306,-0.536,-9.385,0.0,2017-02-26 22:51:37,40.10287034172173
-0.268,-0.574,-9.462,0.0,2017-02-26 22:51:38,23.40645474697667
-0.229,-0.574,-9.423,0.0,2017-02-26 22:51:39,14.22092028140112
-0.268,-0.459,-9.462,0.0,2017-02-26 22:51:40,43.09304786241888
-0.229,-0.536,-9.423,0.0,2017-02-26 22:51:41,41.28374307024079
-0.229,-0.536,-9.423,0.0,2017-02-26 22:51:42,18.87162181373251
-0.306,-0.536,-9.5,0.0,2017-02-26 22:51:43,40.62083187525101
-0.229,-0.498,-9.347,0.0,2017-02-26 22:51:44,28.647155586570186
-0.229,-0.574,-9.385,0.0,2017-02-26 22:51:45,13.51805362653961
-0.229,-0.536,-9.347,0.0,2017-02-26 22:51:46,8.55277750780117
-0.191,-0.498,-9.462,0.0,2017-02-26 22:51:47,9.364960706316484
-0.229,-0.536,-9.538,0.0,2017-02-26 22:51:48,10.774814611697305
-0.191,-0.612,-9.423,0.0,2017-02-26 22:51:49,8.785532103431242
-0.268,-0.536,-9.308,0.0,2017-02-26 22:51:50,7.877288367642611
-0.191,-0.498,-9.462,0.0,2017-02-26 22:51:51,8.269095711613945
-0.229,-0.574,-9.538,0.0,2017-02-26 22:51:52,8.685089757193936
-0.268,-0.574,-9.423,0.0,2017-02-26 22:51:53,9.540539726523816
-0.268,-0.498,-9.423,0.0,2017-02-26 22:51:54,9.234909275036081
-0.229,-0.498,-9.5,0.0,2017-02-26 22:51:55,8.97380067602608
-0.306,-0.574,-9.462,0.0,2017-02-26 22:51:56,10.809800075890257
-0.229,-0.536,-9.347,0.0,2017-02-26 22:51:57,13.010087893609958
-0.268,-0.536,-9.385,0.0,2017-02-26 22:51:58,30.472219923422493
-0.191,-0.536,-9.462,0.0,2017-02-26 22:51:59,19.56690754409707
-0.229,-0.498,-9.423,0.0,2017-02-26 22:52:00,8.937660952746908
-0.229,-0.498,-9.308,0.0,2017-02-26 22:52:01,35.2690767472743
-0.191,-0.574,-9.423,0.0,2017-02-26 22:52:02,23.337187811061007
-0.191,-0.498,-9.5,0.0,2017-02-26 22:52:03,18.578564343970058
-0.229,-0.536,-9.423,0.0,2017-02-26 22:52:04,41.647894754083936
-0.268,-0.536,-9.462,0.0,2017-02-26 22:52:05,39.52303181532396
-0.229,-0.612,-9.462,0.0,2017-02-26 22:52:06,29.182658927281192
-0.229,-0.536,-9.538,0.0,2017-02-26 22:52:07,8.708563644357517
-0.268,-0.536,-9.538,0.0,2017-02-26 22:52:09,8.075297431057937
-0.229,-0.498,-9.423,0.0,2017-02-26 22:52:10,46.47630586903338
-0.268,-0.536,-9.308,0.0,2017-02-26 22:52:11,41.369263228759046
-0.268,-0.536,-9.462,0.0,2017-02-26 22:52:12,34.106859771492694
-0.191,-0.574,-9.462,0.0,2017-02-26 22:52:13,28.328954343842483
-0.306,-0.536,-9.462,0.0,2017-02-26 22:52:14,49.542875623274526
-0.229,-0.574,-9.385,0.0,2017-02-26 22:52:15,62.59413354944334
-0.229,-0.536,-9.5,0.0,2017-02-26 22:52:16,36.3929179987379
-0.229,-0.536,-9.462,0.0,2017-02-26 22:52:17,9.431697866135893
-0.153,-0.536,-9.385,0.0,2017-02-26 22:52:18,33.079385223625316
-0.229,-0.536,-9.462,0.0,2017-02-26 22:52:19,24.674693607397174
-0.191,-0.536,-9.423,0.0,2017-02-26 22:52:20,9.158366144276368
-0.306,-0.536,-9.347,0.0,2017-02-26 22:52:21,7.985184684523123
-0.229,-0.498,-9.385,0.0,2017-02-26 22:52:22,8.034811215342705
-0.268,-0.459,-9.385,0.0,2017-02-26 22:52:23,8.409583920792635
-0.268,-0.498,-9.462,0.0,2017-02-26 22:52:24,8.325588058054818
-0.268,-0.459,-9.423,0.0,2017-02-26 22:52:25,8.734182453241477
-0.268,-0.574,-9.423,0.0,2017-02-26 22:52:26,7.6399798185946555
-0.153,-0.536,-9.577,0.0,2017-02-26 22:52:27,7.823718325017554
-0.268,-0.574,-9.385,0.0,2017-02-26 22:52:28,8.283602693491295
-0.191,-0.536,-9.5,0.0,2017-02-26 22:52:29,26.875098015609836
-0.229,-0.536,-9.385,0.0,2017-02-26 22:52:30,7.109334133774655
-0.268,-0.459,-9.5,0.0,2017-02-26 22:52:31,7.990577135712939
-0.229,-0.459,-9.423,0.0,2017-02-26 22:52:32,7.737464591683015
-0.306,-0.574,-9.462,0.0,2017-02-26 22:52:33,26.17002389984206
-0.268,-0.536,-9.462,0.0,2017-02-26 22:52:34,7.779391407423562
-0.153,-0.574,-9.385,0.0,2017-02-26 22:52:35,40.23017343440371
-0.229,-0.536,-9.5,0.0,2017-02-26 22:52:36,42.41443187384975
-0.229,-0.536,-9.385,0.0,2017-02-26 22:52:38,31.16869981011957
-0.268,-0.498,-9.347,0.0,2017-02-26 22:52:39,13.341316179350503
-0.268,-0.536,-9.5,0.0,2017-02-26 22:52:40,43.84241410745152
-0.229,-0.421,-9.538,0.0,2017-02-26 22:52:41,52.520511033152175
-0.191,-0.574,-9.423,0.0,2017-02-26 22:52:42,52.54254797798772
-0.229,-0.574,-9.423,0.0,2017-02-26 22:52:43,27.908285444162985
-0.229,-0.498,-9.423,0.0,2017-02-26 22:52:44,40.177587458166585
-0.229,-0.536,-9.5,0.0,2017-02-26 22:52:45,45.35492370516981
-0.229,-0.536,-9.462,0.0,2017-02-26 22:52:46,18.62968317386873
-0.191,-0.498,-9.462,0.0,2017-02-26 22:52:47,9.14805770169852
-0.229,-0.574,-9.385,0.0,2017-02-26 22:52:48,38.614999902012414
-0.229,-0.459,-9.615,0.0,2017-02-26 22:52:49,50.664825832837224
-0.229,-0.536,-9.423,0.0,2017-02-26 22:52:50,51.38076241545229
-0.191,-0.498,-9.385,0.0,2017-02-26 22:52:51,27.578762299576738
-0.268,-0.536,-9.308,0.0,2017-02-26 22:52:52,8.360371554899933
-0.229,-0.536,-9.423,0.0,2017-02-26 22:52:53,10.311322080404533
-0.191,-0.498,-9.423,0.0,2017-02-26 22:52:54,39.40465996665189
-0.191,-0.498,-9.347,0.0,2017-02-26 22:52:55,24.141308247062938
-0.268,-0.498,-9.385,0.0,2017-02-26 22:52:56,49.93114179311138
-0.191,-0.536,-9.385,0.0,2017-02-26 22:52:57,47.657183327598496
-0.229,-0.498,-9.5,0.0,2017-02-26 22:52:58,48.848928056267475
-0.306,-0.536,-9.423,0.0,2017-02-26 22:52:59,46.97843025105978
-0.229,-0.498,-9.385,0.0,2017-02-26 22:53:00,32.750442032442685
-0.268,-0.536,-9.385,0.0,2017-02-26 22:53:01,8.655134321999457
-0.229,-0.574,-9.423,0.0,2017-02-26 22:53:02,26.69880488683903
-0.306,-0.498,-9.385,0.0,2017-02-26 22:53:03,40.51510404003585
-0.229,-0.574,-9.5,0.0,2017-02-26 22:53:04,28.887256177248723
-0.229,-0.536,-9.423,0.0,2017-02-26 22:53:05,47.29906019030175
-0.229,-0.498,-9.462,0.0,2017-02-26 22:53:06,40.86139999679376
-0.229,-0.459,-9.385,0.0,2017-02-26 22:53:07,13.556931632946327
-0.268,-0.574,-9.5,0.0,2017-02-26 22:53:08,7.7231597539179155
-0.191,-0.498,-9.577,0.0,2017-02-26 22:53:09,7.5870791430396185
-0.306,-0.536,-9.423,0.0,2017-02-26 22:53:10,8.42423954151394
-0.306,-0.574,-9.538,0.0,2017-02-26 22:53:11,8.528443896128554
-0.229,-0.536,-9.385,0.0,2017-02-26 22:53:12,60.21993794903924
-0.229,-0.536,-9.538,0.0,2017-02-26 22:53:13,34.71393286353435
-0.229,-0.498,-9.462,0.0,2017-02-26 22:53:14,7.714554180126569
-0.268,-0.498,-9.385,0.0,2017-02-26 22:53:15,8.091781717223107
-0.229,-0.459,-9.423,0.0,2017-02-26 22:53:17,7.0277036921582745
-0.268,-0.459,-9.423,0.0,2017-02-26 22:53:18,38.1859564498836
-0.191,-0.536,-9.577,0.0,2017-02-26 22:53:19,8.131090582527326
-0.153,-0.498,-9.423,0.0,2017-02-26 22:53:20,42.963222708908546
-0.268,-0.498,-9.308,0.0,2017-02-26 22:53:21,48.952546047616934
-0.153,-0.536,-9.5,0.0,2017-02-26 22:53:22,46.689894433683705
-0.153,-0.574,-9.462,0.0,2017-02-26 22:53:23,31.733157609479143
-0.306,-0.574,-9.347,0.0,2017-02-26 22:53:24,42.09008896318913
-0.191,-0.498,-9.385,0.0,2017-02-26 22:53:25,43.06491121739099
-0.268,-0.459,-9.385,0.0,2017-02-26 22:53:26,46.144692557312524
-0.229,-0.498,-9.385,0.0,2017-02-26 22:53:27,52.124728859136525
-0.191,-0.536,-9.538,0.0,2017-02-26 22:53:28,27.198093679858367
-0.191,-0.498,-9.385,0.0,2017-02-26 22:53:29,10.498688553053357
-0.229,-0.536,-9.385,0.0,2017-02-26 22:53:30,8.920837277926596
-0.229,-0.459,-9.462,0.0,2017-02-26 22:53:31,49.078710257709666
-0.191,-0.498,-9.385,0.0,2017-02-26 22:53:32,50.39802965661457
-0.229,-0.498,-9.423,0.0,2017-02-26 22:53:33,50.23834205819917
-0.268,-0.498,-9.462,0.0,2017-02-26 22:53:34,43.37124363535757
-0.306,-0.498,-9.385,0.0,2017-02-26 22:53:35,45.03448357266607
-0.191,-0.536,-9.423,0.0,2017-02-26 22:53:36,24.183077663204074
-0.191,-0.536,-9.5,0.0,2017-02-26 22:53:37,50.35094960395055
-0.191,-0.574,-9.347,0.0,2017-02-26 22:53:38,48.0091100080861
-0.268,-0.498,-9.5,0.0,2017-02-26 22:53:39,43.856008979421155
-0.229,-0.498,-9.385,0.0,2017-02-26 22:53:40,49.38694574182924
-0.229,-0.536,-9.308,0.0,2017-02-26 22:53:41,40.342765290886966
-0.306,-0.498,-9.347,0.0,2017-02-26 22:53:42,13.224010205815684
-0.191,-0.574,-9.5,0.0,2017-02-26 22:53:43,17.49601966328977
-0.229,-0.536,-9.423,0.0,2017-02-26 22:53:44,35.70030620714732
-0.268,-0.536,-9.462,0.0,2017-02-26 22:53:45,10.003391600968179
-0.229,-0.498,-9.462,0.0,2017-02-26 22:53:46,43.52575410774272
-0.191,-0.536,-9.462,0.0,2017-02-26 22:53:47,40.095174959468224
-0.229,-0.498,-9.423,0.0,2017-02-26 22:53:48,44.054030942452165
-0.268,-0.498,-9.462,0.0,2017-02-26 22:53:49,20.810187224473804
-0.268,-0.536,-9.462,0.0,2017-02-26 22:53:51,32.906459949103905
-0.229,-0.498,-9.5,0.0,2017-02-26 22:53:51,40.3984247774296
-0.191,-0.536,-9.5,0.0,2017-02-26 22:53:53,15.452297779415519
-0.268,-0.574,-9.462,0.0,2017-02-26 22:53:54,43.49768408189213
-0.268,-0.498,-9.462,0.0,2017-02-26 22:53:55,26.67692762862718
-0.191,-0.536,-9.385,0.0,2017-02-26 22:53:56,41.34022847798534
-0.076,-0.536,-9.423,0.0,2017-02-26 22:53:57,25.17689344916899
-0.306,-0.498,-9.538,0.0,2017-02-26 22:53:58,37.80954073674468
-0.306,-0.498,-9.423,0.0,2017-02-26 22:53:59,41.51850896694039
-0.191,-0.498,-9.462,0.0,2017-02-26 22:54:00,40.08703859831003
-0.306,-0.498,-9.347,0.0,2017-02-26 22:54:01,37.470240127727145
-0.268,-0.536,-9.462,0.0,2017-02-26 22:54:02,20.284671968619502
-0.191,-0.612,-9.423,0.0,2017-02-26 22:54:03,41.65929993925534
-0.268,-0.574,-9.347,0.0,2017-02-26 22:54:04,37.592799190942515
-0.191,-0.536,-9.423,0.0,2017-02-26 22:54:05,33.88420559168422
-0.306,-0.498,-9.385,0.0,2017-02-26 22:54:06,13.67079156517628
-0.268,-0.498,-9.385,0.0,2017-02-26 22:54:07,25.77914587683154
-0.114,-0.574,-9.5,0.0,2017-02-26 22:54:08,23.252642479322645
-0.306,-0.574,-9.385,0.0,2017-02-26 22:54:09,39.94290252502076
-0.191,-0.536,-9.5,0.0,2017-02-26 22:54:10,36.553969558345905
-0.229,-0.498,-9.5,0.0,2017-02-26 22:54:11,17.913712457824055
-0.268,-0.498,-9.5,0.0,2017-02-26 22:54:12,36.03316311681304
-0.229,-0.536,-9.385,0.0,2017-02-26 22:54:13,26.527400747500266
-0.153,-0.459,-9.462,0.0,2017-02-26 22:54:14,13.985164233401226
-0.229,-0.498,-9.423,0.0,2017-02-26 22:54:15,36.83205656699737
-0.229,-0.498,-9.385,0.0,2017-02-26 22:54:16,39.10630813469892
-0.191,-0.536,-9.423,0.0,2017-02-26 22:54:17,28.029339914166446
-0.268,-0.536,-9.462,0.0,2017-02-26 22:54:18,28.52884859187784
-0.229,-0.498,-9.385,0.0,2017-02-26 22:54:19,55.415135766088
-0.229,-0.498,-9.462,0.0,2017-02-26 22:54:20,45.06100507214037
-0.268,-0.459,-9.423,0.0,2017-02-26 22:54:21,10.181086084756581
-0.229,-0.498,-9.347,0.0,2017-02-26 22:54:22,7.574494107057679
-0.268,-0.536,-9.462,0.0,2017-02-26 22:54:23,43.65393535753622
-0.191,-0.574,-9.385,0.0,2017-02-26 22:54:25,38.839715664185185
-0.229,-0.536,-9.462,0.0,2017-02-26 22:54:26,39.54469634684504
-0.268,-0.536,-9.5,0.0,2017-02-26 22:54:27,31.363873382540035
-0.268,-0.536,-9.462,0.0,2017-02-26 22:54:28,33.180733260351175
-0.306,-0.574,-9.385,0.0,2017-02-26 22:54:29,53.222195633404496
-0.229,-0.498,-9.385,0.0,2017-02-26 22:54:30,36.92162116712299
-0.229,-0.536,-9.385,0.0,2017-02-26 22:54:31,9.570139616472716
-0.268,-0.574,-9.462,0.0,2017-02-26 22:54:32,7.079525434579386
-0.344,-0.536,-9.385,0.0,2017-02-26 22:54:33,10.719826332726257
-0.268,-0.459,-9.5,0.0,2017-02-26 22:54:34,7.375777491799781
-0.306,-0.536,-9.385,0.0,2017-02-26 22:54:35,8.168753916588807
-0.268,-0.498,-9.385,0.0,2017-02-26 22:54:36,7.931571590086019
-0.191,-0.574,-9.462,0.0,2017-02-26 22:54:37,49.547534660909214
-0.191,-0.536,-9.462,0.0,2017-02-26 22:54:38,35.42657084809201
-0.268,-0.536,-9.577,0.0,2017-02-26 22:54:39,15.395367431528888
-0.229,-0.574,-9.423,0.0,2017-02-26 22:54:40,44.40459378868038
-0.229,-0.498,-9.423,0.0,2017-02-26 22:54:41,33.557092431301754
-0.229,-0.574,-9.308,0.0,2017-02-26 22:54:42,14.082996024879968
-0.268,-0.536,-9.347,0.0,2017-02-26 22:54:43,48.53627234905973
-0.229,-0.498,-9.423,0.0,2017-02-26 22:54:44,17.209583289653185
-0.268,-0.536,-9.462,0.0,2017-02-26 22:54:45,33.966615404794815
-0.268,-0.498,-9.462,0.0,2017-02-26 22:54:46,12.491505670766873
-0.229,-0.574,-9.423,0.0,2017-02-26 22:54:47,8.014090700563791
-0.306,-0.536,-9.385,0.0,2017-02-26 22:54:48,7.817413540722703
-0.229,-0.574,-9.423,0.0,2017-02-26 22:54:49,7.850238076895019
-0.191,-0.536,-9.385,0.0,2017-02-26 22:54:50,7.870368441355379
-0.268,-0.498,-9.385,0.0,2017-02-26 22:54:51,45.1121115920034
-0.229,-0.536,-9.462,0.0,2017-02-26 22:54:52,47.732858428432465
-0.268,-0.536,-9.423,0.0,2017-02-26 22:54:53,51.19441445371685
-0.191,-0.498,-9.462,0.0,2017-02-26 22:54:54,38.69362660041808
-0.229,-0.498,-9.5,0.0,2017-02-26 22:54:55,18.883539333881593
-0.229,-0.536,-9.423,0.0,2017-02-26 22:54:56,8.176505716628181
-0.268,-0.536,-9.538,0.0,2017-02-26 22:54:57,10.120871690466263
-0.229,-0.498,-9.538,0.0,2017-02-26 22:54:58,8.274778129139213
-0.268,-0.536,-9.385,0.0,2017-02-26 22:55:00,40.021917189437445
-0.229,-0.498,-9.385,0.0,2017-02-26 22:55:01,22.794138264772098
-0.229,-0.536,-9.385,0.0,2017-02-26 22:55:02,18.820506929438437
-0.229,-0.459,-9.538,0.0,2017-02-26 22:55:03,8.971651501260443
-0.268,-0.498,-9.5,0.0,2017-02-26 22:55:04,34.82192651288515
-0.229,-0.498,-9.462,0.0,2017-02-26 22:55:05,37.56354882721352
-0.191,-0.574,-9.423,0.0,2017-02-26 22:55:06,27.136020949865
-0.229,-0.498,-9.462,0.0,2017-02-26 22:55:07,61.285756419963135
-0.229,-0.498,-9.385,0.0,2017-02-26 22:55:08,45.009852028932016
-0.268,-0.498,-9.538,0.0,2017-02-26 22:55:09,7.687912472056872
-0.191,-0.498,-9.385,0.0,2017-02-26 22:55:10,7.515527378265711
-0.306,-0.574,-9.385,0.0,2017-02-26 22:55:11,36.00133100479596
-0.229,-0.498,-9.423,0.0,2017-02-26 22:55:12,22.864705043729078
-0.268,-0.574,-9.385,0.0,2017-02-26 22:55:13,7.2943057192490555
-0.229,-0.574,-9.385,0.0,2017-02-26 22:55:14,17.371662317662086
-0.421,-0.881,-8.849,0.0,2017-02-26 22:55:15,32.497353977258435
-0.229,-0.574,-9.5,0.0,2017-02-26 22:55:16,49.2437782624424
-0.191,-0.498,-9.462,0.0,2017-02-26 22:55:17,31.03196510654587
-0.306,-0.498,-9.423,0.0,2017-02-26 22:55:18,36.91857508871515
-0.268,-0.536,-9.308,0.0,2017-02-26 22:55:19,29.057879775188535
-0.383,-0.383,-9.347,0.0,2017-02-26 22:55:20,31.74517770220231
-0.306,-0.574,-9.615,0.0,2017-02-26 22:55:21,67.18865245065345
-0.383,-0.421,-9.538,0.0,2017-02-26 22:55:22,54.48968547984499
-0.306,-0.498,-9.385,0.0,2017-02-26 22:55:23,54.277625141284915
-0.268,-0.574,-9.462,0.0,2017-02-26 22:55:24,39.9004885885853
-0.306,-0.498,-9.423,0.0,2017-02-26 22:55:25,34.78971682228918
-0.344,-0.498,-9.385,0.0,2017-02-26 22:55:26,39.43302510392178
-0.306,-0.459,-9.385,0.0,2017-02-26 22:55:27,28.734131366150557
-0.344,-0.536,-9.462,0.0,2017-02-26 22:55:28,26.08145625355268
-0.268,-0.498,-9.423,0.0,2017-02-26 22:55:29,10.052274476739754
-0.268,-0.536,-9.423,0.0,2017-02-26 22:55:30,38.404025677907185
-0.306,-0.536,-9.423,0.0,2017-02-26 22:55:31,14.85008438034804
-0.229,-0.498,-9.385,0.0,2017-02-26 22:55:32,7.961513666074501
-0.344,-0.498,-9.347,0.0,2017-02-26 22:55:33,37.51056912794583
-0.268,-0.498,-9.462,0.0,2017-02-26 22:55:34,23.501514455398226
-0.306,-0.498,-9.385,0.0,2017-02-26 22:55:35,8.23993555802884
-0.306,-0.536,-9.385,0.0,2017-02-26 22:55:37,35.38287827948426
-0.306,-0.498,-9.538,0.0,2017-02-26 22:55:38,16.86615324771831
-0.344,-0.498,-9.5,0.0,2017-02-26 22:55:39,28.151300561283197
-0.268,-0.498,-9.423,0.0,2017-02-26 22:55:40,14.35148557626238
-0.383,-0.459,-9.347,0.0,2017-02-26 22:55:41,7.930205669389422
-0.306,-0.498,-9.423,0.0,2017-02-26 22:55:42,29.981111281315926
-0.268,-0.536,-9.385,0.0,2017-02-26 22:55:43,8.359134072395754
-0.344,-0.574,-9.385,0.0,2017-02-26 22:55:44,7.713118258533381
-0.306,-0.498,-9.462,0.0,2017-02-26 22:55:45,20.881984032721114
-0.306,-0.536,-9.385,0.0,2017-02-26 22:55:46,15.14602222821047
-0.306,-0.536,-9.385,0.0,2017-02-26 22:55:47,13.576892368912914
-0.344,-0.536,-9.347,0.0,2017-02-26 22:55:48,7.161012054631105
-0.306,-0.612,-9.385,0.0,2017-02-26 22:55:49,11.09153894116248
-0.229,-0.612,-9.385,0.0,2017-02-26 22:55:50,8.102298918837079
-0.191,-0.498,-9.423,0.0,2017-02-26 22:55:51,7.260168512642968
-0.306,-0.459,-9.385,0.0,2017-02-26 22:55:52,7.350871646801968
-0.306,-0.459,-9.5,0.0,2017-02-26 22:55:53,7.363342422977668
-0.306,-0.498,-9.423,0.0,2017-02-26 22:55:54,7.436659092253484
-0.344,-0.498,-9.423,0.0,2017-02-26 22:55:55,7.038620894590412
-0.268,-0.574,-9.423,0.0,2017-02-26 22:55:56,7.763095160088479
-0.344,-0.536,-9.5,0.0,2017-02-26 22:55:57,33.626795775519895
-0.306,-0.536,-9.385,0.0,2017-02-26 22:55:58,10.611770110591056
-0.268,-0.498,-9.462,0.0,2017-02-26 22:55:59,35.1593913710535
-0.306,-0.536,-9.423,0.0,2017-02-26 22:56:00,29.63491767453184
-0.306,-0.536,-9.347,0.0,2017-02-26 22:56:01,9.006977596708309
-0.306,-0.459,-9.385,0.0,2017-02-26 22:56:02,35.96063455827839
-0.344,-0.498,-9.423,0.0,2017-02-26 22:56:03,29.948766935440894
-0.306,-0.498,-9.5,0.0,2017-02-26 22:56:04,11.51038093218731
-0.306,-0.536,-9.385,0.0,2017-02-26 22:56:05,53.53851356461006
-0.306,-0.459,-9.5,0.0,2017-02-26 22:56:06,27.406047535332956
-0.344,-0.536,-9.347,0.0,2017-02-26 22:56:07,27.01510645549304
-0.344,-0.498,-9.423,0.0,2017-02-26 22:56:08,7.8599678341197965
-0.459,-0.498,-9.385,0.0,2017-02-26 22:56:09,38.47806341848909
-0.306,-0.421,-9.385,0.0,2017-02-26 22:56:10,56.86145582638548
-0.344,-0.536,-9.385,0.0,2017-02-26 22:56:12,38.36342539001121
-0.268,-0.536,-9.385,0.0,2017-02-26 22:56:13,8.002013911267179
-0.344,-0.574,-9.423,0.0,2017-02-26 22:56:14,8.14086245678962
-0.268,-0.536,-9.385,0.0,2017-02-26 22:56:15,7.968289989526097
-0.306,-0.536,-9.385,0.0,2017-02-26 22:56:16,7.728171808506552
-0.268,-0.498,-9.462,0.0,2017-02-26 22:56:17,7.590035035492698
-0.306,-0.536,-9.462,0.0,2017-02-26 22:56:18,7.469441943821581
-0.306,-0.536,-9.462,0.0,2017-02-26 22:56:19,7.836300501328727
-0.306,-0.536,-9.423,0.0,2017-02-26 22:56:20,27.06571108526214
-0.306,-0.536,-9.423,0.0,2017-02-26 22:56:21,30.473174670517373
-0.268,-0.536,-9.577,0.0,2017-02-26 22:56:22,20.00440856498618
-0.229,-0.498,-9.5,0.0,2017-02-26 22:56:23,7.808992898590633
-0.153,-0.536,-9.462,0.0,2017-02-26 22:56:24,27.963147727300854
-0.268,-0.498,-9.347,0.0,2017-02-26 22:56:25,25.291700919406864
-0.344,-0.536,-9.423,0.0,2017-02-26 22:56:26,18.62735673124823
-0.306,-0.459,-9.385,0.0,2017-02-26 22:56:27,50.14627296969018
-0.306,-0.498,-9.5,0.0,2017-02-26 22:56:28,41.11001400497992
-0.383,-0.536,-9.347,0.0,2017-02-26 22:56:29,42.15186677483679
-0.421,-0.536,-9.5,0.0,2017-02-26 22:56:30,28.340722053126438
-0.306,-0.459,-9.385,0.0,2017-02-26 22:56:31,38.5705808936389
-0.383,-0.459,-9.423,0.0,2017-02-26 22:56:32,10.266481555554662
-0.306,-0.459,-9.423,0.0,2017-02-26 22:56:33,8.634855041783888
-0.306,-0.498,-9.385,0.0,2017-02-26 22:56:34,39.01322018915054
-0.383,-0.536,-9.538,0.0,2017-02-26 22:56:35,12.425773359239486
-0.306,-0.498,-9.462,0.0,2017-02-26 22:56:36,7.267335746940658
-0.344,-0.498,-9.347,0.0,2017-02-26 22:56:37,11.688495237213367
-0.268,-0.498,-9.385,0.0,2017-02-26 22:56:38,9.629664794687168
-0.268,-0.498,-9.423,0.0,2017-02-26 22:56:39,8.94199198758008
-0.344,-0.574,-9.423,0.0,2017-02-26 22:56:40,31.051411305037327
-0.344,-0.536,-9.462,0.0,2017-02-26 22:56:41,35.270314478306666
-0.268,-0.498,-9.385,0.0,2017-02-26 22:56:42,12.29424847646654
-0.268,-0.536,-9.385,0.0,2017-02-26 22:56:43,26.58469758924911
-0.344,-0.498,-9.385,0.0,2017-02-26 22:56:45,9.196296034447759
-0.268,-0.536,-9.423,0.0,2017-02-26 22:56:46,7.598890660961813
-0.306,-0.498,-9.423,0.0,2017-02-26 22:56:47,7.489144745944319
-0.344,-0.498,-9.462,0.0,2017-02-26 22:56:48,9.07520525353885
-0.383,-0.536,-9.5,0.0,2017-02-26 22:56:49,7.866211186903569
-0.306,-0.459,-9.462,0.0,2017-02-26 22:56:50,8.389351346749105
-0.306,-0.574,-9.423,0.0,2017-02-26 22:56:51,10.907938100968469
-0.306,-0.498,-9.385,0.0,2017-02-26 22:56:52,7.921316697909116
-0.191,-0.498,-9.423,0.0,2017-02-26 22:56:53,8.902856300101496
-0.268,-0.536,-9.385,0.0,2017-02-26 22:56:54,40.29965417463814
-0.344,-0.536,-9.423,0.0,2017-02-26 22:56:55,19.554096142064733
-0.268,-0.498,-9.347,0.0,2017-02-26 22:56:56,10.148419929853814
-0.306,-0.421,-9.423,0.0,2017-02-26 22:56:57,8.223366709568914
-0.229,-0.536,-9.423,0.0,2017-02-26 22:56:58,8.586382216930993
-0.306,-0.574,-9.462,0.0,2017-02-26 22:56:59,22.324029355834654
-0.344,-0.459,-9.423,0.0,2017-02-26 22:57:00,51.12143399579154
-0.229,-0.421,-9.347,0.0,2017-02-26 22:57:01,39.451873371078605
-0.306,-0.498,-9.423,0.0,2017-02-26 22:57:02,37.85302370912315
-0.344,-0.536,-9.462,0.0,2017-02-26 22:57:03,51.9980642154444
-0.306,-0.536,-9.385,0.0,2017-02-26 22:57:04,51.68051737704312
-0.229,-0.536,-9.385,0.0,2017-02-26 22:57:05,47.68204311263737
-0.268,-0.536,-9.423,0.0,2017-02-26 22:57:06,37.21234417613233
-0.306,-0.498,-9.385,0.0,2017-02-26 22:57:07,35.6186842521914
-0.268,-0.536,-9.347,0.0,2017-02-26 22:57:08,32.575201469612644
-0.306,-0.612,-9.423,0.0,2017-02-26 22:57:09,50.976634029547114
-0.306,-0.536,-9.423,0.0,2017-02-26 22:57:10,49.93980995775373
-0.306,-0.498,-9.347,0.0,2017-02-26 22:57:11,38.83425252147627
-0.344,-0.498,-9.423,0.0,2017-02-26 22:57:12,7.768061363967581
-0.306,-0.498,-9.423,0.0,2017-02-26 22:57:13,41.022307460345
-0.306,-0.459,-9.5,0.0,2017-02-26 22:57:15,45.51727407307911
-0.306,-0.498,-9.385,0.0,2017-02-26 22:57:16,49.60146437880766
-0.306,-0.459,-9.462,0.0,2017-02-26 22:57:17,32.769843413286694
-0.306,-0.536,-9.423,0.0,2017-02-26 22:57:18,8.608641761631375
-0.306,-0.498,-9.423,0.0,2017-02-26 22:57:19,25.96301724778412
-0.268,-0.536,-9.385,0.0,2017-02-26 22:57:20,38.02344722477696
-0.191,-0.498,-9.538,0.0,2017-02-26 22:57:21,29.6064679865168
-0.268,-0.574,-9.423,0.0,2017-02-26 22:57:22,11.026065336135023
-0.306,-0.459,-9.347,0.0,2017-02-26 22:57:23,6.694004242321522
-0.306,-0.612,-9.423,0.0,2017-02-26 22:57:24,30.776630888505224
-0.344,-0.498,-9.5,0.0,2017-02-26 22:57:25,21.67484640687202
-0.306,-0.459,-9.423,0.0,2017-02-26 22:57:26,7.176477529049849
-0.306,-0.536,-9.423,0.0,2017-02-26 22:57:27,14.06124181549772
-0.383,-0.536,-9.462,0.0,2017-02-26 22:57:28,7.641440122851532
-0.229,-0.536,-9.5,0.0,2017-02-26 22:57:29,7.414409171710886
-0.306,-0.574,-9.423,0.0,2017-02-26 22:57:30,6.952216567828552
-0.268,-0.498,-9.423,0.0,2017-02-26 22:57:31,7.616547923241372
-0.153,-0.383,-9.385,0.0,2017-02-26 22:57:32,18.871236832585403
-0.306,-0.498,-9.5,0.0,2017-02-26 22:57:33,36.39572276678553
-0.306,-0.574,-9.347,0.0,2017-02-26 22:57:34,39.30775571493179
-0.268,-0.498,-9.423,0.0,2017-02-26 22:57:35,42.11063910555178
-0.268,-0.421,-9.462,0.0,2017-02-26 22:57:36,24.630526898229434
-0.268,-0.536,-9.423,0.0,2017-02-26 22:57:37,15.868026053840046
-0.344,-0.536,-9.462,0.0,2017-02-26 22:57:38,8.276670617288428
-0.268,-0.498,-9.347,0.0,2017-02-26 22:57:39,7.703053491991577
-0.268,-0.459,-9.538,0.0,2017-02-26 22:57:40,8.069347737856862
-0.344,-0.459,-9.423,0.0,2017-02-26 22:57:41,7.577458574626047
-0.306,-0.459,-9.423,0.0,2017-02-26 22:57:42,7.1151065857273466
-0.344,-0.498,-9.423,0.0,2017-02-26 22:57:43,8.301198210966742
-0.268,-0.459,-9.423,0.0,2017-02-26 22:57:44,9.355623678498056
-0.229,-0.536,-9.423,0.0,2017-02-26 22:57:45,14.706837686557177
-0.306,-0.498,-9.423,0.0,2017-02-26 22:57:46,18.399050219759282
-0.344,-0.421,-9.462,0.0,2017-02-26 22:57:47,7.737464591683015
-0.344,-0.459,-9.308,0.0,2017-02-26 22:57:48,7.309304543856588
-0.229,-0.536,-9.385,0.0,2017-02-26 22:57:50,7.56484558858047
-0.344,-0.536,-9.423,0.0,2017-02-26 22:57:51,8.064052270267034
-0.268,-0.536,-9.538,0.0,2017-02-26 22:57:52,9.225288102610348
-0.344,-0.498,-9.462,0.0,2017-02-26 22:57:53,8.031475876250093
-0.306,-0.459,-9.385,0.0,2017-02-26 22:57:54,10.196922187380355
-0.306,-0.459,-9.462,0.0,2017-02-26 22:57:55,10.494905829341487
-0.344,-0.498,-9.423,0.0,2017-02-26 22:57:56,8.988279853494488
-0.268,-0.498,-9.5,0.0,2017-02-26 22:57:57,8.739855056998634
-0.344,-0.498,-9.385,0.0,2017-02-26 22:57:58,7.915837504854276
-0.268,-0.536,-9.5,0.0,2017-02-26 22:57:59,7.519283276466625
-0.306,-0.498,-9.347,0.0,2017-02-26 22:58:00,8.609226001198952
-0.268,-0.536,-9.423,0.0,2017-02-26 22:58:01,7.361006878517491
-0.306,-0.498,-9.5,0.0,2017-02-26 22:58:02,7.793512521535977
-0.229,-0.498,-9.308,0.0,2017-02-26 22:58:03,7.601101748740944
-0.344,-0.536,-9.462,0.0,2017-02-26 22:58:04,7.6172820868504285
-0.268,-0.459,-9.538,0.0,2017-02-26 22:58:05,7.569301414709063
-0.306,-0.536,-9.347,0.0,2017-02-26 22:58:06,7.223350108993838
-0.306,-0.536,-9.385,0.0,2017-02-26 22:58:07,7.418253506580863
-0.383,-0.498,-9.423,0.0,2017-02-26 22:58:08,7.477030526599871
-0.268,-0.536,-9.5,0.0,2017-02-26 22:58:09,6.930774118725376
-0.268,-0.498,-9.423,0.0,2017-02-26 22:58:10,8.016100237802869
-0.344,-0.459,-9.423,0.0,2017-02-26 22:58:11,7.407480781803761
-0.191,-0.459,-9.577,0.0,2017-02-26 22:58:12,12.337048714516413
-0.268,-0.536,-9.347,0.0,2017-02-26 22:58:13,7.242598649396642
-0.306,-0.421,-9.538,0.0,2017-02-26 22:58:14,9.933328803645963
-0.344,-0.498,-9.462,0.0,2017-02-26 22:58:15,37.05111842707797
-0.229,-0.574,-9.423,0.0,2017-02-26 22:58:16,60.68491367693462
-0.344,-0.498,-9.423,0.0,2017-02-26 22:58:17,46.46378757248908
-0.421,-0.459,-9.653,0.0,2017-02-26 22:58:18,39.29628787327002
-0.268,-0.498,-9.423,0.0,2017-02-26 22:58:19,21.460522941265886
-0.306,-0.536,-9.385,0.0,2017-02-26 22:58:20,8.193253967182375
-0.268,-0.498,-9.385,0.0,2017-02-26 22:58:21,33.8469617717573
-0.268,-0.459,-9.5,0.0,2017-02-26 22:58:22,20.828905102426983
-0.306,-0.498,-9.423,0.0,2017-02-26 22:58:23,17.237634276747823
-0.344,-0.498,-9.577,0.0,2017-02-26 22:58:24,8.033477387070848
-0.306,-0.498,-9.5,0.0,2017-02-26 22:58:26,8.067362694102169
-0.191,-0.459,-9.385,0.0,2017-02-26 22:58:27,7.658925581072601
-0.229,-0.459,-9.462,0.0,2017-02-26 22:58:28,7.403626894942439
-0.268,-0.498,-9.385,0.0,2017-02-26 22:58:29,8.70284999425168
-0.268,-0.612,-9.462,0.0,2017-02-26 22:58:30,7.806885184490039
-0.268,-0.574,-9.5,0.0,2017-02-26 22:58:31,7.437424301456245
-0.306,-0.498,-9.5,0.0,2017-02-26 22:58:32,7.322680777263301
-0.344,-0.459,-9.423,0.0,2017-02-26 22:58:33,7.575235413677048
-0.306,-0.498,-9.423,0.0,2017-02-26 22:58:34,7.6399798185946555
-0.344,-0.536,-9.423,0.0,2017-02-26 22:58:35,7.698732870027822
-0.306,-0.498,-9.385,0.0,2017-02-26 22:58:36,8.117372914327731
-0.306,-0.498,-9.385,0.0,2017-02-26 22:58:37,8.28045312136179
-0.268,-0.536,-9.423,0.0,2017-02-26 22:58:38,35.50892332987607
-0.344,-0.536,-9.423,0.0,2017-02-26 22:58:39,39.224289825361566
-0.268,-0.498,-9.385,0.0,2017-02-26 22:58:40,20.158654521994404
-0.306,-0.459,-9.385,0.0,2017-02-26 22:58:41,9.091442538254249
-0.344,-0.459,-9.462,0.0,2017-02-26 22:58:42,8.309969308504698
-0.229,-0.421,-9.423,0.0,2017-02-26 22:58:43,7.320323257173364
-0.306,-0.536,-9.423,0.0,2017-02-26 22:58:44,7.609199453097216
-0.383,-0.498,-9.423,0.0,2017-02-26 22:58:45,7.563359296704556
-0.344,-0.459,-9.462,0.0,2017-02-26 22:58:46,43.0404377744365
-0.268,-0.536,-9.462,0.0,2017-02-26 22:58:47,42.186915333025496
-0.344,-0.498,-9.577,0.0,2017-02-26 22:58:48,38.18013461538739
-0.306,-0.498,-9.423,0.0,2017-02-26 22:58:49,40.86877742460216
-0.229,-0.459,-9.462,0.0,2017-02-26 22:58:50,39.955746146547206
-0.306,-0.498,-9.385,0.0,2017-02-26 22:58:51,32.29595111118326
-0.268,-0.498,-9.385,0.0,2017-02-26 22:58:52,42.84323028148946
-0.229,-0.498,-9.423,0.0,2017-02-26 22:58:53,35.83869753451204
-0.191,-0.498,-9.347,0.0,2017-02-26 22:58:54,8.083877068017017
-0.344,-0.536,-9.423,0.0,2017-02-26 22:58:55,38.04787705464817
-0.306,-0.498,-9.462,0.0,2017-02-26 22:58:56,43.45780882197982
-0.306,-0.498,-9.462,0.0,2017-02-26 22:58:57,38.19710786590532
-0.344,-0.536,-9.423,0.0,2017-02-26 22:58:58,35.43545704513897
-0.383,-0.536,-9.347,0.0,2017-02-26 22:59:00,39.778616664866476
-0.268,-0.498,-9.423,0.0,2017-02-26 22:59:01,37.78385723061994
-0.306,-0.459,-9.347,0.0,2017-02-26 22:59:02,10.333766289629054
-0.306,-0.459,-9.385,0.0,2017-02-26 22:59:03,37.51603461421727
-0.306,-0.498,-9.462,0.0,2017-02-26 22:59:04,25.95316419832345
-0.344,-0.459,-9.538,0.0,2017-02-26 22:59:05,19.350356608484002
-0.268,-0.498,-9.653,0.0,2017-02-26 22:59:06,30.296833299364003
-0.268,-0.459,-9.423,0.0,2017-02-26 22:59:07,28.92078833999797
-0.344,-0.498,-9.385,0.0,2017-02-26 22:59:08,37.75207831449414
-0.268,-0.459,-9.385,0.0,2017-02-26 22:59:09,33.092470469537496
-0.268,-0.498,-9.462,0.0,2017-02-26 22:59:10,39.54731663387831
-0.268,-0.459,-9.385,0.0,2017-02-26 22:59:11,39.332681555572904
-0.229,-0.498,-9.538,0.0,2017-02-26 22:59:12,21.255638571600578
-0.268,-0.536,-9.423,0.0,2017-02-26 22:59:13,8.31559853135249
-0.383,-0.498,-9.462,0.0,2017-02-26 22:59:14,10.41662493143235
-0.383,-0.459,-9.423,0.0,2017-02-26 22:59:15,17.14205290970106
-0.344,-0.536,-9.347,0.0,2017-02-26 22:59:16,8.14151313396801
-0.268,-0.536,-9.5,0.0,2017-02-26 22:59:17,23.564684308274103
-0.268,-0.536,-9.462,0.0,2017-02-26 22:59:18,11.830194737346648
-0.383,-0.536,-9.385,0.0,2017-02-26 22:59:19,15.41990977184954
-0.306,-0.536,-9.5,0.0,2017-02-26 22:59:20,7.804776446978819
-0.306,-0.498,-9.308,0.0,2017-02-26 22:59:21,9.097711676577122
-0.229,-0.498,-9.577,0.0,2017-02-26 22:59:22,7.70593152047267
-0.229,-0.498,-9.462,0.0,2017-02-26 22:59:23,7.897294026043223
-0.306,-0.536,-9.538,0.0,2017-02-26 22:59:24,8.16551991180832
-0.306,-0.536,-9.423,0.0,2017-02-26 22:59:25,7.631207666507981
-0.344,-0.498,-9.462,0.0,2017-02-26 22:59:26,11.480022125882105
-0.306,-0.536,-9.423,0.0,2017-02-26 22:59:27,8.638338221881604
-0.383,-0.536,-9.385,0.0,2017-02-26 22:59:28,7.1085088710987225
-0.229,-0.498,-9.385,0.0,2017-02-26 22:59:29,7.3835313678445536
-0.344,-0.498,-9.5,0.0,2017-02-26 22:59:31,17.26622162039823
-0.344,-0.536,-9.462,0.0,2017-02-26 22:59:32,8.39058025021487
-0.268,-0.498,-9.385,0.0,2017-02-26 22:59:33,45.12348425534691
-0.344,-0.536,-9.385,0.0,2017-02-26 22:59:34,35.86747801707204
-0.229,-0.536,-9.423,0.0,2017-02-26 22:59:35,10.274849851138255
-0.268,-0.498,-9.385,0.0,2017-02-26 22:59:36,7.106857875139271
-0.306,-0.498,-9.347,0.0,2017-02-26 22:59:37,37.23365066980286
-0.268,-0.459,-9.423,0.0,2017-02-26 22:59:38,34.09988568382117
-0.306,-0.498,-9.462,0.0,2017-02-26 22:59:39,8.364081888161948
-0.268,-0.498,-9.423,0.0,2017-02-26 22:59:40,38.01484438599817
-0.344,-0.459,-9.308,0.0,2017-02-26 22:59:41,18.115344250029228
-0.268,-0.498,-9.423,0.0,2017-02-26 22:59:42,35.0954312565489
-0.268,-0.498,-9.423,0.0,2017-02-26 22:59:43,12.045174092296465
-0.306,-0.536,-9.385,0.0,2017-02-26 22:59:44,38.275980585471785
-0.306,-0.574,-9.308,0.0,2017-02-26 22:59:45,40.74995260701272
-0.306,-0.574,-9.423,0.0,2017-02-26 22:59:46,35.35120977082337
-0.344,-0.459,-9.385,0.0,2017-02-26 22:59:47,26.92995721402928
-0.268,-0.459,-9.462,0.0,2017-02-26 22:59:48,35.83552428806752
-0.306,-0.459,-9.538,0.0,2017-02-26 22:59:49,21.202396508219735
-0.306,-0.536,-9.462,0.0,2017-02-26 22:59:50,7.239396477956431
-0.306,-0.536,-9.5,0.0,2017-02-26 22:59:51,49.4337819215206
-0.344,-0.498,-9.308,0.0,2017-02-26 22:59:52,36.39983082086195
-0.268,-0.536,-9.462,0.0,2017-02-26 22:59:53,43.80028214894874
-0.344,-0.536,-9.385,0.0,2017-02-26 22:59:54,26.569063590406465
-0.229,-0.498,-9.462,0.0,2017-02-26 22:59:55,7.7800985546723815
-0.306,-0.498,-9.423,0.0,2017-02-26 22:59:56,22.201131978377656
-0.306,-0.498,-9.462,0.0,2017-02-26 22:59:57,10.7212634422096
-0.229,-0.498,-9.385,0.0,2017-02-26 22:59:58,39.388621075868315
-0.383,-0.574,-9.385,0.0,2017-02-26 22:59:59,17.28718289243669
-0.344,-0.498,-9.423,0.0,2017-02-26 23:00:00,18.43677962609559
-0.383,-0.536,-9.577,0.0,2017-02-26 23:00:01,17.117660508070298
-0.306,-0.498,-9.5,0.0,2017-02-26 23:00:02,36.75423693444452
-0.268,-0.574,-9.385,0.0,2017-02-26 23:00:03,16.617424559080092
-0.268,-0.498,-9.538,0.0,2017-02-26 23:00:04,7.90554534863749
-0.344,-0.536,-9.5,0.0,2017-02-26 23:00:05,43.29921698832181
-0.268,-0.574,-9.385,0.0,2017-02-26 23:00:07,23.817089654942443
-0.344,-0.536,-9.462,0.0,2017-02-26 23:00:08,32.72331218104729
-0.306,-0.574,-9.385,0.0,2017-02-26 23:00:09,28.159239066428825
-0.306,-0.459,-9.462,0.0,2017-02-26 23:00:10,9.808818010280612
-0.268,-0.498,-9.347,0.0,2017-02-26 23:00:11,8.657445936062832
-0.268,-0.498,-9.423,0.0,2017-02-26 23:00:12,6.78831240594686
-0.306,-0.536,-9.385,0.0,2017-02-26 23:00:13,28.441536594687364
-0.306,-0.536,-9.423,0.0,2017-02-26 23:00:14,33.651408756938864
-0.344,-0.498,-9.423,0.0,2017-02-26 23:00:15,35.01044143634519
-0.306,-0.536,-9.385,0.0,2017-02-26 23:00:16,13.403550220382668
-0.344,-0.612,-9.423,0.0,2017-02-26 23:00:17,7.99663565074202
-0.268,-0.498,-9.5,0.0,2017-02-26 23:00:18,7.577458574626047
-0.268,-0.498,-9.423,0.0,2017-02-26 23:00:19,7.987207638438606
-0.268,-0.536,-9.462,0.0,2017-02-26 23:00:20,8.017439412904148
-0.306,-0.459,-9.308,0.0,2017-02-26 23:00:21,8.577564051832296
-0.268,-0.459,-9.385,0.0,2017-02-26 23:00:22,9.508837531726238
-0.306,-0.574,-9.385,0.0,2017-02-26 23:00:23,13.535563626552564
-0.306,-0.459,-9.423,0.0,2017-02-26 23:00:24,7.55815326581602
-0.306,-0.498,-9.423,0.0,2017-02-26 23:00:25,6.821062781938187
-0.306,-0.498,-9.5,0.0,2017-02-26 23:00:26,30.37843020999749
-0.306,-0.536,-9.423,0.0,2017-02-26 23:00:27,20.118024682915635
-0.306,-0.421,-9.462,0.0,2017-02-26 23:00:28,32.5313465672763
-0.306,-0.574,-9.347,0.0,2017-02-26 23:00:29,12.327380920464826
-0.344,-0.536,-9.385,0.0,2017-02-26 23:00:30,7.016758977119437
-0.306,-0.536,-9.347,0.0,2017-02-26 23:00:31,7.119225073299184
-0.344,-0.459,-9.423,0.0,2017-02-26 23:00:32,7.458795602039972
-0.306,-0.536,-9.462,0.0,2017-02-26 23:00:33,7.245798461528156
-0.421,-0.536,-9.423,0.0,2017-02-26 23:00:34,7.48990076384492
-0.306,-0.536,-9.347,0.0,2017-02-26 23:00:35,30.724549043149647
-0.344,-0.498,-9.423,0.0,2017-02-26 23:00:37,17.60132279561725
-0.306,-0.574,-9.423,0.0,2017-02-26 23:00:38,7.712400119661298
-0.268,-0.574,-9.538,0.0,2017-02-26 23:00:39,38.29171051461424
-0.306,-0.498,-9.538,0.0,2017-02-26 23:00:40,39.990689168982115
-0.306,-0.536,-9.423,0.0,2017-02-26 23:00:41,37.461924531809984
-0.306,-0.536,-9.462,0.0,2017-02-26 23:00:42,36.49041397040626
-0.344,-0.536,-9.423,0.0,2017-02-26 23:00:43,35.48354383682828
-0.383,-0.536,-9.385,0.0,2017-02-26 23:00:44,14.658502890394553
-0.344,-0.536,-9.347,0.0,2017-02-26 23:00:45,7.979110162844101
-0.229,-0.574,-9.423,0.0,2017-02-26 23:00:46,41.01817161463692
-0.306,-0.574,-9.423,0.0,2017-02-26 23:00:47,48.6231588287924
-0.268,-0.498,-9.462,0.0,2017-02-26 23:00:48,39.521117171263924
-0.344,-0.383,-9.423,0.0,2017-02-26 23:00:49,28.55725545086171
-0.306,-0.536,-9.385,0.0,2017-02-26 23:00:50,41.89645319926208
-0.344,-0.459,-9.423,0.0,2017-02-26 23:00:51,39.61168451581916
-0.344,-0.536,-9.347,0.0,2017-02-26 23:00:52,40.46605351848506
-0.268,-0.459,-9.5,0.0,2017-02-26 23:00:53,13.54607332918222
-0.344,-0.498,-9.385,0.0,2017-02-26 23:00:54,7.5320290882778504
-0.421,-0.536,-9.27,0.0,2017-02-26 23:00:55,40.5341186557354
-0.268,-0.498,-9.385,0.0,2017-02-26 23:00:56,40.76995126866126
-0.344,-0.383,-9.462,0.0,2017-02-26 23:00:57,37.45933919750654
-0.344,-0.498,-9.462,0.0,2017-02-26 23:00:58,15.5591355392257
-0.306,-0.498,-9.385,0.0,2017-02-26 23:00:59,39.82987353661707
-0.344,-0.498,-9.385,0.0,2017-02-26 23:01:00,35.42452433886407
-0.344,-0.498,-9.232,0.0,2017-02-26 23:01:01,35.33790174125351
-0.306,-0.536,-9.423,0.0,2017-02-26 23:01:02,10.451930500380337
-0.306,-0.498,-9.462,0.0,2017-02-26 23:01:03,7.75314568307012
-0.306,-0.498,-9.5,0.0,2017-02-26 23:01:04,51.52223754523905
-0.268,-0.459,-9.423,0.0,2017-02-26 23:01:05,39.20421685013868
-0.344,-0.498,-9.5,0.0,2017-02-26 23:01:06,14.565083703178093
-0.344,-0.498,-9.423,0.0,2017-02-26 23:01:07,8.797296295236048
-0.268,-0.498,-9.385,0.0,2017-02-26 23:01:08,7.745312214846573
-0.268,-0.498,-9.385,0.0,2017-02-26 23:01:09,51.08194643219328
-0.344,-0.498,-9.423,0.0,2017-02-26 23:01:10,49.071222570113974
-0.344,-0.536,-9.462,0.0,2017-02-26 23:01:11,30.84421613971831
-0.268,-0.536,-9.423,0.0,2017-02-26 23:01:13,8.444917374141736
-0.344,-0.498,-9.5,0.0,2017-02-26 23:01:14,8.67589468731672
-0.344,-0.498,-9.423,0.0,2017-02-26 23:01:15,8.984530625447217
-0.306,-0.459,-9.423,0.0,2017-02-26 23:01:16,14.850917266271267
-0.306,-0.421,-9.423,0.0,2017-02-26 23:01:17,11.670633681105496
-0.306,-0.498,-9.538,0.0,2017-02-26 23:01:18,21.864563744181748
-0.229,-0.459,-9.308,0.0,2017-02-26 23:01:19,10.362342261111577
-0.421,-0.498,-9.347,0.0,2017-02-26 23:01:20,18.106695442558628
-0.344,-0.498,-9.423,0.0,2017-02-26 23:01:21,9.397239498835145
-0.306,-0.536,-9.423,0.0,2017-02-26 23:01:22,8.428504798080308
-0.306,-0.498,-9.385,0.0,2017-02-26 23:01:23,7.139759129609771
-0.306,-0.498,-9.423,0.0,2017-02-26 23:01:24,7.862743765706178
-0.306,-0.498,-9.385,0.0,2017-02-26 23:01:25,7.350871646801968
-0.383,-0.459,-9.462,0.0,2017-02-26 23:01:26,7.749586767178891
-0.268,-0.536,-9.423,0.0,2017-02-26 23:01:27,7.507252950715607
-0.344,-0.498,-9.385,0.0,2017-02-26 23:01:28,7.916522782144697
-0.268,-0.536,-9.347,0.0,2017-02-26 23:01:29,8.008727384267424
-0.306,-0.498,-9.385,0.0,2017-02-26 23:01:30,8.423629877047572
-0.344,-0.498,-9.462,0.0,2017-02-26 23:01:31,7.338364957614353
-0.383,-0.536,-9.347,0.0,2017-02-26 23:01:32,8.042805593705065
-0.383,-0.574,-9.653,0.0,2017-02-26 23:01:33,7.3281766857492965
-0.229,-0.421,-9.462,0.0,2017-02-26 23:01:34,14.32352241702711
-0.306,-0.459,-9.538,0.0,2017-02-26 23:01:35,7.979110162844101
-0.344,-0.459,-9.423,0.0,2017-02-26 23:01:36,8.87162181373251
-0.306,-0.574,-9.308,0.0,2017-02-26 23:01:37,11.024390657203604
-0.229,-0.421,-9.347,0.0,2017-02-26 23:01:38,7.567074073099921
-0.268,-0.498,-9.385,0.0,2017-02-26 23:01:39,7.581901485314331
-0.229,-0.612,-9.423,0.0,2017-02-26 23:01:40,7.6900787094377385
-0.268,-0.459,-9.423,0.0,2017-02-26 23:01:41,7.0828476338762405
-0.306,-0.498,-9.423,0.0,2017-02-26 23:01:42,7.3250370182935365
-0.268,-0.498,-9.385,0.0,2017-02-26 23:01:44,7.116754449461416
-0.306,-0.536,-9.462,0.0,2017-02-26 23:01:45,7.698732870027822
-0.306,-0.574,-9.538,0.0,2017-02-26 23:01:46,7.942483517482439
-0.344,-0.498,-9.423,0.0,2017-02-26 23:01:47,7.196743290597436
-0.306,-0.574,-9.385,0.0,2017-02-26 23:01:48,7.733178085509368
-0.306,-0.498,-9.423,0.0,2017-02-26 23:01:49,7.500471218900944
-0.306,-0.459,-9.385,0.0,2017-02-26 23:01:50,38.96578636749364
-0.306,-0.498,-9.462,0.0,2017-02-26 23:01:51,25.398133849023846
-0.344,-0.498,-9.385,0.0,2017-02-26 23:01:52,9.967646997385199
-0.191,-0.498,-9.462,0.0,2017-02-26 23:01:53,6.9778085382841954
-0.306,-0.498,-9.385,0.0,2017-02-26 23:01:54,9.162482679958067
-0.344,-0.536,-9.5,0.0,2017-02-26 23:01:55,7.306939749450741
-0.306,-0.536,-9.385,0.0,2017-02-26 23:01:56,7.461840078027974
-0.344,-0.459,-9.27,0.0,2017-02-26 23:01:57,7.195934473234258
-0.268,-0.498,-9.5,0.0,2017-02-26 23:01:58,7.46488242128306
-0.306,-0.498,-9.423,0.0,2017-02-26 23:01:59,7.044488040852478
-0.306,-0.459,-9.423,0.0,2017-02-26 23:02:00,7.465642674207372
-0.306,-0.498,-9.423,0.0,2017-02-26 23:02:01,7.429766135446064
-0.268,-0.459,-9.385,0.0,2017-02-26 23:02:02,7.425164745484595
-0.229,-0.498,-9.347,0.0,2017-02-26 23:02:03,7.9041712164257305
-0.306,-0.459,-9.423,0.0,2017-02-26 23:02:04,8.416307220004557
-0.383,-0.498,-9.423,0.0,2017-02-26 23:02:05,51.69130648884198
-0.229,-0.612,-9.462,0.0,2017-02-26 23:02:06,37.262353383167365
-0.229,-0.536,-9.462,0.0,2017-02-26 23:02:07,6.991396174925989
-0.306,-0.536,-9.423,0.0,2017-02-26 23:02:08,6.926472895417438
-0.306,-0.536,-9.5,0.0,2017-02-26 23:02:09,7.784339021878956
-0.383,-0.536,-9.5,0.0,2017-02-26 23:02:10,13.834506837082685
-0.344,-0.498,-9.538,0.0,2017-02-26 23:02:11,7.48990076384492
-0.306,-0.498,-9.347,0.0,2017-02-26 23:02:12,7.254585808039269
-0.268,-0.536,-9.423,0.0,2017-02-26 23:02:13,7.339930264828642
-0.306,-0.459,-9.423,0.0,2017-02-26 23:02:15,7.220133708314306
-0.306,-0.459,-9.5,0.0,2017-02-26 23:02:16,7.5177813069482715
-0.306,-0.536,-9.385,0.0,2017-02-26 23:02:17,7.421326526216622
-0.344,-0.536,-9.462,0.0,2017-02-26 23:02:18,7.739606259262718
-0.229,-0.498,-9.423,0.0,2017-02-26 23:02:19,7.7023336867659244
-0.306,-0.498,-9.462,0.0,2017-02-26 23:02:20,7.7438864286160936
-0.344,-0.498,-9.423,0.0,2017-02-26 23:02:21,8.033477387070848
-0.383,-0.498,-9.577,0.0,2017-02-26 23:02:22,39.95997897646409
-0.306,-0.536,-9.423,0.0,2017-02-26 23:02:23,29.7820370666177
-0.306,-0.574,-9.462,0.0,2017-02-26 23:02:24,43.181536336735476
-0.306,-0.536,-9.347,0.0,2017-02-26 23:02:25,23.38162625985828
-0.383,-0.536,-9.5,0.0,2017-02-26 23:02:26,53.2454627361121
-0.383,-0.459,-9.538,0.0,2017-02-26 23:02:27,32.18829773594236
-0.344,-0.536,-9.462,0.0,2017-02-26 23:02:28,7.526785342279311
-0.344,-0.574,-9.462,0.0,2017-02-26 23:02:29,45.92972584335104
-0.383,-0.498,-9.423,0.0,2017-02-26 23:02:30,41.3034071137068
-0.306,-0.536,-9.423,0.0,2017-02-26 23:02:31,25.799353588760265
-0.344,-0.498,-9.423,0.0,2017-02-26 23:02:32,45.44576939394162
-0.268,-0.536,-9.423,0.0,2017-02-26 23:02:33,47.439714837903814
-0.383,-0.536,-9.462,0.0,2017-02-26 23:02:34,29.237927953216737
-0.306,-0.574,-9.385,0.0,2017-02-26 23:02:35,7.36723220811816
-0.383,-0.498,-9.423,0.0,2017-02-26 23:02:36,7.774438150066548
-0.306,-0.459,-9.5,0.0,2017-02-26 23:02:37,8.299316383182969
-0.306,-0.536,-9.385,0.0,2017-02-26 23:02:38,7.419021965367091
-0.229,-0.498,-9.5,0.0,2017-02-26 23:02:39,7.09611107558527
-0.306,-0.536,-9.385,0.0,2017-02-26 23:02:40,7.376553502669179
-0.306,-0.536,-9.462,0.0,2017-02-26 23:02:41,7.533526139247185
-0.268,-0.498,-9.347,0.0,2017-02-26 23:02:42,7.848150289905513
-0.306,-0.498,-9.385,0.0,2017-02-26 23:02:43,7.981135947605561
-0.306,-0.459,-9.385,0.0,2017-02-26 23:02:44,7.802666685062646
-0.268,-0.536,-9.423,0.0,2017-02-26 23:02:45,26.705067689617575
-0.306,-0.536,-9.462,0.0,2017-02-26 23:02:46,7.941802324661809
-0.268,-0.536,-9.462,0.0,2017-02-26 23:02:47,7.529782543791667
-0.306,-0.536,-9.347,0.0,2017-02-26 23:02:48,7.6370577361839755
-0.268,-0.498,-9.423,0.0,2017-02-26 23:02:49,40.037793433409526
-0.229,-0.498,-9.5,0.0,2017-02-26 23:02:51,36.13686388163917
-0.306,-0.536,-9.462,0.0,2017-02-26 23:02:52,14.714578867686761
-0.344,-0.498,-9.462,0.0,2017-02-26 23:02:53,7.064544007928852
-0.229,-0.459,-9.385,0.0,2017-02-26 23:02:54,7.484605872701676
-0.268,-0.459,-9.385,0.0,2017-02-26 23:02:55,29.595723773717086
-0.306,-0.498,-9.385,0.0,2017-02-26 23:02:56,13.373422480926147
-0.344,-0.498,-9.385,0.0,2017-02-26 23:02:57,34.00291713243307
-0.268,-0.459,-9.423,0.0,2017-02-26 23:02:58,29.062624203896323
-0.268,-0.498,-9.423,0.0,2017-02-26 23:02:59,12.423103839275612
-0.383,-0.459,-9.385,0.0,2017-02-26 23:03:00,13.87761637465992
-0.344,-0.574,-9.308,0.0,2017-02-26 23:03:01,39.558657203240905
-0.306,-0.459,-9.347,0.0,2017-02-26 23:03:02,41.41402245343272
-0.268,-0.498,-9.385,0.0,2017-02-26 23:03:03,22.248622155088498
-0.344,-0.498,-9.5,0.0,2017-02-26 23:03:04,8.209937877371976
-0.383,-0.574,-9.423,0.0,2017-02-26 23:03:05,39.781261054154506
-0.268,-0.498,-9.538,0.0,2017-02-26 23:03:06,40.30728874253499
-0.268,-0.536,-9.423,0.0,2017-02-26 23:03:07,44.80546175918982
-0.344,-0.536,-9.423,0.0,2017-02-26 23:03:08,25.833891967098523
-0.268,-0.498,-9.385,0.0,2017-02-26 23:03:09,40.75057776809933
-0.306,-0.498,-9.423,0.0,2017-02-26 23:03:10,45.473690950633724
-0.306,-0.459,-9.423,0.0,2017-02-26 23:03:11,28.23534721942039
-0.344,-0.574,-9.385,0.0,2017-02-26 23:03:12,6.9641782569694675
-0.344,-0.536,-9.347,0.0,2017-02-26 23:03:13,7.648734287849748
-0.306,-0.536,-9.423,0.0,2017-02-26 23:03:14,7.394363589292491
-0.344,-0.421,-9.577,0.0,2017-02-26 23:03:15,8.957116686316008
-0.268,-0.536,-9.347,0.0,2017-02-26 23:03:16,17.36987527340544
-0.306,-0.421,-9.385,0.0,2017-02-26 23:03:17,7.655288578248004
-0.306,-0.574,-9.462,0.0,2017-02-26 23:03:18,13.443845973149166
-0.421,-0.536,-9.347,0.0,2017-02-26 23:03:19,7.72029312357025
-0.306,-0.498,-9.5,0.0,2017-02-26 23:03:20,22.26023127736137
-0.344,-0.498,-9.385,0.0,2017-02-26 23:03:21,10.79499216396352
-0.306,-0.498,-9.385,0.0,2017-02-26 23:03:22,8.588730706818712
-0.344,-0.498,-9.423,0.0,2017-02-26 23:03:23,34.550408018994894
-0.344,-0.459,-9.385,0.0,2017-02-26 23:03:24,29.49603441645756
-0.306,-0.498,-9.423,0.0,2017-02-26 23:03:25,21.736869485810153
-0.268,-0.498,-9.462,0.0,2017-02-26 23:03:26,27.357072539797514
-0.268,-0.498,-9.385,0.0,2017-02-26 23:03:28,41.54931664033876
-0.268,-0.459,-9.462,0.0,2017-02-26 23:03:29,33.611560099143304
-0.306,-0.459,-9.347,0.0,2017-02-26 23:03:30,31.90895542691317
-0.306,-0.498,-9.385,0.0,2017-02-26 23:03:31,35.68603645567455
-0.268,-0.536,-9.423,0.0,2017-02-26 23:03:32,44.633174135737654
-0.268,-0.459,-9.423,0.0,2017-02-26 23:03:33,32.367748390529165
-0.344,-0.536,-9.423,0.0,2017-02-26 23:03:34,25.437601484077295
-0.306,-0.498,-9.423,0.0,2017-02-26 23:03:35,46.043423106364656
-0.268,-0.536,-9.462,0.0,2017-02-26 23:03:36,35.3901149601798
-0.268,-0.689,-9.462,0.0,2017-02-26 23:03:37,24.71384834590522
-0.306,-0.421,-9.385,0.0,2017-02-26 23:03:38,32.018847169325994
-0.268,-0.383,-9.385,0.0,2017-02-26 23:03:39,52.20147518790897
-0.268,-0.574,-9.385,0.0,2017-02-26 23:03:40,40.32657629827117
-0.306,-0.498,-9.385,0.0,2017-02-26 23:03:41,33.595525846829226
-0.344,-0.536,-9.5,0.0,2017-02-26 23:03:42,41.91349722513124
-0.344,-0.498,-9.347,0.0,2017-02-26 23:03:43,49.05391143402038
-0.306,-0.536,-9.462,0.0,2017-02-26 23:03:44,52.24490150699806
-0.344,-0.574,-9.462,0.0,2017-02-26 23:03:45,41.743875853797206
-0.383,-0.459,-9.462,0.0,2017-02-26 23:03:46,51.184764739027415
-0.344,-0.498,-9.347,0.0,2017-02-26 23:03:47,36.248476851143316
-0.344,-0.574,-9.462,0.0,2017-02-26 23:03:48,38.89511575380406
-0.306,-0.498,-9.423,0.0,2017-02-26 23:03:49,29.843453229878353
-0.306,-0.498,-9.385,0.0,2017-02-26 23:03:50,40.33942986712123
-0.306,-0.536,-9.423,0.0,2017-02-26 23:03:51,49.155194678032316
-0.306,-0.459,-9.423,0.0,2017-02-26 23:03:52,51.40622364305845
-0.306,-0.536,-9.27,0.0,2017-02-26 23:03:53,35.88142756526005
-0.344,-0.498,-9.5,0.0,2017-02-26 23:03:54,31.05551762750715
-0.344,-0.421,-9.308,0.0,2017-02-26 23:03:55,19.475993156335687
-0.344,-0.574,-9.308,0.0,2017-02-26 23:03:56,8.415085575884255
-0.306,-0.498,-9.538,0.0,2017-02-26 23:03:58,8.235480928913361
-0.268,-0.536,-9.385,0.0,2017-02-26 23:03:59,8.109514749061292
-0.306,-0.536,-9.5,0.0,2017-02-26 23:04:00,7.8558006070426325
-0.268,-0.459,-9.423,0.0,2017-02-26 23:04:01,42.281726250712886
-0.268,-0.459,-9.385,0.0,2017-02-26 23:04:02,42.15129230680891
-0.306,-0.498,-9.385,0.0,2017-02-26 23:04:03,42.42070618273773
-0.383,-0.498,-9.615,0.0,2017-02-26 23:04:04,35.29745819949029
-0.306,-0.536,-9.5,0.0,2017-02-26 23:04:05,8.760215299196677
-0.383,-0.536,-9.347,0.0,2017-02-26 23:04:06,7.5848609026820215
-0.306,-0.536,-9.423,0.0,2017-02-26 23:04:07,7.422862221005973
-0.344,-0.498,-9.462,0.0,2017-02-26 23:04:08,7.770187999847355
-0.306,-0.498,-9.347,0.0,2017-02-26 23:04:09,7.339930264828642
-0.306,-0.498,-9.462,0.0,2017-02-26 23:04:10,9.172756980512986
-0.229,-0.459,-9.385,0.0,2017-02-26 23:04:11,7.576717647418069
-0.306,-0.498,-9.347,0.0,2017-02-26 23:04:12,46.9563675030826
-0.268,-0.498,-9.347,0.0,2017-02-26 23:04:13,22.283457115158033
-0.268,-0.459,-9.385,0.0,2017-02-26 23:04:14,7.638519023148984
-0.344,-0.459,-9.308,0.0,2017-02-26 23:04:15,8.13174272530489
-0.306,-0.498,-9.385,0.0,2017-02-26 23:04:16,7.4259319824478185
-0.344,-0.612,-9.423,0.0,2017-02-26 23:04:17,6.904037605052073
-0.306,-0.421,-9.423,0.0,2017-02-26 23:04:18,25.420214153289315
-0.344,-0.498,-9.462,0.0,2017-02-26 23:04:19,19.22168734474039
-0.306,-0.612,-9.385,0.0,2017-02-26 23:04:20,27.00805087553698
-0.344,-0.536,-9.462,0.0,2017-02-26 23:04:21,36.61485374054633
-0.306,-0.574,-9.423,0.0,2017-02-26 23:04:22,18.160146141286162
-0.191,-0.459,-9.615,0.0,2017-02-26 23:04:23,14.33510444481586
-0.268,-0.536,-9.347,0.0,2017-02-26 23:04:24,7.650191651896656
-0.306,-0.459,-9.423,0.0,2017-02-26 23:04:25,22.354939244897235
-0.344,-0.498,-9.538,0.0,2017-02-26 23:04:26,8.663796537793885
-0.268,-0.459,-9.385,0.0,2017-02-26 23:04:27,27.795485818579742
-0.344,-0.459,-9.385,0.0,2017-02-26 23:04:28,15.890590270976643
-0.268,-0.498,-9.423,0.0,2017-02-26 23:04:29,8.024129101255568
-0.268,-0.574,-9.347,0.0,2017-02-26 23:04:30,7.864131066410845
-0.306,-0.498,-9.462,0.0,2017-02-26 23:04:31,7.079525434579386
-0.306,-0.459,-9.462,0.0,2017-02-26 23:04:33,8.553961032762587
-0.344,-0.536,-9.347,0.0,2017-02-26 23:04:34,47.82723318954902
-0.344,-0.498,-9.232,0.0,2017-02-26 23:04:35,21.08546526080749
-0.306,-0.498,-9.347,0.0,2017-02-26 23:04:36,43.32038383901333
-0.421,-0.536,-9.155,0.0,2017-02-26 23:04:37,40.35983432631891
-0.268,-0.536,-9.5,0.0,2017-02-26 23:04:38,42.143695363907234
-0.383,-0.536,-9.385,0.0,2017-02-26 23:04:39,18.315598531352492
-0.306,-0.498,-9.423,0.0,2017-02-26 23:04:40,25.629999227255674
-0.306,-0.498,-9.5,0.0,2017-02-26 23:04:41,37.90122154784206
-0.229,-0.536,-9.423,0.0,2017-02-26 23:04:42,41.19372247686647
-0.383,-0.536,-9.5,0.0,2017-02-26 23:04:43,35.77362077355515
-0.268,-0.498,-9.462,0.0,2017-02-26 23:04:44,20.84391233313289
-0.268,-0.459,-9.385,0.0,2017-02-26 23:04:45,7.4929235200616295
-0.229,-0.459,-9.423,0.0,2017-02-26 23:04:46,7.663285967803381
-0.344,-0.498,-9.423,0.0,2017-02-26 23:04:47,35.4721771151644
-0.306,-0.421,-9.692,0.0,2017-02-26 23:04:48,16.196598079720694
-0.306,-0.536,-9.385,0.0,2017-02-26 23:04:49,19.033337850795434
-0.268,-0.459,-9.347,0.0,2017-02-26 23:04:50,42.70027666034122
-0.306,-0.536,-9.462,0.0,2017-02-26 23:04:51,13.011148105225466
-0.344,-0.459,-9.423,0.0,2017-02-26 23:04:52,32.73018462546754
-0.268,-0.498,-9.5,0.0,2017-02-26 23:04:53,44.58987843133353
-0.306,-0.498,-9.385,0.0,2017-02-26 23:04:54,38.72556009911933
-0.306,-0.536,-9.462,0.0,2017-02-26 23:04:55,32.11290310853752
-0.306,-0.498,-9.577,0.0,2017-02-26 23:04:56,35.431732083768004
-0.229,-0.498,-9.27,0.0,2017-02-26 23:04:57,8.506366640602817
-0.383,-0.459,-9.462,0.0,2017-02-26 23:04:58,37.49857571582696
-0.229,-0.536,-9.423,0.0,2017-02-26 23:04:59,28.591752518625032
-0.306,-0.536,-9.423,0.0,2017-02-26 23:05:00,45.03480223122084
-0.268,-0.536,-9.347,0.0,2017-02-26 23:05:01,37.10921365519997
-0.306,-0.536,-9.308,0.0,2017-02-26 23:05:03,9.815460970050848
-0.306,-0.498,-9.423,0.0,2017-02-26 23:05:04,8.035477975890423
-0.306,-0.459,-9.5,0.0,2017-02-26 23:05:05,48.16582769870405
-0.306,-0.421,-9.462,0.0,2017-02-26 23:05:06,35.38975451583906
-0.306,-0.459,-9.462,0.0,2017-02-26 23:05:07,27.823025246607855
-0.344,-0.536,-9.347,0.0,2017-02-26 23:05:08,49.18057519292233
-0.306,-0.498,-9.385,0.0,2017-02-26 23:05:09,33.79661133472994
-0.344,-0.536,-9.462,0.0,2017-02-26 23:05:10,24.939588041818244
-0.344,-0.498,-9.423,0.0,2017-02-26 23:05:11,17.568559094423687
-0.306,-0.498,-9.423,0.0,2017-02-26 23:05:12,28.9376122040281
-0.383,-0.498,-9.462,0.0,2017-02-26 23:05:13,13.524274936353875
-0.383,-0.459,-9.423,0.0,2017-02-26 23:05:14,42.44393634283986
-0.306,-0.498,-9.385,0.0,2017-02-26 23:05:15,39.11130079375698
-0.344,-0.498,-9.462,0.0,2017-02-26 23:05:16,42.297946169597296
-0.306,-0.536,-9.462,0.0,2017-02-26 23:05:17,17.617208676074153
-0.268,-0.459,-9.462,0.0,2017-02-26 23:05:18,36.039508181864456
-0.306,-0.498,-9.423,0.0,2017-02-26 23:05:19,37.09299532099269
-0.306,-0.574,-9.385,0.0,2017-02-26 23:05:20,35.63881840418057
-0.268,-0.459,-9.308,0.0,2017-02-26 23:05:21,33.71422891460259
-0.383,-0.498,-9.423,0.0,2017-02-26 23:05:22,28.940525333220734
-0.306,-0.498,-9.462,0.0,2017-02-26 23:05:23,17.82868564893386
-0.306,-0.498,-9.423,0.0,2017-02-26 23:05:24,8.689680001848007
-0.306,-0.536,-9.423,0.0,2017-02-26 23:05:25,7.8244182919493666
-0.383,-0.498,-9.5,0.0,2017-02-26 23:05:26,30.500416161489664
-0.344,-0.536,-9.462,0.0,2017-02-26 23:05:27,46.231873650902706
-0.344,-0.459,-9.462,0.0,2017-02-26 23:05:28,28.368746224721157
-0.229,-0.498,-9.5,0.0,2017-02-26 23:05:29,8.160988255478058
-0.306,-0.536,-9.385,0.0,2017-02-26 23:05:30,7.863437471453045
-0.306,-0.498,-9.385,0.0,2017-02-26 23:05:31,7.6399798185946555
-0.268,-0.536,-9.462,0.0,2017-02-26 23:05:32,7.457272563336293
-0.306,-0.459,-9.385,0.0,2017-02-26 23:05:33,7.55815326581602
-0.383,-0.498,-9.385,0.0,2017-02-26 23:05:34,7.286390745636676
-0.344,-0.498,-9.462,0.0,2017-02-26 23:05:36,8.144765058357336
-0.383,-0.459,-9.423,0.0,2017-02-26 23:05:37,7.32582214797461
-0.344,-0.536,-9.462,0.0,2017-02-26 23:05:38,7.520034066479564
-0.306,-0.498,-9.423,0.0,2017-02-26 23:05:39,47.943288753940834
-0.306,-0.574,-9.385,0.0,2017-02-26 23:05:40,21.49703116814349
-0.306,-0.459,-9.423,0.0,2017-02-26 23:05:41,25.74491330873068
-0.229,-0.498,-9.385,0.0,2017-02-26 23:05:42,13.35308993900782
-0.268,-0.498,-9.462,0.0,2017-02-26 23:05:43,33.36002934117942
-0.344,-0.459,-9.462,0.0,2017-02-26 23:05:44,34.177695262558686
-0.421,-0.536,-9.462,0.0,2017-02-26 23:05:45,13.828363436294051
-0.344,-0.498,-9.27,0.0,2017-02-26 23:05:46,8.629625027989148
-0.306,-0.536,-9.5,0.0,2017-02-26 23:05:47,7.20078511947831
-0.306,-0.498,-9.308,0.0,2017-02-26 23:05:48,7.823018245251545
-0.344,-0.498,-9.347,0.0,2017-02-26 23:05:49,7.583381446078025
-0.268,-0.498,-9.423,0.0,2017-02-26 23:05:50,41.77611228041844
-0.421,-0.498,-9.462,0.0,2017-02-26 23:05:51,16.9912265915753
-0.306,-0.536,-9.385,0.0,2017-02-26 23:05:52,34.734453405783825
-0.344,-0.459,-9.385,0.0,2017-02-26 23:05:53,39.11978575987271
-0.383,-0.498,-9.385,0.0,2017-02-26 23:05:54,28.93562929239127
-0.268,-0.536,-9.347,0.0,2017-02-26 23:05:55,48.07696855529987
-0.306,-0.498,-9.423,0.0,2017-02-26 23:05:56,30.579634772778597
-0.383,-0.536,-9.5,0.0,2017-02-26 23:05:57,8.263405849329619
-0.268,-0.498,-9.385,0.0,2017-02-26 23:05:58,7.270517391639025
-0.344,-0.536,-9.347,0.0,2017-02-26 23:05:59,49.089055432328436
-0.268,-0.536,-9.347,0.0,2017-02-26 23:06:00,40.83538696161177
-0.306,-0.498,-9.462,0.0,2017-02-26 23:06:01,20.469057489221036
-0.268,-0.498,-9.423,0.0,2017-02-26 23:06:02,43.33324076504773
-0.306,-0.498,-9.308,0.0,2017-02-26 23:06:03,50.9489043902728
-0.344,-0.459,-9.385,0.0,2017-02-26 23:06:04,33.982461123102226
-0.268,-0.498,-9.423,0.0,2017-02-26 23:06:05,50.5242932431927
-0.268,-0.459,-9.385,0.0,2017-02-26 23:06:06,47.232788944603726
-0.344,-0.574,-9.423,0.0,2017-02-26 23:06:07,38.299175840654755
-0.383,-0.459,-9.385,0.0,2017-02-26 23:06:08,22.164648718294533
-0.306,-0.536,-9.462,0.0,2017-02-26 23:06:09,34.206948222048894
-0.306,-0.498,-9.347,0.0,2017-02-26 23:06:11,33.31366591335899
-0.383,-0.459,-9.423,0.0,2017-02-26 23:06:12,11.056099652372488
-0.459,-0.498,-9.423,0.0,2017-02-26 23:06:13,32.150641254559595
-0.306,-0.498,-9.423,0.0,2017-02-26 23:06:14,31.009733134057235
-0.306,-0.498,-9.462,0.0,2017-02-26 23:06:15,18.583444817550138
-0.344,-0.536,-9.423,0.0,2017-02-26 23:06:16,8.036811189966599
-0.344,-0.536,-9.5,0.0,2017-02-26 23:06:17,8.202245574574466
-0.306,-0.421,-9.462,0.0,2017-02-26 23:06:18,8.338042740577015
-0.383,-0.459,-9.423,0.0,2017-02-26 23:06:19,8.172631546149118
-0.344,-0.459,-9.385,0.0,2017-02-26 23:06:20,38.050168710079355
-0.306,-0.421,-9.462,0.0,2017-02-26 23:06:21,11.502586054677462
-0.306,-0.421,-9.423,0.0,2017-02-26 23:06:22,8.485980005921915
-0.344,-0.536,-9.462,0.0,2017-02-26 23:06:23,36.638402816174874
-0.344,-0.459,-9.385,0.0,2017-02-26 23:06:24,18.754343249351535
-0.268,-0.498,-9.423,0.0,2017-02-26 23:06:25,7.353992699626938
-0.268,-0.498,-9.347,0.0,2017-02-26 23:06:26,39.65941641590711
-0.383,-0.536,-9.347,0.0,2017-02-26 23:06:27,18.07470282839374
-0.306,-0.536,-9.423,0.0,2017-02-26 23:06:28,7.55294098679633
-0.383,-0.498,-9.462,0.0,2017-02-26 23:06:29,30.084953775925356
-0.421,-0.536,-10.611,0.0,2017-02-26 23:06:30,16.550652405354093
-0.191,-0.459,-9.423,0.0,2017-02-26 23:06:31,47.878819571725934
-0.229,-0.498,-9.462,0.0,2017-02-26 23:06:32,41.03237240688071
0.651,-1.34,-9.117,0.0,2017-02-26 23:06:33,42.255300687008024
9.5,1.762,-1.992,0.0,2017-02-26 23:06:34,41.13775500552222
9.653,0.038,0.153,0.0,2017-02-26 23:06:35,36.183937922334444
9.692,-0.038,-0.459,0.0,2017-02-26 23:06:36,10.976219435464674
9.5,0.0,-0.421,0.0,2017-02-26 23:06:37,10.051855415146429
9.807,0.0,0.114,0.0,2017-02-26 23:06:38,21.163670856910166
9.73,0.038,-0.498,0.0,2017-02-26 23:06:39,10.100613260078958
9.692,0.038,-0.727,0.0,2017-02-26 23:06:40,38.07537604465026
9.347,-0.038,2.566,0.0,2017-02-26 23:06:41,25.381250881505196
9.117,0.038,4.328,0.0,2017-02-26 23:06:42,17.221018455990954
9.538,0.076,2.221,0.0,2017-02-26 23:06:43,9.462046336768855
9.462,0.038,1.877,0.0,2017-02-26 23:06:45,7.168344671206768
-3.869,-0.881,-3.907,0.0,2017-02-26 23:06:46,48.937474458857366
0.651,-0.191,-9.807,0.0,2017-02-26 23:06:47,47.526474189194225
-0.076,-0.498,-8.734,0.0,2017-02-26 23:06:48,27.653869321168894
-0.881,0.344,-9.155,0.0,2017-02-26 23:06:49,46.23940976906687
0.766,0.114,-9.538,0.0,2017-02-26 23:06:50,45.89325474028465
0.612,0.114,-9.347,0.0,2017-02-26 23:06:51,52.70801203005352
0.766,0.191,-9.347,0.0,2017-02-26 23:06:52,36.06278158358826
1.149,0.268,-9.308,0.0,2017-02-26 23:06:53,44.384226065024464
0.804,0.153,-9.385,0.0,2017-02-26 23:06:54,51.23442533832058
0.842,0.191,-9.385,0.0,2017-02-26 23:06:55,48.4752378067128
0.881,0.153,-9.385,0.0,2017-02-26 23:06:56,38.4130177710916
0.919,0.153,-9.347,0.0,2017-02-26 23:06:57,30.742802531609186
0.766,0.153,-9.347,0.0,2017-02-26 23:06:58,29.02420428598305
0.804,0.153,-9.462,0.0,2017-02-26 23:06:59,15.253991472130755
0.766,0.114,-9.308,0.0,2017-02-26 23:07:00,8.17779633916934
0.766,0.191,-9.155,0.0,2017-02-26 23:07:01,51.21952613093689
0.727,0.153,-9.194,0.0,2017-02-26 23:07:02,60.511405098165156
0.804,0.191,-9.308,0.0,2017-02-26 23:07:03,46.17292278397606
0.766,0.076,-9.423,0.0,2017-02-26 23:07:04,51.1506940607285
0.727,0.153,-9.347,0.0,2017-02-26 23:07:05,29.369092073455427
0.766,0.191,-9.27,0.0,2017-02-26 23:07:06,29.754412332004428
0.957,0.114,-9.423,0.0,2017-02-26 23:07:07,50.66173967064975
0.842,0.153,-9.385,0.0,2017-02-26 23:07:08,38.545657127805526
0.842,0.114,-9.385,0.0,2017-02-26 23:07:09,42.009225490517814
0.842,0.229,-9.385,0.0,2017-02-26 23:07:10,27.001626749897035
0.804,0.153,-9.347,0.0,2017-02-26 23:07:11,7.609199453097216
0.804,0.114,-9.423,0.0,2017-02-26 23:07:12,7.836998443446586
0.766,0.191,-9.347,0.0,2017-02-26 23:07:13,8.575798268185675
0.842,0.153,-9.347,0.0,2017-02-26 23:07:14,46.27099762518764
0.842,0.114,-9.308,0.0,2017-02-26 23:07:15,26.99990076041952
0.842,0.076,-9.347,0.0,2017-02-26 23:07:17,7.611405300001
0.804,0.191,-9.308,0.0,2017-02-26 23:07:17,38.17401889637022
0.919,0.114,-9.423,0.0,2017-02-26 23:07:18,23.989414626676684
0.766,0.191,-9.385,0.0,2017-02-26 23:07:20,10.618396065999283
0.881,0.191,-9.347,0.0,2017-02-26 23:07:21,28.227852910068457
0.842,0.191,-9.347,0.0,2017-02-26 23:07:22,8.59283751073612
0.842,0.153,-9.385,0.0,2017-02-26 23:07:23,7.283220712781306
0.804,0.153,-9.347,0.0,2017-02-26 23:07:24,8.67244151076132
0.881,0.153,-9.347,0.0,2017-02-26 23:07:25,7.104380203786133
0.881,0.191,-9.385,0.0,2017-02-26 23:07:26,8.030808500940438
0.804,0.191,-9.308,0.0,2017-02-26 23:07:27,10.8497403145837
0.957,0.229,-9.423,0.0,2017-02-26 23:07:28,28.616708998285727
0.842,0.153,-9.385,0.0,2017-02-26 23:07:29,44.36000645021906
0.881,0.191,-9.308,0.0,2017-02-26 23:07:30,16.967504582958966
0.881,0.153,-9.308,0.0,2017-02-26 23:07:31,7.434362655351982
0.804,0.153,-9.423,0.0,2017-02-26 23:07:32,7.368009747251742
0.842,0.114,-9.577,0.0,2017-02-26 23:07:33,7.289558466286987
0.842,0.191,-9.423,0.0,2017-02-26 23:07:34,7.592988917476346
0.804,0.191,-9.385,0.0,2017-02-26 23:07:35,44.43651807692557
0.842,0.114,-9.347,0.0,2017-02-26 23:07:36,29.600790022588175
0.842,0.114,-9.423,0.0,2017-02-26 23:07:37,42.45905784862459
0.766,0.191,-9.308,0.0,2017-02-26 23:07:38,27.15722684116298
0.842,0.153,-9.27,0.0,2017-02-26 23:07:39,49.018922829847526
0.842,0.114,-9.308,0.0,2017-02-26 23:07:40,36.64889948176647
0.766,0.153,-9.347,0.0,2017-02-26 23:07:41,34.1876934692243
0.842,0.153,-9.308,0.0,2017-02-26 23:07:42,40.12245324245971
0.766,0.153,-9.5,0.0,2017-02-26 23:07:43,7.529033437309597
0.842,0.153,-9.308,0.0,2017-02-26 23:07:44,45.52179542944668
0.842,0.191,-9.423,0.0,2017-02-26 23:07:45,29.651966465298088
0.804,0.191,-9.347,0.0,2017-02-26 23:07:46,8.32059616690863
0.842,0.153,-9.347,0.0,2017-02-26 23:07:47,8.124563763115788
0.804,0.153,-9.347,0.0,2017-02-26 23:07:48,7.709526376086445
0.842,0.153,-9.347,0.0,2017-02-26 23:07:49,37.237139129739724
0.842,0.114,-9.462,0.0,2017-02-26 23:07:50,18.49090554655529
0.766,0.229,-9.423,0.0,2017-02-26 23:07:51,45.43973395647143
0.881,0.153,-9.27,0.0,2017-02-26 23:07:52,36.639005174968375
0.842,0.153,-9.347,0.0,2017-02-26 23:07:53,24.99227828578981
0.881,0.114,-9.27,0.0,2017-02-26 23:07:54,9.152699529035642
0.804,0.153,-9.385,0.0,2017-02-26 23:07:55,7.674892307950555
0.881,0.229,-9.423,0.0,2017-02-26 23:07:57,7.891095229753149
0.842,0.153,-9.385,0.0,2017-02-26 23:07:58,7.511768229048897
0.804,0.114,-9.385,0.0,2017-02-26 23:07:59,7.579680598117361
0.842,0.191,-9.423,0.0,2017-02-26 23:08:00,7.570043608134612
0.804,0.114,-9.27,0.0,2017-02-26 23:08:01,46.811777037302846
0.881,0.153,-9.308,0.0,2017-02-26 23:08:02,32.55076896594406
0.804,0.229,-9.385,0.0,2017-02-26 23:08:03,33.783769608394735
0.804,0.114,-9.385,0.0,2017-02-26 23:08:04,42.57204079414768
0.881,0.153,-9.347,0.0,2017-02-26 23:08:05,27.66583476586522
0.804,0.114,-9.385,0.0,2017-02-26 23:08:06,51.94604212592533
0.842,0.114,-9.385,0.0,2017-02-26 23:08:07,44.52036322130344
0.804,0.191,-9.27,0.0,2017-02-26 23:08:08,32.39682603126449
0.804,0.114,-9.347,0.0,2017-02-26 23:08:09,50.95250688866144
0.804,0.153,-9.347,0.0,2017-02-26 23:08:10,32.023209267262494
0.766,0.153,-9.27,0.0,2017-02-26 23:08:11,43.066355473483114
0.842,0.191,-9.347,0.0,2017-02-26 23:08:12,29.779101761183338
0.881,0.153,-9.423,0.0,2017-02-26 23:08:13,7.606992485241287
0.842,0.153,-9.423,0.0,2017-02-26 23:08:14,7.4220944414903105
0.881,0.191,-9.308,0.0,2017-02-26 23:08:15,8.576386942509727
0.842,0.114,-9.423,0.0,2017-02-26 23:08:16,7.5685590944236845
0.842,0.114,-9.27,0.0,2017-02-26 23:08:17,7.884197285451943
0.842,0.191,-9.347,0.0,2017-02-26 23:08:18,8.116064207125111
0.842,0.191,-9.385,0.0,2017-02-26 23:08:19,8.075297431057937
0.804,0.153,-9.423,0.0,2017-02-26 23:08:20,7.575976593782787
0.842,0.153,-9.423,0.0,2017-02-26 23:08:21,7.990577135712939
0.919,0.191,-9.27,0.0,2017-02-26 23:08:22,7.055363185251818
0.842,0.153,-9.385,0.0,2017-02-26 23:08:23,8.195824898036813
0.804,0.191,-9.423,0.0,2017-02-26 23:08:24,8.989885675224388
0.804,0.153,-9.423,0.0,2017-02-26 23:08:25,7.731033244827516
0.957,0.191,-9.347,0.0,2017-02-26 23:08:26,8.106236312415055
0.842,0.153,-9.308,0.0,2017-02-26 23:08:27,7.745312214846573
0.842,0.191,-9.347,0.0,2017-02-26 23:08:28,9.140310280688665
0.881,0.153,-9.385,0.0,2017-02-26 23:08:29,7.5147758086836625
0.842,0.153,-9.308,0.0,2017-02-26 23:08:31,15.823763407609203
0.804,0.191,-9.308,0.0,2017-02-26 23:08:32,7.516278817807171
0.842,0.153,-9.385,0.0,2017-02-26 23:08:33,8.093097761117733
0.804,0.114,-9.347,0.0,2017-02-26 23:08:34,8.022123276501707
0.804,0.114,-9.385,0.0,2017-02-26 23:08:35,10.971813622714313
0.727,0.191,-9.5,0.0,2017-02-26 23:08:36,7.24019724219195
0.804,0.229,-9.423,0.0,2017-02-26 23:08:37,42.88328057639045
0.727,0.114,-9.538,0.0,2017-02-26 23:08:38,55.1770062708633
0.804,0.191,-9.347,0.0,2017-02-26 23:08:39,35.36543154410753
0.766,0.153,-9.423,0.0,2017-02-26 23:08:40,26.75136325251517
0.881,0.153,-9.308,0.0,2017-02-26 23:08:41,8.081238984522669
0.804,0.153,-9.385,0.0,2017-02-26 23:08:42,55.19687705421211
0.919,0.191,-9.27,0.0,2017-02-26 23:08:43,35.292410652746696
0.881,0.114,-9.385,0.0,2017-02-26 23:08:44,9.215645568522199
0.842,0.191,-9.347,0.0,2017-02-26 23:08:45,7.307728157335093
0.842,0.191,-9.423,0.0,2017-02-26 23:08:46,7.0277036921582745
0.842,0.114,-9.385,0.0,2017-02-26 23:08:47,7.9662582024391995
0.881,0.153,-9.385,0.0,2017-02-26 23:08:48,8.112790712721969
0.804,0.229,-9.347,0.0,2017-02-26 23:08:49,8.442489791731388
0.881,0.153,-9.385,0.0,2017-02-26 23:08:50,31.506683107655824
0.804,0.114,-9.385,0.0,2017-02-26 23:08:51,16.734313219790742
0.842,0.114,-9.347,0.0,2017-02-26 23:08:52,7.828615726057388
0.842,0.191,-9.347,0.0,2017-02-26 23:08:53,8.16551991180832
0.804,0.153,-9.385,0.0,2017-02-26 23:08:54,43.673619823798475
0.881,0.153,-9.423,0.0,2017-02-26 23:08:55,26.252139484669705
0.842,0.153,-9.385,0.0,2017-02-26 23:08:56,14.759179280281607
0.881,0.191,-9.385,0.0,2017-02-26 23:08:57,28.637566357916604
0.842,0.191,-9.423,0.0,2017-02-26 23:08:58,14.18336902628797
0.842,0.153,-9.385,0.0,2017-02-26 23:08:59,34.05818917781478
0.881,0.191,-9.385,0.0,2017-02-26 23:09:00,33.08426840734397
0.881,0.191,-9.538,0.0,2017-02-26 23:09:01,19.160785081767365
0.842,0.191,-9.385,0.0,2017-02-26 23:09:02,8.57520951405761
0.842,0.153,-9.347,0.0,2017-02-26 23:09:03,8.189394715015771
0.919,0.153,-9.27,0.0,2017-02-26 23:09:04,14.436754446560693
0.804,0.153,-9.308,0.0,2017-02-26 23:09:06,7.685022473734268
0.804,0.229,-9.423,0.0,2017-02-26 23:09:07,8.773735958146355
0.804,0.229,-9.385,0.0,2017-02-26 23:09:07,7.932254389367205
0.881,0.153,-9.347,0.0,2017-02-26 23:09:09,7.233786990372759
0.804,0.191,-9.385,0.0,2017-02-26 23:09:10,7.182161481199547
0.881,0.153,-9.347,0.0,2017-02-26 23:09:11,7.131557153953738
0.842,0.191,-9.347,0.0,2017-02-26 23:09:12,7.773730080476811
0.842,0.229,-9.385,0.0,2017-02-26 23:09:13,8.918117668081925
0.766,0.153,-9.194,0.0,2017-02-26 23:09:14,8.014090700563791
0.842,0.153,-9.27,0.0,2017-02-26 23:09:15,40.84214773957284
0.804,0.114,-9.232,0.0,2017-02-26 23:09:16,37.778561776929095
0.842,0.191,-9.385,0.0,2017-02-26 23:09:17,46.27286817839932
0.881,0.191,-9.423,0.0,2017-02-26 23:09:18,27.361544164973495
0.842,0.191,-9.423,0.0,2017-02-26 23:09:19,29.414056334513702
0.881,0.229,-9.308,0.0,2017-02-26 23:09:20,9.08464074388187
0.881,0.153,-9.308,0.0,2017-02-26 23:09:21,8.332442553058232
0.766,0.114,-9.423,0.0,2017-02-26 23:09:22,8.305585974020675
0.804,0.153,-9.308,0.0,2017-02-26 23:09:23,9.661417327390327
0.842,0.191,-9.308,0.0,2017-02-26 23:09:24,7.746024932468428
