ACC_X,ACC_Y,ACC_Z,LIGH_1,GRAV_X,GRAV_Y,GRAV_Z,LINACC_X,LINACC_Y,LINACC_Z,ROTVEC_X,ROTVEC_Y,ROTVEC_Z,TIME,VOICE
10.093435,0.84880525,-0.9343706,0.0,9.692244,1.3204691,-0.69796556,0.18837833,-0.1651876,0.14114875,-0.7128568,-0.16559428,-0.67854404,2017-08-17 16:35:46,35.145350938541455
9.991354,1.1437118,-1.7892463,2.0,9.634035,1.236944,-1.3511938,-0.08569622,0.16847134,-0.15755725,-0.74297476,-0.12992387,-0.6559111,2017-08-17 16:35:47,20.380610404200993
6.5734315,-4.5011396,4.127498,2.0,9.674916,-0.5106578,-1.5184242,-1.4759526,-2.6979208,4.3376775,-0.7579604,-0.053982776,-0.6450851,2017-08-17 16:35:48,-5.251466067361596
-1.4174439,-0.18526764,9.668253,20.0,-1.10955,-2.667781,9.371351,-1.4325511,2.6442266,0.7045679,-0.046956275,0.17959733,-0.8235173,2017-08-17 16:35:49,33.591640829628744
1.5373138,-7.327342,6.4854083,18.0,0.86710304,-7.4871774,6.27381,0.5948069,0.11797571,-0.54958296,-0.33101466,0.27384597,-0.63586164,2017-08-17 16:35:50,36.024947467139725
3.718863,-8.878459,1.6573588,4.0,3.8007429,-8.759812,2.233926,0.011985064,-0.1832447,-0.30102205,-0.6106738,0.11479997,-0.4392924,2017-08-17 16:35:51,32.2438453348833
3.9778657,-8.727214,1.2318007,4.0,4.002461,-8.712817,2.0585206,0.02182436,-0.041464806,-0.073625326,-0.6296894,0.0837122,-0.41256,2017-08-17 16:35:52,-0.6581728448964332
-3.4222655,0.5463303,9.03785,15.0,-1.3740897,-3.444439,9.078442,-3.057975,2.8501148,2.5962567,-0.20736061,0.21401408,-0.7105765,2017-08-17 16:35:53,30.15439658662175
0.0627655,-0.44614714,9.911433,11.0,-0.049858134,-0.26860487,9.802844,0.058375552,0.08562273,0.040281296,-0.008607784,0.009936445,-0.6493849,2017-08-17 16:35:54,23.807396510336318
0.055197142,-0.43480986,9.957258,9.0,-0.0032285142,-0.19809578,9.804648,-0.0052133612,0.0030983984,-0.008416176,-0.0075106598,0.0066959243,-0.6543077,2017-08-17 16:35:55,3.170181010481116
0.041967772,-0.4291336,9.930141,11.0,-0.014027353,-0.19227323,9.804755,-0.005308953,-0.0028919876,0.0055150986,-0.0070952657,0.0069083977,-0.6541814,2017-08-17 16:35:56,0.456896267458791
0.035345457,-0.44048613,9.925461,11.0,-0.015266916,-0.19548523,9.804689,-0.0069640726,-0.0031638592,0.0034313202,-0.0070281043,0.0071107093,-0.654301,2017-08-17 16:35:57,2.627476376981847
0.048590086,-0.437648,9.943232,9.0,-0.015287416,-0.1939731,9.80472,0.0055541946,0.011135817,2.0217896E-4,-0.0069699045,0.0070602605,-0.65421647,2017-08-17 16:35:58,3.569814009931312
0.05142822,-0.41874236,9.931998,9.0,-0.014568666,-0.19255064,9.804749,0.015872318,0.012950882,0.010763168,-0.0068409247,0.0069272188,-0.65401137,2017-08-17 16:35:59,-1.3686309341777498
0.055197142,-0.4470932,9.939487,11.0,-0.013992618,-0.19770572,9.804647,0.0039381627,-0.009266779,-0.0014600754,-0.0072472966,0.0072025904,-0.6545376,2017-08-17 16:36:00,-3.247373454815822
0.05142822,-0.44141692,9.95445,9.0,-0.017925166,-0.19636905,9.804667,0.0070155878,-0.009730399,0.0015039444,-0.0070179836,0.0072210263,-0.6543855,2017-08-17 16:36:01,0.6480883977668811
0.04953613,-0.4357559,9.925461,9.0,-0.016295994,-0.19166628,9.804763,-0.005998563,0.011988997,3.7384033E-4,-0.006967647,0.007061678,-0.654216,2017-08-17 16:36:02,-0.7138014439504025
0.050482176,-0.43386382,9.92078,9.0,-0.014150744,-0.19253655,9.8047495,-0.0056364965,0.0034380704,-0.004927635,-0.00695325,0.006967676,-0.6541271,2017-08-17 16:36:03,0.31408464251624124
0.054251097,-0.4452011,9.911433,11.0,-0.015150438,-0.19323727,9.804734,0.0032514231,-0.0048662126,-0.015008926,-0.0069464925,0.007030039,-0.65417415,2017-08-17 16:36:04,-2.207192444753865
0.04764404,-0.43386382,9.936679,9.0,-0.013896694,-0.19535285,9.804694,0.005635713,-0.005449116,0.0030603409,-0.0070912126,0.007067667,-0.65431124,2017-08-17 16:36:05,1.2067673496580515
0.04953613,-0.43291777,9.955386,11.0,-0.013276296,-0.19429655,9.804716,-5.677799E-4,-3.0197203E-4,0.021889687,-0.007000125,0.006957905,-0.6541532,2017-08-17 16:36:06,-2.8635198020816843
0.050482176,-0.42629546,9.935742,11.0,-0.014055095,-0.19629464,9.804675,0.0011600023,-0.004160717,-0.014761925,-0.0070998706,0.007046231,-0.6542997,2017-08-17 16:36:07,0.5054891639899547
0.057089232,-0.443309,9.942295,11.0,-0.0146810245,-0.19461302,9.804708,-0.002005605,-0.011281073,0.006764412,-0.007022914,0.007064209,-0.6542585,2017-08-17 16:36:08,0.7003786660775508
0.055197142,-0.4291336,9.949769,9.0,-0.02061573,-0.19100027,9.804769,0.009798121,6.849021E-4,0.011239052,-0.0066787046,0.007165438,-0.6540915,2017-08-17 16:36:09,5.703969830726248
0.053305052,-0.4357559,9.945104,11.0,-0.016775932,-0.19487514,9.804699,-0.0063972836,0.003392443,-0.009959221,-0.007024687,0.007087567,-0.65427923,2017-08-17 16:36:10,2.3757515298479226
0.040075682,-0.43007964,9.930126,7.0,-0.01399546,-0.19510838,9.804699,0.005326991,0.013485387,-0.002374649,-0.007127096,0.006952328,-0.6542413,2017-08-17 16:36:11,0.7119137188588691
0.044805907,-0.4291336,9.921716,9.0,-0.0127131315,-0.19518228,9.804699,0.002476193,-0.0049858093,-0.0050592422,-0.007101967,0.0070017846,-0.65426415,2017-08-17 16:36:12,2.40705216853823
0.054251097,-0.42251128,9.934807,11.0,-0.01650226,-0.1950755,9.804696,-8.16565E-5,0.005485773,0.005648613,-0.0069712168,0.0071445457,-0.65428764,2017-08-17 16:36:13,3.464141039435826
0.052374266,-0.43859404,9.961939,11.0,-0.012574271,-0.19071217,9.804788,0.00910165,-0.0030640662,0.003727913,-0.0069365106,0.0068449643,-0.65401256,2017-08-17 16:36:14,-2.1178742360846052
0.048590086,-0.44143218,9.9413595,7.0,-0.01745791,-0.19420688,9.804711,-7.8596175E-5,0.003249973,-0.0088329315,-0.0068709985,0.0071495534,-0.6542186,2017-08-17 16:36:15,0.6187638783915438
0.04575195,-0.43291777,9.940423,7.0,-0.012361271,-0.1894969,9.8048115,-0.0026439317,-0.009954929,0.0017671585,-0.0068973666,0.0067955777,-0.65394276,2017-08-17 16:36:16,-1.7779104393357565
0.044805907,-0.43670195,9.931062,11.0,-0.014781398,-0.19261605,9.804748,0.009882287,-0.003619656,0.0069932938,-0.0070640207,0.0069477083,-0.6541914,2017-08-17 16:36:17,1.1964760064085513
0.042913817,-0.4215805,9.9413595,9.0,-0.011299212,-0.19231421,9.804758,2.3539923E-4,3.591627E-4,-0.004778862,-0.006841604,0.006911659,-0.65399885,2017-08-17 16:36:18,9.665083806982542
0.040075682,-0.4357559,9.922652,9.0,-0.01599271,-0.19223587,9.804753,0.0037677418,-0.00869593,-0.009960175,-0.006944144,0.0070011383,-0.65414834,2017-08-17 16:36:19,8.880741380413914
0.053305052,-0.44141692,9.950706,11.0,-0.011323685,-0.19491407,9.804707,-0.002363176,0.0021575093,0.005458832,-0.0069952235,0.0068888515,-0.654092,2017-08-17 16:36:20,17.431666620218735
0.046697997,-0.4130661,9.942295,9.0,-0.016468586,-0.18536034,9.804884,-0.003817942,0.0050324798,0.0031290054,-0.006650871,0.0069270786,-0.6538725,2017-08-17 16:36:21,8.63136906582225
0.05142822,-0.4253494,9.9320135,9.0,-0.015288861,-0.19185773,9.804761,-0.012420112,-0.017713666,-0.004966736,-0.0068992004,0.0070800455,-0.6541813,2017-08-17 16:36:22,10.200892454098389
0.053305052,-0.4357559,9.939487,9.0,-0.014662199,-0.19158052,9.804768,-1.0609906E-4,-0.0032525957,0.005806923,-0.0068896688,0.0068913205,-0.65401703,2017-08-17 16:36:23,3.5278528639952302
0.038183592,-0.4253494,9.93387,7.0,-0.015562792,-0.19008727,9.804795,-1.19572505E-4,0.0048042834,0.007797241,-0.006759917,0.0069638356,-0.65398276,2017-08-17 16:36:24,5.796049848594485
0.04953613,-0.4253494,9.93387,7.0,-0.012911151,-0.19140068,9.804773,0.0059657507,-0.0010093153,-0.005648613,-0.0070195906,0.0068360507,-0.6540658,2017-08-17 16:36:25,14.674462322890715
0.056143187,-0.42345732,9.937614,9.0,-0.012992502,-0.18695162,9.804859,0.010618773,0.0148305,0.010298729,-0.006747815,0.0067789047,-0.6538196,2017-08-17 16:36:26,2.9384575612397548
0.04953613,-0.4395401,9.940423,9.0,-0.01694797,-0.19170637,9.804761,0.004116969,0.010940298,-0.01307106,-0.006919528,0.0070254635,-0.65415066,2017-08-17 16:36:27,-1.1157477505031845
0.04764404,-0.4253494,9.949769,11.0,-0.015281256,-0.18801385,9.804836,-0.012724411,-3.7698448E-4,-0.014882088,-0.0067566875,0.00697449,-0.65398926,2017-08-17 16:36:28,-4.259687322722812
0.040075682,-0.43670195,9.942295,9.0,-0.015997455,-0.19083786,9.80478,-4.8594363E-4,0.0013490915,0.00385952,-0.0068268883,0.006981497,-0.65404636,2017-08-17 16:36:29,-6.047828496634357
0.035345457,-0.42345732,9.937614,11.0,-0.014570221,-0.18876939,9.804822,-0.0011823736,0.007837072,-0.011583328,-0.006795859,0.0068563116,-0.65391934,2017-08-17 16:36:30,-1.2223284323237507
0.036291502,-0.4291336,9.940423,11.0,-0.016458847,-0.18615879,9.80487,-0.0067763776,-0.0021350533,-0.019491196,-0.006624896,0.007031984,-0.653941,2017-08-17 16:36:31,4.5792918232192115
0.041021727,-0.4253494,9.950706,11.0,-0.010526202,-0.1857319,9.804886,0.0022709789,0.004086837,0.013660431,-0.006674263,0.0066903136,-0.653692,2017-08-17 16:36:32,4.531749533241471
0.059927367,-0.43007964,9.928254,7.0,-0.013154007,-0.19183402,9.804765,-0.011448087,-0.005279392,0.0024776459,-0.006897715,0.00701695,-0.65412766,2017-08-17 16:36:33,-5.095147837223561
0.05898132,-0.42818755,9.942295,9.0,-0.009815251,-0.19002606,9.804804,-2.6300456E-4,-6.748736E-5,0.004855156,-0.0070025893,0.006715106,-0.6539525,2017-08-17 16:36:34,-4.314316279737833
0.044805907,-0.43102568,9.936679,11.0,-0.015580479,-0.18880247,9.80482,-4.109256E-4,-0.0042889416,-0.0018186569,-0.006698462,0.0068186116,-0.65381676,2017-08-17 16:36:35,-0.0960564077345748
0.046697997,-0.4196884,9.931062,7.0,-0.012998513,-0.18843059,9.8048315,-0.0014035385,0.0060464144,-0.0052700043,-0.006835478,0.006784101,-0.653888,2017-08-17 16:36:36,-0.8272430194870142
0.04575195,-0.4253494,9.927333,9.0,-0.015084092,-0.19225797,9.804753,-4.7965813E-4,0.0039298683,-0.0023345947,-0.006911452,0.0069943015,-0.6541188,2017-08-17 16:36:37,-5.6314192529759275
0.04953613,-0.4357559,9.955386,11.0,-0.015209835,-0.19079523,9.804782,0.001671222,-0.0058241785,0.016935349,-0.0068429955,0.0068968465,-0.6539875,2017-08-17 16:36:38,-3.106356364374387
0.050482176,-0.42440337,9.95445,9.0,-0.010311118,-0.19192757,9.804767,-0.0013334323,0.0022980869,0.012244225,-0.007058409,0.0067986827,-0.654063,2017-08-17 16:36:39,6.226025375130673
0.050482176,-0.43480986,9.924524,9.0,-0.013694813,-0.18858519,9.804827,0.0060163727,0.0080598,0.011229515,-0.0068682474,0.0067679905,-0.6538985,2017-08-17 16:36:40,-0.14489324963769204
0.053305052,-0.42818755,9.940423,7.0,-0.014288491,-0.19163829,9.804767,-0.0064415503,0.0029580742,-0.0038433075,-0.0068483753,0.007054793,-0.6541231,2017-08-17 16:36:41,-1.434221423023131
0.054251097,-0.41495818,9.953514,9.0,-0.017751567,-0.1902009,9.80479,-0.0060722213,0.0023075193,-0.004462242,-0.006836626,0.006879804,-0.6539687,2017-08-17 16:36:42,-1.1421487121652683
0.056143187,-0.42345732,9.942295,11.0,-0.01588926,-0.1917265,9.804763,0.0021027662,-0.0068124384,0.003876686,-0.006854159,0.006883538,-0.6539846,2017-08-17 16:36:43,8.148923971597387
0.04575195,-0.4272415,9.945104,9.0,-0.0145893395,-0.1890369,9.804817,0.0020612702,-0.0031569153,0.011927605,-0.006805404,0.0068661068,-0.6539345,2017-08-17 16:36:44,-4.013462573639491
0.034399413,-0.4272415,9.9161,9.0,-0.0152884135,-0.18741712,9.804848,-3.1523407E-4,-0.0021140575,-0.0019922256,-0.006720382,0.006838294,-0.6538492,2017-08-17 16:36:45,-1.7575209895886328
0.052374266,-0.42440337,9.94604,11.0,-0.013986902,-0.19019353,9.804795,-7.9314876E-4,-0.0036655813,-0.0040073395,-0.0068504065,0.0068204817,-0.65392923,2017-08-17 16:36:46,-4.314316279737833
0.055197142,-0.42818755,9.92919,9.0,-0.014944805,-0.1891268,9.804815,0.0016092276,-0.003075555,3.8528442E-4,-0.0067969477,0.006882887,-0.6539423,2017-08-17 16:36:47,-3.2905871926422474
0.052374266,-0.43007964,9.937614,11.0,-0.012904192,-0.18845953,9.804831,-0.0024541812,0.0027467161,0.00806427,-0.006778964,0.0066910624,-0.6537691,2017-08-17 16:36:48,6.141059109580307
0.04575195,-0.42251128,9.946025,7.0,-0.01563588,-0.18588704,9.804876,0.0036418485,-0.002583623,0.0038805008,-0.006650516,0.006799947,-0.65376616,2017-08-17 16:36:49,4.303572875048069
0.058035277,-0.43386382,9.935742,11.0,-0.0129983295,-0.18818276,9.804835,0.0024134023,-0.0026308894,-0.004961014,-0.0067522665,0.0068018055,-0.65384203,2017-08-17 16:36:50,0.4015713814591812
0.041967772,-0.4196884,9.944168,9.0,-0.013551912,-0.18537037,9.804889,-0.0016987408,0.0050747246,0.0067005157,-0.006700455,0.006701916,-0.6537208,2017-08-17 16:36:51,2.352127111743379
0.046697997,-0.42440337,9.939487,11.0,-0.013964648,-0.18529938,9.80489,0.0058228336,0.011458546,-0.002667427,-0.006721664,0.006625074,-0.65367216,2017-08-17 16:36:52,9.282998154416902
0.05142822,-0.42440337,9.937614,7.0,-0.014063221,-0.18524197,9.804891,0.0056858147,-0.004233137,-0.005505562,-0.0067123193,0.006733681,-0.65375596,2017-08-17 16:36:53,6.697816152085365
0.053305052,-0.42818755,9.946961,9.0,-0.013896484,-0.18626827,9.804872,-0.012496304,-0.007261008,-0.003001213,-0.006665241,0.0069294055,-0.65388495,2017-08-17 16:36:54,-1.9765394040669304
0.056143187,-0.4272415,9.928254,11.0,-0.012374193,-0.1873089,9.804853,0.003974301,0.0022315532,-0.013910294,-0.006813625,0.006722,-0.6538202,2017-08-17 16:36:55,-8.666607213652687
0.041967772,-0.43007964,9.924524,9.0,-0.019484546,-0.18458559,9.8048935,-0.004840661,-0.0044176877,-0.004969597,-0.006472395,0.006904678,-0.65372354,2017-08-17 16:36:56,3.581728818005499
0.053305052,-0.4177963,9.942295,7.0,-0.017974174,-0.18980207,9.804796,-0.0042702686,0.0064100176,-0.006685257,-0.0066267997,0.0069460133,-0.6538707,2017-08-17 16:36:57,4.725736269689418
0.04764404,-0.42629546,9.930141,7.0,-0.013895275,-0.18588823,9.804878,7.806299E-4,0.0017979443,-0.011226654,-0.006708708,0.0067327106,-0.65375257,2017-08-17 16:36:58,1.4515754481203054
0.04385986,-0.43007964,9.945104,7.0,-0.01343825,-0.18409656,9.804913,-0.003249338,4.669577E-4,0.003993988,-0.0066365083,0.006825519,-0.6537773,2017-08-17 16:36:59,2.2360949684796845
0.04764404,-0.42345732,9.940423,11.0,-0.013303336,-0.18500446,9.804895,0.008903246,0.0033772588,-0.0062065125,-0.0065690516,0.006660644,-0.65359044,2017-08-17 16:37:00,11.390423426514538
0.046697997,-0.4253494,9.960067,9.0,-0.013989846,-0.18941364,9.804811,-0.0030354187,-0.0026624799,-0.0053071976,-0.006807023,0.006739684,-0.6538302,2017-08-17 16:37:01,5.195408840355248
0.04764404,-0.41401213,9.950706,7.0,-0.015870234,-0.18113519,9.804964,2.3549981E-4,0.0024758428,0.00379467,-0.006412898,0.006734778,-0.65353835,2017-08-17 16:37:02,0.2696713792889795
0.046697997,-0.43102568,9.914227,9.0,-0.018012771,-0.18657562,9.804859,0.0018465482,-0.0036132634,6.7329407E-4,-0.0065973243,0.0069151097,-0.65382344,2017-08-17 16:37:03,0.7974636581754391
0.048590086,-0.43291777,9.939487,11.0,-0.012898732,-0.18535721,9.80489,0.0065853,1.1369586E-4,0.0036668777,-0.006791947,0.006611979,-0.6537125,2017-08-17 16:37:04,1.5286141833720643
0.048590086,-0.43480986,9.942295,11.0,-0.014191554,-0.18220447,9.804947,-0.0072066262,0.008937687,-0.0036029816,-0.00673157,0.0067115533,-0.65375155,2017-08-17 16:37:05,2.668047706440432
0.050482176,-0.42440337,9.949769,9.0,-0.009826661,-0.18609782,9.804879,-2.5373325E-4,0.004152864,0.005338669,-0.0068525984,0.006582538,-0.65373224,2017-08-17 16:37:06,-0.3385826726096737
0.044805907,-0.41685027,9.921716,11.0,-0.015856594,-0.17968872,9.804991,-0.0015295707,-9.7340345E-4,0.010907173,-0.0064464337,0.0067089847,-0.65354127,2017-08-17 16:37:07,1.3731454192221537
0.054251097,-0.41401213,9.939487,11.0,-0.017355632,-0.18169147,9.804952,-0.0049160793,0.0074186176,-0.01048851,-0.0065062493,0.006600802,-0.6534946,2017-08-17 16:37:08,1.0176854762838516
0.048590086,-0.41212004,9.93387,9.0,-0.013235533,-0.18834737,9.804832,0.0012752693,-0.006502956,0.003528595,-0.0067490702,0.0067326827,-0.653782,2017-08-17 16:37:09,5.492715461426302
0.048590086,-0.43007964,9.949769,7.0,-0.01109167,-0.18389139,9.804919,0.003682305,-0.008681655,0.011730194,-0.0067262854,0.0065567726,-0.65361845,2017-08-17 16:37:10,7.75314568307012
0.042913817,-0.44048613,9.929205,9.0,-0.0140829915,-0.1868253,9.80486,-0.0056959707,-0.011486858,-0.0026655197,-0.0067381216,0.006771677,-0.65380657,2017-08-17 16:37:11,4.750807130711257
0.053305052,-0.42251128,9.927333,7.0,-0.012748508,-0.18935968,9.804813,0.00814421,0.009151012,-0.0036554337,-0.0069048917,0.0068793846,-0.65401816,2017-08-17 16:37:12,2.0327092181480677
0.055197142,-0.4272415,9.936679,9.0,-0.013933527,-0.18402389,9.8049135,0.008162702,-0.0018242598,0.0019006729,-0.006636421,0.0066711134,-0.6536484,2017-08-17 16:37:13,4.849667877479985
0.057089232,-0.4215805,9.930126,11.0,-0.010088799,-0.18503135,9.804899,-0.0038381852,0.0024386048,0.005112648,-0.0068282937,0.0065658423,-0.65370053,2017-08-17 16:37:14,5.320772562623684
0.050482176,-0.4395401,9.923588,9.0,-0.01591434,-0.19014685,9.804793,-0.00417562,-0.008994371,0.0046043396,-0.0066781812,0.006991598,-0.6539462,2017-08-17 16:37:15,10.053950318867063
0.057089232,-0.42063445,9.931998,11.0,-0.013138064,-0.18923903,9.804815,0.0045812298,0.0052155107,-0.003727913,-0.006861592,0.006816865,-0.6539344,2017-08-17 16:37:16,20.465012611933318
0.056143187,-0.42818755,9.936679,9.0,-0.010939384,-0.18481176,9.804902,0.0035659047,-0.0056589395,-0.004385948,-0.0067664376,0.006582027,-0.6536689,2017-08-17 16:37:17,1.3879593442816072
0.05142822,-0.41874236,9.931062,7.0,-0.013141976,-0.18690462,9.80486,-0.0027633784,-0.009909883,-0.011487961,-0.0067725796,0.0067379912,-0.6538036,2017-08-17 16:37:18,3.134058009778966
0.055197142,-0.4291336,9.923588,11.0,-0.012004771,-0.18677668,9.804864,0.0028369129,0.013625115,-0.0037212372,-0.006916962,0.006718732,-0.65389293,2017-08-17 16:37:19,3.1537987020361387
0.052374266,-0.4357559,9.946961,11.0,-0.011044044,-0.18554804,9.804889,0.001853507,0.0029337257,-0.014792442,-0.006876757,0.006711074,-0.6538572,2017-08-17 16:37:20,-2.286881741466619
0.04953613,-0.43197173,9.956323,9.0,-0.017347537,-0.18243249,9.804937,0.012360674,-0.0074534267,0.01146698,-0.006461781,0.006749268,-0.65358615,2017-08-17 16:37:21,-5.53326943003994
0.04575195,-0.42251128,9.92919,9.0,-0.013072979,-0.1837483,9.80492,0.0037946077,8.4365904E-4,-0.009012222,-0.0066546635,0.006628525,-0.6536261,2017-08-17 16:37:22,-2.996749415790151
0.052374266,-0.42440337,9.939487,9.0,-0.014559178,-0.18277587,9.804935,0.0010762615,0.0026964396,0.001405716,-0.006758786,0.0067824842,-0.65383065,2017-08-17 16:37:23,-2.2525499830826785
0.04764404,-0.443309,9.932934,7.0,-0.010408625,-0.18329862,9.804932,-0.0034739086,-0.014324516,0.014166832,-0.0067265085,0.006510312,-0.65357983,2017-08-17 16:37:24,-0.26583482726062596
0.040075682,-0.41401213,9.924524,7.0,-0.013075754,-0.18481956,9.8049,-0.0036275983,0.0039318353,0.0016670227,-0.006643064,0.0067426423,-0.6537129,2017-08-17 16:37:25,3.467196224098603
0.057089232,-0.43670195,9.945104,9.0,-0.012101087,-0.18138722,9.804965,0.0038741315,-0.004291296,-0.012878418,-0.0067470744,0.006614365,-0.65368176,2017-08-17 16:37:26,4.7211623410738675
0.039129637,-0.42345732,9.925461,7.0,-0.017357845,-0.18204097,9.804945,-0.0050186794,0.0020623803,-0.005012512,-0.006446524,0.00673643,-0.6535643,2017-08-17 16:37:27,15.85971570994936
0.048590086,-0.43007964,9.935742,9.0,-0.011619866,-0.18431285,9.804911,-0.0012938278,0.0023436397,-0.009065628,-0.0066728527,0.0064842566,-0.65351886,2017-08-17 16:37:28,5.917600346881504
0.044805907,-0.4357559,9.947897,9.0,-0.013375824,-0.18494524,9.804897,-0.002368939,-0.0034175962,0.0033693314,-0.006733068,0.0067679603,-0.6537998,2017-08-17 16:37:29,19.3656086388966
0.05898132,-0.4177963,9.946025,7.0,-0.01756398,-0.18168041,9.804952,-0.011187435,-0.0032211542,-0.004532814,-0.00654295,0.006656401,-0.65356785,2017-08-17 16:37:30,14.396780180233101
0.040075682,-0.42629546,9.948833,9.0,-0.01801291,-0.18470271,9.804894,-0.016519345,-0.0045478046,-3.6239624E-5,-0.0064952346,0.0068167686,-0.65366685,2017-08-17 16:37:31,9.122386678457685
0.041967772,-0.41495818,9.919844,9.0,-0.010291996,-0.1794777,9.805002,-0.0035654726,-0.0041113496,-3.5476685E-4,-0.0065847607,0.006376581,-0.65336454,2017-08-17 16:37:32,4.97879492233712
0.046697997,-0.41874236,9.942295,7.0,-0.01377688,-0.18616784,9.804873,-0.006681691,0.005478695,0.008987427,-0.006617253,0.006784507,-0.653729,2017-08-17 16:37:33,4.316150192900354
0.04385986,-0.42251128,9.940423,9.0,-0.011357074,-0.18066472,9.804979,0.0059551047,-2.4402142E-4,-0.0064077377,-0.006566148,0.0065543144,-0.6534995,2017-08-17 16:37:34,4.512585928759266
0.035345457,-0.43386382,9.940423,11.0,-0.013388827,-0.18253532,9.804942,-0.0058631906,-0.009680554,-0.003501892,-0.006609888,0.006439453,-0.65343547,2017-08-17 16:37:35,5.861651813773169
0.055197142,-0.42440337,9.946961,7.0,-0.012184948,-0.18081237,9.8049755,0.0038200933,-0.0029958785,0.0041685104,-0.0065724426,0.0064949,-0.6534544,2017-08-17 16:37:36,8.497264441963278
0.035345457,-0.4357559,9.9413595,9.0,-0.01285505,-0.18406644,9.804914,-0.008138347,-0.004751265,-0.0067253113,-0.006674062,0.0066308626,-0.65364224,2017-08-17 16:37:37,5.45809481451745
0.037237547,-0.43197173,9.926396,11.0,-0.012998263,-0.1847295,9.804901,-0.008432425,-0.009322539,-0.0066308975,-0.0066860393,0.006748396,-0.6537491,2017-08-17 16:37:38,0.02705893375924967
0.042913817,-0.41685027,9.937614,9.0,-0.016411101,-0.17921083,9.804999,-0.005869191,0.0012488067,0.0036697388,-0.006417179,0.0065648723,-0.6533996,2017-08-17 16:37:39,-1.0117201465055117
0.04953613,-0.41590422,9.919844,9.0,-0.011079163,-0.17950125,9.805001,0.006615106,-0.002404645,0.0033416748,-0.006528069,0.006422052,-0.6533612,2017-08-17 16:37:40,5.081086869636105
0.04385986,-0.42345732,9.938551,7.0,-0.013749906,-0.18574163,9.804881,-0.00669289,0.0068256706,-0.0012397766,-0.006707981,0.0067221313,-0.6537432,2017-08-17 16:37:41,4.38838896753866
0.052374266,-0.41212004,9.930126,9.0,-0.012061817,-0.18227261,9.804949,0.0038429378,-4.258603E-4,-0.007901192,-0.006681293,0.0065539856,-0.6535833,2017-08-17 16:37:43,-2.3563703410198964
0.036291502,-0.4291336,9.919844,9.0,-0.016617676,-0.188762,9.804819,9.4108284E-4,-0.01192151,-0.004796028,-0.006604867,0.0070090666,-0.6539073,2017-08-17 16:37:44,-2.571767119580994
0.04575195,-0.42818755,9.932934,7.0,-0.014316739,-0.17996566,9.804988,-0.001004085,0.0024465322,-0.009390831,-0.0063755307,0.0064931996,-0.6533093,2017-08-17 16:37:45,1.8857697060374092
0.041021727,-0.4272415,9.948833,7.0,-0.019752074,-0.18802105,9.804828,-0.009056063,-0.0010979921,-0.0016431808,-0.0066013173,0.006975487,-0.65387666,2017-08-17 16:37:46,9.659215952931246
0.046697997,-0.41495818,9.937614,7.0,-0.011604562,-0.18281557,9.804939,-0.0072636353,0.0036486238,-0.0028562546,-0.006668164,0.0065402067,-0.6535622,2017-08-17 16:37:47,9.240368665848068
0.04953613,-0.42063445,9.934807,9.0,-0.011419781,-0.1804726,9.804983,-0.0033929301,-0.0046281815,-0.0018129349,-0.0065850383,0.0064538266,-0.6534293,2017-08-17 16:37:48,3.670062944283869
0.04764404,-0.4130661,9.943232,9.0,-0.016999515,-0.18048212,9.804975,-0.005275879,0.0024479628,-1.077652E-4,-0.006434075,0.0065688486,-0.65341526,2017-08-17 16:37:49,-0.8767828511661295
0.041021727,-0.41590422,9.944168,7.0,-0.014699147,-0.18417133,9.80491,-0.0010131011,-0.007987022,0.008626938,-0.006472983,0.006733394,-0.653581,2017-08-17 16:37:50,-0.36064679196785543
0.06087341,-0.42440337,9.931998,9.0,-0.007684315,-0.18324642,9.8049345,-0.01135024,0.010772496,0.006111145,-0.0066878856,0.0064577516,-0.6535077,2017-08-17 16:37:51,-2.415139097317978
0.055197142,-0.43007964,9.92078,9.0,-0.011160769,-0.18210548,9.804953,-0.0040803794,-0.003770426,-0.0038576126,-0.0066997516,0.006575346,-0.6536146,2017-08-17 16:37:52,4.385917875114077
0.057089232,-0.4177963,9.932934,9.0,-0.013707031,-0.18392381,9.804915,0.00576518,0.007521495,0.013870239,-0.0066401735,0.0066589727,-0.6536409,2017-08-17 16:37:53,7.558748556724915
0.055197142,-0.43386382,9.946025,9.0,-0.010723113,-0.17886418,9.805013,0.0077082356,-0.013196468,4.7683716E-5,-0.0065469774,0.006372511,-0.65333354,2017-08-17 16:37:54,17.015544940883757
0.05898132,-0.41874236,9.928268,9.0,-0.0074251792,-0.17685114,9.805053,0.0026146416,-0.0010029525,0.01258564,-0.0064393994,0.0062866984,-0.6531833,2017-08-17 16:37:55,6.000194496794257
0.058035277,-0.42063445,9.934807,9.0,-0.01181308,-0.18274581,9.80494,-0.004907769,0.0038937032,-0.006822586,-0.006695998,0.0064560664,-0.6535122,2017-08-17 16:37:56,6.963836951234762
0.042913817,-0.42440337,9.924524,7.0,-0.0124773495,-0.18369238,9.804922,-0.006239781,-0.007372454,0.0031204224,-0.0066724257,0.006603608,-0.6536183,2017-08-17 16:37:57,1.6925183452537578
0.048590086,-0.41874236,9.947897,7.0,-0.01230526,-0.17998765,9.804991,0.0021645566,-0.0018172264,-0.0012350082,-0.0066019516,0.0064636464,-0.6534499,2017-08-17 16:37:58,5.2219962945485054
0.041967772,-0.42440337,9.9413595,9.0,-0.010696825,-0.18082991,9.804977,-0.002266503,0.0085695535,7.2193146E-4,-0.0066491477,0.0064252154,-0.6534522,2017-08-17 16:37:59,1.9251518432776857
0.050482176,-0.41212004,9.946025,11.0,-0.01133433,-0.18078013,9.804977,0.0016764663,0.0058857203,-0.005832672,-0.006599614,0.0064609214,-0.6534459,2017-08-17 16:38:00,0.5475664671620651
0.055197142,-0.40267485,9.942295,11.0,-0.01376099,-0.18280298,9.804936,0.0027566403,-8.6942315E-4,-0.0114851,-0.0066058408,0.006493122,-0.6534774,2017-08-17 16:38:01,0.4446626119917941
0.053305052,-0.4291336,9.934807,7.0,-0.009497738,-0.1795834,9.805001,0.0031536985,0.00783588,0.0073127747,-0.0066153044,0.0063494416,-0.6533642,2017-08-17 16:38:02,1.8014380306687818
0.053305052,-0.4092819,9.945104,11.0,-0.010353331,-0.18178974,9.804959,0.003043239,0.0057825446,0.02082634,-0.006644962,0.0063890987,-0.65341896,2017-08-17 16:38:03,17.9556503965148
0.038183592,-0.42252654,9.932934,7.0,-0.01604178,-0.18208477,9.804946,0.002485823,0.005322695,0.0034713745,-0.0064921426,0.0066870335,-0.65355635,2017-08-17 16:38:04,22.213530997438493
0.054251097,-0.42251128,9.931062,9.0,-0.010514327,-0.18641686,9.8048725,-3.3150986E-4,-0.0049057007,-0.0017433167,-0.0069019087,0.0067522624,-0.6539099,2017-08-17 16:38:05,12.798593572841519
0.05142822,-0.4092819,9.932934,9.0,-0.0151282465,-0.18118925,9.804964,0.0042350516,0.0061914027,-0.012460709,-0.0064885295,0.006621439,-0.6534989,2017-08-17 16:38:06,15.602803403004632
0.056143187,-0.411174,9.946961,7.0,-0.012874158,-0.18381074,9.804919,0.007502203,-0.0065618157,5.931854E-4,-0.0066306028,0.0064961384,-0.65349793,2017-08-17 16:38:07,9.601585012674
0.050482176,-0.41590422,9.942295,11.0,-0.009813691,-0.1801564,9.80499,0.005899654,-0.0035226196,-0.007054329,-0.0067122,0.006432588,-0.65350443,2017-08-17 16:38:08,-0.10995384301463193
0.06087341,-0.43007964,9.942295,9.0,-0.011841885,-0.18346766,9.804927,-0.004886113,-0.0068256557,6.4754486E-4,-0.0067264056,0.0066523603,-0.6536984,2017-08-17 16:38:09,3.643750845373213
0.054251097,-0.41495818,9.934807,7.0,-0.015030405,-0.18055286,9.804976,0.0010271687,0.0010990351,-0.008708,-0.0064296518,0.00667569,-0.6535013,2017-08-17 16:38:10,16.420160206571804
0.033453368,-0.41495818,9.92078,7.0,-0.011979835,-0.17727569,9.80504,-0.0028410023,0.009696662,0.0041484833,-0.0064672683,0.006486027,-0.65337026,2017-08-17 16:38:11,24.090714958214182
0.05142822,-0.43102568,9.934807,7.0,-0.012068525,-0.1887394,9.804826,-0.0074904086,-0.0051838607,0.0050182343,-0.0068155196,0.006757674,-0.6538514,2017-08-17 16:38:12,28.61807812325005
0.042913817,-0.42345732,9.922652,9.0,-0.014125841,-0.18215613,9.804948,0.0038934704,-0.0019399226,0.0027627945,-0.0065588425,0.0066153775,-0.6535452,2017-08-17 16:38:13,27.214576590645876
0.058035277,-0.43291777,9.94604,7.0,-0.015802538,-0.1786498,9.80501,0.010511242,0.002459973,0.0028629303,-0.006425853,0.0066097598,-0.6534434,2017-08-17 16:38:14,6.729632739947258
0.059927367,-0.42063445,9.949769,9.0,-0.011491318,-0.18217383,9.804952,0.004006408,0.0018042326,-6.227493E-4,-0.0066474904,0.0065141227,-0.6535253,2017-08-17 16:38:15,6.5905412100412715
0.04385986,-0.40833586,9.934807,11.0,-0.014654504,-0.1825908,9.804939,-0.003891142,-0.0066951513,-0.007577896,-0.0066021155,0.0066356394,-0.65359366,2017-08-17 16:38:16,9.243600624932322
0.056143187,-0.41212004,9.950706,9.0,-0.015333291,-0.17986426,9.804989,0.0035889149,-0.003031537,0.0018291473,-0.0063938648,0.0066884835,-0.65348583,2017-08-17 16:38:17,7.608463921751732
0.052374266,-0.4253494,9.963796,9.0,-0.00970428,-0.1786831,9.805017,5.4358505E-5,-0.008292362,0.01908493,-0.006574081,0.006326991,-0.6533153,2017-08-17 16:38:18,5.747544893468147
0.041967772,-0.42818755,9.925461,9.0,-0.012995568,-0.18172179,9.804957,-0.005709649,-0.0043246597,0.00849247,-0.0064310604,0.0064804335,-0.65333915,2017-08-17 16:38:19,16.708544131523468
0.042913817,-0.40360564,9.936679,7.0,-0.013257686,-0.17550312,9.805071,-0.011854349,0.008380666,-0.009945869,-0.006454781,0.006344315,-0.6532427,2017-08-17 16:38:20,21.80855838477358
0.036291502,-0.40644377,9.930141,7.0,-0.014127974,-0.17587234,9.805062,2.9962324E-4,-0.006025493,0.008359909,-0.0063171512,0.006424586,-0.6532093,2017-08-17 16:38:21,2.3796764689483565
0.052374266,-0.41495818,9.9413595,7.0,-0.013018866,-0.18000813,9.804989,-0.0048661083,0.0026167482,-0.012481689,-0.0065139853,0.0064842114,-0.65340286,2017-08-17 16:38:22,1.397807295936814
0.056143187,-0.411174,9.932934,7.0,-0.012200535,-0.17736001,9.805038,-0.0026231045,-7.446259E-4,4.6157837E-4,-0.0064241863,0.0063590626,-0.6532327,2017-08-17 16:38:23,3.2511782261373585
0.038183592,-0.4253494,9.919844,7.0,-0.01727777,-0.17914394,9.804998,-0.008738702,0.008164346,-0.0051050186,-0.0062858746,0.006528886,-0.6532737,2017-08-17 16:38:24,14.130638982614286
0.044805907,-0.40833586,9.938551,11.0,-0.01419719,-0.17553377,9.805069,0.004156559,0.008787096,0.0023527145,-0.0062353676,0.00634206,-0.6530807,2017-08-17 16:38:25,17.282776723475394
0.04575195,-0.41874236,9.932934,7.0,-0.011065537,-0.17919064,9.805007,-0.009460564,-7.368922E-4,-0.0046310425,-0.0064448705,0.006319314,-0.6532145,2017-08-17 16:38:26,11.975389898392274
0.041967772,-0.41874236,9.923588,7.0,-0.010660146,-0.18005668,9.804991,-0.007683317,8.1805885E-4,-0.009056091,-0.006594544,0.0064103915,-0.65339994,2017-08-17 16:38:27,2.590261540704248
0.056143187,-0.43197173,9.949769,9.0,-0.011604655,-0.18210351,9.804953,-0.006067139,4.014969E-4,0.015631676,-0.0066329483,0.0063470704,-0.653375,2017-08-17 16:38:28,13.736876572865196
0.041967772,-0.40833586,9.925461,9.0,-0.010307914,-0.17965369,9.804999,-0.0028124582,0.0063972026,-0.005382538,-0.0065909387,0.006383146,-0.65337455,2017-08-17 16:38:29,10.224154823878152
0.048590086,-0.42345732,9.943232,7.0,-0.014117466,-0.17738964,9.805036,-0.004791638,-0.0083183795,0.0031499863,-0.0063585816,0.0065397657,-0.65333587,2017-08-17 16:38:30,15.758010260595771
0.058035277,-0.41685027,9.921716,7.0,-0.012952766,-0.18229334,9.804947,-0.0033312095,0.005091861,0.0010871887,-0.0066112047,0.006545787,-0.6535253,2017-08-17 16:38:31,19.429609037791156
0.04385986,-0.42629546,9.9666195,7.0,-0.015792744,-0.1830876,9.804928,0.0015535932,-0.001202777,0.02214241,-0.0065386607,0.0067113163,-0.6536105,2017-08-17 16:38:32,6.883920102463115
0.038183592,-0.42818755,9.931062,7.0,-0.010230431,-0.17989223,9.804995,0.0096974,-0.0057987273,-0.011829376,-0.0065869177,0.0063218833,-0.6533204,2017-08-17 16:38:33,9.702306148234552
0.058035277,-0.42345732,9.930126,7.0,-0.009937326,-0.18312989,9.804935,-1.6692467E-4,-0.0033752471,-0.0036611557,-0.006735817,0.0064863833,-0.6535666,2017-08-17 16:38:34,0.8758178807405621
0.056143187,-0.41590422,9.94604,7.0,-0.011257096,-0.17961098,9.804998,-0.004201291,-0.0048644394,0.007939339,-0.0065595754,0.0065057017,-0.65345407,2017-08-17 16:38:35,4.550828948086064
0.04764404,-0.411174,9.939487,7.0,-0.01266535,-0.18077832,9.8049755,0.0047847806,0.011134714,0.0014362335,-0.006643699,0.006549897,-0.6535524,2017-08-17 16:38:36,7.2465980463263335
0.038183592,-0.40738982,9.937614,9.0,-0.012803484,-0.17352538,9.805106,-0.008179135,0.006707087,-0.004172325,-0.006273935,0.006272588,-0.6530507,2017-08-17 16:38:37,6.654050802013025
0.06371155,-0.42440337,9.9413595,7.0,-0.010415309,-0.17557219,9.805073,0.006881955,0.0049346685,-0.008640289,-0.006540901,0.0063143973,-0.65328056,2017-08-17 16:38:38,4.373541278481747
0.039129637,-0.43102568,9.948833,11.0,-0.010119197,-0.17999299,9.804993,-0.009582775,-0.0035800338,0.0033502579,-0.0066101747,0.0063873213,-0.6533921,2017-08-17 16:38:39,2.0834056477403657
0.04575195,-0.42440337,9.936679,7.0,-0.013353316,-0.17987053,9.804991,9.683175E-4,-0.001164645,-0.001950264,-0.0065948493,0.0063149985,-0.65332043,2017-08-17 16:38:40,2.363955384563034
0.058035277,-0.43197173,9.948833,7.0,-0.008777737,-0.18510002,9.804899,0.01575547,-0.0030781925,-0.005955696,-0.006682621,0.0064955354,-0.6535354,2017-08-17 16:38:41,4.712000006833675
0.052374266,-0.42251128,9.956323,9.0,-0.01684294,-0.18237196,9.80494,2.4991296E-4,0.0025991052,-1.6593933E-4,-0.0064763273,0.006727715,-0.65357876,2017-08-17 16:38:42,-1.6969207763052176
0.050482176,-0.4177963,9.946025,9.0,-0.009321245,-0.17879786,9.805016,-4.050741E-4,-0.0075179636,4.5967102E-4,-0.0066882335,0.006368225,-0.6534331,2017-08-17 16:38:43,0.6888128940781288
0.04953613,-0.411174,9.932934,7.0,-0.009672581,-0.18085824,9.804977,-0.003317888,0.0029565096,-0.011300087,-0.006658071,0.00639931,-0.6534371,2017-08-17 16:38:44,17.697695280838477
0.055197142,-0.41401213,9.944168,7.0,-0.011639938,-0.17797388,9.805028,-0.0061688367,0.0020727962,-0.0045337677,-0.0064824275,0.0063778716,-0.6532909,2017-08-17 16:38:45,26.814504174056722
0.038183592,-0.40267485,9.911419,9.0,-0.019639269,-0.17571372,9.805057,0.004651824,0.0061895996,0.004889488,-0.0062207463,0.0067323004,-0.65339607,2017-08-17 16:38:46,-0.7539769831749801
0.050482176,-0.42063445,9.9413595,7.0,-0.010845707,-0.17977037,9.8049965,-0.0019366154,-8.1412494E-4,-6.389618E-4,-0.0065774336,0.0064078863,-0.65338534,2017-08-17 16:38:47,-3.7161106994968844
0.054251097,-0.411174,9.922652,7.0,-0.008751188,-0.17758061,9.805038,-2.2806507E-4,0.008510739,-0.002626419,-0.0066389316,0.0062740934,-0.6533184,2017-08-17 16:38:48,-2.5351175787169393
0.058035277,-0.42440337,9.926396,7.0,-0.015288855,-0.1797863,9.80499,0.009549328,3.450215E-4,-0.005549431,-0.0064297053,0.006580223,-0.6534216,2017-08-17 16:38:49,5.685683720262167
0.052374266,-0.42063445,9.924524,7.0,-0.01351671,-0.17612283,9.805059,-9.901822E-4,0.0013956726,-0.013118744,-0.006349204,0.0063879034,-0.65320206,2017-08-17 16:38:50,10.779920955400256
0.046697997,-0.42818755,9.934807,9.0,-0.010752901,-0.18108155,9.804973,-0.01393687,0.0012447536,-0.0022258759,-0.006614319,0.006410056,-0.65341413,2017-08-17 16:38:51,8.590256544507135
0.044805907,-0.42251128,9.927318,9.0,-0.01144437,-0.1831835,9.804933,-0.0037035989,-7.39187E-4,-0.0021448135,-0.006722922,0.0064950013,-0.6535644,2017-08-17 16:38:52,7.542049489881283
0.055197142,-0.41022795,9.931998,7.0,-0.01012407,-0.18188243,9.804958,0.006586015,0.010959074,0.00825882,-0.0066820374,0.0064514056,-0.6534981,2017-08-17 16:38:53,1.1132553556865952
0.04953613,-0.41590422,9.918907,9.0,-0.011195477,-0.17958912,9.804999,0.005247837,0.005846739,0.0034866333,-0.00653451,0.006483513,-0.6534172,2017-08-17 16:38:54,9.922634863663003
0.04953613,-0.40644377,9.93387,9.0,-0.013246598,-0.17974496,9.804994,0.0046646614,0.0027486682,-8.8214874E-4,-0.0064963135,0.006499862,-0.65340304,2017-08-17 16:38:55,9.12653744319975
0.04575195,-0.41212004,9.945088,9.0,-0.011481811,-0.17993379,9.804993,-9.4831083E-4,-2.4305284E-4,-0.0034399033,-0.006677153,0.00651188,-0.6535451,2017-08-17 16:38:56,8.627647604738467
0.041021727,-0.41212004,9.943232,11.0,-0.011329347,-0.17580904,9.805068,-0.002740467,-0.0019102693,0.006389618,-0.006410235,0.0062927073,-0.653167,2017-08-17 16:38:57,5.064204652773723
0.055197142,-0.42063445,9.917972,9.0,-0.010857612,-0.1813255,9.804968,0.0049677715,0.0047190934,-0.013515472,-0.0066363174,0.006460931,-0.6534727,2017-08-17 16:38:58,6.121213173358583
0.050482176,-0.42252654,9.931998,9.0,-0.012252032,-0.17837216,9.80502,0.0012141289,-0.003487587,0.008739471,-0.0064886315,0.006406828,-0.65331966,2017-08-17 16:38:59,20.865489033999225
0.044805907,-0.4395401,9.955386,9.0,-0.010561376,-0.18083176,9.804977,0.008107846,0.0026159137,0.004846573,-0.0065359347,0.0062339897,-0.6532096,2017-08-17 16:39:00,-3.5747365407880727
0.058035277,-0.41590422,9.946961,7.0,-0.016061801,-0.1823691,9.804941,0.0022735037,-0.005114764,-0.0058717728,-0.0064688814,0.0064536836,-0.6533444,2017-08-17 16:39:01,3.6613099453806703
0.05142822,-0.42063445,9.950706,7.0,-0.012231357,-0.17578688,9.805067,-0.013945642,-0.008039787,0.0045318604,-0.006420095,0.006429259,-0.65328836,2017-08-17 16:39:02,4.619297558245911
0.041021727,-0.42063445,9.936679,9.0,-0.011199402,-0.17622948,9.80506,-0.004599167,0.0037035346,-0.002289772,-0.0064008343,0.0062735653,-0.6531441,2017-08-17 16:39:03,21.221902705319128
0.0627655,-0.41495818,9.943232,9.0,-0.010949619,-0.17822422,9.805024,0.0050428435,0.0015427619,-0.004146576,-0.006515015,0.0063596377,-0.65329945,2017-08-17 16:39:04,25.929397120440463
0.040075682,-0.41685027,9.962875,9.0,-0.013796878,-0.1774629,9.805035,-0.0019364282,0.014448926,0.0032520294,-0.006397999,0.0065343496,-0.65336007,2017-08-17 16:39:05,1.5046860522131613
0.04575195,-0.42629546,9.928254,7.0,-0.012246233,-0.17868318,9.805015,0.00587749,-0.0017265081,0.0107011795,-0.006396263,0.006276488,-0.6531432,2017-08-17 16:39:06,-7.12758288821652
0.05142822,-0.40833586,9.939487,7.0,-0.011355085,-0.1812247,9.804969,0.0031063277,0.0020842403,0.0019798279,-0.006525478,0.0064622816,-0.6533929,2017-08-17 16:39:07,6.206564798196209
0.057089232,-0.41874236,9.946025,7.0,-0.009403712,-0.17507724,9.805082,0.0088692065,0.0057239234,0.005334854,-0.006318108,0.00615525,-0.65298474,2017-08-17 16:39:08,25.50877779766456
0.056143187,-0.41874236,9.932934,7.0,-0.01651201,-0.1803838,9.804977,-0.014288161,-0.0072481483,-0.021243095,-0.006490538,0.0066494434,-0.65352374,2017-08-17 16:39:09,7.802948045875095
0.044805907,-0.42345732,9.944168,9.0,-0.013822954,-0.18221071,9.804948,-0.009476691,0.0042085946,0.0023555756,-0.0065569417,0.0065789865,-0.6535134,2017-08-17 16:39:10,1.5238390923808032
0.04764404,-0.4196884,9.934807,9.0,-0.014749485,-0.17262255,9.8051195,0.0043961825,-0.006532505,-0.0064878464,-0.0061745667,0.006317375,-0.6530157,2017-08-17 16:39:11,3.807763614815251
0.04385986,-0.41401213,9.943232,9.0,-0.0129847955,-0.17555816,9.80507,-0.0028858315,2.0772219E-4,0.0075731277,-0.006345422,0.006348257,-0.6531662,2017-08-17 16:39:12,7.363965022766425
0.044805907,-0.4092819,9.937614,9.0,-0.012437477,-0.17499836,9.80508,-0.0031593991,0.0022648126,0.0057086945,-0.006342335,0.0063081793,-0.6531304,2017-08-17 16:39:13,6.551684596640958
0.055197142,-0.4196884,9.945104,9.0,-0.010851782,-0.17358816,9.805108,0.002026789,-0.004275501,-0.008846283,-0.006341448,0.006199216,-0.65303856,2017-08-17 16:39:14,-2.9030613027220813
0.055197142,-0.43480986,9.931998,9.0,-0.014566403,-0.18212079,9.804948,0.00424313,-0.007870331,-0.0066785812,-0.006542784,0.006631214,-0.6535467,2017-08-17 16:39:15,18.101064467333046
0.065603636,-0.42063445,9.955386,7.0,-0.012661558,-0.17916729,9.805005,-0.003978757,0.0018008798,0.00605011,-0.006352255,0.0065251943,-0.65331906,2017-08-17 16:39:16,24.418889738416155
0.041967772,-0.42629546,9.9413595,7.0,-0.01431122,-0.17951123,9.8049965,-0.009930108,-0.0048158616,0.0052843094,-0.006451862,0.0065331254,-0.6533984,2017-08-17 16:39:17,13.8009812946148
0.04575195,-0.4017288,9.931062,7.0,-0.011549023,-0.17524715,9.805078,-0.0011214204,-4.886389E-4,-0.008799553,-0.006563911,0.0063993353,-0.65336835,2017-08-17 16:39:18,-5.029839165633982
0.044805907,-0.42063445,9.951642,9.0,-0.0072315303,-0.17647785,9.805059,0.00836065,-0.006203428,0.019908905,-0.006543169,0.0062307813,-0.65321225,2017-08-17 16:39:19,-4.277820730357495
0.04953613,-0.40644377,9.936679,9.0,-0.008955786,-0.17544174,9.805077,-0.005943506,0.005874291,-0.009143829,-0.006430511,0.0062088347,-0.65311164,2017-08-17 16:39:20,17.597032476880525
0.052374266,-0.41022795,9.940423,9.0,-0.0088069085,-0.17965814,9.805,0.0052529816,-0.009562567,-6.7043304E-4,-0.0065253256,0.0065383865,-0.6534564,2017-08-17 16:39:21,21.69876401606402
0.05898132,-0.4177963,9.936679,7.0,-0.017584288,-0.17476632,9.805077,0.0019341111,0.0031022727,-0.0099487305,-0.0062759942,0.0063758167,-0.6531385,2017-08-17 16:39:22,8.050120868845472
0.050482176,-0.41685027,9.937614,9.0,-0.0138527015,-0.17840609,9.805017,-0.0051451717,-0.004968092,0.01378727,-0.0064250436,0.0064780447,-0.65333277,2017-08-17 16:39:23,8.067097953035976
0.044805907,-0.41874236,9.934807,7.0,-0.013182475,-0.1809319,9.804972,-0.010466155,0.009183273,0.0039434433,-0.006573266,0.0064785094,-0.65344137,2017-08-17 16:39:24,9.299774012892449
0.04385986,-0.4253494,9.940423,7.0,-0.012073472,-0.17878915,9.805013,7.0531387E-4,0.0039469153,-0.0060167313,-0.0064990404,0.006422192,-0.6533401,2017-08-17 16:39:25,0.7520468278668563
0.052374266,-0.4092819,9.949769,9.0,-0.012828969,-0.18338604,9.804927,-0.01333911,0.0043789446,-0.009011269,-0.006566941,0.006479277,-0.6534374,2017-08-17 16:39:26,-3.393123536297777
0.041021727,-0.42063445,9.938551,7.0,-0.01246301,-0.17622054,9.8050585,0.01371429,0.004134387,-0.005346298,-0.006460212,0.0062254714,-0.6531472,2017-08-17 16:39:27,0.08067621748033046
0.052374266,-0.40078276,9.937614,7.0,-0.011442668,-0.17531794,9.805076,0.006173336,-0.004421547,0.0037021637,-0.0063877217,0.006280499,-0.65314037,2017-08-17 16:39:28,-0.4425213556335814
0.067495726,-0.41590422,9.944168,7.0,-0.0124318,-0.1784429,9.805018,0.013574396,-0.0028013438,0.015509605,-0.0064738775,0.006424344,-0.65332353,2017-08-17 16:39:29,-0.43501410256450984
0.053305052,-0.42063445,9.92919,7.0,-0.011189316,-0.17669696,9.805052,-4.1415077E-4,0.002456963,-0.0022554398,-0.006448773,0.006317293,-0.6532157,2017-08-17 16:39:30,-3.590219426416679
0.048590086,-0.4177963,9.93387,7.0,-0.016175065,-0.17796159,9.805022,-0.00463742,0.0011835992,-0.005821228,-0.006423563,0.0064825434,-0.65333545,2017-08-17 16:39:31,-3.1622149455905255
0.042913817,-0.42440337,9.932934,7.0,-0.013532696,-0.1803544,9.804982,-0.005998533,-0.008200109,-0.006509781,-0.006528669,0.0065667755,-0.65348256,2017-08-17 16:39:32,-2.721538679277521
0.046697997,-0.4177963,9.946025,7.0,-0.012390573,-0.18074483,9.804976,-0.004092004,0.00880149,0.006629944,-0.0065630027,0.006500567,-0.6534523,2017-08-17 16:39:33,6.820886415115728
0.038183592,-0.41401213,9.921716,9.0,-0.015605325,-0.17493242,9.805078,-0.0044388277,-0.0029107928,0.016963959,-0.006327831,0.006347476,-0.6531527,2017-08-17 16:39:34,2.4342563861108597
0.054251097,-0.41022795,9.9413595,7.0,-0.011821323,-0.17475125,9.805086,2.1978095E-4,-0.0068851262,-2.3841858E-4,-0.0061579444,0.006318704,-0.65300465,2017-08-17 16:39:35,1.552411200825611
0.046697997,-0.411174,9.952578,7.0,-0.0139092645,-0.17277442,9.805118,-6.819181E-4,-5.932301E-4,0.009882927,-0.0062083933,0.0062900027,-0.65301746,2017-08-17 16:39:36,3.030609946043161
0.046697997,-0.41401213,9.9413595,9.0,-0.01398674,-0.17381297,9.8050995,0.0011385325,0.0032421649,-0.0021619797,-0.006249142,0.00633448,-0.6530844,2017-08-17 16:39:37,3.9357520326958757
0.061819457,-0.41401213,9.956323,9.0,-0.013750677,-0.17692342,9.805044,-0.0030195303,-0.0032244772,-0.0027503967,-0.006371923,0.006423999,-0.65324885,2017-08-17 16:39:38,5.469665722300921
0.041967772,-0.41590422,9.931062,7.0,-0.012400454,-0.17647678,9.805055,-0.0040857336,9.6167624E-4,-0.016420364,-0.0063999556,0.006356692,-0.653213,2017-08-17 16:39:39,1.4369773005298758
0.05142822,-0.42345732,9.953514,7.0,-0.010741668,-0.17592399,9.805066,0.0056060655,-0.0011390746,0.0014266968,-0.0064342315,0.0062738624,-0.65316874,2017-08-17 16:39:40,0.9034624350566812
0.05142822,-0.42251128,9.932934,7.0,-0.010346702,-0.18153952,9.804964,-0.0020539444,-0.002533719,0.006822586,-0.006661534,0.0064484156,-0.65348065,2017-08-17 16:39:41,3.2511782261373585
0.053305052,-0.4177963,9.940423,9.0,-0.013870373,-0.17707463,9.805041,2.4888664E-5,-0.008700535,0.003736496,-0.006373693,0.0064337365,-0.65325826,2017-08-17 16:39:42,-0.26583482726062596
0.053305052,-0.40644377,9.915163,9.0,-0.013136299,-0.17387588,9.8050995,0.0029873326,-0.002952844,-0.027338982,-0.006232018,0.00631656,-0.6530569,2017-08-17 16:39:43,-0.19428551838325955
0.041967772,-0.41874236,9.926381,9.0,-0.015459402,-0.17475179,9.80508,0.010884808,-0.0066535324,0.0016212463,-0.006321778,0.0062930253,-0.6531027,2017-08-17 16:39:44,9.876802273587824
0.041967772,-0.42063445,9.938551,9.0,-0.014571625,-0.17714447,9.805039,-0.008714382,-0.007643506,-3.3855438E-4,-0.0062937145,0.0064697643,-0.65323,2017-08-17 16:39:45,34.566582483919845
0.04953613,-0.41022795,9.93387,9.0,-0.008589703,-0.17029382,9.805168,-0.001977902,0.0010699779,0.0062704086,-0.006291174,0.00600047,-0.6528355,2017-08-17 16:39:46,2.776808268826858
0.053305052,-0.41401213,9.935742,9.0,-0.008464585,-0.1746014,9.805092,0.0055539003,-0.0028090477,-0.0049123764,-0.0064992467,0.0061576576,-0.65311897,2017-08-17 16:39:47,6.204939140374856
0.057089232,-0.41022795,9.92919,9.0,-0.0112594925,-0.17701212,9.805046,0.0016114581,0.00942035,-0.0071105957,-0.00645845,0.006330656,-0.65323395,2017-08-17 16:39:48,6.803921765344692
0.04953613,-0.41685027,9.930126,7.0,-0.0069850236,-0.18096405,9.804977,-0.0013578646,-0.0055256337,-0.0037298203,-0.006668166,0.006300816,-0.6533621,2017-08-17 16:39:49,1.4125374790316356
0.059927367,-0.40078276,9.935742,7.0,-0.016841639,-0.17518635,9.805071,-0.0057933694,-0.0018576384,-0.0046167374,-0.006278601,0.0063396175,-0.6531102,2017-08-17 16:39:50,1.1289811839218673
0.055197142,-0.40738982,9.93387,7.0,-0.010474528,-0.17966002,9.804998,0.0024574362,0.007845089,-0.006755829,-0.006585618,0.006389803,-0.6533762,2017-08-17 16:39:51,1.3879593442816072
0.04953613,-0.4196884,9.940423,7.0,-0.01004601,-0.17655161,9.805056,-0.0010550851,0.0067827255,0.0026474,-0.0064936164,0.006280475,-0.6532176,2017-08-17 16:39:52,6.2966439200055415
0.050482176,-0.42440337,9.939487,9.0,-0.012070753,-0.17875709,9.805014,0.0067115957,-0.004788637,-0.015445709,-0.006496628,0.006295439,-0.65323234,2017-08-17 16:39:53,8.97798851024499
0.040075682,-0.4177963,9.931998,7.0,-0.01678838,-0.17386842,9.805095,0.005876057,0.0027267784,-7.6293945E-5,-0.0061672786,0.006327243,-0.6530186,2017-08-17 16:39:54,13.629652270073112
0.055197142,-0.4253494,9.955386,9.0,-0.012695241,-0.17506927,9.8050785,-0.004214037,-0.0012998134,3.6239624E-4,-0.0061816485,0.006359688,-0.6530562,2017-08-17 16:39:55,13.200813448799941
0.057089232,-0.42345732,9.9413595,9.0,-0.011121353,-0.17505132,9.805081,-0.009659175,-0.001899913,0.009788513,-0.006271928,0.006264795,-0.65304273,2017-08-17 16:39:56,-1.7271151840430066
0.04575195,-0.40738982,9.919844,7.0,-0.01128756,-0.17794947,9.805029,-0.003561589,-0.00490655,0.009893417,-0.0063889613,0.006309632,-0.65316564,2017-08-17 16:39:57,7.81643197335068
0.044805907,-0.40738982,9.913291,7.0,-0.008542571,-0.17540671,9.805078,-0.014891839,8.933246E-4,-0.0056352615,-0.006386764,0.006148385,-0.65302914,2017-08-17 16:39:58,7.596678446896305
0.05142822,-0.41590422,9.932934,7.0,-0.011853826,-0.17716895,9.805042,-0.0040119207,0.005109504,0.005707741,-0.006444595,0.00635894,-0.6532475,2017-08-17 16:39:59,11.13368784984961
0.04953613,-0.41590422,9.946025,7.0,-0.006765896,-0.1740986,9.805102,0.005980744,-0.002303332,-0.0038290024,-0.006474767,0.0061315116,-0.6530792,2017-08-17 16:40:00,20.304668937552208
0.04575195,-0.4036209,9.945088,7.0,-0.010948902,-0.1766006,9.805054,-0.0074555874,0.006121278,0.004740715,-0.0064531225,0.006304739,-0.6532084,2017-08-17 16:40:01,4.214496755871215
0.057089232,-0.42063445,9.931998,7.0,-0.008893354,-0.17465825,9.805091,0.0034612827,0.0077599585,-0.013840675,-0.006347746,0.0061365697,-0.65299076,2017-08-17 16:40:02,5.743930290830001
0.036291502,-0.41401213,9.918907,7.0,-0.017877849,-0.17259787,9.805115,-0.009124072,0.0027148724,-0.011332512,-0.006013087,0.0065370165,-0.6530815,2017-08-17 16:40:03,8.746086375227954
0.048590086,-0.42251128,9.939487,11.0,-0.013223588,-0.17117257,9.805147,0.002301963,-0.0055948645,0.008286476,-0.006170152,0.0062094037,-0.6529221,2017-08-17 16:40:05,18.998375949151203
0.05142822,-0.4196884,9.935742,7.0,-0.017449697,-0.17200449,9.805126,0.0021292325,-0.01011239,-0.0020065308,-0.0060609016,0.0064009563,-0.6530026,2017-08-17 16:40:06,0.7119137188588691
0.06371155,-0.40738982,9.936679,9.0,-0.009291402,-0.17313038,9.805118,0.010079318,-0.0029396564,0.013003349,-0.0063025746,0.006221372,-0.6530287,2017-08-17 16:40:07,6.4066773617192165
0.050482176,-0.41495818,9.92919,7.0,-0.009986207,-0.17725138,9.805043,0.009635507,-0.006104216,0.014583588,-0.0064773164,0.0062211202,-0.6531561,2017-08-17 16:40:08,5.4850457997084145
0.056143187,-0.41022795,9.936679,9.0,-0.016071921,-0.17587979,9.805059,0.0061698994,0.012064382,0.006254196,-0.0062546576,0.006478511,-0.65320885,2017-08-17 16:40:09,4.784763088046286
0.059927367,-0.42440337,9.957258,7.0,-0.0072031384,-0.17378879,9.805107,1.5948899E-4,0.0052310824,0.0026340485,-0.0063314023,0.0060278806,-0.6528878,2017-08-17 16:40:10,3.4396218786467148
0.04953613,-0.42063445,9.931062,7.0,-0.014786415,-0.17377739,9.8050995,-7.88847E-4,-0.003371209,-0.012284279,-0.0060751354,0.0061783064,-0.6528268,2017-08-17 16:40:11,1.8460271781925066
0.052374266,-0.41590422,9.93387,7.0,-0.011253664,-0.17494135,9.805083,0.0067982366,5.632341E-4,0.0041217804,-0.0064013237,0.0062908814,-0.65315896,2017-08-17 16:40:12,7.210631424042014
0.044805907,-0.40738982,9.952578,7.0,-0.0094002,-0.17491932,9.805085,-0.0072163697,0.009205282,0.008728027,-0.0064406693,0.0061880345,-0.6531016,2017-08-17 16:40:13,1.1498607665385157
0.04953613,-0.40455168,9.949769,7.0,-0.013574147,-0.16831985,9.805196,-4.890235E-4,-6.503761E-4,0.0011310577,-0.005991138,0.0061241416,-0.65272015,2017-08-17 16:40:14,5.8404838848524285
0.058035277,-0.4357559,9.937614,7.0,-0.0113616185,-0.17855477,9.805018,0.0069903554,-0.009306297,0.0020008087,-0.006464902,0.006348974,-0.653254,2017-08-17 16:40:15,4.265620887368497
0.050482176,-0.41495818,9.931998,7.0,-0.011718709,-0.17494503,9.805082,5.817199E-4,0.004349068,-0.0057792664,-0.0062698843,0.0063152406,-0.65308344,2017-08-17 16:40:16,1.7154363130496058
0.04764404,-0.41874236,9.946961,9.0,-0.012627337,-0.17528826,9.805076,0.0039372304,0.0023340285,0.0030565262,-0.0063488055,0.0063575404,-0.6531764,2017-08-17 16:40:17,1.7200054295352674
0.054251097,-0.4215805,9.922652,7.0,-0.0095138615,-0.17639726,9.805059,9.530848E-4,-0.0073117167,-0.0048971176,-0.0064932574,0.006242368,-0.6531855,2017-08-17 16:40:18,4.255444093446293
0.041967772,-0.411174,9.914227,7.0,-0.008467255,-0.1807051,9.804981,0.004885206,-0.0021301508,-8.2302094E-4,-0.0065252245,0.006407289,-0.6533468,2017-08-17 16:40:19,7.6541240937742
0.048590086,-0.40078276,9.928254,9.0,-0.010741214,-0.17736979,9.80504,0.006304209,9.3846023E-4,-0.0014343262,-0.006620353,0.0063782088,-0.6533919,2017-08-17 16:40:20,15.519453112927614
0.053305052,-0.41022795,9.931998,7.0,-0.004883596,-0.16992381,9.805177,-0.007869715,-0.0072277635,-0.007071495,-0.0064006425,0.005844584,-0.65278476,2017-08-17 16:40:21,-1.0982358525055504
0.054251097,-0.411174,9.93387,7.0,-0.011955932,-0.17910874,9.805007,0.001843011,-0.0010480732,0.0011873245,-0.006489331,0.006260408,-0.6531977,2017-08-17 16:40:22,0.6128751387516431
0.041967772,-0.40549773,9.927333,7.0,-0.00992796,-0.17199977,9.805137,0.0025937082,2.438575E-4,-0.012299538,-0.006230255,0.00616723,-0.6529307,2017-08-17 16:40:23,7.008658984434385
0.04764404,-0.41874236,9.932934,7.0,-0.01111473,-0.17643563,9.805057,-0.0036403965,-0.0020397604,0.0026359558,-0.006441296,0.0063055777,-0.65320045,2017-08-17 16:40:24,11.591158218277691
0.037237547,-0.4177963,9.919844,7.0,-0.01023856,-0.17611706,9.805063,0.0037379982,0.00129053,0.002029419,-0.0064583854,0.0062609278,-0.6531756,2017-08-17 16:40:25,3.886117837380374
0.04575195,-0.42063445,9.942295,7.0,-0.014746347,-0.17719068,9.805038,-0.0059766127,-0.0014425516,0.0073509216,-0.0063077235,0.006416748,-0.6531959,2017-08-17 16:40:26,1.6602286439517728
0.050482176,-0.41590422,9.950706,7.0,-0.005417701,-0.17584753,9.805072,0.019013768,-0.006987199,-0.009547234,-0.0066659073,0.0060054627,-0.65311325,2017-08-17 16:40:27,0.364292656266749
0.05898132,-0.4177963,9.946976,7.0,-0.010602328,-0.17941083,9.805003,0.010857376,0.0050768256,0.003973961,-0.0066054584,0.0064511537,-0.65344197,2017-08-17 16:40:28,8.304082097459553
0.05898132,-0.41590422,9.930126,9.0,-0.012744624,-0.17517304,9.805078,0.004529829,-3.0481815E-4,0.0016956329,-0.0064673168,0.006260521,-0.65318173,2017-08-17 16:40:29,9.904637298012293
0.055197142,-0.4196884,9.922652,7.0,-0.011480071,-0.17761369,9.805035,0.0069390154,0.0025592446,-0.008071899,-0.0064740283,0.0063595157,-0.65326947,2017-08-17 16:40:30,1.9814139979875538
0.042913817,-0.4215805,9.910482,9.0,-0.012364492,-0.17256656,9.805124,-0.0109730465,0.004702598,-0.006313324,-0.0062434874,0.006336596,-0.653082,2017-08-17 16:40:31,7.89316247841687
0.04764404,-0.41590422,9.921716,9.0,-0.0122455815,-0.17304543,9.805116,-0.0012747031,-0.0041046888,1.2302399E-4,-0.0062742387,0.006234801,-0.6530193,2017-08-17 16:40:32,9.755754006685818
0.042913817,-0.41212004,9.927333,9.0,-0.013251781,-0.17332403,9.805109,-0.001211538,-0.0024401993,-4.3964386E-4,-0.006251297,0.006283129,-0.65304303,2017-08-17 16:40:33,4.4643036658348585
0.041021727,-0.41022795,9.915163,7.0,-0.012863756,-0.17199786,9.805133,0.011993377,-7.931888E-4,0.013242722,-0.0063698376,0.006093606,-0.6529709,2017-08-17 16:40:34,2.116877449796185
0.037237547,-0.4177963,9.935742,11.0,-0.017340098,-0.17385954,9.805094,-0.011547806,-6.8983436E-4,-0.0037870407,-0.0062504336,0.006480215,-0.6532072,2017-08-17 16:40:35,3.030609946043161
0.052374266,-0.41022795,9.947897,9.0,-0.012317308,-0.16861494,9.805193,0.0017362637,-0.002336651,0.0048542023,-0.006102763,0.0060880273,-0.65277135,2017-08-17 16:40:36,2.264387868668327
0.042913817,-0.41212004,9.918907,9.0,-0.0137252975,-0.16839011,9.805195,-0.017440982,0.0058862716,-0.01749897,-0.005979987,0.006055088,-0.6526542,2017-08-17 16:40:37,4.71429240320204
0.041967772,-0.42345732,9.9413595,9.0,-0.016232336,-0.17367795,9.805099,-0.0121279415,-0.0018609762,-0.0014734268,-0.0061406298,0.0063633057,-0.6530293,2017-08-17 16:40:38,5.230144411045639
0.041021727,-0.4196884,9.896456,9.0,-0.007115088,-0.16875078,9.805196,-0.003888256,-0.008995742,-0.010977745,-0.0062814313,0.0058913273,-0.65273696,2017-08-17 16:40:39,2.601459513781506
0.04385986,-0.42818755,9.915163,7.0,-0.008627652,-0.17753392,9.805039,0.008116119,-0.0065675676,0.007000923,-0.006571204,0.006076964,-0.65310395,2017-08-17 16:40:40,-1.2675207737176832
0.041021727,-0.41874236,9.931062,9.0,-0.013040719,-0.17325391,9.805111,-0.0032143574,-0.004910171,0.0048418045,-0.0062987125,0.006150877,-0.6529669,2017-08-17 16:40:41,1.9120641041342616
0.05142822,-0.41022795,9.936679,9.0,-0.011259113,-0.17496042,9.805083,0.0023387289,0.008381829,0.0051870346,-0.0063802092,0.006261322,-0.65311885,2017-08-17 16:40:42,-0.31663008255337605
0.058035277,-0.41401213,9.92919,9.0,-0.013189335,-0.17413925,9.805095,0.009757481,-0.0077528805,-6.67572E-4,-0.006284477,0.006308242,-0.6530882,2017-08-17 16:40:43,3.340137045947441
0.048590086,-0.41685027,9.93387,7.0,-0.009609142,-0.17368451,9.805107,-0.0092590945,-0.003570661,-0.013051033,-0.006386583,0.0061544036,-0.65303403,2017-08-17 16:40:44,4.073377830124177
0.04764404,-0.41685027,9.939487,7.0,-0.01453115,-0.17486274,9.80508,-5.7684816E-4,-0.0016397983,-0.0033845901,-0.0063232803,0.006159485,-0.65299207,2017-08-17 16:40:45,6.045972593933227
0.041967772,-0.4130661,9.927333,11.0,-0.012734556,-0.17557572,9.80507,-0.003916392,-0.007985309,-0.0071287155,-0.0065253363,0.0062424024,-0.653209,2017-08-17 16:40:46,8.95991976873824
0.039129637,-0.4092819,9.924524,11.0,-0.008295366,-0.17561081,9.805074,-0.011042793,0.0060236454,-0.013348579,-0.0065039163,0.0061686644,-0.6531316,2017-08-17 16:40:47,3.430391386714927
0.059927367,-0.41212004,9.943232,9.0,-0.00776134,-0.17151389,9.805147,0.0041603176,-0.003088519,-0.003973007,-0.006337541,0.005979318,-0.65285164,2017-08-17 16:40:48,1.6416690224620623
0.0627655,-0.41685027,9.931998,9.0,-0.0126313735,-0.17566732,9.805068,-7.9990365E-4,-0.004378721,-0.009224892,-0.006265647,0.006535842,-0.65326476,2017-08-17 16:40:49,2.3953408495698043
0.057089232,-0.4177963,9.936679,7.0,-0.013776923,-0.17751338,9.805034,-0.0010173097,-0.008257523,3.0136108E-4,-0.006376092,0.006332649,-0.6531755,2017-08-17 16:40:50,-0.9860979788595081
0.05898132,-0.411174,9.934807,7.0,-0.01579756,-0.17328252,9.805106,0.007823966,0.0024598986,-0.0018854141,-0.0061647706,0.0063801943,-0.65306103,2017-08-17 16:40:51,-1.9765394040669304
0.048590086,-0.40360564,9.928254,9.0,-0.010596278,-0.16907462,9.805187,0.0057060625,0.0035039335,-0.01632309,-0.0062124957,0.0060403952,-0.6528115,2017-08-17 16:40:52,5.988246910664822
0.05142822,-0.41401213,9.9161,9.0,-0.0146315005,-0.17430867,9.80509,-5.9167854E-5,-0.012945443,0.0022745132,-0.006317285,0.006252339,-0.6530654,2017-08-17 16:40:53,5.964252679360276
0.057089232,-0.40833586,9.925461,7.0,-0.009107992,-0.17549756,9.805076,0.011173881,0.007858545,7.419586E-4,-0.0064835832,0.006203414,-0.65314585,2017-08-17 16:40:54,7.453919996903665
0.058035277,-0.41685027,9.9413595,7.0,-0.008275049,-0.17353448,9.805111,0.007246875,-0.001737386,0.022871971,-0.0064125652,0.006193586,-0.65308577,2017-08-17 16:40:55,4.757619594569376
0.06465759,-0.42063445,9.93387,7.0,-0.01153478,-0.17276186,9.805121,-0.005209892,0.0028692782,0.0054893494,-0.0064430353,0.006146967,-0.653069,2017-08-17 16:40:56,-2.9296237391594815
0.039129637,-0.40644377,9.923588,9.0,-0.016765242,-0.172886,9.805112,-0.012137305,-7.5148046E-4,0.010058403,-0.0060090483,0.0064325067,-0.6529912,2017-08-17 16:40:57,-2.415139097317978
0.046697997,-0.41022795,9.924524,7.0,-0.011811118,-0.17361693,9.805106,-0.0021085767,-0.0028755814,0.0058698654,-0.0064080907,0.0062587587,-0.653137,2017-08-17 16:40:58,4.157556258441181
0.039129637,-0.3932144,9.92078,7.0,-0.010978551,-0.16880572,9.805191,-0.004716345,-0.001082018,-0.0029268265,-0.006311806,0.0059997384,-0.65285,2017-08-17 16:40:59,-5.53326943003994
0.039129637,-0.40644377,9.943232,7.0,-0.011910251,-0.17495589,9.805082,-0.006730579,-0.0104958415,0.0019712448,-0.0064680483,0.006256032,-0.6531785,2017-08-17 16:41:00,-4.351121117121509
0.052374266,-0.411174,9.925461,7.0,-0.009074052,-0.17223321,9.805133,-8.64164E-4,9.95338E-4,0.018353462,-0.0063490495,0.00608469,-0.65294826,2017-08-17 16:41:01,1.33838181023776
0.0627655,-0.40738982,9.928254,9.0,-0.011836305,-0.17252092,9.805125,0.007218688,0.005799383,-0.008386612,-0.006267881,0.006201259,-0.6529866,2017-08-17 16:41:02,11.505165909107637
0.06087341,-0.41495818,9.953514,9.0,-0.010091678,-0.16951764,9.80518,0.008863727,-0.0020209402,0.023989677,-0.0062114485,0.0060323803,-0.652804,2017-08-17 16:41:03,-1.7677037488116822
0.05142822,-0.4092819,9.923588,11.0,-0.011054508,-0.17324641,9.805114,0.0059047192,-0.00612621,-0.0029563904,-0.0063787247,0.0062635355,-0.6531196,2017-08-17 16:41:04,-3.2761347839004378
0.040075682,-0.4092819,9.922652,9.0,-0.011234829,-0.17021781,9.805166,-0.006460976,0.005971059,-0.0037870407,-0.006110236,0.0061867256,-0.6528594,2017-08-17 16:41:05,0.4200914300751153
0.05142822,-0.40644377,9.940423,7.0,-0.009835243,-0.17338482,9.805113,0.0026820228,0.0031795055,0.0024900436,-0.0064419946,0.006104762,-0.6530329,2017-08-17 16:41:06,-2.1623037265817944
0.052374266,-0.43007964,9.926396,9.0,-0.008393533,-0.17702843,9.805048,-0.010229988,-0.0039094687,-0.009019852,-0.0065547214,0.0062203696,-0.65321195,2017-08-17 16:41:07,-0.42003841593556424
0.040075682,-0.41401213,9.924524,9.0,-0.01055058,-0.17317009,9.805116,0.014292213,-5.4840744E-4,0.002064705,-0.006308306,0.006192691,-0.65300894,2017-08-17 16:41:08,4.974480024000026
0.053305052,-0.40360564,9.925461,9.0,-0.00866339,-0.17407216,9.805101,0.009823076,-0.0078534335,0.0036087036,-0.006334419,0.0061082267,-0.6529573,2017-08-17 16:41:09,-7.19820143309139
0.048590086,-0.4130661,9.937614,9.0,-0.013454406,-0.17284238,9.805118,0.0062965956,0.0030701756,0.0013475418,-0.006226162,0.0062747034,-0.65301764,2017-08-17 16:41:10,-6.243363860391147
0.058035277,-0.411174,9.899264,11.0,-0.012642025,-0.17416748,9.805095,-0.0047108214,0.0016797036,-0.009233475,-0.0062355986,0.0063115405,-0.6530553,2017-08-17 16:41:11,-2.996749415790151
0.052374266,-0.41495818,9.949769,7.0,-0.017102635,-0.17368531,9.805097,0.006990918,0.003713742,0.0095386505,-0.006136585,0.00644427,-0.65309405,2017-08-17 16:41:12,-0.5644365841482606
0.039129637,-0.41685027,9.939487,9.0,-0.010370148,-0.16859819,9.805195,-0.0016695261,0.009031028,-0.01530838,-0.006025969,0.0060381135,-0.65267354,2017-08-17 16:41:13,0.295105975085384
0.041967772,-0.40267485,9.926396,11.0,-0.010760191,-0.17237547,9.805129,-0.0076099467,0.0070941,-0.0011873245,-0.0062982305,0.0061547207,-0.6529698,2017-08-17 16:41:14,-0.6110518240182969
0.04953613,-0.41590422,9.92919,9.0,-0.0124373585,-0.17038019,9.805162,0.004221678,-0.005123526,0.018356323,-0.006145391,0.006274679,-0.6529587,2017-08-17 16:41:15,-3.590219426416679
0.061819457,-0.41212004,9.948833,11.0,-0.007523303,-0.17333528,9.805115,0.0074764304,9.087473E-4,0.002418518,-0.0063573155,0.0060968716,-0.6529645,2017-08-17 16:41:16,-4.406919890929875
0.054251097,-0.4215805,9.92078,11.0,-0.012615116,-0.17304564,9.805115,-0.0012540715,0.0014344901,-0.011514664,-0.0064037256,0.0062256777,-0.65310615,2017-08-17 16:41:17,0.14678015455812782
0.056143187,-0.40738982,9.922652,11.0,-0.013802935,-0.17333248,9.805108,-0.0054749018,0.0064205676,0.005381584,-0.0062309103,0.0063196532,-0.6530587,2017-08-17 16:41:18,-1.3408211604816973
0.040075682,-0.41590422,9.938551,8.0,-0.013289086,-0.17437547,9.805091,0.006278338,-0.008149937,-0.005712509,-0.0063232114,0.0061763967,-0.6530062,2017-08-17 16:41:19,3.0909761741201427
0.046697997,-0.41495818,9.917035,11.0,-0.014139064,-0.17414582,9.805094,-0.0010742247,8.468032E-4,5.531311E-5,-0.006144152,0.0063462737,-0.65301764,2017-08-17 16:41:20,-2.019539208994171
0.039129637,-0.41401213,9.925461,11.0,-0.013290733,-0.16966452,9.805173,-0.007789174,-0.001499936,-0.020129204,-0.006110361,0.0061611044,-0.65283805,2017-08-17 16:41:21,3.321227241823943
0.058035277,-0.42440337,9.943232,9.0,-0.009334632,-0.1726136,9.805126,0.0015506884,-0.0058382004,0.002081871,-0.006354875,0.0061076162,-0.65297174,2017-08-17 16:41:22,-5.808706922580243
0.05142822,-0.40455168,9.945088,11.0,-0.01191831,-0.17688812,9.805047,0.0021318924,0.0077847093,0.012681961,-0.006431734,0.006351945,-0.6532322,2017-08-17 16:41:23,0.05395031886706144
0.050482176,-0.41022795,9.919844,9.0,-0.0117456885,-0.17458251,9.805089,-0.0034478297,0.0099309385,-0.015298843,-0.0062789842,0.006307632,-0.6530837,2017-08-17 16:41:24,-1.5587245085195067
0.054251097,-0.411174,9.931062,11.0,-0.008242862,-0.17167915,9.805144,0.0021985648,0.0023293942,-0.0084171295,-0.006331216,0.0061007645,-0.65294874,2017-08-17 16:41:25,-2.438871095274125
0.057089232,-0.41022795,9.967541,11.0,-0.01106302,-0.16954197,9.805178,0.0043996796,-0.00680916,0.011322975,-0.0061799823,0.0060707824,-0.65281326,2017-08-17 16:41:26,-8.716815227403195
0.04953613,-0.40833586,9.939487,11.0,-0.007313484,-0.17163584,9.805145,0.012219765,-0.0038283467,-0.0020141602,-0.006138376,0.0060149566,-0.6527361,2017-08-17 16:41:27,-1.6569853701346533
0.057089232,-0.40078276,9.932934,11.0,-0.004913797,-0.17406715,9.805104,0.004981492,0.0045668334,-7.7819824E-4,-0.0067041153,0.0060488274,-0.6531775,2017-08-17 16:41:28,1.8193286628446472
0.06844177,-0.41685027,9.935742,11.0,-0.011014831,-0.17555292,9.805073,0.001537648,0.0028406978,-0.0076990128,-0.0063187433,0.0062967204,-0.6531036,2017-08-17 16:41:29,0.624644644109386
0.058035277,-0.41590422,9.929205,11.0,-0.01352551,-0.17637865,9.805055,-0.0039482135,0.007239029,-5.4359436E-5,-0.006210602,0.00640329,-0.6531138,2017-08-17 16:41:30,1.3083613348092704
0.05898132,-0.40549773,9.938551,11.0,-0.011690065,-0.17411503,9.805098,0.010778664,0.008489534,0.0114860535,-0.0063335793,0.0062494352,-0.65307486,2017-08-17 16:41:31,11.56520757720454
0.052374266,-0.40267485,9.927333,11.0,-0.015811065,-0.17103158,9.805146,0.0014636405,0.0020397156,0.0023918152,-0.0060784565,0.006304737,-0.65293497,2017-08-17 16:41:32,-0.39767126871487696
0.052374266,-0.39983672,9.93387,15.0,-0.009257776,-0.17097527,9.805155,-0.0014445912,1.6543269E-4,-0.0010070801,-0.006294906,0.0060493224,-0.6528791,2017-08-17 16:41:33,-1.0117201465055117
0.048590086,-0.41212004,9.953514,11.0,-0.011413278,-0.17150734,9.805144,-0.0026657013,-0.0037444532,0.0075912476,-0.006243315,0.0061506736,-0.6529263,2017-08-17 16:41:34,4.17575479673354
0.044805907,-0.40833586,9.934807,11.0,-0.010210372,-0.17431378,9.805096,0.006556403,-0.008992672,0.0047473907,-0.0063914084,0.0063806796,-0.65322685,2017-08-17 16:41:35,-3.0786942019428665
0.06465759,-0.41590422,9.955386,15.0,-0.008238646,-0.1718321,9.805141,0.007066028,-2.8328598E-4,0.0020723343,-0.0062691174,0.006118002,-0.6529178,2017-08-17 16:41:36,-3.5133511397537696
0.048590086,-0.4215805,9.938551,11.0,-0.010026149,-0.16961123,9.805178,-0.0010779509,5.822629E-4,-0.011062622,-0.0062706512,0.0060403706,-0.65285397,2017-08-17 16:41:37,-0.49543865738039106
0.04575195,-0.42345732,9.937614,11.0,-0.01296139,-0.17313688,9.805113,-0.004383079,-0.0062296838,0.005466461,-0.0062538455,0.0062655765,-0.65303016,2017-08-17 16:41:38,1.90769274511494
0.046697997,-0.4253494,9.939487,11.0,-0.012617937,-0.17463925,9.805087,-0.0021986784,-0.0035756081,0.007601738,-0.0065007717,0.006385054,-0.6533103,2017-08-17 16:41:39,-3.1341958495704962
0.044805907,-0.40267485,9.917035,11.0,-0.013843417,-0.17276622,9.805119,-0.009466561,-0.0027626455,-0.015676498,-0.006197666,0.006220051,-0.6529511,2017-08-17 16:41:40,3.7992840582931815
0.04953613,-0.42818755,9.946961,11.0,-0.009594588,-0.17245555,9.805129,-0.002650679,-0.009729713,0.015019417,-0.0063401707,0.006112335,-0.65296495,2017-08-17 16:41:41,-1.2043823538162353
0.05142822,-0.41022795,9.931998,11.0,-0.008810708,-0.17215076,9.805135,-0.00254218,-4.8157573E-4,0.0061006546,-0.0063546873,0.0060717184,-0.6529415,2017-08-17 16:41:42,3.643750845373213
0.06465759,-0.4130661,9.939487,11.0,-0.01007334,-0.17504923,9.805082,0.0020546643,-0.004188463,0.011175156,-0.0063904007,0.0063318997,-0.6531853,2017-08-17 16:41:43,-5.6314192529759275
0.048590086,-0.41401213,9.936679,11.0,-0.010898152,-0.17275332,9.805122,-1.6447715E-4,-0.0062419176,-0.0047388077,-0.0062500676,0.006185346,-0.6529603,2017-08-17 16:41:44,-0.4051141922487311
0.04764404,-0.4177963,9.932934,11.0,-0.009790737,-0.17484951,9.805086,-0.008979013,-0.005341962,0.01061058,-0.0064830603,0.0061191763,-0.653075,2017-08-17 16:41:45,-0.5413152616444864
0.05142822,-0.42063445,9.928254,11.0,-0.016575545,-0.17000107,9.805162,-0.009513255,3.2052398E-5,-0.012761116,-0.0061814818,0.0062947664,-0.6530018,2017-08-17 16:41:46,6.815238891798391
0.038183592,-0.41022795,9.917972,11.0,-0.009034486,-0.17487435,9.805086,-0.006038524,-0.004846707,0.0025777817,-0.006451156,0.0061723697,-0.6530962,2017-08-17 16:41:47,2.844307338445195
0.048590086,-0.4130661,9.937614,11.0,-0.008925183,-0.17310707,9.805119,-0.004649018,-0.0024795234,0.002298355,-0.0063873664,0.0061084433,-0.6529961,2017-08-17 16:41:48,1.7108623844340554
0.053305052,-0.40738982,9.921716,11.0,-0.0107033895,-0.16978176,9.805175,-0.005633099,0.0030257404,-0.008649826,-0.0063061994,0.006186327,-0.6530021,2017-08-17 16:41:49,3.9192702488951436
0.058035277,-0.41212004,9.946961,11.0,-0.006715887,-0.1758496,9.805071,6.004479E-4,-0.0028360784,-0.0014619827,-0.006580153,0.006277483,-0.6532783,2017-08-17 16:41:50,-2.9030613027220813
0.053305052,-0.40267485,9.932934,11.0,-0.0067371954,-0.16942783,9.805184,-0.004642917,0.002237305,-0.013625145,-0.0063198884,0.0058995597,-0.6527719,2017-08-17 16:41:51,18.43631762491623
0.041967772,-0.42629546,9.934807,11.0,-0.009801208,-0.17341584,9.805112,-0.005088102,-0.0011265576,-0.006699562,-0.006367335,0.0063658776,-0.6531969,2017-08-17 16:41:52,25.26036231894397
0.05142822,-0.41401213,9.929205,11.0,-0.009608492,-0.17159599,9.805144,-0.0013902308,-0.0025621355,-0.009666443,-0.0062844674,0.0060714525,-0.65289,2017-08-17 16:41:53,7.217075919688175
0.044805907,-0.41590422,9.935742,15.0,-0.013350748,-0.17177542,9.805137,-0.0048123235,-0.0022079498,-8.869171E-5,-0.0061889123,0.0062346724,-0.65295696,2017-08-17 16:41:54,0.4200914300751153
0.055197142,-0.40078276,9.945088,11.0,-0.011569194,-0.16972221,9.805175,0.011851145,-6.118417E-5,-0.0011816025,-0.0061267368,0.0060505616,-0.65275747,2017-08-17 16:41:55,-1.434221423023131
0.053305052,-0.41022795,9.925446,11.0,-0.012645452,-0.17319492,9.805113,0.00774712,0.0046677142,-0.006313324,-0.006266601,0.006255316,-0.65303093,2017-08-17 16:41:56,2.7588696030122586
0.05142822,-0.40644377,9.9413595,13.0,-0.010027004,-0.17612645,9.805063,0.009313311,0.0025039017,2.89917E-4,-0.0064033535,0.006213447,-0.65309566,2017-08-17 16:41:57,3.41805346699918
0.04385986,-0.40644377,9.92919,11.0,-0.01693163,-0.17250836,9.805119,0.0031951703,0.0065330416,7.266998E-4,-0.0060974048,0.0063979244,-0.65302676,2017-08-17 16:41:58,8.141643257706061
0.042913817,-0.40738982,9.946961,11.0,-0.0110077225,-0.17012621,9.805168,-0.0019615125,0.0068340153,0.0022850037,-0.006201833,0.0061289966,-0.6528779,2017-08-17 16:41:59,6.066164547326562
0.04764404,-0.4130661,9.932934,11.0,-0.008385988,-0.1696027,9.80518,-0.0050875144,-0.003979042,0.009634972,-0.0062715816,0.005969258,-0.6527951,2017-08-17 16:42:00,14.892551683692606
0.044805907,-0.39889067,9.930126,11.0,-0.012603956,-0.17175287,9.805138,-0.01168307,0.0027975738,-0.025612831,-0.0060873334,0.0061494457,-0.6528115,2017-08-17 16:42:01,14.009155664353308
0.055197142,-0.40455168,9.92919,11.0,-0.011956111,-0.17211176,9.805132,0.0058381604,0.0017323941,-0.0077991486,-0.0062482716,0.0061920783,-0.6529646,2017-08-17 16:42:02,8.129133566428555
0.050482176,-0.42818755,9.928268,11.0,-0.012406415,-0.17081718,9.805155,0.0010621762,-0.012470439,-0.006134033,-0.0061838483,0.0061657955,-0.6528956,2017-08-17 16:42:03,4.85410851674114
0.05142822,-0.42063445,9.92078,11.0,-0.008909124,-0.17624652,9.805062,-0.0031974558,0.0028216988,-0.0043649673,-0.0065076887,0.0062138853,-0.6531722,2017-08-17 16:42:04,3.160359042889395
0.050482176,-0.41022795,9.943232,11.0,-0.015436777,-0.17033502,9.805159,-0.0040601194,-0.0062921047,-0.004573822,-0.006029303,0.006155612,-0.65277433,2017-08-17 16:42:05,0.6363823399544097
0.056143187,-0.4177963,9.914227,11.0,-0.0129136825,-0.17105614,9.805149,-0.005279283,-0.0016609728,0.003455162,-0.0061532436,0.006136748,-0.65284896,2017-08-17 16:42:06,1.7473196379295641
0.059927367,-0.41590422,9.951642,11.0,-0.00822932,-0.17217365,9.805136,0.005816152,0.0047524422,0.016361237,-0.0063749542,0.0060499995,-0.6529381,2017-08-17 16:42:07,3.9110058414173214
0.050482176,-0.4130661,9.931998,9.0,-0.008157018,-0.17150193,9.805147,0.0039835456,-0.0015211552,6.990433E-4,-0.0063578226,0.005991055,-0.65287626,2017-08-17 16:42:08,-4.406919890929875
0.053305052,-0.411174,9.961939,11.0,-0.0073669716,-0.16938648,9.805184,3.701588E-4,0.012137562,-0.009231567,-0.006126637,0.00586118,-0.65259874,2017-08-17 16:42:09,2.7336303341901886
0.050482176,-0.411174,9.9161,13.0,-0.01088647,-0.17169476,9.8051405,0.0013152743,-6.867051E-4,-0.02202034,-0.0062680407,0.006136622,-0.65293264,2017-08-17 16:42:10,1.7245697440058718
0.055197142,-0.4196884,9.932934,11.0,-0.008868866,-0.17253444,9.805128,-0.0015541809,0.005815029,-0.006676674,-0.0063541355,0.006122051,-0.65298325,2017-08-17 16:42:11,2.833719089025669
0.052374266,-0.40267485,9.931062,11.0,-0.011115265,-0.170265,9.805165,-0.0041349092,0.0028050244,-0.013115883,-0.00637471,0.006157421,-0.6530279,2017-08-17 16:42:12,-0.2586266184373588
0.055197142,-0.39983672,9.925461,11.0,-0.009048508,-0.1676733,9.805212,0.001764778,-0.005043119,-0.002661705,-0.006209894,0.0059644207,-0.65274596,2017-08-17 16:42:13,3.78227511428433
0.039129637,-0.4253494,9.930126,9.0,-0.013092044,-0.17497192,9.80508,-0.0064887647,-0.0092020035,0.0013208389,-0.006319484,0.006332603,-0.65313417,2017-08-17 16:42:14,4.060076304200707
0.057089232,-0.40833586,9.924524,11.0,-0.011559572,-0.17006533,9.805169,0.004134398,0.004176706,0.00111866,-0.0060962453,0.006147515,-0.6528164,2017-08-17 16:42:15,6.7425817319393
0.046697997,-0.41212004,9.92919,11.0,-0.011101233,-0.1696505,9.805177,-9.0981275E-4,0.0036760122,0.0029621124,-0.0061828513,0.0060759233,-0.65281963,2017-08-17 16:42:16,10.891873147894746
0.053305052,-0.4017288,9.935742,11.0,-0.0060786344,-0.16748469,9.805218,-0.0054943715,0.0010091513,-0.0014877319,-0.0064040963,0.00590348,-0.6528367,2017-08-17 16:42:17,-0.13788284485633298
0.03252258,-0.40078276,9.937614,11.0,-0.008598549,-0.16478454,9.805262,0.003216851,-0.002999559,0.0076169968,-0.006186719,0.005788808,-0.6525819,2017-08-17 16:42:18,3.6875161954455535
0.044805907,-0.40833586,9.930141,9.0,-0.013019652,-0.16891274,9.805186,-0.009198954,0.0024054348,-0.006462097,-0.0060750004,0.0061850557,-0.6528323,2017-08-17 16:42:19,3.299061234002103
0.044805907,-0.411174,9.952578,11.0,-0.009487028,-0.17104267,9.805154,-0.00445743,-6.0516596E-4,-0.0018472672,-0.0060901274,0.0060554813,-0.6527349,2017-08-17 16:42:20,-5.461085859988124
0.0627655,-0.41022795,9.929205,9.0,-0.0073500667,-0.17015375,9.805171,-0.0019338569,0.0012666881,0.021198273,-0.006385181,0.0058597396,-0.6527862,2017-08-17 16:42:21,3.7423265885443664
0.06465759,-0.40267485,9.931062,8.0,-0.011218611,-0.16964878,9.805176,0.0045191385,0.005704701,-9.098053E-4,-0.006178871,0.0060804067,-0.65282047,2017-08-17 16:42:22,1.8989368050138813
0.057089232,-0.41874236,9.924524,9.0,-0.013138324,-0.16934878,9.805179,-0.0040485077,0.01269266,-0.0072774887,-0.005981416,0.006004885,-0.65261316,2017-08-17 16:42:23,9.311717218198273
0.050482176,-0.39983672,9.931062,11.0,-0.008057593,-0.17469692,9.805091,-0.0016670721,0.010423377,0.0019845963,-0.006476981,0.006128589,-0.6530784,2017-08-17 16:42:24,11.511399228714536
0.04385986,-0.411174,9.930126,9.0,-0.0130590685,-0.17306812,9.805114,1.5112571E-5,-0.0019213855,0.0072689056,-0.0062281983,0.0061778566,-0.65293807,2017-08-17 16:42:25,1.9207936443981153
0.04953613,-0.41401213,9.935742,11.0,-0.016331544,-0.17088859,9.805147,-0.0017270576,0.006739065,0.01004982,-0.005971179,0.0062757693,-0.6528325,2017-08-17 16:42:27,10.564283899810547
0.04385986,-0.42251128,9.939487,11.0,-0.010490177,-0.17252325,9.805127,-0.0042769993,-0.008462012,-0.0020551682,-0.0062709707,0.00599304,-0.6528145,2017-08-17 16:42:28,19.89150747907156
0.052374266,-0.41495818,9.931998,11.0,-0.0077206763,-0.17476214,9.80509,-0.0015870593,0.0039518923,2.3841858E-4,-0.0064377724,0.005879698,-0.6528413,2017-08-17 16:42:29,23.278376716920963
0.055197142,-0.4036209,9.946961,8.0,-0.011545925,-0.17069045,9.805158,0.0061494093,-3.950298E-5,0.019125938,-0.0061627184,0.006053471,-0.65278614,2017-08-17 16:42:30,2.7516733382024534
0.056143187,-0.40078276,9.937614,9.0,-0.0064815963,-0.1671662,9.805223,-0.0068588024,-2.9481947E-4,0.005648613,-0.0062010703,0.0057594366,-0.65256774,2017-08-17 16:42:31,-1.9339611726415167
0.046697997,-0.4092819,9.923588,9.0,-0.013873969,-0.17043085,9.80516,-0.0065882504,-6.5763295E-4,-0.0010280609,-0.0061443937,0.0062312535,-0.6529216,2017-08-17 16:42:32,0.1859648849165848
0.057089232,-0.411174,9.915163,7.0,-0.009541696,-0.17189242,9.805139,9.71769E-4,0.0030072033,-0.0028572083,-0.006320443,0.006091273,-0.6529329,2017-08-17 16:42:33,-3.7321068310948142
0.050482176,-0.41212004,9.93387,9.0,-0.008474017,-0.16757557,9.805215,-6.087087E-4,-0.0098935515,1.8119812E-5,-0.006191236,0.0059042484,-0.65268195,2017-08-17 16:42:34,1.8237898289472838
0.04764404,-0.40360564,9.922652,11.0,-0.009871809,-0.16681916,9.805226,-0.004061995,0.0064275414,0.0062446594,-0.0060133967,0.0059168045,-0.65256274,2017-08-17 16:42:35,2.700962814203305
0.053305052,-0.41685027,9.936679,9.0,-0.0061860243,-0.16813721,9.805206,0.009363024,0.0114519745,0.013865471,-0.00624817,0.005811415,-0.6526457,2017-08-17 16:42:36,-11.727115184043006
0.052374266,-0.41495818,9.943232,11.0,-0.014403471,-0.16825503,9.805196,0.0033812467,-0.0020972192,0.017059326,-0.006019452,0.0061565978,-0.65276796,2017-08-17 16:42:37,-12.498774732165998
0.052374266,-0.411174,9.943232,11.0,-0.010569226,-0.16550371,9.805248,-0.008532464,0.0035128444,9.279251E-4,-0.005965792,0.0058179926,-0.65244514,2017-08-17 16:42:38,-5.913361259361894
0.056143187,-0.40644377,9.924524,7.0,-0.011045045,-0.16588728,9.805241,9.1701746E-5,0.001876384,-0.002954483,-0.005982335,0.005965988,-0.6525813,2017-08-17 16:42:39,-9.610819339696304
0.05142822,-0.41212004,9.930126,9.0,-0.007429561,-0.17197125,9.80514,-0.0021656817,-0.0020038784,-0.010184288,-0.0063939057,0.006012225,-0.6529203,2017-08-17 16:42:40,3.7279697330928223
0.05142822,-0.4092819,9.922652,11.0,-0.008157377,-0.1688393,9.805193,0.0064086616,-0.019552141,0.004258156,-0.0063376552,0.006008707,-0.6528763,2017-08-17 16:42:41,6.082919756454155
0.050482176,-0.40360564,9.921716,9.0,-0.00844058,-0.17013243,9.805171,-0.0028359331,8.714646E-4,1.9073486E-6,-0.0062899855,0.0059892517,-0.65282524,2017-08-17 16:42:42,21.18125162170672
0.054251097,-0.39794463,9.939487,9.0,-0.008465012,-0.16656828,9.805232,0.0071173785,0.0071171075,0.010369301,-0.0061530634,0.0058699134,-0.6526253,2017-08-17 16:42:43,15.583147376606636
0.055197142,-0.39983672,9.932934,9.0,-0.015468311,-0.1636805,9.805272,-0.008151431,0.0042731166,0.008014679,-0.005710667,0.00618594,-0.6525673,2017-08-17 16:42:44,4.750807130711257
0.044805907,-0.41401213,9.931062,9.0,-0.013470133,-0.169607,9.805174,-0.016837966,-0.0033981204,-0.01296711,-0.006072073,0.006114274,-0.65277094,2017-08-17 16:42:45,1.859315138030625
0.057089232,-0.40738982,9.945088,11.0,-0.009976222,-0.16480073,9.80526,0.0012458451,0.0014537722,-0.0037870407,-0.006115606,0.0058464664,-0.65257835,2017-08-17 16:42:46,11.619292271443108
0.054251097,-0.39699858,9.943216,7.0,-0.008922291,-0.16966495,9.805179,0.0072448673,-0.005848944,0.006597519,-0.0061767944,0.0059268153,-0.65269035,2017-08-17 16:42:47,6.40978057358332
0.048590086,-0.39983672,9.928254,7.0,-0.013606012,-0.16531007,9.805247,-0.0034205206,0.0029489398,0.0040302277,-0.006075255,0.006002701,-0.6526798,2017-08-17 16:42:48,-2.286881741466619
0.053305052,-0.39889067,9.9161,9.0,-0.0055624833,-0.1619009,9.805312,-0.0051272945,0.0023813248,-0.0120821,-0.006071454,0.0056001567,-0.6523395,2017-08-17 16:42:49,0.14678015455812782
0.054251097,-0.40738982,9.92078,7.0,-0.009625101,-0.16913442,9.805187,0.00347092,0.0023860037,-0.0042209625,-0.0061527644,0.006027947,-0.6527575,2017-08-17 16:42:50,2.671717284030138
0.04575195,-0.39037627,9.913306,11.0,-0.01283242,-0.17175858,9.805138,0.007271054,0.018356755,-8.201599E-4,-0.006205561,0.006214053,-0.65295184,2017-08-17 16:42:51,1.5855094706974218
0.056143187,-0.40833586,9.927333,7.0,-0.010865214,-0.16645886,9.805231,-0.002109793,0.002097115,-0.003162384,-0.0061618965,0.005960801,-0.65270793,2017-08-17 16:42:52,4.009155664353309
0.044805907,-0.38187712,9.931998,7.0,-0.009163529,-0.16818166,9.805203,-0.0047909785,0.0011545122,4.272461E-4,-0.006024186,0.005888687,-0.652547,2017-08-17 16:42:53,0.20542546185104868
0.05142822,-0.41495818,9.925461,9.0,-0.009334394,-0.1707304,9.80516,-0.0037874794,0.0062519014,-0.0069675446,-0.006214685,0.006039494,-0.65281236,2017-08-17 16:42:54,-0.51067707588816
0.057089232,-0.4215805,9.937614,9.0,-0.008014089,-0.17275628,9.805125,0.001835282,-0.0031408966,0.013225555,-0.006243713,0.0059990557,-0.65279967,2017-08-17 16:42:55,1.4223299179471383
0.052374266,-0.39794463,9.927318,9.0,-0.00709214,-0.1710934,9.805155,0.0110453665,0.010697052,0.004085541,-0.006275012,0.006014494,-0.6528354,2017-08-17 16:42:56,6.766936096248665
0.053305052,-0.39889067,9.9413595,9.0,-0.009507337,-0.16931473,9.805183,0.01163076,0.001406908,0.012418747,-0.0060595265,0.005993897,-0.65266097,2017-08-17 16:42:57,8.339037573892332
0.04953613,-0.39983672,9.948833,7.0,-0.015100817,-0.1636518,9.805273,0.002726689,0.015102476,-0.002989769,-0.0057679247,0.006078813,-0.6525194,2017-08-17 16:42:58,-2.019539208994171
0.04953613,-0.41495818,9.92078,7.0,-0.0059152544,-0.16510408,9.805259,-0.006226912,0.0026774704,-0.0010232925,-0.0062051653,0.0058763586,-0.6526688,2017-08-17 16:42:59,1.1237455656638642
0.04575195,-0.39699858,9.930126,7.0,-0.007960231,-0.16372983,9.80528,-0.009238163,0.0070302635,-0.0010681152,-0.0060767545,0.005743207,-0.65246344,2017-08-17 16:43:00,1.3632413218419352
0.046697997,-0.40644377,9.919844,7.0,-0.008817625,-0.16748494,9.805216,-0.0039279424,0.0011635572,0.012815475,-0.006168846,0.0059894836,-0.652737,2017-08-17 16:43:01,2.791106042461778
0.056143187,-0.4092819,9.927318,7.0,-0.007100487,-0.16695112,9.805226,0.005688409,-0.006513208,0.0037155151,-0.0062490264,0.0058824634,-0.65270585,2017-08-17 16:43:02,5.123007511906302
0.040075682,-0.41212004,9.925461,7.0,-0.016037,-0.16662338,9.805222,0.0022371784,-0.006232038,0.0052518845,-0.0059287325,0.006210908,-0.6527473,2017-08-17 16:43:03,-5.913361259361894
0.0627655,-0.4092819,9.942295,7.0,-0.0068267,-0.16541186,9.805253,0.0039853286,0.0028824657,0.007258415,-0.006139486,0.0058612465,-0.65260816,2017-08-17 16:43:04,6.4035719308975665
0.05898132,-0.4017288,9.924524,9.0,-0.0108666755,-0.16989338,9.805172,-0.0064928336,-0.0055725873,-0.0028381348,-0.0062594768,0.006087579,-0.6528853,2017-08-17 16:43:05,0.02030998940334882
0.050482176,-0.4017288,9.93387,7.0,-0.014142709,-0.16788743,9.8052025,-0.005375946,-0.003970951,0.0030755997,-0.005983484,0.006060582,-0.6526613,2017-08-17 16:43:06,4.165364971636961
0.05142822,-0.411174,9.92919,7.0,-0.008506002,-0.17324305,9.805116,0.01159753,-0.011727676,0.002825737,-0.0064395173,0.0061295293,-0.65305185,2017-08-17 16:43:07,5.988246910664822
0.041021727,-0.40738982,9.931062,7.0,-0.012706187,-0.16832937,9.805197,0.0020287856,0.0045506805,0.0072984695,-0.0060788933,0.0060934382,-0.6527585,2017-08-17 16:43:08,-3.422869849979799
0.05142822,-0.4253494,9.947897,9.0,-0.006641466,-0.16746859,9.805218,-0.0022640186,-0.013023347,0.006726265,-0.006248251,0.0058297263,-0.6526611,2017-08-17 16:43:09,-2.721538679277521
0.06844177,-0.41022795,9.925461,7.0,-0.0064582177,-0.16471216,9.805264,0.0076873545,0.0055491626,-0.009915352,-0.00596478,0.005764641,-0.6523997,2017-08-17 16:43:10,1.9900053851989317
0.04764404,-0.41022795,9.934807,7.0,-0.009453368,-0.17039247,9.805165,-0.011467929,0.0050421804,0.010857582,-0.006240818,0.006054863,-0.6528443,2017-08-17 16:43:11,3.8105864584759157
0.06371155,-0.39889067,9.937614,7.0,-0.012895984,-0.17124407,9.805146,0.010262683,0.00394921,-0.00797081,-0.006183808,0.006199144,-0.65292346,2017-08-17 16:43:12,-0.04090716102154491
0.048590086,-0.41495818,9.928254,7.0,-0.01174316,-0.17033444,9.805163,-7.55514E-4,0.009290978,-0.009950638,-0.0061468994,0.005992685,-0.65272367,2017-08-17 16:43:13,-4.578751109357265
0.05898132,-0.40267485,9.922652,7.0,-0.00754631,-0.17185256,9.805141,0.002997131,-0.008350641,0.0110731125,-0.0063499915,0.005872957,-0.6527716,2017-08-17 16:43:14,5.494630762369819
0.058035277,-0.40644377,9.945104,7.0,-0.008457809,-0.17437963,9.805096,-0.0042883027,0.005837694,0.006877899,-0.0064515206,0.00613335,-0.6530638,2017-08-17 16:43:15,7.503637344996274
0.05142822,-0.41590422,9.935742,7.0,-0.010011163,-0.16964866,9.805178,-0.0020374926,0.004435912,0.00793457,-0.0063276044,0.0061039235,-0.65294874,2017-08-17 16:43:16,-5.606673061697373
0.052374266,-0.4092819,9.9413595,7.0,-0.007188684,-0.16850244,9.8052,0.0012150118,-8.085221E-4,0.008322716,-0.006279266,0.0059264805,-0.65276486,2017-08-17 16:43:17,-3.979400086720376
0.052374266,-0.41495818,9.940423,7.0,-0.009129953,-0.17026739,9.805167,-8.1548654E-4,0.0017176121,0.008665085,-0.006272147,0.0060204794,-0.65283835,2017-08-17 16:43:18,-5.251466067361596
0.04953613,-0.40360564,9.932934,9.0,-0.009150021,-0.16951007,9.805181,-0.0030040424,0.0151373595,-0.02240181,-0.0062425644,0.005995692,-0.65279603,2017-08-17 16:43:19,-6.186592531474241
0.048590086,-0.41212004,9.938551,7.0,-0.0049423343,-0.16675298,9.805231,-0.00195394,-0.0070021898,0.013684273,-0.0062775607,0.0057398234,-0.65260714,2017-08-17 16:43:20,6.736831390392105
0.056143187,-0.39794463,9.928254,7.0,-0.004747291,-0.17034617,9.805169,-0.0027100313,-0.0071575493,-0.011405945,-0.0062322672,0.0058648866,-0.6526789,2017-08-17 16:43:21,9.12570760755778
0.05898132,-0.4092819,9.919844,9.0,-0.007595504,-0.17060168,9.805163,0.0068396367,9.535551E-4,0.015922546,-0.006304017,0.0059552025,-0.65280694,2017-08-17 16:43:22,6.515505742621111
0.056143187,-0.411174,9.929205,7.0,-0.00978066,-0.16978759,9.805176,-0.0032184022,0.005542204,0.0012168884,-0.0062833084,0.006066467,-0.652885,2017-08-17 16:43:23,6.786890587365152
0.055197142,-0.4196884,9.935742,9.0,-0.012156881,-0.16712037,9.805219,-0.003719055,0.009670511,0.017180443,-0.005962087,0.0060094944,-0.652603,2017-08-17 16:43:24,5.43097553484068
0.038183592,-0.40549773,9.918907,7.0,-0.011873429,-0.16819365,9.805201,-0.014065599,0.0023671836,-0.007785797,-0.006101483,0.006056639,-0.6527441,2017-08-17 16:43:25,-2.6585049919301342
0.042913817,-0.40360564,9.924524,7.0,-0.012813558,-0.16549161,9.805245,-0.0048392694,0.005011663,-0.016215324,-0.0060654623,0.0059629977,-0.6526394,2017-08-17 16:43:26,1.8014380306687818
0.053305052,-0.40455168,9.919844,9.0,-0.0075477394,-0.16872698,9.805196,0.0030654785,0.006398365,-0.0049858093,-0.0062660947,0.0059072645,-0.6527391,2017-08-17 16:43:27,-0.9775907384917443
0.046697997,-0.39794463,9.931062,7.0,-0.0072548226,-0.16988532,9.805176,0.009423101,-4.2928755E-4,-8.678436E-5,-0.006398914,0.0059484234,-0.65287054,2017-08-17 16:43:28,5.670999192936089
0.055197142,-0.39605254,9.930126,6.0,-0.010406234,-0.17408161,9.8050995,0.006078614,0.011425167,0.0074720383,-0.0063751405,0.006198649,-0.6530627,2017-08-17 16:43:29,1.480625354554377
0.054251097,-0.40455168,9.927318,9.0,-0.009595988,-0.1699183,9.805174,-0.0071889088,-0.0018446594,0.004142761,-0.0063393004,0.0059663886,-0.6528421,2017-08-17 16:43:30,6.198430417059889
0.067495726,-0.40644377,9.946976,7.0,-0.007261682,-0.16684493,9.805228,0.0026599406,-0.008590758,-0.0018119812,-0.006178957,0.0058079935,-0.6525923,2017-08-17 16:43:31,4.8184556140447565
0.04764404,-0.41022795,9.935742,7.0,-0.007432903,-0.17105547,9.805156,0.004385425,9.4501674E-4,0.0065965652,-0.0064255306,0.00595154,-0.6528926,2017-08-17 16:43:32,0.19246143783935976
0.054251097,-0.4130661,9.931062,9.0,-0.010384614,-0.16874312,9.805193,-2.834797E-4,-0.004193291,0.0071058273,-0.006079347,0.0059635593,-0.65265,2017-08-17 16:43:33,9.817761493000447
0.06654968,-0.40644377,9.934807,7.0,-0.008068023,-0.16306977,9.805291,0.007313626,0.005306959,9.6416473E-4,-0.006118364,0.005676125,-0.6524375,2017-08-17 16:43:34,4.20935108605238
0.053305052,-0.41022795,9.926396,7.0,-0.009979222,-0.16860537,9.805196,-0.0038125012,0.0019696802,-0.011330605,-0.0061803698,0.0059972415,-0.6527519,2017-08-17 16:43:35,0.6187638783915438
0.054251097,-0.41495818,9.922652,7.0,-0.007377842,-0.1729518,9.805122,0.0044009616,0.0016588569,-0.0074272156,-0.00643306,0.006043342,-0.65297496,2017-08-17 16:43:36,0.5415803258710652
0.04953613,-0.39983672,9.924524,9.0,-0.009231771,-0.16837491,9.805201,-0.005879337,0.010606691,-0.003408432,-0.0061964947,0.005960543,-0.65273297,2017-08-17 16:43:37,9.322041495282688
0.065603636,-0.40549773,9.930126,9.0,-0.0146956835,-0.16863295,9.805189,-0.0024146773,0.0037314743,0.0067825317,-0.00595895,0.006282772,-0.6528294,2017-08-17 16:43:38,5.500371602358481
0.06654968,-0.411174,9.937614,9.0,-0.010516056,-0.16662663,9.805229,-5.709259E-4,-0.0014349818,-3.8528442E-4,-0.00621145,0.005859901,-0.65265954,2017-08-17 16:43:39,9.501517933371703
0.057089232,-0.40549773,9.923588,9.0,-0.0066999197,-0.17075504,9.805161,-0.0010160231,-0.005915761,-0.0010433197,-0.006410025,0.005956284,-0.65288526,2017-08-17 16:43:40,-0.5567157913254096
0.048590086,-0.3951065,9.9235735,7.0,-0.0067340913,-0.16579036,9.805246,-0.0015401072,0.002807945,0.005478859,-0.0063239466,0.0057822554,-0.6526766,2017-08-17 16:43:41,-2.9163222132360107
0.05142822,-0.41212004,9.934807,7.0,-0.007775414,-0.16858323,9.805198,0.0056414953,-0.0051392913,0.0017299652,-0.006292796,0.0057920343,-0.65266204,2017-08-17 16:43:42,3.3464220612542346
0.053305052,-0.40833586,9.922652,7.0,-0.0057349675,-0.16556372,9.805251,0.0087075215,-0.002583325,0.007883072,-0.0061858986,0.005640142,-0.6524566,2017-08-17 16:43:43,5.397815678292542
0.053305052,-0.40738982,9.923588,9.0,-0.009798944,-0.16797885,9.805206,-0.0019621877,-0.0044181347,-9.050369E-4,-0.0061388444,0.0060308613,-0.6527498,2017-08-17 16:43:44,8.154117018753306
0.056143187,-0.40360564,9.93387,7.0,-0.011416843,-0.16651225,9.805229,0.0131132435,-0.0028105825,0.0070056915,-0.006052507,0.0059822486,-0.65264606,2017-08-17 16:43:45,8.935710577056271
0.048590086,-0.411174,9.92078,7.0,-0.0142826885,-0.17041232,9.805159,-0.01941399,0.0023270994,0.006228447,-0.0061406055,0.006179335,-0.65287536,2017-08-17 16:43:46,0.6714062783151162
0.061819457,-0.4253494,9.921716,9.0,-0.012738455,-0.17350401,9.805107,-0.0044452325,9.913743E-4,-0.0016260147,-0.0060752067,0.0063768076,-0.6529929,2017-08-17 16:43:47,6.1542395288594385
0.059927367,-0.40078276,9.937614,9.0,-0.0074919714,-0.16825165,9.805203,0.0038850368,0.0011506081,0.0038862228,-0.0062416536,0.0058102207,-0.6526399,2017-08-17 16:43:48,8.13122101891721
0.053305052,-0.4036209,9.93387,9.0,-0.007109565,-0.16888104,9.805194,0.0063341362,-3.9756298E-5,0.013791084,-0.0062023858,0.005867171,-0.652659,2017-08-17 16:43:49,4.07603325351417
0.06654968,-0.40644377,9.930126,9.0,-0.008113101,-0.16781648,9.805211,0.009403039,-1.809299E-4,-0.001039505,-0.0062124706,0.005898412,-0.65269256,2017-08-17 16:43:50,-4.15244866880508
0.04385986,-0.40833586,9.92078,9.0,-0.0087023685,-0.17042123,9.805165,-0.0031271055,-0.008854285,-0.004682541,-0.0063206134,0.00598794,-0.6528465,2017-08-17 16:43:51,-10.579919469776868
0.050482176,-0.41590422,9.936679,11.0,-0.010057626,-0.17578356,9.80507,-2.6807189E-5,-0.0064962655,-0.011342049,-0.006457712,0.006379772,-0.6532745,2017-08-17 16:43:52,-2.019539208994171
0.058035277,-0.41495818,9.934807,9.0,-0.01000622,-0.16756375,9.805213,-0.0049203066,0.007460952,-8.497238E-4,-0.0061473097,0.0058411206,-0.652597,2017-08-17 16:43:53,-6.508439365188253
0.050482176,-0.40738982,9.928254,9.0,-0.008302989,-0.1728254,9.805123,-9.6525066E-4,0.0010144264,-0.009950638,-0.0062974063,0.006140564,-0.6529574,2017-08-17 16:43:54,-3.9624685065259264
0.0627655,-0.39983672,9.928268,11.0,-0.008624685,-0.1667744,9.805228,9.755222E-4,-0.009203121,0.008419037,-0.006155613,0.0058830464,-0.6526382,2017-08-17 16:43:55,5.07265396442527
0.057089232,-0.40738982,9.936679,9.0,-0.008222557,-0.16974965,9.805178,-8.1156753E-4,0.005017683,0.0016460419,-0.006282642,0.0059678946,-0.652802,2017-08-17 16:43:56,-1.6371545374176582
0.058035277,-0.41401213,9.92919,8.0,-0.007282503,-0.17116255,9.805154,0.0055606286,0.011634722,-0.0074453354,-0.006441821,0.0059572253,-0.6529092,2017-08-17 16:43:57,5.266622930104644
0.056143187,-0.41590422,9.953514,11.0,-0.007914507,-0.16886279,9.805193,0.0024276543,-0.0010155141,0.02199936,-0.0063937255,0.006023051,-0.65292925,2017-08-17 16:43:58,12.308080238230188
0.05898132,-0.40833586,9.932934,11.0,-0.0106380405,-0.1672251,9.805219,3.8108137E-4,-0.0066488534,0.002506256,-0.006105696,0.00597616,-0.6526798,2017-08-17 16:43:59,13.928342969507327
0.057089232,-0.41401213,9.945088,11.0,-0.008699426,-0.16791974,9.805208,0.0051160287,0.0016598254,0.0010499954,-0.006220898,0.0059258034,-0.65272164,2017-08-17 16:44:00,15.27468782530814
0.04764404,-0.39983672,9.915163,11.0,-0.007372761,-0.1678227,9.805211,-0.010305976,-1.8234551E-4,-0.013163567,-0.0062373937,0.005869975,-0.6526869,2017-08-17 16:44:01,9.686288563268187
0.036291502,-0.41212004,9.942295,9.0,-0.008710442,-0.16708507,9.8052225,-0.0033647222,0.004711464,-0.0022697449,-0.00615842,0.0059552896,-0.6527008,2017-08-17 16:44:02,14.182235837809516
0.052374266,-0.40738982,9.919844,11.0,-0.0063117743,-0.16916746,9.805189,-0.003575828,0.013750747,-0.006539345,-0.0062615075,0.0059057926,-0.6527345,2017-08-17 16:44:03,5.372286198199702
0.069387816,-0.40549773,9.928268,11.0,-0.0136312945,-0.16811079,9.8052,-0.0011766683,0.004664436,-0.011369705,-0.006213313,0.0059033576,-0.6526973,2017-08-17 16:44:04,8.69964706372319
0.071279906,-0.40549773,9.931998,11.0,-0.004446511,-0.17053917,9.805166,-0.005623577,-0.0049634576,0.014718056,-0.00631435,0.006005251,-0.6528564,2017-08-17 16:44:05,9.005378083528715
0.06087341,-0.41022795,9.952578,11.0,-3.303241E-4,-0.17245373,9.805134,-0.0062842146,-0.0040286183,-0.008119583,-0.006598709,0.005732268,-0.65283525,2017-08-17 16:44:06,4.4909253111941885
0.05898132,-0.4272415,9.92078,11.0,0.004935428,-0.17332996,9.805118,-0.0068739695,-0.006791398,-0.0118637085,-0.006858209,0.0055797375,-0.6528969,2017-08-17 16:44:07,4.9441550990607634
0.05898132,-0.4177963,9.931998,9.0,1.425831E-4,-0.1734995,9.805116,-0.0052641323,-9.085834E-4,-3.4427643E-4,-0.0067048296,0.0057709063,-0.65294516,2017-08-17 16:44:08,5.348586576936357
0.067495726,-0.42345732,9.930126,11.0,0.009959437,-0.1748974,9.805085,0.005878778,-0.0025640726,-0.0086660385,-0.0070175715,0.0054451,-0.65290034,2017-08-17 16:44:09,3.430391386714927
0.08167114,-0.39794463,9.938551,11.0,0.016402517,-0.17433214,9.805087,0.004740306,0.015070662,0.010972977,-0.0074035805,0.005392576,-0.65313846,2017-08-17 16:44:10,6.439151018877151
0.07033386,-0.41212004,9.911433,9.0,0.0044633034,-0.17051008,9.805167,0.0025500106,-7.557422E-4,-0.011094093,-0.006734713,0.005502703,-0.65274197,2017-08-17 16:44:11,3.1636355008486716
0.07315674,-0.42345732,9.922652,11.0,0.0033598829,-0.17430834,9.8051,-0.011008299,0.009272188,-0.0042905807,-0.0069501167,0.005749404,-0.65310633,2017-08-17 16:44:12,4.838546373786309
0.056143187,-0.40549773,9.914227,11.0,0.0010736859,-0.1753167,9.805082,0.0064700274,-2.5495887E-4,-0.007050514,-0.006568547,0.005575158,-0.6526814,2017-08-17 16:44:13,4.9441550990607634
0.07033386,-0.40549773,9.919844,11.0,0.00303049,-0.17445996,9.805098,0.006406522,0.02191864,0.0011806488,-0.0068378397,0.0056916433,-0.65297586,2017-08-17 16:44:14,4.306091254254057
0.061819457,-0.4092819,9.935742,11.0,0.006848563,-0.17279686,9.805125,0.0043311543,0.005690813,-0.006661415,-0.0069214436,0.0054968693,-0.6528735,2017-08-17 16:44:15,9.913645403778391
0.082617186,-0.40360564,9.944168,11.0,0.009035516,-0.17378786,9.805106,-0.0027131848,0.0041710436,-0.0021162033,-0.0069340463,0.005676863,-0.65303373,2017-08-17 16:44:16,12.707152198821635
0.065603636,-0.41401213,9.957258,9.0,0.0017409989,-0.17210425,9.80514,-0.0016206771,1.2992322E-4,0.0035448074,-0.0065634446,0.005736666,-0.6528132,2017-08-17 16:44:17,11.17478447809419
0.06654968,-0.40738982,9.9413595,8.0,0.005516999,-0.16931114,9.805187,0.001389903,-0.009874657,-0.008341789,-0.006848514,0.005369849,-0.6527136,2017-08-17 16:44:18,6.240563794276232
0.065603636,-0.42251128,9.928268,11.0,0.0037536314,-0.17593507,9.805071,-0.008572651,0.0052312315,-0.0025787354,-0.0070020794,0.005802599,-0.6531889,2017-08-17 16:44:19,2.0917978142532703
0.06465759,-0.4130661,9.928254,9.0,0.009125887,-0.17473458,9.805089,0.009997702,-0.0012354851,0.007890701,-0.0071500037,0.005518546,-0.65305877,2017-08-17 16:44:20,1.783473393599054
0.06371155,-0.40644377,9.919844,11.0,0.005437103,-0.16995506,9.805176,-0.0014783046,-6.507039E-4,-0.013964653,-0.006946638,0.0055179987,-0.6529097,2017-08-17 16:44:21,6.735392614556838
0.055197142,-0.411174,9.927318,11.0,0.0045342473,-0.17374168,9.80511,-0.00407679,-0.006385237,0.008971214,-0.0069657047,0.0054879473,-0.6528984,2017-08-17 16:44:22,32.531168029561925
0.07222595,-0.411174,9.950706,11.0,0.0038611619,-0.17142268,9.805151,0.0050059566,5.6256354E-4,-0.0026016235,-0.00674951,0.005556841,-0.65279824,2017-08-17 16:44:23,3.393271974257755
0.07222595,-0.411174,9.918907,11.0,1.4299079E-4,-0.17517276,9.805085,0.012383061,0.003511548,-0.0062732697,-0.0067687384,0.0058274497,-0.6530392,2017-08-17 16:44:24,1.3681961938215337
0.07315674,-0.4092819,9.937614,10.0,0.007788619,-0.16833106,9.8052025,-3.1512603E-4,9.689033E-4,-0.006421089,-0.006762268,0.0053003873,-0.65259224,2017-08-17 16:44:25,3.9192702488951436
0.06465759,-0.4092819,9.934807,11.0,0.005696246,-0.17233014,9.805134,8.792174E-4,0.0013976544,-0.0018806458,-0.0069012335,0.005508877,-0.65286887,2017-08-17 16:44:26,5.527062304219818
0.067495726,-0.4196884,9.927333,11.0,0.002871819,-0.16875358,9.805198,-0.00932508,0.011174262,-0.005206108,-0.006584349,0.0056200554,-0.65273064,2017-08-17 16:44:27,-0.4425213556335814
0.07599487,-0.41874236,9.930126,11.0,0.008743889,-0.17742808,9.805041,0.017799571,-0.004546985,0.002401352,-0.0070332494,0.0055563236,-0.6530051,2017-08-17 16:44:28,3.79645385629075
0.06844177,-0.4092819,9.938551,11.0,0.008030221,-0.17050757,9.805164,-0.0041861334,-0.0017220974,0.0014810562,-0.00685354,0.0053645796,-0.6527128,2017-08-17 16:44:29,21.249014128224818
0.07694092,-0.4177963,9.936679,11.0,0.0060934494,-0.17212133,9.805138,0.006908698,-0.0018834025,-0.0028915405,-0.006850645,0.0054940726,-0.65281945,2017-08-17 16:44:30,30.692494150652387
0.07599487,-0.4130661,9.931998,9.0,0.0047862534,-0.1690345,9.805192,0.0072146016,-0.008782849,6.9618225E-5,-0.006689079,0.005440353,-0.6526563,2017-08-17 16:44:31,2.54140054704398
0.06844177,-0.40644377,9.92078,11.0,0.0011933614,-0.16939071,9.805187,-0.013504384,0.0069556385,-0.0039844513,-0.006545189,0.005534152,-0.65263,2017-08-17 16:44:32,8.314098118548127
0.05898132,-0.40738982,9.924524,11.0,0.0025282055,-0.16882434,9.805197,-0.0123825,-6.130338E-5,-0.0039463043,-0.006614842,0.005443463,-0.6526047,2017-08-17 16:44:33,4.789270555829248
0.07788696,-0.4196884,9.955386,11.0,0.004311161,-0.16868608,9.805199,0.007021357,-0.0022421628,-0.004808426,-0.0065557547,0.0054864353,-0.6525976,2017-08-17 16:44:34,0.47518237792287255
0.0892395,-0.41495818,9.911433,11.0,0.009086529,-0.16950804,9.805181,0.016414002,0.0052749664,0.0029649734,-0.0067479885,0.005005658,-0.6596859,2017-08-17 16:44:35,44.14330461051413
0.07410278,-0.40360564,9.943232,11.0,0.0043571307,-0.16883962,9.805196,0.0040534157,-0.0038936883,0.001200676,-0.0067143952,0.0053581656,-0.6467813,2017-08-17 16:44:36,45.30377114972799
0.080725096,-0.40549773,9.922652,11.0,0.008900482,-0.16638637,9.805235,0.004674443,0.011176944,-0.0010347366,-0.0067646545,0.005139816,-0.6466298,2017-08-17 16:44:37,25.289648811643307
1.1507171,-5.4775496,7.5787687,15.0,-0.108660884,-2.3532658,9.519492,1.4228371,-2.206841,-0.92064667,-0.13185653,0.09561773,-0.6148102,2017-08-17 16:44:38,25.056903894759248
5.4457917,-8.587321,-3.4260254,9.0,5.409423,-7.9252443,2.0246067,0.32311535,-0.95944166,-2.3211105,-0.6764419,0.12270592,-0.5061633,2017-08-17 16:44:39,6.352009109326242
5.2832093,-8.338725,-0.83897674,2.0,5.452573,-8.108743,-0.82953405,0.10295534,-0.13164139,-0.30763525,-0.7293615,0.09015028,-0.44617167,2017-08-17 16:44:40,15.74013171747304
5.371115,-8.0182905,-1.0886948,2.0,5.463717,-8.067782,-1.1086322,-0.021343708,0.032234192,-0.10496962,-0.74040073,0.09108779,-0.43735665,2017-08-17 16:44:41,-3.668472801536245
5.3229127,-8.159129,-1.1784871,2.0,5.4113407,-8.088213,-1.2118565,-0.008795261,0.028484821,-0.015406013,-0.74056923,0.111618795,-0.4474987,2017-08-17 16:44:42,-4.860336878728332
5.390021,-7.8528852,-1.7892463,3.0,5.4179864,-8.030387,-1.5260053,0.091291904,0.097788334,-0.31042182,-0.7550488,0.08778353,-0.42318234,2017-08-17 16:44:43,4.400723383154348
5.369223,-7.8538313,-1.8500339,2.0,5.5060067,-7.866003,-1.9950624,-0.018089294,-0.034844875,0.014493227,-0.77076626,0.0910997,-0.41967928,2017-08-17 16:44:44,-4.965498065579885
5.337088,-7.7630873,-1.7649223,3.0,5.5163317,-7.8619876,-1.9823279,-0.0062828064,0.004406929,-0.007391453,-0.7678122,0.11090998,-0.43238205,2017-08-17 16:44:45,-4.187901476451578
5.0384126,-8.201671,-1.6311775,2.0,5.293006,-8.023371,-1.9442221,-0.07699871,-0.13533735,0.10320234,-0.75990516,0.13706833,-0.43570343,2017-08-17 16:44:46,3.033985729204995
4.992087,-8.263103,-0.16649383,2.0,5.0564585,-8.384156,-0.5554656,-0.021391392,-0.008671761,0.30876964,-0.71092004,0.16602665,-0.47624984,2017-08-17 16:44:47,0.1989482871693926
-2.3314757,-4.118327,8.615101,22.0,-0.8499173,-7.2445493,6.5547338,-0.89422405,2.0964909,1.8281803,-0.19776557,0.30536827,-0.6690272,2017-08-17 16:44:49,24.916614811878492
-0.44008788,-0.24575348,9.877764,11.0,-0.55439144,-0.13985555,9.7899685,0.038256288,0.096388444,0.028049469,0.012209782,0.026485147,-0.6278106,2017-08-17 16:44:50,28.808082349967385
-0.45617065,-0.24103852,9.903945,11.0,-0.5067031,-0.017904775,9.793534,-0.0027431846,0.011650683,-0.009638786,0.015952865,0.020352313,-0.64409983,2017-08-17 16:44:51,10.045900372504764
-1.3938233,-0.54067534,10.174242,13.0,-0.61141205,-0.11395717,9.786908,-0.27792174,-0.188479,0.1168375,0.017471917,0.026481705,-0.69397736,2017-08-17 16:44:52,25.23949588503637
2.8095765,-8.243251,3.0584466,17.0,1.7011701,-7.710536,5.815844,1.3013065,-0.8280487,-2.2206068,-0.38538718,0.1502459,-0.47659364,2017-08-17 16:44:53,27.266979257542772
2.3643708,-8.806621,3.1398137,6.0,2.24811,-9.359574,1.8747696,0.057509422,0.13652706,0.56252825,-0.61250806,0.17101818,-0.37540188,2017-08-17 16:44:54,8.920075958822352
-0.410791,-0.3090927,9.860913,13.0,-0.4631311,-0.56587607,9.779349,-0.0079244375,0.3816162,0.21917152,-0.0067159384,0.03669919,-0.64676034,2017-08-17 16:44:55,3.807763614815251
-0.3947235,-0.3015396,9.869338,11.0,-0.4465262,-0.07318862,9.7962055,-3.5125017E-4,0.007287793,-0.010294914,0.01193815,0.01974848,-0.64876765,2017-08-17 16:44:56,7.756559500737609
-0.4022766,-0.2930252,9.879621,11.0,-0.44960153,-0.061192654,9.796147,-0.004745126,0.014000557,0.0070495605,0.012373742,0.019522576,-0.6456395,2017-08-17 16:44:57,11.544810332870947
-0.37960204,-0.30530852,9.888045,13.0,-0.4499407,-0.069324635,9.796078,0.003187269,-0.0030964315,0.006713867,0.0121615175,0.019825725,-0.64609015,2017-08-17 16:44:58,6.629053251392333
-0.4041687,-0.29680938,9.889918,11.0,-0.4501651,-0.06755134,9.79608,0.003318578,-1.3583153E-4,0.002576828,0.012307059,0.019775055,-0.6459261,2017-08-17 16:44:59,6.642305169920435
-0.40322265,-0.2996475,9.899264,15.0,-0.44688788,-0.06728526,9.796231,-0.0019562244,-0.008695789,-0.011609077,0.0120183015,0.019662658,-0.64605534,2017-08-17 16:45:00,0.7119137188588691
-0.40889892,-0.3109848,9.880557,13.0,-0.45230675,-0.07223321,9.795947,-0.010410905,0.0032915995,-0.0016155243,0.012149382,0.019934023,-0.6461997,2017-08-17 16:45:01,2.2035329053940957
-0.39850768,-0.30625457,9.883365,15.0,-0.4494217,-0.06866521,9.796106,-0.005837828,-0.0035987496,-0.0049934387,0.01213899,0.019754695,-0.6460429,2017-08-17 16:45:02,4.199041419919367
-0.3966156,-0.29870147,9.874019,11.0,-0.45104903,-0.06867492,9.796031,0.0048784614,0.0103523955,0.026594162,0.012083137,0.019749576,-0.6460832,2017-08-17 16:45:03,8.499182280289446
-0.39945373,-0.3072006,9.902073,11.0,-0.45101085,-0.06659919,9.796047,-0.0016699731,-7.898286E-4,0.0011758804,0.012149434,0.019630084,-0.64591956,2017-08-17 16:45:04,11.348342697216827
-0.39093933,-0.31666106,9.9002,13.0,-0.44439742,-0.06894554,9.796333,-0.011077374,-0.002155684,0.0038442612,0.0121008605,0.019540744,-0.6458763,2017-08-17 16:45:05,14.199299460073867
-0.39756164,-0.30059355,9.879621,13.0,-0.4545924,-0.07137726,9.795848,-0.007101804,9.760261E-6,-0.009731293,0.012254536,0.019973781,-0.64615154,2017-08-17 16:45:06,9.273382774506004
-0.39566955,-0.31571501,9.890854,16.0,-0.45151895,-0.0748432,9.795964,0.0046845973,0.0027815625,-0.009426117,0.011977929,0.020033887,-0.64642996,2017-08-17 16:45:07,3.257593212265374
-0.40700683,-0.2930252,9.88711,13.0,-0.44765842,-0.07141347,9.796167,8.1920624E-4,0.0067841113,0.0032491684,0.012122446,0.019786732,-0.64608574,2017-08-17 16:45:08,4.555585733686506
-0.38433227,-0.31666106,9.890854,13.0,-0.44610175,-0.06945232,9.796252,0.0019198656,7.208064E-4,7.352829E-4,0.011999276,0.019651115,-0.64606005,2017-08-17 16:45:09,5.292779267054971
-0.38715515,-0.31287688,9.898328,13.0,-0.44580442,-0.07152315,9.79625,-0.0016135275,0.0022751018,0.017521858,0.011940821,0.019683115,-0.6461367,2017-08-17 16:45:10,5.521356660983087
-0.39093933,-0.3072006,9.89179,15.0,-0.4438429,-0.07158765,9.79634,-0.0017785132,-0.005299777,-0.005502701,0.011828208,0.019558156,-0.6461123,2017-08-17 16:45:11,5.54602715889393
-0.4145752,-0.30436248,9.875892,13.0,-0.46134016,-0.06712312,9.795563,-0.0036444068,0.0010660887,-0.017599106,0.012592601,0.020167634,-0.64605755,2017-08-17 16:45:12,2.308479057718878
-0.40606079,-0.29586333,9.904881,13.0,-0.47084114,-0.065211415,9.795123,-0.010809362,0.0031969473,-0.009070396,0.012958247,0.020521248,-0.64608824,2017-08-17 16:45:13,5.685683720262167
-0.39756164,-0.30814666,9.89179,13.0,-0.46560496,-0.064265385,9.79538,0.008950204,-0.010068849,0.011330605,0.012962701,0.020311734,-0.645892,2017-08-17 16:45:14,0.5355859221325977
-0.44765624,-0.27222747,9.847822,13.0,-0.48085922,-0.057190508,9.794687,0.017656714,0.022594422,-0.041067123,0.013611957,0.02060758,-0.64564157,2017-08-17 16:45:15,40.69509346029789
-0.40795287,-0.30530852,9.903945,11.0,-0.4783943,-0.056906406,9.794809,0.015064746,-0.0023781657,0.012294769,0.013332368,0.020397596,-0.6445522,2017-08-17 16:45:16,44.80322752174133
-0.41362914,-0.30625457,9.889918,13.0,-0.4650256,-0.060444307,9.795432,-0.0050314367,-0.0012780279,-0.008636475,0.013128892,0.019990174,-0.65193063,2017-08-17 16:45:17,3.1241539123987483
-0.4221283,-0.29775542,9.888045,13.0,-0.47048852,-0.06269564,9.7951565,-0.0045799017,0.0048950687,-0.00901413,0.013228422,0.020273283,-0.65210533,2017-08-17 16:45:18,6.649649911767458
-0.41552123,-0.28358,9.901136,13.0,-0.47031304,-0.05681124,9.795201,0.005273819,0.00239788,0.016233444,0.013440853,0.020076869,-0.6517592,2017-08-17 16:45:19,11.760460176907877
-0.42118225,-0.29018706,9.878699,13.0,-0.46788576,-0.060699753,9.795294,-5.605817E-5,0.0027887821,-0.013206482,0.013229761,0.020156153,-0.6519991,2017-08-17 16:45:20,7.543244412111695
-0.4221283,-0.2911331,9.886173,13.0,-0.46999905,-0.061731555,9.795186,-0.0034084916,-0.006407991,0.0058498383,0.013168022,0.02010176,-0.6519996,2017-08-17 16:45:21,22.714785751002438
-0.43158874,-0.2930252,9.865594,13.0,-0.4705265,-0.06499583,9.79514,-0.001969546,-0.0036278367,-0.0063352585,0.013266685,0.020273533,-0.652075,2017-08-17 16:45:22,11.952508382625112
-0.41362914,-0.30341643,9.885238,13.0,-0.47099674,-0.06009643,9.795149,-0.0027329326,-0.0052528232,0.005539894,0.013341857,0.020209072,-0.65195704,2017-08-17 16:45:23,11.569937423913645
-0.40984496,-0.3015396,9.885238,13.0,-0.46565372,-0.065736815,9.795368,0.0062542856,-4.053861E-5,-0.006485939,0.012929756,0.020219134,-0.6522954,2017-08-17 16:45:24,4.593453612351866
-0.41362914,-0.29775542,9.899264,13.0,-0.46698043,-0.061715316,9.795331,-0.0018131435,0.004477501,0.0025129318,0.013147225,0.020106493,-0.65202045,2017-08-17 16:45:25,-2.1511536695738798
-0.42307433,-0.3015396,9.876827,13.0,-0.4693332,-0.060451124,9.795226,0.004070252,-0.008305084,0.004796982,0.013266009,0.020270718,-0.65207297,2017-08-17 16:45:26,-6.600519383056492
-0.41646728,-0.30059355,9.898328,13.0,-0.46620417,-0.06498546,9.795347,0.0052627325,0.00892058,1.9550323E-4,0.012999911,0.02018207,-0.65220606,2017-08-17 16:45:27,-1.6272729749769974
-0.40511474,-0.2996475,9.896456,16.0,-0.46175545,-0.06427061,9.795563,0.007950336,0.0020834655,-0.0040102005,0.012877997,0.019975508,-0.652118,2017-08-17 16:45:28,1.1289811839218673
-0.4145752,-0.29870147,9.894599,13.0,-0.47136715,-0.062373854,9.795116,0.0024782121,0.0040623695,-0.020236015,0.013264781,0.020285418,-0.65208715,2017-08-17 16:45:29,7.695850065528322
-0.41552123,-0.29775542,9.903008,13.0,-0.4705523,-0.06431898,9.795143,0.0017832518,-0.003231123,0.0069360733,0.013199051,0.020302491,-0.652155,2017-08-17 16:45:30,10.10922430273036
-0.41173705,-0.2996475,9.901136,13.0,-0.46570638,-0.066579245,9.79536,0.010750085,-0.00584238,0.010614395,0.0129481265,0.020135032,-0.6522052,2017-08-17 16:45:31,2.9003461136251802
-0.41173705,-0.29775542,9.903945,13.0,-0.465708,-0.060736194,9.795398,0.010408461,1.0979548E-4,0.020605087,0.013047198,0.019889686,-0.6519056,2017-08-17 16:45:32,6.219548200449017
-0.42307433,-0.3015396,9.888045,15.0,-0.4723924,-0.06273953,9.795065,4.2769313E-4,-0.003086254,7.619858E-4,0.013407612,0.020416584,-0.6520907,2017-08-17 16:45:33,2.1912589128088307
-0.4022766,-0.30530852,9.898328,13.0,-0.4708469,-0.06295478,9.795137,0.01328817,-5.696714E-5,0.0045804977,0.013230822,0.020295449,-0.6521233,2017-08-17 16:45:34,-5.886960297699809
-0.410791,-0.2996475,9.910482,13.0,-0.4681486,-0.057566173,9.7953005,0.0057142377,0.008714102,0.008482933,0.013294301,0.01996917,-0.65177953,2017-08-17 16:45:35,-0.05462895701502138
-0.41173705,-0.3015396,9.892726,13.0,-0.46984145,-0.061675657,9.795195,0.0026335716,-0.0046821237,-0.014036179,0.013244566,0.020215461,-0.65204054,2017-08-17 16:45:36,-0.8767828511661295
-0.4221283,-0.31666106,9.893662,13.0,-0.4692267,-0.061020426,9.795228,-5.3679943E-4,-0.0039255098,0.009402275,0.013146812,0.020333394,-0.6522245,2017-08-17 16:45:37,0.9799439430027634
-0.39945373,-0.28924102,9.883365,13.0,-0.46616125,-0.05994573,9.795382,0.0024528801,0.00937324,-0.004061699,0.013188546,0.020035133,-0.65192336,2017-08-17 16:45:38,7.573011114105235
-0.41741332,-0.3024704,9.881493,13.0,-0.4686109,-0.067019254,9.795218,0.0037621856,-0.007222645,0.011917114,0.012996935,0.02037342,-0.65238017,2017-08-17 16:45:39,7.497604638346239
-0.41173705,-0.2911331,9.888045,13.0,-0.4646073,-0.065254055,9.795421,0.008459151,-0.0033547655,-0.010690689,0.012936428,0.02012921,-0.6522094,2017-08-17 16:45:40,3.41805346699918
-0.41362914,-0.30530852,9.894599,13.0,-0.46510985,-0.066514365,9.795388,-9.894967E-4,-0.0047189146,3.376007E-4,0.012968488,0.020137608,-0.6521913,2017-08-17 16:45:41,5.302797598646424
-0.4193054,-0.30436248,9.879621,13.0,-0.47163922,-0.06502831,9.795087,0.0059627295,-0.002604328,0.0076007843,0.013121775,0.020257745,-0.6521766,2017-08-17 16:45:42,-0.9101261613542933
-0.41362914,-0.2949173,9.896471,13.0,-0.46788546,-0.062555,9.795282,-4.7385693E-5,0.00919668,0.008785248,0.013146402,0.020168446,-0.6520768,2017-08-17 16:45:43,7.436812144880555
-0.41362914,-0.30436248,9.917972,13.0,-0.47033116,-0.062363017,9.795166,-0.0030474067,-0.009145439,-0.0017738342,0.013116482,0.020204151,-0.65213275,2017-08-17 16:45:44,3.3745926129065613
-0.41835937,-0.29680938,9.903945,13.0,-0.47057414,-0.063210465,9.795149,-0.010897964,-0.00231836,-0.004278183,0.013321482,0.020304399,-0.6520589,2017-08-17 16:45:45,2.7982373163449474
-0.42025146,-0.30341643,9.902073,13.0,-0.46711504,-0.064772375,9.795305,-0.0013169944,-8.063391E-4,0.0042123795,0.013038343,0.020210288,-0.6522007,2017-08-17 16:45:46,1.0604208254852834
-0.4126831,-0.30436248,9.890854,16.0,-0.47412723,-0.06490358,9.794967,-0.0015037358,-0.009872682,-0.0087070465,0.013250581,0.020502951,-0.6522936,2017-08-17 16:45:47,1.4902656355805457
-0.42402038,-0.3072006,9.88711,13.0,-0.47085747,-0.06521163,9.795123,-0.012031525,-0.005632758,-0.0013313293,0.013095523,0.020354504,-0.6522844,2017-08-17 16:45:48,8.918335299552945
-0.40606079,-0.2949173,9.870275,13.0,-0.46810058,-0.06547929,9.795253,-0.0015114248,-0.003460057,0.0131959915,0.012988982,0.020391224,-0.65240246,2017-08-17 16:45:49,-0.20850138973120136
-0.3947235,-0.2996475,9.902073,13.0,-0.4628639,-0.05947246,9.79554,0.007884741,-0.0050020665,0.0052986145,0.013092549,0.019875525,-0.65185666,2017-08-17 16:45:50,3.0508253967517804
-0.4022766,-0.3015396,9.902073,13.0,-0.46481773,-0.062245183,9.79543,-0.001357913,-0.008122116,0.007912636,0.01313597,0.020078057,-0.65200394,2017-08-17 16:45:51,-0.48783945190862954
-0.42025146,-0.30530852,9.882429,13.0,-0.46577084,-0.06263749,9.7953825,9.390414E-4,-0.0032723546,0.002814293,0.01307248,0.020089623,-0.65206504,2017-08-17 16:45:52,1.2680084793931101
-0.4202362,-0.28734893,9.869338,13.0,-0.4684579,-0.060612813,9.795267,-0.012618303,0.0089084655,9.7084045E-4,0.013307999,0.020174222,-0.6519528,2017-08-17 16:45:53,-8.976949551052375
-0.42118225,-0.30059355,9.896456,13.0,-0.46471074,-0.06407697,9.7954235,0.008900344,-7.279962E-5,-0.0031061172,0.013078214,0.020187985,-0.6521488,2017-08-17 16:45:54,-2.8635198020816843
-0.41646728,-0.3109848,9.877764,11.0,-0.4681944,-0.066284075,9.795243,-0.0023680925,0.0038045123,0.0033054352,0.013151961,0.020283982,-0.652176,2017-08-17 16:45:55,-4.2960301692737515
-0.41646728,-0.28734893,9.888045,13.0,-0.46940044,-0.057664573,9.795239,9.676814E-5,-3.7495792E-4,0.008602142,0.013408126,0.020127784,-0.6518311,2017-08-17 16:45:56,-5.6314192529759275
-0.4202362,-0.30059355,9.886173,13.0,-0.46946916,-0.06421278,9.795197,-0.002864182,-6.347969E-4,0.004257202,0.013196677,0.020238195,-0.6520992,2017-08-17 16:45:57,-1.9551981089400725
-0.410791,-0.27979583,9.899264,13.0,-0.46819794,-0.06648235,9.795241,-0.0063875616,-0.0021345317,0.0036401749,0.013077836,0.020155368,-0.6521198,2017-08-17 16:45:58,0.14678015455812782
-0.42496642,-0.3015396,9.9002,13.0,-0.46952417,-0.062223073,9.795206,-0.0019856691,0.0020630285,0.0011701584,0.013219935,0.020231433,-0.6520745,2017-08-17 16:45:59,0.10061326007895895
-0.41362914,-0.29586333,9.871211,13.0,-0.46717313,-0.060778666,9.795328,-0.012646705,-0.0026556514,-0.014716148,0.013149365,0.020010192,-0.65193224,2017-08-17 16:46:00,-13.43781976084931
-0.40606079,-0.29775542,9.888045,11.0,-0.47093102,-0.06318054,9.795133,-7.945597E-4,-0.0017358065,-0.009111404,0.013185409,0.020226402,-0.6520976,2017-08-17 16:46:01,4.1288035846497415
-0.4221283,-0.2996475,9.882429,13.0,-0.46785468,-0.06529103,9.795266,0.0072271526,-0.0023871958,0.00959301,0.0129018845,0.02016037,-0.65226495,2017-08-17 16:46:02,-1.186510127692528
-0.41552123,-0.3024704,9.911433,13.0,-0.46614224,-0.059544392,9.795384,0.0017429292,-0.0071310997,0.014170647,0.013199699,0.020004194,-0.65188664,2017-08-17 16:46:03,0.6363823399544097
-0.40795287,-0.30341643,9.901136,13.0,-0.4688394,-0.060745895,9.795248,0.008129448,-0.009142466,0.011935234,0.013245479,0.020146873,-0.6519782,2017-08-17 16:46:04,0.2312379884713775
-0.41929016,-0.2930252,9.881493,13.0,-0.46492934,-0.06326521,9.795419,-0.0018755198,-0.0027665347,0.007408142,0.013020994,0.020077445,-0.65209526,2017-08-17 16:46:05,4.926731024258195
-0.41929016,-0.30530852,9.888982,13.0,-0.46749413,-0.06250792,9.795301,0.014007896,5.8779866E-4,-0.0057258606,0.013170171,0.020063223,-0.6519633,2017-08-17 16:46:06,8.930505288995219
-0.40795287,-0.30059355,9.884301,13.0,-0.46659663,-0.059052926,9.795365,-0.0032895505,0.009945244,-0.015011787,0.013395383,0.020107623,-0.65182316,2017-08-17 16:46:07,1.0816318313555358
-0.4221283,-0.3015396,9.876827,13.0,-0.46505502,-0.06481754,9.795403,0.00866136,-0.007218085,-5.092621E-4,0.012935395,0.020055063,-0.6521436,2017-08-17 16:46:08,-3.543935384595969
-0.4221283,-0.2949173,9.896456,13.0,-0.46798173,-0.06303056,9.795275,0.0022770464,-0.0051249266,0.0042743683,0.013131988,0.020187492,-0.6521054,2017-08-17 16:46:09,-4.444521379662943
-0.42402038,-0.3024704,9.897392,13.0,-0.46593773,-0.06376883,9.795367,-0.0023273528,0.008750349,-0.008756638,0.013009976,0.020061914,-0.65209013,2017-08-17 16:46:10,-5.051499783199059
-0.410791,-0.2911331,9.901136,13.0,-0.47213614,-0.064814694,9.795064,0.0011119843,-0.0037156567,0.0024662018,0.013205078,0.020405106,-0.65224224,2017-08-17 16:46:11,-3.928802099026354
-0.42969665,-0.2949173,9.882429,13.0,-0.47265205,-0.05987759,9.795071,0.0022003353,0.0011780262,6.933212E-4,0.013405439,0.020265808,-0.65195715,2017-08-17 16:46:12,-2.621119296336115
-0.3881012,-0.3015396,9.906753,13.0,-0.4698857,-0.06306435,9.795183,0.024069458,-0.0065825433,0.016539574,0.013194545,0.020261947,-0.6521222,2017-08-17 16:46:13,-5.1837824405366115
-0.4126831,-0.29586333,9.878699,13.0,-0.46754074,-0.0638306,9.795291,-2.5478005E-4,0.0028596297,-0.013920784,0.013087537,0.020196307,-0.65214884,2017-08-17 16:46:14,-8.471385816627935
-0.40511474,-0.2996475,9.885238,13.0,-0.46200946,-0.064030655,9.795551,4.4244528E-4,8.020401E-4,-0.011295319,0.01289475,0.01998963,-0.6521173,2017-08-17 16:46:15,0.6714062783151162
-0.4221283,-0.29775542,9.892726,13.0,-0.47058347,-0.06466148,9.795139,-0.011699617,-0.013072416,0.01889801,0.013067442,0.020330478,-0.6522853,2017-08-17 16:46:16,1.6089976016060992
-0.41362914,-0.29870147,9.888045,13.0,-0.46428332,-0.06855722,9.795414,0.004912287,-0.004808396,-0.0035943985,0.012793438,0.020271681,-0.6524516,2017-08-17 16:46:17,1.9164310676183829
-0.41741332,-0.29870147,9.905817,13.0,-0.46509686,-0.0590584,9.795437,-0.01223284,-0.004622232,0.010543823,0.013182719,0.01994824,-0.6518499,2017-08-17 16:46:18,4.131425344354495
-0.4287506,-0.29207915,9.875892,13.0,-0.4679439,-0.061364263,9.795287,0.0055494606,0.001132749,0.0073108673,0.013295507,0.020217627,-0.65200174,2017-08-17 16:46:19,5.123007511906302
-0.41741332,-0.3072006,9.872147,13.0,-0.46865216,-0.06279753,9.795244,-0.004694313,-0.0030168593,-0.0022964478,0.013089418,0.020232765,-0.65218,2017-08-17 16:46:20,2.0623540077854576
-0.4145752,-0.2930252,9.85812,13.0,-0.46741927,-0.05979556,9.795321,3.913343E-4,0.0062808506,-0.017028809,0.013233161,0.020061508,-0.6519114,2017-08-17 16:46:21,2.5564933331081185
-0.42780456,-0.29870147,9.895519,13.0,-0.4679978,-0.06329514,9.795272,-0.0051157773,-0.0031083673,-0.0049886703,0.013065685,0.02015979,-0.6521335,2017-08-17 16:46:22,6.405124923876401
-0.41929016,-0.2930252,9.874955,13.0,-0.46947336,-0.063073255,9.795203,0.00199759,0.0024378225,-0.009926796,0.0129904505,0.020134721,-0.65217113,2017-08-17 16:46:23,1.26293790693266
-0.40984496,-0.30625457,9.883365,13.0,-0.46392304,-0.065956086,9.795448,0.0012368858,0.0015955716,-0.01146698,0.0128874555,0.020125505,-0.6522452,2017-08-17 16:46:24,4.972320966128548
-0.3966156,-0.3109848,9.889918,11.0,-0.46052378,-0.065769404,9.79561,0.008997649,-0.00379394,-0.007372856,0.012828307,0.020044385,-0.65221965,2017-08-17 16:46:25,2.4535841653144024
-0.410791,-0.30530852,9.888045,13.0,-0.46151575,-0.059836995,9.795602,-0.005479783,1.2408942E-5,-0.009087563,0.013057979,0.01975407,-0.65177506,2017-08-17 16:46:26,0.2760440067259176
-0.410791,-0.30814666,9.880557,13.0,-0.46183732,-0.06043075,9.795583,-0.0034947097,-0.0045466647,-0.004799843,0.012924478,0.01993657,-0.6520459,2017-08-17 16:46:27,1.7473196379295641
-0.42307433,-0.3072006,9.876827,13.0,-0.4607324,-0.064218424,9.79561,-0.008593112,0.0016968101,-0.015071869,0.012844988,0.019946478,-0.6521183,2017-08-17 16:46:28,5.304798494705328
-0.40606079,-0.29680938,9.88711,13.0,-0.46631888,-0.056318518,9.795395,8.7070465E-4,-0.010461304,0.0060043335,0.013325368,0.019907044,-0.6516989,2017-08-17 16:46:29,-1.4059898296593407
-0.4022766,-0.30625457,9.888982,13.0,-0.46428284,-0.06316735,9.79545,0.0044845045,-0.0019467175,0.00703907,0.013002961,0.020049376,-0.65208447,2017-08-17 16:46:30,1.53814864344529
-0.40795287,-0.30530852,9.898328,13.0,-0.4625313,-0.06176748,9.795542,0.0054493845,-0.0023237243,0.0078725815,0.012923611,0.01998539,-0.65209043,2017-08-17 16:46:31,2.1127075552664896
-0.40889892,-0.3024704,9.889918,11.0,-0.4679156,-0.059418596,9.7953005,0.012723297,-0.0042971894,6.093979E-4,0.013263776,0.020068483,-0.6518932,2017-08-17 16:46:32,-1.2043823538162353
-0.39850768,-0.3015396,9.88711,13.0,-0.46450773,-0.06677085,9.795415,-0.0025787652,-0.0027834773,0.0021018982,0.012871587,0.020106006,-0.6522404,2017-08-17 16:46:33,-3.422869849979799
-0.41552123,-0.29775542,9.8684025,13.0,-0.46911967,-0.061812162,9.795228,3.4937263E-4,-1.2911856E-5,0.006972313,0.013149127,0.020066293,-0.65198284,2017-08-17 16:46:34,-0.7058107428570728
-0.40984496,-0.2996475,9.873083,16.0,-0.46274826,-0.061080325,9.795536,0.003718108,0.00959136,-0.009181976,0.013111939,0.019826453,-0.651797,2017-08-17 16:46:35,-0.18011602842719499
-0.4145752,-0.2949173,9.896456,13.0,-0.4635349,-0.06399564,9.79548,0.007160723,-0.0017852113,-0.008623123,0.012976731,0.020063443,-0.6521181,2017-08-17 16:46:36,-4.1348302072422145
-0.4193054,-0.30341643,9.870275,16.0,-0.46475098,-0.06685327,9.7954035,-0.007146895,-0.0027117878,-0.014978409,0.01299506,0.02028496,-0.6523023,2017-08-17 16:46:37,0.1989482871693926
-0.41173705,-0.28829497,9.909561,15.0,-0.46428064,-0.058677286,9.795478,-0.0029051304,0.0054220036,0.008238792,0.013180025,0.01994447,-0.6518487,2017-08-17 16:46:38,-6.272030266907177
-0.4145752,-0.31003875,9.88711,13.0,-0.464875,-0.06320326,9.795422,0.011142015,-0.0064066797,0.0043649673,0.012979624,0.020208903,-0.65224636,2017-08-17 16:46:39,6.213061351118983
