ACC_X,ACC_Y,ACC_Z,GYRO_X,GYRO_Y,GYRO_Z,LIGH_1,GRAV_X,GRAV_Y,GRAV_Z,LINACC_X,LINACC_Y,LINACC_Z,ROTVEC_X,ROTVEC_Y,ROTVEC_Z,TIME,VOICE
-4.4532776,-1.2119141,8.559189,0.0,0.0,0.0,0.0,0.0,0.0,0.0,0.0,0.0,0.0,0.0,0.0,0.0,2017-02-02 16:03:59,34.05163800289823
-4.27861,-0.83065796,8.016022,0.20144653,-0.038253784,0.08959961,0.0,-4.3946743,-0.7788956,8.732156,0.5890951,0.1924628,-0.33247948,0.19843388,0.12412879,-0.9015736,2017-02-02 16:04:00,36.096425910983456
-4.3360443,-0.14112854,8.594681,0.03375244,-0.01361084,0.030960083,0.0,-4.526462,-0.34030572,8.692854,-0.057308674,-0.030011624,0.030531883,0.2124558,0.10793661,-0.8963983,2017-02-02 16:04:01,46.05666919658512
-4.6020355,0.5978546,7.7089386,0.09790039,-1.4291992,0.96395874,0.0,-3.8772602,2.995462,8.494966,-1.9627631,-1.5553143,-3.4793625,0.23999253,-0.09633727,-0.92940676,2017-02-02 16:04:02,44.715275470467155
1.8601837,-0.736145,9.227188,-0.29345703,1.0706787,-0.55303955,0.0,2.0140686,-0.536694,9.5825815,0.88169885,-0.18163204,0.37118244,-0.10611809,-0.0127772195,-0.9232525,2017-02-02 16:04:03,50.711097237606225
0.45359802,-0.45658875,9.812225,3.6621094E-4,2.2888184E-4,-0.0014190674,0.0,0.43694973,-0.45643836,9.786272,0.02178371,-0.0012856424,0.01362133,-0.028430955,0.015187509,-0.94981015,2017-02-02 16:04:04,45.954152146300345
0.44482422,-0.5267792,9.801865,3.6621094E-4,-0.001083374,-8.087158E-4,0.0,0.44798756,-0.47121298,9.785072,-0.0072288215,-0.05722013,-0.013104439,-0.029088978,0.015897004,-0.95355,2017-02-02 16:04:05,45.040069680867106
0.4304657,-0.5195923,9.768372,3.6621094E-4,-4.8828125E-4,-0.0014190674,0.0,0.42054695,-0.49939054,9.784893,-0.006868243,-0.0010282099,-0.010113716,-0.028056974,0.017947085,-0.95426774,2017-02-02 16:04:06,49.285241723103866
0.4185028,-0.4956665,9.78511,3.6621094E-4,-4.8828125E-4,-8.087158E-4,0.0,0.42204833,-0.4995847,9.784819,-0.0033519864,0.0012934804,0.011965752,-0.028130926,0.01793722,-0.95430195,2017-02-02 16:04:07,49.84318040720504
0.3993683,-0.50523376,9.80426,-2.4414063E-4,-4.8828125E-4,-8.087158E-4,0.0,0.42047945,-0.49475077,9.785131,-1.847744E-5,-4.0099025E-4,-0.0054101944,-0.027987305,0.017715454,-0.95420396,2017-02-02 16:04:08,43.80486914231604
0.4256897,-0.4837036,9.809036,-2.1362305E-4,-4.119873E-4,6.1035156E-5,0.0,0.4214718,-0.4943488,9.7851095,0.0111505985,-0.0010375082,-0.007941246,-0.028028598,0.017682338,-0.95421946,2017-02-02 16:04:09,37.763424524257246
0.4424286,-0.51719666,9.799469,3.9672852E-4,-4.119873E-4,6.1035156E-5,0.0,0.4145367,-0.49693495,9.7852745,-0.0031663775,-0.008345723,-0.011202812,-0.027736891,0.017902695,-0.9541082,2017-02-02 16:04:10,49.406910065478826
0.41133118,-0.4956665,9.775543,3.9672852E-4,-4.119873E-4,6.1035156E-5,0.0,0.4164928,-0.49799964,9.785138,0.0046346188,0.0044549704,-0.011386871,-0.027844872,0.0179304,-0.95416373,2017-02-02 16:04:11,48.75522284587539
0.41133118,-0.5076294,9.780334,-2.1362305E-4,-4.119873E-4,6.1035156E-5,0.0,0.41840285,-0.49813265,9.7850485,0.009878039,-0.0025761425,-0.016537666,-0.027937323,0.017912071,-0.95420575,2017-02-02 16:04:12,56.33836290165569
0.40893555,-0.4956665,9.773148,3.9672852E-4,8.087158E-4,6.1035156E-5,0.0,0.412677,-0.49725655,9.7853365,0.0015750229,0.0033344328,-0.0065460205,-0.02765336,0.017943202,-0.9540733,2017-02-02 16:04:13,54.48194534327865
0.42089844,-0.50045776,9.789902,3.9672852E-4,1.8310547E-4,6.1035156E-5,0.0,0.41364318,-0.4979894,9.785258,0.019373804,-0.009827435,0.013116837,-0.027709665,0.017967232,-0.9541035,2017-02-02 16:04:14,51.076892950769604
0.4304657,-0.49327087,9.775543,-2.1362305E-4,1.8310547E-4,-5.493164E-4,0.0,0.41477188,-0.49172223,9.785528,-0.003351152,-0.0016548038,-0.015044212,-0.027673215,0.0176385,-0.95404273,2017-02-02 16:04:15,44.45355609456222
0.42089844,-0.47413635,9.789902,0.0010070801,1.8310547E-4,6.1035156E-5,0.0,0.41729322,-0.49426612,9.785293,0.00976482,-0.006021768,-0.011694908,-0.02782928,0.01773287,-0.9541303,2017-02-02 16:04:16,60.36884189109847
0.41371155,-0.50283813,9.770752,3.9672852E-4,-4.119873E-4,6.1035156E-5,0.0,0.4174951,-0.49773318,9.785109,0.01579976,-0.0032414496,-0.011366844,-0.027888564,0.01790393,-0.95418125,2017-02-02 16:04:17,56.15185407072345
0.43525696,-0.51242065,9.749222,-2.1362305E-4,-4.119873E-4,6.1035156E-5,0.0,0.42147797,-0.49483374,9.785085,0.019002646,-0.013321191,-0.0063209534,-0.028035842,0.01770656,-0.95422614,2017-02-02 16:04:18,59.435538409072564
0.42089844,-0.4837036,9.787506,-2.1362305E-4,0.0014038086,6.1035156E-5,0.0,0.41698503,-0.4987079,9.785081,0.0018530786,2.4473667E-4,-0.00646019,-0.027878355,0.017959442,-0.9541836,2017-02-02 16:04:19,59.55588877547793
0.42089844,-0.49087524,9.765976,-2.1362305E-4,1.8310547E-4,6.713867E-4,0.0,0.41569725,-0.50158465,9.784988,-0.01369077,-0.003960192,-9.803772E-4,-0.027858527,0.01812043,-0.95419514,2017-02-02 16:04:20,53.294995980063256
0.4185028,-0.48130798,9.8138275,-2.1362305E-4,8.087158E-4,6.1035156E-5,0.0,0.4121686,-0.4957158,9.785437,-0.005559385,0.016720116,0.0061101913,-0.027607152,0.017872706,-0.9540418,2017-02-02 16:04:21,36.83519819401632
0.39697266,-0.50045776,9.770752,3.9672852E-4,8.087158E-4,-5.493164E-4,0.0,0.42187548,-0.4937615,9.785123,-8.365512E-4,-0.0020694137,-0.0039253235,-0.02803932,0.017647631,-0.95422006,2017-02-02 16:04:22,39.43190978739101
0.4185028,-0.4956665,9.773148,0.0010070801,-4.119873E-4,6.1035156E-5,0.0,0.41581318,-0.5025911,9.784932,0.003006965,0.008936644,-0.02107048,-0.027878428,0.018169338,-0.95421106,2017-02-02 16:04:23,42.70752328154476
0.42807007,-0.48130798,9.799469,3.9672852E-4,1.8310547E-4,-5.493164E-4,0.0,0.4147712,-0.49817523,9.785202,-0.005580604,-0.0049692094,-0.027567863,-0.02776579,0.01796175,-0.9541298,2017-02-02 16:04:24,50.3700989594285
0.42807007,-0.50045776,9.770752,3.9672852E-4,-4.119873E-4,6.1035156E-5,0.0,0.41958067,-0.49460688,9.785177,0.0011915863,0.0032028258,0.005791664,-0.027942626,0.017719999,-0.9541831,2017-02-02 16:04:25,59.65123047872774
0.39697266,-0.5076294,9.768372,-2.1362305E-4,1.8310547E-4,6.1035156E-5,0.0,0.41195062,-0.49863783,9.785297,-0.007140547,-0.007401794,0.0060606003,-0.027638748,0.018021919,-0.9540766,2017-02-02 16:04:26,58.98254804546923
0.4185028,-0.50283813,9.773148,-2.1362305E-4,1.8310547E-4,-5.493164E-4,0.0,0.4177249,-0.49377367,9.785299,0.0036748052,0.014268786,0.018740654,-0.027842682,0.017702542,-0.95413274,2017-02-02 16:04:27,42.16928341828131
0.41610718,-0.49806213,9.773148,3.9672852E-4,1.8310547E-4,-5.493164E-4,0.0,0.41758162,-0.50092787,9.784942,0.0157125,0.0023465753,-0.011220932,-0.027938427,0.018062871,-0.95422596,2017-02-02 16:04:28,38.02220673728173
0.41133118,-0.510025,9.756393,-2.1362305E-4,-4.119873E-4,6.1035156E-5,0.0,0.41638854,-0.4965872,9.785213,0.0018895566,-0.015565515,0.004199028,-0.027819684,0.017861003,-0.9541425,2017-02-02 16:04:29,36.14054591214775
0.41610718,-0.4956665,9.777939,0.0010070801,8.087158E-4,-5.493164E-4,0.0,0.41365197,-0.49739262,9.785289,0.007743746,0.0035237968,-3.7765503E-4,-0.027701521,0.017937222,-0.95409566,2017-02-02 16:04:30,37.02182324181284
0.42329407,-0.47413635,9.801865,3.9672852E-4,1.8310547E-4,-0.001159668,0.0,0.419417,-0.5022735,9.784795,-6.682277E-4,-8.5920095E-4,-0.015476227,-0.028044669,0.01810632,-0.95428264,2017-02-02 16:04:31,35.54311006702594
0.3993683,-0.510025,9.773148,3.9672852E-4,-4.119873E-4,-5.493164E-4,0.0,0.41420376,-0.49907288,9.785181,0.011942208,0.002856642,-0.020388603,-0.027751762,0.018014153,-0.95412993,2017-02-02 16:04:32,37.57931093224804
0.43286133,-0.47653198,9.794693,3.9672852E-4,1.8310547E-4,6.1035156E-5,0.0,0.41427857,-0.4943578,9.785417,-0.0077073574,-0.008517712,4.339218E-4,-0.027687673,0.017776987,-0.95406795,2017-02-02 16:04:33,50.08304434171138
0.42807007,-0.50045776,9.768372,3.9672852E-4,1.8310547E-4,6.1035156E-5,0.0,0.41967323,-0.49685717,9.78506,-4.994571E-4,3.376007E-4,0.005044937,-0.02797927,0.017831545,-0.95421535,2017-02-02 16:04:34,56.51814782279608
0.40893555,-0.5195923,9.770752,-2.1362305E-4,1.8310547E-4,6.1035156E-5,0.0,0.4146253,-0.5007088,9.785079,-0.0053623915,-0.009711564,-0.0066013336,-0.027795184,0.018090587,-0.9541608,2017-02-02 16:04:35,36.393590023888876
0.42807007,-0.49087524,9.799469,3.9672852E-4,-4.119873E-4,-5.493164E-4,0.0,0.41496077,-0.49971527,9.785115,-0.0011740029,-0.022363245,0.0089559555,-0.027796848,0.018036418,-0.9541545,2017-02-02 16:04:36,48.4765598988304
0.42807007,-0.48130798,9.799469,3.9672852E-4,-4.119873E-4,6.713867E-4,0.0,0.41736415,-0.49145085,9.785432,0.0015779138,-0.011904538,-0.013947487,-0.027792234,0.017590899,-0.9540938,2017-02-02 16:04:37,56.56442720660084
0.42329407,-0.4837036,9.801865,-2.1362305E-4,-4.119873E-4,6.1035156E-5,0.0,0.4188039,-0.49754393,9.785063,-0.0020262003,-0.0013148189,0.0037517548,-0.027947895,0.017877324,-0.9542063,2017-02-02 16:04:38,46.07500661949616
0.41371155,-0.5076294,9.768372,-2.1362305E-4,1.8310547E-4,6.713867E-4,0.0,0.41222045,-0.5039115,9.785016,-0.009988725,-0.009099662,-0.0027971268,-0.027727107,0.018282538,-0.9541532,2017-02-02 16:04:39,53.64417201142238
0.4185028,-0.47653198,9.770752,3.9672852E-4,1.8310547E-4,6.1035156E-5,0.0,0.40914923,-0.49267223,9.785717,0.0093759,0.014490962,-0.0059099197,-0.027420163,0.017695585,-0.95392835,2017-02-02 16:04:40,55.64920122830478
0.4256897,-0.50045776,9.770752,-2.1362305E-4,8.087158E-4,6.1035156E-5,0.0,0.42024475,-0.49632823,9.785062,0.010664165,0.0049295127,-0.0015935898,-0.027998786,0.01779757,-0.9542203,2017-02-02 16:04:41,54.308040836585576
0.4185028,-0.50283813,9.765976,-8.239746E-4,-4.119873E-4,6.1035156E-5,0.0,0.41951647,-0.49679023,9.785069,-0.0029875636,-0.001771301,3.0994415E-4,-0.02797088,0.017830241,-0.9542111,2017-02-02 16:04:42,54.90319238011351
0.42329407,-0.4956665,9.751617,3.9672852E-4,-4.119873E-4,-5.493164E-4,0.0,0.4196755,-0.49450445,9.785179,0.0016706884,7.059872E-4,-0.015950203,-0.027945653,0.017713623,-0.9541837,2017-02-02 16:04:43,41.061508286032904
0.42329407,-0.49087524,9.76358,-2.1362305E-4,-4.119873E-4,6.1035156E-5,0.0,0.4158645,-0.50112903,9.785005,0.0055392683,6.234646E-5,-0.0047426224,-0.027859928,0.018095413,-0.9541925,2017-02-02 16:04:44,43.43802456149427
0.39697266,-0.50283813,9.775543,3.9672852E-4,1.8310547E-4,-5.493164E-4,0.0,0.41329026,-0.49882457,9.785233,-0.016349465,-0.0060294867,0.010913849,-0.027733909,0.01795339,-0.95411336,2017-02-02 16:04:45,50.94959369875333
0.42329407,-0.49806213,9.768372,3.9672852E-4,8.087158E-4,6.1035156E-5,0.0,0.41777703,-0.49505517,9.785232,0.008595973,-0.0062122345,-8.5639954E-4,-0.02786354,0.017766066,-0.95415115,2017-02-02 16:04:47,59.60898796129162
0.40893555,-0.4956665,9.765976,-2.1362305E-4,1.8310547E-4,-5.493164E-4,0.0,0.41824356,-0.49713123,9.785107,-0.008537322,0.0011357665,-0.0019788742,-0.027921353,0.017891644,-0.9541954,2017-02-02 16:04:48,52.044299642012575
0.40653992,-0.51719666,9.782715,-2.1362305E-4,1.8310547E-4,-5.493164E-4,0.0,0.41892338,-0.49741822,9.785064,-0.0047875345,0.0012479126,-0.013968468,-0.027951758,0.017869463,-0.95420706,2017-02-02 16:04:49,57.379524516123126
0.41610718,-0.4956665,9.768372,-2.1362305E-4,-4.119873E-4,-5.493164E-4,0.0,0.4176405,-0.49452817,9.785264,-0.0010212064,6.508529E-4,-1.1730194E-4,-0.027849507,0.01774145,-0.95414114,2017-02-02 16:04:50,60.97185200104774
0.4256897,-0.4956665,9.773148,0.0010070801,-4.119873E-4,6.713867E-4,0.0,0.41441318,-0.501398,9.785052,0.009293437,-0.0067305565,-0.009335518,-0.027795006,0.018127894,-0.9541656,2017-02-02 16:04:51,60.003902546677494
0.41133118,-0.51242065,9.765976,3.9672852E-4,-4.119873E-4,6.713867E-4,0.0,0.41515407,-0.4991657,9.785135,-0.0029097497,-0.013359129,-0.002588272,-0.02779872,0.018046243,-0.9541567,2017-02-02 16:04:52,51.28706961666388
0.41371155,-0.4956665,9.770752,-2.1362305E-4,8.087158E-4,6.1035156E-5,0.0,0.41719702,-0.50129133,9.78494,0.018487066,0.0099028945,0.017374992,-0.027925402,0.018086113,-0.95422274,2017-02-02 16:04:53,52.755776058732515
0.3993683,-0.52438354,9.780334,3.9672852E-4,1.8310547E-4,-0.001159668,0.0,0.4155274,-0.49640724,9.78526,0.0031929016,4.8089027E-4,-0.021348,-0.02777628,0.01786327,-0.95412195,2017-02-02 16:04:54,43.294978916101144
0.42807007,-0.48130798,9.787506,3.9672852E-4,1.8310547E-4,6.1035156E-5,0.0,0.42442536,-0.4964866,9.784874,-0.027838469,-0.012600809,0.004313469,-0.028199282,0.017750932,-0.9543104,2017-02-02 16:04:55,56.14980708565774
0.40653992,-0.4837036,9.78511,3.9672852E-4,8.087158E-4,-5.493164E-4,0.0,0.41616237,-0.5001903,9.78504,0.005438775,-0.010679305,0.0046310425,-0.027860602,0.018044483,-0.9541862,2017-02-02 16:04:56,59.37096632756108
0.40653992,-0.47653198,9.765976,3.9672852E-4,1.8310547E-4,-5.493164E-4,0.0,0.4173942,-0.4949978,9.785251,-0.009883285,0.017551571,-7.8105927E-4,-0.02783624,0.017771676,-0.95413876,2017-02-02 16:04:57,59.16541172936557
0.40893555,-0.50523376,9.777939,3.9672852E-4,1.8310547E-4,6.1035156E-5,0.0,0.41249114,-0.49853712,9.78528,-0.007681936,-0.009895921,0.0060367584,-0.027662918,0.01800978,-0.95408666,2017-02-02 16:04:58,61.045473891748976
0.42807007,-0.50283813,9.758789,3.9672852E-4,1.8310547E-4,6.1035156E-5,0.0,0.41800418,-0.4964278,9.785152,0.0057430863,0.0050143898,-0.010964394,-0.02789399,0.017831864,-0.9541744,2017-02-02 16:04:59,58.81574244704014
0.4041443,-0.50523376,9.787506,-2.1362305E-4,1.8310547E-4,6.1035156E-5,0.0,0.4161622,-0.5003942,9.785029,0.002785325,0.0041930377,-0.015784264,-0.027863514,0.018054701,-0.95418894,2017-02-02 16:05:00,51.57813235521508
0.39697266,-0.510025,9.777939,3.9672852E-4,1.8310547E-4,-5.493164E-4,0.0,0.41475254,-0.5026209,9.784976,-0.01983422,-0.0055834055,0.0030384064,-0.027979163,0.018269049,-0.9542724,2017-02-02 16:05:01,50.19149315832128
0.3921814,-0.5076294,9.775543,3.9672852E-4,-4.119873E-4,-5.493164E-4,0.0,0.41874158,-0.49978304,9.78495,-0.005004883,-0.0030851364,-0.01361084,-0.027977016,0.017990341,-0.954235,2017-02-02 16:05:02,51.13667529500164
0.42089844,-0.49327087,9.777939,-8.239746E-4,-0.0010375977,6.1035156E-5,0.0,0.41608167,-0.49958292,9.785074,0.004786372,0.005631149,0.001537323,-0.027863584,0.017997928,-0.95418155,2017-02-02 16:05:03,58.512597192677205
0.41371155,-0.50283813,9.754013,3.9672852E-4,8.087158E-4,-0.001159668,0.0,0.41372988,-0.49541992,9.785386,6.36518E-4,-0.0065919757,-0.025421143,-0.027673867,0.017899117,-0.95407736,2017-02-02 16:05:04,59.621872131926146
0.3993683,-0.51242065,9.775543,3.9672852E-4,1.8310547E-4,6.1035156E-5,0.0,0.42073455,-0.49971518,9.784869,0.002798915,0.0037643015,-0.0013618469,-0.028070511,0.017960904,-0.9542761,2017-02-02 16:05:05,45.67601458512786
0.39697266,-0.50283813,9.773148,3.9672852E-4,-4.119873E-4,6.1035156E-5,0.0,0.41493794,-0.49921846,9.785142,-0.017724603,-0.00870049,-0.0015277863,-0.027788647,0.018011827,-0.95414734,2017-02-02 16:05:06,59.113525786781274
0.4185028,-0.49087524,9.780334,3.9672852E-4,1.8310547E-4,6.1035156E-5,0.0,0.41643116,-0.49622235,9.785231,-0.014250606,0.004832417,-0.011501312,-0.02781647,0.017842166,-0.9541385,2017-02-02 16:05:07,54.497725668339314
0.42089844,-0.4956665,9.777939,3.9672852E-4,8.087158E-4,6.713867E-4,0.0,0.42247456,-0.49697936,9.784933,0.01562497,-0.0159671,-0.018187523,-0.028113836,0.017801078,-0.95427597,2017-02-02 16:05:08,36.076191930272174
0.4185028,-0.49327087,9.792297,-3.9672852E-4,-4.119873E-4,-5.340576E-4,0.0,0.4173081,-0.50007886,9.784997,3.2949448E-4,0.0066631734,0.0041275024,-0.027943451,0.017998958,-0.95422006,2017-02-02 16:05:09,55.19462312092428
0.41371155,-0.4956665,9.761185,-3.9672852E-4,-4.119873E-4,7.6293945E-5,0.0,0.4146221,-0.49824387,9.785205,-0.0075121224,0.0018923283,0.006187439,-0.027759707,0.017967142,-0.9541276,2017-02-02 16:05:10,56.69138063458574
0.41371155,-0.49806213,9.768372,-3.9672852E-4,1.8310547E-4,7.6293945E-5,0.0,0.4148677,-0.50134945,9.785035,-0.0019941628,0.002813995,0.0024604797,-0.027901141,0.018123118,-0.95421594,2017-02-02 16:05:11,39.1127965365097
0.4041443,-0.510025,9.775543,-3.9672852E-4,-0.0010375977,-5.340576E-4,0.0,0.4155975,-0.50094503,9.785025,0.0202716,0.0069363117,0.026460648,-0.027844643,0.018089691,-0.9541845,2017-02-02 16:05:12,53.15810097685751
0.3993683,-0.51242065,9.773148,2.1362305E-4,8.087158E-4,7.6293945E-5,0.0,0.41579798,-0.49676612,9.785229,0.008021712,-0.0019240081,2.8800964E-4,-0.027794257,0.017877705,-0.9541325,2017-02-02 16:05:13,54.99444549571385
0.3993683,-0.5148163,9.734863,2.1362305E-4,-0.0010375977,6.866455E-4,0.0,0.4171235,-0.5026916,9.784871,-0.0075440705,-0.0057137012,-0.022940636,-0.02794196,0.01815724,-0.95424,2017-02-02 16:05:14,57.76794082341816
0.42329407,-0.48849487,9.773148,2.1362305E-4,8.087158E-4,6.866455E-4,0.0,0.41186538,-0.5047132,9.784989,0.0101697445,0.014163017,0.005578041,-0.027799657,0.018243102,-0.95418286,2017-02-02 16:05:15,57.235356184238604
0.40893555,-0.50283813,9.801865,2.1362305E-4,1.8310547E-4,-0.0011444092,0.0,0.42220393,-0.4987934,9.784853,-0.017919064,0.012528062,0.013098717,-0.028126976,0.017895527,-0.9542946,2017-02-02 16:05:16,52.279147104045585
0.4185028,-0.49806213,9.761185,2.1362305E-4,1.8310547E-4,-5.340576E-4,0.0,0.4130019,-0.49465048,9.785455,-0.008454531,-0.01585731,-0.009928703,-0.027631357,0.017808408,-0.954045,2017-02-02 16:05:17,59.45092574721393
0.38739014,-0.5076294,9.765976,2.1362305E-4,1.8310547E-4,7.6293945E-5,0.0,0.41138488,-0.5008606,9.785209,4.3791533E-4,-1.9574165E-4,0.009200096,-0.027643807,0.018140672,-0.9540946,2017-02-02 16:05:18,60.95213479570074
0.40174866,-0.49327087,9.768372,-3.9672852E-4,1.8310547E-4,6.866455E-4,0.0,0.41696194,-0.49748456,9.785144,-0.017127872,-0.0035289228,0.0013303757,-0.027859729,0.017898453,-0.95416665,2017-02-02 16:05:19,39.4924137869698
0.42329407,-0.4956665,9.76358,-3.9672852E-4,1.8310547E-4,7.6293945E-5,0.0,0.41546208,-0.49863753,9.785149,0.005901605,1.7046928E-5,-0.01540184,-0.027805163,0.01797586,-0.95415056,2017-02-02 16:05:20,36.55746333706857
0.4304657,-0.48849487,9.777939,8.239746E-4,1.8310547E-4,-5.340576E-4,0.0,0.4128203,-0.5005788,9.785163,0.020271093,0.013744116,0.0053138733,-0.027641254,0.018250639,-0.95410776,2017-02-02 16:05:21,56.380029025018636
0.4256897,-0.49327087,9.761185,2.1362305E-4,-0.0010375977,7.6293945E-5,0.0,0.41724747,-0.50173026,9.784915,0.007699847,0.0069996715,-0.008939743,-0.027989132,0.01805423,-0.9542492,2017-02-02 16:05:22,60.625753640069505
0.38978577,-0.5076294,9.770752,2.1362305E-4,1.8310547E-4,7.6293945E-5,0.0,0.41369152,-0.4985981,9.785226,0.023779511,-0.012742877,-0.016127586,-0.027720682,0.017997088,-0.95411277,2017-02-02 16:05:23,61.264367570950704
0.4256897,-0.48130798,9.794693,-3.9672852E-4,1.8310547E-4,7.6293945E-5,0.0,0.4164992,-0.49475178,9.785302,0.004773766,0.010603279,0.037324905,-0.027798602,0.017767603,-0.9541201,2017-02-02 16:05:24,52.502283054564444
0.42329407,-0.50045776,9.749222,-3.9672852E-4,-0.0010375977,7.6293945E-5,0.0,0.41072032,-0.503642,9.785093,0.010833025,0.009568036,-0.00111866,-0.027652178,0.01828871,-0.954118,2017-02-02 16:05:25,51.76911368661279
0.42089844,-0.50523376,9.758789,2.1362305E-4,-0.0010375977,7.6293945E-5,0.0,0.41384795,-0.5044382,9.78492,-0.006880641,-0.022861958,0.010295868,-0.027811753,0.018287607,-0.9541945,2017-02-02 16:05:26,59.37031932723056
0.4424286,-0.48130798,9.801865,2.1362305E-4,1.8310547E-4,-0.0011444092,0.0,0.42305645,-0.49646243,9.784933,-0.020916283,-0.009931117,-0.008011818,-0.028134027,0.017767578,-0.9542813,2017-02-02 16:05:27,40.97648770674323
0.41371155,-0.47653198,9.780334,2.1362305E-4,1.8310547E-4,7.6293945E-5,0.0,0.41809344,-0.49444392,9.785249,6.636381E-4,0.0056483448,-0.0061502457,-0.027869774,0.017731298,-0.95414954,2017-02-02 16:05:28,39.788560076957125
0.4185028,-0.48609924,9.797073,2.1362305E-4,-4.119873E-4,-5.340576E-4,0.0,0.41871685,-0.49340776,9.785275,0.0026021898,0.0068129003,0.016851425,-0.027884465,0.01767122,-0.9541487,2017-02-02 16:05:29,59.95592405298333
0.4185028,-0.50045776,9.775543,2.1362305E-4,1.8310547E-4,-0.0011444092,0.0,0.41962513,-0.49627373,9.78509,-0.009843439,-0.007565081,0.014974594,-0.02796863,0.01780294,-0.95420647,2017-02-02 16:05:30,54.9890105117068
0.41610718,-0.49087524,9.787506,-0.0010070801,1.8310547E-4,-5.340576E-4,0.0,0.41565812,-0.4985088,9.785147,-0.011268675,-0.014205873,9.584427E-4,-0.02781261,0.017966842,-0.954153,2017-02-02 16:05:31,56.505942377105555
0.41610718,-0.50283813,9.777939,-3.9672852E-4,-0.0010375977,7.6293945E-5,0.0,0.41265625,-0.50468016,9.784958,-9.713173E-4,-0.010568738,0.0037651062,-0.027758757,0.018315334,-0.9541727,2017-02-02 16:05:32,61.16754615710508
0.42807007,-0.4956665,9.756393,2.1362305E-4,-4.119873E-4,-5.340576E-4,0.0,0.4161732,-0.49923813,9.785088,0.012574136,0.002930522,-0.016253471,-0.02784037,0.017998273,-0.95417047,2017-02-02 16:05:33,60.127090052371514
0.3993683,-0.52915955,9.768372,2.1362305E-4,1.8310547E-4,-5.340576E-4,0.0,0.41861814,-0.50202227,9.784842,0.010026991,0.0056661367,0.004143715,-0.028003214,0.018104164,-0.9542625,2017-02-02 16:05:34,49.098507042875774
0.4041443,-0.48609924,9.777939,-3.9672852E-4,1.8310547E-4,-5.340576E-4,0.0,0.41633984,-0.4993432,9.785076,1.0702014E-4,0.027195036,0.022377014,-0.027856875,0.017999716,-0.9541786,2017-02-02 16:05:35,60.37177305410995
0.40893555,-0.48609924,9.756393,-3.9672852E-4,1.8310547E-4,7.6293945E-5,0.0,0.4140315,-0.50298613,9.784987,-0.016319513,-0.005541444,-0.008725166,-0.027799662,0.018212453,-0.95417887,2017-02-02 16:05:36,60.41894293585612
0.41610718,-0.5148163,9.792297,2.1362305E-4,1.8310547E-4,-0.0011444092,0.0,0.41529602,-0.49903578,9.785136,0.008551985,-0.0068635643,-0.0061092377,-0.027802998,0.017997984,-0.95415246,2017-02-02 16:05:37,49.73405443344884
0.42089844,-0.48609924,9.773148,-3.9672852E-4,-4.119873E-4,-5.340576E-4,0.0,0.41212854,-0.500876,9.785175,-4.1106343E-4,0.0047400594,0.0019350052,-0.027679268,0.01813169,-0.9541105,2017-02-02 16:05:38,47.81907272640285
0.4185028,-0.5076294,9.768372,-3.9672852E-4,-4.119873E-4,7.6293945E-5,0.0,0.4167598,-0.4984591,9.785103,-2.785623E-4,0.026270986,0.030335426,-0.027864113,0.017949926,-0.95417553,2017-02-02 16:05:39,55.5472722228492
0.41133118,-0.51719666,9.780334,-3.9672852E-4,1.8310547E-4,7.6293945E-5,0.0,0.4155517,-0.5005158,9.785049,-0.0036026835,-0.01025334,-0.006921768,-0.02783632,0.018068785,-0.95417774,2017-02-02 16:05:40,59.797580090390724
0.39697266,-0.5148163,9.770752,-3.9672852E-4,-4.119873E-4,7.6293945E-5,0.0,0.41659245,-0.49991217,9.785036,-0.009370327,-0.0037445724,0.001739502,-0.027877,0.018024918,-0.9541915,2017-02-02 16:05:41,52.51937891994338
0.4041443,-0.49806213,9.751617,2.1362305E-4,-4.119873E-4,-5.340576E-4,0.0,0.40989795,-0.5014978,9.785238,-0.002375394,0.004629433,-0.0038290024,-0.027582493,0.018192109,-0.9540719,2017-02-02 16:05:42,52.87133540870536
0.4185028,-0.49327087,9.797073,2.1362305E-4,8.087158E-4,-5.340576E-4,0.0,0.41823894,-0.4965625,9.785136,0.005536169,0.014683396,0.016019821,-0.02790705,0.01783554,-0.95418113,2017-02-02 16:05:43,59.085578433874716
0.38978577,-0.5076294,9.773148,2.1362305E-4,1.8310547E-4,-5.340576E-4,0.0,0.41795126,-0.50379646,9.784778,0.013070762,0.0074593425,-0.012964249,-0.027996996,0.018201789,-0.9542722,2017-02-02 16:05:44,55.823066598912604
0.44482422,-0.5267792,9.799469,2.1362305E-4,-4.119873E-4,-5.340576E-4,0.0,0.41773844,-0.49679658,9.785146,-0.008356333,-0.011363864,0.005648613,-0.027886676,0.017853819,-0.95417374,2017-02-02 16:05:45,59.62822149450201
0.40653992,-0.50283813,9.789902,2.1362305E-4,-4.119873E-4,7.6293945E-5,0.0,0.4132664,-0.50004274,9.785171,-0.001042515,-0.01204592,-1.5640259E-4,-0.027721243,0.018075028,-0.95412326,2017-02-02 16:05:46,49.784520801317385
0.42807007,-0.50283813,9.775543,-3.9672852E-4,1.8310547E-4,6.866455E-4,0.0,0.41427186,-0.49393988,9.785437,0.0071009696,0.007275015,-0.0034799576,-0.02768136,0.017756144,-0.95406216,2017-02-02 16:05:48,55.944440852537845
0.4041443,-0.50045776,9.770752,2.1362305E-4,8.087158E-4,-5.340576E-4,0.0,0.41761145,-0.5027735,9.784846,0.0038254857,-0.007899821,-0.003856659,-0.027966255,0.018154964,-0.95425135,2017-02-02 16:05:49,53.56939114878404
0.42807007,-0.48130798,9.799469,2.1362305E-4,1.8310547E-4,-5.340576E-4,0.0,0.42217943,-0.5015999,9.78471,0.011453718,0.024150908,0.025475502,-0.028165968,0.018036518,-0.9543317,2017-02-02 16:05:50,53.26924134923769
0.40653992,-0.5076294,9.782715,2.1362305E-4,-4.119873E-4,-5.340576E-4,0.0,0.42249772,-0.50032985,9.78476,-0.0059717894,-0.0030041635,-0.001914978,-0.028162893,0.017968709,-0.9543214,2017-02-02 16:05:51,55.43940001667713
0.39697266,-0.510025,9.773148,2.1362305E-4,1.8310547E-4,6.866455E-4,0.0,0.412517,-0.4997136,9.785219,-0.015042335,-0.010919541,-1.6307831E-4,-0.027633691,0.018083964,-0.9540823,2017-02-02 16:05:52,35.95154728278783
0.4424286,-0.5076294,9.76358,8.239746E-4,1.8310547E-4,7.6293945E-5,0.0,0.4181202,-0.49491817,9.785225,0.008057296,0.013032794,-0.012623787,-0.027877841,0.017754706,-0.9541565,2017-02-02 16:05:53,55.84313589631919
0.3993683,-0.49327087,9.768372,2.1362305E-4,1.8310547E-4,-5.340576E-4,0.0,0.4188268,-0.49571562,9.785153,0.0023923814,0.021199673,0.03137493,-0.02792278,0.017785417,-0.95418215,2017-02-02 16:05:54,59.536088286648116
0.42807007,-0.49806213,9.76358,2.1362305E-4,1.8310547E-4,-5.340576E-4,0.0,0.4192273,-0.5029474,9.784768,0.002164811,-4.8297644E-4,-0.012061119,-0.028045319,0.01814257,-0.95428765,2017-02-02 16:05:55,51.87726816394944
0.42329407,-0.49087524,9.780334,2.1362305E-4,1.8310547E-4,7.6293945E-5,0.0,0.41852292,-0.49793082,9.785054,-0.008157015,-0.015701413,0.012075424,-0.02794012,0.017900387,-0.9542056,2017-02-02 16:05:56,51.3260582014142
0.41371155,-0.50283813,9.751617,2.1362305E-4,-0.0010375977,6.866455E-4,0.0,0.41766742,-0.5026234,9.784851,0.013804585,0.0057458878,-0.002486229,-0.02796676,0.01814671,-0.9542505,2017-02-02 16:05:57,58.870316796213984
0.4041443,-0.50283813,9.787506,8.239746E-4,1.8310547E-4,-0.0011444092,0.0,0.40992078,-0.50165594,9.785229,-0.0027840734,0.0052590966,0.011733055,-0.027585842,0.018199729,-0.9540745,2017-02-02 16:05:58,37.05814418558929
0.42329407,-0.47891235,9.787506,2.1362305E-4,-4.119873E-4,7.6293945E-5,0.0,0.415909,-0.49528578,9.7853,0.009544015,0.01564157,0.008886337,-0.027683955,0.01780716,-0.95407015,2017-02-02 16:05:59,56.37302136829756
0.4256897,-0.4956665,9.758789,2.1362305E-4,-4.119873E-4,-0.0011444092,0.0,0.4195128,-0.49996924,9.784908,0.012365639,0.0031896532,-0.027421951,-0.028016236,0.017989593,-0.95425373,2017-02-02 16:06:00,57.49924023323466
0.40893555,-0.48849487,9.768372,-3.9672852E-4,1.8310547E-4,-5.340576E-4,0.0,0.41240695,-0.4997918,9.785219,0.0069416463,-0.004071325,-0.008757591,-0.02767692,0.01807373,-0.95410174,2017-02-02 16:06:01,59.46408946246181
0.41371155,-0.4956665,9.734863,2.1362305E-4,8.087158E-4,-0.0011444092,0.0,0.40928787,-0.50221694,9.785226,-0.0018236041,0.0054162145,-0.013905525,-0.0275639,0.01823614,-0.95406866,2017-02-02 16:06:02,58.5700690425101
0.40174866,-0.50523376,9.746826,2.1362305E-4,-4.119873E-4,-5.340576E-4,0.0,0.41699538,-0.5012041,9.784952,0.011919647,-0.005045235,-0.011112213,-0.027914599,0.018084379,-0.9542174,2017-02-02 16:06:03,58.74365290179163
0.4185028,-0.49327087,9.751617,2.1362305E-4,1.8310547E-4,-5.340576E-4,0.0,0.41588852,-0.49961868,9.785081,0.0057241023,0.0030941665,-0.007092476,-0.027839433,0.018019428,-0.95417273,2017-02-02 16:06:04,48.176347098466515
0.40174866,-0.48609924,9.770752,2.1362305E-4,1.8310547E-4,-0.0011444092,0.0,0.41701066,-0.49620786,9.785207,-0.007315755,-3.6218762E-4,0.005759239,-0.027843734,0.01783385,-0.9541505,2017-02-02 16:06:05,42.89740701972362
0.41610718,-0.50045776,9.765976,2.1362305E-4,1.8310547E-4,7.6293945E-5,0.0,0.41495055,-0.5040049,9.784895,0.002161473,0.0023266077,-0.0024108887,-0.027857792,0.018251464,-0.9542119,2017-02-02 16:06:06,61.45199133561232
0.39697266,-0.52438354,9.775543,2.1362305E-4,1.8310547E-4,-0.0011444092,0.0,0.41429174,-0.5017977,9.785036,0.009737819,0.0028446913,-0.0136528015,-0.027794978,0.018149508,-0.95416844,2017-02-02 16:06:07,57.8828708852279
0.42089844,-0.49806213,9.744431,2.1362305E-4,-4.119873E-4,7.6293945E-5,0.0,0.41140386,-0.50891805,9.784791,-0.0041771233,-0.0043522716,-8.2969666E-5,-0.027760062,0.01854404,-0.95420307,2017-02-02 16:06:08,58.20076871455513
0.4304657,-0.5076294,9.749222,-3.5095215E-4,-1.9836426E-4,3.5095215E-4,0.0,0.4184588,-0.4955959,9.785176,-0.013884425,0.0042113066,0.017177582,-0.027903613,0.01778423,-0.9541728,2017-02-02 16:06:09,57.037961817384264
0.4041443,-0.510025,9.780334,2.593994E-4,-1.9836426E-4,3.5095215E-4,0.0,0.41872334,-0.50027025,9.784926,0.0050404966,0.004042506,-0.0031967163,-0.027983125,0.018014994,-0.9542412,2017-02-02 16:06:10,46.13975008867825
0.41371155,-0.50523376,9.770752,2.593994E-4,3.9672852E-4,-2.593994E-4,0.0,0.422098,-0.49634734,9.784982,-0.017321676,0.009504855,-0.009144783,-0.028086929,0.017774316,-0.9542596,2017-02-02 16:06:11,52.17103453241333
0.41610718,-0.47653198,9.751617,8.69751E-4,-1.9836426E-4,-2.593994E-4,0.0,0.4064305,-0.5020041,9.785356,0.0121876,0.02532357,-0.012048721,-0.027362965,0.018332701,-0.9539847,2017-02-02 16:06:12,54.037769836992084
0.42089844,-0.50283813,9.770752,2.593994E-4,-1.9836426E-4,-2.593994E-4,0.0,0.4136403,-0.5004241,9.785135,-0.01106441,-0.0034148693,0.007581711,-0.027744427,0.01808923,-0.95413625,2017-02-02 16:06:13,54.618046520953214
0.41371155,-0.5195923,9.773148,2.593994E-4,-1.9836426E-4,-2.593994E-4,0.0,0.41965804,-0.5013575,9.78483,-0.006307006,-0.0046681166,0.022481918,-0.02804299,0.01805727,-0.9542754,2017-02-02 16:06:14,55.99006420918271
0.4304657,-0.4956665,9.76358,2.593994E-4,-1.9836426E-4,-2.593994E-4,0.0,0.41648665,-0.5007313,9.784999,0.0031224787,-0.0010565817,-2.1743774E-4,-0.027883716,0.018067343,-0.95420027,2017-02-02 16:06:15,55.641093176603235
0.42089844,-0.50523376,9.76358,-3.5095215E-4,3.9672852E-4,-2.593994E-4,0.0,0.416222,-0.49849445,9.785125,0.010491729,0.006392747,1.3542175E-4,-0.027839128,0.017958736,-0.9541647,2017-02-02 16:06:16,58.74359444041845
0.3993683,-0.49806213,9.768372,2.593994E-4,3.9672852E-4,-8.69751E-4,0.0,0.41621897,-0.5031772,9.784884,-0.001652658,0.008872986,-0.01077652,-0.027906047,0.0181934,-0.95422745,2017-02-02 16:06:17,55.985627398592186
0.40893555,-0.49087524,9.761185,2.593994E-4,3.9672852E-4,3.5095215E-4,0.0,0.4182932,-0.49956498,9.78498,0.015215516,-0.006441951,-0.0038604736,-0.027952643,0.017985277,-0.9542227,2017-02-02 16:06:18,59.68579396895282
0.41133118,-0.50523376,9.773148,2.593994E-4,-1.9836426E-4,3.5095215E-4,0.0,0.41815472,-0.5002418,9.784952,-0.0058169067,-0.0058425963,0.006254196,-0.027945673,0.018027736,-0.9542249,2017-02-02 16:06:19,60.19303965368494
0.41610718,-0.5076294,9.765976,2.593994E-4,3.9672852E-4,-2.593994E-4,0.0,0.41192824,-0.5055177,9.7849455,0.0028487444,-0.005209625,0.002954483,-0.027815066,0.018238587,-0.9541897,2017-02-02 16:06:20,53.007223587366795
0.3993683,-0.50283813,9.775543,8.69751E-4,3.9672852E-4,3.5095215E-4,0.0,0.41692254,-0.5033484,9.784845,0.00973624,0.0089075565,-0.008089066,-0.027941836,0.018192777,-0.95424455,2017-02-02 16:06:21,49.05422455902396
0.42089844,-0.49087524,9.756393,8.69751E-4,3.9672852E-4,-8.69751E-4,0.0,0.40725595,-0.50439453,9.785199,0.007257998,-0.0042286515,-0.016697884,-0.027498856,0.01837189,-0.9540552,2017-02-02 16:06:22,44.12343767837059
0.4256897,-0.49806213,9.737259,-3.5095215E-4,3.9672852E-4,3.5095215E-4,0.0,0.41282687,-0.49975982,9.785204,0.021089077,0.007607907,-0.018156052,-0.027696358,0.018066619,-0.95411015,2017-02-02 16:06:23,49.62565881074372
0.42807007,-0.49327087,9.754013,-3.5095215E-4,0.0010223389,3.5095215E-4,0.0,0.4152714,-0.49912292,9.785132,0.004194796,0.0022984743,-0.013209343,-0.027803082,0.018002672,-0.9541531,2017-02-02 16:06:24,42.271876010739796
0.41133118,-0.49806213,9.754013,2.593994E-4,3.9672852E-4,-0.0014801025,0.0,0.4156958,-0.50261927,9.784935,-0.005431801,-0.009011924,-0.0020484924,-0.027873272,0.018172288,-0.95420897,2017-02-02 16:06:25,54.671688285181105
0.41371155,-0.50045776,9.756393,-3.5095215E-4,-1.9836426E-4,-2.593994E-4,0.0,0.41190642,-0.5009607,9.78518,-0.0068301857,0.0065563917,-0.009028435,-0.027669959,0.018138848,-0.9541069,2017-02-02 16:06:26,54.40326847003756
0.39457703,-0.5195923,9.773148,2.593994E-4,3.9672852E-4,-2.593994E-4,0.0,0.40778506,-0.50457364,9.785167,-0.012367606,-0.008886933,0.00575161,-0.027526487,0.018373908,-0.9540687,2017-02-02 16:06:27,59.08796865040637
0.44003296,-0.49806213,9.761185,-3.5095215E-4,-1.9836426E-4,3.5095215E-4,0.0,0.41680053,-0.5042697,9.784803,0.024269193,0.004953265,7.200241E-4,-0.028005032,0.018284978,-0.9542869,2017-02-02 16:06:28,49.97201891578074
0.39457703,-0.5219879,9.773148,-3.5095215E-4,3.9672852E-4,-2.593994E-4,0.0,0.41641864,-0.50614643,9.784723,0.012743503,0.004361272,-0.0122356415,-0.027957976,0.018339569,-0.95427144,2017-02-02 16:06:29,58.56521001996178
0.38978577,-0.5148163,9.773148,2.593994E-4,3.9672852E-4,-2.593994E-4,0.0,0.4147478,-0.50152785,9.785031,0.0045317113,0.007317722,-0.0031261444,-0.027812723,0.018130016,-0.9541744,2017-02-02 16:06:30,53.54983756982725
0.40893555,-0.510025,9.761185,-3.5095215E-4,-1.9836426E-4,-2.593994E-4,0.0,0.41950306,-0.50290334,9.784758,-0.002268523,0.0010941029,-0.009241104,-0.02805776,0.018136764,-0.9542929,2017-02-02 16:06:31,57.41636367545267
0.42329407,-0.47653198,9.787506,2.593994E-4,-8.239746E-4,3.5095215E-4,0.0,0.41241392,-0.5036082,9.785023,-0.02412042,-0.002728641,-9.536743E-6,-0.027731933,0.018264811,-0.9541532,2017-02-02 16:06:32,54.71603255555433
0.42329407,-0.48130798,9.756393,-3.5095215E-4,-1.9836426E-4,-2.593994E-4,0.0,0.41385373,-0.5020072,9.785045,0.022541136,-0.0022112727,-0.028067589,-0.027777221,0.01816574,-0.954162,2017-02-02 16:06:33,59.49585544576615
0.42089844,-0.49806213,9.76358,-9.613037E-4,3.9672852E-4,-2.593994E-4,0.0,0.41219014,-0.5045793,9.784983,-0.014378518,-0.011263967,0.0033054352,-0.027735231,0.018316388,-0.9541615,2017-02-02 16:06:34,41.659151571208014
0.41371155,-0.50523376,9.749222,-3.5095215E-4,3.9672852E-4,3.5095215E-4,0.0,0.4146326,-0.50013953,9.785107,-0.007479608,-0.0010578036,1.13487244E-4,-0.027787376,0.018061973,-0.9541533,2017-02-02 16:06:35,57.200825803186824
0.42089844,-0.510025,9.746826,2.593994E-4,3.9672852E-4,3.5095215E-4,0.0,0.41394427,-0.5053657,9.784868,0.0031642914,0.010872304,-0.014370918,-0.027829586,0.018332813,-0.95420897,2017-02-02 16:06:36,40.05052487804618
0.40893555,-0.48130798,9.758789,2.593994E-4,-1.9836426E-4,-2.593994E-4,0.0,0.41496298,-0.5014582,9.785026,0.0024161339,-5.36561E-4,-0.012983322,-0.027821923,0.01812371,-0.954178,2017-02-02 16:06:37,55.94129837766953
0.42089844,-0.47413635,9.792297,-3.5095215E-4,3.9672852E-4,3.5095215E-4,0.0,0.4150297,-0.5022754,9.784982,0.016406983,0.005433798,0.018245697,-0.027836783,0.018163776,-0.9541904,2017-02-02 16:06:38,60.85832605005194
0.4304657,-0.4956665,9.744431,2.593994E-4,3.9672852E-4,3.5095215E-4,0.0,0.4186013,-0.50222045,9.784832,0.010268003,0.0055950284,-0.009756088,-0.028005254,0.018114315,-0.95426476,2017-02-02 16:06:39,59.68866522653607
0.41133118,-0.49087524,9.777939,2.593994E-4,-1.9836426E-4,-2.593994E-4,0.0,0.4136192,-0.50364715,9.784971,-0.006066501,-0.012402356,0.0097408295,-0.027789589,0.018250968,-0.95417905,2017-02-02 16:06:40,44.75334170715861
0.42089844,-0.50045776,9.754013,2.593994E-4,-1.9836426E-4,-2.593994E-4,0.0,0.41648072,-0.50197273,9.784935,0.015079379,-0.0021844506,-0.0076055527,-0.027901212,0.018129624,-0.95421684,2017-02-02 16:06:41,43.60853085526715
0.41610718,-0.47653198,9.801865,-3.5095215E-4,-1.9836426E-4,3.5095215E-4,0.0,0.41068769,-0.50455886,9.785047,-0.012910724,-0.011245608,-0.0023031235,-0.027663765,0.018335063,-0.95412964,2017-02-02 16:06:42,51.498229847168076
0.4185028,-0.49327087,9.751617,2.593994E-4,3.9672852E-4,-2.593994E-4,0.0,0.4160566,-0.4967191,9.785221,-0.015928954,-0.0022495985,0.0010099411,-0.02780584,0.01787196,-0.95413727,2017-02-02 16:06:43,51.84669405071198
0.41371155,-0.51242065,9.761185,-3.5095215E-4,3.9672852E-4,3.5095215E-4,0.0,0.41700286,-0.50156355,9.784934,-0.004256785,-5.9598684E-4,-0.019266129,-0.027920097,0.018102292,-0.9542223,2017-02-02 16:06:44,53.862886284776074
0.4256897,-0.49087524,9.754013,-3.5095215E-4,3.9672852E-4,-2.593994E-4,0.0,0.40920222,-0.5016258,9.78526,-0.0065133274,0.0072023273,8.0394745E-4,-0.027551366,0.018207658,-0.95405895,2017-02-02 16:06:45,55.91268574870657
0.4304657,-0.4837036,9.744431,2.593994E-4,-1.9836426E-4,-2.593994E-4,0.0,0.4179468,-0.50234115,9.784854,-0.005916834,0.010626078,-0.026444435,-0.02797596,0.018128917,-0.9542526,2017-02-02 16:06:46,46.15100496931406
0.40174866,-0.50045776,9.761185,-9.613037E-4,3.9672852E-4,3.5095215E-4,0.0,0.41221592,-0.49958295,9.785238,-0.009411871,-0.004534304,0.010567665,-0.027664872,0.018065775,-0.95409495,2017-02-02 16:06:47,52.86720097581157
0.42807007,-0.49806213,9.758789,2.593994E-4,3.9672852E-4,3.5095215E-4,0.0,0.41936648,-0.4980282,9.785014,0.0048487782,-0.010695159,-0.009506226,-0.027981501,0.017894235,-0.95422465,2017-02-02 16:06:49,60.758103344942285
0.4185028,-0.4956665,9.765976,-3.5095215E-4,0.0010223389,3.5095215E-4,0.0,0.41520774,-0.5018023,9.784998,-0.0076788664,-0.016589522,-0.007678032,-0.027838448,0.018137744,-0.95418775,2017-02-02 16:06:50,59.28133408598634
0.40174866,-0.50523376,9.758789,-9.613037E-4,-1.9836426E-4,-2.593994E-4,0.0,0.4162749,-0.50035226,9.785027,0.0054913163,0.013209939,0.0013465881,-0.027868256,0.018051125,-0.95419073,2017-02-02 16:06:51,56.2328752698658
0.41371155,-0.5076294,9.74205,-3.5095215E-4,3.9672852E-4,-2.593994E-4,0.0,0.4180676,-0.4997809,9.78498,-0.02013433,-0.018564135,0.0058755875,-0.027945038,0.017999044,-0.95422083,2017-02-02 16:06:52,53.03796824238225
0.40174866,-0.50523376,9.775543,-3.5095215E-4,-1.9836426E-4,3.5095215E-4,0.0,0.41938087,-0.49974814,9.784925,0.014444917,0.010103971,-0.0036334991,-0.028006816,0.017980237,-0.954248,2017-02-02 16:06:53,57.72846693267181
0.40653992,-0.50283813,9.770752,2.593994E-4,-1.9836426E-4,-2.593994E-4,0.0,0.41285622,-0.49929544,9.785226,-8.0901384E-4,-0.0044086277,-0.0046749115,-0.027691094,0.018042974,-0.95410454,2017-02-02 16:06:54,60.99958669509042
0.41610718,-0.5195923,9.775543,2.593994E-4,-1.9836426E-4,3.5095215E-4,0.0,0.41936865,-0.50466293,9.784673,-0.0019460917,-0.015865445,0.0066928864,-0.028044678,0.018229077,-0.9542986,2017-02-02 16:06:55,35.434541697435094
0.42807007,-0.49806213,9.749222,8.69751E-4,-8.239746E-4,3.5095215E-4,0.0,0.41151854,-0.49840647,9.785328,-0.0038672388,-0.0033973455,0.009471893,-0.027614953,0.018016003,-0.95406437,2017-02-02 16:06:56,54.5759928403945
0.4185028,-0.49087524,9.756393,2.593994E-4,3.9672852E-4,3.5095215E-4,0.0,0.41938782,-0.49506295,9.785162,0.007056743,0.020035505,0.019956589,-0.027940024,0.017745374,-0.9541852,2017-02-02 16:06:57,59.35422939106537
0.41371155,-0.49806213,9.756393,-3.5095215E-4,3.9672852E-4,-2.593994E-4,0.0,0.41549253,-0.50178385,9.7849865,7.107854E-4,0.0022717714,-0.0063591003,-0.027773952,0.018138014,-0.9541568,2017-02-02 16:06:58,53.812512363044
0.42089844,-0.49327087,9.76358,-9.613037E-4,3.9672852E-4,-2.593994E-4,0.0,0.4158988,-0.5024916,9.784933,0.00841856,0.02234292,0.031438828,-0.027881064,0.018163234,-0.95421153,2017-02-02 16:06:59,56.67046428828628
0.40174866,-0.510025,9.765976,-3.5095215E-4,3.9672852E-4,9.613037E-4,0.0,0.41614085,-0.4970535,9.785201,-0.011944592,-0.012900472,0.005962372,-0.0277686,0.0179735,-0.9541327,2017-02-02 16:07:00,61.70370334578152
0.42807007,-0.49806213,9.761185,2.593994E-4,3.9672852E-4,-8.69751E-4,0.0,0.41919225,-0.49528232,9.78516,-0.008038402,-0.011980653,0.017852783,-0.027933894,0.017758923,-0.954184,2017-02-02 16:07:01,61.56681091488214
0.42329407,-0.47174072,9.789902,-3.5095215E-4,-1.9836426E-4,-2.593994E-4,0.0,0.41496533,-0.49942872,9.7851305,-3.7708879E-4,-0.0020841956,-0.008063316,-0.027792957,0.018022,-0.95415074,2017-02-02 16:07:02,56.91624141303234
0.40893555,-0.50523376,9.756393,-3.5095215E-4,-1.9836426E-4,-2.593994E-4,0.0,0.41929427,-0.49487346,9.785177,0.014379233,6.440282E-4,-0.014605522,-0.027932866,0.0177371,-0.95418066,2017-02-02 16:07:03,46.229778038219955
0.4256897,-0.49327087,9.76358,-3.5095215E-4,-8.239746E-4,-2.593994E-4,0.0,0.41427255,-0.5057063,9.784837,-0.0065185726,-0.027330875,0.016985893,-0.02785001,0.01834558,-0.9542204,2017-02-02 16:07:04,48.05334886366674
0.42329407,-0.4837036,9.761185,-9.613037E-4,-1.9836426E-4,9.613037E-4,0.0,0.41414693,-0.49967167,9.7851515,-0.020638615,-0.018867433,0.0038671494,-0.027757656,0.018044898,-0.9541368,2017-02-02 16:07:05,41.80943351682889
0.43286133,-0.49806213,9.761185,-3.5095215E-4,3.9672852E-4,-2.593994E-4,0.0,0.4179315,-0.49989086,9.78498,0.003987044,0.005399853,-0.0023069382,-0.027940162,0.018006334,-0.9542194,2017-02-02 16:07:06,42.0398555958781
0.42089844,-0.50045776,9.746826,-3.5095215E-4,3.9672852E-4,-8.69751E-4,0.0,0.4175893,-0.50424993,9.784771,0.0040699244,0.0019001961,-0.01242733,-0.02799369,0.018195983,-0.9542699,2017-02-02 16:07:07,55.36523180357575
0.40174866,-0.49087524,9.761185,2.593994E-4,-1.9836426E-4,-8.69751E-4,0.0,0.41430223,-0.496591,9.785302,-0.0021347702,0.007093787,-0.016328812,-0.027720843,0.01788854,-0.9540986,2017-02-02 16:07:08,50.081320817186125
0.43525696,-0.49327087,9.761185,-2.4414063E-4,-1.2207031E-4,5.493164E-4,0.0,0.41286972,-0.50185215,9.785094,-0.010106236,-0.009406388,0.0073280334,-0.027728375,0.018170867,-0.95413923,2017-02-02 16:07:09,60.270720650844744
0.4256897,-0.49327087,9.761185,-2.4414063E-4,0.0010986328,-6.1035156E-5,0.0,0.4175531,-0.49828428,9.785078,-0.0026181936,-0.0036334097,0.009567261,-0.027899211,0.017930783,-0.9541899,2017-02-02 16:07:10,55.18265617782635
0.4256897,-0.50045776,9.744431,-8.544922E-4,4.7302246E-4,-6.1035156E-5,0.0,0.41639182,-0.50059384,9.785009,0.013050109,0.008069336,-0.0035495758,-0.027877256,0.0180617,-0.95419645,2017-02-02 16:07:11,61.406137244771905
0.4304657,-0.48849487,9.777939,-2.4414063E-4,-1.2207031E-4,-6.1035156E-5,0.0,0.41612804,-0.49757692,9.785175,0.010440916,0.003254652,0.0014772415,-0.027821522,0.017913999,-0.9541503,2017-02-02 16:07:12,49.44916356751261
0.41610718,-0.48849487,9.765976,3.6621094E-4,-1.2207031E-4,-6.1035156E-5,0.0,0.4121459,-0.49880382,9.78528,-0.021342397,-0.021586716,0.0038261414,-0.027650384,0.01802767,-0.95408297,2017-02-02 16:07:13,43.24915297232616
0.4041443,-0.5076294,9.744431,-8.544922E-4,4.7302246E-4,-6.1035156E-5,0.0,0.41843122,-0.49614298,9.78515,-0.008618504,0.001832068,0.0061149597,-0.027910149,0.017812002,-0.9541796,2017-02-02 16:07:14,54.63810324320326
0.4304657,-0.48609924,9.744431,3.6621094E-4,4.7302246E-4,-6.713867E-4,0.0,0.42183283,-0.49574524,9.785023,0.0028340816,0.01282385,-0.008747101,-0.028065732,0.017747605,-0.95424587,2017-02-02 16:07:15,58.67843201607595
0.42807007,-0.50523376,9.739655,3.6621094E-4,-1.2207031E-4,-6.1035156E-5,0.0,0.40818176,-0.5040058,9.78518,-0.01763618,-0.004561782,0.006181717,-0.02753714,0.018340258,-0.95406944,2017-02-02 16:07:16,49.50735308794631
0.41610718,-0.50045776,9.761185,3.6621094E-4,-1.2207031E-4,-6.713867E-4,0.0,0.41646403,-0.49780717,9.785148,-0.002005905,0.0036438704,0.007936478,-0.027840754,0.017921137,-0.9541605,2017-02-02 16:07:17,50.97361140875088
0.4304657,-0.4837036,9.761185,-2.4414063E-4,-1.2207031E-4,-6.1035156E-5,0.0,0.41745484,-0.500234,9.784983,0.01680243,0.014669776,-0.0022268295,-0.02777566,0.018029701,-0.95414346,2017-02-02 16:07:18,50.90361195544337
0.4185028,-0.49327087,9.746826,3.6621094E-4,-7.4768066E-4,-6.1035156E-5,0.0,0.4173535,-0.5011749,9.784939,-0.0026119053,-0.012482643,-0.021134377,-0.027931154,0.018078234,-0.95422447,2017-02-02 16:07:19,58.82167615636115
0.4304657,-0.49327087,9.756393,9.765625E-4,4.7302246E-4,-6.1035156E-5,0.0,0.41590536,-0.49919084,9.785101,-0.0014121532,0.012153417,0.016003609,-0.027834104,0.017997775,-0.95416737,2017-02-02 16:07:20,55.445431545836286
0.40653992,-0.5076294,9.765976,3.6621094E-4,-1.2207031E-4,-6.1035156E-5,0.0,0.40951234,-0.50420153,9.785115,0.005143702,-0.0021951199,-0.008533478,-0.027602969,0.018332586,-0.9541001,2017-02-02 16:07:21,36.844484042696585
0.3993683,-0.510025,9.768372,-2.4414063E-4,-1.2207031E-4,5.493164E-4,0.0,0.41183612,-0.5031258,9.785072,-0.0043614507,-8.543134E-4,7.1811676E-4,-0.027697647,0.018248219,-0.9541346,2017-02-02 16:07:22,36.52959704946864
0.4185028,-0.51242065,9.770752,3.6621094E-4,-1.2207031E-4,5.493164E-4,0.0,0.41103297,-0.50634205,9.784941,-0.015535176,-0.009608507,0.019694328,-0.027705645,0.018419856,-0.9541608,2017-02-02 16:07:23,44.209893469771664
0.41133118,-0.510025,9.773148,-2.4414063E-4,-1.2207031E-4,5.493164E-4,0.0,0.41538113,-0.50278133,9.78494,-0.0038556755,-0.008586407,0.0079545975,-0.027886527,0.018159593,-0.9542137,2017-02-02 16:07:24,52.09141464565528
0.42807007,-0.50283813,9.749222,3.6621094E-4,-1.2207031E-4,5.493164E-4,0.0,0.41347313,-0.50321627,9.784999,0.012829661,0.0044079423,-0.0045137405,-0.0277765,0.018231295,-0.9541702,2017-02-02 16:07:25,54.19791406912246
0.40893555,-0.4956665,9.734863,-2.4414063E-4,-1.2207031E-4,-6.1035156E-5,0.0,0.41334206,-0.49797902,9.785273,-0.0012373626,0.0037761927,-0.0033798218,-0.02769524,0.01797066,-0.95409703,2017-02-02 16:07:26,46.56377485540968
0.3993683,-0.51719666,9.768372,3.6621094E-4,-1.2207031E-4,0.001159668,0.0,0.41456366,-0.5013817,9.785048,-0.009370118,0.0020505786,0.01286602,-0.027801901,0.018125102,-0.95416856,2017-02-02 16:07:27,60.06340920540198
0.41610718,-0.49806213,9.76358,9.765625E-4,-1.2207031E-4,-6.1035156E-5,0.0,0.41294277,-0.50047547,9.785162,0.011201352,0.034891397,0.034449577,-0.02771211,0.018100947,-0.95412225,2017-02-02 16:07:28,61.39153867372058
0.39697266,-0.5148163,9.768372,-2.4414063E-4,4.7302246E-4,-6.1035156E-5,0.0,0.41598472,-0.49835974,9.785141,0.009570926,0.0057946146,-0.0028352737,-0.027825952,0.017955095,-0.9541578,2017-02-02 16:07:29,62.38281743184895
0.3993683,-0.50523376,9.770752,3.6621094E-4,4.7302246E-4,5.493164E-4,0.0,0.41404104,-0.5038323,9.784943,-0.0039988756,-0.009935021,0.011961937,-0.02781223,0.018254722,-0.95419043,2017-02-02 16:07:30,59.53071667072041
0.41371155,-0.49327087,9.765976,-2.4414063E-4,4.7302246E-4,-6.713867E-4,0.0,0.41490772,-0.4999815,9.785103,-0.009950101,0.00573048,0.016793251,-0.027798152,0.018050453,-0.954157,2017-02-02 16:07:31,58.612526188903104
0.38500977,-0.5315552,9.775543,3.6621094E-4,-7.4768066E-4,5.493164E-4,0.0,0.40824217,-0.5059619,9.785077,-6.9725513E-4,-5.416274E-4,0.0014600754,-0.02756802,0.018437428,-0.954097,2017-02-02 16:07:32,58.107017780636696
0.43286133,-0.50045776,9.751617,-2.4414063E-4,-1.2207031E-4,-6.1035156E-5,0.0,0.41384342,-0.50300527,9.784994,0.012884468,-0.0010947585,7.381439E-4,-0.027791025,0.018215874,-0.9541752,2017-02-02 16:07:33,56.10536774462812
0.43286133,-0.49327087,9.787506,-8.544922E-4,4.7302246E-4,5.493164E-4,0.0,0.41056448,-0.5034624,9.785109,-0.012307435,-0.010533273,0.021045685,-0.027642224,0.018281758,-0.9541123,2017-02-02 16:07:34,60.4374244718118
0.41133118,-0.5148163,9.765976,-2.4414063E-4,-1.2207031E-4,5.493164E-4,0.0,0.4168849,-0.5028439,9.784874,-0.00601238,0.005197704,0.010304451,-0.027932832,0.01816799,-0.95423704,2017-02-02 16:07:35,54.82111576465154
0.4185028,-0.49806213,9.761185,3.6621094E-4,-1.2207031E-4,-6.1035156E-5,0.0,0.41336352,-0.5014406,9.785094,-0.010849267,0.0072410107,0.0133628845,-0.027745876,0.018143779,-0.95414406,2017-02-02 16:07:36,53.883419409293005
0.41610718,-0.510025,9.74205,-2.4414063E-4,-1.2207031E-4,-6.1035156E-5,0.0,0.4118398,-0.50186944,9.785137,0.0058799684,-0.010105908,-0.015382767,-0.027651122,0.018164614,-0.95410126,2017-02-02 16:07:37,56.88579752309077
0.41133118,-0.50283813,9.758789,3.6621094E-4,4.7302246E-4,5.493164E-4,0.0,0.4102381,-0.50168157,9.785213,-0.009957701,-0.0022720098,-0.002272606,-0.027601244,0.018196847,-0.9540815,2017-02-02 16:07:38,57.79989948708926
0.4185028,-0.4956665,9.751617,-2.4414063E-4,-1.2207031E-4,0.001159668,0.0,0.41597635,-0.50615036,9.784741,0.0012174845,-0.01236856,0.006795883,-0.027937079,0.018345548,-0.9542622,2017-02-02 16:07:39,55.20841469350398
0.42807007,-0.5076294,9.746826,-2.4414063E-4,-7.4768066E-4,-0.0012817383,0.0,0.41821048,-0.50423986,9.784744,0.010935694,-0.004578471,-0.0063085556,-0.028034909,0.018239073,-0.9542952,2017-02-02 16:07:40,60.27069058263493
0.40653992,-0.510025,9.749222,3.6621094E-4,-1.2207031E-4,-6.1035156E-5,0.0,0.4191094,-0.50029135,9.784908,0.0052419603,0.010534406,-0.008606911,-0.028001728,0.018011007,-0.9542496,2017-02-02 16:07:41,51.14460121379494
0.41610718,-0.5219879,9.782715,3.6621094E-4,-1.2207031E-4,-6.1035156E-5,0.0,0.41819724,-0.5065637,9.784625,-5.763769E-5,-0.016914546,0.024223328,-0.02800288,0.01834243,-0.9542933,2017-02-02 16:07:42,58.998386845384225
0.4185028,-0.4956665,9.756393,3.6621094E-4,-1.2207031E-4,-6.1035156E-5,0.0,0.41644713,-0.5001645,9.785029,-0.009036392,-0.008510798,-0.0057783127,-0.027873727,0.018039463,-0.95419186,2017-02-02 16:07:43,57.00982043848353
0.41371155,-0.48849487,9.780334,3.6621094E-4,4.7302246E-4,5.493164E-4,0.0,0.41375107,-0.5031448,9.784991,-0.016495138,-0.013592422,0.0020971298,-0.027788645,0.018224074,-0.9541751,2017-02-02 16:07:44,61.2749515419258
0.41133118,-0.5076294,9.754013,-2.4414063E-4,-1.2207031E-4,5.493164E-4,0.0,0.41426128,-0.5029793,9.784978,-0.006505221,0.001044929,-0.014201164,-0.02781045,0.0182091,-0.95418364,2017-02-02 16:07:45,60.79425481576778
0.40893555,-0.510025,9.746826,-2.4414063E-4,4.7302246E-4,5.493164E-4,0.0,0.4184178,-0.50570863,9.784659,0.010606796,-6.787777E-4,-0.0011539459,-0.028046442,0.018291522,-0.9543076,2017-02-02 16:07:46,41.108147423575765
0.41371155,-0.51719666,9.777939,3.6621094E-4,-7.4768066E-4,-6.1035156E-5,0.0,0.42132503,-0.50388724,9.784629,-0.0020669997,0.007317543,-0.008301735,-0.028158175,0.018162308,-0.95434433,2017-02-02 16:07:47,48.77817992322312
0.42089844,-0.49806213,9.74205,-2.4414063E-4,-7.4768066E-4,5.493164E-4,0.0,0.42040667,-0.500976,9.784819,-9.4366074E-4,-6.7445636E-4,0.0047340393,-0.028073013,0.018028375,-0.9542861,2017-02-02 16:07:48,55.025307284272664
0.42089844,-0.49806213,9.756393,-2.4414063E-4,4.7302246E-4,-6.1035156E-5,0.0,0.4147007,-0.5048309,9.784863,0.008896947,0.0054559708,-0.0029411316,-0.027781198,0.018317698,-0.95418376,2017-02-02 16:07:49,51.17031460972932
0.42089844,-0.5076294,9.809036,9.765625E-4,0.0010986328,5.493164E-4,0.0,0.4176525,-0.50733954,9.784608,0.018713266,0.007930517,0.019306183,-0.028033487,0.018383246,-0.9543133,2017-02-02 16:07:51,38.37623056533049
0.4185028,-0.49327087,9.756393,3.6621094E-4,-1.2207031E-4,5.493164E-4,0.0,0.41166782,-0.50370306,9.7850485,-0.025601387,-0.0028235912,0.010818481,-0.027697945,0.018279344,-0.95413876,2017-02-02 16:07:52,44.61272476136792
0.39697266,-0.51242065,9.780334,3.6621094E-4,-7.4768066E-4,-6.1035156E-5,0.0,0.41425544,-0.5042622,9.784912,0.010148913,0.00484854,-0.007068634,-0.027828539,0.018273452,-0.9542007,2017-02-02 16:07:53,57.32598249796753
0.42089844,-0.50283813,9.761185,9.765625E-4,4.7302246E-4,-6.1035156E-5,0.0,0.42094615,-0.50028497,9.78483,0.010471374,-0.0013040006,0.005666733,-0.028088698,0.0179867,-0.9542882,2017-02-02 16:07:54,54.98465710949311
0.4256897,-0.4956665,9.749222,-2.4414063E-4,-7.4768066E-4,-6.713867E-4,0.0,0.4140653,-0.5060055,9.78483,0.0138401985,0.010790944,-0.015163422,-0.027801929,0.018456724,-0.95421183,2017-02-02 16:07:55,52.1938349079864
0.42089844,-0.48849487,9.756393,-2.4414063E-4,-7.4768066E-4,-6.1035156E-5,0.0,0.41587305,-0.4993899,9.785093,0.00629434,0.010693014,-0.005115509,-0.02783703,0.018061891,-0.95417714,2017-02-02 16:07:56,54.038242791093765
0.4256897,-0.50045776,9.751617,-2.4414063E-4,-1.2207031E-4,5.493164E-4,0.0,0.41250938,-0.5065716,9.784866,0.009340882,0.0025645494,-0.005894661,-0.027778866,0.018412013,-0.9541949,2017-02-02 16:07:57,41.48184555061901
0.3921814,-0.52438354,9.773148,3.6621094E-4,-1.2207031E-4,5.493164E-4,0.0,0.41356483,-0.505489,9.784878,0.01394096,0.012008309,0.001824379,-0.027813375,0.018343955,-0.95420265,2017-02-02 16:07:58,59.03049861247947
0.42807007,-0.48130798,9.789902,-2.4414063E-4,-1.2207031E-4,-6.1035156E-5,0.0,0.41593844,-0.50314116,9.784899,0.011318535,0.01782614,0.025604248,-0.02793037,0.018025273,-0.9542172,2017-02-02 16:07:59,59.20312387722652
0.40893555,-0.5076294,9.777939,9.765625E-4,4.7302246E-4,-6.1035156E-5,0.0,0.4125281,-0.50220704,9.78509,-0.007529497,-0.006462395,0.0035448074,-0.027717272,0.018193124,-0.9541368,2017-02-02 16:08:00,52.39155067066679
0.42089844,-0.49087524,9.761185,3.6621094E-4,-1.2207031E-4,-6.713867E-4,0.0,0.4151737,-0.50161886,9.785009,-0.0027431548,0.0046241283,-0.012272835,-0.027834207,0.018128997,-0.9541846,2017-02-02 16:08:01,59.38598796598653
0.42089844,-0.4837036,9.756393,3.6621094E-4,-1.2207031E-4,-6.1035156E-5,0.0,0.41908875,-0.50092345,9.784878,0.005400598,0.008619577,0.0066099167,-0.028009795,0.018042952,-0.95425767,2017-02-02 16:08:02,51.750691938720045
0.42329407,-0.49327087,9.770752,3.6621094E-4,-1.2207031E-4,-6.1035156E-5,0.0,0.41343293,-0.5054505,9.784885,0.017958283,-0.010497332,0.017354012,-0.027806574,0.018343752,-0.9541993,2017-02-02 16:08:03,46.75751297639945
0.4304657,-0.50523376,9.756393,3.6621094E-4,-1.2207031E-4,-6.1035156E-5,0.0,0.41759303,-0.50143427,9.784916,-0.007416904,-0.0028935075,-0.006624222,-0.027946215,0.018088095,-0.954233,2017-02-02 16:08:04,55.7112887847132
0.3993683,-0.51242065,9.737259,-2.4414063E-4,-1.2207031E-4,-6.1035156E-5,0.0,0.4168777,-0.49838683,9.785102,-0.013650417,0.0033482313,0.0059986115,-0.027868666,0.01794476,-0.954177,2017-02-02 16:08:05,57.0510888547001
0.41610718,-0.48849487,9.775543,3.6621094E-4,4.7302246E-4,-6.713867E-4,0.0,0.4167445,-0.50076956,9.784986,-0.01170072,-0.00794071,0.016469002,-0.027896486,0.018065888,-0.9542062,2017-02-02 16:08:06,55.21084596865193
0.41610718,-0.49087524,9.797073,-2.4414063E-4,4.7302246E-4,-6.713867E-4,0.0,0.4095555,-0.5084776,9.784892,-0.02148059,-0.009569168,0.0022201538,-0.027666224,0.0185462,-0.95415837,2017-02-02 16:08:07,51.530893583399745
0.41371155,-0.50283813,9.773148,3.6621094E-4,-7.4768066E-4,-6.1035156E-5,0.0,0.41773814,-0.5036662,9.784794,0.016076565,0.006850183,-0.008449554,-0.027985033,0.018198045,-0.95426595,2017-02-02 16:08:08,50.456209954652806
0.41371155,-0.50045776,9.754013,2.89917E-4,-1.373291E-4,-6.1035156E-5,0.0,0.41367915,-0.5042941,9.784934,-8.10951E-4,0.002677679,-0.0063066483,-0.027892523,0.018263226,-0.95423007,2017-02-02 16:08:09,54.48228797203912
0.42329407,-0.49087524,9.761185,2.89917E-4,-1.373291E-4,-6.1035156E-5,0.0,0.4183674,-0.5025446,9.784825,-0.013827145,-0.0051332116,0.014264107,-0.027998805,0.018133614,-0.95426416,2017-02-02 16:08:10,47.59492781653536
0.42329407,-0.48849487,9.761185,-9.3078613E-4,-1.373291E-4,5.493164E-4,0.0,0.4153561,-0.5039399,9.784882,0.018700898,0.006822765,-0.019454956,-0.027876077,0.018242901,-0.9542195,2017-02-02 16:08:11,55.24944401293549
0.4185028,-0.4956665,9.758789,2.89917E-4,-1.373291E-4,-6.713867E-4,0.0,0.41157314,-0.50283796,9.785098,0.011313647,0.002994299,-9.765625E-4,-0.027681066,0.01823725,-0.95412517,2017-02-02 16:08:12,37.176454128273846
0.4256897,-0.50045776,9.749222,2.89917E-4,-7.6293945E-4,-6.713867E-4,0.0,0.41765442,-0.49854204,9.78506,0.011659443,-0.0010047555,-0.009094238,-0.02790771,0.017942375,-0.9541955,2017-02-02 16:08:13,38.30735086079477
0.39697266,-0.50523376,9.768372,2.89917E-4,-7.6293945E-4,5.493164E-4,0.0,0.41376945,-0.5053254,9.784877,-0.016099572,-0.0012182593,0.007955551,-0.02783604,0.018326292,-0.9542112,2017-02-02 16:08:14,46.584059898331475
0.4256897,-0.5195923,9.730072,-3.2043457E-4,-1.373291E-4,-6.1035156E-5,0.0,0.41722795,-0.4994897,9.78503,-2.0250678E-4,0.0027238429,-0.004705429,-0.02790107,0.017995436,-0.95419925,2017-02-02 16:08:15,58.271785982617544
0.3993683,-0.50283813,9.725296,9.0026855E-4,-1.373291E-4,-6.1035156E-5,0.0,0.41695136,-0.5021505,9.784906,-0.011814743,-0.0018827915,0.0067539215,-0.027926058,0.018132374,-0.9542291,2017-02-02 16:08:16,45.03500985894934
0.4256897,-0.49087524,9.76358,-3.2043457E-4,4.5776367E-4,-6.1035156E-5,0.0,0.42149797,-0.5037725,9.784627,0.009890199,-0.014526725,0.014725685,-0.028164733,0.018154303,-0.9543465,2017-02-02 16:08:17,55.80255330209681
0.43525696,-0.49327087,9.761185,2.89917E-4,-7.6293945E-4,-6.1035156E-5,0.0,0.41626474,-0.5023851,9.784923,0.0031464994,0.012793839,1.1444092E-5,-0.027896881,0.01815311,-0.9542178,2017-02-02 16:08:18,58.908943686274846
0.41371155,-0.50045776,9.751617,2.89917E-4,4.5776367E-4,-6.1035156E-5,0.0,0.41486305,-0.502526,9.784975,-0.0048864484,-0.003968835,-0.008803368,-0.027832476,0.018178513,-0.9541902,2017-02-02 16:08:19,60.898265655563
0.39697266,-0.5148163,9.768372,2.89917E-4,4.5776367E-4,-6.1035156E-5,0.0,0.41858464,-0.5023778,9.784824,-0.010929555,-0.013776898,0.0048246384,-0.028006716,0.01812242,-0.95426655,2017-02-02 16:08:20,59.793722696362515
0.41610718,-0.50523376,9.749222,2.89917E-4,-1.373291E-4,-6.1035156E-5,0.0,0.41566297,-0.5048734,9.784821,-0.015458167,-0.0229218,0.010414124,-0.02790397,0.01828566,-0.95423853,2017-02-02 16:08:21,37.31139079969024
0.3993683,-0.50283813,9.775543,-3.2043457E-4,-7.6293945E-4,5.493164E-4,0.0,0.41930455,-0.5005452,9.784888,0.0123490095,0.0058563054,-7.7438354E-4,-0.028014608,0.018021176,-0.95425713,2017-02-02 16:08:22,56.53717173737949
0.39457703,-0.50523376,9.770752,2.89917E-4,-7.6293945E-4,-6.1035156E-5,0.0,0.41608426,-0.50166726,9.784967,-0.0061573684,-0.0047617555,-0.017223358,-0.027878052,0.018119505,-0.9542044,2017-02-02 16:08:23,60.93735414703023
0.4041443,-0.5195923,9.749222,-3.2043457E-4,0.001083374,-6.1035156E-5,0.0,0.4157161,-0.50293046,9.784919,-7.2050095E-4,-0.0014611483,-0.010263443,-0.027878687,0.018187612,-0.95421356,2017-02-02 16:08:24,49.95355280580064
0.41133118,-0.4956665,9.746826,2.89917E-4,-1.373291E-4,5.493164E-4,0.0,0.4079072,-0.50552046,9.785114,0.00417763,0.008617461,-0.013510704,-0.027559677,0.0184182,-0.9540905,2017-02-02 16:08:25,45.57859321870714
0.41133118,-0.4956665,9.768372,2.89917E-4,4.5776367E-4,-6.1035156E-5,0.0,0.41434306,-0.50335836,9.784955,-0.013871998,-0.010401964,0.011839867,-0.027819753,0.018227022,-0.95419043,2017-02-02 16:08:26,61.23265670237836
0.40174866,-0.51242065,9.768372,9.0026855E-4,4.5776367E-4,5.493164E-4,0.0,0.41458914,-0.50577223,9.78482,-0.01936397,-0.0122151375,-0.0011510849,-0.027865952,0.018344741,-0.954228,2017-02-02 16:08:27,60.92015174441656
0.39457703,-0.510025,9.765976,9.0026855E-4,-1.373291E-4,5.493164E-4,0.0,0.41237286,-0.5068846,9.784856,-1.5866756E-4,5.6540966E-4,0.018811226,-0.027776875,0.01842948,-0.9541963,2017-02-02 16:08:28,56.13291009756026
0.3921814,-0.5076294,9.770752,-3.2043457E-4,-1.373291E-4,-6.1035156E-5,0.0,0.41397712,-0.5061056,9.784828,0.012564063,-0.0025647283,-0.010689735,-0.027841728,0.018369453,-0.9542196,2017-02-02 16:08:29,37.6466243242198
0.42329407,-0.51242065,9.751617,2.89917E-4,-1.373291E-4,-6.1035156E-5,0.0,0.41616893,-0.5065389,9.784714,0.0032046735,-0.0021504164,0.0017366409,-0.027951756,0.0183625,-0.95427144,2017-02-02 16:08:30,55.50993230179516
0.41133118,-0.50045776,9.749222,-3.2043457E-4,-1.373291E-4,-6.713867E-4,0.0,0.4167856,-0.50324124,9.784857,1.5896559E-4,-0.005399227,-0.018371582,-0.027933814,0.018189197,-0.95424026,2017-02-02 16:08:31,59.650738060266505
0.40653992,-0.50523376,9.746826,2.89917E-4,-1.373291E-4,-6.1035156E-5,0.0,0.41561463,-0.5011846,9.785012,0.0087837875,0.016149253,-0.0049991608,-0.027848884,0.018101469,-0.95418805,2017-02-02 16:08:32,43.178599075339015
0.41610718,-0.50283813,9.761185,2.89917E-4,4.5776367E-4,-6.713867E-4,0.0,0.41528845,-0.50239366,9.7849655,0.011402994,0.0031196475,-0.01213932,-0.027850736,0.018166311,-0.9541974,2017-02-02 16:08:33,39.60366784734797
0.4185028,-0.48849487,9.782715,2.89917E-4,-7.6293945E-4,-6.1035156E-5,0.0,0.41094732,-0.5088938,9.784812,-0.015376449,-0.011929274,0.009604454,-0.027738092,0.018548805,-0.9541932,2017-02-02 16:08:34,50.402205516461464
0.40653992,-0.50045776,9.739655,-3.2043457E-4,-7.6293945E-4,5.493164E-4,0.0,0.41384122,-0.5043642,9.784924,-0.0062371492,0.0027843714,-0.013101578,-0.027832046,0.018306956,-0.95420676,2017-02-02 16:08:35,56.04548038811723
0.40653992,-0.50523376,9.734863,-3.2043457E-4,-1.373291E-4,-6.713867E-4,0.0,0.41465282,-0.5030649,9.784956,0.0026735663,-0.013230562,-0.02132225,-0.027830232,0.018208263,-0.954193,2017-02-02 16:08:36,59.72212296508444
0.42089844,-0.50045776,9.746826,-3.2043457E-4,-1.373291E-4,-6.1035156E-5,0.0,0.41699556,-0.5089098,9.7845545,0.016852438,-0.011886597,-0.0026140213,-0.028024798,0.018470518,-0.9543205,2017-02-02 16:08:37,46.65535290375299
0.42089844,-0.47653198,9.792297,2.89917E-4,-7.6293945E-4,-6.1035156E-5,0.0,0.41236156,-0.5030154,9.785056,0.00870648,0.023719251,0.027503967,-0.02772889,0.018140465,-0.9541355,2017-02-02 16:08:38,53.23381921019228
0.42329407,-0.48849487,9.751617,2.89917E-4,-1.373291E-4,-6.1035156E-5,0.0,0.4153314,-0.50198764,9.784983,-0.0050109327,-0.024069786,-0.015095711,-0.027846962,0.01814541,-0.9541928,2017-02-02 16:08:39,59.87392336643856
0.41610718,-0.48849487,9.751617,2.89917E-4,-7.6293945E-4,-0.0012817383,0.0,0.4115722,-0.5029099,9.785095,0.006460488,0.015099943,-0.0063438416,-0.027674457,0.01835548,-0.95413744,2017-02-02 16:08:40,57.64819906763723
0.38978577,-0.5195923,9.773148,2.89917E-4,-1.373291E-4,-6.713867E-4,0.0,0.4148532,-0.5044249,9.784878,-0.035760075,-0.02150309,0.013453484,-0.027859189,0.018273782,-0.95421547,2017-02-02 16:08:41,56.58977655234101
0.41610718,-0.49327087,9.751617,-3.2043457E-4,-7.6293945E-4,-6.1035156E-5,0.0,0.414781,-0.5019309,9.785009,-0.014075816,-0.0073162913,0.010109901,-0.027820067,0.018149773,-0.9541805,2017-02-02 16:08:42,37.81552985754143
0.43525696,-0.5195923,9.737259,-3.2043457E-4,-1.373291E-4,5.493164E-4,0.0,0.41836858,-0.50027215,9.784942,0.0041695535,0.007436216,0.019384384,-0.027966337,0.018019726,-0.95423377,2017-02-02 16:08:43,41.88805398648729
0.41133118,-0.49327087,9.792297,2.89917E-4,-1.373291E-4,-6.1035156E-5,0.0,0.41525882,-0.50626343,9.784766,-0.007815212,-0.014430642,0.0120716095,-0.027904702,0.018360594,-0.9542486,2017-02-02 16:08:44,58.22614302855509
0.41371155,-0.49087524,9.777939,-9.3078613E-4,4.5776367E-4,-6.713867E-4,0.0,0.41459382,-0.50536996,9.784841,2.3883581E-4,-0.0012303591,-0.018727303,-0.02786042,0.018324524,-0.9542227,2017-02-02 16:08:45,55.93605760264051
0.42329407,-0.510025,9.768372,-3.2043457E-4,-1.373291E-4,-6.713867E-4,0.0,0.41321853,-0.508675,9.784727,0.011847883,-0.0020444393,0.0048542023,-0.027806815,0.018540137,-0.954225,2017-02-02 16:08:46,57.88017779815742
0.4256897,-0.49806213,9.751617,-3.2043457E-4,-1.373291E-4,5.493164E-4,0.0,0.4149943,-0.5058235,9.784801,-0.0070550144,-0.008302867,-1.8787384E-4,-0.027885878,0.018342009,-0.95423716,2017-02-02 16:08:47,57.13704247446704
0.44003296,-0.50523376,9.758789,9.0026855E-4,-1.373291E-4,5.493164E-4,0.0,0.41613725,-0.501885,9.784954,-0.010589182,0.006921053,-3.2806396E-4,-0.027883679,0.018129721,-0.95420843,2017-02-02 16:08:48,46.69032101139801
0.40893555,-0.50045776,9.773148,2.89917E-4,-7.6293945E-4,5.493164E-4,0.0,0.41590443,-0.5028328,9.784916,0.008495599,0.003433466,-0.0025014877,-0.027886212,0.018180253,-0.95421624,2017-02-02 16:08:49,55.298882541027126
0.42089844,-0.49087524,9.744431,-3.2043457E-4,-1.373291E-4,-6.713867E-4,0.0,0.41241983,-0.503457,9.785031,0.0023157,-0.0149896145,-0.040231705,-0.027730044,0.018257158,-0.9541513,2017-02-02 16:08:50,55.96282578674783
0.4256897,-0.49327087,9.761185,2.89917E-4,-1.373291E-4,-6.713867E-4,0.0,0.42155123,-0.5016611,9.784735,0.0062969625,0.008547008,-8.955002E-4,-0.028099738,0.018129429,-0.9543121,2017-02-02 16:08:52,61.32596899964199
0.40653992,-0.510025,9.768372,2.89917E-4,-7.6293945E-4,-6.713867E-4,0.0,0.41710433,-0.5091767,9.784536,0.01671505,0.0051689744,0.008690834,-0.028033761,0.01848247,-0.95432633,2017-02-02 16:08:53,61.07470417861716
0.42089844,-0.50283813,9.751617,2.89917E-4,-1.373291E-4,-6.713867E-4,0.0,0.41471225,-0.50247216,9.784985,-0.0023644567,0.0055738688,-0.0046043396,-0.02782456,0.01817779,-0.9541863,2017-02-02 16:08:54,57.61762233253059
0.41133118,-0.49327087,9.754013,-3.2043457E-4,4.5776367E-4,-6.1035156E-5,0.0,0.41482183,-0.50517106,9.784841,-0.006957829,7.2050095E-4,0.02193451,-0.027868379,0.018311577,-0.9542248,2017-02-02 16:08:55,45.77760547680502
0.43525696,-0.50283813,9.758789,2.89917E-4,-7.6293945E-4,-6.1035156E-5,0.0,0.42060256,-0.50676984,9.784512,0.011014372,-0.009433508,-0.01567936,-0.028165122,0.018316213,-0.9543677,2017-02-02 16:08:56,47.535044819195164
0.40893555,-0.51242065,9.773148,-3.2043457E-4,-1.373291E-4,5.493164E-4,0.0,0.4181411,-0.5056305,9.784676,0.01623866,-0.017821074,-0.0069007874,-0.028032213,0.018291218,-0.95430076,2017-02-02 16:08:57,56.32186757758568
0.42089844,-0.5195923,9.770752,2.89917E-4,-7.6293945E-4,-6.1035156E-5,0.0,0.4177362,-0.50676703,9.784635,0.002103418,-0.004879713,-0.0017051697,-0.028029272,0.018353462,-0.95430744,2017-02-02 16:08:58,56.95479175568452
0.42329407,-0.48849487,9.749222,2.89917E-4,4.5776367E-4,-6.1035156E-5,0.0,0.4197657,-0.5012438,9.784832,-0.004912436,-0.005353272,-0.001824379,-0.028046466,0.018050166,-0.9542762,2017-02-02 16:08:59,61.363236408758894
0.40174866,-0.510025,9.768372,2.89917E-4,4.5776367E-4,-6.1035156E-5,0.0,0.418098,-0.5077106,9.78457,0.004187405,-0.0063943267,-4.940033E-4,-0.028059894,0.018396027,-0.95432764,2017-02-02 16:09:00,59.15929808265699
0.42329407,-0.5076294,9.761185,2.89917E-4,4.5776367E-4,-6.713867E-4,0.0,0.41256776,-0.50757277,9.784812,-0.014544129,-0.010916889,0.013261795,-0.02779595,0.018461404,-0.95420957,2017-02-02 16:09:01,49.070007655102884
0.41610718,-0.49806213,9.749222,2.89917E-4,4.5776367E-4,-6.713867E-4,0.0,0.41653278,-0.5020695,9.784927,8.1279874E-4,0.00970149,-0.009009361,-0.027905066,0.018133791,-0.9542192,2017-02-02 16:09:02,44.854278502976555
0.4256897,-0.4956665,9.751617,-3.2043457E-4,-7.6293945E-4,5.493164E-4,0.0,0.4180424,-0.5051809,9.784703,0.008938819,0.0055580735,-0.017215729,-0.028021108,0.018269975,-0.95429265,2017-02-02 16:09:03,41.454263452738644
0.42329407,-0.50283813,9.76358,2.89917E-4,-1.373291E-4,5.493164E-4,0.0,0.42282516,-0.5066152,9.784424,0.00649637,0.0022776127,-0.0014514923,-0.028268235,0.018279513,-0.9544123,2017-02-02 16:09:04,58.07837868436826
0.41371155,-0.510025,9.768372,2.89917E-4,4.5776367E-4,-0.0012817383,0.0,0.41485038,-0.5115436,9.784509,0.02596867,-0.009018004,0.02153778,-0.0279608,0.018630514,-0.95431054,2017-02-02 16:09:05,58.97869264904006
0.41133118,-0.50283813,9.765976,2.89917E-4,-1.373291E-4,5.493164E-4,0.0,0.41993576,-0.5020179,9.784785,-0.002645731,1.4609098E-4,0.006357193,-0.028065601,0.018086739,-0.95429015,2017-02-02 16:09:06,60.32109105726612
0.4256897,-0.5148163,9.746826,2.89917E-4,-1.373291E-4,-6.713867E-4,0.0,0.41082972,-0.50407255,9.785067,0.004122436,0.00927943,0.0032720566,-0.027663527,0.018308839,-0.95412606,2017-02-02 16:09:07,53.36514614471061
0.42329407,-0.50283813,9.746826,-3.2043457E-4,-1.373291E-4,-6.1035156E-5,0.0,0.41886976,-0.50472975,9.784692,0.008157402,0.0050560236,-0.011398315,-0.028053861,0.018236563,-0.954304,2017-02-02 16:09:08,56.86099012885808
0.4256897,-0.49327087,9.756393,2.1362305E-4,-6.1035156E-4,2.593994E-4,0.0,0.4158072,-0.50215435,9.784954,0.008289933,-0.0016536117,-0.014438629,-0.027871896,0.018147536,-0.9542051,2017-02-02 16:09:09,53.87021501608899
0.42807007,-0.50523376,9.749222,2.1362305E-4,-6.1035156E-4,-9.613037E-4,0.0,0.41769534,-0.5060537,9.784673,-5.235374E-4,-0.005261183,-0.008115768,-0.028017143,0.018318247,-0.954297,2017-02-02 16:09:10,58.427095533256434
0.4185028,-0.47413635,9.794693,2.1362305E-4,-6.1035156E-4,2.593994E-4,0.0,0.41003138,-0.50816333,9.784888,0.009456426,0.006484866,-0.004989624,-0.027684266,0.018524216,-0.95416415,2017-02-02 16:09:11,54.18370625788871
0.4041443,-0.510025,9.775543,-3.9672852E-4,1.5258789E-5,-3.5095215E-4,0.0,0.42401022,-0.5063699,9.784385,0.021769375,-0.0071917176,-0.013116837,-0.028320894,0.018251793,-0.9544339,2017-02-02 16:09:12,56.489741048276514
0.41133118,-0.50283813,9.744431,8.239746E-4,1.5258789E-5,2.593994E-4,0.0,0.41273582,-0.5069844,9.784835,0.010346919,0.010691166,-0.0061836243,-0.027795497,0.01842973,-0.9542052,2017-02-02 16:09:13,58.526050630732286
0.4041443,-0.50283813,9.734863,-3.9672852E-4,1.5258789E-5,2.593994E-4,0.0,0.41656113,-0.50432456,9.78481,-0.01036489,0.0016806126,-0.010767937,-0.027951922,0.01836262,-0.9542715,2017-02-02 16:09:14,57.06746883198214
0.41371155,-0.50045776,9.744431,-3.9672852E-4,-6.1035156E-4,-3.5095215E-4,0.0,0.41663063,-0.5046168,9.784793,0.0032396615,0.012085259,0.0037164688,-0.027946148,0.018260151,-0.9542554,2017-02-02 16:09:15,45.17550473743924
0.42329407,-0.49806213,9.765976,-3.9672852E-4,-0.0012207031,2.593994E-4,0.0,0.41512355,-0.5045252,9.784862,-0.005094439,-0.009224534,-2.965927E-4,-0.027873432,0.018275268,-0.9542225,2017-02-02 16:09:16,54.54745937222488
0.41133118,-0.48849487,9.756393,8.239746E-4,1.5258789E-5,8.69751E-4,0.0,0.4177623,-0.5068127,9.784631,0.0158948,6.135702E-4,0.0023784637,-0.028031161,0.018355409,-0.95430857,2017-02-02 16:09:17,48.59010914850471
0.4185028,-0.5076294,9.761185,2.1362305E-4,1.5258789E-5,-3.5095215E-4,0.0,0.4207252,-0.5088286,9.784399,0.01333487,-0.0026462674,-1.2779236E-4,-0.028200328,0.018417813,-0.9543977,2017-02-02 16:09:18,53.9098214484944
0.42329407,-0.4956665,9.74205,2.1362305E-4,1.5258789E-5,-3.5095215E-4,0.0,0.4160432,-0.50766486,9.784659,0.0013766289,0.0056053996,-0.0021705627,-0.027961897,0.018420566,-0.95428383,2017-02-02 16:09:19,47.210175694041816
0.4256897,-0.49087524,9.744431,8.239746E-4,-6.1035156E-4,2.593994E-4,0.0,0.41586366,-0.5095793,9.784568,0.012103438,0.016967475,-0.0067281723,-0.02794014,0.018530332,-0.95428765,2017-02-02 16:09:20,56.18611026054259
0.42329407,-0.49087524,9.754013,2.1362305E-4,1.5258789E-5,8.69751E-4,0.0,0.42002815,-0.49994564,9.784886,0.0042879283,0.0054582953,-0.011856079,-0.028040329,0.017981682,-0.9542643,2017-02-02 16:09:21,56.503870241713834
0.42807007,-0.4956665,9.749222,-3.9672852E-4,1.5258789E-5,2.593994E-4,0.0,0.4140511,-0.50520205,9.784873,-0.025575846,-0.0061469674,0.011523247,-0.027832303,0.018323213,-0.954209,2017-02-02 16:09:22,46.995761412545136
0.42329407,-0.49327087,9.754013,2.1362305E-4,1.5258789E-5,-3.5095215E-4,0.0,0.41151014,-0.5080371,9.784833,-0.013480455,-0.005688548,0.013449669,-0.027752496,0.018498516,-0.95419353,2017-02-02 16:09:23,57.46277980543599
0.42807007,-0.51242065,9.749222,-3.9672852E-4,1.5258789E-5,-3.5095215E-4,0.0,0.41019318,-0.5039883,9.785098,-0.009907961,-0.011954546,0.0027513504,-0.027632166,0.01831297,-0.9541116,2017-02-02 16:09:24,54.767482482451555
0.42807007,-0.4956665,9.754013,-3.9672852E-4,1.5258789E-5,2.593994E-4,0.0,0.41155463,-0.5096062,9.784749,0.0056654513,0.0077703595,-0.0018959045,-0.02777704,0.01857654,-0.95421547,2017-02-02 16:09:25,37.39645388181589
0.41610718,-0.50283813,9.751617,-3.9672852E-4,1.5258789E-5,2.593994E-4,0.0,0.41437334,-0.50908864,9.784657,0.0012489557,0.005220294,-0.0075149536,-0.027981542,0.018508013,-0.9543046,2017-02-02 16:09:26,58.04961077410806
0.42807007,-0.49327087,9.734863,2.1362305E-4,6.1035156E-4,-3.5095215E-4,0.0,0.41775447,-0.5069987,9.784622,-0.019465834,-0.014190733,0.0025949478,-0.028033447,0.018364834,-0.9543109,2017-02-02 16:09:27,59.316824536880674
0.42089844,-0.49327087,9.751617,-3.9672852E-4,1.5258789E-5,2.593994E-4,0.0,0.41852075,-0.5005041,9.784924,0.007876635,0.004836172,0.0088682175,-0.02797687,0.018029358,-0.9542401,2017-02-02 16:09:28,58.794055221347605
0.41610718,-0.50283813,9.744431,8.239746E-4,1.5258789E-5,2.593994E-4,0.0,0.42223617,-0.5051887,9.784523,0.004461378,0.0011447072,-0.016736984,-0.028219951,0.018215671,-0.95438087,2017-02-02 16:09:29,47.0660164742985
0.41133118,-0.50283813,9.749222,8.239746E-4,-6.1035156E-4,2.593994E-4,0.0,0.42068082,-0.5032986,9.784687,0.0014193356,0.006194353,-0.01230526,-0.028119229,0.018141204,-0.95432293,2017-02-02 16:09:30,56.73096272523361
0.41133118,-0.51719666,9.780334,2.1362305E-4,1.5258789E-5,2.593994E-4,0.0,0.4166798,-0.50584203,9.784727,-0.003939867,-0.0034976006,0.0047473907,-0.027966,0.018320905,-0.95427287,2017-02-02 16:09:31,60.09259564362183
0.4304657,-0.49806213,9.751617,2.1362305E-4,-6.1035156E-4,-3.5095215E-4,0.0,0.4145016,-0.5076313,9.784726,0.0161286,0.0070417523,-0.008397102,-0.027912522,0.018364966,-0.95425296,2017-02-02 16:09:32,58.53309337702143
0.41133118,-0.50045776,9.773148,2.1362305E-4,1.5258789E-5,-3.5095215E-4,0.0,0.41251513,-0.5103518,9.784669,0.011482477,0.004247606,-0.011588097,-0.027833184,0.018601324,-0.9542456,2017-02-02 16:09:33,53.87539548135122
0.4041443,-0.4956665,9.765976,-3.9672852E-4,1.5258789E-5,-3.5095215E-4,0.0,0.40906668,-0.5056226,9.78506,-0.022928208,-0.012969136,0.012690544,-0.027602214,0.018409612,-0.9541098,2017-02-02 16:09:34,44.087910189932025
0.41610718,-0.51242065,9.770752,2.1362305E-4,-6.1035156E-4,-3.5095215E-4,0.0,0.41223866,-0.5081084,9.784799,0.007138759,0.013759553,0.011504173,-0.02778802,0.018492546,-0.9542098,2017-02-02 16:09:35,49.74632784949464
0.3993683,-0.5076294,9.792297,8.239746E-4,6.1035156E-4,-3.5095215E-4,0.0,0.41556966,-0.5095163,9.784583,-0.015099168,-0.018614233,0.016910553,-0.027965918,0.01851953,-0.9542986,2017-02-02 16:09:36,55.89049991510908
0.42089844,-0.510025,9.749222,2.1362305E-4,-6.1035156E-4,2.593994E-4,0.0,0.41814148,-0.5225451,9.783787,0.0038727224,0.023088634,0.005900383,-0.028273376,0.01913906,-0.9545255,2017-02-02 16:09:37,59.67265789850974
0.44961548,-0.4729309,9.798676,-9.1552734E-5,-3.0517578E-4,6.713867E-4,0.0,0.44386005,-0.48122457,9.784774,0.009210467,0.009195447,0.014180183,-0.028903043,0.016733125,-0.95451474,2017-02-02 16:09:38,55.3664864162825
0.41133118,-0.51242065,9.744431,2.1362305E-4,-6.1035156E-4,-9.613037E-4,0.0,0.42420188,-0.49941102,9.784735,-0.013475984,-0.013986975,-0.014408112,-0.028317362,0.017895,-0.9543859,2017-02-02 16:09:39,50.76314156600858
0.3993683,-0.510025,9.737259,8.239746E-4,-6.1035156E-4,-3.5095215E-4,0.0,0.4140485,-0.50472516,9.784897,0.003001213,0.0031184554,-0.0134010315,-0.02782536,0.018299356,-0.9542026,2017-02-02 16:09:40,57.66835802824171
0.3921814,-0.48849487,9.773148,2.1362305E-4,1.5258789E-5,-9.613037E-4,0.0,0.411789,-0.5069081,9.78488,7.377267E-4,-0.004588604,-0.009645462,-0.027749555,0.018438306,-0.9541843,2017-02-02 16:09:41,51.608896592998576
0.39457703,-0.51719666,9.761185,2.1362305E-4,1.5258789E-5,-3.5095215E-4,0.0,0.40167817,-0.5049081,9.785403,-0.0068024397,-0.014640152,0.0039873123,-0.02727,0.018414693,-0.9539507,2017-02-02 16:09:42,56.09819269461233
0.41371155,-0.46455383,9.744431,-7.6293945E-5,-1.9836426E-4,9.1552734E-5,0.0,0.4018342,-0.49980554,9.785659,0.013203114,0.035757482,-0.0059347153,-0.02721502,0.01832763,-0.9539128,2017-02-02 16:09:43,56.70904395986803
0.39697266,-0.5148163,9.756393,-7.6293945E-5,4.272461E-4,-0.0011291504,0.0,0.4001128,-0.50709254,9.785355,-0.0023347735,-0.010436773,-0.003783226,-0.027189836,0.018527504,-0.9539269,2017-02-02 16:09:44,51.89510333034488
0.38739014,-0.5195923,9.76358,5.340576E-4,-1.9836426E-4,9.1552734E-5,0.0,0.40718472,-0.5021505,9.785317,-0.0070007145,-0.016052127,-0.0021343231,-0.027463315,0.018260451,-0.9540235,2017-02-02 16:09:45,46.0686581287366
0.39457703,-0.50523376,9.782715,-7.6293945E-5,-1.9836426E-4,-5.187988E-4,0.0,0.40391046,-0.5072883,9.785188,-0.0054385066,0.003585577,0.019965172,-0.02727965,0.018735131,-0.95399725,2017-02-02 16:09:46,53.69752098554774
0.38739014,-0.50283813,9.773148,-7.6293945E-5,-1.9836426E-4,9.1552734E-5,0.0,0.40573186,-0.50525343,9.785217,-0.016640544,5.6004524E-4,0.014507294,-0.027403723,0.018418696,-0.95401555,2017-02-02 16:09:47,60.00124860713332
0.40893555,-0.510025,9.749222,5.340576E-4,0.0010223389,-5.187988E-4,0.0,0.40210003,-0.50732553,9.785261,0.005829692,3.3825636E-4,-0.021367073,-0.027296698,0.018586487,-0.95398605,2017-02-02 16:09:48,54.00383328089682
0.42329407,-0.49806213,9.754013,-7.6293945E-5,4.272461E-4,7.019043E-4,0.0,0.4089282,-0.5073217,9.784978,0.0147432685,0.0060197115,-0.010602951,-0.027611373,0.01838087,-0.95411044,2017-02-02 16:09:49,39.63023968992314
0.40893555,-0.49806213,9.739655,-7.6293945E-5,-1.9836426E-4,9.1552734E-5,0.0,0.4049301,-0.5070622,9.785158,0.009835571,0.014866948,-0.017634392,-0.027426928,0.018536052,-0.9540421,2017-02-02 16:09:50,36.899507506959154
0.3993683,-0.51242065,9.765976,-7.6293945E-5,-1.9836426E-4,9.1552734E-5,0.0,0.4028789,-0.508853,9.78515,-0.009781241,-0.011896551,6.8569183E-4,-0.027355459,0.018652707,-0.95402294,2017-02-02 16:09:52,37.241789363421205
0.40893555,-0.5076294,9.749222,-7.6293945E-5,4.272461E-4,-5.187988E-4,0.0,0.41003785,-0.5045833,9.785073,6.8056583E-4,-0.003799498,-0.0099134445,-0.027608665,0.018383302,-0.95410943,2017-02-02 16:09:53,39.21399912390094
0.41371155,-0.50523376,9.761185,-7.6293945E-5,-1.9836426E-4,-5.187988E-4,0.0,0.40439683,-0.5021734,9.785432,-0.0016340017,-0.007971168,-0.008398056,-0.027331589,0.018298294,-0.95396507,2017-02-02 16:09:54,47.492368216139305
0.3993683,-0.50045776,9.737259,-7.6293945E-5,4.272461E-4,-5.187988E-4,0.0,0.3996933,-0.5017636,9.785646,0.0019530356,0.0016835332,-0.021123886,-0.0270731,0.01844428,-0.95385975,2017-02-02 16:09:55,44.5761198662434
0.41371155,-0.50045776,9.758789,5.340576E-4,-1.9836426E-4,9.1552734E-5,0.0,0.40446556,-0.50972235,9.785039,0.010264009,0.003205657,-0.0063972473,-0.027443023,0.018675365,-0.954068,2017-02-02 16:09:56,53.7127827663408
0.3993683,-0.50283813,9.746826,5.340576E-4,4.272461E-4,7.019043E-4,0.0,0.3937333,-0.50231487,9.785859,0.0063633025,0.005719185,-0.0017824173,-0.026828656,0.018446267,-0.95374215,2017-02-02 16:09:57,58.69674041033511
0.40893555,-0.50523376,9.74205,-7.6293945E-5,-8.087158E-4,-5.187988E-4,0.0,0.40390968,-0.5011572,9.785504,0.0045912266,-0.006056398,-0.026081085,-0.02733293,0.018183978,-0.9539507,2017-02-02 16:09:58,39.70704983714301
0.3802185,-0.51242065,9.761185,-7.6293945E-5,-1.9836426E-4,9.1552734E-5,0.0,0.40212208,-0.50700414,9.785277,0.005614072,0.005038142,-0.00694561,-0.027293134,0.018570106,-0.9539822,2017-02-02 16:09:59,56.19949613972096
0.43286133,-0.4693451,9.773148,0.0011444092,-8.087158E-4,-0.0023498535,0.0,0.3969853,-0.50208086,9.78574,0.052075446,0.025616318,-0.10359764,-0.026979266,0.018391497,-0.9538076,2017-02-02 16:10:00,53.7645093863226
0.40653992,-0.4956665,9.78511,5.340576E-4,0.0010223389,9.1552734E-5,0.0,0.40294603,-0.5052824,9.785331,-0.0024636388,-0.010930896,-0.009054184,-0.027307473,0.018473057,-0.9539764,2017-02-02 16:10:01,52.34671713258568
0.40174866,-0.50283813,9.730072,-7.6293945E-5,-1.9836426E-4,-5.187988E-4,0.0,0.4035715,-0.5043,9.7853565,-6.1395764E-4,-0.0021587014,-0.02495575,-0.027295668,0.018311959,-0.9539496,2017-02-02 16:10:02,55.59986544915561
0.3993683,-0.510025,9.76358,-7.6293945E-5,4.272461E-4,-5.187988E-4,0.0,0.39972565,-0.5085171,9.7852955,-0.0040956438,-0.014810383,-0.024655342,-0.02720137,0.018677434,-0.9539521,2017-02-02 16:10:03,59.77502183670158
0.4185028,-0.48849487,9.751617,-6.866455E-4,-8.087158E-4,7.019043E-4,0.0,0.40559742,-0.5035998,9.78531,0.021064907,-0.0028415918,-0.0054502487,-0.027408909,0.018353904,-0.9540096,2017-02-02 16:10:04,59.89789819079381
0.3993683,-0.5148163,9.761185,-7.6293945E-5,-1.9836426E-4,9.1552734E-5,0.0,0.40416202,-0.508034,9.785139,-0.0012197793,0.0012999177,-0.011811256,-0.027404478,0.018594816,-0.954039,2017-02-02 16:10:05,61.05492082934855
0.3993683,-0.510025,9.756393,-6.866455E-4,4.272461E-4,-5.187988E-4,0.0,0.40742755,-0.50405663,9.785209,-0.0056996047,-0.0064314604,6.637573E-4,-0.027463507,0.018420639,-0.9540446,2017-02-02 16:10:06,59.874370842473795
0.42807007,-0.50045776,9.761185,-7.6293945E-5,0.0010223389,9.1552734E-5,0.0,0.41054726,-0.49942893,9.785316,0.004263282,-0.0023657084,-0.0146923065,-0.027583592,0.018079966,-0.9540577,2017-02-02 16:10:07,57.172810597737765
0.3993683,-0.50523376,9.768372,-7.6293945E-5,-1.9836426E-4,-5.187988E-4,0.0,0.40538988,-0.50625896,9.785179,0.011841625,0.0020167828,-0.01121521,-0.027437197,0.018489787,-0.95404094,2017-02-02 16:10:08,56.35331674713079
0.1277771,-0.1714325,9.797485,-0.0076141357,-0.030929565,0.0027313232,0.0,0.08219815,-0.22377278,9.803752,0.057877123,0.04780419,0.024412155,-0.0067755296,0.009624462,-0.95385444,2017-02-02 16:10:09,56.169130718787976
-0.028945923,-0.23724365,9.839752,0.023956299,0.02607727,0.007019043,0.0,-0.05011917,-0.21282654,9.804213,0.115591526,0.16261986,-0.26617908,-7.852026E-4,0.011120967,-0.9547532,2017-02-02 16:10:10,55.18264856508939
0.45559692,-0.46855164,9.788712,-0.0016021729,1.5258789E-5,0.002029419,0.0,0.43748406,-0.48262036,9.784991,0.020320952,0.014588922,0.03155899,-0.028622387,0.016882151,-0.9543614,2017-02-02 16:10:11,60.09001045139666
0.41610718,-0.50523376,9.727692,-6.866455E-4,-8.087158E-4,9.1552734E-5,0.0,0.43388665,-0.4822492,9.78517,-0.018797606,-0.02478385,-0.042331696,-0.028486406,0.016877634,-0.9547411,2017-02-02 16:10:12,51.88865790268104
0.39697266,-0.5195923,9.758789,-0.0019226074,4.272461E-4,7.019043E-4,0.0,0.41909686,-0.48802504,9.785529,-0.016251236,-0.013710111,0.0012683868,-0.02783393,0.017382592,-0.95393443,2017-02-02 16:10:13,56.77102973471695
0.41610718,-0.5076294,9.756393,-6.866455E-4,4.272461E-4,-5.187988E-4,0.0,0.41825214,-0.4994539,9.784989,0.01626116,0.016173184,-0.0138731,-0.027957994,0.01796641,-0.9540731,2017-02-02 16:10:14,60.62640368000602
0.39697266,-0.49327087,9.730072,-0.0012969971,-8.087158E-4,-5.187988E-4,0.0,0.4159647,-0.5036686,9.784869,-0.015726864,0.011179388,-0.02348423,-0.027852412,0.018353201,-0.9540731,2017-02-02 16:10:15,61.02772677250862
0.41610718,-0.5195923,9.749222,1.5258789E-4,4.7302246E-4,7.9345703E-4,0.0,0.41408056,-0.5024351,9.785012,0.0027653873,-0.01088196,0.027137756,-0.027803121,0.018170409,-0.9540248,2017-02-02 16:10:16,41.308479822785664
0.41371155,-0.51242065,9.76358,1.5258789E-4,4.7302246E-4,-4.272461E-4,0.0,0.413173,-0.50035024,9.785158,0.0023384988,-0.009397507,0.0031051636,-0.027750358,0.018285112,-0.95401436,2017-02-02 16:10:17,58.782062132855316
0.4185028,-0.50283813,9.751617,1.5258789E-4,-1.5258789E-4,1.8310547E-4,0.0,0.4112003,-0.49684957,9.78542,-0.0010525286,-0.0050728917,-0.0049552917,-0.027586546,0.017928343,-0.95388687,2017-02-02 16:10:18,58.88274788241988
0.4256897,-0.4837036,9.749222,-4.5776367E-4,-7.6293945E-4,1.8310547E-4,0.0,0.41574162,-0.497093,9.785215,0.0063224733,0.0048239827,-0.0037660599,-0.02780519,0.017880956,-0.9539872,2017-02-02 16:10:19,60.47126007768841
0.39697266,-0.51242065,9.765976,7.6293945E-4,4.7302246E-4,1.8310547E-4,0.0,0.4058375,-0.4998421,9.785491,-0.02220416,-0.01622951,0.002664566,-0.027375547,0.018148776,-0.9538133,2017-02-02 16:10:20,57.756095163017235
0.41133118,-0.48849487,9.765976,7.6293945E-4,4.7302246E-4,-0.0010375977,0.0,0.41487464,-0.49673614,9.785271,0.007047087,-0.007327199,-0.0047416687,-0.02775899,0.017874438,-0.9539638,2017-02-02 16:10:21,55.697930144056315
0.4185028,-0.4956665,9.746826,1.5258789E-4,-1.5258789E-4,1.8310547E-4,0.0,0.41452387,-0.49615163,9.785315,-0.011743218,-0.0127129555,0.002626419,-0.02773398,0.01784975,-0.95394826,2017-02-02 16:10:22,57.29857148891017
0.42089844,-0.48849487,9.775543,-4.5776367E-4,4.7302246E-4,-4.272461E-4,0.0,0.41318485,-0.49634725,9.785361,-0.008024007,-0.017294586,0.0022935867,-0.027673349,0.01787712,-0.95392233,2017-02-02 16:10:23,50.78831452921831
0.3993683,-0.50045776,9.770752,7.6293945E-4,-1.5258789E-4,7.9345703E-4,0.0,0.4174894,-0.49754232,9.785119,0.0047447085,2.8404593E-4,1.9931793E-4,-0.027894447,0.017880583,-0.9540307,2017-02-02 16:10:24,50.73716151381154
0.4185028,-0.48609924,9.787506,1.5258789E-4,-1.5258789E-4,-4.272461E-4,0.0,0.41332954,-0.49649474,9.785349,0.009505957,0.006161332,-0.010437965,-0.02768232,0.017882608,-0.95392746,2017-02-02 16:10:25,55.724341390671356
0.42329407,-0.48849487,9.751617,1.5258789E-4,-1.5258789E-4,-4.272461E-4,0.0,0.4035295,-0.50430423,9.785357,-0.015240312,-0.009239972,0.0071954727,-0.027330352,0.01840263,-0.9538252,2017-02-02 16:10:26,55.285093903819515
0.4041443,-0.49327087,9.751617,7.6293945E-4,-1.5258789E-4,-4.272461E-4,0.0,0.41280493,-0.4998564,9.7852,-0.007306874,0.0053507984,-0.005754471,-0.027699862,0.018069662,-0.953961,2017-02-02 16:10:27,56.485130286034185
0.38978577,-0.5195923,9.758789,7.6293945E-4,-1.5258789E-4,-4.272461E-4,0.0,0.41158628,-0.50187176,9.785148,0.013012737,0.011785746,-0.004901886,-0.027676914,0.018174876,-0.9539639,2017-02-02 16:10:28,47.59810347787458
0.40893555,-0.50523376,9.756393,7.6293945E-4,-1.5258789E-4,-4.272461E-4,0.0,0.41688162,-0.49424535,9.785312,-0.005093068,-0.015252709,0.0033044815,-0.027710462,0.017610628,-0.95390475,2017-02-02 16:10:29,45.70020406974311
0.42329407,-0.49806213,9.770752,1.5258789E-4,-1.5258789E-4,1.8310547E-4,0.0,0.4097832,-0.49789077,9.785427,-0.0018433034,-0.006648332,-0.03626728,-0.027534377,0.017999124,-0.95387083,2017-02-02 16:10:30,48.15477411970093
0.4304657,-0.48849487,9.761185,0.0019836426,0.0010681152,1.8310547E-4,0.0,0.40782338,-0.49956015,9.785423,-2.8955936E-4,-0.0021151006,0.009177208,-0.027465537,0.018108513,-0.9538519,2017-02-02 16:10:31,49.495539874211765
0.41371155,-0.49087524,9.756393,7.6293945E-4,-1.5258789E-4,1.8310547E-4,0.0,0.41641104,-0.497649,9.785159,4.836917E-5,0.005025029,-0.0029993057,-0.027760388,0.017899906,-0.95396787,2017-02-02 16:10:32,57.45085783057466
0.40653992,-0.49087524,9.799469,1.5258789E-4,-1.5258789E-4,-4.272461E-4,0.0,0.41245443,-0.49489662,9.785465,0.010593355,1.4549494E-4,0.028323174,-0.027617903,0.017814038,-0.9538868,2017-02-02 16:10:33,58.71209788144819
0.41371155,-0.50523376,9.746826,1.5258789E-4,-1.5258789E-4,-4.272461E-4,0.0,0.4092753,-0.5019403,9.785241,0.0030941963,0.012171984,0.024694443,-0.027568458,0.018208647,-0.9539155,2017-02-02 16:10:34,49.078856242112884
0.40893555,-0.50523376,9.751617,7.6293945E-4,4.7302246E-4,-4.272461E-4,0.0,0.41226313,-0.4971912,9.785357,-0.0047222674,0.019452065,-0.021945,-0.027641803,0.0179315,-0.9539142,2017-02-02 16:10:35,45.091940767003315
0.3993683,-0.47174072,9.749222,1.5258789E-4,-7.6293945E-4,1.8310547E-4,0.0,0.41131794,-0.5019747,9.785153,0.016080767,-2.7000904E-5,-0.0022125244,-0.027665682,0.018183555,-0.9539596,2017-02-02 16:10:36,51.555442325174326
0.4041443,-0.49806213,9.74205,1.5258789E-4,4.7302246E-4,-0.0010375977,0.0,0.41389808,-0.50119835,9.785085,0.0132036805,0.0062175393,0.0070877075,-0.027776746,0.018110825,-0.954004,2017-02-02 16:10:37,60.97542257205645
0.40653992,-0.50283813,9.744431,7.6293945E-4,4.7302246E-4,1.8310547E-4,0.0,0.41155633,-0.50512606,9.784981,-0.0011791587,-0.0018770695,-0.006275177,-0.027722144,0.01833832,-0.9540077,2017-02-02 16:10:38,58.93734011979547
0.4256897,-0.49327087,9.746826,-4.5776367E-4,-1.5258789E-4,-4.272461E-4,0.0,0.4148167,-0.5012192,9.785045,0.010902673,0.006550163,-0.009917259,-0.02787674,0.018086959,-0.9540495,2017-02-02 16:10:39,58.816383084265766
0.3921814,-0.5267792,9.758789,7.6293945E-4,-1.5258789E-4,7.9345703E-4,0.0,0.420492,-0.49814963,9.784959,0.0061479807,0.0037529469,0.005525589,-0.02804543,0.017871765,-0.95410305,2017-02-02 16:10:40,52.42414046799613
0.3921814,-0.5195923,9.770752,1.5258789E-4,4.7302246E-4,1.8310547E-4,0.0,0.41485545,-0.50202715,9.785001,0.0048102736,-0.0046138763,0.0036125183,-0.027833974,0.018139819,-0.95403576,2017-02-02 16:10:41,57.050376032565104
0.38261414,-0.51242065,9.773148,0.001373291,-1.5258789E-4,1.8310547E-4,0.0,0.41078907,-0.5033352,9.785105,0.013380766,0.0065956116,0.0017309189,-0.02766015,0.018258655,-0.95396686,2017-02-02 16:10:42,51.40053015225503
0.41371155,-0.49327087,9.758789,-4.5776367E-4,-1.5258789E-4,1.8310547E-4,0.0,0.41213357,-0.502212,9.785108,7.4505806E-6,0.00316298,-0.0046949387,-0.02770771,0.018184744,-0.9539802,2017-02-02 16:10:43,37.7778850828325
0.4304657,-0.50523376,9.749222,-0.0010681152,-7.6293945E-4,1.8310547E-4,0.0,0.41492206,-0.49628785,9.785291,0.025828183,0.004554659,0.02152729,-0.027754802,0.017851355,-0.9539587,2017-02-02 16:10:44,46.749337848751836
0.41133118,-0.4956665,9.744431,1.5258789E-4,-1.5258789E-4,7.9345703E-4,0.0,0.41157886,-0.50184774,9.785149,-0.008651495,-0.021577418,0.008851051,-0.02767622,0.018173771,-0.9539634,2017-02-02 16:10:45,60.24099116533627
0.3993683,-0.50283813,9.773148,1.5258789E-4,-7.6293945E-4,-4.272461E-4,0.0,0.40667516,-0.50272644,9.785309,-0.008052051,-0.003091544,0.010379791,-0.027510304,0.01816862,-0.95388174,2017-02-02 16:10:46,56.26985192407891
0.4185028,-0.50045776,9.746826,1.5258789E-4,-1.5258789E-4,-4.272461E-4,0.0,0.40953434,-0.50036407,9.78531,-0.006679535,-0.013408065,0.016662598,-0.027558109,0.018126288,-0.95389944,2017-02-02 16:10:48,61.344121064719666
0.40174866,-0.4956665,9.734863,1.5258789E-4,4.7302246E-4,-0.0010375977,0.0,0.40611702,-0.49929473,9.785508,0.025255412,0.019267619,0.031033516,-0.027380917,0.018117681,-0.95381176,2017-02-02 16:10:49,51.5057792809559
0.40893555,-0.48849487,9.749222,1.5258789E-4,-1.5258789E-4,-4.272461E-4,0.0,0.41049862,-0.5010755,9.7852335,-7.351637E-4,-0.005168855,0.002872467,-0.027613984,0.01814926,-0.9539298,2017-02-02 16:10:50,50.24639758715362
0.38739014,-0.49806213,9.765976,1.5258789E-4,4.7302246E-4,-4.272461E-4,0.0,0.41171673,-0.50051,9.785212,0.007950544,0.0082191825,0.001253128,-0.027663559,0.018104939,-0.953948,2017-02-02 16:10:51,58.57958363293497
0.4304657,-0.51242065,9.76358,1.5258789E-4,0.0010681152,1.8310547E-4,0.0,0.41083422,-0.49991703,9.785278,-0.0056686103,0.0054033995,-0.023694038,-0.027613254,0.018086819,-0.9539211,2017-02-02 16:10:52,60.73026121435656
0.3993683,-0.51719666,9.768372,1.5258789E-4,-1.5258789E-4,1.8310547E-4,0.0,0.41038188,-0.5027075,9.785155,0.009778649,-0.021311104,-0.015556335,-0.027631864,0.01823255,-0.9539496,2017-02-02 16:10:53,40.2211912788691
0.41610718,-0.4956665,9.768372,7.6293945E-4,-1.5258789E-4,1.8310547E-4,0.0,0.41514117,-0.508684,9.784645,0.00697425,0.009130716,-0.00674057,-0.027942805,0.018469699,-0.9541325,2017-02-02 16:10:54,46.83962837676028
0.4304657,-0.4837036,9.744431,-0.0010681152,-0.001373291,-0.0010375977,0.0,0.41474217,-0.5002109,9.7851,0.01856023,0.015738636,0.0010166168,-0.027771227,0.018132867,-0.9540042,2017-02-02 16:10:55,44.93570857928418
0.23664856,-0.92637634,9.751617,1.5258789E-4,4.7302246E-4,1.8310547E-4,0.0,0.4146572,-0.50555706,9.784827,0.0073921382,0.013278544,0.0035161972,-0.02787515,0.018319312,-0.9540796,2017-02-02 16:10:56,53.9753187600881
0.44003296,-0.48130798,9.787506,4.5776367E-4,-6.5612793E-4,0.0014038086,0.0,0.4390273,-0.47992775,9.785055,0.0036744475,0.017058909,0.010539055,-0.028663108,0.016716639,-0.95424956,2017-02-02 16:10:57,59.15083807960049
0.4185028,-0.48849487,9.749222,-4.5776367E-4,4.7302246E-4,1.8310547E-4,0.0,0.4105657,-0.5029249,9.785135,0.0041933954,0.0011839271,-0.008551598,-0.02764369,0.018241033,-0.9539565,2017-02-02 16:10:58,55.78599873525252
0.3993683,-0.5267792,9.758789,1.5258789E-4,0.0010681152,7.9345703E-4,0.0,0.413569,-0.50820154,9.784737,0.010907084,-0.010447562,-0.02670002,-0.02786147,0.018466078,-0.95409244,2017-02-02 16:10:59,62.4756070693709
0.41371155,-0.5076294,9.76358,1.5258789E-4,-1.5258789E-4,-0.0010375977,0.0,0.4146312,-0.5063931,9.784785,0.019838244,0.005718708,0.0063943863,-0.027885884,0.01836155,-0.9540905,2017-02-02 16:11:00,60.813096953415275
0.41133118,-0.510025,9.777939,-3.0517578E-5,3.3569336E-4,-7.324219E-4,0.0,0.4108919,-0.5097234,9.784771,-0.0032232106,-0.030418932,0.022443771,-0.02775651,0.018577384,-0.95405614,2017-02-02 16:11:01,58.781402873746785
0.40893555,-0.50283813,9.744431,-3.0517578E-5,3.3569336E-4,-1.2207031E-4,0.0,0.4180516,-0.50421363,9.784753,-0.010094374,-0.012312055,-0.011925697,-0.028016672,0.018207606,-0.9541337,2017-02-02 16:11:02,52.26821027384938
0.40174866,-0.51242065,9.777939,-3.0517578E-5,-2.89917E-4,-7.324219E-4,0.0,0.41501936,-0.5052188,9.78483,0.0048056245,0.015114367,-0.02358532,-0.027887454,0.01829762,-0.9540828,2017-02-02 16:11:03,51.9017342328099
0.4185028,-0.51242065,9.74205,-6.4086914E-4,3.3569336E-4,-7.324219E-4,0.0,0.4147011,-0.5059324,9.784806,2.5117397E-4,-0.0070320964,0.016319275,-0.0278826,0.018337548,-0.9540857,2017-02-02 16:11:04,59.923464558341415
0.41133118,-0.49327087,9.734863,-3.0517578E-5,-2.89917E-4,-7.324219E-4,0.0,0.41507655,-0.5051898,9.784829,-4.040599E-4,0.011147261,-0.016607285,-0.02781197,0.018368585,-0.9540554,2017-02-02 16:11:05,57.403962867950284
0.43525696,-0.510025,9.749222,-3.0517578E-5,-2.89917E-4,-7.324219E-4,0.0,0.41216293,-0.50966793,9.78472,1.822114E-4,0.007956326,0.014895439,-0.027815882,0.01855796,-0.9540824,2017-02-02 16:11:06,60.1928609119646
0.41371155,-0.5076294,9.749222,-3.0517578E-5,-2.89917E-4,-0.0013427734,0.0,0.41719517,-0.5124111,9.784364,-7.389784E-4,0.0034700036,-0.008220673,-0.028019087,0.018655669,-0.9541941,2017-02-02 16:11:07,60.408618467165944
0.3993683,-0.5076294,9.770752,-3.0517578E-5,3.3569336E-4,-1.2207031E-4,0.0,0.41488463,-0.50837153,9.784673,-0.01450631,5.633831E-4,0.012003899,-0.027946996,0.018514795,-0.9541405,2017-02-02 16:11:08,42.19608673023388
0.41133118,-0.49806213,9.749222,-3.0517578E-5,-2.89917E-4,-7.324219E-4,0.0,0.417401,-0.50520486,9.78473,-0.004326582,0.005032778,-0.006606102,-0.028000042,0.018265788,-0.95413333,2017-02-02 16:11:09,60.863140354447644
0.3993683,-0.52438354,9.765976,-3.0517578E-5,-2.89917E-4,-7.324219E-4,0.0,0.41546634,-0.5099837,9.784564,-0.015109867,-0.015612841,0.0046844482,-0.028017614,0.018473882,-0.9541694,2017-02-02 16:11:10,56.26936154112148
0.4256897,-0.4956665,9.768372,-6.4086914E-4,3.3569336E-4,-7.324219E-4,0.0,0.42080393,-0.50186294,9.784757,0.0045413077,0.0051778555,0.0107040405,-0.0281902,0.01805257,-0.9541976,2017-02-02 16:11:11,59.874458231099126
0.39457703,-0.5195923,9.770752,-3.0517578E-5,-2.89917E-4,4.8828125E-4,0.0,0.41554326,-0.5076551,9.784682,-0.021878421,-0.013851225,0.015127182,-0.028043035,0.018364182,-0.95416725,2017-02-02 16:11:12,60.44021507721872
0.42089844,-0.50045776,9.749222,-6.4086914E-4,-2.89917E-4,-7.324219E-4,0.0,0.41125458,-0.5086181,9.784813,-0.01567161,-2.554059E-4,0.005097389,-0.027757863,0.018517248,-0.9540488,2017-02-02 16:11:13,60.642683148596646
0.4304657,-0.5148163,9.749222,-6.4086914E-4,3.3569336E-4,-1.2207031E-4,0.0,0.41096765,-0.5125104,9.784622,0.021297812,-0.0051093698,-0.007252693,-0.027751844,0.01865756,-0.9540645,2017-02-02 16:11:14,57.518344858733414
0.41133118,-0.5076294,9.74205,5.79834E-4,-9.0026855E-4,-1.2207031E-4,0.0,0.40973607,-0.5098552,9.784812,-0.02130267,-0.013430893,0.008472443,-0.027703688,0.01859913,-0.9540333,2017-02-02 16:11:15,53.37009080868675
0.43525696,-0.50523376,9.737259,-3.0517578E-5,-2.89917E-4,4.8828125E-4,0.0,0.4146881,-0.5072954,9.784737,0.014378339,0.01041007,0.016712189,-0.027901491,0.018406028,-0.95410395,2017-02-02 16:11:16,41.93840611086693
0.39697266,-0.51719666,9.768372,-3.0517578E-5,-9.0026855E-4,-1.2207031E-4,0.0,0.41371128,-0.50880957,9.784699,-0.017791927,-0.0076575875,0.015419006,-0.027876902,0.018494686,-0.95410377,2017-02-02 16:11:17,45.04914254467589
0.40653992,-0.50045776,9.739655,-3.0517578E-5,-2.89917E-4,-7.324219E-4,0.0,0.41473386,-0.5061411,9.784794,-0.005923867,0.0052493215,-0.00920105,-0.027871998,0.018428976,-0.9540927,2017-02-02 16:11:18,41.16641256914803
0.41133118,-0.50523376,9.751617,-6.4086914E-4,3.3569336E-4,4.8828125E-4,0.0,0.41349155,-0.5062878,9.78484,-0.0021879375,-9.812713E-4,-0.0035896301,-0.027883908,0.018329093,-0.95408523,2017-02-02 16:11:19,39.96813441901344
0.43525696,-0.50523376,9.737259,-3.0517578E-5,-9.0026855E-4,4.8828125E-4,0.0,0.41301227,-0.50693864,9.784826,-0.00519377,0.007307172,-0.0029182434,-0.027817035,0.018410074,-0.9540634,2017-02-02 16:11:20,56.63421912271304
0.41371155,-0.5219879,9.730072,-3.0517578E-5,-2.89917E-4,-1.2207031E-4,0.0,0.4121192,-0.5084808,9.784784,0.0051329434,-0.0053526163,-0.039489746,-0.027796825,0.018499043,-0.9540654,2017-02-02 16:11:21,61.341123716101016
0.40174866,-0.51242065,9.76358,5.79834E-4,-2.89917E-4,-1.2207031E-4,0.0,0.41919208,-0.51078933,9.784363,0.012706906,0.0062046647,-0.0016860962,-0.028164688,0.018522378,-0.9542473,2017-02-02 16:11:22,53.552439228465815
0.4041443,-0.5195923,9.737259,-3.0517578E-5,-2.89917E-4,-1.2207031E-4,0.0,0.41588914,-0.5082168,9.784637,-0.0051140785,-0.016018927,-0.02325058,-0.02797154,0.01843651,-0.9541421,2017-02-02 16:11:23,56.568237147134006
0.4304657,-0.48849487,9.758789,-3.0517578E-5,3.3569336E-4,4.8828125E-4,0.0,0.41360965,-0.5043105,9.784937,0.0061858892,0.00706774,-0.007528305,-0.027807688,0.01827055,-0.95404035,2017-02-02 16:11:24,61.19607458229534
0.41371155,-0.5076294,9.744431,-3.0517578E-5,-2.89917E-4,-1.2207031E-4,0.0,0.41706836,-0.5076794,9.7846155,-0.003944695,-0.0026271343,-0.01403904,-0.028081575,0.01830551,-0.9541783,2017-02-02 16:11:25,42.893094165061854
0.41610718,-0.50523376,9.732468,-6.4086914E-4,-2.89917E-4,-1.2207031E-4,0.0,0.418987,-0.51022816,9.784402,-0.0029794276,0.002502203,-0.018566132,-0.028208733,0.018439036,-0.95425767,2017-02-02 16:11:26,49.70385250194716
0.4041443,-0.5195923,9.761185,-6.4086914E-4,3.3569336E-4,-7.324219E-4,0.0,0.413581,-0.50556135,9.784873,-0.012952924,-0.008399248,0.010908127,-0.02782425,0.01833361,-0.9540568,2017-02-02 16:11:27,55.9627974717343
0.4041443,-0.510025,9.725296,-3.0517578E-5,3.3569336E-4,-7.324219E-4,0.0,0.41632858,-0.5029517,9.784891,-9.611547E-4,0.017247677,8.5258484E-4,-0.027916994,0.018166874,-0.9540798,2017-02-02 16:11:28,61.21225513639345
0.4185028,-0.4956665,9.739655,-6.4086914E-4,-2.89917E-4,-1.2207031E-4,0.0,0.41540626,-0.5042085,9.784865,-5.502403E-4,0.0023616552,-0.013477325,-0.027891312,0.018241927,-0.95407724,2017-02-02 16:11:29,62.59170699993519
0.4304657,-0.510025,9.777939,-6.4086914E-4,3.3569336E-4,4.8828125E-4,0.0,0.42272642,-0.50983334,9.784261,0.009907693,-0.0022714138,0.015179634,-0.028246133,0.018396594,-0.95427024,2017-02-02 16:11:30,63.02079787705626
0.3993683,-0.510025,9.765976,-6.4086914E-4,-2.89917E-4,-1.2207031E-4,0.0,0.42029828,-0.5046173,9.784636,0.004383087,0.002493918,-0.0031166077,-0.028128864,0.018198518,-0.9541871,2017-02-02 16:11:31,61.695611699521386
0.40893555,-0.50283813,9.765976,-6.4086914E-4,3.3569336E-4,4.8828125E-4,0.0,0.41577694,-0.505895,9.784762,0.0037692487,0.0065633655,9.765625E-4,-0.02793301,0.018321605,-0.9541081,2017-02-02 16:11:32,51.19668315426917
0.40893555,-0.50283813,9.773148,-3.0517578E-5,-9.0026855E-4,-1.2207031E-4,0.0,0.41853714,-0.50195926,9.784848,-0.0032372773,-0.001947999,-0.0089674,-0.028007394,0.018088263,-0.95411336,2017-02-02 16:11:33,54.52747286627022
0.38978577,-0.5267792,9.754013,-3.0517578E-5,3.3569336E-4,-0.0013427734,0.0,0.41204563,-0.50838745,9.784792,0.012409717,0.011288106,-0.027142525,-0.027792009,0.018495329,-0.9540625,2017-02-02 16:11:34,58.16859733240464
0.42329407,-0.49327087,9.758789,5.79834E-4,3.3569336E-4,-1.2207031E-4,0.0,0.41306955,-0.5030994,9.785022,-5.554259E-4,0.0035964847,-0.0077781677,-0.027764758,0.01821694,-0.9540123,2017-02-02 16:11:35,54.6810352067321
0.40893555,-0.50283813,9.761185,-3.0517578E-5,-2.89917E-4,-1.2207031E-4,0.0,0.4128536,-0.50547767,9.784908,-0.0027801096,-0.005940616,-0.015888214,-0.027788606,0.018338941,-0.9540401,2017-02-02 16:11:36,60.03305082716513
0.41371155,-0.510025,9.732468,-3.0517578E-5,-2.89917E-4,-1.2207031E-4,0.0,0.41787493,-0.5069988,9.784616,0.013981521,7.766485E-5,-0.010002136,-0.02804815,0.018349523,-0.95416784,2017-02-02 16:11:37,55.77557768380829
0.4041443,-0.50283813,9.768372,5.79834E-4,-2.89917E-4,-1.2207031E-4,0.0,0.4153224,-0.504698,9.784844,-0.010030627,6.4969063E-6,0.008797646,-0.027882984,0.018240971,-0.9540731,2017-02-02 16:11:38,58.352470239205516
0.40893555,-0.49327087,9.758789,-3.0517578E-5,-2.89917E-4,-1.2207031E-4,0.0,0.4145888,-0.5071165,9.78475,-0.01654613,5.738735E-4,0.004084587,-0.027894229,0.01839836,-0.9540994,2017-02-02 16:11:39,40.03778771540881
0.41371155,-0.4956665,9.739655,-3.0517578E-5,-2.89917E-4,-1.2207031E-4,0.0,0.41610998,-0.50883996,9.784596,8.9514256E-4,0.0025081635,-0.023827553,-0.027990904,0.01846486,-0.95415527,2017-02-02 16:11:40,45.2133864922269
0.41371155,-0.49327087,9.746826,5.79834E-4,-2.89917E-4,-1.2207031E-4,0.0,0.41687536,-0.5091826,9.784545,0.02464217,-0.0050513744,-0.0052700043,-0.028032044,0.018472042,-0.9541762,2017-02-02 16:11:41,43.68742039413556
0.42089844,-0.49806213,9.775543,-3.0517578E-5,-2.89917E-4,-7.324219E-4,0.0,0.41338012,-0.50546145,9.784887,0.0075998604,0.005579412,-0.008135796,-0.027813304,0.018331233,-0.95405114,2017-02-02 16:11:42,52.44138551334089
0.42089844,-0.49087524,9.751617,-3.0517578E-5,3.3569336E-4,-1.2207031E-4,0.0,0.40946117,-0.50994754,9.784819,0.0075427294,0.003597021,-0.006996155,-0.027691998,0.01860736,-0.95402867,2017-02-02 16:11:43,55.1629049159859
0.39697266,-0.52915955,9.765976,-3.0517578E-5,-9.0026855E-4,-1.2207031E-4,0.0,0.4124561,-0.51198894,9.784587,-0.01623264,-0.018039823,0.0113220215,-0.02796808,0.018678872,-0.9541724,2017-02-02 16:11:45,58.88458073917426
0.42329407,-0.50045776,9.744431,-3.0517578E-5,-2.89917E-4,-1.2207031E-4,0.0,0.41667977,-0.5057269,9.784734,0.008769214,0.002957821,-0.009404182,-0.027923437,0.018276613,-0.9540975,2017-02-02 16:11:46,39.813147184743706
0.4304657,-0.49087524,9.754013,-3.0517578E-5,3.3569336E-4,4.8828125E-4,0.0,0.416116,-0.5056124,9.784762,0.006076902,0.020335913,-0.009894371,-0.027945023,0.018303007,-0.9541115,2017-02-02 16:11:47,49.130539007638276
0.42807007,-0.51719666,9.749222,-6.4086914E-4,3.3569336E-4,-7.324219E-4,0.0,0.4132043,-0.5111521,9.784598,-0.024440706,0.0018236637,0.006713867,-0.027886402,0.018618718,-0.95412475,2017-02-02 16:11:48,54.424576348663656
0.40653992,-0.5195923,9.734863,-6.4086914E-4,-9.0026855E-4,-7.324219E-4,0.0,0.3829339,-0.5095603,9.785913,0.016295314,-0.0026753545,-0.042640686,-0.026431547,0.018938417,-0.95345736,2017-02-02 16:11:49,51.82446467192163
0.41929626,-0.50564575,9.780731,2.746582E-4,-1.8310547E-4,-9.3078613E-4,0.0,0.43616524,-0.47949004,9.785205,0.017208457,0.014746666,0.0057725906,-0.028520947,0.016731866,-0.95418227,2017-02-02 16:11:50,59.05896250475764
0.41133118,-0.49806213,9.780334,-3.0517578E-5,-2.89917E-4,-1.2207031E-4,0.0,0.41791028,-0.5033286,9.784804,-0.0039501786,0.0041151047,0.019648552,-0.027922848,0.018190654,-0.9540858,2017-02-02 16:11:51,57.88103052963492
0.43286133,-0.4956665,9.765976,-3.0517578E-5,-2.89917E-4,4.8828125E-4,0.0,0.41892743,-0.5042305,9.784715,9.6690655E-4,-0.0146410465,-0.014953613,-0.028058397,0.018197015,-0.9541526,2017-02-02 16:11:52,44.76458404809594
0.39457703,-0.510025,9.758789,-3.0517578E-5,-9.0026855E-4,-1.2207031E-4,0.0,0.41903332,-0.5048885,9.784677,0.005801767,0.0073652267,5.2928925E-4,-0.028072825,0.018228617,-0.9541638,2017-02-02 16:11:53,56.05377251362259
0.41133118,-0.51242065,9.739655,-3.0517578E-5,-0.0015106201,4.8828125E-4,0.0,0.41997498,-0.50731355,9.784511,-0.011917949,2.4718046E-4,-0.016697884,-0.028152103,0.01833791,-0.95421684,2017-02-02 16:11:54,58.995446169683106
0.41371155,-0.4956665,9.76358,6.1035156E-5,1.0681152E-4,-1.5258789E-4,0.0,0.41193247,-0.510822,9.784669,0.0018738806,0.011856735,0.0052165985,-0.02784209,0.018508893,-0.9540887,2017-02-02 16:11:55,61.32500232876002
0.43525696,-0.5076294,9.754013,6.1035156E-5,1.0681152E-4,4.5776367E-4,0.0,0.41559154,-0.5112776,9.784491,0.011159033,0.004738748,-0.010293007,-0.0280012,0.018593818,-0.95417726,2017-02-02 16:11:56,59.00761699828622
0.41371155,-0.5148163,9.727692,6.1035156E-5,1.0681152E-4,-1.5258789E-4,0.0,0.41422904,-0.5101262,9.78461,0.010598183,0.010175943,8.277893E-4,-0.02792024,0.018553901,-0.9541327,2017-02-02 16:11:57,59.22714874530661
0.41610718,-0.50283813,9.754013,6.713867E-4,-5.0354004E-4,-7.6293945E-4,0.0,0.41972765,-0.50614834,9.784581,-0.0046935678,-0.0054715276,-0.0045289993,-0.028123733,0.018282717,-0.95419574,2017-02-02 16:11:58,53.88749502027861
0.40653992,-0.510025,9.765976,6.1035156E-5,-5.0354004E-4,-7.6293945E-4,0.0,0.42095342,-0.50878704,9.784392,-0.010671735,-4.6944618E-4,-0.0014848709,-0.028219493,0.018399037,-0.9542576,2017-02-02 16:11:59,58.8231086448905
0.3993683,-0.5195923,9.76358,6.1035156E-5,1.0681152E-4,-7.6293945E-4,0.0,0.4142088,-0.5101167,9.784611,-0.006487757,-0.010930181,0.02122879,-0.027919147,0.018553691,-0.9541321,2017-02-02 16:12:00,57.99904424615326
0.42329407,-0.50045776,9.761185,-5.493164E-4,1.0681152E-4,-1.5258789E-4,0.0,0.41468373,-0.5124997,9.784466,0.011114597,0.010058284,0.007795334,-0.027914401,0.018664733,-0.9541445,2017-02-02 16:12:01,44.966991489153976
0.43286133,-0.51242065,9.744431,6.713867E-4,-0.0011138916,-1.5258789E-4,0.0,0.41970325,-0.5047695,9.784654,0.014344156,-0.009077668,-0.012571335,-0.0280816,0.018149199,-0.95415753,2017-02-02 16:12:02,41.9264436445502
0.40653992,-0.50523376,9.751617,6.1035156E-5,-5.0354004E-4,-7.6293945E-4,0.0,0.41155472,-0.504312,9.785023,-0.0028731823,-0.0015032887,-0.0030441284,-0.027683433,0.018358313,-0.9539915,2017-02-02 16:12:03,51.57211322029009
0.42089844,-0.5076294,9.744431,6.713867E-4,7.324219E-4,-1.5258789E-4,0.0,0.4119502,-0.50512576,9.784964,-0.025632054,-0.011294842,0.009694099,-0.027740791,0.018333144,-0.9540161,2017-02-02 16:12:04,58.24830864732252
0.4185028,-0.50523376,9.749222,6.1035156E-5,1.0681152E-4,-1.5258789E-4,0.0,0.4132959,-0.5068681,9.784818,-5.776584E-4,-6.67572E-5,-0.017115593,-0.027829457,0.018402828,-0.9540685,2017-02-02 16:12:05,52.497928687371825
0.39697266,-0.52438354,9.765976,-5.493164E-4,1.0681152E-4,-1.5258789E-4,0.0,0.4146449,-0.5087682,9.784662,-0.014100492,-0.01562512,0.0046043396,-0.027815206,0.018574737,-0.95408434,2017-02-02 16:12:06,56.194743129922
0.41371155,-0.5219879,9.780334,-5.493164E-4,-5.0354004E-4,-1.5258789E-4,0.0,0.41269898,-0.5132979,9.784507,-0.009823322,0.0066624284,0.03450966,-0.027893152,0.01873287,-0.9541431,2017-02-02 16:12:07,50.39397095341602
0.41371155,-0.49087524,9.754013,6.713867E-4,-5.0354004E-4,-1.5258789E-4,0.0,0.41669607,-0.5011766,9.784966,-0.0011526644,0.009593964,-0.0014152527,-0.027893228,0.018121094,-0.9540621,2017-02-02 16:12:08,56.87464570277953
0.40174866,-0.51719666,9.775543,6.1035156E-5,7.324219E-4,4.5776367E-4,0.0,0.4126781,-0.5114525,9.784606,-0.010081261,-0.008067369,0.012401581,-0.027851447,0.018579694,-0.95410264,2017-02-02 16:12:09,50.80232328573619
0.40893555,-0.50523376,9.74205,-5.493164E-4,-5.0354004E-4,4.5776367E-4,0.0,0.41894397,-0.50517094,9.784666,0.003436476,0.012508631,0.0015649796,-0.028072635,0.01824394,-0.95416576,2017-02-02 16:12:10,56.39515536721075
0.41610718,-0.48609924,9.780334,-5.493164E-4,-5.0354004E-4,-1.5258789E-4,0.0,0.41186777,-0.50573385,9.784937,-0.006452203,0.008506358,0.020809174,-0.027745595,0.018364692,-0.9540226,2017-02-02 16:12:11,60.77933890849134
0.40653992,-0.51242065,9.765976,-5.493164E-4,-5.0354004E-4,-1.5258789E-4,0.0,0.41268533,-0.51118046,9.784619,-0.0049877465,-0.0034555793,0.014883041,-0.0278678,0.018600263,-0.9541133,2017-02-02 16:12:12,59.71377936975733
0.4185028,-0.48849487,9.746826,6.1035156E-5,1.0681152E-4,4.5776367E-4,0.0,0.41551918,-0.5089189,9.784617,-4.7421455E-4,0.00682801,-0.020750046,-0.02796406,0.018476533,-0.95414376,2017-02-02 16:12:13,58.13114476106189
0.41371155,-0.5076294,9.754013,6.1035156E-5,1.0681152E-4,4.5776367E-4,0.0,0.41611773,-0.5088181,9.784596,-0.007910192,-0.01281333,-0.015312195,-0.02799096,0.018463664,-0.9541551,2017-02-02 16:12:14,50.94894854687021
0.4041443,-0.51242065,9.732468,6.1035156E-5,-5.0354004E-4,-7.6293945E-4,0.0,0.4175625,-0.50604355,9.784679,0.014080316,0.011346102,0.004088402,-0.028019693,0.018305719,-0.9541482,2017-02-02 16:12:15,47.31559568678237
0.4185028,-0.49806213,9.754013,6.713867E-4,-5.0354004E-4,0.0010681152,0.0,0.41761643,-0.5019942,9.784885,0.0021806061,0.002376318,-0.0053396225,-0.02796428,0.018102046,-0.9540942,2017-02-02 16:12:16,56.952213515103466
0.3921814,-0.510025,9.770752,6.1035156E-5,1.0681152E-4,4.5776367E-4,0.0,0.4081539,-0.5109936,9.78482,0.006646633,0.004396498,-0.009490967,-0.027645094,0.018676909,-0.9540151,2017-02-02 16:12:17,61.608465748041
0.4041443,-0.50523376,9.734863,6.1035156E-5,-5.0354004E-4,4.5776367E-4,0.0,0.41759235,-0.50531244,9.784716,-0.005030185,0.005760789,-0.0018596649,-0.028010646,0.018268682,-0.9541389,2017-02-02 16:12:18,60.95180869784639
0.43525696,-0.4837036,9.744431,6.1035156E-5,1.0681152E-4,4.5776367E-4,0.0,0.41392022,-0.5104058,9.784608,-0.003506869,0.0057453513,-4.5204163E-4,-0.02790962,0.018571952,-0.9541299,2017-02-02 16:12:19,53.006296155844204
0.3993683,-0.5267792,9.780334,-5.493164E-4,-5.0354004E-4,-7.6293945E-4,0.0,0.41447806,-0.5088181,9.784666,-0.014020532,-1.4853477E-4,0.014195442,-0.027913328,0.018485088,-0.9541202,2017-02-02 16:12:20,57.85199069770954
0.39457703,-0.52438354,9.768372,6.713867E-4,-5.0354004E-4,-1.5258789E-4,0.0,0.4099012,-0.51441246,9.784567,-0.016031802,-0.011409938,0.012811661,-0.027868934,0.018804243,-0.9541408,2017-02-02 16:12:21,41.91518431074832
0.42807007,-0.48849487,9.746826,6.1035156E-5,-5.0354004E-4,-1.5258789E-4,0.0,0.41794273,-0.50930494,9.784494,0.002044022,0.0046584606,-0.022061348,-0.028084327,0.018464245,-0.95420057,2017-02-02 16:12:22,55.64379958419045
0.39697266,-0.51719666,9.732468,6.1035156E-5,1.0681152E-4,-7.6293945E-4,0.0,0.4120078,-0.51062024,9.784677,-0.0039641857,0.005918503,-0.014101982,-0.027822161,0.018607715,-0.9540921,2017-02-02 16:12:23,57.56787161643601
0.42089844,-0.48609924,9.734863,6.1035156E-5,-5.0354004E-4,-1.5258789E-4,0.0,0.41806227,-0.5089581,9.784507,0.015897661,-0.004799962,0.03827858,-0.028085032,0.0184453,-0.9541984,2017-02-02 16:12:24,58.53081984452666
0.4376526,-0.51242065,9.749222,-5.493164E-4,1.0681152E-4,-1.5258789E-4,0.0,0.41446045,-0.5109993,9.784554,-0.016534507,-0.014559567,0.003927231,-0.027943678,0.018594641,-0.9541494,2017-02-02 16:12:25,56.686509980098165
0.4185028,-0.50045776,9.792297,6.1035156E-5,-0.0011138916,-1.5258789E-4,0.0,0.4190314,-0.5130186,9.784253,-0.008645028,0.008404195,0.034733772,-0.028188905,0.018636242,-0.954274,2017-02-02 16:12:26,39.36320805522933
0.44003296,-0.52915955,9.794693,6.1035156E-5,-5.0354004E-4,4.5776367E-4,0.0,0.42081144,-0.5039723,9.784647,0.00848794,0.0068335533,3.30925E-4,-0.028143944,0.01815949,-0.95418924,2017-02-02 16:12:27,48.30907276306367
0.42329407,-0.51719666,9.744431,6.1035156E-5,1.0681152E-4,-1.5258789E-4,0.0,0.41476005,-0.51146466,9.784516,0.010920644,-0.006326914,-0.011582375,-0.027921407,0.018674491,-0.9541491,2017-02-02 16:12:28,55.55805277041208
0.4185028,-0.50283813,9.754013,6.1035156E-5,-0.0011138916,4.5776367E-4,0.0,0.41377172,-0.509528,9.784658,-0.0011959672,0.009933293,-0.003610611,-0.027890041,0.018529903,-0.9541148,2017-02-02 16:12:29,52.75880007219673
0.38739014,-0.5148163,9.768372,-5.493164E-4,-5.0354004E-4,-7.6293945E-4,0.0,0.41898575,-0.50590754,9.784626,0.008033901,0.0038439035,-0.00434494,-0.02808515,0.018280322,-0.95417666,2017-02-02 16:12:30,54.90578522538747
0.3921814,-0.5148163,9.768372,-5.493164E-4,1.0681152E-4,-1.5258789E-4,0.0,0.41652766,-0.5080927,9.784616,-0.020180821,-0.007963598,0.017285347,-0.027877353,0.018483248,-0.95410246,2017-02-02 16:12:31,62.02598487600202
0.4041443,-0.50283813,9.761185,6.1035156E-5,7.324219E-4,-1.5258789E-4,0.0,0.41910896,-0.50704277,9.784561,0.0029997528,-0.004446447,0.002483368,-0.02810722,0.018335627,-0.9541947,2017-02-02 16:12:32,53.4380139845345
0.42807007,-0.51242065,9.739655,-5.493164E-4,-5.0354004E-4,-1.5258789E-4,0.0,0.42039913,-0.50542724,9.78459,0.013685644,0.013081074,-0.014063835,-0.028145224,0.018237809,-0.9542002,2017-02-02 16:12:33,55.92037055729894
0.42329407,-0.510025,9.746826,6.1035156E-5,1.0681152E-4,4.5776367E-4,0.0,0.41952428,-0.5069258,9.784549,0.0050001442,-0.0036520362,-0.008687019,-0.028139414,0.018371899,-0.9542151,2017-02-02 16:12:34,53.86322199261299
0.4041443,-0.50283813,9.756393,6.1035156E-5,1.0681152E-4,4.5776367E-4,0.0,0.4174264,-0.50730485,9.784619,-0.0025736988,0.017423093,0.027240753,-0.02803129,0.018370721,-0.9541624,2017-02-02 16:12:35,44.23617528303045
0.42807007,-0.50045776,9.761185,6.1035156E-5,1.0681152E-4,4.5776367E-4,0.0,0.4252778,-0.50966007,9.78416,0.005910158,0.0035607815,-0.013530731,-0.028436761,0.018386582,-0.95436144,2017-02-02 16:12:36,59.537944234864
0.41610718,-0.49806213,9.775543,6.1035156E-5,1.0681152E-4,-1.5258789E-4,0.0,0.41260555,-0.50947285,9.784712,0.01393199,-0.0015990734,0.01572895,-0.027834045,0.018542392,-0.9540892,2017-02-02 16:12:37,57.8447840338428
0.38739014,-0.51242065,9.761185,6.1035156E-5,-5.0354004E-4,-1.5258789E-4,0.0,0.41553235,-0.50780433,9.784675,-0.028272748,-0.008957148,0.007686615,-0.027978979,0.01826468,-0.95412296,2017-02-02 16:12:38,56.18412509145146
0.40174866,-0.5267792,9.768372,6.1035156E-5,1.0681152E-4,-1.5258789E-4,0.0,0.41711512,-0.50413734,9.784797,-0.014233261,-0.024011433,0.010158539,-0.027941376,0.018184884,-0.95409405,2017-02-02 16:12:39,49.156632162135416
0.39457703,-0.5195923,9.780334,-5.493164E-4,1.0681152E-4,-1.5258789E-4,0.0,0.4154759,-0.5077565,9.784679,-0.011538893,-0.017976344,0.01609993,-0.027945386,0.018418835,-0.954127,2017-02-02 16:12:40,43.9734510654684
0.41610718,-0.50283813,9.739655,6.1035156E-5,-5.0354004E-4,4.5776367E-4,0.0,0.4162155,-0.5054395,9.784769,0.0018470287,0.0029791594,-0.009498596,-0.027957903,0.01841017,-0.95413196,2017-02-02 16:12:41,57.47512036332366
0.41133118,-0.50283813,9.770752,6.1035156E-5,-5.0354004E-4,-1.5258789E-4,0.0,0.4169715,-0.50618565,9.784698,0.019358486,-0.019500494,0.030384064,-0.027993735,0.01832056,-0.9541375,2017-02-02 16:12:42,58.334829185596845
0.39457703,-0.5219879,9.761185,6.1035156E-5,-5.0354004E-4,-1.5258789E-4,0.0,0.41586867,-0.507414,9.784681,-0.020732284,-0.015544653,0.0034313202,-0.027992843,0.018410172,-0.95414895,2017-02-02 16:12:43,53.33651224089975
0.42329407,-0.50045776,9.744431,-5.493164E-4,-5.0354004E-4,-7.6293945E-4,0.0,0.42106688,-0.50980324,9.784333,0.005508095,0.0066414475,-0.009899139,-0.02812893,0.018417448,-0.95421606,2017-02-02 16:12:44,62.50669055495493
0.4185028,-0.510025,9.751617,6.1035156E-5,-5.0354004E-4,-7.6293945E-4,0.0,0.41931954,-0.50502795,9.7846575,0.007998437,-0.009353757,0.0025596619,-0.028088376,0.018231872,-0.9541718,2017-02-02 16:12:46,58.878294759965925
0.43286133,-0.5076294,9.749222,-5.493164E-4,-5.0354004E-4,-7.6293945E-4,0.0,0.4166164,-0.51013076,9.784508,0.015638739,-5.746484E-4,-8.993149E-4,-0.028113244,0.018431244,-0.9542103,2017-02-02 16:12:47,44.75769492608322
0.40174866,-0.50045776,9.739655,6.1035156E-5,1.0681152E-4,0.0010681152,0.0,0.41598862,-0.5100181,9.78454,0.022610188,0.017982781,-0.010666847,-0.028002,0.018525498,-0.9541686,2017-02-02 16:12:48,45.3750045625199
0.40893555,-0.5076294,9.76358,6.1035156E-5,1.0681152E-4,-7.6293945E-4,0.0,0.4136448,-0.51004696,9.784638,-0.003405273,-3.939271E-4,0.0033655167,-0.027856762,0.01848403,-0.95409256,2017-02-02 16:12:49,39.4210676624497
0.41133118,-0.4956665,9.780334,-5.493164E-4,1.0681152E-4,4.5776367E-4,0.0,0.4202599,-0.50652057,9.78454,0.011669278,0.0042989254,-0.0036401749,-0.02815426,0.018294437,-0.9542121,2017-02-02 16:12:50,54.668074398113575
0.40893555,-0.5076294,9.734863,6.1035156E-5,1.0681152E-4,4.5776367E-4,0.0,0.42126206,-0.50912094,9.784361,0.010621041,-0.021751642,0.0073490143,-0.028238881,0.018411763,-0.9542687,2017-02-02 16:12:51,56.92833208337759
0.40893555,-0.50283813,9.744431,6.1035156E-5,1.0681152E-4,-1.5258789E-4,0.0,0.41340223,-0.5053712,9.784891,0.001377523,0.015570462,-0.015176773,-0.027813058,0.01832642,-0.95405036,2017-02-02 16:12:52,58.37079490279428
0.3993683,-0.510025,9.768372,-5.493164E-4,1.0681152E-4,4.5776367E-4,0.0,0.4154115,-0.50926375,9.784603,-0.0072160363,0.004396081,-0.010746002,-0.027963895,0.018495226,-0.95414615,2017-02-02 16:12:53,60.31642339544925
0.4185028,-0.49806213,9.739655,6.1035156E-5,-5.0354004E-4,-7.6293945E-4,0.0,0.41801614,-0.5056246,9.784682,0.006391436,0.020574152,0.028887749,-0.02803518,0.018278794,-0.95415217,2017-02-02 16:12:54,49.505888286013985
0.4376526,-0.5219879,9.754013,1.5258789E-4,2.89917E-4,3.6621094E-4,0.0,0.41421977,-0.50924623,9.784656,0.015169382,-4.887581E-6,-0.0042734146,-0.02790722,0.01850992,-0.9541205,2017-02-02 16:12:55,55.566358389661026
0.4185028,-0.49327087,9.751617,1.5258789E-4,2.89917E-4,-2.4414063E-4,0.0,0.41312948,-0.512471,9.784533,-0.010272175,-0.013287783,5.1403046E-4,-0.027901711,0.018685797,-0.9541411,2017-02-02 16:12:56,40.44732330528837
0.4304657,-0.47891235,9.801865,-4.5776367E-4,2.89917E-4,-2.4414063E-4,0.0,0.4129486,-0.5098938,9.784677,-0.017175525,-0.0063993335,0.01681137,-0.027856302,0.018558996,-0.9541022,2017-02-02 16:12:57,48.059830866596386
0.40893555,-0.5076294,9.746826,1.5258789E-4,-9.3078613E-4,-2.4414063E-4,0.0,0.41874462,-0.5045954,9.784704,0.003567487,0.0024340749,-0.004843712,-0.028054958,0.018217692,-0.95415366,2017-02-02 16:12:58,39.75606410341007
0.4185028,-0.510025,9.746826,-4.5776367E-4,-3.2043457E-4,-2.4414063E-4,0.0,0.41124982,-0.50986063,9.784749,0.0038069785,0.0053547025,-0.008311272,-0.027775414,0.01857957,-0.9540656,2017-02-02 16:12:59,55.251830340967416
0.42329407,-0.4956665,9.734863,1.5258789E-4,-3.2043457E-4,3.6621094E-4,0.0,0.41113928,-0.5125132,9.784615,-0.0058345497,0.0010416508,-0.0053806305,-0.027808117,0.018713942,-0.9540993,2017-02-02 16:13:00,54.92144292236733
0.4185028,-0.4956665,9.751617,-4.5776367E-4,-3.2043457E-4,-2.4414063E-4,0.0,0.41108888,-0.5075228,9.784877,0.013328642,0.008073688,6.532669E-4,-0.02773434,0.018464537,-0.9540304,2017-02-02 16:13:01,43.53520915653797
0.4256897,-0.50523376,9.74205,1.5258789E-4,-3.2043457E-4,3.6621094E-4,0.0,0.41882864,-0.5087357,9.784486,0.008373678,-0.0031266809,0.0048646927,-0.028118143,0.018424155,-0.9542117,2017-02-02 16:13:02,56.060039985785096
0.4185028,-0.49806213,9.746826,1.5258789E-4,-3.2043457E-4,-2.4414063E-4,0.0,0.41571975,-0.50972736,9.784567,0.004223913,-0.018818498,-0.013395309,-0.027985113,0.018514436,-0.95415896,2017-02-02 16:13:03,52.562440299270285
0.3993683,-0.52438354,9.756393,7.6293945E-4,-9.3078613E-4,-2.4414063E-4,0.0,0.41974375,-0.5089749,9.784433,0.0074311197,0.009111881,0.008975029,-0.028164895,0.018424219,-0.9542344,2017-02-02 16:13:04,56.056354873338606
0.41133118,-0.49087524,9.756393,7.6293945E-4,-3.2043457E-4,9.765625E-4,0.0,0.4113026,-0.50709116,9.78489,0.0013500452,0.0026237965,-0.0042304993,-0.027738277,0.018440109,-0.954029,2017-02-02 16:13:05,55.1841328375822
0.42807007,-0.50283813,9.744431,1.5258789E-4,-3.2043457E-4,3.6621094E-4,0.0,0.41604412,-0.5069593,9.784698,-0.01777637,-0.014211059,0.0069465637,-0.027960887,0.018371454,-0.95412827,2017-02-02 16:13:06,56.67801691689534
0.4185028,-0.49327087,9.756393,-4.5776367E-4,2.89917E-4,9.765625E-4,0.0,0.4173804,-0.51256996,9.784347,-0.0048077703,-0.010942519,-0.015590668,-0.028104343,0.018635264,-0.9542328,2017-02-02 16:13:07,50.551460031736454
0.42329407,-0.4956665,9.754013,7.6293945E-4,9.1552734E-4,-2.4414063E-4,0.0,0.41414496,-0.5047379,9.784892,0.0100310445,0.0077139735,-0.002202034,-0.027856614,0.01828669,-0.9540663,2017-02-02 16:13:08,43.596465041655755
0.41133118,-0.50523376,9.758789,1.5258789E-4,2.89917E-4,-8.544922E-4,0.0,0.41652676,-0.50829506,9.784607,-0.0028364658,0.0021787882,0.0011072159,-0.02795273,0.018473988,-0.95413786,2017-02-02 16:13:09,52.760085349525525
0.38500977,-0.5148163,9.768372,1.5258789E-4,-3.2043457E-4,-2.4414063E-4,0.0,0.42056018,-0.5067934,9.7845125,-7.3474646E-4,-0.007221043,2.7179718E-4,-0.028172383,0.018304203,-0.9542222,2017-02-02 16:13:10,59.407818294718375
0.41610718,-0.50523376,9.74205,1.5258789E-4,2.89917E-4,-2.4414063E-4,0.0,0.41838205,-0.50830853,9.784527,0.008659303,-0.005754292,-0.008485794,-0.02809089,0.018408565,-0.9541964,2017-02-02 16:13:11,59.06044392265707
0.41133118,-0.50523376,9.746826,7.6293945E-4,2.89917E-4,3.6621094E-4,0.0,0.41644984,-0.51113784,9.784462,-0.0044921637,0.0016448498,-1.8119812E-5,-0.028053463,0.018447556,-0.95418334,2017-02-02 16:13:12,61.09420314949787
0.40653992,-0.50523376,9.734863,-4.5776367E-4,-3.2043457E-4,-2.4414063E-4,0.0,0.41178694,-0.50587106,9.784933,-0.0038422346,-0.0034840703,-0.011898041,-0.027743734,0.018372625,-0.95402277,2017-02-02 16:13:13,48.00824350200767
0.38739014,-0.510025,9.770752,-4.5776367E-4,-3.2043457E-4,9.765625E-4,0.0,0.41309625,-0.5112982,9.7845955,0.011439711,0.009303331,-0.008355141,-0.027883375,0.018627452,-0.95412445,2017-02-02 16:13:14,51.58001429006645
0.43286133,-0.50283813,9.749222,1.5258789E-4,-3.2043457E-4,3.6621094E-4,0.0,0.4167774,-0.5069616,9.784666,5.662441E-4,0.0026193857,7.5626373E-4,-0.027995642,0.018361988,-0.95414394,2017-02-02 16:13:15,56.747228681268645
0.42329407,-0.50283813,9.754013,1.5258789E-4,-3.2043457E-4,-2.4414063E-4,0.0,0.4145908,-0.5076323,9.784723,0.021891057,0.008070409,-0.0018014908,-0.027901703,0.018424185,-0.9541065,2017-02-02 16:13:16,56.87315179371979
0.41371155,-0.48849487,9.751617,1.5258789E-4,-3.2043457E-4,3.6621094E-4,0.0,0.41088545,-0.5102512,9.784743,-0.005382329,-0.011028528,-0.007953644,-0.027763758,0.018603915,-0.9540632,2017-02-02 16:13:17,54.134550589465526
