ACC_X,ACC_Y,ACC_Z,GYRO_X,GYRO_Y,GYRO_Z,LIGH_1,GRAV_X,GRAV_Y,GRAV_Z,LINACC_X,LINACC_Y,LINACC_Z,ROTVEC_X,ROTVEC_Y,ROTVEC_Z,TIME,VOICE
2.03918,0.63986003,9.733048,-0.13246205,0.14111516,0.27991766,6.0,1.8792975,0.33564746,9.619043,-0.09290654,-0.054248564,-0.17619711,0.034089003,-0.09166948,0.17746967,2017-01-04 22:55:07,18.862813708659207
-10.695828,4.1262,17.99382,-0.43551803,1.5757431,-3.2516625,55.0,-3.8432484,1.3797125,8.916065,4.9927998,-2.1616435,-1.2511312,-0.04081148,0.20914495,0.5001304,2017-01-04 22:55:08,28.732291830530382
0.100464,-0.190164,10.0165,0.008502718,0.016288802,0.024663262,4.0,0.15011144,-0.13058944,9.804632,0.050843433,0.06435856,-0.2023001,-0.0027882857,-0.009754213,0.42368466,2017-01-04 22:55:09,43.00994622973696
0.094484,-0.194948,10.017696,0.014387768,-0.0054412633,0.004509881,4.0,0.121627025,-0.18053263,9.8042345,0.03073102,0.014415369,-0.20987375,-0.0060582384,-0.00930017,0.38991472,2017-01-04 22:55:10,39.41424174436841
0.106444,-0.19136,10.018892,0.013064435,-1.655817E-4,0.0041150823,4.0,0.18077864,-0.18467794,9.803245,0.09227463,0.013858064,-0.20368718,-0.007438947,-0.010876955,0.19494283,2017-01-04 22:55:11,23.608455172848764
0.096876,-0.18657601,10.009324,0.009459494,-0.004812248,0.0013642162,9.0,0.17107102,-0.18795179,9.803356,0.056255016,0.012976203,-0.19998774,-0.008861177,-0.009455998,0.0793559,2017-01-04 22:55:12,26.161625709601807
0.098072,-0.184184,10.009324,0.008391192,-0.004488483,0.001083605,4.0,0.15906833,-0.18130253,9.803683,0.046644337,0.019625468,-0.20444414,-0.009175313,-0.008189089,0.008495155,2017-01-04 22:55:13,24.27222303828008
0.046644002,-0.43056002,10.078692,-0.084786534,-0.26030236,-0.021109723,0.0,0.27033222,-0.34206122,9.796955,-0.028667767,0.102850795,-0.0820055,-0.017883494,-0.013212191,-0.032497104,2017-01-04 22:55:14,28.35142280425004
3.082092,1.326364,9.28096,-0.16788253,0.78084165,0.15730228,3.0,3.190545,0.98301023,9.220874,0.32253686,-0.3828218,-0.020618426,0.04124924,-0.16782376,-0.05695838,2017-01-04 22:55:15,29.14469185399166
0.22843601,-0.0897,10.018892,0.0077904277,0.005935006,7.666573E-4,4.0,0.35993418,-0.22224763,9.7975235,0.14345819,-0.13254763,-0.23093759,-0.012721825,-0.01742277,-0.077437766,2017-01-04 22:55:16,29.773989238283622
0.14352,-0.116012,9.985404,0.007206563,3.9396435E-4,0.0029286295,4.0,0.17616928,-0.152104,9.803888,-0.024758723,-0.0038000043,-0.20902328,-0.008629403,-0.008147038,-0.10173883,2017-01-04 22:55:18,29.429139880313393
0.04784,-0.12677601,9.99856,0.011988319,-0.013499543,0.012301922,4.0,0.09042918,-0.17627463,9.804648,0.009101179,-0.08059464,-0.19869536,-0.009495639,-0.00344618,-0.12551616,2017-01-04 22:55:19,30.24586273287397
0.044252,-0.160264,9.96866,0.026266553,-0.054372836,-0.004783809,4.0,0.042967282,-0.17905138,9.804922,-0.010852722,-0.027159382,-0.15656185,-0.009352816,-8.1972306E-4,-0.14754991,2017-01-04 22:55:20,23.084706186338572
2.091804,2.711332,8.311005,1.7440401,-0.2690155,4.4458985,4.0,0.9791144,0.3456031,9.751529,-0.3783456,-3.0079806,1.0554122,0.014364462,-0.05103093,-0.06480038,2017-01-04 22:55:21,29.755094439157055
0.690092,-0.184184,9.987796,0.0013588332,0.0072105527,2.0884722E-4,4.0,0.66108227,-0.39552,9.776345,-0.01465769,-0.21014,-0.187531,-0.017164256,-0.035362713,0.08710309,2017-01-04 22:55:22,45.78247672086427
0.703248,-0.172224,9.882548,0.0056107417,-0.0072612166,0.0024931654,4.0,0.66813546,-0.2262189,9.781249,-0.035112523,-0.053994883,-0.1012994,-0.008976394,-0.03485093,0.07426421,2017-01-04 22:55:23,28.906414811675116
0.69607204,-0.19255601,9.9567,0.005039472,-0.001857996,0.0022689626,6.0,0.70182896,-0.24480234,9.7784395,0.012932912,-0.04865834,-0.19619945,-0.010847096,-0.03634063,0.045497105,2017-01-04 22:55:24,36.54107135580486
0.682916,-0.19853601,9.972248,0.00690243,0.0030942187,0.002151586,4.0,0.7003405,-0.23948984,9.778679,-0.0017114801,-0.034973826,-0.19715631,-0.0118834255,-0.035846017,0.009377808,2017-01-04 22:55:25,23.059556286980243
0.785772,-0.196144,9.963876,0.0038855635,-0.003666401,-3.015995E-4,7.0,0.72523034,-0.2116789,9.777507,-0.0067216367,-0.02869091,-0.2007219,-0.01132245,-0.036847647,-0.014119875,2017-01-04 22:55:26,21.082293008919276
0.71999204,-0.178204,9.96866,0.001024723,-9.416938E-4,0.0019738302,7.0,0.7360546,-0.19987246,9.776946,0.0017106034,-0.021668464,-0.18692952,-0.01105851,-0.03731258,-0.02295628,2017-01-04 22:55:27,36.32091647451167
0.748696,-0.18657601,9.984208,0.005511526,-8.5012615E-4,-5.69731E-4,6.0,0.7370276,-0.19278336,9.777015,-0.01764847,-2.2734249E-4,-0.19523266,-0.010861029,-0.037323408,-0.027316613,2017-01-04 22:55:28,26.83712618392061
0.758264,-0.190164,9.984208,0.0027036555,-7.8618526E-4,-6.2482804E-4,6.0,0.7287385,-0.19726878,9.777548,-0.015173531,-0.014280783,-0.19111353,-0.011241803,-0.03684431,-0.031751953,2017-01-04 22:55:29,20.70524875318799
0.715208,-0.178204,9.967464,-7.322058E-5,-0.005696185,-6.728023E-4,6.0,0.72211534,-0.18920678,9.778198,0.014083325,9.5722766E-4,-0.21318683,-0.010973744,-0.036473025,-0.035966728,2017-01-04 22:55:30,55.18270924286165
2.0379841,-7.922304,10.090652,-2.3905544,3.2790823,-2.9457505,6.0,3.5871017,-4.672741,7.8401904,-2.1070547,4.105899,-3.8016737,-0.26689434,-0.1703789,-0.08199545,2017-01-04 22:55:31,29.16661073246774
3.269864,-4.689516,9.758164,-2.4443226,-0.84883356,-0.3599984,25.0,4.461544,-4.211252,7.6505136,1.8853599,0.097935475,-5.156255,0.21814992,-0.24968572,0.9390757,2017-01-04 22:55:32,40.767120006344655
0.643448,-0.459264,9.959092,0.002190262,0.01594773,-0.0031768903,6.0,1.0881792,-0.8714531,9.70705,0.40406728,-0.45046106,-0.265197,0.049116448,-0.05163101,0.9883685,2017-01-04 22:55:33,27.714726458818014
0.816868,-0.617136,9.955504,-0.0078036822,-0.0010905489,-0.003196545,6.0,0.7106829,-0.4445689,9.770757,0.110290915,-0.1300209,-0.19072774,0.03272973,-0.027547233,0.9892208,2017-01-04 22:55:34,31.10080802171206
0.72358,-0.447304,9.959092,0.0017305911,0.0034798756,-8.699E-4,6.0,0.6637696,-0.47679174,9.772537,-0.17582244,-0.1287557,-0.22243513,0.030032672,-0.028937142,0.98880124,2017-01-04 22:55:35,37.76646357544572
0.775008,-0.50232,9.9913845,-8.769855E-4,0.008180127,0.0018311217,7.0,0.7093551,-0.38520253,9.773373,0.0276351,0.05372947,-0.15462416,0.032870386,-0.024823288,0.988031,2017-01-04 22:55:36,33.304857085132255
0.734344,-0.44491202,9.966269,0.0038240626,0.001238361,-8.305609E-4,6.0,0.7165962,-0.40126,9.772199,-0.011767814,0.037672,-0.19765724,0.03301813,-0.025813522,0.98743606,2017-01-04 22:55:37,44.809570455972896
0.69607204,-0.429364,9.983012,0.0011365488,-0.001263544,0.0039388686,6.0,0.71791774,-0.41417277,9.771564,0.021845702,0.029543234,-0.21384032,0.032953653,-0.026514273,0.9872401,2017-01-04 22:55:38,21.51253704235647
0.703248,-0.43056002,9.99258,0.003271915,0.0012508929,0.0013517886,6.0,0.7223874,-0.41662964,9.771131,0.0035913757,0.034262374,-0.1927455,0.0331406,-0.026697773,0.9871165,2017-01-04 22:55:39,25.777116560251297
0.714012,-0.43295202,9.978229,6.130859E-4,-0.0035685003,0.0012672767,6.0,0.71666867,-0.41493207,9.771624,-0.009303324,0.021607948,-0.22215281,0.032835174,-0.026603919,0.98695403,2017-01-04 22:55:40,28.293741389212713
0.70922804,-0.417404,9.97464,3.9935485E-4,-0.0010120869,0.0011642054,3.0,0.721206,-0.41925502,9.771105,0.01197795,0.0053249947,-0.19875088,0.03299983,-0.026895314,0.9867656,2017-01-04 22:55:41,29.105936632279867
0.712816,-0.43654,9.98062,0.002707839,-0.003471382,0.003554225,0.0,0.7183333,-0.42101315,9.77124,0.010301248,0.0035668623,-0.20938042,0.03281245,-0.026995465,0.9866036,2017-01-04 22:55:42,28.15206001653022
0.70564,-0.449696,9.98062,1.4190376E-4,0.0014795661,0.0034456328,6.0,0.71513546,-0.42062753,9.771492,-0.0048565734,-0.010399521,-0.21032384,0.03262955,-0.026979957,0.9864657,2017-01-04 22:55:43,21.534069264872194
0.69846404,-0.44252002,10.009324,3.8571656E-5,-0.0032528117,-0.001472637,6.0,0.7249562,-0.41848925,9.77086,0.02649214,0.024030754,-0.2384639,0.03310807,-0.026994044,0.98624843,2017-01-04 22:55:44,25.965960219144876
0.718796,-0.422188,9.973444,-8.927658E-5,-7.9886615E-4,8.875206E-4,0.0,0.7142814,-0.4231524,9.771444,-0.021258622,-0.006944376,-0.22352819,0.032506797,-0.027171439,0.98611575,2017-01-04 22:55:45,26.072172438989686
0.69966,-0.44252002,9.977033,0.002265606,-7.3014945E-4,0.0032903254,0.0,0.7180448,-0.41999492,9.771306,0.010012787,0.024917109,-0.20452888,0.032690283,-0.027082134,0.98592126,2017-01-04 22:55:46,29.4414565860667
0.710424,-0.428168,9.990189,-2.5604665E-4,-7.6268613E-4,8.0477446E-4,6.0,0.7072169,-0.42608216,9.771832,0.0063609136,0.012849838,-0.20759179,0.032066766,-0.027331185,0.98577106,2017-01-04 22:55:47,24.535796003502828
0.70683604,-0.437736,9.987796,-3.8621575E-4,-7.047057E-4,7.981062E-4,0.0,0.7124695,-0.42223087,9.771618,-0.0015425533,0.011917159,-0.20421793,0.03233474,-0.02721519,0.9855935,2017-01-04 22:55:48,27.55533941211936
0.710424,-0.426972,9.985404,-4.408732E-4,0.0017482787,8.431226E-4,7.0,0.71269727,-0.42302004,9.771567,0.013037249,0.006343962,-0.21383682,0.03230363,-0.02729953,0.98537517,2017-01-04 22:55:49,22.55263080207595
0.714012,-0.438932,9.981816,0.0019155331,-6.905943E-4,8.196682E-4,6.0,0.7080302,-0.42288217,9.771912,-1.826631E-6,0.01604984,-0.20512043,0.032044444,-0.027282601,0.98523104,2017-01-04 22:55:50,41.41116232226228
0.714012,-0.441324,9.97464,0.0018221736,-7.08133E-4,7.983446E-4,6.0,0.70449173,-0.42732865,9.771975,-0.013108269,0.013995354,-0.20984161,0.0317989,-0.027510721,0.9850525,2017-01-04 22:55:51,21.922755375133434
0.716404,-0.440128,9.978229,-7.0272386E-4,-5.963445E-4,-0.0016302466,0.0,0.70625496,-0.42813417,9.771811,0.0018109219,0.008405863,-0.1908692,0.031840574,-0.027612947,0.9848033,2017-01-04 22:55:53,22.361690793087444
0.690092,-0.43295202,9.99258,0.0016681813,-5.8826804E-4,8.270219E-4,6.0,0.70422894,-0.42466697,9.772109,0.0033729107,0.0035010304,-0.20731531,0.031721953,-0.027474456,0.9845252,2017-01-04 22:55:54,21.773617460131476
0.69966,-0.446108,9.972248,0.0016418099,0.001906693,-0.0015596077,6.0,0.70357865,-0.42357877,9.7722025,-0.01760938,0.008177242,-0.20124096,0.03165237,-0.027467428,0.9842393,2017-01-04 22:55:55,27.452471497306064
0.70922804,-0.43654,9.9866,0.0015965737,0.0019415244,9.3077123E-4,6.0,0.7014647,-0.42387822,9.772343,-0.028095337,0.0042897696,-0.18674949,0.03149637,-0.027517712,0.9839477,2017-01-04 22:55:56,23.042708408715654
0.704444,-0.426972,9.966269,0.0015559159,-5.2235276E-4,9.953752E-4,7.0,0.7055423,-0.42292804,9.77209,-0.0012936931,0.004043942,-0.21211773,0.03166751,-0.027555078,0.983673,2017-01-04 22:55:57,35.54056192440389
0.712816,-0.440128,9.971052,0.0014789626,-4.5419484E-4,-0.0014231652,7.0,0.7054698,-0.41901028,9.772264,0.0022217678,0.025901737,-0.19759236,0.03166831,-0.027392698,0.9834821,2017-01-04 22:55:58,37.476337480458966
0.70564,-0.438932,9.959092,-9.91527E-4,-4.658848E-4,0.0010960549,0.0,0.7017816,-0.4222974,9.772389,0.009297552,0.009458624,-0.195076,0.031432364,-0.027548546,0.98335063,2017-01-04 22:55:59,24.58879712015146
0.716404,-0.426972,9.999756,0.0013874955,-4.7717243E-4,0.001040116,6.0,0.70328,-0.42337483,9.772233,-0.016712066,0.007185199,-0.19523206,0.03148902,-0.027626561,0.98328906,2017-01-04 22:56:00,26.66243681209422
0.71999204,-0.440128,9.981816,0.0013379045,-4.624352E-4,-0.0014312193,6.0,0.7056477,-0.42262548,9.772095,7.67185E-6,0.0031505364,-0.22048575,0.031606197,-0.027620325,0.98323023,2017-01-04 22:56:01,23.38518744659238
0.692484,-0.449696,10.003345,-0.0011242107,-5.1728636E-4,-0.0014357865,6.0,0.701767,-0.42753157,9.7721615,-0.024204906,0.0054204543,-0.20726328,0.03135795,-0.02784144,0.98317546,2017-01-04 22:56:02,22.3135856943134
0.71162003,-0.42458,9.978229,0.0012771077,0.002008915,-0.0014725998,0.0,0.7041426,-0.42257053,9.772206,-0.0026934769,0.0020094768,-0.22157063,0.031512246,-0.027625268,0.98311216,2017-01-04 22:56:03,27.658540203058074
0.702052,-0.43056002,9.99258,0.0012454465,0.002001211,9.6126646E-4,7.0,0.7005864,-0.42515287,9.772349,-2.6961073E-4,0.004211115,-0.19391982,0.031302582,-0.027730936,0.9830676,2017-01-04 22:56:04,21.588217079064478
0.714012,-0.434148,9.971052,0.0012171417,-0.0028567761,-0.0014639273,6.0,0.6977704,-0.4268389,9.772478,0.012462372,0.010897095,-0.1925947,0.031140834,-0.027795317,0.98303944,2017-01-04 22:56:05,22.097165536319668
0.691288,-0.447304,9.973444,0.0011641681,-4.093796E-4,-0.0014671758,6.0,0.7035966,-0.42466947,9.772155,0.009916633,0.015458521,-0.19889702,0.031451233,-0.027742235,0.98301727,2017-01-04 22:56:06,27.329596639703073
0.70085603,-0.452088,9.98062,0.001175221,-3.6902726E-4,-0.0014124811,6.0,0.70531446,-0.42269036,9.772116,-3.255787E-4,0.0030856545,-0.2025234,0.031547695,-0.027667549,0.9829654,2017-01-04 22:56:07,33.158066100310734
0.692484,-0.4485,9.960288,-0.0012507923,-0.002885133,0.0010468811,0.0,0.69667935,-0.4206803,9.772824,-0.014940672,0.014663719,-0.2089923,0.03113075,-0.0274886,0.98297524,2017-01-04 22:56:08,35.55799514688125
0.724776,-0.434148,9.943544,0.0011195913,-3.4363568E-4,-0.0014098883,6.0,0.69934916,-0.42256904,9.772552,-0.021838835,0.007990999,-0.20208792,0.03125532,-0.02759944,0.9830175,2017-01-04 22:56:09,27.748668093399253
0.678132,-0.41979602,9.933976,0.0010968521,-3.0568987E-4,-0.0013725981,7.0,0.69718355,-0.42346695,9.772665,-0.018024463,0.0047010537,-0.19360359,0.031144168,-0.027618062,0.9830583,2017-01-04 22:56:10,24.95868062401869
0.766636,-0.405444,10.008128,0.0011048727,-0.0028664917,0.0010495856,6.0,0.6956568,-0.4379482,9.772137,-0.03868724,-2.1221799E-4,-0.14748715,0.030950138,-0.028316062,0.9831346,2017-01-04 22:56:11,29.932721506903697
0.703248,-0.417404,9.999756,-0.0013923831,0.002258718,-0.003819801,7.0,0.6947579,-0.42958817,9.772571,-0.0072941026,-0.006204152,-0.22598961,0.03099389,-0.02787309,0.9832298,2017-01-04 22:56:12,42.38248601805212
0.69607204,-0.426972,9.966269,9.991415E-4,0.0022901744,0.0010190904,6.0,0.707993,-0.41881973,9.772089,0.0059409346,0.017720293,-0.20015842,0.031783458,-0.027421536,0.9833913,2017-01-04 22:56:13,28.41400413412798
0.644644,-0.330096,9.997364,-0.0014597662,-1.4332682E-4,0.003426887,6.0,0.7081634,-0.4214552,9.771963,-0.03933657,0.090432845,-0.15005262,0.03179883,-0.027520357,0.9835829,2017-01-04 22:56:14,23.834313890983246
0.69607204,-0.43175602,9.967464,0.0010016933,-1.7689168E-4,0.0010149255,6.0,0.7019821,-0.42350483,9.772321,-0.018009923,0.0058591743,-0.18079145,0.031504545,-0.027527772,0.98381346,2017-01-04 22:56:15,25.07349799218403
0.68530804,-0.417404,9.984208,0.003444653,-1.8824637E-4,0.0010076836,6.0,0.70972896,-0.42366612,9.771755,-0.018634997,0.017657895,-0.20049217,0.031930227,-0.027561963,0.9840346,2017-01-04 22:56:16,23.908402741332544
0.715208,-0.435344,9.975836,-0.0014907643,-1.828298E-4,-0.0014795363,6.0,0.7019533,-0.4189664,9.772519,-9.8711134E-5,0.045081582,-0.19853228,0.031619594,-0.027210955,0.9843022,2017-01-04 22:56:17,28.97670574394671
0.728364,-0.393484,9.96866,0.005874511,-0.002802968,9.936616E-4,6.0,0.71173507,-0.41826934,9.77184,0.08383505,0.0469747,-0.2207406,0.032139536,-0.027236689,0.98442024,2017-01-04 22:56:18,21.27057320131061
0.501124,-0.495144,10.134904,-0.001314722,-0.005419478,0.015651762,6.0,0.7333784,-0.42182472,9.770087,0.0109944185,0.045811284,-0.13877252,0.003618475,-0.043024294,0.5689507,2017-01-04 22:56:19,40.85936342887838
0.70564,-0.45567602,9.949524,-0.0061563775,-4.6658516E-4,-0.0039259866,6.0,0.7121771,-0.41919938,9.771769,0.025673078,0.0065766387,-0.19091186,0.0031960316,-0.042050518,0.5706091,2017-01-04 22:56:20,39.99905369477216
0.70683604,-0.452088,9.977033,-0.0012101158,0.0020946935,-0.0013726503,6.0,0.7157607,-0.42891297,9.771087,0.0017486704,0.007627061,-0.21431729,0.0029495477,-0.04248063,0.5716782,2017-01-04 22:56:21,32.703751404584224
0.72358,-0.437736,9.978229,0.001197733,0.0020598397,-0.0013640672,7.0,0.713289,-0.42508033,9.771435,-0.0031149902,0.0138516715,-0.2055974,0.0031046988,-0.04226003,0.5729806,2017-01-04 22:56:22,21.41161830484519
0.718796,-0.429364,9.966269,0.0012369864,-3.2893568E-4,0.0010919571,6.0,0.71657634,-0.42743716,9.7710905,0.012132336,0.016278861,-0.19039398,0.0031819984,-0.04246092,0.5745086,2017-01-04 22:56:23,25.26106961426406
0.716404,-0.43654,9.984208,-0.0011792816,-3.2892823E-4,0.001120232,6.0,0.71401423,-0.42473596,9.771397,0.0047862115,0.004628025,-0.20802784,0.0033031192,-0.042267904,0.5761277,2017-01-04 22:56:25,20.489036088540395
0.7176,-0.441324,9.975836,-0.0012081973,-3.029555E-4,0.0011231154,6.0,0.7128773,-0.42678988,9.771389,-0.0047227177,0.010946122,-0.20205402,0.0032624449,-0.042274974,0.57764053,2017-01-04 22:56:26,24.341695527583322
0.7176,-0.43654,9.975836,-0.0012653768,-2.7950853E-4,-0.0013214573,6.0,0.71172374,-0.42659125,9.771483,-0.0010922522,0.01592877,-0.18760931,0.0033144173,-0.042214945,0.57914215,2017-01-04 22:56:27,23.348855061641167
0.715208,-0.437736,9.963876,0.001155369,-0.002711162,-0.0012951791,6.0,0.71522516,-0.42546925,9.771276,0.005997122,0.01226674,-0.20097148,0.003540314,-0.04232132,0.5805932,2017-01-04 22:56:28,19.052950825193346
0.70683604,-0.44371602,9.951917,0.0059491284,0.004535742,0.0012600049,6.0,0.7170155,-0.4228515,9.771256,0.022139497,-0.0042514834,-0.19740474,0.00377713,-0.042311437,0.5820332,2017-01-04 22:56:29,21.741984115020564
0.995072,-0.60398,9.927997,-0.0062625557,-0.015035786,-0.006017685,6.0,1.0945234,-0.54551506,9.730099,0.087491386,0.05726897,-0.11656886,-0.016547564,-0.060243007,0.19270381,2017-01-04 22:56:30,31.30028612163498
-2.8213642,-3.2937841,8.27034,-2.44289,0.7327481,2.1325266,6.0,1.3561392,-1.6092855,9.578177,-2.136181,1.3675586,-1.2755232,-0.06364986,-0.087164134,0.23614982,2017-01-04 22:56:31,29.258446797848837
2.6144562,3.931252,-3.3332522,-2.01519,-3.0505638,-3.9896932,6.0,3.8527286,8.035852,-4.0929112,-0.61911565,3.0652766,1.3979248,0.7716435,-0.33652145,0.019331265,2017-01-04 22:56:32,51.19016155853649
7.14012,-0.606372,-6.0374084,-1.345534,0.5274521,0.53415066,7.0,7.437733,0.5476279,-6.3679357,-0.5395868,1.342968,2.4669163,0.89137924,-0.17354374,0.40401673,2017-01-04 22:56:33,26.51821072572893
8.245224,0.075348005,-5.404724,0.29439005,0.13396814,0.060014695,6.0,8.32629,0.36113545,-5.1684494,-0.15813422,0.35395947,0.23268647,0.8540962,-0.18449214,0.470436,2017-01-04 22:56:34,19.155842837933022
8.303828,0.078936,-5.4119,0.032882072,0.08508814,0.047794685,0.0,8.378631,0.21132205,-5.091589,0.32357028,0.09770205,0.5284154,0.8557282,-0.16531193,0.4789087,2017-01-04 22:56:35,18.82223161178709
7.9007764,-3.7901242,-1.38736,-0.64166194,-0.9071759,0.15533069,0.0,9.159837,-3.3406162,-1.0526577,-0.81958795,-0.6627721,-0.60176575,0.6770842,-0.3085898,0.6660516,2017-01-04 22:56:36,20.252858593462054
8.865948,-4.1369643,-1.5559961,-0.23840192,-0.12998386,0.06979069,7.0,8.757977,-4.1662736,-1.4527214,-0.26703942,-0.13096915,-0.031873394,0.66966206,-0.35443044,0.65203804,2017-01-04 22:56:37,31.70655563172087
8.73678,-4.44912,-1.9925361,-0.072209924,-0.00778386,-0.069517314,6.0,8.585777,-4.29001,-2.012628,-0.067283146,0.1280141,0.07439195,0.6697525,-0.39248845,0.62898284,2017-01-04 22:56:38,37.04466728309211
8.580104,-4.32354,-1.9446961,-0.0086659305,-0.029779859,-0.010861307,6.0,8.565399,-4.3006334,-2.0757878,-0.18692893,0.054002516,-0.03421572,0.6716897,-0.3932795,0.6265247,2017-01-04 22:56:39,39.930977533314945
8.654256,-4.32952,-2.175524,0.003496714,0.0041094646,0.0065204874,6.0,8.562315,-4.289282,-2.111683,-0.09074469,0.036650106,0.02556918,0.67415696,-0.39137992,0.62517834,2017-01-04 22:56:40,20.555821278949825
8.625552,-4.3785563,-2.2197762,0.025470842,-0.07093938,0.04107271,6.0,8.557312,-4.2624,-2.185124,-0.090963885,0.037219726,0.080100104,0.6771702,-0.39096147,0.6221924,2017-01-04 22:56:41,28.00437823752435
8.62914,-4.246996,-2.359708,0.015694845,0.0048246235,0.0019687116,6.0,8.535858,-4.2164774,-2.3517742,-0.0896943,0.06998685,0.09882979,0.6843491,-0.3893243,0.6154649,2017-01-04 22:56:42,38.80150628951398
8.672196,-4.151316,-2.377648,-0.020942833,0.03665769,-0.024781138,6.0,8.57848,-4.1143074,-2.3775077,-0.029132571,0.05255641,-0.03813158,0.6874039,-0.38560995,0.6141909,2017-01-04 22:56:43,26.385311790124053
8.739172,-4.086732,-2.384824,0.0010430962,-0.0024510995,-0.009944826,6.0,8.60827,-4.0689874,-2.3476446,-0.040006433,0.05123247,-0.07046061,0.68716747,-0.38405403,0.6152585,2017-01-04 22:56:44,19.431842886359934
8.65904,-4.139356,-2.270008,0.010433875,-0.032441758,0.009691149,6.0,8.619355,-4.071616,-2.3019662,-0.071976855,0.007939853,0.0063138595,0.6859438,-0.3832085,0.61713666,2017-01-04 22:56:45,22.301394561618327
8.733192,-4.074772,-2.3023,-0.0017740875,0.030945107,0.002411887,6.0,8.635155,-4.054121,-2.2734582,-0.064549334,0.044570673,-0.016605975,0.68468505,-0.38356292,0.61815435,2017-01-04 22:56:46,18.8754697493976
8.703292,-4.0628123,-2.292732,0.00569031,0.014199831,-0.002495207,6.0,8.633478,-4.055443,-2.2774668,-0.09014614,0.04444529,0.036793314,0.6846784,-0.38384122,0.61798483,2017-01-04 22:56:47,18.891922394983197
8.722428,-4.080752,-2.2353241,0.003192585,0.004216023,-0.004653342,6.0,8.641569,-4.0492225,-2.257762,-0.10597499,0.05784166,0.0074620065,0.6843294,-0.38315424,0.61877495,2017-01-04 22:56:48,19.203231040798677
8.71286,-4.05444,-2.275988,-0.0016479008,0.006540403,-0.0069416016,6.0,8.64488,-4.043412,-2.2554944,-0.10864392,0.026575873,-0.023758477,0.6843317,-0.38299912,0.6188443,2017-01-04 22:56:49,18.7059934319944
8.711664,-4.0819483,-2.286752,-0.0038150884,-0.01696536,1.5579164E-4,6.0,8.630891,-4.0578146,-2.283045,-0.11904548,0.033701196,0.038391106,0.6849853,-0.38366413,0.6177881,2017-01-04 22:56:50,18.78715858001757
8.727212,-4.074772,-2.277184,0.0035627782,0.0044836923,-0.004301183,6.0,8.641541,-4.035814,-2.2817526,-0.1048077,0.034174364,0.019351475,0.6851471,-0.38328904,0.61774987,2017-01-04 22:56:51,18.49210605099102
8.742761,-4.034108,-2.3214362,-0.011125714,0.011692211,-0.0065953955,6.0,8.649462,-4.027495,-2.2663844,-0.08373042,0.030533379,-0.009532237,0.6848037,-0.38288033,0.6183393,2017-01-04 22:56:52,18.31284737844818
8.740368,-4.0628123,-2.28436,0.0058915205,-4.5856088E-4,0.0030911118,6.0,8.64535,-4.0332627,-2.2718077,-0.060333766,0.06303747,-0.05322759,0.68494874,-0.38298205,0.61814916,2017-01-04 22:56:53,18.163384148667554
8.746348,-4.0508523,-2.285556,0.0012026727,-0.0026952922,-0.0066858456,6.0,8.640112,-4.042432,-2.2754357,-0.061983872,0.007224106,0.012512422,0.68485546,-0.3833901,0.61802703,2017-01-04 22:56:54,19.07420808793956
8.729604,-4.053244,-2.31426,0.0059509985,0.00940036,0.0032717362,6.0,8.646047,-4.0324726,-2.2705586,-0.09791034,0.02675123,-0.01131459,0.6851307,-0.38257316,0.6182213,2017-01-04 22:56:55,19.18449128333583
8.730801,-4.037696,-2.298712,0.006025456,-0.012685649,0.005820334,6.0,8.649112,-4.020511,-2.2800827,-0.051788054,0.036321312,-0.023230508,0.6855926,-0.3823804,0.6177956,2017-01-04 22:56:56,19.199152966580975
8.822892,-4.025736,-2.3740602,-0.0060801916,0.00970944,-0.0016959384,6.0,8.639212,-4.036549,-2.2892518,-0.12627193,0.04181085,0.02620441,0.68574035,-0.38272643,0.6174943,2017-01-04 22:56:58,18.228088897562383
8.7200365,-4.041284,-2.253264,0.008478731,-0.0074388683,9.4071776E-4,6.0,8.646376,-4.024864,-2.2827687,-0.058112,0.033163726,-0.029504767,0.68587923,-0.3820451,0.6177344,2017-01-04 22:56:59,37.53320356838179
8.740368,-4.03052,-2.267616,-0.003768105,0.002435334,-0.0012436658,6.0,8.649054,-4.0175314,-2.2855418,-0.07098258,0.035712827,-0.0071615623,0.6862956,-0.381482,0.6176236,2017-01-04 22:57:00,17.866419144166517
8.739172,-4.046068,-2.32024,-0.0035258047,0.002547346,0.0033916011,6.0,8.647119,-4.017966,-2.2920916,-0.09205343,0.028102351,0.028148383,0.6863518,-0.3818185,0.6173451,2017-01-04 22:57:01,17.89598612783057
8.746348,-4.0448723,-2.3465521,-0.0034526475,-8.455664E-5,-0.0038053542,6.0,8.649392,-4.018039,-2.2833664,-0.13044482,0.04238076,0.05481354,0.68605804,-0.38176388,0.6176937,2017-01-04 22:57:02,19.562781987647547
8.749936,-4.04248,-2.275988,0.00138909,-3.3532828E-4,0.0012419373,6.0,8.65904,-4.006138,-2.2676566,-0.08970015,0.02438187,0.021487463,0.6859817,-0.38085088,0.61831164,2017-01-04 22:57:03,18.27376846482522
8.740368,-4.0448723,-2.297516,-0.003328465,-0.007238619,0.0034798458,6.0,8.651744,-4.0160728,-2.277916,-0.07187983,0.029995326,0.004052198,0.68642104,-0.38074613,0.6179653,2017-01-04 22:57:04,19.134930610866455
8.75472,-4.031716,-2.316652,-9.40077E-4,-0.0048523545,0.0035539493,6.0,8.648528,-4.0202465,-2.282756,-0.0798796,0.044957917,0.011171967,0.68685013,-0.38029602,0.6178241,2017-01-04 22:57:05,27.276317891468295
8.747544,-4.046068,-2.319044,0.0013830587,0.0022446439,0.0036363006,7.0,8.655875,-4.0116677,-2.2699606,-0.07731705,0.027224692,-0.010716771,0.68701386,-0.37914076,0.61836004,2017-01-04 22:57:06,18.477316734168745
8.74874,-4.04248,-2.30828,-0.008294601,5.941838E-5,0.005876176,6.0,8.650282,-4.0125284,-2.2896812,-0.10683014,0.026363984,0.017402824,0.6877261,-0.37917563,0.617582,2017-01-04 22:57:07,18.60103948639215
8.771464,-4.0269322,-2.291536,0.0038287155,0.0022539422,-0.0013314635,6.0,8.666818,-3.997482,-2.2531774,-0.08551029,0.015097909,0.010850626,0.6872333,-0.3776115,0.6190487,2017-01-04 22:57:08,17.827286977461075
8.741564,-4.043676,-2.267616,-0.0010586493,-0.0076670498,0.008401625,6.0,8.666593,-3.995469,-2.257608,-0.09410744,0.03146306,0.0064202426,0.6875345,-0.3773623,0.6188794,2017-01-04 22:57:09,27.6514008927583
8.76668,-4.010188,-2.274792,-0.0033692606,-0.0051336735,-0.0036835372,6.0,8.666519,-3.9883595,-2.270426,-0.11451369,0.040964466,0.05340192,0.68809307,-0.37721014,0.61834675,2017-01-04 22:57:10,17.876804331535446
8.776248,-4.017364,-2.29034,0.0014252625,-0.0030403286,0.003840804,6.0,8.67837,-3.9733925,-2.251315,-0.0775456,0.023639526,-0.014795126,0.68802553,-0.3760399,0.6191007,2017-01-04 22:57:11,19.41818977441559
8.767877,-4.003012,-2.3023,-0.010723971,0.011731572,-0.0035173818,6.0,8.677255,-3.9629006,-2.2739944,-0.120521404,0.038915716,0.027109541,0.6891583,-0.37550268,0.61818576,2017-01-04 22:57:12,18.507921686758483
8.753524,-3.992248,-2.252068,-0.003214199,0.016809434,-0.01086358,6.0,8.678333,-3.9565563,-2.2809184,-0.12063889,0.035691783,0.030949557,0.68962556,-0.37511477,0.6179045,2017-01-04 22:57:13,17.731104756585513
8.764288,-4.008992,-2.228148,-8.2384795E-4,-0.0030839145,-9.223446E-4,6.0,8.695386,-3.9487054,-2.2289853,-0.08684184,0.02440642,0.045806497,0.68872434,-0.37323645,0.62003577,2017-01-04 22:57:14,17.73796440859205
8.791796,-3.9767,-2.317848,-6.937422E-4,-0.0029394254,0.0062475353,7.0,8.685576,-3.958072,-2.2505183,-0.05718436,0.023412148,-8.4229605E-4,0.68967855,-0.37294504,0.61924976,2017-01-04 22:57:15,19.12819663894831
8.776248,-3.9814842,-2.283164,0.0043061785,-6.5577775E-4,0.0038783625,7.0,8.690818,-3.9462101,-2.2511141,-0.08543021,0.03527385,0.032049775,0.69020617,-0.3720086,0.61922586,2017-01-04 22:57:16,17.51492613300548
8.773856,-3.973112,-2.18868,-0.0055915006,0.0040732324,-0.0033442974,6.0,8.696317,-3.9463978,-2.2294505,-0.118203185,0.00997019,0.017833324,0.69030005,-0.37034616,0.62018424,2017-01-04 22:57:17,18.872281702026786
8.801364,-3.9719162,-2.240108,0.0069251508,-0.0028735772,0.0037609264,6.0,8.68988,-3.9496841,-2.2486393,-0.07919161,0.019840134,-0.008531244,0.6911267,-0.37012517,0.619453,2017-01-04 22:57:18,17.753145683070123
8.752328,-3.955172,-2.186288,-0.002971068,0.018777251,-0.008263141,6.0,8.701652,-3.9347,-2.229308,-0.084164724,0.061136022,-0.058567632,0.6914675,-0.36815187,0.62026435,2017-01-04 22:57:19,17.946228169331867
8.7941885,-3.986268,-2.2724001,-0.01032947,-4.8672408E-4,0.001383543,6.0,8.698431,-3.939229,-2.2338724,-0.09814941,0.035078913,0.014607641,0.6922155,-0.36706075,0.6201661,2017-01-04 22:57:20,19.076569425022587
8.797776,-3.9790921,-2.2425,0.0020796657,-3.926605E-4,-0.0011987016,6.0,8.694754,-3.943608,-2.2404478,-0.08867022,0.022328151,-0.0015356852,0.6928138,-0.36638787,0.6199614,2017-01-04 22:57:21,18.79612130903083
8.7906,-3.962348,-2.210208,-0.0029398873,-0.005542919,-0.0010452121,6.0,8.716692,-3.9247377,-2.1877146,-0.07630115,0.04478636,0.030865386,0.6924768,-0.36334318,0.62213665,2017-01-04 22:57:22,18.710904069852745
8.818109,-3.980288,-2.226952,-0.0052066967,-0.012574591,0.008447222,6.0,8.709368,-3.929377,-2.208457,-0.082427524,0.019815,-0.02216887,0.6936774,-0.36250737,0.62137777,2017-01-04 22:57:23,18.23675414640094
8.7906,-3.95278,-2.19466,-0.0027824044,-0.0029363632,-0.0061472356,6.0,8.712595,-3.9312646,-2.1923199,-0.105513215,0.06576748,0.03463219,0.69389176,-0.3609592,0.6221053,2017-01-04 22:57:24,20.601959875844237
8.798972,-3.97072,-2.223364,-4.1183457E-4,-5.3557754E-4,0.005964048,6.0,8.716465,-3.9222786,-2.1930268,-0.10283961,0.026913434,0.010005262,0.6948677,-0.35912699,0.6221322,2017-01-04 22:57:25,18.112594224572497
8.781033,-3.95876,-2.20064,0.002244275,0.0022036955,9.0923905E-4,7.0,8.7075815,-3.9296799,-2.214961,-0.07823475,0.029079964,-0.021496963,0.6959024,-0.35868016,0.6213081,2017-01-04 22:57:26,19.62162084660646
8.7941885,-3.933644,-2.1767201,-0.0027886592,-0.010283805,0.0059861764,6.0,8.722436,-3.9116156,-2.1883268,-0.07175299,0.022028584,-0.011606705,0.6962151,-0.35617158,0.62241864,2017-01-04 22:57:27,19.20267053261117
8.777444,-3.9288602,-2.255656,2.3882836E-5,-0.002532579,0.0032095239,6.0,8.709338,-3.9223495,-2.2210386,-0.080066055,0.04837065,0.008305471,0.6975047,-0.3559897,0.62116003,2017-01-04 22:57:29,19.549017443861
8.839636,-3.95278,-2.2293441,0.0022607408,0.0020709336,0.0033682957,6.0,8.721902,-3.9116585,-2.1903794,-0.08903087,0.032749593,0.010260405,0.69762343,-0.3535532,0.62245256,2017-01-04 22:57:30,17.962530788875284
8.815716,-3.961152,-2.2353241,-0.0098156035,0.004722871,-0.0017340481,6.0,8.71278,-3.9235072,-2.2054372,-0.0969564,0.0125289345,0.009555033,0.6985312,-0.3528458,0.6219187,2017-01-04 22:57:31,19.579494374681055
8.809736,-3.931252,-2.2042282,4.2080134E-4,-7.1988255E-4,9.0090185E-4,6.0,8.725616,-3.9129379,-2.1732268,-0.06976795,0.017118309,0.054921094,0.69794166,-0.35168335,0.62321895,2017-01-04 22:57:32,22.559387978662187
8.828872,-3.930056,-2.1982481,-0.006814901,-0.005728714,0.005775884,6.0,8.730561,-3.8985155,-2.1792889,-0.106682844,0.029148353,0.009391075,0.6989635,-0.35008985,0.6229944,2017-01-04 22:57:33,21.456127324460944
8.818109,-3.95278,-2.2353241,0.0054894313,-0.022163175,0.0030148327,6.0,8.715647,-3.928061,-2.1859188,-0.07614859,0.022326984,0.023093145,0.69939446,-0.34971175,0.62283266,2017-01-04 22:57:34,27.950717493720724
8.840832,-3.9719162,-2.203032,-0.004483428,-2.9291958E-4,-0.004163116,6.0,8.7218485,-3.9001775,-2.2109656,-0.07353636,0.0370546,-0.009129502,0.70133764,-0.34763974,0.62182194,2017-01-04 22:57:35,21.25048992694833
8.544224,-2.652728,-2.353728,0.100822195,0.21247014,-0.21213177,6.0,8.999986,-2.6925569,-2.814387,-1.3884704,0.34289107,2.6752534,0.717754,-0.35822198,0.5882487,2017-01-04 22:57:36,18.115344250029228
9.190064,-2.0224361,-3.030664,-0.014045814,0.09271414,-0.22190778,6.0,9.177849,-1.6357516,-3.0433192,-0.101915486,0.15107231,0.032792848,0.73532826,-0.33831707,0.56826085,2017-01-04 22:57:37,59.00059564696724
9.295312,-1.389752,-2.765152,0.005506184,-0.022153862,-0.053271778,6.0,9.296549,-1.4461209,-2.7664626,0.027548518,0.032135114,-0.026426528,0.72957194,-0.3298108,0.57737863,2017-01-04 22:57:38,30.09862366938109
9.272588,-1.4710801,-2.771132,6.3926354E-4,-0.009900384,0.027429909,6.0,9.278305,-1.4427108,-2.828784,-0.039730538,0.06783713,0.07032003,0.73192847,-0.32940644,0.57507277,2017-01-04 22:57:39,47.794510417152196
9.282156,-1.437592,-2.79266,-0.0628602,-0.05143388,0.2153153,6.0,9.26528,-1.5391116,-2.8206637,0.014219664,-0.0787956,-0.03517945,0.729655,-0.33379254,0.57606876,2017-01-04 22:57:40,30.099096279709364
9.291724,-1.292876,-3.245944,0.012903798,-0.026993878,2.4329126E-4,6.0,9.14609,-1.4672507,-3.219722,-0.06071838,-0.04281462,0.022634149,0.73768395,-0.3463849,0.55695915,2017-01-04 22:57:41,23.433816649877333
9.431656,-0.679328,-2.042768,0.0568958,-0.05387788,-0.07552071,6.0,9.5140705,-0.9586276,-2.175753,-0.11133739,-0.2936516,-0.28726915,0.7239926,-0.29456294,0.59841853,2017-01-04 22:57:42,28.61796268559278
9.652916,-0.80132,-2.151604,-0.0433082,-0.019661881,-0.021752708,6.0,9.530127,-0.8980697,-2.1308596,0.030298693,-0.0022656068,-0.03307561,0.72267866,-0.29390338,0.5990499,2017-01-04 22:57:43,52.510035554549425
9.096776,-2.077452,-2.771132,0.1399918,0.12697813,0.45482725,6.0,9.257491,-1.5591952,-2.8351638,-0.1610089,-0.18977512,0.25410423,0.7270697,-0.3404744,0.57441974,2017-01-04 22:57:44,31.363290898554617
9.202024,-1.595464,-2.34416,0.012903798,-0.03921388,0.38639528,6.0,9.229214,-1.765526,-2.806234,-0.18569851,-0.64607,-0.3101818,0.72922814,-0.3336233,0.5802973,2017-01-04 22:57:45,26.50168975547193
9.169732,-2.606084,-2.761564,0.23775181,0.05365812,0.07600729,6.0,9.140135,-2.2873616,-2.7196155,0.07325871,0.43712652,0.04912468,0.7214301,-0.34380287,0.58919156,2017-01-04 22:57:46,36.10845154556225
9.3587,-2.5714002,-0.90896004,0.0788918,0.21496212,-0.011976711,6.0,9.292129,-2.9129071,-1.1583134,-0.05461071,-0.24223903,0.025726708,0.6713433,-0.3291742,0.6563691,2017-01-04 22:57:47,38.16775745302313
9.40654,-2.7687402,-0.897,-0.0604162,0.080542125,0.049123287,7.0,9.362025,-2.7587774,-0.95500183,-0.08159049,-0.013957214,-0.047237772,0.6648843,-0.3265278,0.6621178,2017-01-04 22:57:48,41.59202753171145
9.529728,-2.79266,-0.875472,-0.1679522,-0.12964188,-0.11218071,6.0,9.367793,-2.7774928,-0.83688724,-0.099742234,0.041479137,-0.006863237,0.66481644,-0.3173145,0.66793597,2017-01-04 22:57:49,22.3050879240958
9.45438,-2.43984,-0.75467604,-0.043239683,-0.0073374584,-0.009422846,6.0,9.3878355,-2.652244,-1.0022707,-0.09883681,-0.26144013,-0.3061986,0.670845,-0.31791294,0.6606547,2017-01-04 22:57:50,32.51988776284547
9.495044,-2.525952,-1.009424,0.0010128617,-0.024221867,-0.011644714,6.0,9.4120865,-2.5552592,-1.0264844,-0.07697744,0.06637304,0.01881978,0.6727168,-0.31589285,0.65898347,2017-01-04 22:57:51,25.939433814531938
9.546473,-2.456584,-1.10032,-0.019045226,-0.018511876,0.040023886,6.0,9.413086,-2.5189886,-1.1040473,-0.0723907,0.023707332,-0.028843306,0.6744436,-0.31845972,0.6553927,2017-01-04 22:57:52,19.24445870992908
9.511788,-2.604888,-1.2211161,-0.006758403,-0.008640282,-0.0013375431,6.0,9.411232,-2.5137708,-1.1313978,-0.08859599,0.0624132,0.04068214,0.6770034,-0.31520098,0.65494126,2017-01-04 22:57:53,38.5368229229548
9.493848,-2.492464,-1.175668,-0.0043599643,-0.0036401525,-0.00358589,6.0,9.418246,-2.4761484,-1.1557362,-0.104306765,0.0019634091,-0.013556232,0.6789208,-0.31303787,0.6539973,2017-01-04 22:57:54,23.191325021698063
9.541688,-2.365688,-1.35148,-0.0016509108,0.0038405582,0.0013697371,6.0,9.41747,-2.3935425,-1.3238696,-0.065614924,-0.044598583,-0.050129622,0.68555236,-0.3122765,0.6471948,2017-01-04 22:57:55,29.708034460014467
9.535708,-2.35014,-1.346696,-0.0017403588,-0.005853258,-0.005286902,6.0,9.432406,-2.3338335,-1.3241333,-0.092538,-0.0016334464,0.027346712,0.68699175,-0.30911872,0.646982,2017-01-04 22:57:56,29.238625439660183
9.492652,-2.292732,-1.38736,0.0032169148,-0.017794825,-0.01720076,7.0,9.431204,-2.3165364,-1.3625237,-0.061447866,-0.023804363,0.024836335,0.68875384,-0.30836278,0.6455366,2017-01-04 22:57:57,19.7655683728742
9.472321,-2.280772,-1.3598521,0.003277842,-0.017671652,-0.01705581,6.0,9.438469,-2.2726314,-1.3859463,-0.037439212,0.038040686,0.022941753,0.6906291,-0.3060965,0.6445444,2017-01-04 22:57:58,51.295372938584194
9.542884,-2.271204,-1.456728,0.005460892,-0.017072283,0.0049318895,7.0,9.428906,-2.2746124,-1.4464583,-0.11397768,-0.0034084932,0.010269611,0.6933222,-0.30504617,0.64258975,2017-01-04 22:57:59,21.93532210572456
9.461556,-2.4757202,-1.469884,-0.019237626,0.002731055,-0.054041073,6.0,9.41158,-2.3457813,-1.4456391,0.04211597,0.21844256,-0.025987113,0.6933777,-0.30485162,0.6435041,2017-01-04 22:58:00,19.51140122562785
9.523748,-2.223364,-1.5512121,-0.0045594573,0.0029494315,-0.007504247,6.0,9.424043,-2.2259076,-1.550211,-0.07698095,0.01061258,0.035685062,0.69865745,-0.30152377,0.6388509,2017-01-04 22:58:01,27.82996503880596
9.510592,-2.216188,-1.571544,-0.004253134,-0.009329453,0.002528213,6.0,9.429599,-2.1939034,-1.5620015,-0.08099428,0.02228446,0.009542612,0.69980276,-0.29985997,0.6383099,2017-01-04 22:58:02,41.43894421880581
9.516572,-2.138448,-1.809548,0.005557999,-0.0093922615,0.0074628666,6.0,9.412391,-2.1058438,-1.7727742,-0.012089666,-0.021215808,-0.12947029,0.74650687,-0.1819722,0.63989526,2017-01-04 22:58:03,24.42596117353832
9.52614,-2.0499442,-1.77606,8.7122247E-4,-0.0096782595,-0.01921402,6.0,9.436305,-2.0333967,-1.7296954,-0.09820728,-0.008568799,0.02603256,0.7494312,-0.16291983,0.6417233,2017-01-04 22:58:04,44.397367574709854
9.497437,-1.975792,-1.68636,-0.006309215,0.0069874525,-0.01612211,7.0,9.446843,-1.9936954,-1.7183455,-0.056572367,-0.08966332,-0.011653467,0.74961156,-0.16029273,0.64217275,2017-01-04 22:58:06,28.939670007220577
9.572784,-1.9446961,-1.7342,0.005893361,-0.0057309717,0.009238817,6.0,9.46745,-1.9217771,-1.6865877,-0.016830724,0.058798958,0.015320319,0.74944913,-0.1559426,0.6434269,2017-01-04 22:58:07,32.85873193263223
9.499828,-1.92556,-1.7796481,0.0056224763,-0.00751964,-0.017824411,6.0,9.449925,-1.9425317,-1.75951,-0.09893852,-0.021755613,0.009374124,-0.7522155,0.15453766,-0.6405388,2017-01-04 22:58:08,20.496948909346653
9.5225525,-1.8872881,-1.815528,-0.0015943646,-2.8803945E-5,-5.3011626E-4,6.0,9.451824,-1.9008569,-1.7944862,-0.046808515,0.023507133,-0.047130145,0.7539383,-0.15188944,0.63914526,2017-01-04 22:58:09,19.83193588129172
9.53212,-1.851408,-1.8179201,8.44419E-4,0.012071282,-1.1083484E-4,6.0,9.461046,-1.8524152,-1.7965465,-0.05433014,-0.0010072774,0.0094135795,0.754626,-0.1487886,0.6390626,2017-01-04 22:58:10,46.33069781422003
9.518964,-1.826292,-1.80596,7.941723E-4,-3.9240718E-4,0.009479858,6.0,9.461904,-1.8377542,-1.8070449,-0.072608724,-0.005482231,-0.034572862,0.7553366,-0.14697047,0.6386441,2017-01-04 22:58:11,19.543179012426396
9.50222,-1.7270241,-1.778452,0.0032340623,0.004766248,0.009495541,6.0,9.45899,-1.8222421,-1.837753,0.032117724,-0.05933818,-0.042556994,-0.75674486,0.14503998,-0.6374169,2017-01-04 22:58:12,22.46071369897422
9.49026,-1.7437681,-1.754532,0.0032672659,-0.0053971633,0.007291645,6.0,9.47133,-1.7822157,-1.8132936,-0.07155483,0.027332244,0.016586393,-0.75661725,0.14136003,-0.6383942,2017-01-04 22:58:13,47.322875451215225
9.529728,-1.749748,-1.767688,0.0059338287,-0.0030587986,-0.0023567975,6.0,9.473026,-1.7668773,-1.8194265,-0.047134094,-0.009953239,-0.030210575,-0.7571528,0.1395874,-0.63814837,2017-01-04 22:58:14,18.865072488466442
9.572784,-1.744964,-1.83586,0.0035199113,0.0041364506,0.014764667,7.0,9.481001,-1.7332021,-1.8102627,-0.037962943,0.021329788,-0.007890607,-0.757279,0.13720907,-0.63851494,2017-01-04 22:58:15,30.657499840411788
9.533317,-1.7270241,-1.845428,-0.0016550459,-0.005337812,-1.3510883E-4,6.0,9.478992,-1.7281692,-1.8255185,-0.062695235,-0.016693214,0.0055576344,-0.75816214,0.13515064,-0.6379014,2017-01-04 22:58:16,51.509696173222714
9.517768,-1.712672,-1.821508,0.013017219,-0.017750815,0.002263002,6.0,9.484577,-1.7049314,-1.8183522,-0.03319032,0.007740531,0.0031558338,-0.7582506,0.13329011,-0.63818794,2017-01-04 22:58:17,25.69785255594286
9.498632,-1.72822,-1.832272,0.00792788,-0.010285683,-5.2914023E-4,6.0,9.480959,-1.7096179,-1.8327715,-0.034417234,-0.008905776,-0.0064794254,-0.75908256,0.13129774,-0.63760024,2017-01-04 22:58:18,19.3430607710241
9.52614,-1.699516,-1.857388,0.0028282925,-0.015271626,-0.010309517,6.0,9.483662,-1.6899016,-1.8370711,-0.0795546,-0.011913579,0.03347294,-0.75960386,0.12909938,-0.6374242,2017-01-04 22:58:19,18.75936885875501
9.552452,-1.6791841,-1.884896,0.017626978,0.01892884,0.053567104,6.0,9.477995,-1.6952982,-1.8611765,-0.014657471,-0.012526158,-0.042060442,-0.7605229,0.1284466,-0.6364499,2017-01-04 22:58:20,19.209951502575745
9.566804,-1.7162601,-1.9088161,-0.0043719,-0.0030255243,-0.01445578,6.0,9.478449,-1.708127,-1.8470747,-0.0704156,0.023681028,0.08087737,-0.7603236,0.1268171,-0.6369902,2017-01-04 22:58:21,55.315185376209506
9.535708,-1.701908,-1.8609761,0.0053050555,-0.008127429,0.00732933,6.0,9.476564,-1.7051623,-1.8594474,-0.061536126,-0.0020582478,-0.0020592706,-0.7609231,0.125704,-0.6364838,2017-01-04 22:58:22,50.34668391372391
9.55006,-1.688752,-1.8490161,-0.0020522103,0.0015246421,0.0024141595,6.0,9.48198,-1.681787,-1.8531218,-0.08960838,-0.0014069442,0.023402357,-0.76103544,0.12372571,-0.6367365,2017-01-04 22:58:23,37.94571432191048
9.527336,-1.69234,-1.8705441,0.005222123,-0.015340626,0.009371482,6.0,9.4792595,-1.6835239,-1.8654199,-0.048076928,-0.00792787,-0.0104237795,-0.76161605,0.12268258,-0.6362277,2017-01-04 22:58:24,39.32223335401791
9.551256,-1.6947321,-1.926756,4.030913E-4,0.0018937439,-0.0031085908,6.0,9.476187,-1.6839777,-1.8805548,-0.07506898,0.010754326,0.046201196,-0.76223916,0.121955216,-0.63560885,2017-01-04 22:58:25,21.454034053868373
9.527336,-1.648088,-1.8538,0.002930332,-7.337332E-4,-0.007888511,6.0,9.482062,-1.6558483,-1.875915,-0.048861355,0.011375819,-0.026898967,-0.76239794,0.119976945,-0.6357994,2017-01-04 22:58:26,55.84753896217034
9.507004,-1.6528721,-1.8837,4.8020855E-4,-0.0034233704,0.011709265,6.0,9.484019,-1.6355547,-1.8838114,-0.0038490768,0.014925328,-0.028815322,-0.76287854,0.11859177,-0.6354854,2017-01-04 22:58:27,43.65639049834547
9.572784,-1.621776,-1.8872881,0.010277625,-9.278357E-4,-0.0057396293,7.0,9.487182,-1.6235058,-1.8783016,-0.03178221,0.019798195,-0.02928557,-0.76287496,0.11742476,-0.63570416,2017-01-04 22:58:28,35.178278730607644
9.55006,-1.606228,-1.921972,4.952848E-4,-0.003292054,-0.0033994839,6.0,9.480287,-1.6242756,-1.9121404,-0.085320905,-0.0048915716,0.0134196,-0.764249,0.11582511,-0.63431734,2017-01-04 22:58:29,19.615647597751583
9.517768,-1.628952,-1.8872881,0.0029224083,-0.006024383,-0.005983524,6.0,9.484813,-1.6139874,-1.8983575,-0.03295476,0.014964637,-0.0110693835,-0.763944,0.11479941,-0.63486934,2017-01-04 22:58:30,20.178766733294566
9.5345125,-1.619384,-1.927952,-0.0044716895,0.0061663687,0.015691921,7.0,9.488142,-1.6024746,-1.8914667,-0.047566053,0.0061455173,0.0029972822,-0.76392514,0.11338629,-0.6351388,2017-01-04 22:58:31,18.760497409354237
9.540492,-1.616992,-1.9195801,4.843697E-4,0.0063551217,-0.013889357,6.0,9.484168,-1.6074299,-1.9071251,-0.074264094,0.031090135,0.07105887,-0.7644881,0.11311193,-0.6344968,2017-01-04 22:58:33,20.261612559116365
9.518964,-1.589484,-1.8609761,-0.0019995868,0.001594618,0.008220896,6.0,9.484796,-1.6037666,-1.9070913,-0.044932198,-0.0011265199,-0.06883915,-0.76469725,0.111681536,-0.6344777,2017-01-04 22:58:34,46.03932491142518
9.484281,-1.593072,-1.89566,0.010162033,-6.8964064E-4,-0.0042919293,7.0,9.481017,-1.6027321,-1.9266498,-0.048710547,-0.010856033,-0.034577686,-0.7654685,0.110859856,-0.63367486,2017-01-04 22:58:35,21.70857361240794
9.55006,-1.597856,-1.9554601,0.0027397498,-8.299202E-4,0.0030000955,6.0,9.484825,-1.5882305,-1.9198991,-0.042511694,0.0072334586,-0.0039070905,-0.76545626,0.109381504,-0.6339411,2017-01-04 22:58:36,18.599693081873422
9.55604,-1.564368,-1.9446961,0.007649716,-0.010444395,-0.009291261,6.0,9.484112,-1.580706,-1.9296013,-0.071927756,-0.016338117,0.015094694,-0.76594,0.1082505,-0.633539,2017-01-04 22:58:37,19.035350803238902
9.533317,-1.564368,-1.905228,-0.0021567158,0.001668796,0.0050806776,6.0,9.48431,-1.5851396,-1.9249918,-0.016714403,-0.0040276484,-0.008999738,-0.7658731,0.10763695,-0.6337047,2017-01-04 22:58:38,25.71666759312185
9.5381,-1.550016,-1.917188,0.0052459724,0.0015830472,0.02213297,6.0,9.486166,-1.567501,-1.9302839,-0.049542908,0.012414953,0.004844225,-0.7662257,0.10637341,-0.63349456,2017-01-04 22:58:39,21.105897102992486
9.558433,-1.538056,-1.94948,-0.009435575,0.018865526,-0.0048678964,6.0,9.48852,-1.5530626,-1.9303801,-0.02805179,-0.01620251,-0.031132074,-0.76636165,0.10541259,-0.63349503,2017-01-04 22:58:40,17.3342925165436
9.547668,-1.56078,-1.951872,0.015195418,0.016196162,0.012140803,6.0,9.490482,-1.5367072,-1.9338204,-0.045226213,0.009720892,-0.029788405,-0.76664245,0.10419568,-0.63335836,2017-01-04 22:58:41,20.569197323343293
9.507004,-1.5571921,-1.9291481,-0.013957072,-0.032288447,0.009605959,7.0,9.485274,-1.5380039,-1.9581941,-0.07555004,0.012012071,0.04151786,-0.7675351,0.10358589,-0.6323582,2017-01-04 22:58:42,18.68422854593705
9.529728,-1.517724,-1.9243641,-0.03601063,0.009162173,-0.0025281683,6.0,9.484108,-1.5238771,-1.974819,-0.019307928,-1.7301849E-4,-0.02055486,-0.76829714,0.10201641,-0.6316761,2017-01-04 22:58:43,24.762438632427077
9.5596285,-1.497392,-1.98536,-0.004121665,0.0018521324,-0.004761219,6.0,9.489678,-1.500727,-1.9657604,-0.047226448,0.0014488837,0.013619653,-0.7681677,0.10071882,-0.6320554,2017-01-04 22:58:44,18.623631828938404
9.53212,-1.504568,-2.0033,0.003148567,0.0067912787,0.0073317885,6.0,9.485077,-1.5048751,-1.9847124,-0.061395258,-0.03977496,-0.006528379,-0.76892334,0.09974544,-0.6312587,2017-01-04 22:58:45,18.754625741192832
9.53212,-1.4555321,-1.9722041,-0.011341741,-0.003186576,-0.0075882226,6.0,9.48587,-1.4681847,-2.008254,-0.05462182,-0.012652707,-0.03604995,-0.7699287,0.09799111,-0.63033205,2017-01-04 22:58:46,19.179985781675335
9.566804,-1.4818441,-2.030808,-0.0063802972,-0.015413344,-1.514405E-4,6.0,9.488758,-1.4631246,-1.9982761,-0.03020517,-0.011180735,0.018180093,-0.76975197,0.09677607,-0.6307186,2017-01-04 22:58:47,18.201539764631057
9.528532,-1.404104,-1.9674201,0.044885628,-0.0032556579,0.012119524,6.0,9.492324,-1.4481351,-1.9922596,-0.07567571,0.06600085,0.04452844,-0.76976943,0.0950371,-0.6309504,2017-01-04 22:58:48,45.18445767566994
9.508201,-1.422044,-1.959048,0.008234803,-8.5256994E-4,-0.019471295,6.0,9.492851,-1.432275,-2.0011902,-0.05122867,-0.0018590719,-0.032574236,-0.77025217,0.093508996,-0.6305827,2017-01-04 22:58:49,31.78031066844111
9.57996,-1.408888,-2.046356,0.025381587,0.0014370456,-0.0026372,6.0,9.494349,-1.4427722,-1.9864925,-0.06647592,-0.055412237,0.0012594985,-0.7698097,0.09314475,-0.6311488,2017-01-04 22:58:50,19.591345945623473
9.56202,-1.4124761,-1.9674201,-0.011386676,-0.035511278,0.041315436,6.0,9.513755,-1.4106562,-1.9154416,-0.12600538,-0.07352818,0.023274492,-0.7683718,0.08523537,-0.63387483,2017-01-04 22:58:51,20.930487136685407
9.551256,-2.441036,-0.62909603,-0.001610674,-0.057507277,-0.017340563,6.0,9.455479,-2.4721599,-0.8079364,0.050135028,-0.01198796,-0.2254844,-0.72802246,0.105719574,-0.673145,2017-01-04 22:58:52,40.3462845662532
9.4185,-2.683824,-1.2270961,0.008165322,-0.045287274,-0.0075645596,6.0,9.393483,-2.5212808,-1.2553931,-0.064484455,0.10513503,-0.021121114,-0.74393606,0.10279298,-0.6551521,2017-01-04 22:58:53,24.942646870249273
9.628996,-2.317848,-1.13022,0.21346131,0.3604167,-0.29106855,6.0,9.408707,-2.493152,-1.1961743,-0.18680209,-0.34513593,-0.12455818,-0.74381346,0.08791747,-0.6559692,2017-01-04 22:58:54,44.69539736360741
9.655308,-2.130076,-0.69368,-0.048046675,0.0011487231,0.014431439,6.0,9.544344,-2.1665614,-0.6179874,-0.13966858,-0.04366145,0.07210465,-0.7257108,0.06965944,-0.6789065,2017-01-04 22:58:55,56.73083682521555
9.614644,-2.11094,-0.728364,0.013053324,-0.03306727,-0.0075645596,6.0,9.560861,-2.0447996,-0.7609995,-0.093250535,-0.07737959,-0.094827496,-0.73086905,0.06804863,-0.6744057,2017-01-04 22:58:56,43.81543517147022
9.636172,-2.0284162,-0.881452,0.025412366,-0.005456567,-0.009863123,6.0,9.559588,-2.029785,-0.81525683,-0.0694073,0.018963205,-0.00197678,-0.7328046,0.067557484,-0.6724251,2017-01-04 22:58:57,24.24505190419838
9.611056,-1.984164,-0.86351204,-0.008927669,0.009966269,0.0055628046,6.0,9.574569,-1.9337738,-0.8709605,-0.054427173,0.043214288,-0.060072485,-0.7351633,0.06278268,-0.670588,2017-01-04 22:58:58,23.438930271858244
9.688796,-1.941108,-0.97832805,-0.006185636,0.009822391,0.015205875,6.0,9.570357,-1.9321246,-0.91953003,-0.10289047,-0.0065646195,-0.006982041,-0.7369498,0.06154663,-0.6686247,2017-01-04 22:58:59,23.018287188402915
9.715108,-1.936324,-1.015404,0.0161709,0.005100444,0.015159577,7.0,9.567545,-1.9211242,-0.9704386,-0.12483868,0.016395839,0.038985346,-0.7387617,0.060907364,-0.6667057,2017-01-04 22:59:00,18.717120049868466
9.650524,-2.183896,-1.144572,-0.015601099,0.022208445,0.017603576,6.0,9.572152,-1.8912896,-0.9835277,-0.10707565,0.103638366,-0.0075916974,-0.7393814,0.058831826,-0.66622984,2017-01-04 22:59:01,23.509801365131842
9.43644,-2.8213642,0.01196,0.3534429,0.66253644,1.0636356,6.0,9.441989,-2.606634,-0.47404182,-0.07697452,0.26496232,-0.006405812,-0.7173077,0.09817922,-0.6836823,2017-01-04 22:59:02,26.829581584264307
9.332388,-3.590392,-0.73314804,-0.040041097,-0.060887553,-0.021500424,6.0,9.182835,-3.401999,-0.5218901,-0.23207799,0.12022125,0.14547789,-0.7142544,0.12825653,-0.6772697,2017-01-04 22:59:03,30.661831951669292
9.002293,-4.003012,-0.966368,-0.025377098,-0.109767556,0.05670757,6.0,8.965461,-3.859974,-0.94419575,-0.13251111,-0.012441841,0.018584216,-0.72771984,0.1362513,-0.65578747,2017-01-04 22:59:04,54.14401911815149
8.953257,-3.956368,-1.167296,-0.0351531,-0.0046755522,-0.036164425,6.0,8.856681,-4.0580635,-1.1232692,-0.06069617,-0.0048196753,0.0679468,-0.7336464,0.13796307,-0.6457078,2017-01-04 22:59:05,32.312168893199086
9.007076,-3.9073322,-1.1661,-0.057149097,0.022208445,-0.07038043,6.0,8.904139,-3.9217422,-1.2274594,-0.107720956,0.041802082,0.06422055,-0.7372972,0.13775319,-0.64393306,2017-01-04 22:59:07,19.949449228055535
9.105148,-3.8152401,-1.289288,0.018710706,0.11512704,-0.040959373,6.0,8.991522,-3.701818,-1.2725911,-0.11721476,0.07156185,0.063340835,-0.741051,0.1254094,-0.6433129,2017-01-04 22:59:08,25.738910041533288
9.13146,-3.662152,-1.276132,0.0041341074,3.017187E-4,0.002953522,6.0,9.023799,-3.6318123,-1.2455541,-0.08374153,0.011203824,6.778993E-4,-0.74025404,0.12461774,-0.64534557,2017-01-04 22:59:09,24.984020992767416
9.174517,-3.6334481,-1.27374,-0.027302578,0.038869374,-0.031206109,6.0,9.034438,-3.609198,-1.2341126,-0.08745383,0.09242226,0.022883449,-0.739989,0.12384916,-0.64600426,2017-01-04 22:59:10,26.880337747091474
9.121892,-3.650192,-1.1732761,0.028689582,-0.015902847,-0.004511848,6.0,9.04165,-3.6006982,-1.2058024,-0.08622283,-0.0043260464,-0.064818434,-0.73911834,0.12321905,-0.6471331,2017-01-04 22:59:11,27.28888551894718
9.15538,-3.610724,-1.186432,-4.8222765E-4,-0.008547626,0.0076740757,6.0,9.046615,-3.5949533,-1.1855233,-0.1362731,0.010986966,-0.027795186,-0.7385108,0.12266495,-0.6479153,2017-01-04 22:59:12,21.698804170541692
9.164948,-3.603548,-1.20796,-7.243231E-4,9.5434487E-4,0.0028278604,6.0,9.056209,-3.5785623,-1.161628,-0.12428748,0.023789749,0.01643208,-0.737948,0.12107582,-0.6488063,2017-01-04 22:59:13,21.931028482865017
9.170928,-3.603548,-1.182844,0.006278038,0.00824967,4.1767955E-4,6.0,9.062436,-3.563206,-1.1602613,-0.121647775,0.042734105,0.017798765,-0.7381897,0.11930164,-0.64875996,2017-01-04 22:59:14,22.733359117677153
9.109932,-3.616704,-1.1254361,-0.0035070516,-0.0090495795,3.1911582E-4,7.0,9.063949,-3.557001,-1.1674733,-0.10458733,0.01066694,-0.01811733,-0.73858213,0.11841063,-0.64840317,2017-01-04 22:59:15,23.5592495451166
9.138637,-3.6143122,-1.097928,-0.0010658242,-0.006529726,1.00925565E-4,6.0,9.064914,-3.5588613,-1.154221,-0.0916618,0.061430912,0.08483488,-0.73823214,0.11773798,-0.6487645,2017-01-04 22:59:16,18.67031068241912
9.163753,-3.5987642,-1.156532,0.003929112,0.017463803,-0.019234017,6.0,9.074304,-3.5397236,-1.1391946,-0.083467975,0.06262831,0.01853351,-0.73790556,0.11652539,-0.64941967,2017-01-04 22:59:17,22.90219442973974
9.192456,-3.554512,-1.132612,-0.0035033822,3.1422824E-4,0.0028506443,6.0,9.079579,-3.5266488,-1.1377094,-0.09254502,0.055371176,-3.133768E-4,-0.73811096,0.11488796,-0.64936703,2017-01-04 22:59:18,18.471893400449126
9.1888685,-3.573648,-1.145768,-0.007877607,0.00768964,0.0029221177,6.0,9.089605,-3.506651,-1.1193192,-0.12198797,0.027529228,0.0037247927,-0.73767,0.11363258,-0.6501573,2017-01-04 22:59:19,24.04755231425598
9.1888685,-3.541356,-1.069224,0.0023898333,0.009105884,-0.002006933,6.0,9.095156,-3.49947,-1.0964731,-0.09610417,0.031121992,-0.035620984,-0.7368526,0.11381066,-0.6511956,2017-01-04 22:59:20,18.771372879379953
9.150597,-3.568864,-1.1517481,0.0014118105,-0.012368217,0.010283947,6.0,9.102031,-3.4784427,-1.1062961,-0.14902912,-0.0052586515,3.9455226E-6,-0.7377055,0.110435724,-0.6504899,2017-01-04 22:59:21,23.378627149848104
9.234316,-3.527004,-1.1314161,0.005943712,-0.00250566,6.633401E-4,6.0,9.108878,-3.462071,-1.1012737,-0.08836159,0.06493308,2.4243045E-4,-0.7379106,0.1078763,-0.65044576,2017-01-04 22:59:22,24.204763085242313
9.229532,-3.47438,-1.090752,-0.0016195066,-1.2364984E-4,7.2380155E-4,6.0,9.114201,-3.452177,-1.0882183,-0.098588385,0.018614978,0.0013376053,-0.7377638,0.10577462,-0.65069896,2017-01-04 22:59:23,27.28318107272436
9.212789,-3.530592,-1.126632,8.893609E-4,-0.0022468865,0.009828873,6.0,9.1091175,-3.4581513,-1.1115509,-0.086926006,0.058088616,7.2904496E-4,-0.7386962,0.10488666,-0.64951956,2017-01-04 22:59:24,19.69362211981324
9.206808,-3.4851441,-1.11228,-0.0016216822,0.0028315112,-0.0071613193,6.0,9.117552,-3.4413915,-1.0942867,-0.08447218,0.016244741,-0.026258696,-0.73841506,0.10264668,-0.6500161,2017-01-04 22:59:25,18.75332612655075
9.231924,-3.45644,-1.126632,4.121773E-4,0.005172208,0.0050054565,7.0,9.122934,-3.4258714,-1.09812,-0.111381814,0.044920508,-0.10424393,-0.7388661,0.10032673,-0.6496545,2017-01-04 22:59:26,19.162791262894785
9.25704,-3.4540482,-1.101516,4.70493E-4,2.2649765E-4,-7.003546E-7,6.0,9.131825,-3.403319,-1.0943443,-0.11803894,0.05670944,0.038267773,-0.7389098,0.09903749,-0.64990866,2017-01-04 22:59:27,18.339099743408685
9.277372,-3.377504,-1.0560681,0.0076451637,-0.0050748885,0.0051218867,6.0,9.140723,-3.3890123,-1.0640302,-0.07445698,0.04948767,0.009977789,-0.7381537,0.096848376,-0.6508773,2017-01-04 22:59:28,19.67419077104113
9.252256,-3.418168,-1.0453041,-0.0022744164,-2.3698062E-4,0.009771869,6.0,9.143528,-3.3871093,-1.0458392,-0.114707746,0.037038814,0.011424846,-0.7377511,0.095111914,-0.6512609,2017-01-04 22:59:29,18.451101574367797
9.241492,-3.45644,-1.085968,-0.011906149,-0.033833288,0.011314943,6.0,9.131977,-3.4153419,-1.0549107,-0.1154951,0.027942192,0.004745295,-0.73810905,0.09476568,-0.6503717,2017-01-04 22:59:30,19.400746351715846
9.258236,-3.4480681,-1.105104,2.6784092E-4,0.0053835884,-0.0033751577,6.0,9.130313,-3.4125986,-1.0779462,-0.076495215,0.02350947,0.008021832,-0.73911244,0.09312802,-0.64918673,2017-01-04 22:59:31,18.79500197892527
9.252256,-3.427736,-1.053676,0.0025793202,-0.011879705,0.008876726,6.0,9.140335,-3.3901985,-1.0636038,-0.09996143,0.042321723,-0.005143793,-0.7388987,0.09087078,-0.6496491,2017-01-04 22:59:32,18.48640069705585
9.254648,-3.464812,-1.091948,3.9688125E-4,-0.006378226,0.0033404157,6.0,9.124322,-3.419249,-1.107195,-0.06574234,-0.0046688686,-0.06906703,-0.74040246,0.09085959,-0.6474658,2017-01-04 22:59:33,20.310808839619344
9.278568,-3.3798962,-1.087164,0.0076178648,-0.0038588494,0.0010951236,6.0,9.136457,-3.3886611,-1.1011516,-0.103839144,-0.0063730422,-0.00441957,-0.7404786,0.08851368,-0.6477284,2017-01-04 22:59:34,22.79676744931047
9.249865,-3.433716,-1.1098881,9.589642E-5,-0.0013809502,0.0107949,6.0,9.139614,-3.3795998,-1.1027993,-0.103074595,0.04933248,-0.018027386,-0.7407773,0.08646446,-0.6473868,2017-01-04 22:59:35,24.541374246315215
9.249865,-3.434912,-1.1206521,-0.002207607,0.0038192943,-0.0041576624,6.0,9.134174,-3.3923488,-1.1087054,-0.08339842,0.043759353,0.001182707,-0.7410781,0.0856245,-0.646759,2017-01-04 22:59:36,23.19841790128731
9.22714,-3.4109921,-1.1206521,0.004961621,0.008638665,8.5713714E-4,6.0,9.135961,-3.386644,-1.1114358,-0.08759119,0.027936347,-0.018291663,-0.74138707,0.083742075,-0.6463483,2017-01-04 22:59:37,21.79156667751726
9.241492,-3.418168,-1.123044,-0.0048596524,-0.0033088997,0.002982214,6.0,9.136459,-3.3858037,-1.1098849,-0.09068156,0.049108315,0.022727162,-0.74150926,0.082173176,-0.6460833,2017-01-04 22:59:38,22.407563818386645
9.2391,-3.4050121,-1.102712,0.0049959086,0.0018121377,-0.002060376,7.0,9.12962,-3.3957229,-1.1355644,-0.075992525,0.03560089,0.0042235362,-0.7424916,0.0812645,-0.64471567,2017-01-04 22:59:39,22.9164760187236
9.222356,-3.424148,-1.1206521,0.004849218,0.0066302493,-0.004259892,7.0,9.136942,-3.3820617,-1.117288,-0.10215806,0.03610621,0.03565591,-0.7421017,0.07906231,-0.64518255,2017-01-04 22:59:40,20.150509745819626
9.259432,-3.36674,-1.1577281,-1.6566366E-5,-0.008163609,0.010612763,6.0,9.143518,-3.361478,-1.1255834,-0.12069734,0.07702187,0.029752675,-0.7425868,0.07716002,-0.6448113,2017-01-04 22:59:41,19.443573471564633
9.219964,-3.4385002,-1.135004,-0.0023207627,-0.0127954185,2.7114898E-4,6.0,9.131789,-3.3874073,-1.1429352,-0.0953513,0.04750468,0.023164894,-0.7432042,0.07694837,-0.6436261,2017-01-04 22:59:42,18.59600296527754
9.242688,-3.409796,-1.13022,4.1928142E-5,0.0015926734,-0.004313074,6.0,9.140521,-3.3716486,-1.1194887,-0.10336334,0.041735448,0.0262793,-0.742606,0.07492918,-0.64436674,2017-01-04 22:59:43,19.72097927154641
9.237905,-3.421756,-1.158924,-0.004838854,-0.010566339,0.005439937,6.0,9.141915,-3.3670545,-1.121935,-0.11392916,0.0786217,0.062105086,-0.7428434,0.07339298,-0.64401096,2017-01-04 22:59:45,19.648284291189505
9.236709,-3.40262,-1.137396,-0.002162408,0.0016572848,-0.00942003,6.0,9.135094,-3.383927,-1.126722,-0.1195546,0.02945698,0.041770153,-0.74304825,0.07298048,-0.6434223,2017-01-04 22:59:46,19.15352422363216
9.208004,-3.3894641,-1.137396,0.002673354,0.018483415,-0.0043435246,6.0,9.144479,-3.3629043,-1.1134524,-0.071897365,0.039715633,-0.034660395,-0.74281204,0.07071478,-0.64380676,2017-01-04 22:59:47,19.131150512120133
9.236709,-3.400228,-1.113476,-0.0023174696,-0.0035356805,0.00538595,6.0,9.141858,-3.3706157,-1.1116625,-0.1080062,0.02363222,0.004205489,-0.74289095,0.06922505,-0.64339006,2017-01-04 22:59:48,19.321198604566632
9.23312,-3.409796,-1.138592,-0.0021948218,-6.694421E-4,-0.0047010332,6.0,9.135388,-3.3797553,-1.1368086,-0.090555884,0.024060674,0.01254742,-0.7438535,0.06814045,-0.6419989,2017-01-04 22:59:49,18.972887406700355
9.247472,-3.400228,-1.145768,-0.0022865534,0.003960721,-0.002071686,6.0,9.142003,-3.367775,-1.1190584,-0.087529816,0.06354893,0.0123577425,-0.7434311,0.066078454,-0.6424284,2017-01-04 22:59:50,19.700443500512538
9.269,-3.382288,-1.11228,1.8283352E-4,-0.0036143288,0.012688935,6.0,9.142461,-3.369439,-1.1102662,-0.102619246,0.0056733694,-0.029082157,-0.74324304,0.06478934,-0.64243174,2017-01-04 22:59:51,21.64256983434167
9.23312,-3.425344,-1.1206521,0.0028314404,0.0062788203,1.9615144E-4,6.0,9.13743,-3.3804314,-1.1182386,-0.095690325,0.044912618,0.002413491,-0.74359494,0.06388194,-0.64169943,2017-01-04 22:59:52,23.2488905962606
9.228336,-3.440892,-1.138592,-0.011807771,0.008586451,0.0028143004,6.0,9.144794,-3.364124,-1.1071703,-0.13736148,0.046868134,0.030225554,-0.7433865,0.061858956,-0.64195824,2017-01-04 22:59:53,19.911395128407797
9.235512,-3.4289322,-1.161316,-0.0043507256,-5.235374E-4,0.0046782196,6.0,9.126774,-3.3978677,-1.1519175,-0.12428631,0.034652505,0.03212262,-0.74497265,0.06121489,-0.6394263,2017-01-04 22:59:54,21.034997206523713
9.2391,-3.4050121,-1.135004,5.630031E-4,-0.0033115745,-0.004950516,6.0,9.129378,-3.3942223,-1.1419853,-0.067861825,-0.0071501643,-0.021333149,-0.7447471,0.05980701,-0.6395386,2017-01-04 22:59:55,17.619116953082056
9.219964,-3.403816,-1.117064,0.002889622,0.0016333759,-0.002033949,6.0,9.139374,-3.3712883,-1.1299051,-0.090159,0.02774404,-0.023605186,-0.7445292,0.057319157,-0.6398513,2017-01-04 22:59:56,18.67600974592819
9.212789,-3.4014242,-1.12424,-0.0046129413,0.0017005131,2.2101402E-4,7.0,9.1361065,-3.377657,-1.1372801,-0.107777655,0.02137538,0.01685995,-0.7448862,0.055943925,-0.6391048,2017-01-04 22:59:57,23.169342917865194
9.206808,-3.4014242,-1.0668321,4.2644143E-4,0.0018049777,-0.0048008636,7.0,9.130847,-3.3971481,-1.1213452,-0.10107728,0.028195875,-0.028201137,-0.7443864,0.05533219,-0.6391702,2017-01-04 22:59:58,22.07828370790111
9.236709,-3.412188,-1.150552,0.0027859397,0.0040799603,-0.0043965653,6.0,9.142142,-3.3628652,-1.1325957,-0.106526196,0.054106854,0.05862031,-0.7449521,0.05284621,-0.63881665,2017-01-04 22:59:59,24.580636225816413
9.24508,-3.419364,-1.17208,-0.004478261,-7.80575E-4,2.0240247E-4,7.0,9.137756,-3.3748333,-1.1323912,-0.09057985,0.020610826,-0.01054324,-0.74498343,0.052303102,-0.63844633,2017-01-04 23:00:00,21.961832040846716
9.260628,-3.436108,-1.174472,4.828386E-4,-0.0032318681,-0.0023083761,6.0,9.136085,-3.3797967,-1.1310866,-0.0814882,0.03837123,0.017073447,-0.74499303,0.05152484,-0.6381998,2017-01-04 23:00:01,22.364619768862415
9.242688,-3.394248,-1.117064,0.002793178,-0.0033300593,3.0793995E-4,6.0,9.144235,-3.3633928,-1.1139946,-0.10204174,0.055971187,0.046125427,-0.744541,0.049565095,-0.6386952,2017-01-04 23:00:02,19.846064158046666
9.236709,-3.3894641,-1.143376,-0.0044362023,-6.150156E-4,0.0023934692,6.0,9.136889,-3.3783867,-1.1287905,-0.092643216,0.013469431,-0.003354425,-0.7450823,0.049037773,-0.6376883,2017-01-04 23:00:03,22.04726574439158
9.260628,-3.419364,-1.17208,0.0028641075,-0.0030152649,-0.0023430362,6.0,9.137514,-3.3751674,-1.1333523,-0.10397826,0.009512509,0.008827669,-0.7453195,0.04778883,-0.6372633,2017-01-04 23:00:04,21.421473960467328
9.236709,-3.38468,-1.186432,0.0027768053,0.01394695,2.7861446E-4,7.0,9.1411,-3.3654037,-1.1334698,-0.059728786,0.024060674,-0.0056418055,-0.7454085,0.04644462,-0.63711894,2017-01-04 23:00:05,20.52943305952738
9.265412,-3.4074042,-1.1577281,0.0030207634,0.00463517,-0.007482566,6.0,9.129737,-3.3877435,-1.1582265,-0.08065876,0.02683686,0.015049612,-0.7462626,0.046316437,-0.63567424,2017-01-04 23:00:06,24.060209521323735
9.216376,-3.4229522,-1.1314161,0.0028836988,-0.00301487,0.0025641099,6.0,9.134427,-3.3775847,-1.1508945,-0.10706571,0.022643209,-0.007518559,-0.74611676,0.044598926,-0.635725,2017-01-04 23:00:07,25.16833508155314
9.218768,-3.409796,-1.108692,-0.0021321662,0.0017918646,0.0026984662,6.0,9.139897,-3.3681333,-1.1350629,-0.08963527,0.02731091,-0.021586979,-0.7456725,0.04294965,-0.63610053,2017-01-04 23:00:08,24.409597885914202
9.222356,-3.412188,-1.170884,0.0030983686,0.009392694,0.0023826435,7.0,9.132133,-3.382688,-1.1541134,-0.096204124,0.055811904,-0.016717473,-0.7463433,0.042603977,-0.63497597,2017-01-04 23:00:09,24.122685454680525
9.234316,-3.4050121,-1.108692,6.468706E-4,-8.3114207E-4,0.0026853308,6.0,9.138906,-3.3721092,-1.1312425,-0.0906272,0.036490824,-0.011786519,-0.74563575,0.04128807,-0.6357277,2017-01-04 23:00:10,19.55663326573972
9.246276,-3.376308,-1.137396,-0.001939211,-0.013045773,-0.0023167878,6.0,9.142477,-3.3696709,-1.1094346,-0.1325041,0.056869306,0.05307751,-0.7449643,0.039920684,-0.63624805,2017-01-04 23:00:11,18.664373405008526
9.2259445,-3.409796,-1.090752,0.0031952597,-0.0030739605,-0.004731804,6.0,9.137824,-3.3740642,-1.1341269,-0.090512045,0.05845599,0.10014512,-0.7458516,0.03911305,-0.6350034,2017-01-04 23:00:12,18.869641547036366
9.254648,-3.413384,-1.1362001,0.0031892434,-0.0056638345,0.0028987452,6.0,9.145726,-3.3557534,-1.1247225,-0.10054946,0.01935878,0.00430157,-0.74561054,0.037547756,-0.63534117,2017-01-04 23:00:13,18.896135207990344
9.229532,-3.3739161,-1.11228,-0.0016255304,-0.002903752,0.005173683,6.0,9.148049,-3.3485374,-1.1273385,-0.080287,0.021790683,-0.012666443,-0.7457691,0.03614954,-0.63502717,2017-01-04 23:00:14,20.201094921444454
9.265412,-3.3894641,-1.1517481,9.110272E-4,-5.322024E-4,-0.004557885,6.0,9.148417,-3.3457417,-1.1326314,-0.10623042,0.04013444,0.0047645112,-0.7460051,0.034993105,-0.63457954,2017-01-04 23:00:15,18.26144428056058
9.237905,-3.359564,-1.121848,0.008079033,0.0042067096,0.002839759,6.0,9.149191,-3.342969,-1.1345834,-0.08392916,0.0142030055,-0.046223335,-0.74614,0.03350906,-0.63416946,2017-01-04 23:00:16,19.047620212252074
9.236709,-3.4014242,-1.228292,0.0033000708,0.016661853,0.0025517642,6.0,9.144569,-3.352133,-1.1447408,-0.092138775,0.013410978,0.027339185,-0.7465287,0.03256449,-0.63333,2017-01-04 23:00:17,19.20129443301082
9.210396,-3.4074042,-1.2163321,-0.00407885,2.4744123E-4,-0.0049887225,6.0,9.135021,-3.3639808,-1.1855171,-0.12201895,0.025483401,-0.009849121,-0.7479816,0.031114772,-0.6311309,2017-01-04 23:00:18,18.57397287053032
9.241492,-3.40262,-1.200784,-0.004175067,6.818771E-5,8.597225E-5,6.0,9.142783,-3.3470519,-1.1735326,-0.11904139,0.028060267,0.017683322,-0.7476533,0.029122612,-0.6314199,2017-01-04 23:00:19,44.46209081603896
9.2259445,-3.359564,-1.14816,-0.0041950718,-0.012195744,0.00487642,6.0,9.14011,-3.354285,-1.1736996,-0.09420564,0.039962884,0.04024046,-0.7477002,0.028043952,-0.63095707,2017-01-04 23:00:20,55.99477628600119
9.258236,-3.4014242,-1.233076,-0.011570713,0.014662355,-0.0078029856,6.0,9.12715,-3.3840141,-1.1891048,-0.07965806,-0.0017260931,-0.04692476,-0.7482499,0.027378825,-0.6295192,2017-01-04 23:00:21,54.97631559329646
9.187673,-3.5006921,-1.1254361,-0.013574969,0.04416862,0.029089287,6.0,9.127665,-3.3962803,-1.1495273,-0.08512393,0.03384791,-0.05040325,-0.74666405,0.03320239,-0.6323431,2017-01-04 23:00:22,32.53968986854352
8.962824,-3.7901242,-0.588432,-0.19458555,0.19847426,0.13431078,6.0,9.051228,-3.6534326,-0.9476932,0.2618237,0.26944765,-0.27434522,-0.7328382,0.10614665,-0.65284175,2017-01-04 23:00:23,23.223586246847425
8.44376,-5.1870522,-0.055016,0.03515045,0.061610244,0.109870784,6.0,8.298892,-5.223698,-0.10846878,-0.2967606,-0.08089783,0.047011215,-0.6788865,0.21129006,-0.6795401,2017-01-04 23:00:24,22.21133950853483
8.984352,-4.404868,-0.485576,-0.043057553,-0.021485753,-0.14919323,7.0,8.681113,-4.5422277,-0.420506,-0.26377076,-0.078756146,0.091382034,-0.6967607,0.18964277,-0.6756579,2017-01-04 23:00:26,22.573269554625703
9.077641,-4.196764,-0.572884,-0.031046117,0.03981647,0.03690756,6.0,8.78968,-4.3176203,-0.519728,-0.2879612,-0.12085604,0.05315602,-0.7031023,0.17929302,-0.67343664,2017-01-04 23:00:27,23.330199965918624
8.996312,-4.1812162,-0.56810004,0.039829884,-0.018839538,-0.05107644,6.0,8.857781,-4.1593966,-0.63992685,-0.17919396,-0.20063655,-0.037142787,-0.70699525,0.18106598,-0.671563,2017-01-04 23:00:28,20.36702173878694
9.109932,-3.9348402,-0.92211604,0.04960588,-0.045723535,0.07601156,6.0,8.925129,-3.9664865,-0.88286245,-0.08673078,0.01858575,-0.070778444,-0.7182699,0.17059256,-0.66301477,2017-01-04 23:00:29,18.633460987154212
9.069268,-3.4325202,-0.721188,-0.16791011,-0.031059533,-0.011972442,7.0,9.010918,-3.7576628,-0.92399526,-0.13250235,-0.053650636,0.20263672,-0.7274255,0.1340257,-0.657779,2017-01-04 23:00:30,19.189247704820037
9.169732,-3.693248,-0.94484,-0.018826116,0.02515246,-0.05352044,6.0,9.046422,-3.6772993,-0.90007555,-0.10297815,0.04704495,-0.0078594815,-0.72687984,0.13242674,-0.65964454,2017-01-04 23:00:31,34.45647676757727
9.236709,-3.643016,-1.009424,-0.013843428,-0.033231184,2.4478883E-4,6.0,9.078366,-3.5824008,-0.9592,-0.0901701,0.041479427,-0.010771935,-0.72947264,0.12951948,-0.6582304,2017-01-04 23:00:32,39.34417368533231
9.172124,-3.622684,-1.002248,0.0014734939,-0.018007658,0.0026046112,7.0,9.072627,-3.5816643,-1.0146579,-0.08275369,0.03145166,-0.033937853,-0.7314909,0.12905142,-0.6559985,2017-01-04 23:00:33,18.873546207733504
9.164948,-3.589196,-0.975936,0.0013878122,0.0060401335,2.4499E-4,6.0,9.079851,-3.5637753,-1.0130255,-0.089881346,0.034988895,-0.02871756,-0.731813,0.12688464,-0.65592915,2017-01-04 23:00:34,27.778535605272715
9.18528,-3.610724,-1.036932,0.0035796016,-0.008412972,3.5643578E-5,6.0,9.079714,-3.5659366,-1.0066373,-0.10915479,0.025651451,0.019530702,-0.73196864,0.12468452,-0.6557378,2017-01-04 23:00:35,18.771147757185204
9.151793,-3.648996,-1.0142081,-0.008391656,-0.0037318766,0.002146244,6.0,9.065293,-3.5955322,-1.0310367,-0.10563538,0.025955988,-0.038356766,-0.7326954,0.12540258,-0.65447414,2017-01-04 23:00:36,20.286339918697607
9.18528,-3.632252,-1.07042,0.0037825778,-9.800047E-4,-2.7472526E-4,6.0,9.060933,-3.5987039,-1.0579399,-0.11956337,0.061056234,0.022048166,-0.7338684,0.12400461,-0.6531114,2017-01-04 23:00:37,25.204579443124686
9.199633,-3.648996,-1.132612,0.006144434,0.0060006306,-1.5705824E-4,6.0,9.059098,-3.6050966,-1.051862,-0.06518588,0.048683368,-0.059181966,-0.73390865,0.122507796,-0.6529626,2017-01-04 23:00:38,23.6649409338893
9.164948,-3.638232,-1.054872,-0.0013712421,-0.003657557,-0.007352449,7.0,9.06103,-3.5960016,-1.0662692,-0.08836977,0.07213058,0.025678923,-0.7347503,0.120443754,-0.652144,2017-01-04 23:00:39,32.6233102289707
9.147008,-3.65976,-1.101516,-0.003575381,-0.005828716,0.004775077,6.0,9.056046,-3.6014438,-1.0899714,-0.09933482,0.02363222,-0.033903368,-0.73575526,0.1193202,-0.6509135,2017-01-04 23:00:40,20.02414973761226
9.158968,-3.638232,-1.084772,0.0058958977,0.011144608,-0.0022862628,6.0,9.060684,-3.593343,-1.0780897,-0.11024375,0.054456983,0.019838307,-0.7357329,0.11689476,-0.65102947,2017-01-04 23:00:41,23.944893023640304
9.138637,-3.5927842,-1.0835761,0.0015481487,-0.0035084262,0.020191178,7.0,9.072057,-3.5579522,-1.0996181,-0.04266016,0.08506401,-0.024414092,-0.7367824,0.11496361,-0.6503752,2017-01-04 23:00:42,37.15333131748246
9.141028,-3.6334481,-1.174472,-0.0038941503,0.01218956,-0.0072421804,6.0,9.05086,-3.5910301,-1.1648364,-0.10810733,0.014909985,0.008439693,-0.739313,0.11316569,-0.6469314,2017-01-04 23:00:43,23.149816664944694
9.136244,-3.640624,-1.186432,-0.0088150315,-1.9630045E-4,0.005523294,7.0,9.06292,-3.5582623,-1.1716118,-0.11279285,0.042893678,0.02678031,-0.73998296,0.11027639,-0.6466231,2017-01-04 23:00:44,34.93838159136355
9.164948,-3.6047442,-1.235468,-0.007624507,-0.019306347,0.0031032413,6.0,9.062442,-3.5407677,-1.2269894,-0.09174246,0.07115239,1.06675245E-4,-0.74187905,0.11033831,-0.6447481,2017-01-04 23:00:45,24.546513606217175
9.130264,-3.58202,-1.284504,-0.0050042234,0.009709902,5.8452785E-4,6.0,9.060396,-3.5395708,-1.2454146,-0.08780746,0.024509003,0.018757453,-0.74266624,0.10929493,-0.64383507,2017-01-04 23:00:46,40.45713639024125
9.162557,-3.568864,-1.271348,0.0045391694,-4.233122E-4,6.938055E-4,6.0,9.060982,-3.537928,-1.2458193,-0.10037819,0.028543958,-0.0043712007,-0.7429442,0.10748498,-0.64348316,2017-01-04 23:00:47,39.85455420002042
9.180496,-3.572452,-1.236664,0.0017482899,-0.0010588244,7.171631E-4,7.0,9.068079,-3.5320292,-1.2104213,-0.08969313,0.032050796,-0.0072453683,-0.74209845,0.1049013,-0.6444472,2017-01-04 23:00:48,24.16146237006924
9.19724,-3.567668,-1.277328,-0.005287856,0.0037106872,5.966723E-4,6.0,9.069621,-3.5245893,-1.2205215,-0.11087562,0.04307868,0.04604257,-0.7426437,0.10348747,-0.64388645,2017-01-04 23:00:49,18.138258772767372
9.164948,-3.5616882,-1.2270961,0.0018082336,-0.011278912,0.0032000989,6.0,9.072702,-3.5148742,-1.2256155,-0.108989365,0.04561784,0.020616453,-0.7431144,0.10134111,-0.6434088,2017-01-04 23:00:50,18.736679311775177
9.1888685,-3.4983,-1.181648,-0.0838881,0.013006024,-0.021127343,6.0,9.082206,-3.4975398,-1.2046341,-0.08393852,0.028268356,9.34066E-4,-0.7427345,0.09881667,-0.6440014,2017-01-04 23:00:51,32.96174609826275
9.151793,-3.5401602,-1.240252,-6.55435E-4,0.0056493357,0.005754493,7.0,9.066675,-3.5079906,-1.2883294,-0.13415304,0.042933427,0.046406657,-0.7450873,0.10262262,-0.64132285,2017-01-04 23:00:53,40.64383396956126
9.193652,-3.5162401,-1.260584,0.006618593,-0.0023549944,-0.008388333,6.0,9.082677,-3.4767118,-1.2601047,-0.101407535,0.012020401,0.0052633276,-0.7444915,0.09989926,-0.64240116,2017-01-04 23:00:54,21.01453046147669
9.19724,-3.531788,-1.254604,-0.020297034,-0.009885468,-0.018427484,6.0,9.08542,-3.4762044,-1.2415884,-0.0998603,0.029271688,-0.0025324412,-0.74410427,0.09804228,-0.6427553,2017-01-04 23:00:55,18.4122744896044
9.187673,-3.5162401,-1.2641721,-4.2805076E-4,-0.009845525,0.0058374777,6.0,9.084295,-3.4689116,-1.2698952,-0.14284487,0.048524376,0.042116847,-0.7452044,0.09704186,-0.64156157,2017-01-04 23:00:56,24.61113515868903
9.208004,-3.517436,-1.29766,-0.005637586,0.007483393,6.3147396E-4,6.0,9.077197,-3.4904666,-1.2615689,-0.10569149,0.06763328,0.0217391,-0.74514794,0.09527186,-0.6411507,2017-01-04 23:00:57,18.13656554070227
9.169732,-3.517436,-1.2689561,-0.007860597,0.00465627,0.0030767098,6.0,9.084326,-3.4755611,-1.2513567,-0.10214988,0.003602993,0.015207214,-0.7449914,0.09375106,-0.6414883,2017-01-04 23:00:58,20.54711779266205
9.204416,-3.5006921,-1.2641721,-0.022461917,0.045978837,-0.043294683,6.0,9.093245,-3.4546065,-1.2445918,-0.10758418,0.048477616,0.023168257,-0.7450262,0.09161101,-0.641664,2017-01-04 23:00:59,29.776311828753887
9.229532,-3.513848,-1.1517481,0.011512913,-0.017616011,-0.0042182654,6.0,9.096583,-3.4501483,-1.2324994,-0.089893036,0.048151746,-0.0042073885,-0.74491656,0.0891029,-0.6416811,2017-01-04 23:01:00,26.339140415638887
9.163753,-3.483948,-1.2163321,-0.0104188565,0.011660472,-0.0066255033,7.0,9.104411,-3.429004,-1.2337058,-0.06292904,0.095608205,-0.018569749,-0.74525756,0.086560585,-0.64146006,2017-01-04 23:01:01,27.07198291980724
9.154184,-3.511456,-1.206764,0.014226288,-0.007832281,-0.009140097,6.0,9.103677,-3.4231234,-1.2552617,-0.09834698,0.011788637,-0.011421704,-0.7461793,0.0849531,-0.64037573,2017-01-04 23:01:02,20.629893847988363
9.199633,-3.4695961,-1.228292,-5.8006495E-4,-6.742254E-4,-0.0018685982,6.0,9.112085,-3.421977,-1.1959805,-0.09472236,0.050010815,0.03948745,-0.74444133,0.082372054,-0.64214534,2017-01-04 23:01:03,18.979651785134703
9.18528,-3.464812,-1.20198,-0.010189159,-0.0030727983,0.003017813,6.0,9.10658,-3.4225047,-1.2357476,-0.10740473,0.03991525,0.00570055,-0.7459507,0.081013665,-0.64028925,2017-01-04 23:01:04,19.105483283332894
9.211593,-3.4660082,-1.2318801,0.0018078238,0.009093232,-0.0018785894,6.0,9.118189,-3.3964996,-1.2218149,-0.10297055,0.053960722,0.010065175,-0.7457695,0.07825052,-0.6406915,2017-01-04 23:01:05,33.144034161843734
9.118304,-3.6573682,-1.1254361,-0.022537123,0.04297419,0.10705843,6.0,9.045615,-3.6159143,-1.1280094,-0.06312077,0.058197632,-0.00974946,-0.74150074,0.08768787,-0.6423979,2017-01-04 23:01:06,18.8451990552688
9.100364,-3.7159722,-1.1063,0.001805637,0.021566056,-0.0027135462,6.0,9.030944,-3.651474,-1.1310076,-0.1471604,0.041774027,0.018348508,-0.7418116,0.08591237,-0.64117616,2017-01-04 23:01:07,33.89164872603685
9.216376,-3.643016,-1.1314161,0.0067758337,0.011549719,-0.016681,6.0,9.049425,-3.6142979,-1.1023461,-0.08323124,-0.026297932,-0.0068100453,-0.74116516,0.08293517,-0.64230204,2017-01-04 23:01:08,21.393070756568488
9.166144,-3.610724,-1.143376,-0.005536545,-0.007883348,6.9420785E-4,6.0,9.054549,-3.5963945,-1.1186999,-0.121163204,0.054993574,0.025872108,-0.74204624,0.08003279,-0.6413271,2017-01-04 23:01:09,24.549743076141656
9.148204,-3.6478,-1.079988,-0.0031990893,0.006654896,-0.006637618,7.0,9.060633,-3.5863855,-1.1014314,-0.09833529,0.04706249,0.015632672,-0.74171376,0.07757617,-0.641599,2017-01-04 23:01:10,21.840034306257287
9.174517,-3.625076,-1.126632,0.0038706139,-0.005563222,7.375404E-4,6.0,9.064227,-3.5776527,-1.1002681,-0.101917826,0.023503333,-0.00712408,-0.7419102,0.07528147,-0.64126027,2017-01-04 23:01:11,24.688908392265812
9.193652,-3.6179001,-1.1146721,-0.0033628605,-0.0030559748,-0.0017748475,6.0,9.069407,-3.5546405,-1.1317182,-0.114676185,0.0835916,-3.020517E-4,-0.7432179,0.072998665,-0.6399519,2017-01-04 23:01:12,19.895002219360606
9.160164,-3.59996,-1.050088,-0.0032827258,0.01377181,0.0030997768,6.0,9.067359,-3.5730453,-1.0893834,-0.16097791,0.056814943,0.037248585,-0.7418821,0.07179177,-0.6409145,2017-01-04 23:01:13,19.07216055675263
9.166144,-3.699228,-1.074008,0.008868009,-0.01284916,-3.219247E-4,6.0,9.036263,-3.6567643,-1.069785,-0.090413265,0.046051558,0.0066151074,-0.7409876,0.074035905,-0.6405122,2017-01-04 23:01:14,20.704996364353132
9.13146,-3.7626162,-1.101516,-7.800348E-4,0.0021235645,0.047479413,6.0,9.015563,-3.7009869,-1.0921164,-0.13503332,0.029337155,-0.002560352,-0.741803,0.073557995,-0.6386052,2017-01-04 23:01:15,18.576210348590646
9.088405,-3.786536,-0.99268,0.006875295,-0.016014025,-0.0095402,6.0,9.0011635,-3.7491696,-1.0455612,-0.14943361,0.0517185,0.027250849,-0.74008095,0.07475971,-0.6396738,2017-01-04 23:01:16,21.30955359818467
9.120696,-3.74946,-1.041716,-6.729774E-4,0.010835484,-0.0015773028,6.0,9.010207,-3.7315457,-1.0306002,-0.10690087,0.015522564,0.015899727,-0.7399,0.071372606,-0.63973624,2017-01-04 23:01:17,20.295581453963187
9.1195,-3.763812,-1.090752,-0.007905558,0.025946267,0.003395997,6.0,9.012814,-3.7135,-1.0721593,-0.11147066,0.028783904,6.527648E-4,-0.74159896,0.068527125,-0.6377874,2017-01-04 23:01:18,19.51116391012919
9.09558,-3.804476,-1.063244,-6.0702115E-4,-0.0017753616,-0.0044521764,7.0,8.99889,-3.75548,-1.0424829,-0.117022455,0.045408,0.002821268,-0.7406048,0.06823791,-0.6379207,2017-01-04 23:01:19,38.31562540902223
9.154184,-3.8307881,-1.026168,0.0039426796,-0.0045897365,-0.0017273575,7.0,9.00479,-3.7492092,-1.0137134,-0.14939444,0.08157909,0.012454627,-0.7398706,0.06539556,-0.6383852,2017-01-04 23:01:20,21.8843408707493
9.124284,-3.810456,-1.069224,-0.008205529,-0.006569758,-0.004050456,6.0,9.005919,-3.7432694,-1.0255518,-0.12793255,0.05283464,0.008988266,-0.74046993,0.06318934,-0.63746476,2017-01-04 23:01:21,20.155545756780032
9.125481,-3.792516,-1.048892,0.0013957433,-0.0039316267,0.0010565445,6.0,9.0055065,-3.7424343,-1.0322001,-0.14269699,0.06921791,0.04778788,-0.7409249,0.060480643,-0.63648343,2017-01-04 23:01:22,39.3770747834519
9.117108,-3.77338,-1.007032,0.0059649013,-0.011144571,-0.0035225973,6.0,9.007991,-3.738895,-1.0233135,-0.10911738,0.03448504,-0.016281566,-0.74084204,0.057685062,-0.6361218,2017-01-04 23:01:23,18.895041363658738
9.101561,-3.788928,-1.097928,-0.0038162507,0.0022038817,0.00637798,6.0,9.004948,-3.7315784,-1.0754725,-0.0918278,0.041801497,-0.01701251,-0.74286234,0.054675594,-0.6334667,2017-01-04 23:01:24,25.305386082794016
9.172124,-3.79132,-1.091948,0.008925486,-0.009943321,0.0112749785,6.0,9.009591,-3.7164688,-1.0888113,-0.09555764,0.11790713,0.0067247055,-0.7434444,0.052956205,-0.6328268,2017-01-04 23:01:25,30.47450564087022
9.021428,-3.861884,-1.0142081,-0.17987958,-0.01886373,-0.006074339,6.0,9.010059,-3.7238195,-1.0594355,-0.09987258,0.20743251,0.08154855,-0.7312085,0.13910544,-0.653983,2017-01-04 23:01:27,20.668934689546013
9.132656,-3.566472,-1.14218,0.013196435,-0.045747727,-0.06228634,7.0,9.03961,-3.6096919,-1.1941327,-0.10739771,0.119436234,-0.09261669,-0.73403305,0.14859103,-0.65193003,2017-01-04 23:01:28,20.787746115216414
9.130264,-3.644212,-1.215136,0.0032346845,0.003407888,-0.0033025965,6.0,9.031925,-3.623428,-1.2105799,-0.10910335,0.05427198,0.05598412,-0.7351932,0.14564818,-0.6506132,2017-01-04 23:01:29,28.362876377512308
9.166144,-3.627468,-1.2486241,-0.008900072,0.00817138,0.00434839,6.0,9.037145,-3.6052458,-1.2258105,-0.11823592,0.04973054,0.016833501,-0.7361492,0.14346889,-0.64989376,2017-01-04 23:01:30,18.00919693895265
9.145812,-3.648996,-1.251016,0.0058003627,0.010631733,-0.0028379709,7.0,9.04017,-3.5934236,-1.2381548,-0.11521044,0.0340446,-0.011058716,-0.73701763,0.14118552,-0.6491834,2017-01-04 23:01:31,19.264148015713918
9.123088,-3.690856,-1.1995881,-0.0014450587,5.503893E-4,-4.7441572E-4,7.0,9.026379,-3.6373868,-1.210089,-0.09670915,0.05346914,-0.010500936,-0.73605335,0.14114857,-0.64967567,2017-01-04 23:01:32,19.10047766749466
9.126677,-3.6729162,-1.2534081,-0.006214995,6.910786E-4,-0.0075501576,6.0,9.029063,-3.6268518,-1.2216316,-0.11674831,0.02214432,0.028188422,-0.7369851,0.13834354,-0.64888036,2017-01-04 23:01:33,19.277892634650197
9.169732,-3.6729162,-1.298856,-0.0037047006,0.008414932,-0.0022331849,6.0,9.031879,-3.6079204,-1.2563676,-0.121108845,0.047055766,0.0066084582,-0.738664,0.13576642,-0.6473241,2017-01-04 23:01:34,24.913644300560076
9.141028,-3.61192,-1.256996,-0.0037735626,9.063333E-4,-0.0019399226,6.0,9.043499,-3.5829763,-1.2441049,-0.09154899,0.032531857,-0.011028905,-0.73879147,0.13273607,-0.6476345,2017-01-04 23:01:35,21.193834919733806
9.1793,-3.627468,-1.295268,-0.0012851804,-0.01369568,0.002779819,6.0,9.036038,-3.6001334,-1.2487746,-0.120537184,0.017766543,0.062041447,-0.7391723,0.13150723,-0.64697945,2017-01-04 23:01:36,21.71580773323678
9.13146,-3.625076,-1.2964641,0.0013552904,0.016018651,-0.0042732283,6.0,9.037506,-3.5840895,-1.283817,-0.073621705,0.056534372,-0.059112992,-0.74076915,0.12929635,-0.64542955,2017-01-04 23:01:37,33.79727126652973
9.132656,-3.578432,-1.260584,0.0061969943,0.018124454,-0.0088985115,6.0,9.048579,-3.5630136,-1.2643397,-0.084077045,0.015418518,-0.0037556994,-0.7405869,0.12646927,-0.646001,2017-01-04 23:01:38,25.62160380715855
9.13744,-3.5927842,-1.245036,-0.00590064,0.005848564,-0.004094228,6.0,9.052486,-3.5594988,-1.2461439,-0.08256138,0.036873396,-0.014263942,-0.7402764,0.124605656,-0.64643157,2017-01-04 23:01:39,33.07366067743838
9.162557,-3.588,-1.265368,0.0014921054,9.5739216E-4,-0.0015616715,6.0,9.055676,-3.5471551,-1.2581028,-0.10687983,0.04084493,0.007265315,-0.741047,0.12245312,-0.64574796,2017-01-04 23:01:40,23.203004826267527
9.16734,-3.597568,-1.2534081,0.0013251156,-0.001648277,8.908659E-4,6.0,9.057476,-3.544373,-1.252976,-0.102687635,0.020903088,0.0016280396,-0.7412504,0.120132744,-0.64556,2017-01-04 23:01:41,24.007976088684664
9.178104,-3.568864,-1.280916,-0.0058408976,-0.0016200095,0.005911134,6.0,9.060441,-3.5350914,-1.2577531,-0.08537059,0.028988486,0.007614859,-0.74175024,0.11804321,-0.64512086,2017-01-04 23:01:42,29.742476083060826
9.154184,-3.626272,-1.266564,-9.363182E-4,0.010349147,-0.0016502067,7.0,9.058182,-3.5402184,-1.2596081,-0.09959026,0.028645957,-0.012180122,-0.7420529,0.11653186,-0.6446802,2017-01-04 23:01:43,18.47050635017888
9.19724,-3.584412,-1.27374,0.003859505,-0.0020499602,0.005672455,6.0,9.056724,-3.545153,-1.2562057,-0.10942075,0.010555296,0.071354344,-0.74222654,0.114666924,-0.6443772,2017-01-04 23:01:44,19.42008053022313
9.1494,-3.56408,-1.270152,0.001576595,-0.0019369572,0.002909772,7.0,9.054351,-3.5467966,-1.2686131,-0.097441554,0.04359569,0.020674832,-0.74290705,0.11300656,-0.6435379,2017-01-04 23:01:45,21.367112798518853
9.156576,-3.572452,-1.234272,0.0062279627,1.20438635E-4,-0.0019868985,6.0,9.058111,-3.5445158,-1.2479804,-0.12477672,0.015976153,-0.004140461,-0.7425454,0.110705346,-0.6439342,2017-01-04 23:01:46,18.844922394049608
9.160164,-3.590392,-1.2558,-0.0035046786,-0.009412438,0.005171381,6.0,9.0561,-3.5462623,-1.2575673,-0.092104286,0.045325875,-0.013727351,-0.7431718,0.10869104,-0.6431259,2017-01-04 23:01:47,17.946840623259522
9.160164,-3.5497282,-1.266564,-0.001045771,2.488047E-4,5.30988E-4,6.0,9.0616665,-3.531398,-1.2592951,-0.102086164,0.024309974,-0.02502309,-0.7436167,0.10602073,-0.6427655,2017-01-04 23:01:48,26.556054615311197
9.138637,-3.567668,-1.246232,0.001305256,-0.004785262,0.0077259094,6.0,9.065649,-3.52926,-1.2364213,-0.08135843,0.031232174,-0.016501272,-0.7431548,0.10373466,-0.6432347,2017-01-04 23:01:49,18.488984048940655
9.148204,-3.5868042,-1.3156,-0.0034275167,0.007643029,-0.0070944577,6.0,9.051843,-3.5513437,-1.273772,-0.12626141,0.029480362,-0.021559944,-0.7446504,0.10217668,-0.6410697,2017-01-04 23:01:50,18.199614245201154
9.16734,-3.5748441,-1.295268,-0.0011839047,0.0050709993,4.0916353E-4,6.0,9.052243,-3.5542696,-1.2627238,-0.09954934,0.1007067,0.05287629,-0.7445815,0.09989701,-0.6409751,2017-01-04 23:01:51,25.27619832726031
9.148204,-3.573648,-1.247428,-0.0010113195,-0.0047919676,0.0026617944,6.0,9.057139,-3.5436146,-1.2575514,-0.09943653,0.047973465,-0.010123335,-0.7446708,0.09789135,-0.64093876,2017-01-04 23:01:52,32.75851681429595
9.204416,-3.530592,-1.229488,-0.0060184225,0.0017854497,4.2570382E-4,6.0,9.066875,-3.530399,-1.2241188,-0.09807342,0.087500885,0.025701208,-0.74385196,0.09537818,-0.64194393,2017-01-04 23:01:53,32.44575711586917
9.182888,-3.5832162,-1.236664,0.0013598092,-0.015299521,0.0050257444,6.0,9.061769,-3.542562,-1.2267827,-0.13666706,0.026302317,0.031409286,-0.74414176,0.09381689,-0.64128655,2017-01-04 23:01:54,39.82424947776421
9.1769085,-3.5437481,-1.2270961,-8.643642E-4,0.0045044944,-0.00499741,7.0,9.059958,-3.546666,-1.2282958,-0.08824527,0.046118192,0.008368308,-0.7444139,0.09205214,-0.6407677,2017-01-04 23:01:55,24.427904719329526
9.190064,-3.6047442,-1.24384,0.0014052987,0.0044130087,0.002361834,6.0,9.063275,-3.541191,-1.2195915,-0.11961305,0.0384367,0.03381664,-0.7444391,0.08939955,-0.6406206,2017-01-04 23:01:56,29.622028024867323
9.166144,-3.5437481,-1.17806,0.0041531473,-0.004968591,0.007215567,6.0,9.061321,-3.5350802,-1.2514282,-0.09884207,0.0014916998,0.0067637954,-0.74574655,0.08756282,-0.6390794,2017-01-04 23:01:57,40.18454084171805
9.157772,-3.58202,-1.26178,-0.003349807,0.0072853044,0.004782222,7.0,9.059398,-3.537819,-1.2576027,-0.1127268,0.059749246,0.007765373,-0.7462235,0.08526674,-0.6382711,2017-01-04 23:01:58,25.82834302361574
9.125481,-3.61192,-1.286896,-7.7665225E-4,-0.014400676,-4.439354E-4,6.0,9.04622,-3.567237,-1.2693034,-0.14145255,0.020763095,0.0355325,-0.7467596,0.08406319,-0.6369857,2017-01-04 23:01:59,18.70747862911119
9.158968,-3.603548,-1.30364,-7.247962E-4,-0.0045135245,-0.007770635,6.0,9.043584,-3.5655036,-1.2927407,-0.11418752,-0.013383506,0.006115268,-0.74777126,0.0821563,-0.6356619,2017-01-04 23:02:00,27.584905278594466
9.200829,-3.603548,-1.32158,0.0039548203,-0.012121648,0.0021861717,6.0,9.048011,-3.5593836,-1.2785558,-0.14564122,0.04775252,0.077708244,-0.74758494,0.0794043,-0.63569283,2017-01-04 23:02:02,18.698559818244366
9.156576,-3.588,-1.289288,0.0015172586,-0.0023906454,0.0020899177,6.0,9.046747,-3.5620093,-1.2801762,-0.099064775,0.047518708,0.023463879,-0.7478393,0.07750662,-0.6351314,2017-01-04 23:02:03,20.52014976597036
9.13744,-3.607136,-1.3072281,0.0018545426,0.010293521,0.0019765273,7.0,9.040078,-3.5675142,-1.311582,-0.115302205,0.044405837,0.03631006,-0.7490496,0.076136865,-0.6334717,2017-01-04 23:02:04,18.411051710414796
9.120696,-3.588,-1.3383241,0.0018635839,-0.006504588,0.006843835,7.0,9.0351925,-3.5667825,-1.3467554,-0.092679456,0.04633359,0.01788067,-0.7505004,0.07358398,-0.6314998,2017-01-04 23:02:05,26.645217009867487
9.10754,-3.603548,-1.3598521,-0.007900078,-0.006286539,-0.0031287298,6.0,9.027779,-3.5798817,-1.3616433,-0.13477847,0.04758651,0.022128684,-0.75114995,0.07209903,-0.6302951,2017-01-04 23:02:06,19.040008798323626
9.114717,-3.610724,-1.404104,0.006994471,0.008280121,0.00635764,6.0,9.01646,-3.5995123,-1.3846823,-0.13413608,0.029151568,0.048125733,-0.7520124,0.07125012,-0.6287862,2017-01-04 23:02:07,20.213346858308462
9.13146,-3.637036,-1.378988,-4.9611926E-4,0.012760505,-0.0055957437,7.0,9.016449,-3.6049435,-1.3705504,-0.09826748,0.02252455,-0.0106983585,-0.75174445,0.06898466,-0.6286683,2017-01-04 23:02:08,34.35926289700069
9.113521,-3.6238801,-1.256996,0.29042193,-0.110017,-0.14006525,7.0,8.947666,-3.7876837,-1.3278229,-0.2938263,-0.28579584,-0.18564291,-0.7355076,0.16348913,-0.64666927,2017-01-04 23:02:09,18.272632311824882
9.5381,-3.304548,-1.432808,-0.14216606,0.10505499,-0.13762125,7.0,9.181699,-3.259967,-1.1132958,-0.26191726,-0.057079148,0.11021226,-0.7412328,0.085651964,-0.6488126,2017-01-04 23:02:10,50.051550690070485
9.455576,-1.9243641,-2.9421601,0.77922195,0.200371,-0.08629726,6.0,8.81406,-2.0424132,-3.7830248,-1.6664871,-0.41106927,-1.8239768,-0.8310038,0.048096847,-0.5462052,2017-01-04 23:02:11,30.081658597714988
9.01186,-3.2997642,-1.3646361,0.036245946,0.43743896,0.043234736,6.0,9.0416565,-3.416833,-1.6565325,-0.12448797,-0.011820787,-0.008444588,-0.75802267,0.0993041,-0.62749463,2017-01-04 23:02:12,25.90207918888304
8.875516,-4.053244,-0.68172,-0.15438606,-0.041585006,-0.13273326,6.0,8.929449,-3.9537966,-0.89599246,0.04675649,0.12695524,-0.08510441,-0.7258283,0.1373178,-0.65630275,2017-01-04 23:02:13,30.800110127851106
8.937708,-4.053244,-1.156532,0.021581944,-0.007369004,-0.00564526,7.0,8.81376,-4.1340623,-1.1821846,-0.16700493,-0.11430589,0.031755466,-0.7351605,0.14076105,-0.6426016,2017-01-04 23:02:14,40.31987952131861
8.977177,-4.055636,-1.271348,-0.012634058,-0.03425301,-7.572621E-4,6.0,8.864113,-4.005752,-1.2457314,-0.07837971,0.08097996,0.014852702,-0.73811346,0.13675949,-0.64154005,2017-01-04 23:02:15,37.05535733672657
8.935316,-4.035304,-1.277328,0.009252429,-0.017022587,-0.0055155456,6.0,8.867571,-3.989338,-1.273488,-0.104821146,0.007694062,0.0026439386,-0.7397157,0.13323128,-0.6399726,2017-01-04 23:02:16,19.441307063113538
8.972392,-4.097496,-1.340716,-0.008178428,-0.0020334348,-0.017914653,6.0,8.85102,-4.015866,-1.3048658,-0.16323242,0.054122344,0.06575024,-0.7412916,0.13044724,-0.63763076,2017-01-04 23:02:17,27.590145842332703
8.974784,-3.9814842,-1.2259,0.006761994,0.007681355,0.0071493387,6.0,8.861966,-3.9865355,-1.3204134,-0.13195406,-0.0122276135,-0.008401333,-0.74229074,0.12777653,-0.63696414,2017-01-04 23:02:18,25.203274198712364
8.956844,-4.020952,-1.26178,0.0065779723,-0.009823926,0.0069797933,6.0,8.869624,-3.985968,-1.2697349,-0.115924135,0.03498393,-0.007954905,-0.7409542,0.12540083,-0.63846,2017-01-04 23:02:19,22.424001951873677
9.019036,-3.908528,-1.223508,-0.0053166,-0.005158685,-0.004372932,6.0,8.891677,-3.937948,-1.2653172,-0.1022434,0.00406798,0.013206834,-0.741331,0.12223562,-0.63882357,2017-01-04 23:02:20,21.286119056312952
9.009468,-3.973112,-1.2689561,0.004581284,-0.005506344,-0.004435554,6.0,8.897329,-3.930168,-1.2496843,-0.103766665,0.019024141,0.0085077165,-0.74107677,0.12050493,-0.6391999,2017-01-04 23:02:21,23.517355529782705
9.069268,-3.95278,-1.271348,-1.1847168E-4,-0.0036371648,0.005807467,6.0,8.918859,-3.8980947,-1.1955009,-0.09658991,0.06066519,0.13205913,-0.73966974,0.11765313,-0.64129573,2017-01-04 23:02:22,24.220069710102408
9.026212,-3.896568,-1.2581921,-0.004334457,-0.008370198,0.0032911226,6.0,8.921469,-3.8783653,-1.2393805,-0.10354689,0.046906713,0.014027649,-0.74135935,0.116520934,-0.63968,2017-01-04 23:02:23,22.558235058374166
9.010664,-3.896568,-1.218724,-0.0019077696,0.0014007613,-0.0061083063,7.0,8.926355,-3.8634162,-1.250832,-0.13812895,0.037936054,0.013340105,-0.7421753,0.1138005,-0.6388958,2017-01-04 23:02:24,25.517405867789
9.048936,-3.8858042,-1.280916,0.005361259,0.001333952,0.0061785504,6.0,8.935319,-3.845361,-1.2424469,-0.081325114,0.083499245,0.02531316,-0.74231356,0.11098544,-0.6389289,2017-01-04 23:02:25,22.131700245221083
9.032192,-3.8702562,-1.270152,6.182827E-4,-0.015525185,0.015888654,7.0,8.936971,-3.8364081,-1.2581486,-0.12631752,0.09005992,0.06701938,-0.7431398,0.10904597,-0.63803804,2017-01-04 23:02:26,19.346710221814675
9.056112,-3.882216,-1.347892,6.8764016E-4,0.030713566,-0.0060627237,6.0,8.943561,-3.8242927,-1.2481736,-0.06471183,0.0782555,0.002842384,-0.74317485,0.106444314,-0.6380655,2017-01-04 23:02:27,18.587967586896127
9.070464,-3.859492,-1.302444,-0.0015707575,0.0063026845,0.001377821,6.0,8.944057,-3.8203669,-1.2565919,-0.091722004,0.021185411,-0.037867885,-0.74374706,0.10444491,-0.6373479,2017-01-04 23:02:28,23.634246676341036
9.042956,-3.8582962,-1.2797201,-0.0036571883,-0.008031368,-0.0010170788,6.0,8.948544,-3.8057594,-1.2689242,-0.14344928,0.020244624,0.015579847,-0.7444692,0.1022875,-0.6366439,2017-01-04 23:02:29,41.964804914318805
9.060896,-3.812848,-1.265368,0.00587802,0.006358035,0.0018134639,6.0,8.956596,-3.7890787,-1.2620163,-0.09951602,0.023769291,0.014115766,-0.74463814,0.099292584,-0.63654006,2017-01-04 23:02:30,25.73646565819316
9.156576,-3.7135801,-1.2378601,-0.011060718,0.013303556,-0.007825039,6.0,8.978313,-3.7435782,-1.2433405,-0.09693419,0.048937928,0.0040875617,-0.7443368,0.09672376,-0.6375555,2017-01-04 23:02:32,19.447283969502568
9.089601,-3.769792,-1.198392,-0.010842919,0.0015890747,-4.3781102E-4,7.0,8.984166,-3.7266655,-1.2518437,-0.105434306,0.04312661,-0.053451605,-0.7449719,0.094038256,-0.6369222,2017-01-04 23:02:33,42.75037426672607
9.113521,-3.766204,-1.298856,0.0010086,-7.808879E-4,-0.0030585378,6.0,8.986484,-3.720862,-1.25248,-0.11029227,0.05610621,0.035612,-0.7453586,0.09110077,-0.63631815,2017-01-04 23:02:34,22.61548617131954
9.115912,-3.74946,-1.2581921,9.373203E-4,-0.008069612,0.0040534437,6.0,8.987452,-3.7224674,-1.2407143,-0.12846096,0.026992345,0.017477643,-0.7452265,0.08886148,-0.63621235,2017-01-04 23:02:35,20.16776347032266
9.081228,-3.74348,-1.212744,9.1530755E-4,0.004087873,-9.693429E-4,6.0,8.991447,-3.7103696,-1.2479702,-0.1328367,0.036698624,0.0150058465,-0.7457524,0.08649948,-0.63560194,2017-01-04 23:02:36,39.761054726465744
9.112324,-3.769792,-1.259388,-0.0018642843,0.008793645,0.0037937164,6.0,8.993455,-3.7127638,-1.226191,-0.11049744,0.057028294,0.026021015,-0.74530727,0.08387742,-0.6357659,2017-01-04 23:02:37,25.222340352252136
9.07166,-3.7590282,-1.266564,-0.0064184926,0.001856111,-0.0013532117,6.0,8.996629,-3.7026572,-1.2334569,-0.12885201,0.03005904,0.01516732,-0.74578434,0.08182026,-0.63518375,2017-01-04 23:02:38,18.407809679553175
9.084816,-3.7566361,-1.265368,0.0031118952,-0.0054728687,0.00577344,7.0,8.990572,-3.713778,-1.2441403,-0.0966355,0.020133857,0.0044838674,-0.74638194,0.079671785,-0.6340074,2017-01-04 23:02:39,26.07024410903915
9.10754,-3.754244,-1.2426441,-0.0041533,0.003694199,0.0055182874,6.0,8.991449,-3.7178714,-1.2254287,-0.11250293,0.011256723,-0.019860666,-0.7459034,0.078151815,-0.6342694,2017-01-04 23:02:40,19.974520874940207
9.081228,-3.782948,-1.2163321,-0.0035540834,0.015945949,0.0023697317,6.0,8.985521,-3.7326071,-1.2241087,-0.09929449,0.05034078,-0.00897263,-0.7459004,0.0777483,-0.63390994,2017-01-04 23:02:41,19.309430646687893
9.108736,-3.765008,-1.2426441,0.006122213,-0.001138702,-1.2286752E-4,7.0,8.981881,-3.7408116,-1.225783,-0.07901508,0.068448685,0.007293007,-0.74617046,0.07567828,-0.6331434,2017-01-04 23:02:42,21.320112793640863
9.094384,-3.76142,-1.2641721,0.0062158033,-0.011182219,0.014465436,6.0,8.984668,-3.7367373,-1.2177637,-0.04991583,0.09405103,-0.021763723,-0.74609196,0.07372586,-0.6330388,2017-01-04 23:02:43,24.865287131435004
9.10754,-3.7841442,-1.054872,0.0012999326,0.0035901442,-0.005430937,6.0,9.0043,-3.743332,-1.0394478,-0.1152005,0.0766919,-0.018063845,-0.7334093,0.12291423,-0.6512891,2017-01-04 23:02:44,33.008102481434406
9.144616,-3.7674,-0.893412,-0.0056625977,0.026598863,-0.012177601,6.0,9.035034,-3.703971,-0.90507275,-0.15502982,0.025157237,-0.02601276,-0.72893715,0.12164114,-0.65689963,2017-01-04 23:02:45,22.415693394423585
9.172124,-3.739892,-0.880256,0.013986319,-0.079006426,0.034445696,7.0,9.048225,-3.6817605,-0.86293364,-0.14064299,0.0389955,0.03047836,-0.7279304,0.118805125,-0.6583097,2017-01-04 23:02:46,24.5103946977031
9.126677,-3.7721841,-0.95919204,0.0041933544,-0.009552665,-8.760393E-5,6.0,9.018636,-3.724104,-0.98269254,-0.07694413,0.04688421,0.0016154724,-0.7323518,0.11732157,-0.6526561,2017-01-04 23:02:47,27.845782917364453
9.084816,-3.7530482,-0.90058804,0.003705699,-0.0043400675,0.0024111941,6.0,9.02049,-3.719463,-0.9832456,-0.101402275,0.038368896,-0.0455816,-0.73291856,0.11385084,-0.6519755,2017-01-04 23:02:48,22.943930223580338
9.113521,-3.763812,-1.00464,-0.0037423,-0.0016649589,0.0023378283,6.0,9.021438,-3.7170181,-0.98378307,-0.12198212,0.033638068,0.013680881,-0.73332787,0.1113071,-0.6514476,2017-01-04 23:02:49,20.121779039744677
9.136244,-3.769792,-1.0249721,-0.0037087053,0.0010162294,-7.369369E-5,6.0,9.018249,-3.7216685,-0.99537414,-0.11679975,0.031379767,0.018833954,-0.73402673,0.109337725,-0.6504849,2017-01-04 23:02:50,22.378867240562453
9.145812,-3.77936,-1.007032,0.010617103,-0.013735004,0.007161565,6.0,9.018,-3.7220454,-0.9962175,-0.10867665,0.044158585,0.0060305856,-0.734408,0.10694776,-0.64991593,2017-01-04 23:02:51,19.202466693515156
9.120696,-3.828396,-1.0835761,-0.0017198138,-0.0050684437,0.0014179796,6.0,8.999981,-3.7574017,-1.0259981,-0.1063637,0.07219021,0.053989876,-0.7356835,0.10526719,-0.6477334,2017-01-04 23:02:52,30.14586571096043
9.1195,-3.828396,-1.113476,-0.0019053519,-0.0015604198,-9.4977766E-4,6.0,8.989137,-3.765693,-1.0887614,-0.09687515,0.047155134,0.006774536,-0.73820597,0.10277842,-0.6445709,2017-01-04 23:02:53,20.89815451710723
9.115912,-3.80328,-1.145768,0.0028043203,0.017854154,-0.0057198927,6.0,8.98385,-3.7743163,-1.1024506,-0.10694763,0.061255556,0.07680545,-0.7389447,0.10084681,-0.64342564,2017-01-04 23:02:54,25.755328658361055
9.076445,-3.826004,-1.133808,-0.0071191564,-0.01530797,0.0015125722,6.0,8.977542,-3.7789702,-1.1373366,-0.10129414,0.066169634,0.022783421,-0.74053496,0.09795949,-0.6412991,2017-01-04 23:02:55,21.717378774950348
9.093188,-3.826004,-1.196,0.00758275,-0.010313556,-0.003325142,6.0,8.975551,-3.7796109,-1.1508439,-0.12601006,0.054765027,0.008080139,-0.7412658,0.09592607,-0.64027697,2017-01-04 23:02:56,17.952348825429713
9.082424,-3.834376,-1.170884,2.9057264E-6,-0.031939097,-0.0032616928,7.0,8.967418,-3.788688,-1.183907,-0.11141806,0.031335928,-0.013023002,-0.74272573,0.09338591,-0.6381972,2017-01-04 23:02:57,23.92602504270443
9.068072,-3.835572,-1.228292,-0.004799921,-0.004444979,-0.0032015145,6.0,8.965323,-3.7858753,-1.2085185,-0.0740449,0.048500706,-0.004146379,-0.7438463,0.09115941,-0.6367529,2017-01-04 23:02:58,20.43607850253798
9.052525,-3.8953722,-1.304836,0.0027265996,9.795427E-4,-8.833483E-4,6.0,8.950742,-3.802544,-1.2630475,-0.17593466,-0.020792028,0.033416532,-0.7459005,0.08961014,-0.6339025,2017-01-04 23:02:59,20.754756755919498
9.0166445,-3.84514,-1.300052,-0.0024550855,0.010893598,-0.0029988438,6.0,8.951033,-3.800131,-1.2682312,-0.09670798,0.088064946,0.048564855,-0.74639606,0.08691781,-0.63308257,2017-01-04 23:03:00,27.54976587807533
9.081228,-3.849924,-1.280916,-0.0070915073,8.1428885E-4,-5.243048E-4,3.0,8.950701,-3.8007555,-1.2687014,-0.09464754,0.051560678,-9.4137253E-4,-0.7465645,0.08559913,-0.63272184,2017-01-04 23:03:01,28.037284382545053
9.062092,-3.8272002,-1.2534081,0.005086899,0.004912138,0.0045018867,6.0,8.957004,-3.7932074,-1.2466357,-0.11226503,0.04475655,-0.0075797876,-0.74601704,0.083781786,-0.63328475,2017-01-04 23:03:02,19.574211412740055
9.062092,-3.840356,-1.218724,-0.0049178675,0.0018512756,0.002222456,6.0,8.962129,-3.7886903,-1.2233076,-0.0975719,0.038509764,-0.0057796063,-0.7454668,0.08155086,-0.6337232,2017-01-04 23:03:03,19.484788706508358
9.072856,-3.8248081,-1.212744,-0.0021573752,-0.022456825,-0.007345408,6.0,8.96155,-3.7804117,-1.252801,-0.13283436,0.036024377,-0.020920916,-0.74665266,0.07990562,-0.6323316,2017-01-04 23:03:04,19.906327741695698
9.089601,-3.798496,-1.240252,0.00973,-7.471666E-4,2.6997924E-4,7.0,8.967508,-3.7674804,-1.249109,-0.092191376,0.044171736,-0.022012949,-0.7468421,0.07690081,-0.6319815,2017-01-04 23:03:05,20.18925497939955
9.054916,-3.822416,-1.176864,-0.0051887855,0.0063992813,0.003137976,6.0,8.979891,-3.7450142,-1.2275333,-0.120472886,0.024777884,-0.035121363,-0.7464402,0.073579066,-0.6324442,2017-01-04 23:03:06,19.10636909349132
9.09558,-3.763812,-1.265368,-0.0021409467,-0.0031560585,-0.004247017,6.0,8.981961,-3.731845,-1.2522432,-0.10405016,0.054691084,0.019104807,-0.7474267,0.072111316,-0.63138914,2017-01-04 23:03:07,18.524394863153262
9.103952,-3.7530482,-1.2486241,0.0024846792,0.008661605,-0.0065204427,7.0,8.98511,-3.72669,-1.2449893,-0.08894202,0.056257896,0.013202743,-0.7474035,0.069748506,-0.63116723,2017-01-04 23:03:08,19.5263733179019
9.106344,-3.781752,-1.2689561,0.0022108406,-0.015318751,0.0031212568,6.0,8.984758,-3.7247076,-1.2534215,-0.11321312,0.04269231,0.023906361,-0.7479485,0.066931,-0.63014376,2017-01-04 23:03:10,22.278841950460382
9.106344,-3.7721841,-1.270152,-0.007092826,-0.007755667,0.008001626,7.0,8.980428,-3.7228858,-1.2893552,-0.10797756,0.06245441,0.009500819,-0.74930817,0.06539187,-0.6283842,2017-01-04 23:03:11,29.148774930172664
9.08362,-3.770988,-1.265368,0.06540668,-0.0033097267,-0.025553133,6.0,8.986504,-3.7150316,-1.2695318,-0.1258195,0.02366466,0.041284196,-0.7488667,0.062664546,-0.6286005,2017-01-04 23:03:12,19.173270058051422
9.22116,-3.3368402,-1.438788,-0.017862096,-0.04487486,-0.0035079867,6.0,9.128264,-3.3096366,-1.375313,-0.07017127,-0.0026966918,0.03955489,-0.746585,0.11283738,-0.6428635,2017-01-04 23:03:13,28.344511296575025
9.108736,-3.4205601,-1.676792,0.060660224,0.01940044,-0.008294299,6.0,9.074586,-3.331963,-1.64934,-0.15494624,9.293898E-5,-0.032348026,-0.7551763,0.117480785,-0.6323638,2017-01-04 23:03:14,24.782578100385027
9.308468,-3.421756,-1.856192,-0.09819977,0.051172443,0.045473695,6.0,9.138854,-3.2110393,-1.5300257,-0.05958207,0.19277678,0.15872633,-0.7524276,0.108914554,-0.63740504,2017-01-04 23:03:15,30.733026254150886
9.254648,-3.3798962,-1.69832,0.026444223,0.031620435,0.043029696,7.0,9.133007,-3.194324,-1.5984063,-0.15154082,0.120988145,0.11306977,-0.75477546,0.10867427,-0.6348508,2017-01-04 23:03:16,30.15730493675443
9.274981,-3.317704,-1.655264,0.11198422,0.31268042,0.052805692,7.0,9.104242,-3.2588878,-1.6318108,-0.13485797,0.119812086,0.10238924,-0.75577396,0.109567024,-0.63276136,2017-01-04 23:03:17,30.030522130048787
9.273785,-3.4480681,-1.334736,-0.015103776,0.06339244,0.008813694,6.0,9.114079,-3.3925037,-1.2628806,-0.12023674,0.037624504,0.08022738,-0.74311286,0.1103281,-0.6456532,2017-01-04 23:03:18,27.06302633837032
9.266608,-3.419364,-1.320384,-0.005198255,0.029586494,0.006354697,6.0,9.116596,-3.3857203,-1.262918,-0.07585984,0.036035776,-0.020273997,-0.74314475,0.1101219,-0.64571553,2017-01-04 23:03:19,26.68701613399189
9.210396,-3.446872,-1.27374,-0.0029013008,0.014818564,-0.005882345,6.0,9.117386,-3.3870687,-1.2535714,-0.106166124,0.04903934,0.036912706,-0.7431023,0.10822803,-0.64571273,2017-01-04 23:03:20,24.227606707012743
9.229532,-3.421756,-1.286896,-0.0028238147,0.0029332936,-0.005813755,6.0,9.112804,-3.3879602,-1.2841098,-0.13108021,0.0302078,0.0039822017,-0.74438894,0.10656706,-0.6441862,2017-01-04 23:03:21,19.57004596705721
9.199633,-3.455244,-1.288092,-0.0027560145,0.010274135,-9.881258E-4,6.0,9.111989,-3.3866098,-1.2934126,-0.09003508,0.05787059,-0.06033654,-0.7449729,0.10469543,-0.6434871,2017-01-04 23:03:22,18.732422440544713
9.2391,-3.406208,-1.3060321,0.002444353,0.0029885918,-0.0011423528,6.0,9.110378,-3.3831227,-1.3137354,-0.10241058,0.032653145,0.01980477,-0.7458416,0.10345145,-0.64250356,2017-01-04 23:03:23,19.588829025924493
9.224749,-3.4205601,-1.320384,-1.9446015E-4,0.009869605,-0.0060027167,6.0,9.113562,-3.378152,-1.3044144,-0.09444179,0.029252106,-0.0031663552,-0.7458438,0.101112284,-0.6425006,2017-01-04 23:03:24,17.487934843493527
9.199633,-3.430128,-1.3538721,-0.004975252,-0.017046079,0.00853727,6.0,9.114575,-3.3712137,-1.3152376,-0.091036946,0.03499445,-0.04628157,-0.74646044,0.09927414,-0.64182836,2017-01-04 23:03:25,24.588738145201276
9.219964,-3.3954442,-1.340716,0.0074540116,-2.0894408E-4,0.00103686,6.0,9.111254,-3.3827474,-1.3086165,-0.063262805,0.024656596,-0.026504561,-0.7463744,0.098214634,-0.64169776,2017-01-04 23:03:26,19.259724440813265
9.237905,-3.399032,-1.265368,0.0024700873,-0.010441929,0.003523834,6.0,9.118784,-3.3680809,-1.2939095,-0.11912089,0.030951312,-0.028541474,-0.7462069,0.09563647,-0.6420046,2017-01-04 23:03:27,18.605894782385953
9.216376,-3.41458,-1.334736,0.002767913,0.01411733,-0.0040317774,6.0,9.113512,-3.37613,-1.3099837,-0.10286475,0.028882103,-0.0027555823,-0.74690855,0.094436616,-0.6410024,2017-01-04 23:03:28,19.197979811163474
9.230728,-3.394248,-1.3120121,2.4409592E-4,-0.005584553,7.924363E-4,7.0,9.116106,-3.3688095,-1.3107777,-0.09787878,0.035006434,0.0048224516,-0.74721074,0.09223431,-0.64064926,2017-01-04 23:03:29,18.521057528550607
9.22116,-3.388268,-1.3060321,0.0025551766,0.0061377287,0.0032608882,7.0,9.120051,-3.3645496,-1.2941684,-0.10110826,0.023718437,0.011863749,-0.7469022,0.09011833,-0.64094317,2017-01-04 23:03:30,19.099955917233448
9.228336,-3.4086,-1.317992,3.9720908E-4,-0.010779135,0.010329358,6.0,9.122737,-3.3541422,-1.3022245,-0.07689503,0.03292992,0.028923605,-0.74738145,0.08840796,-0.64045167,2017-01-04 23:03:31,18.93180719602042
9.22714,-3.424148,-1.325168,0.002729196,-0.0012250319,-0.0018516704,7.0,9.119949,-3.362435,-1.3003697,-0.08087913,0.025832945,0.0068583414,-0.7475215,0.08667192,-0.64002645,2017-01-04 23:03:32,18.563240517183132
9.218768,-3.399032,-1.367028,2.0826608E-4,0.0034025535,0.0029102713,6.0,9.120044,-3.3619282,-1.3010185,-0.10709669,0.034711834,0.03371756,-0.7477635,0.084754124,-0.6396097,2017-01-04 23:03:33,19.144960391581
9.2139845,-3.403816,-1.340716,0.005405139,0.015759744,-0.007141404,6.0,9.115681,-3.3689852,-1.31328,-0.101892106,0.04200696,0.015475948,-0.7483016,0.08368617,-0.6387824,2017-01-04 23:03:34,18.473099171132375
9.224749,-3.419364,-1.317992,3.143102E-4,-0.0019122362,-0.002282016,6.0,9.121315,-3.3661458,-1.2810451,-0.09864859,0.044846274,0.010634937,-0.74745643,0.08138817,-0.6396054,2017-01-04 23:03:35,18.804283690666548
9.234316,-3.418168,-1.325168,-0.004442893,-0.0044524968,-1.7553568E-5,6.0,9.119569,-3.372464,-1.2768468,-0.10039456,0.043311905,0.019617286,-0.7474782,0.079859026,-0.63932896,2017-01-04 23:03:36,19.332539120871793
9.198436,-3.403816,-1.2426441,0.0029316433,0.010123402,-2.0503998E-5,6.0,9.118808,-3.3719594,-1.2835987,-0.074843936,0.033052668,-0.005074673,-0.7478989,0.07805523,-0.63868225,2017-01-04 23:03:37,18.043870399820065
9.255844,-3.388268,-1.30962,0.002712246,-0.0023188516,0.0073945,6.0,9.124926,-3.3618839,-1.2664446,-0.11656711,0.07063626,0.034803458,-0.74759614,0.07530436,-0.6389291,2017-01-04 23:03:38,18.404075287347254
9.21518,-3.400228,-1.230684,0.005457554,-0.0068557113,0.012155212,6.0,9.121532,-3.3639438,-1.2852756,-0.08886311,0.029108314,0.02314853,-0.7483668,0.07401389,-0.6378721,2017-01-04 23:03:39,18.9719202062764
9.2259445,-3.4109921,-1.29168,0.0027035028,0.0053549856,3.1635165E-5,7.0,9.1197,-3.3668234,-1.2907331,-0.09308862,0.0477569,0.024867022,-0.7487907,0.07156584,-0.6370596,2017-01-04 23:03:40,18.810925261764307
9.222356,-3.412188,-1.30364,-0.0070853345,0.0029178709,-0.0025026724,6.0,9.120453,-3.3667576,-1.285571,-0.13299978,0.031078445,0.030029083,-0.7487964,0.06964074,-0.63682693,2017-01-04 23:03:42,20.010336113575995
9.205612,-3.4074042,-1.283308,0.002914507,3.6412477E-4,-8.2708895E-5,6.0,9.115834,-3.379355,-1.2852792,-0.092169754,0.019677345,0.015968846,-0.7488787,0.068642125,-0.63637435,2017-01-04 23:03:43,19.49542470919571
9.259432,-3.39066,-1.302444,-0.0022058636,-0.0048443154,0.0023411885,7.0,9.12436,-3.363352,-1.2666069,-0.1111521,0.03328794,-0.014394875,-0.7484868,0.06592756,-0.6367775,2017-01-04 23:03:44,18.47448539368639
9.247472,-3.40262,-1.278524,-0.0018619746,0.0052169412,-0.0026912168,7.0,9.121572,-3.369082,-1.2714623,-0.11154899,0.049086105,0.083605774,-0.74876904,0.06458693,-0.6361687,2017-01-04 23:03:45,19.306993626003223
9.216376,-3.413384,-1.332344,0.01253812,0.005237013,0.00475093,6.0,9.122841,-3.3658285,-1.2709714,-0.10310382,0.039183717,-0.046267394,-0.7489646,0.062077142,-0.6356622,2017-01-04 23:03:46,22.617761520431017
9.228336,-3.376308,-1.262976,-0.004690312,-0.002307333,0.002301626,6.0,9.121171,-3.3721478,-1.2661978,-0.10357728,0.052000236,0.015914192,-0.7489623,0.060113806,-0.6352589,2017-01-04 23:03:47,18.83822181289494
9.202024,-3.4014242,-1.300052,-0.0068975985,-0.0018076301,0.0021167397,6.0,9.115452,-3.3776948,-1.2923379,-0.09016016,0.0057893973,-0.004245821,-0.7499716,0.058596168,-0.6337739,2017-01-04 23:03:48,18.395983298160257
9.22116,-3.4050121,-1.26776,0.0027713217,-0.024017602,0.0070598647,6.0,9.120009,-3.3707747,-1.278159,-0.058095045,0.042609308,-0.034319036,-0.74965286,0.05646724,-0.63394684,2017-01-04 23:03:49,19.914380817898966
9.1888685,-3.409796,-1.233076,1.3074279E-4,-0.0048679113,0.007172771,7.0,9.122287,-3.3675163,-1.2704736,-0.11202888,0.04825959,0.015226503,-0.74956703,0.054086994,-0.6337299,2017-01-04 23:03:50,21.886456478785657
9.206808,-3.425344,-1.3598521,4.8573315E-4,-0.001730457,-3.896132E-4,6.0,9.115491,-3.372679,-1.3050892,-0.100885555,0.044293024,0.058350775,-0.75084645,0.05263688,-0.6319318,2017-01-04 23:03:51,18.89657266859373
9.246276,-3.399032,-1.3060321,-0.021317475,0.04659289,0.004456058,6.0,9.119307,-3.36844,-1.2892882,-0.09946166,0.06766835,0.040663872,-0.7504401,0.050744798,-0.6321614,2017-01-04 23:03:52,19.56615773436525
9.367072,-3.363152,-0.792948,-0.06530947,0.59404886,-1.1955479,7.0,9.193425,-3.3248758,-0.77233535,0.1552537,0.4269763,-0.028423328,-0.7270498,0.103810616,-0.6644528,2017-01-04 23:03:53,19.455176297568787
9.664876,-2.2568521,-0.779792,0.017786525,-0.13426311,0.10954806,6.0,9.547708,-2.1890442,-0.46878847,-0.0011567689,0.12043197,0.083763525,-0.7223491,0.04597121,-0.68098414,2017-01-04 23:03:54,42.26206595818092
6.546904,0.7176,-5.635552,-5.7158375,-1.4809071,-2.5324159,7.0,9.442025,2.4333088,-1.0476441,1.9443016,2.3806849,2.4733799,0.73648447,0.104907766,0.6641775,2017-01-04 23:03:55,39.49693548326306
1.868152,-4.583072,5.557812,-5.5007653,0.1932329,0.6692241,6.0,4.8112593,-0.9378821,8.493677,1.4851834,3.0017421,1.404985,-0.016423106,-0.2582117,0.12426478,2017-01-04 23:03:56,34.6822238584207
0.40903202,-0.055016,9.99856,-0.033531033,0.051548965,0.014063835,0.0,0.26897463,0.68676627,9.778874,-0.19387737,0.70231426,-0.18500118,0.036274116,-0.010016895,0.10360086,2017-01-04 23:03:57,21.8063932859337
0.449696,-0.028704,9.97464,-0.0091151465,0.0076018423,0.0018156618,6.0,0.44876552,-0.017093256,9.796361,-0.0033224956,0.027158746,-0.16512276,0.0015243964,-0.022852488,0.10445987,2017-01-04 23:03:58,28.226532419109716
0.458068,-0.052624002,9.983012,5.8368593E-4,-0.0019150153,0.0017168,6.0,0.4615316,-0.04020866,9.795701,0.003463621,0.012415346,-0.18731062,4.0994983E-4,-0.023623735,0.10403442,2017-01-04 23:03:59,19.492231875351436
0.462852,-0.057408,9.967464,5.637519E-4,-0.0019026324,0.0015430674,6.0,0.46667787,-0.043334886,9.7954445,-0.0045461557,0.014073114,-0.18517596,2.723418E-4,-0.02390159,0.10376957,2017-01-04 23:04:00,20.252898606036457
0.464048,-0.052624002,9.984208,5.624555E-4,5.072281E-4,-0.0010503381,7.0,0.46783274,-0.04354199,9.795389,0.0025887014,0.010278014,-0.18762335,2.6035824E-4,-0.023961384,0.10345437,2017-01-04 23:04:01,19.510024615188332
0.46046,-0.060996,9.97464,5.450472E-4,4.4434518E-4,0.001288563,7.0,0.46718752,-0.04480846,9.795413,0.0103154965,0.014991543,-0.18879531,1.8149782E-4,-0.023935413,0.10298866,2017-01-04 23:04:02,20.4456961588693
0.47242,-0.051428,9.981816,5.235262E-4,4.215017E-4,0.0011717603,6.0,0.46522784,-0.04500663,9.7955065,-0.003604162,0.00402937,-0.18630992,1.5111359E-4,-0.02383705,0.10257027,2017-01-04 23:04:03,19.10600437001271
0.476008,-0.056212,9.98062,0.0029526986,0.0028377697,-0.0013857782,6.0,0.46639833,-0.046940397,9.795441,-0.01558971,0.021231603,-0.19235505,5.00435E-5,-0.023906607,0.10219189,2017-01-04 23:04:04,18.782894795377686
0.45567602,-0.055016,9.993776,5.103275E-4,3.9348006E-4,9.6868724E-4,6.0,0.46855086,-0.043093324,9.795357,-2.8115502E-4,0.014314677,-0.19243923,2.4542774E-4,-0.023995923,0.10173526,2017-01-04 23:04:05,18.843483471537052
0.450892,-0.050232,9.993776,0.002959691,3.597811E-4,-0.001549162,6.0,0.4648519,-0.047587726,9.795512,-0.005176124,2.5227142E-4,-0.21022388,-1.4031226E-5,-0.023831483,0.10122507,2017-01-04 23:04:06,17.98477998063984
0.471224,-0.057408,9.979424,4.4868514E-4,3.3854693E-4,7.5516105E-4,3.0,0.46891344,-0.046519615,9.795324,8.143121E-5,0.008496387,-0.20204,5.2679738E-5,-0.024032176,0.100874595,2017-01-04 23:04:07,18.38258615483951
0.46524402,-0.06578,9.996168,4.2721257E-4,0.0027656332,6.792322E-4,6.0,0.45899555,-0.045959022,9.795795,9.275632E-4,0.016232982,-0.21352819,1.8881283E-5,-0.023525786,0.10040211,2017-01-04 23:04:08,19.488416459225224
0.46644002,-0.062192,9.987796,4.008524E-4,3.1528622E-4,5.8728456E-4,6.0,0.4703311,-0.048508298,9.795246,0.0038910527,0.007703702,-0.19613867,-6.2478284E-5,-0.024114344,0.09998564,2017-01-04 23:04:09,19.325312344980915
0.46644002,-0.063388005,9.977033,3.965795E-4,3.0525774E-4,0.0029658228,6.0,0.46552137,-0.050736714,9.7954645,-0.005702669,0.0066712853,-0.19113573,-2.110276E-4,-0.023881415,0.099530675,2017-01-04 23:04:10,19.264851351024564
0.46883202,-0.056212,9.979424,-0.0020471327,2.8797984E-4,4.5627356E-4,6.0,0.46175274,-0.05043572,9.795644,9.6738375E-5,0.014148284,-0.20172027,-2.260258E-4,-0.02368843,0.09906337,2017-01-04 23:04:11,20.02954496261667
0.46644002,-0.069368005,9.997364,3.7490204E-4,2.6447326E-4,3.8921088E-4,7.0,0.4638418,-0.049328096,9.79555,-0.0025982363,0.020039909,-0.20181437,-1.7008945E-4,-0.023788832,0.09861017,2017-01-04 23:04:13,27.732684865942367
0.462852,-0.066976,9.999756,3.90172E-4,2.457276E-4,3.5516918E-4,6.0,0.4649437,-0.046813972,9.795511,0.00328768,0.01059403,-0.19946109,-5.031812E-5,-0.023832105,0.098052055,2017-01-04 23:04:14,24.422393192438562
0.46644002,-0.069368005,9.9866,3.5525858E-4,2.2495538E-4,3.3747405E-4,6.0,0.46445417,-0.052231826,9.7955065,-7.8987173E-4,0.013548172,-0.19826983,-3.404723E-4,-0.023834184,0.09752084,2017-01-04 23:04:15,18.339659229011275
0.462852,-0.068172,10.003345,3.3659115E-4,2.1894276E-4,3.2974035E-4,6.0,0.46509248,-0.05053644,9.7954855,-0.0037395153,0.015243559,-0.19231063,-2.6727119E-4,-0.023857988,0.096852385,2017-01-04 23:04:16,18.55762791180245
0.46524402,-0.04784,9.985404,3.1125546E-4,-0.0022331104,-0.0021466091,6.0,0.4696568,-0.04835208,9.7952795,0.008000789,0.021015923,-0.1984972,-1.464334E-4,-0.024078935,0.09633151,2017-01-04 23:04:17,18.114362297969613
0.461656,-0.069368005,10.00454,2.767332E-4,0.0026296303,2.6872754E-4,6.0,0.4620493,-0.050692804,9.795628,0.009961276,0.022263201,-0.19456103,-3.16941E-4,-0.023703858,0.095731996,2017-01-04 23:04:18,21.84821695188959
0.45687202,-0.057408,9.99856,2.696663E-4,1.5129149E-4,2.6271492E-4,6.0,0.46361387,-0.0467905,9.795574,0.004349866,0.014205503,-0.21255378,-1.2675399E-4,-0.023764184,0.09508039,2017-01-04 23:04:19,25.338040706196928
0.453284,-0.068172,9.994972,2.2607297E-4,-0.004691489,-0.0022095516,6.0,0.46175817,-0.049744964,9.795647,0.0036901599,-7.089657E-4,-0.20769759,-2.9683474E-4,-0.023684122,0.094614774,2017-01-04 23:04:20,19.859095305764566
0.57408,-0.001196,9.984208,0.02349032,-0.041541673,-0.004372999,6.0,0.5693415,9.4930007E-4,9.79011,-0.015502507,9.4930007E-4,-0.1905103,0.0027593412,-0.028909236,0.09331727,2017-01-04 23:04:21,22.571956112029767
0.691288,0.07774,9.978229,0.0077330098,-0.0058313087,-0.0014627725,6.0,0.67872375,0.08163449,9.782795,-0.0065842737,0.019442491,-0.17868951,0.007333921,-0.034096073,0.091979824,2017-01-04 23:04:22,37.76721892823403
0.69607204,0.076544,9.977033,-0.0019991882,0.003687881,9.925291E-4,6.0,0.68944335,0.090309486,9.781969,-0.012608649,0.012569486,-0.21180794,0.007805361,-0.034605093,0.09140988,2017-01-04 23:04:23,30.033145074145615
0.703248,0.08372,9.959092,-0.0018650293,0.0057572424,9.306371E-4,6.0,0.6894939,0.08770106,9.78199,-0.0017940438,0.013549062,-0.1759066,0.0076548588,-0.034623846,0.09088633,2017-01-04 23:04:24,20.43722914454709
0.688896,0.070564,9.965073,-0.001712136,0.0029225722,8.843839E-4,6.0,0.68586516,0.09019191,9.782221,-0.011402853,0.004079908,-0.20198739,0.0077487943,-0.034431268,0.09043205,2017-01-04 23:04:25,33.727443011239224
0.69368,0.07774,9.981816,-0.0016133524,0.002640739,-0.0016417354,6.0,0.6924793,0.09225459,9.781736,-0.0012006811,0.0145145925,-0.2000795,0.007875483,-0.034760207,0.090180546,2017-01-04 23:04:26,21.649044367619403
0.69607204,0.087308004,9.9866,-0.0014916174,0.004833631,7.3209405E-4,6.0,0.68914276,0.09234246,9.781972,-0.006929288,0.016994454,-0.1950608,0.007851209,-0.034593098,0.08979753,2017-01-04 23:04:27,27.90656192663398
0.69846404,0.087308004,9.98062,-0.001408957,-3.0543655E-4,6.688982E-4,6.0,0.69085646,0.09254903,9.781848,-0.004019538,4.570322E-4,-0.19638006,0.007856355,-0.03468233,0.089417525,2017-01-04 23:04:28,41.941841920760645
0.69607204,0.093288004,9.975836,-0.0013031662,0.0067752525,5.6717545E-4,6.0,0.68489987,0.084442735,9.782341,-0.008780103,-0.0028652716,-0.20067105,0.007407926,-0.034418218,0.089151524,2017-01-04 23:04:29,25.392550240482382
0.692484,0.093288004,9.96866,-0.0013012215,0.0017341226,5.0236285E-4,6.0,0.6903446,0.09663442,9.781845,-0.004531433,0.016502423,-0.19997078,0.008038475,-0.03464305,0.08875268,2017-01-04 23:04:30,20.62871975187158
0.68172,0.062192,9.981816,-0.013316352,0.016024858,-0.0020117387,6.0,0.6831855,0.08991985,9.782411,-0.015278526,0.0050038546,-0.20299335,0.007652677,-0.034311872,0.08840465,2017-01-04 23:04:31,34.78781740848774
0.48079202,-0.051428,10.005736,-0.07820345,0.11435222,0.007643461,6.0,0.5038527,-0.017844163,9.793683,-0.01879932,-0.0142561635,-0.19172084,0.0013670161,-0.025677582,0.08844308,2017-01-04 23:04:32,39.70743474855294
0.715208,0.08372,9.78328,0.058660552,0.0043722093,0.005199462,6.0,0.70054835,0.11208427,9.780954,0.029592298,0.06424427,-0.17694238,0.007405281,-0.0354304,0.04734387,2017-01-04 23:04:33,38.92964256061299
0.727168,0.108836,9.977033,-0.019556029,0.02627422,0.002644591,7.0,0.72471154,0.109327406,9.779223,0.014287542,0.032783404,-0.2037883,0.006294049,-0.03686074,0.019378813,2017-01-04 23:04:34,46.32580594476738
0.71999204,0.090896,9.97464,0.0073373653,-0.0030748993,2.0921975E-4,6.0,0.6971664,0.10461331,9.781279,-0.026413668,-0.009006697,-0.15030572,0.0060138158,-0.035460483,0.019036416,2017-01-04 23:04:35,43.68831028517068
0.68530804,0.055016,9.961484,0.007370189,0.001903303,-0.0022086203,6.0,0.67958033,0.089606926,9.782665,-0.009315671,0.0011029198,-0.19317046,0.005201885,-0.03458119,0.018193705,2017-01-04 23:04:36,40.08022075057305
0.540592,-0.059800003,9.965073,0.012318753,-0.022605278,-0.0021492913,6.0,0.5059008,-0.028909357,9.793551,-0.034691192,0.030890644,-0.17152151,-0.0010445175,-0.025823357,0.016649388,2017-01-04 23:04:37,39.246540627867674
0.655408,0.02392,9.967464,0.045947623,-0.060933344,0.024422236,6.0,0.62634176,0.05262567,9.786487,-0.0027542673,0.0047856728,-0.18217385,0.0032521582,-0.03189819,0.017769346,2017-01-04 23:04:38,31.052280146001202
0.69368,0.04186,9.99258,0.0038810447,0.005616039,0.02906362,7.0,0.6772242,0.08567645,9.782864,-0.026023792,-0.013591559,-0.17981647,0.0050231116,-0.034461003,0.018887594,2017-01-04 23:04:39,31.431288998497994
0.69846404,0.090896,9.967464,-0.008458465,0.003196314,0.0020931214,6.0,0.69280267,0.10667044,9.781566,-0.0020732991,0.0109904455,-0.20383799,0.0061369175,-0.03523173,0.019673305,2017-01-04 23:04:40,34.61469948592428
0.69846404,0.114816,9.96866,-0.06250699,0.06202729,-0.04672852,6.0,0.7054291,0.114080675,9.7805805,-2.1093934E-4,-0.033027332,-0.20721535,0.006507051,-0.035873007,0.019096313,2017-01-04 23:04:41,22.51647724337611
0.428168,-0.068172,10.000952,0.0060365424,-0.0016430244,0.0046741217,6.0,0.47736025,-0.02593542,9.7949915,0.0061362376,0.020708581,-0.19400164,-9.456763E-4,-0.024363395,0.015476357,2017-01-04 23:04:42,28.44310288435967
0.471224,-0.027508,9.971052,0.008523621,-0.013950765,0.002127476,6.0,0.53992546,0.0050236317,9.791776,-0.0054505207,0.020571632,-0.19482407,6.892707E-4,-0.027531546,0.015719792,2017-01-04 23:04:44,39.78928875294682
0.552552,-0.019136,9.985404,0.023058388,-0.030891515,0.011964351,7.0,0.5258422,-5.578291E-4,9.792543,-0.0075738328,0.02336217,-0.19644962,3.809225E-4,-0.026817447,0.01525807,2017-01-04 23:04:45,37.15573060914172
0.62670404,-0.00598,9.966269,-0.009404596,0.016893536,-0.003082782,0.0,0.6045072,0.037189677,9.7879305,-0.0090408,-0.013042323,-0.21182606,0.0023935118,-0.03080145,0.016100317,2017-01-04 23:04:46,35.52190734458592
0.57408,0.06578,9.979424,-0.01660866,0.021634802,-5.8390945E-4,6.0,0.6265,0.069288425,9.786372,-0.018143998,0.026232425,-0.13444822,0.0041502533,-0.031885024,0.0192758,2017-01-04 23:04:47,40.53074127240195
0.571688,0.04784,9.990189,0.022522341,-0.037150204,0.0042306185,6.0,0.57558244,0.037159365,9.789674,-0.034377597,0.043139365,-0.14430268,0.0024515812,-0.029318044,0.018946674,2017-01-04 23:04:48,35.38170415775982
0.596804,0.01794,10.005736,-0.013958644,0.028544232,-0.0030880272,7.0,0.59186834,0.032733727,9.788719,0.029748293,-0.031850275,-0.1966846,0.0022286049,-0.030154584,0.018512886,2017-01-04 23:04:49,44.568696231268504
0.572884,0.001196,9.987796,5.2472204E-4,0.0018923059,-6.534457E-4,7.0,0.56403935,0.025761323,9.790383,-0.025588688,0.025761323,-0.16751346,0.0018242388,-0.028742094,0.017734729,2017-01-04 23:04:50,51.69845882990017
0.582452,0.021528,10.00454,0.0077312402,-0.005372569,-5.3428113E-4,6.0,0.5757238,0.030298935,9.78969,-0.01031619,0.0135549335,-0.18136194,0.0020498382,-0.029335555,0.017174846,2017-01-04 23:04:51,29.421820267865964
0.587236,0.040664002,9.978229,0.007708706,-0.01034122,0.001937151,7.0,0.59937006,0.03532126,9.788253,-0.008197956,0.007813261,-0.20313188,0.0023177052,-0.030538931,0.01687697,2017-01-04 23:04:52,35.11125294355586
