ACC_X,ACC_Y,ACC_Z,GYRO_X,GYRO_Y,GYRO_Z,LIGH_1,GRAV_X,GRAV_Y,GRAV_Z,LINACC_X,LINACC_Y,LINACC_Z,ROTVEC_X,ROTVEC_Y,ROTVEC_Z,TIME,VOICE
0.90979666,3.4380736,8.6095495,-0.45841074,0.1870644,0.24188519,35.0,0.67859995,4.2479,8.812699,0.1549,-0.7567,0.2976,0.042985998,-0.218582,-0.911806,2017-12-24 21:37:33,27.701867189270377
1.9632454,3.9456444,8.66701,0.72213,0.3122394,0.5923124,32.0,2.4233,3.0109,9.0128,-0.059899997,0.86259997,-0.19669999,-0.029959999,-0.201283,-0.848392,2017-12-24 21:37:34,29.65628639488607
2.8443117,3.8498764,8.858546,-0.39406043,-0.07307693,-0.12543681,32.0,2.7366998,4.2357,8.4106,0.0876,-0.3229,0.6604,-0.012751,-0.266483,-0.833568,2017-12-24 21:37:35,32.60577049546846
2.5378537,5.315128,7.6710224,0.11534881,-0.03080506,-0.059707712,32.0,2.9701,4.7766,8.0332,0.9525,0.3522,-0.19759999,0.002786,-0.302406,-0.804768,2017-12-24 21:37:36,28.773092427906573
6.7803793,4.2904096,3.6104562,0.5216789,-0.37850955,0.5372298,29.0,4.56,4.2707,7.5587997,3.5108,-0.4069,-2.9791,-0.06854,-0.33152,-0.768942,2017-12-24 21:37:37,-Infinity
9.911995,-0.94810385,2.9496565,0.3177023,-1.4325314,0.030543262,5.0,9.0401,-0.8451,3.7057,1.2861999,-0.6748,-0.40089998,-0.324848,-0.461055,-0.409622,2017-12-24 21:37:38,33.851897074510475
6.5984197,0.46926352,5.0661306,-0.18842575,-0.07035422,0.054803338,8.0,9.218599,0.2647,3.3342998,-2.5598,0.049,1.5101,-0.276513,-0.503525,-0.414439,2017-12-24 21:37:39,40.91063174252268
8.24563,-0.59376204,4.6255975,-0.4532271,-0.38097048,0.0935322,8.0,8.6039,-0.4799,4.6809998,0.6731,-0.1672,-0.366,-0.278526,-0.431873,-0.42365,2017-12-24 21:37:40,41.8935676937287
9.375694,-0.7374141,4.0797195,-0.09953613,0.021537364,-0.040352013,8.0,8.9835,-0.57989997,3.8895998,0.59749997,-0.077,0.27809998,-0.287545,-0.468823,-0.389415,2017-12-24 21:37:41,43.77359931121
8.829816,-1.0055647,4.501099,0.07744026,0.011170107,-0.01308997,8.0,8.919499,-0.5986,4.0316,0.2595,-0.5193,0.7833,-0.285567,-0.461403,-0.393231,2017-12-24 21:37:42,38.07470864268058
8.848969,-0.91937345,3.9360676,-0.103620194,0.03626794,-0.023439772,10.0,8.9127,-0.9457,3.9796,0.2171,-0.113299996,0.0704,-0.265148,-0.476514,-0.327665,2017-12-24 21:37:43,30.245831472494395
8.916007,-1.1013328,3.8115692,0.0,0.0,0.0,10.0,8.871799,-1.0368999,4.0478997,0.1796,-0.0907,-0.0369,-0.265019,-0.472629,-0.323178,2017-12-24 21:37:44,37.642201622742014
9.021352,-1.1971009,4.060566,0.06544985,-0.012531464,0.039531708,10.0,8.8902,-1.1098,3.9877,0.3181,0.0703,0.17019999,-0.269989,-0.473027,-0.322241,2017-12-24 21:37:45,38.88403027108879
8.944737,-1.1109096,4.0414124,0.0,0.0,0.0,10.0,8.8836,-1.1244,3.9982998,0.3247,-0.121,0.2479,-0.27495,-0.469622,-0.329613,2017-12-24 21:37:46,39.10074102322119
8.42759,-1.6567876,4.7309427,-0.22879522,0.30787608,0.017715093,13.0,8.5542,-1.3591,4.5986,0.104899995,-0.1706,0.3047,-0.28780898,-0.425521,-0.361193,2017-12-24 21:37:47,26.964205560269537
9.32781,-0.5650316,3.6870706,0.07417649,-0.06462954,0.054262288,8.0,9.1172,-0.44849998,3.5837998,0.40489998,-0.1889,0.27989998,-0.289819,-0.481531,-0.390448,2017-12-24 21:37:48,36.637022501742116
9.050082,1.0726024,3.6487634,0.3277903,-0.21242402,-0.00572468,13.0,8.941999,0.77559996,3.9506998,0.011399999,-0.059699997,0.079799995,-0.226675,-0.497415,-0.413763,2017-12-24 21:37:49,38.39217730502962
9.193734,0.32561144,3.8019924,-0.16334537,0.037088245,0.03544764,10.0,9.025499,0.5431,3.7967,0.44759998,-0.16059999,-0.0309,-0.229638,-0.504502,-0.389051,2017-12-24 21:37:50,35.33930061752032
9.385271,0.076614454,3.3901896,-0.03626794,-0.07253588,0.07771951,10.0,9.1984,0.2899,3.3874,0.4709,-0.2409,0.1919,-0.242883,-0.517972,-0.371439,2017-12-24 21:37:51,39.16101187813387
9.442732,0.1340753,3.1507695,0.0,0.0,0.0,8.0,9.3335,0.1347,3.0061,0.3161,-0.0661,0.082899995,-0.260106,-0.528209,-0.367452,2017-12-24 21:37:52,37.587761541621745
9.548077,0.12449849,2.777274,-0.04117232,0.08644616,-0.053162728,8.0,9.4036,0.13509999,2.7789,0.22639999,0.011899999,-0.0232,-0.269182,-0.534652,-0.370473,2017-12-24 21:37:53,36.65948561145996
9.270349,0.11492168,2.6527755,-0.0567232,0.03926991,-0.03544764,8.0,9.4295,0.13849999,2.6896,0.1416,0.0771,-0.3261,-0.26573,-0.540845,-0.362865,2017-12-24 21:37:54,34.72565626733746
9.461885,0.1436521,2.9975405,0.13007939,0.036808994,-0.020996312,8.0,9.3998995,0.0835,2.7935998,0.15169999,0.033999998,0.2268,-0.269107,-0.533991,-0.367064,2017-12-24 21:37:55,37.94695058361895
9.548077,0.35434186,3.514688,-0.08370599,0.12843879,-0.030264009,8.0,9.2999,0.5589,3.0609,0.438,-0.117599994,0.30269998,-0.270502,-0.520608,-0.415051,2017-12-24 21:37:56,31.830219224952636
9.222465,0.545878,2.96881,0.085887656,-0.0032637657,0.10662217,10.0,9.2324,0.6701,3.2377,0.2505,-0.062099997,-0.17809999,-0.256548,-0.518459,-0.411763,2017-12-24 21:37:57,38.58915987351028
7.4507556,4.213795,5.439626,-0.502585,0.4046895,-0.9236457,10.0,8.664,2.3831,3.9275,1.5643,4.0892,0.6325,-0.204426,-0.509772,-0.518693,2017-12-24 21:37:58,39.93779314349054
8.456321,3.6296098,3.763685,-0.16470672,-0.046896998,0.002443461,10.0,8.2869,3.5066998,3.8987,0.3331,0.2296,-0.2604,-0.217263,-0.504523,-0.604015,2017-12-24 21:37:59,56.56279819623183
8.37013,3.4380736,3.5913026,0.053983033,0.06571165,-0.07335619,10.0,8.3918,3.3302,3.8281999,0.5223,0.102,0.1041,-0.225871,-0.503778,-0.59769,2017-12-24 21:38:00,35.19601397945098
8.293514,3.4380736,3.8402996,0.09953613,0.051539574,0.006544985,10.0,8.3324995,3.3718,3.9204,0.120799996,0.2075,-0.0468,-0.223337,-0.49984,-0.602943,2017-12-24 21:38:01,51.025735703188886
8.992621,1.9249382,3.620033,-0.42078143,-0.23724261,0.42704716,10.0,8.7174,2.5451,3.7010999,0.4811,-0.5053,0.093899995,-0.271382,-0.487487,-0.590696,2017-12-24 21:38:02,31.020964262119936
9.050082,1.7717092,3.5242648,0.0,0.0,0.0,10.0,8.9436,1.7881,3.6032,0.3432,0.0162,0.1428,-0.286108,-0.484088,-0.55205,2017-12-24 21:38:03,37.50925831376344
8.954314,1.8962077,3.6008794,0.0,0.0,0.0,10.0,8.9283,1.8082999,3.6309998,0.28,0.0941,0.1248,-0.28454,-0.483636,-0.552992,2017-12-24 21:38:04,39.65183100190161
8.935161,1.9632454,3.5913026,0.23151793,0.027803095,0.035709437,10.0,8.9416,1.8464999,3.5786998,0.20789999,0.1344,0.0594,-0.283941,-0.486733,-0.551983,2017-12-24 21:38:05,38.38894130718853
9.002198,1.8962077,3.5434184,0.0,0.0,0.0,10.0,8.937099,1.8533,3.5865,0.25169998,0.0392,0.1105,-0.28721198,-0.484401,-0.557007,2017-12-24 21:38:06,36.3643711703807
8.90643,1.8674773,3.6583402,0.12161454,0.0286234,0.04717625,10.0,8.9249,1.8273,3.6297998,0.254,0.0064999997,0.1064,-0.28459,-0.483628,-0.554053,2017-12-24 21:38:07,34.10961927370631
9.069236,1.6663644,3.7445314,0.0,0.0,0.0,10.0,8.9232,1.7565,3.6687999,0.3538,-0.059899997,0.1655,-0.289648,-0.47858799,-0.558058,2017-12-24 21:38:08,37.17637222456485
9.030929,1.7621324,3.6966474,0.0,0.0,0.0,10.0,8.9217,1.7414999,3.6794999,0.35529998,0.0137,0.1156,-0.289823,-0.477624,-0.557966,2017-12-24 21:38:09,26.494991486958366
8.983045,1.7046716,3.667917,0.0,0.0,0.0,10.0,8.9258995,1.7342,3.6729,0.2825,0.0211,0.0535,-0.287778,-0.479494,-0.554357,2017-12-24 21:38:10,30.76253483494195
8.983045,1.7142484,3.715801,0.0,0.0,0.0,10.0,8.9207,1.706,3.6987,0.2877,0.039499998,0.0277,-0.287893,-0.477824,-0.55426,2017-12-24 21:38:11,34.45177384891937
9.040505,1.7429788,3.7445314,0.0,0.0,0.0,10.0,8.9106,1.7005999,3.7254,0.31739998,0.0743,0.1285,-0.290871,-0.474812,-0.558992,2017-12-24 21:38:12,37.3585242192975
9.030929,1.6567876,3.7349546,0.0,0.0,0.0,10.0,8.9148,1.6736,3.7273998,0.3229,0.0425,0.1069,-0.289774,-0.475731,-0.555644,2017-12-24 21:38:13,40.043468367751316
9.021352,1.6663644,3.620033,0.0,0.0,0.0,10.0,8.9101,1.6629,3.7436,0.28849998,0.063,0.0711,-0.291809,-0.473468,-0.558372,2017-12-24 21:38:14,40.13598154214059
8.992621,1.6950948,3.6966474,0.0,0.0,0.0,10.0,8.9122,1.6231999,3.7559,0.31579998,0.1125,0.22549999,-0.290907,-0.47314999,-0.555419,2017-12-24 21:38:15,43.43149577111519
9.059659,1.6759412,3.763685,0.0,0.0,0.0,10.0,8.9051,1.6243999,3.7721999,0.3425,0.0328,0.0523,-0.293175,-0.47087,-0.559404,2017-12-24 21:38:16,34.28602462029535
8.935161,1.6567876,3.8019924,0.0,0.0,0.0,10.0,8.8970995,1.6299,3.7886999,0.2622,0.0469,0.0848,-0.292132,-0.470672,-0.559436,2017-12-24 21:38:17,32.19481375574426
8.944737,1.6089035,3.86903,0.0,0.0,0.0,10.0,8.9105,1.5804,3.7781,0.22919999,0.0572,0.1347,-0.293637,-0.470263,-0.557302,2017-12-24 21:38:18,37.650759308573186
8.916007,1.6089035,3.9935284,-0.0662527,-0.011990412,-0.03817035,10.0,8.8919,1.5875,3.8186998,0.22809999,0.0501,0.19219999,-0.289998,-0.47025,-0.555478,2017-12-24 21:38:19,37.67941617602712
8.954314,1.5993267,3.7924154,0.0,0.0,0.0,10.0,8.9015,1.5673,3.8046,0.2382,0.0998,0.1964,-0.292083,-0.46979,-0.55587,2017-12-24 21:38:20,35.86222895771609
8.992621,1.4173675,3.7924154,0.08644616,-0.0032637657,0.10608111,10.0,8.951799,1.4315,3.7396,0.2565,0.0296,0.0751,-0.296494,-0.470439,-0.548659,2017-12-24 21:38:21,37.22932114851495
8.954314,1.484405,3.8402996,0.0,0.0,0.0,10.0,8.9428,1.4259,3.7633,0.2165,-0.023599999,0.12,-0.294315,-0.470727,-0.546405,2017-12-24 21:38:22,40.43266897167575
9.021352,1.4652514,3.8115692,0.10826277,0.012531464,0.012269665,10.0,8.9464,1.4405,3.7491,0.2717,-0.0186,0.0656,-0.297377,-0.46965998,-0.550456,2017-12-24 21:38:23,41.53080085433576
9.040505,1.4173675,3.763685,-0.10115928,0.010349803,-0.04117232,10.0,8.9509,1.4316,3.7417,0.2967,0.0687,-0.0053999997,-0.298874,-0.468742,-0.551856,2017-12-24 21:38:24,43.83550440708067
8.973468,1.3599066,3.8019924,0.0,0.0,0.0,10.0,8.9453,1.383,3.7733,0.34149998,0.019199999,0.1296,-0.299566,-0.466706,-0.551079,2017-12-24 21:38:25,49.57705278061517
8.983045,1.3790601,3.86903,0.0,0.0,0.0,10.0,8.9258995,1.3998,3.8128,0.3511,0.100499995,0.0804,-0.296509,-0.466528,-0.550834,2017-12-24 21:38:26,34.06605639007084
9.002198,1.4173675,3.8594532,-0.07143632,0.020176006,-0.021816615,10.0,8.9258995,1.4189,3.8056998,0.2628,0.0618,0.038399998,-0.296145,-0.46718,-0.550967,2017-12-24 21:38:27,36.304382046523706
9.021352,1.3790601,3.9935284,0.0,0.0,0.0,10.0,8.9193,1.3810999,3.8351998,0.2891,-0.076799996,0.1266,-0.298016,-0.464599,-0.55212,2017-12-24 21:38:28,37.37573403109092
8.992621,1.3215994,3.7732618,0.0,0.0,0.0,10.0,8.947599,1.3052,3.7954998,0.2803,0.0578,0.1761,-0.302607,-0.463585,-0.551098,2017-12-24 21:38:29,40.563343462247914
9.011775,1.3790601,3.8307228,0.0,0.0,0.0,10.0,8.9382,1.3205999,3.8123999,0.2604,0.1013,0.18859999,-0.299957,-0.46433198,-0.549768,2017-12-24 21:38:30,39.6192747563016
9.040505,1.3311762,3.8786068,0.0,0.0,0.0,10.0,8.9321995,1.3029,3.8323,0.3153,0.0209,0.0804,-0.300732,-0.462723,-0.550514,2017-12-24 21:38:31,37.24179192469065
8.983045,1.4077905,3.8881836,0.0,0.0,0.0,10.0,8.925099,1.3224,3.8421998,0.2342,0.0994,0.1294,-0.297939,-0.46403798,-0.548729,2017-12-24 21:38:32,40.76848349239911
9.002198,1.3311762,4.0222588,-0.07798131,0.0054454273,-0.013351769,10.0,8.9198,1.3202,3.8553,0.318,0.042799998,0.283,-0.299508,-0.462306,-0.551463,2017-12-24 21:38:33,36.30161762714772
9.011775,1.2354081,3.9839516,0.0,0.0,0.0,10.0,8.9229,1.2933999,3.8572,0.3541,0.0696,0.1732,-0.29852,-0.462691,-0.548321,2017-12-24 21:38:34,38.767866853072505
8.954314,1.283292,3.9839516,0.0,0.0,0.0,10.0,8.9074,1.2832999,3.8962998,0.2814,0.0405,0.124299996,-0.299873,-0.4598,-0.551777,2017-12-24 21:38:35,40.389915796597215
9.337387,-0.05746084,4.357447,-0.72375315,0.60376173,0.2945243,10.0,8.840099,0.7686,4.1749,1.5841999,-1.0921999,0.542,-0.316527,-0.430688,-0.552337,2017-12-24 21:38:36,41.341386925787454
7.9870567,1.5035586,5.6886234,-0.34850734,-0.3005108,0.0021816615,10.0,7.6717997,1.5141,5.9177,0.5068,0.0254,-0.092599995,-0.23730099,-0.376784,-0.614846,2017-12-24 21:38:37,40.986780592452554
8.264784,1.8004397,4.865018,0.3577925,0.09871582,0.14971434,16.0,8.044499,1.6717,5.3535,0.31059998,0.40719998,-0.58739996,-0.25103,-0.404561,-0.606494,2017-12-24 21:38:38,39.542557793457604
6.435614,0.58418524,7.8625584,-0.07689921,0.17589428,0.002443461,2.0,6.3093,0.5234,7.4891,0.212,0.163,0.5816,-0.160039,-0.303688,-0.506028,2017-12-24 21:38:39,31.2772116427072
8.983045,-0.8523358,2.5187001,-0.057805303,-0.49986228,0.28415707,2.0,9.0842,-1.2454,3.4779,0.3694,-0.0196,-0.64379996,-0.344165,-0.455731,-0.396271,2017-12-24 21:38:40,41.438058758972645
10.055647,-0.47884035,4.213795,0.5205968,-0.2159845,-0.7976678,2.0,9.332,-1.2858,2.7257,1.4943999,0.88379997,1.1281999,-0.224741,-0.556155,-0.203924,2017-12-24 21:38:41,54.269489111717476
8.925584,1.3694834,3.1124623,-1.4998837,0.15570082,-0.3815115,5.0,9.1802,0.9887,3.3039,1.3127999,0.3057,0.6579,-0.2225,-0.531298,-0.396165,2017-12-24 21:38:42,51.053926805089475
9.797073,-1.9919758,2.72939,-1.7477727,-0.07199483,0.631303,5.0,8.9225,1.0494,3.9315,0.6389,-2.6675,-1.9799999,-0.24388699,-0.49375,-0.448715,2017-12-24 21:38:43,46.3536738215189
3.9264908,-0.90979666,-0.62249243,-0.28579766,0.36514032,-0.20833996,13.0,9.2824,1.3535,2.8590999,-4.2026,-3.3148,-5.3107,-0.159493,-0.5734,-0.324804,2017-12-24 21:38:44,38.24840456058563
9.710882,0.038307227,1.8483237,0.14943509,0.007906342,0.029443704,13.0,9.6335,0.0639,1.8333,0.3202,0.0341,0.0495,-0.276468,-0.574524,-0.338703,2017-12-24 21:38:45,41.685563148022396
9.710882,0.02873042,1.8579005,-0.10744247,-0.020176006,0.006806784,16.0,9.628099,0.059699997,1.8615999,0.31579998,-0.030299999,0.040799998,-0.279218,-0.571993,-0.342685,2017-12-24 21:38:46,56.224386769397455
9.682152,0.05746084,1.8004397,-0.07826056,0.07826056,0.019634955,10.0,9.6277,0.056599997,1.8637999,0.3162,0.021699999,0.1268,-0.279099,-0.571902,-0.342385,2017-12-24 21:38:47,55.31352917441371
9.720459,0.009576807,1.8962077,-0.13580407,0.016894788,0.0027227136,13.0,9.625299,0.0528,1.8759999,0.2597,-0.0332,0.0264,-0.28593498,-0.567951,-0.350787,2017-12-24 21:38:48,55.061802746174415
9.634268,0.05746084,1.8579005,-0.1338842,0.018535396,-0.022078415,13.0,9.6276,0.057099998,1.8643999,0.26729998,-0.0179,0.106599994,-0.282548,-0.570189,-0.346576,2017-12-24 21:38:49,55.00132774466764
9.710882,0.019153614,1.934515,-0.12925908,0.007347836,-0.032986723,10.0,9.6305,0.0548,1.8493999,0.3232,0.023599999,0.0628,-0.273622,-0.57502997,-0.335218,2017-12-24 21:38:50,57.25061733064056
9.730036,0.076614454,1.8291701,0.0760789,0.0021816615,0.014992379,16.0,9.632,0.0635,1.841,0.3412,-0.0046,0.0614,-0.273845,-0.575529,-0.335743,2017-12-24 21:38:51,38.48939436006502
9.691729,0.047884032,1.8866309,0.10962413,0.013351769,0.02125811,16.0,9.629499,0.062699996,1.854,0.30449998,-0.0137,0.0288,-0.270629,-0.576191,-0.332242,2017-12-24 21:38:52,38.97021956060363
9.691729,0.095768064,1.8100165,0.0,0.0,0.0,16.0,9.628699,0.0552,1.8584,0.2857,0.0232,0.053799998,-0.270229,-0.576388,-0.331371,2017-12-24 21:38:53,40.92803185240777
9.682152,0.047884032,1.8770541,0.076358154,-0.0095294975,0.0095294975,16.0,9.6296,0.061199997,1.8536999,0.29459998,-0.0023999999,0.078099996,-0.26711,-0.578125,-0.327818,2017-12-24 21:38:54,36.657391033456896
9.691729,0.076614454,1.8770541,-0.072797686,0.025900686,-0.0051661744,16.0,9.6304,0.0479,1.8499999,0.2938,0.030399999,0.072,-0.272586,-0.575616,-0.333536,2017-12-24 21:38:55,33.22874765465188
9.730036,0.076614454,1.8483237,0.15271631,0.006806784,0.03190462,16.0,9.6257,0.0536,1.8741,0.2789,0.0149,0.0381,-0.267436,-0.576995,-0.328428,2017-12-24 21:38:56,35.0717971084758
9.739613,0.02873042,1.8195933,0.07199483,0.018256145,0.027541295,16.0,9.626599,0.061199997,1.8691,0.278,0.0074,0.0725,-0.273496,-0.5745,-0.336052,2017-12-24 21:38:57,37.38889886085136
9.662998,0.095768064,1.8770541,-0.11070623,0.012269665,-0.014992379,16.0,9.6303,0.0643,1.8499,0.24489999,0.0042999997,-0.0357,-0.272108,-0.57574,-0.334195,2017-12-24 21:38:58,37.65894884808448
9.730036,0.10534488,1.9057846,-0.14997615,0.0109083075,-0.024260076,16.0,9.630099,0.0642,1.8512,0.31379998,-0.0053999997,0.0512,-0.271479,-0.575978,-0.333448,2017-12-24 21:38:59,34.51478445314568
9.691729,0.076614454,1.934515,-0.076358154,-0.00408407,-0.011990412,16.0,9.6265,0.0643,1.8695999,0.25849998,-0.0545,0.0916,-0.267426,-0.577197,-0.329031,2017-12-24 21:39:00,37.41263655622116
9.701305,0.047884032,1.8674773,-0.11016518,0.012810716,-0.017994344,16.0,9.627399,0.058199998,1.865,0.27719998,0.03,0.047199998,-0.267694,-0.577293,-0.328714,2017-12-24 21:39:01,40.73406203566367
9.730036,0.019153614,1.8387469,-0.07744026,0.014451326,-0.008726646,16.0,9.6299,0.061199997,1.8522999,0.2943,0.0072999997,0.030499998,-0.269889,-0.576864,-0.331146,2017-12-24 21:39:02,39.39059287203085
9.653421,0.038307227,1.9249382,-0.14997615,0.01308997,-0.02453933,16.0,9.627,0.0585,1.8671999,0.2776,-0.0389,0.0744,-0.27135,-0.575471,-0.333276,2017-12-24 21:39:03,26.43982882895379
9.710882,0.02873042,1.9249382,-0.036808994,-0.02617994,-0.06298893,16.0,9.628699,0.059699997,1.8585,0.2661,-0.020499999,0.0733,-0.270287,-0.576329,-0.331737,2017-12-24 21:39:04,44.71771178467294
9.682152,0.05746084,1.9536686,-0.11016518,0.014172073,-0.016894788,13.0,9.6282,0.0669,1.861,0.2765,-0.007999999,0.0316,-0.271835,-0.575514,-0.334249,2017-12-24 21:39:05,41.24799502552583
9.682152,0.05746084,1.8483237,0.12407546,-0.0021816615,0.057526052,13.0,9.6268,0.055099998,1.8682,0.2974,0.033099998,0.044,-0.267766,-0.577083,-0.328826,2017-12-24 21:39:06,39.20777358286775
9.672575,0.06703765,1.8195933,0.10716321,0.0054454273,0.032986723,13.0,9.6318,0.0567,1.8421999,0.2826,0.0315,0.0602,-0.266992,-0.578668,-0.327075,2017-12-24 21:39:07,39.03966681736803
9.691729,0.038307227,1.9057846,0.0,0.0,0.0,13.0,9.625899,0.0521,1.8733,0.2886,0.0262,0.0389,-0.26991498,-0.575923,-0.33125,2017-12-24 21:39:08,39.64164721059973
9.701305,0.02873042,1.8962077,-0.19989257,-8.0285146E-4,-0.03598869,16.0,9.6299,0.058599997,1.8522999,0.22569999,-0.019299999,0.0501,-0.267574,-0.577986,-0.328183,2017-12-24 21:39:10,36.699939205355186
9.672575,0.038307227,1.8866309,0.0,0.0,0.0,13.0,9.630799,0.058199998,1.8475,0.3032,0.039699998,0.0255,-0.272724,-0.575673,-0.334294,2017-12-24 21:39:11,37.78380212498769
9.720459,0.076614454,1.8866309,0.13444272,0.018256145,-0.017453292,13.0,9.6272,0.052899998,1.8664,0.25779998,0.0255,0.0752,-0.273482,-0.574366,-0.335632,2017-12-24 21:39:12,39.87162759008784
9.749189,0.076614454,1.9057846,0.1996133,0.006544985,0.036808994,16.0,9.6257,0.063099995,1.874,0.2888,0.0348,0.0774,-0.265945,-0.577686,-0.32731,2017-12-24 21:39:13,33.17488114290891
9.691729,0.08619126,1.8579005,0.06789331,0.03626794,0.007906342,13.0,9.632299,0.065,1.8395,0.3017,0.0034999999,0.023699999,-0.266779,-0.578817,-0.32708,2017-12-24 21:39:14,35.56395419289848
9.682152,0.05746084,1.8866309,-0.07798131,0.009267698,-0.011990412,16.0,9.6284,0.0513,1.8604,0.2861,-0.0513,0.0224,-0.27131099,-0.575789,-0.332472,2017-12-24 21:39:15,30.93730769179873
9.691729,0.076614454,1.8100165,0.0,0.0,0.0,13.0,9.6278,0.050899997,1.8632,0.2572,0.0176,0.0686,-0.275372,-0.573781,-0.337411,2017-12-24 21:39:16,35.09979154124081
9.720459,0.047884032,1.8387469,-0.07826056,0.00408407,-0.01308997,13.0,9.630899,0.057299998,1.8471999,0.3032,-0.0279,0.045399997,-0.272994,-0.575568,-0.334429,2017-12-24 21:39:17,29.362199037016232
9.758766,0.06703765,1.8291701,-0.0760789,-0.0035430184,-0.014451326,13.0,9.629499,0.0654,1.8542,0.30449998,0.022799999,0.009,-0.269825,-0.576681,-0.331429,2017-12-24 21:39:18,34.92036033885446
9.701305,0.038307227,1.8674773,-0.06981317,0.033527777,-0.0021816615,13.0,9.6284,0.065,1.8599,0.2959,-0.0257,0.0032,-0.271435,-0.575834,-0.333385,2017-12-24 21:39:19,32.902374435435846
9.739613,0.076614454,1.8291701,0.17179276,0.015812684,0.031625368,13.0,9.6296,0.067999996,1.8535999,0.3241,-0.067999996,0.1175,-0.269695,-0.576909,-0.331496,2017-12-24 21:39:20,33.83665602781562
9.701305,0.05746084,1.8004397,-0.110444434,-0.00572468,-0.019634955,13.0,9.632299,0.0665,1.8396,0.3116,0.0117999995,0.121599995,-0.268087,-0.578415,-0.328745,2017-12-24 21:39:21,35.935157212038774
9.701305,0.038307227,1.7717092,0.10770427,0.0019024089,0.020176006,13.0,9.631,0.065299995,1.8463999,0.33249998,0.0424,0.065799996,-0.272929,-0.575644,-0.334945,2017-12-24 21:39:22,40.11900822556848
9.691729,0.05746084,1.8866309,0.0,0.0,0.0,16.0,9.6319,0.0548,1.8420999,0.2826,0.023599999,0.0603,-0.271642,-0.576586,-0.332392,2017-12-24 21:39:23,37.544456922062494
9.691729,0.019153614,1.8866309,0.10880382,-0.018256145,0.020996312,13.0,9.6297,0.0563,1.8534,0.2651,0.0221,0.0686,-0.268689,-0.577328,-0.329416,2017-12-24 21:39:24,43.53030584458919
9.682152,0.076614454,1.8483237,0.15379842,0.0032637657,0.027262043,13.0,9.6306,0.0638,1.8483,0.2838,0.0244,0.0933,-0.26732,-0.578163,-0.328152,2017-12-24 21:39:25,38.304790989493846
9.691729,0.06703765,1.8483237,-0.07171558,0.023998277,-0.023998277,16.0,9.629499,0.0687,1.854,0.2653,-1.0E-4,0.019,-0.268091,-0.577612,-0.329675,2017-12-24 21:39:26,36.55737188523629
9.682152,0.047884032,1.9249382,0.0,0.0,0.0,16.0,9.628799,0.0642,1.8578,0.2954,0.014099999,0.0936,-0.268974,-0.576999,-0.33049,2017-12-24 21:39:27,36.36824237734997
9.720459,0.076614454,1.8291701,0.0,0.0,0.0,16.0,9.628799,0.0559,1.8579999,0.30519998,0.0224,0.054199997,-0.272035,-0.575553,-0.333594,2017-12-24 21:39:28,40.869780153978574
9.691729,0.08619126,1.8579005,-0.11016518,0.013892821,-0.017453292,13.0,9.6271,0.062,1.8664,0.29709998,-0.0325,0.0752,-0.270407,-0.576045,-0.332473,2017-12-24 21:39:29,40.129789797423285
9.730036,0.08619126,1.9057846,-0.07579965,0.012810716,-0.009267698,16.0,9.630199,0.0635,1.8506999,0.2941,-0.0341,0.0517,-0.269615,-0.577016,-0.330963,2017-12-24 21:39:30,35.72055263216186
9.691729,0.076614454,1.8100165,-0.07361799,-0.006806784,-0.02289872,16.0,9.63,0.060399998,1.8519,0.32369998,-0.0016,0.0308,-0.273532,-0.575041,-0.335433,2017-12-24 21:39:31,35.17601209781217
9.710882,0.076614454,1.8579005,-0.07307693,0.022078415,-0.013351769,16.0,9.631599,0.0647,1.8432,0.31219998,0.0137,0.0592,-0.263849,-0.580005,-0.323834,2017-12-24 21:39:32,36.42202126876881
9.682152,0.076614454,1.8770541,0.10988593,0.0016231562,0.022619467,16.0,9.6298,0.0403,1.8531,0.33359998,-0.0207,0.0689,-0.268979,-0.575991,-0.330931,2017-12-24 21:39:33,42.766007662262155
9.672575,0.06703765,1.8962077,0.08316494,0.074717544,0.011170107,16.0,9.6299,0.061199997,1.8522999,0.31399998,0.0072999997,0.0501,-0.268442,-0.577534,-0.329515,2017-12-24 21:39:34,42.588699743264975
9.710882,0.047884032,1.9153614,-0.07497934,0.017994344,-0.0070860367,16.0,9.63,0.065,1.8514999,0.2844,0.0133,0.1196,-0.269986,-0.57669,-0.331695,2017-12-24 21:39:35,36.44988495237136
9.653421,0.02873042,1.9249382,-0.16824974,0.016632987,-0.027541295,16.0,9.626599,0.0689,1.8687999,0.3074,0.0095,0.043399997,-0.270903,-0.575535,-0.333543,2017-12-24 21:39:36,39.92574226955709
9.672575,0.06703765,1.8579005,-0.13498376,0.008726646,-0.021816615,16.0,9.627399,0.0605,1.8650999,0.23799999,-0.0016,0.0765,-0.26753598,-0.577347,-0.32887,2017-12-24 21:39:37,38.973130247641144
9.653421,0.047884032,1.8483237,-0.17315412,0.0021816615,-0.0283616,16.0,9.6289,0.0643,1.8571999,0.3247,-0.0053999997,0.0648,-0.265575,-0.578665,-0.326233,2017-12-24 21:39:38,38.609766236007836
9.672575,0.047884032,1.9249382,-0.103620194,0.034627333,-0.010349803,16.0,9.6303,0.0594,1.8503,0.343,-0.0202,0.0815,-0.26755,-0.577993,-0.32816,2017-12-24 21:39:39,37.63147108903861
9.682152,0.05746084,1.8770541,0.07007497,0.03190462,0.0095294975,16.0,9.6291,0.0616,1.8561,0.3049,0.0168,0.0953,-0.264044,-0.579207,-0.324392,2017-12-24 21:39:40,32.719914500192246
9.691729,0.06703765,1.8483237,-0.1311615,0.01144936,-0.023177972,16.0,9.628099,0.061199997,1.8614,0.2961,0.0072999997,0.0312,-0.263922,-0.579062,-0.324432,2017-12-24 21:39:41,32.72781535858673
9.691729,0.05746084,1.9057846,0.07716101,0.0095294975,0.015812684,16.0,9.6243,0.053999998,1.8814,0.2803,0.0047,0.109299995,-0.269735,-0.575602,-0.331489,2017-12-24 21:39:42,35.27442192258742
9.691729,0.05746084,1.8770541,-0.17153096,0.019355701,-0.030543262,16.0,9.623099,0.0635,1.887,0.33049998,0.005,0.0546,-0.272403,-0.57423997,-0.335626,2017-12-24 21:39:43,35.618732404139585
9.682152,0.076614454,1.9153614,0.110444434,0.0010821042,0.02125811,16.0,9.6247,0.0536,1.879,0.2995,0.024799999,0.0528,-0.269902,-0.575415,-0.331747,2017-12-24 21:39:44,35.66783184391095
9.682152,0.038307227,1.8483237,0.0,0.0,0.0,16.0,9.6311,0.062299997,1.8458999,0.3324,0.0061999997,0.026999999,-0.26704898,-0.578403,-0.327518,2017-12-24 21:39:45,39.559473085729095
9.710882,0.05746084,1.9249382,-0.07417649,0.008447394,-0.020176006,16.0,9.627299,0.0756,1.8652999,0.32639998,0.042,0.076299995,-0.26737,-0.57741797,-0.329688,2017-12-24 21:39:46,35.49412520497692
9.710882,0.10534488,1.8291701,-0.07689921,0.0,-0.019355701,16.0,9.6291,0.0669,1.856,0.3049,0.0115,0.0464,-0.267924,-0.577477,-0.329504,2017-12-24 21:39:47,37.1908827517123
9.710882,0.076614454,1.8770541,0.11206759,0.0046251225,0.006265732,16.0,9.6307,0.0703,1.8477,0.3033,0.0179,0.0155,-0.269384,-0.577255,-0.331073,2017-12-24 21:39:48,35.3398344436945
9.710882,0.076614454,1.8770541,0.0,0.0,0.0,16.0,9.6255,0.067999996,1.8747,0.3478,-0.009099999,0.0081,-0.267728,-0.576879,-0.329804,2017-12-24 21:39:49,32.16849723965562
9.710882,0.038307227,1.8866309,-0.10716321,0.014713125,-0.017715093,16.0,9.6222,0.0638,1.8917999,0.3217,-0.0246,0.04,-0.267918,-0.575924,-0.330304,2017-12-24 21:39:50,35.81269830688566
9.710882,0.076614454,1.8579005,-0.12871803,0.040072758,-0.023998277,16.0,9.627399,0.0574,1.8655,0.3067,0.021,0.0663,-0.270791,-0.575809,-0.332459,2017-12-24 21:39:51,40.026789851668376
9.653421,0.02873042,1.9057846,0.076358154,-5.410521E-4,0.021537364,16.0,9.63,0.062699996,1.8518,0.32369998,-0.0039,0.040799998,-0.27002,-0.576723,-0.331478,2017-12-24 21:39:52,35.8214418163045
9.653421,0.10534488,1.8770541,-0.10826277,-0.021816615,-0.020717058,16.0,9.627,0.0585,1.8671999,0.3266,2.0E-4,-0.0235,-0.270296,-0.575979,-0.331907,2017-12-24 21:39:53,35.08374826654212
9.682152,0.076614454,1.9440918,0.1055226,0.002984513,0.029443704,16.0,9.628799,0.0651,1.8577,0.2856,-0.015999999,0.0545,-0.266218,-0.578364,-0.327182,2017-12-24 21:39:54,36.64516668927706
9.662998,0.076614454,1.9440918,-0.020996312,0.07389724,0.010629055,16.0,9.6248,0.059699997,1.8786999,0.2602,-0.0106999995,0.1021,-0.2696,-0.575781,-0.331645,2017-12-24 21:39:55,36.17633716885975
9.710882,-0.009576807,1.9440918,0.10934488,-0.007347836,0.02480113,16.0,9.625199,0.0646,1.8765,0.3285,-0.0156,0.0651,-0.264958,-0.578052,-0.32632,2017-12-24 21:39:56,40.736118824653474
9.701305,0.06703765,1.8387469,0.0,0.0,0.0,16.0,9.6244,0.058199998,1.8806,0.29,-0.0288,0.0806,-0.274399,-0.573394,-0.337386,2017-12-24 21:39:57,40.19028422642259
9.672575,0.076614454,1.8770541,0.10007718,0.025080381,0.037350047,16.0,9.6271,0.061199997,1.8664999,0.31669998,-0.0023999999,0.055499997,-0.274848,-0.573838,-0.337672,2017-12-24 21:39:58,36.19114209667246
9.662998,0.02873042,1.8674773,0.07417649,-0.002984513,0.021537364,16.0,9.629399,0.0639,1.8543999,0.3242,0.0047,0.0186,-0.265053,-0.578976,-0.325626,2017-12-24 21:39:59,39.626730757254066
9.701305,0.02873042,1.8483237,0.10962413,0.014172073,0.019634955,16.0,9.6278,0.060099997,1.8629999,0.29639998,-0.0307,0.0296,-0.269704,-0.576431,-0.33125,2017-12-24 21:40:00,30.110064620623934
9.672575,0.047884032,1.8004397,-0.10962413,0.00408407,-0.02453933,16.0,9.6282,0.0665,1.861,0.2961,0.0021,0.090399995,-0.270745,-0.576052,-0.332884,2017-12-24 21:40:01,29.281060765755523
9.701305,0.076614454,1.9057846,0.07307693,0.013892821,0.027541295,16.0,9.627999,0.0677,1.8615999,0.2766,0.0106999995,0.0898,-0.267517,-0.577562,-0.329043,2017-12-24 21:40:02,39.51201324991254
9.662998,0.076614454,1.9057846,0.0,-0.07007497,-0.084264494,16.0,9.6234,0.0642,1.8856,0.29099998,0.024,0.036399998,-0.270589,-0.575174,-0.33309,2017-12-24 21:40:03,36.2981974229671
9.720459,0.047884032,1.9153614,0.0760789,5.410521E-4,0.014172073,16.0,9.625199,0.0638,1.8765,0.3187,0.0145,0.0455,-0.268596,-0.576353,-0.330678,2017-12-24 21:40:04,35.0006379162818
9.691729,0.08619126,1.9536686,-0.1044405,0.037891097,-0.017453292,16.0,9.627,0.057699997,1.8673999,0.31689999,-0.0185,0.0841,-0.269838,-0.576183,-0.331525,2017-12-24 21:40:05,35.4388963676257
9.701305,0.076614454,1.8674773,0.110444434,0.0027227136,0.020437805,16.0,9.6251,0.059299998,1.8769,0.2795,-4.9999997E-4,0.035299998,-0.271763,-0.57494,-0.334099,2017-12-24 21:40:06,36.1416794859572
9.662998,0.076614454,1.8100165,-0.10826277,0.0010821042,-0.017453292,16.0,9.629499,0.059299998,1.8544999,0.285,-4.9999997E-4,0.0479,-0.267855,-0.577664,-0.328671,2017-12-24 21:40:07,37.05621063685069
9.643845,0.076614454,1.8579005,-0.13144074,0.0046251225,-0.023177972,16.0,9.63,0.062699996,1.8515999,0.3236,-0.0039,0.021399999,-0.269274,-0.577102,-0.330578,2017-12-24 21:40:08,34.14182860306818
9.691729,0.06703765,1.8962077,-0.13334316,0.025359634,-0.017453292,16.0,9.625299,0.059299998,1.8761,0.2303,0.0093,0.0165,-0.267602,-0.576828,-0.329106,2017-12-24 21:40:09,38.33552877630299
9.682152,0.076614454,1.8962077,0.092170835,0.03926991,0.05071927,16.0,9.6284,0.061199997,1.8599999,0.26639998,0.0072999997,0.0326,-0.269539,-0.576526,-0.330952,2017-12-24 21:40:10,31.429640254491723
9.682152,0.038307227,1.8770541,0.13470452,0.0035430184,0.02453933,16.0,9.6265,0.0479,1.8702999,0.288,-0.0185,0.081099994,-0.265755,-0.577881,-0.325864,2017-12-24 21:40:11,28.06020901465692
9.682152,0.038307227,1.8770541,-0.12980014,0.012269665,-0.029164452,16.0,9.627,0.059,1.8672999,0.2678,0.029199999,0.093899995,-0.266863,-0.577569,-0.327936,2017-12-24 21:40:12,29.79339200620077
9.691729,0.02873042,1.8579005,0.14889404,0.0054454273,0.03190462,16.0,9.6268,0.055499997,1.8682,0.30719998,0.0327,0.0734,-0.272899,-0.574501,-0.335034,2017-12-24 21:40:13,37.39063416536634
9.701305,0.05746084,1.9153614,0.07880162,0.007906342,-0.0038048178,16.0,9.6277,0.0567,1.8636999,0.28669998,0.0117999995,0.0191,-0.266608,-0.577868,-0.327211,2017-12-24 21:40:14,37.16173348129757
9.682152,0.05746084,1.9440918,0.07716101,0.014172073,0.012810716,16.0,9.6263,0.0589,1.8709999,0.31759998,0.0195,0.021599999,-0.270634,-0.575496,-0.332682,2017-12-24 21:40:15,37.294403141827445
9.653421,0.047884032,1.8387469,-0.14971434,0.016894788,-0.023177972,16.0,9.6242,0.060099997,1.8815999,0.3098,0.018299999,0.0698,-0.267768,-0.57651,-0.329554,2017-12-24 21:40:16,42.58414609325931
9.710882,0.047884032,1.8674773,0.10716321,-0.006544985,0.021816615,16.0,9.6251,0.0479,1.8776,0.28939998,-0.028299998,0.0837,-0.269271,-0.576026,-0.33046,2017-12-24 21:40:17,42.93278975371397
9.672575,0.06703765,1.8674773,-0.07771951,0.012531464,-0.010629055,16.0,9.625299,0.0624,1.8758999,0.29889998,0.0061999997,-0.032199997,-0.268178,-0.576572,-0.330018,2017-12-24 21:40:18,39.36984726672004
9.691729,0.02873042,1.9249382,0.0,0.0,0.0,16.0,9.6255,0.0563,1.875,0.2889,-0.026899999,0.0568,-0.266593,-0.577534,-0.327593,2017-12-24 21:40:19,31.880007527115623
9.720459,0.076614454,1.9249382,-0.07061602,0.03626794,-8.0285146E-4,16.0,9.6228,0.057499997,1.8887,0.32099998,0.0013,0.0823,-0.273609,-0.573335,-0.336777,2017-12-24 21:40:20,36.66608205454502
9.672575,0.076614454,1.8770541,0.07579965,0.012531464,0.010088003,16.0,9.6237,0.065,1.8841,0.2613,0.0133,0.018299999,-0.269232,-0.575715,-0.331775,2017-12-24 21:40:21,39.62219236600616
9.672575,0.076614454,1.8483237,0.11016518,0.0049043754,0.021537364,16.0,9.6223,0.049799997,1.8916999,0.29209998,-0.0106,0.0106999995,-0.270142,-0.574953,-0.33204,2017-12-24 21:40:22,35.226787201869364
9.710882,0.06703765,1.8674773,-0.110444434,0.010629055,-0.017994344,16.0,9.6277,0.057099998,1.8636999,0.3161,-0.007999999,0.0093,-0.270386,-0.576158,-0.331986,2017-12-24 21:40:23,38.44593461318234
9.691729,0.047884032,1.8866309,0.07199483,-0.02480113,0.013631022,16.0,9.6241,0.057499997,1.8822999,0.31,-0.018199999,0.0299,-0.267134,-0.576773,-0.328622,2017-12-24 21:40:24,39.717331453675484
9.710882,0.095768064,1.8962077,0.07579965,0.011990412,0.010349803,16.0,9.6251,0.055099998,1.8771,0.2599,-0.0257,0.0841,-0.269045,-0.576184,-0.33053198,2017-12-24 21:40:25,41.082552163063795
9.682152,0.05746084,1.8195933,0.07307693,0.020176006,-0.016074482,16.0,9.625199,0.0673,1.8761,0.28919998,-0.0084,-0.0128,-0.269566,-0.575914,-0.332061,2017-12-24 21:40:26,36.03310348882876
9.662998,0.06703765,1.9057846,-0.10908308,0.021537364,-0.015812684,16.0,9.6209,0.049399998,1.8988999,0.2837,-4.0E-4,0.081999995,-0.267842,-0.575743,-0.329335,2017-12-24 21:40:27,39.07839632376028
9.624691,0.047884032,1.8100165,-0.07744026,0.011170107,-0.013631022,16.0,9.623,0.062,1.8879,0.3111,-0.0128999995,0.0243,-0.271748,-0.574488,-0.334827,2017-12-24 21:40:28,32.244901684046546
9.672575,0.10534488,1.9057846,-0.095713854,0.047717303,-0.023998277,16.0,9.6271,0.0605,1.8664999,0.2873,0.0179,0.085,-0.269007,-0.57663,-0.330591,2017-12-24 21:40:29,36.50714483475853
9.720459,0.05746084,1.9440918,-0.07417649,-0.0032637657,-0.022357667,16.0,9.6256,0.060799997,1.8743999,0.2888,0.0175,-0.0111,-0.26956,-0.576018,-0.331427,2017-12-24 21:40:30,39.33360964064828
9.653421,0.047884032,1.8770541,-0.0752586,0.022357667,-0.011170107,16.0,9.6265,0.058199998,1.8699,0.25849998,-0.019,0.022699999,-0.26695,-0.577343,-0.328046,2017-12-24 21:40:31,34.8055530684033
9.691729,0.095768064,1.8387469,-0.11070623,0.0035430184,-0.019355701,16.0,9.6251,0.0677,1.8769,0.2697,0.030299999,0.0843,-0.265132,-0.577824,-0.32684,2017-12-24 21:40:32,38.71446229598944
9.682152,0.06703765,1.8579005,0.13062043,0.016632987,0.023439772,16.0,9.625899,0.060799997,1.8730999,0.318,0.0175,0.0881,-0.269938,-0.575872,-0.331939,2017-12-24 21:40:33,40.755222693157776
9.662998,0.038307227,1.8579005,-0.07443829,0.0032637657,-0.020996312,16.0,9.623899,0.059,1.8834,0.28079998,-1.0E-4,0.0778,-0.270211,-0.575071,-0.332721,2017-12-24 21:40:34,38.99664929864016
9.662998,0.06703765,1.8866309,0.10662217,0.0032637657,0.025900686,16.0,9.625899,0.0651,1.8725,0.2689,0.0034999999,0.059299998,-0.264423,-0.57836,-0.325655,2017-12-24 21:40:35,30.448575012436226
9.691729,0.05746084,1.8866309,-0.06925467,0.038711403,-8.0285146E-4,16.0,9.6276,0.0646,1.8637999,0.24759999,-0.0058,0.0778,-0.271429,-0.575584,-0.333694,2017-12-24 21:40:36,39.50236269326
9.720459,0.095768064,1.8579005,0.07744026,0.014992379,0.008726646,16.0,9.6251,0.0532,1.877,0.2893,-0.0139999995,0.0941,-0.270081,-0.575738,-0.3317,2017-12-24 21:40:37,38.8879093113133
9.662998,0.05746084,1.8962077,0.1308997,0.01144936,0.024260076,16.0,9.622399,0.0589,1.8907,0.292,0.019399999,-0.0078,-0.26743,-0.576199,-0.329564,2017-12-24 21:40:38,40.10253632782188
9.701305,0.06703765,1.9249382,-0.07661995,0.0013613568,-0.011170107,16.0,9.6221,0.060799997,1.8921,0.3021,0.0175,0.0299,-0.272798,-0.573698,-0.336028,2017-12-24 21:40:39,35.337936979213545
9.691729,0.047884032,1.8770541,-0.11126474,0.014713125,-0.0049043754,16.0,9.625299,0.055499997,1.8759999,0.2499,-0.0359,0.1244,-0.2726,-0.574719,-0.334697,2017-12-24 21:40:40,34.28167962408353
9.682152,0.038307227,1.8674773,0.103620194,0.042533673,-0.007347836,16.0,9.6265,0.0594,1.8698,0.2879,0.019,0.081599995,-0.271567,-0.575258,-0.333712,2017-12-24 21:40:41,27.74278540139076
9.672575,0.076614454,1.8579005,0.10580186,0.00408407,0.028902652,16.0,9.6269,0.058199998,1.8677,0.29729998,-0.009099999,0.0543,-0.26846,-0.5768,-0.329775,2017-12-24 21:40:42,28.437513863684032
9.662998,0.05746084,1.8866309,0.0,0.0,0.0,16.0,9.6255,0.0521,1.8751999,0.2791,0.0164,0.085999995,-0.270557,-0.575528,-0.332185,2017-12-24 21:40:44,35.029159382194514
9.691729,0.038307227,1.8866309,-0.06817256,0.03626794,-0.007347836,16.0,9.6256,0.0578,1.8745999,0.2987,-0.0186,0.0572,-0.268902,-0.576302,-0.330428,2017-12-24 21:40:45,38.91104131775713
9.653421,0.05746084,1.8962077,0.11098549,0.008447394,0.0155334305,16.0,9.6251,0.0646,1.8765999,0.2795,0.0137,0.025799999,-0.269478,-0.575932,-0.331781,2017-12-24 21:40:46,28.089806903326693
9.701305,0.076614454,1.8962077,0.10962413,-0.015271631,0.019634955,16.0,9.6276,0.062,1.864,0.326,-0.0326,0.077599995,-0.272828,-0.574886,-0.33522,2017-12-24 21:40:47,36.86023854416376
9.758766,0.076614454,1.8962077,-0.10770427,0.00816814,-0.018535396,16.0,9.6271,0.0628,1.8664999,0.3265,0.044999998,0.0163,-0.264154,-0.57892,-0.324794,2017-12-24 21:40:48,40.08478142352295
9.701305,0.076614454,1.9249382,-0.07199483,0.009267698,-0.02698279,16.0,9.6229,0.068799995,1.888,0.3112,0.0095,-0.0050999997,-0.269608,-0.575294,-0.332695,2017-12-24 21:40:49,34.05822416290373
9.643845,0.076614454,1.8579005,0.07689921,0.0051661744,0.018535396,16.0,9.627299,0.0646,1.8655,0.2871,-0.0058,0.046699997,-0.269461,-0.576409,-0.331368,2017-12-24 21:40:50,31.387574821361632
9.720459,0.076614454,1.9249382,0.07744026,0.025900686,0.07744026,16.0,9.623,0.060099997,1.8877,0.262,-0.011,0.0931,-0.263233,-0.578226,-0.324264,2017-12-24 21:40:51,36.16010019325154
9.701305,0.076614454,1.9153614,0.10744247,0.008988446,0.019076448,16.0,9.6263,0.059699997,1.8707,0.2881,-8.0E-4,0.0415,-0.272462,-0.574787,-0.334829,2017-12-24 21:40:52,30.556410841427393
9.691729,0.076614454,1.8962077,-0.10744247,0.015271631,-0.015271631,16.0,9.6263,0.0624,1.8708999,0.3274,0.015999999,0.011899999,-0.270734,-0.575666,-0.332912,2017-12-24 21:40:53,34.552325518851376
9.682152,0.076614454,1.8962077,-0.10770427,0.0076270886,-0.017994344,16.0,9.6258,0.062299997,1.8730999,0.2886,0.015999999,0.0685,-0.26162,-0.579704,-0.321955,2017-12-24 21:40:54,37.47596649609632
9.739613,0.02873042,1.8770541,0.0,0.0,0.0,16.0,9.628099,0.0635,1.8613,0.2765,-0.0144,0.0607,-0.267234,-0.577653,-0.328455,2017-12-24 21:40:55,36.05386199360309
9.691729,0.076614454,1.8674773,0.07661995,0.016074482,0.01308997,16.0,9.627399,0.0643,1.865,0.27719998,0.014099999,0.0766,-0.266102,-0.578182,-0.327032,2017-12-24 21:40:56,40.2522743678906
9.672575,0.076614454,1.8291701,-0.072797686,0.026441738,-0.002443461,16.0,9.625899,0.0567,1.8729,0.2787,-0.0075999997,0.0786,-0.268401,-0.576733,-0.329612,2017-12-24 21:40:57,42.52081260641998
9.701305,0.038307227,1.8866309,-0.1308997,0.013892821,-0.02289872,16.0,9.6234,0.0449,1.8860999,0.2812,-0.0056999996,0.0163,-0.273096,-0.573823,-0.335191,2017-12-24 21:40:58,37.74864102874426
9.653421,0.047884032,1.8483237,-0.07798131,0.009267698,-0.010349803,16.0,9.6221,0.0532,1.8923999,0.3021,-0.023799999,0.0296,-0.270873,-0.574544,-0.33317,2017-12-24 21:40:59,34.31067850518852
9.710882,0.08619126,1.9249382,-0.10662217,0.0027227136,-0.035168383,16.0,9.6254,0.059299998,1.8757,0.2891,-4.0E-4,0.0561,-0.269881,-0.575785,-0.331849,2017-12-24 21:41:00,39.4942332465908
9.653421,0.05746084,1.8770541,-0.0752586,0.012531464,-0.012531464,16.0,9.6282,0.0639,1.8607999,0.31559998,0.0145,0.0808,-0.267215,-0.577807,-0.328291,2017-12-24 21:41:01,41.47882893411156
9.682152,0.05746084,1.8962077,-0.07579965,0.0038048178,-0.014992379,16.0,9.6268,0.060099997,1.8680999,0.28759998,-0.0013,0.0736,-0.269858,-0.576172,-0.331531,2017-12-24 21:41:02,34.95663778119112
9.691729,0.076614454,1.8770541,-0.10826277,-0.014992379,0.02617994,16.0,9.6291,0.067999996,1.8561,0.3344,0.0201,0.0659,-0.266409,-0.578263,-0.32761,2017-12-24 21:41:03,34.68790031523563
9.662998,0.10534488,1.8483237,-0.076358154,0.006806784,-0.020437805,16.0,9.625299,0.0567,1.8761,0.31849998,-0.0371,0.0557,-0.269414,-0.576055,-0.331056,2017-12-24 21:41:04,41.52439470533377
9.701305,0.06703765,1.9057846,-0.07553785,0.013351769,-0.011711159,16.0,9.6277,0.066599995,1.8630999,0.2769,0.0117999995,0.0883,-0.267675,-0.577368,-0.329276,2017-12-24 21:41:05,39.79789795693335
9.682152,0.06703765,1.8866309,-0.020176006,0.07361799,0.013351769,16.0,9.6236,0.0525,1.885,0.2712,0.025899999,0.056599997,-0.272394,-0.574306,-0.33477,2017-12-24 21:41:06,38.330270226121634
9.682152,0.047884032,1.8770541,0.0,0.0,0.0,16.0,9.6233,0.0661,1.8858999,0.3205,0.022,0.0263,-0.265918,-0.577178,-0.328011,2017-12-24 21:41:07,38.66552321888916
9.682152,0.05746084,1.8579005,0.07553785,-0.016894788,0.017994344,16.0,9.624,0.054399997,1.8829,0.2904,0.0338,0.0881,-0.264221,-0.57806,-0.324994,2017-12-24 21:41:08,29.279555090228186
9.691729,0.038307227,1.8770541,-0.13144074,0.015271631,-0.019076448,16.0,9.6261,0.068399996,1.8713,0.3177,1.0E-4,0.089899994,-0.271919,-0.575019,-0.334825,2017-12-24 21:41:09,37.921378025743365
9.691729,0.05746084,1.8962077,-0.14971434,0.00816814,-0.027803095,16.0,9.6272,0.060799997,1.8661,0.297,0.0175,0.0756,-0.266401,-0.577798,-0.327387,2017-12-24 21:41:10,39.032267851711175
9.701305,0.08619126,1.8195933,-0.10770427,0.0051661744,-0.019076448,16.0,9.6236,0.0574,1.8844999,0.31039998,0.0308,-0.0212,-0.266996,-0.576734,-0.32855698,2017-12-24 21:41:11,38.512039629282995
9.701305,0.05746084,1.8483237,0.07798131,0.002984513,0.014713125,16.0,9.6213,0.0548,1.8963,0.28329998,-0.0155,-0.0036,-0.268995,-0.575286,-0.331168,2017-12-24 21:41:12,38.45681037858914
9.672575,0.06703765,1.9153614,0.10988593,-0.016632987,0.016632987,16.0,9.6283,0.059699997,1.8606,0.2861,-8.0E-4,0.120299995,-0.270745,-0.575921,-0.332414,2017-12-24 21:41:13,39.94094819606685
9.682152,0.038307227,1.8770541,-0.07553785,0.014713125,-0.009808751,16.0,9.629499,0.059299998,1.8542,0.3143,0.0288,0.0286,-0.267252,-0.577957,-0.327933,2017-12-24 21:41:14,33.63133181350417
9.643845,0.076614454,1.8483237,0.07497934,0.00816814,0.017994344,16.0,9.623899,0.049399998,1.8836,0.32979998,0.0093,0.0482,-0.270042,-0.575432,-0.331386,2017-12-24 21:41:15,38.00871021101948
9.672575,0.047884032,1.8962077,-0.11126474,0.012269665,-0.008726646,16.0,9.623799,0.0559,1.8836999,0.2906,0.042099997,0.0285,-0.27008,-0.575349,-0.332116,2017-12-24 21:41:16,38.76222713383044
9.691729,0.05746084,1.8770541,-0.11180579,0.011170107,0.0049043754,16.0,9.6268,0.058199998,1.8685,0.27789998,0.0103,0.082899995,-0.271795,-0.575202,-0.333838,2017-12-24 21:41:17,38.93170392564814
9.710882,0.05746084,1.8579005,0.0,0.0,0.0,16.0,9.6249,0.0514,1.8785,0.2994,-0.0122,0.17099999,-0.274783,-0.573312,-0.337387,2017-12-24 21:41:18,31.08044145802131
9.672575,0.06703765,1.9153614,-0.07389724,0.021537364,-0.00816814,16.0,9.6248,0.058199998,1.8783,0.2798,0.0104,0.082899995,-0.267634,-0.576825,-0.329195,2017-12-24 21:41:19,38.46066076844852
9.682152,0.019153614,1.8770541,0.0,0.0,0.0,16.0,9.6272,0.0548,1.8665999,0.2775,-0.044999998,0.0652,-0.270432,-0.575928,-0.331875,2017-12-24 21:41:20,41.52399770969099
9.691729,0.047884032,1.934515,0.11180579,0.002443461,0.010629055,16.0,9.6242,0.0475,1.8821,0.2608,-0.018099999,0.1478,-0.273038,-0.573903,-0.33499599,2017-12-24 21:41:21,34.05830945870131
9.701305,0.02873042,1.8770541,0.13308136,0.004363323,0.010088003,16.0,9.6257,0.059699997,1.8736999,0.3083,0.0186,0.0679,-0.269213,-0.576184,-0.331006,2017-12-24 21:41:22,36.177459803924975
9.615114,0.038307227,1.9440918,0.13062043,-0.009267698,0.026441738,16.0,9.622499,0.053999998,1.8901999,0.29189998,-0.0148,0.0416,-0.272247,-0.573908,-0.334908,2017-12-24 21:41:23,38.81370389306194
9.682152,0.076614454,1.8770541,-0.13416345,0.00816814,-0.026720991,16.0,9.6265,0.060099997,1.8699,0.3075,0.018299999,0.0521,-0.266487,-0.577675,-0.327502,2017-12-24 21:41:24,41.25988510372381
9.701305,0.038307227,1.8962077,0.07744026,0.011711159,-0.013631022,16.0,9.6262,0.055999998,1.8716999,0.2588,0.0126,0.0699,-0.266532,-0.57771,-0.32716,2017-12-24 21:41:25,36.96433797883985
9.682152,0.076614454,1.8770541,0.045256387,-0.061627574,0.012531464,16.0,9.6255,0.060099997,1.875,0.2889,-0.011,0.1157,-0.269356,-0.576208,-0.331133,2017-12-24 21:41:26,41.4427065968686
9.701305,0.08619126,1.8291701,-0.10798352,0.006806784,-0.017715093,16.0,9.6286,0.0605,1.859,0.276,-0.0115,0.0826,-0.26695,-0.577885,-0.327818,2017-12-24 21:41:27,36.023727064591654
9.720459,0.038307227,1.8770541,-0.07089528,0.033265974,-0.01308997,16.0,9.628699,0.0556,1.8586999,0.30539998,0.0032,0.0339,-0.270466,-0.576263,-0.331695,2017-12-24 21:41:28,37.207272630636304
9.691729,0.06703765,1.9057846,-0.0659909,0.043895032,0.0,16.0,9.6212,0.0574,1.897,0.27359998,-0.0378,0.0446,-0.268757,-0.575463,-0.33105,2017-12-24 21:41:29,32.596312031966626
9.710882,0.019153614,1.8483237,0.0760789,0.005986479,0.013631022,16.0,9.623199,0.0609,1.8865,0.252,0.0175,0.065,-0.268646,-0.575885,-0.330845,2017-12-24 21:41:30,32.36262828027249
9.710882,0.076614454,1.8579005,0.0,0.0,0.0,16.0,9.626699,0.0605,1.8686,0.29749998,0.0178,0.1025,-0.268187,-0.576877,-0.32957,2017-12-24 21:41:31,34.30073038949552
9.653421,0.05746084,1.9249382,0.0,0.0,0.0,16.0,9.6247,0.0552,1.8791,0.32889998,0.0134,0.033099998,-0.270488,-0.575424,-0.332263,2017-12-24 21:41:32,34.58963919507976
9.691729,0.076614454,1.8866309,0.12897983,0.016632987,0.043074727,16.0,9.6244,0.0444,1.8809999,0.31939998,0.0143,0.089999996,-0.271919,-0.574773,-0.333478,2017-12-24 21:41:33,38.23532302392942
9.586384,0.038307227,1.8866309,-0.10880382,0.00816814,-0.011990412,16.0,9.6264,0.054399997,1.8702999,0.2782,0.014099999,0.0223,-0.27067,-0.575615,-0.332322,2017-12-24 21:41:34,37.23525833865543
9.634268,0.076614454,1.8866309,-0.106901415,0.017174039,-0.017174039,16.0,9.625299,0.0594,1.8762,0.28919998,-4.9999997E-4,0.0556,-0.267282,-0.57695,-0.328691,2017-12-24 21:41:35,36.30509551830285
9.682152,0.047884032,1.9057846,-0.1055226,0.025621433,-0.0155334305,16.0,9.6251,0.0654,1.8768,0.2893,-0.0164,0.074599996,-0.266912,-0.577096,-0.32887,2017-12-24 21:41:36,39.00274933721824
9.739613,0.08619126,1.8770541,-0.07798131,0.0049043754,-0.013351769,16.0,9.6236,0.052899998,1.8851,0.3301,0.0058,0.0173,-0.265017,-0.577668,-0.325899,2017-12-24 21:41:37,41.36480668122373
9.662998,0.05746084,1.9440918,0.106901415,0.025359634,0.023998277,16.0,9.627,0.0581,1.8672999,0.2776,0.03,0.0841,-0.269547,-0.576265,-0.331025,2017-12-24 21:41:38,40.490126415255176
9.662998,0.076614454,1.8770541,-0.14997615,0.0049043754,-0.026720991,16.0,9.6265,0.059699997,1.8698,0.2977,0.0187,0.0326,-0.268473,-0.576702,-0.329971,2017-12-24 21:41:39,33.07355952678182
9.662998,0.038307227,1.8291701,0.12761848,0.011170107,0.038449604,16.0,9.6278,0.061199997,1.8628,0.31599998,0.017099999,0.069,-0.265473,-0.57831,-0.3262,2017-12-24 21:41:40,33.99476860147769
9.672575,0.02873042,1.8579005,-0.07007497,0.035168383,0.011711159,16.0,9.625899,0.0616,1.8730999,0.27879998,0.0069,0.048899997,-0.268106,-0.576848,-0.329962,2017-12-24 21:41:41,35.46094604799552
9.643845,0.05746084,1.8483237,0.0,0.0,0.0,16.0,9.6251,0.0548,1.8771,0.2893,0.0138,0.0547,-0.27011698,-0.57557,-0.331892,2017-12-24 21:41:42,31.08641120070716
9.672575,0.02873042,1.9440918,0.061627574,0.03598869,0.029722957,16.0,9.6277,0.056599997,1.8636999,0.2965,-0.0174,0.0583,-0.268461,-0.576923,-0.329679,2017-12-24 21:41:43,37.49615312539646
9.691729,0.047884032,1.9153614,0.0,0.0,0.0,16.0,9.6235,0.0486,1.8856,0.30069998,2.9999999E-4,0.0659,-0.266849,-0.57676,-0.327749,2017-12-24 21:41:44,39.502009588393
9.710882,0.076614454,1.8770541,0.0,0.0,0.0,16.0,9.624599,0.0574,1.8794999,0.25059998,-0.0574,0.0327,-0.26862898,-0.576202,-0.330329,2017-12-24 21:41:45,41.30368450350033
9.672575,0.076614454,1.8579005,0.11070623,0.01308997,0.01308997,16.0,9.6219,0.0654,1.893,0.3121,0.012999999,0.0879,-0.268752,-0.575634,-0.331489,2017-12-24 21:41:46,38.67418593831003
9.662998,0.05746084,1.8579005,0.0,0.0,0.0,16.0,9.6257,0.059,1.874,0.2985,-0.0296,0.0774,-0.267215,-0.577102,-0.328544,2017-12-24 21:41:47,38.65927401364913
9.710882,0.05746084,1.8004397,-0.05235988,0.055902895,0.011170107,16.0,9.623199,0.0525,1.8872,0.3109,0.016099999,0.024999999,-0.270491,-0.575097,-0.332466,2017-12-24 21:41:48,34.068790746266146
9.691729,0.02873042,1.982399,0.1712517,0.006544985,0.037088245,16.0,9.6233,0.051799998,1.8863,0.2715,-0.0223,0.0749,-0.270332,-0.575102,-0.33222198,2017-12-24 21:41:49,37.77307855447926
9.662998,0.076614454,1.8866309,0.0,0.0,0.0,16.0,9.625,0.0552,1.8776,0.2992,-0.0061999997,0.1131,-0.272259,-0.574612,-0.334528,2017-12-24 21:41:50,40.81795359166023
9.701305,0.06703765,1.8579005,0.07553785,-0.006544985,0.016353736,16.0,9.6271,0.0642,1.8664,0.3265,-0.024999999,0.0556,-0.271982,-0.575281,-0.33423,2017-12-24 21:41:51,41.82416747928908
9.701305,0.05746084,1.8866309,0.054262288,0.0109083075,-0.054262288,16.0,9.627,0.0563,1.8671,0.258,-0.026899999,0.0352,-0.268756,-0.576587,-0.330004,2017-12-24 21:41:52,43.89710134906715
9.701305,0.076614454,1.8866309,0.0,0.0,0.0,16.0,9.625299,0.0589,1.8759999,0.3087,0.019399999,0.0558,-0.268249,-0.57646,-0.329889,2017-12-24 21:41:53,36.917686548431675
9.730036,0.047884032,1.8962077,-0.13308136,0.02698279,-0.017174039,16.0,9.6229,0.059299998,1.8883,0.2915,0.0191,0.0828,-0.270224,-0.57504,-0.332725,2017-12-24 21:41:54,37.47763946667215
9.643845,0.038307227,1.8962077,-0.07798131,0.0027227136,-0.013631022,16.0,9.624599,0.0563,1.8795999,0.2996,0.0122,0.062099997,-0.27189898,-0.574689,-0.334221,2017-12-24 21:41:55,41.48081885256286
9.691729,0.076614454,1.8962077,-0.07307693,0.011711159,-0.023177972,16.0,9.6244,0.0563,1.8808,0.2802,-0.0072999997,-0.0274,-0.268761,-0.576081,-0.330457,2017-12-24 21:41:56,39.56734274926771
9.662998,0.06703765,1.8866309,-0.10826277,0.010088003,-0.014992379,16.0,9.626699,0.0514,1.8689,0.2877,0.026999999,0.0826,-0.267563,-0.577092,-0.328073,2017-12-24 21:41:57,35.96698442085432
9.682152,0.02873042,1.9153614,-0.10770427,0.027541295,-0.016074482,16.0,9.6261,0.0521,1.8719,0.2883,-0.0030999999,0.0207,-0.26756,-0.577034,-0.328391,2017-12-24 21:41:58,38.10978845214125
9.720459,0.05746084,1.8674773,0.07798131,0.00408407,0.014172073,16.0,9.6277,0.055099998,1.8635999,0.28669998,-0.015899999,-2.9999999E-4,-0.27111,-0.57561,-0.332745,2017-12-24 21:41:59,41.6540543121843
9.643845,0.076614454,1.8770541,0.07553785,-0.0016231562,0.017715093,16.0,9.6248,0.064899996,1.8784,0.3191,-0.0061,0.0632,-0.269907,-0.575719,-0.332277,2017-12-24 21:42:00,41.507604681915026
9.557653,-0.4405331,1.9919758,0.0659909,0.08726646,0.0070860367,16.0,9.6237,0.0464,1.8844999,0.3103,0.12019999,-0.1978,-0.267421,-0.576541,-0.328243,2017-12-24 21:42:01,41.482198180838594
9.682152,0.047884032,1.9249382,-0.07798131,0.005986479,-0.013351769,16.0,9.6262,0.053999998,1.8716999,0.30789998,-0.0245,0.0013,-0.266903,-0.577346,-0.327724,2017-12-24 21:42:02,48.113106018325084
9.682152,0.076614454,1.8770541,-0.10988593,0.010349803,-0.020996312,16.0,9.6249,0.068399996,1.8777,0.2895,0.0296,0.0541,-0.271278,-0.574992,-0.334554,2017-12-24 21:42:03,40.90398598187119
9.691729,0.076614454,1.8866309,-0.16879079,0.00408407,-0.028082348,16.0,9.6244,0.0585,1.8805,0.2802,0.01,0.0219,-0.271932,-0.574606,-0.334448,2017-12-24 21:42:04,39.04270307254527
9.653421,0.038307227,1.9440918,-0.10716321,0.0109083075,-0.019896753,16.0,9.627,0.063099995,1.8671999,0.31689999,-0.014099999,0.074499995,-0.268297,-0.576905,-0.329967,2017-12-24 21:42:05,39.56239135691884
9.720459,0.019153614,1.9057846,0.1529781,-0.0016231562,0.032166418,16.0,9.6251,0.060099997,1.8766999,0.2697,-0.0011999999,0.055099998,-0.270789,-0.575311,-0.333043,2017-12-24 21:42:06,40.230647951295495
9.691729,0.038307227,1.8770541,0.07771951,0.007347836,0.014451326,16.0,9.624599,0.058199998,1.8797,0.32909998,4.9999997E-4,0.1011,-0.269352,-0.57576,-0.331429,2017-12-24 21:42:07,34.975341188605455
9.662998,0.047884032,1.8483237,0.06899287,0.025359634,0.023998277,16.0,9.623899,0.0548,1.8833,0.2611,0.053,0.048499998,-0.268207,-0.576021,-0.329897,2017-12-24 21:42:08,33.676191206353494
9.691729,0.047884032,1.9440918,0.0,0.0,0.0,16.0,9.6249,0.0578,1.8780999,0.3091,0.0106999995,0.043899998,-0.268211,-0.576245,-0.329971,2017-12-24 21:42:09,37.101661728783114
9.701305,0.06703765,1.9440918,-0.2187072,0.0013613568,-0.03817035,16.0,9.6258,0.058599997,1.8731999,0.269,-0.019399999,-2.0E-4,-0.269118,-0.57625,-0.330794,2017-12-24 21:42:10,40.419023119070886
9.672575,0.047884032,1.8866309,0.07661995,0.0016231562,0.020437805,16.0,9.6248,0.057099998,1.8786,0.28959998,-0.037499998,0.1219,-0.268968,-0.576083,-0.330688,2017-12-24 21:42:11,40.944967863720585
9.672575,0.05746084,1.8962077,0.07007497,0.028902652,0.016353736,16.0,9.6249,0.0525,1.8784,0.2994,-0.0034999999,0.073,-0.268951,-0.576099,-0.330327,2017-12-24 21:42:12,37.57567776518286
9.691729,0.047884032,1.8866309,-0.07661995,0.002443461,-0.01144936,16.0,9.6257,0.0525,1.874,0.26909998,-0.0328,0.096999995,-0.269113,-0.576193,-0.330415,2017-12-24 21:42:13,38.37957163695013
9.710882,0.05746084,1.934515,-0.07497934,-0.004363323,-0.025621433,16.0,9.623,0.059299998,1.8874999,0.27179998,-0.0299,-0.0047,-0.268328,-0.575986,-0.330381,2017-12-24 21:42:14,32.80001830665862
9.672575,0.06703765,1.8962077,0.0,0.0,0.0,16.0,9.621099,0.0563,1.8974999,0.32279998,-0.0072,0.083299994,-0.270493,-0.574616,-0.333041,2017-12-24 21:42:15,35.607227769612614
9.701305,0.076614454,1.8962077,-0.10744247,0.010088003,-0.019634955,16.0,9.6255,0.0548,1.8752999,0.3184,0.0039,0.027099999,-0.271498,-0.574962,-0.333615,2017-12-24 21:42:16,34.33470303406493
9.691729,0.06703765,1.9249382,0.10608111,0.0035430184,0.027541295,16.0,9.6241,0.059299998,1.882,0.3197,-4.0E-4,0.04,-0.26865,-0.57617,-0.330565,2017-12-24 21:42:17,32.486203153402315
9.653421,0.047884032,1.8770541,0.11152654,0.007906342,0.011711159,16.0,9.6257,0.059299998,1.8741,0.23969999,0.0191,0.028299998,-0.269344,-0.576105,-0.331146,2017-12-24 21:42:18,33.92629364218537
9.672575,0.05746084,1.8674773,-0.07089528,0.03544764,0.0038048178,16.0,9.6251,0.0756,1.8765,0.309,0.0224,0.0357,-0.265782,-0.577692,-0.328072,2017-12-24 21:42:19,39.817416846096506
9.710882,0.076614454,1.8674773,0.0,0.0,0.0,16.0,9.623,0.0639,1.8877,0.35029998,-0.0246,0.0931,-0.268649,-0.575827,-0.33111,2017-12-24 21:42:20,30.083799083884806
9.710882,0.076614454,1.8866309,0.07497934,0.008988446,0.017174039,16.0,9.6261,0.065,1.8716999,0.3177,0.033,0.060099997,-0.265379,-0.578099,-0.326695,2017-12-24 21:42:21,28.604325302119452
9.691729,0.038307227,1.8387469,0.10716321,0.0035430184,0.022357667,16.0,9.6256,0.063099995,1.8744999,0.2889,-0.0042999997,0.0475,-0.270911,-0.575334,-0.333318,2017-12-24 21:42:22,37.96809497920655
9.643845,0.019153614,1.8770541,0.11126474,0.010349803,0.012531464,16.0,9.625899,0.0585,1.8729999,0.2983,0.0198,0.0883,-0.26927,-0.576191,-0.330961,2017-12-24 21:42:23,41.70048091950437
9.720459,0.038307227,1.9536686,0.05534439,0.0567232,0.0049043754,16.0,9.625,0.062,1.8774999,0.2992,0.0066,-0.0241,-0.26843,-0.57629,-0.33037,2017-12-24 21:42:24,39.785098376330964
9.710882,0.05746084,1.8866309,-0.07361799,-0.006806784,-0.023439772,16.0,9.6283,0.0676,1.8600999,0.2959,0.0401,0.0521,-0.268919,-0.576912,-0.33087,2017-12-24 21:42:25,33.86918176144879
9.710882,0.06703765,1.8866309,0.0,0.0,0.0,16.0,9.6244,0.0657,1.8801999,0.2606,-0.0069,0.0712,-0.265977,-0.577146,-0.327808,2017-12-24 21:42:26,38.29794589948871
9.672575,0.06703765,1.8770541,0.0,0.0,0.0,16.0,9.6277,0.0661,1.8634,0.30629998,-0.026899999,0.0881,-0.269405,-0.576553,-0.331342,2017-12-24 21:42:27,39.65808768298028
9.672575,0.05746084,1.9057846,0.07389724,0.023439772,0.016894788,16.0,9.6243,0.0661,1.8808999,0.29009998,-0.017099999,0.0313,-0.269244,-0.57585,-0.331757,2017-12-24 21:42:28,36.0814127590635
9.653421,0.05746084,1.934515,-0.07443829,0.020717058,-0.00572468,16.0,9.627299,0.0637,1.8652999,0.23799999,0.0047999998,0.076299995,-0.270357,-0.57602,-0.332385,2017-12-24 21:42:29,54.65940715251733
9.710882,0.05746084,1.9536686,0.12952088,0.02289872,0.02289872,16.0,9.629,0.0669,1.8564999,0.3442,0.0115,0.0263,-0.26692,-0.578113,-0.328075,2017-12-24 21:42:30,58.3325822024843
9.701305,0.06703765,1.9153614,0.07716101,0.010629055,0.014713125,16.0,9.625899,0.060399998,1.8729999,0.2886,0.0081,0.0784,-0.268569,-0.576516,-0.330254,2017-12-24 21:42:31,38.98509128727654
9.662998,0.05746084,1.8100165,0.07771951,0.008447394,0.013631022,16.0,9.623,0.0669,1.8876,0.3012,0.0115,0.053999998,-0.266309,-0.577046,-0.328502,2017-12-24 21:42:33,37.32612234405234
9.710882,0.06703765,1.9057846,-0.10908308,0.007347836,-0.008447394,16.0,9.6278,0.0574,1.8634,0.3161,0.0405,0.088,-0.271635,-0.575504,-0.33340698,2017-12-24 21:42:34,33.51817738549741
9.691729,0.05746084,1.8770541,-0.076358154,0.0013613568,-0.013351769,16.0,9.628799,0.0685,1.8575,0.3444,0.0099,0.0547,-0.268899,-0.577192,-0.330663,2017-12-24 21:42:35,36.283874930441335
9.653421,0.038307227,1.8674773,0.07553785,0.016074482,0.018535396,16.0,9.625999,0.0578,1.8726,0.3179,0.0206,0.1278,-0.267677,-0.576946,-0.32897,2017-12-24 21:42:36,37.338276031229626
9.710882,0.076614454,1.8962077,-0.10962413,0.019634955,-0.014713125,16.0,9.6264,0.066199996,1.8700999,0.22919999,0.0023999999,0.071499996,-0.266706,-0.577455,-0.328302,2017-12-24 21:42:37,33.25762205829753
9.691729,0.076614454,1.8962077,0.07826056,8.0285146E-4,0.013631022,16.0,9.625899,0.0616,1.8727,0.28849998,-0.0026999998,0.039499998,-0.266696,-0.577453,-0.327963,2017-12-24 21:42:38,34.76279219590242
9.701305,0.05746084,1.8483237,-0.13226105,0.017715093,-0.0051661744,16.0,9.6241,0.0547,1.8822,0.29029998,-0.0155,0.049599998,-0.26619,-0.577369,-0.327349,2017-12-24 21:42:39,41.02612427306938
9.691729,0.038307227,1.8866309,-0.07361799,0.022619467,-0.008726646,16.0,9.6254,0.059699997,1.8751999,0.32819998,-8.0E-4,0.0075999997,-0.27095,-0.575192,-0.333161,2017-12-24 21:42:40,38.78620430470979
9.701305,0.06703765,1.8483237,-0.074717544,0.025900686,-0.0070860367,16.0,9.6216,0.0567,1.8951,0.2438,-0.0468,0.056399997,-0.273026,-0.573439,-0.336151,2017-12-24 21:42:41,39.75278327802976
9.710882,0.076614454,1.8674773,0.0,0.0,0.0,16.0,9.6248,0.0646,1.8781999,0.3288,0.023599999,0.0242,-0.270257,-0.575433,-0.332883,2017-12-24 21:42:42,37.937842751997486
9.701305,0.047884032,1.9057846,0.08370599,0.06981317,0.010349803,16.0,9.6258,0.070199996,1.8729999,0.29839998,-0.011399999,0.049,-0.265972,-0.577719,-0.327823,2017-12-24 21:42:43,40.46505955716147
9.710882,0.076614454,1.9249382,-0.10798352,0.006544985,-0.017174039,16.0,9.625999,0.056599997,1.8726,0.2688,-0.0468,0.118099995,-0.265681,-0.577839,-0.326549,2017-12-24 21:42:44,40.54866044039588
9.672575,0.047884032,1.9153614,-0.07744026,0.008988446,-0.014992379,16.0,9.625,0.0696,1.8772999,0.3091,0.0088,0.0643,-0.267592,-0.576779,-0.329882,2017-12-24 21:42:45,39.17527581470432
9.701305,0.06703765,1.934515,0.0,0.0,0.0,16.0,9.623799,0.055099998,1.8837999,0.2906,0.0232,0.0088,-0.265449,-0.577484,-0.326462,2017-12-24 21:42:46,34.76122813950517
9.682152,0.047884032,1.8387469,-0.106901415,0.0054454273,-0.023719024,16.0,9.623,0.060099997,1.8876,0.3012,0.028099999,0.005,-0.27029,-0.575066,-0.33282,2017-12-24 21:42:47,31.270414928996427
9.691729,0.06703765,1.8674773,-0.10770427,-0.0076270886,-0.018535396,16.0,9.6258,0.0673,1.8734,0.2985,0.0111,0.0486,-0.268482,-0.576553,-0.330564,2017-12-24 21:42:48,30.762022423305574
9.662998,0.076614454,1.8579005,0.07744026,-0.006265732,0.016353736,16.0,9.6271,0.066599995,1.8665999,0.2677,-0.0372,0.074999996,-0.267549,-0.577274,-0.329243,2017-12-24 21:42:49,32.57789533730917
9.691729,0.076614454,1.8866309,-0.07744026,0.013631022,-0.01144936,16.0,9.6215,0.06,1.8952999,0.28309998,-0.0011999999,0.1346,-0.268579,-0.57567,-0.330868,2017-12-24 21:42:50,39.70848042471066
9.691729,0.076614454,1.8962077,-0.07389724,-0.007347836,-0.022078415,16.0,9.624599,0.0616,1.8797,0.30949998,0.0168,0.110999994,-0.269368,-0.57584697,-0.331534,2017-12-24 21:42:51,36.37951047386194
9.682152,0.009576807,1.8579005,0.108524576,0.013892821,0.008447394,16.0,9.6261,0.0673,1.8715999,0.3276,0.0405,0.0994,-0.266443,-0.577543,-0.328173,2017-12-24 21:42:52,29.960120228050556
9.701305,0.076614454,1.9057846,0.0760789,-0.008726646,0.020996312,16.0,9.625299,0.067,1.8756,0.2891,-0.0278,0.0268,-0.266763,-0.57724,-0.328633,2017-12-24 21:42:53,40.845519822316575
9.662998,0.038307227,1.9057846,0.06925467,0.020996312,0.032724924,16.0,9.6234,0.051,1.8858999,0.3204,-0.021499999,0.0361,-0.26562,-0.577338,-0.326337,2017-12-24 21:42:54,39.600863483914694
9.691729,0.08619126,1.8866309,-0.076358154,0.017174039,-0.012810716,16.0,9.627299,0.057099998,1.8657999,0.2969,0.0016999999,0.1052,-0.269627,-0.576182,-0.331218,2017-12-24 21:42:55,39.27265113444095
9.701305,0.038307227,1.8770541,0.0,0.0,0.0,16.0,9.6279,0.0672,1.8623999,0.2865,0.060099997,0.0596,-0.267614,-0.57742697,-0.329225,2017-12-24 21:42:56,40.10766564503143
9.720459,0.076614454,1.8387469,-0.0760789,0.019076448,0.012531464,16.0,9.625299,0.062299997,1.8759999,0.28919998,0.015999999,0.0166,-0.265683,-0.577718,-0.327003,2017-12-24 21:42:57,38.135309517593456
9.682152,0.076614454,1.8866309,0.10988593,0.006544985,0.022619467,16.0,9.6277,0.066199996,1.8632,0.3259,0.0122,0.0784,-0.270138,-0.576136,-0.33231398,2017-12-24 21:42:58,34.037447461711736
9.720459,0.076614454,1.8483237,0.103340946,0.014713125,0.033265974,16.0,9.625999,0.0689,1.8722,0.2983,0.0095,0.020399999,-0.267693,-0.576958,-0.329778,2017-12-24 21:42:59,39.03905135310694
9.653421,0.06703765,1.9632454,-0.055623643,0.053721234,-0.0054454273,16.0,9.6237,0.060799997,1.8841,0.3103,0.0176,0.018299999,-0.270872,-0.575024,-0.33342,2017-12-24 21:43:00,39.18808455054923
9.691729,0.076614454,1.8387469,-0.11180579,0.011170107,-0.0027227136,16.0,9.6242,0.0581,1.8816999,0.29999998,0.03,0.059899997,-0.267532,-0.576615,-0.329132,2017-12-24 21:43:01,39.2480850224029
9.720459,0.076614454,1.8483237,-0.07716101,0.008988446,-0.015812684,16.0,9.6261,0.066199996,1.8718,0.29819998,0.0122,0.089499995,-0.26734298,-0.57708,-0.329218,2017-12-24 21:43:02,35.261095883014505
9.691729,0.047884032,1.8770541,0.07661995,0.006544985,0.019896753,16.0,9.6254,0.062299997,1.8750999,0.2694,-0.0133,0.0469,-0.263272,-0.578919,-0.324178,2017-12-24 21:43:03,39.54629281482966
9.701305,0.076614454,1.8579005,-0.07579965,0.012531464,-0.010349803,16.0,9.6312,0.0711,1.8448,0.29299998,0.0072999997,0.047799997,-0.266826,-0.57852,-0.327873,2017-12-24 21:43:04,39.04724080325313
9.653421,0.06703765,1.8770541,0.076358154,-0.076358154,0.018535396,16.0,9.6256,0.059299998,1.8744999,0.3085,0.019,0.0279,-0.270199,-0.575605,-0.332234,2017-12-24 21:43:05,41.19192202797538
9.720459,0.05746084,1.8962077,0.07771951,0.0046251225,0.015812684,16.0,9.6244,0.0654,1.8801999,0.29,0.0128999995,0.081,-0.265417,-0.577765,-0.326993,2017-12-24 21:43:06,39.84959845332397
9.662998,0.047884032,1.9536686,-0.07771951,-0.0035430184,-0.015812684,16.0,9.6242,0.06,1.8817999,0.3197,-0.0404,-0.0087,-0.268129,-0.576312,-0.329794,2017-12-24 21:43:07,35.48906830891552
9.634268,0.009576807,1.9249382,0.0760789,-0.0095294975,0.011990412,16.0,9.6216,0.0548,1.895,0.31239998,-0.0155,-0.0122,-0.269211,-0.57524,-0.331387,2017-12-24 21:43:08,41.46809285254889
9.682152,0.038307227,1.934515,0.08452629,0.016894788,0.067631505,16.0,9.6234,0.060099997,1.8858999,0.3205,-0.0011999999,0.1244,-0.267996,-0.576112,-0.329922,2017-12-24 21:43:09,38.19156866765002
9.682152,0.038307227,1.8770541,0.07798131,0.00408407,0.013351769,16.0,9.6268,0.0616,1.8683,0.3171,0.0168,-0.0050999997,-0.268105,-0.576939,-0.329612,2017-12-24 21:43:10,30.704800212043807
9.662998,0.038307227,1.8962077,0.0,0.0,0.0,16.0,9.6222,0.0589,1.892,0.2923,0.019399999,0.0986,-0.265989,-0.57687,-0.327761,2017-12-24 21:43:11,37.34184042740785
9.672575,0.05746084,1.8291701,0.07880162,0.0010821042,0.009808751,16.0,9.6233,0.0468,1.8865,0.3107,-0.0075999997,0.055099998,-0.268526,-0.575876,-0.32962,2017-12-24 21:43:12,36.54958242091045
9.653421,0.076614454,1.8674773,-0.10770427,0.01308997,-0.0155334305,16.0,9.6235,0.0517,1.8855,0.3105,0.0069999998,0.0071,-0.271337,-0.574666,-0.33340698,2017-12-24 21:43:13,40.68699542572495
9.701305,0.076614454,1.9153614,-0.15515977,0.007906342,-0.017453292,16.0,9.6269,0.0718,1.8671,0.2581,0.0163,0.035299998,-0.266,-0.577967,-0.32777,2017-12-24 21:43:14,30.758257190772575
9.672575,0.076614454,1.9536686,0.13470452,0.006265732,0.023998277,16.0,9.6271,0.057,1.8668,0.2873,-0.007999999,0.0748,-0.268087,-0.576896,-0.329301,2017-12-24 21:43:15,36.677689272478396
9.672575,0.047884032,1.9153614,0.13062043,-2.6179937E-4,0.028902652,16.0,9.6237,0.0654,1.8841,0.31039998,-0.0066,0.0379,-0.271147,-0.574818,-0.334119,2017-12-24 21:43:16,38.545530145134656
9.662998,0.076614454,1.8100165,-0.06352998,0.013631022,-0.041992623,16.0,9.6249,0.053299997,1.8781999,0.2503,-0.0042,0.0242,-0.268522,-0.576429,-0.329763,2017-12-24 21:43:17,37.32975445343004
9.672575,0.05746084,1.8770541,0.047717303,-0.059707712,-0.011990412,16.0,9.6242,0.061199997,1.8815999,0.28039998,-0.0023,0.0404,-0.267139,-0.576801,-0.328874,2017-12-24 21:43:18,32.11620219858942
9.672575,0.047884032,1.8866309,-0.07744026,0.0035430184,-0.016894788,16.0,9.6227,0.060399998,1.8891,0.31129998,0.0179,0.062299997,-0.266894,-0.576448,-0.328914,2017-12-24 21:43:19,37.972947050317444
9.662998,0.095768064,1.8674773,0.0,0.0,0.0,16.0,9.6228,0.0661,1.8883,0.3504,0.0319,-0.0055,-0.270078,-0.575121,-0.33306,2017-12-24 21:43:20,39.51478602113873
9.691729,0.06703765,1.9057846,0.06244788,0.014451326,0.04335398,16.0,9.6254,0.0574,1.8756,0.30859998,-0.018199999,0.0661,-0.270085,-0.5756,-0.331868,2017-12-24 21:43:21,37.35193430500423
9.720459,0.047884032,1.9057846,-0.05808456,0.05071927,-0.007347836,13.0,9.6284,0.060799997,1.8599999,0.2958,0.0176,0.0424,-0.268912,-0.577028,-0.330084,2017-12-24 21:43:22,38.88018376880745
9.710882,0.076614454,1.8195933,-0.1529781,0.011170107,-0.029984757,13.0,9.625899,0.068799995,1.8725,0.2787,0.0095999995,0.0103,-0.2703,-0.57569,-0.332799,2017-12-24 21:43:23,40.48788605349227
9.682152,0.08619126,1.8579005,0.110444434,-0.0021816615,0.020437805,13.0,9.6247,0.0605,1.8791,0.2701,-0.0213,0.0626,-0.264937,-0.578007,-0.326007,2017-12-24 21:43:24,37.550439254684676
9.691729,0.047884032,1.8962077,0.0,0.0,0.0,16.0,9.6201,0.058199998,1.9027,0.2453,-0.0189,0.12719999,-0.271659,-0.57375,-0.33487,2017-12-24 21:43:25,36.31021509218455
9.682152,0.076614454,1.8962077,-0.14971434,0.010088003,-0.02698279,16.0,9.6235,0.0574,1.885,0.3105,-0.018199999,0.0664,-0.267244,-0.576549,-0.328887,2017-12-24 21:43:26,33.6704476713473
9.730036,0.076614454,1.8674773,0.13144074,0.0109083075,0.020996312,13.0,9.6237,0.061199997,1.8842,0.3398,0.017199999,0.027999999,-0.268588,-0.576001,-0.330619,2017-12-24 21:43:27,39.63203925547417
9.682152,0.02873042,1.9632454,-0.11070623,-8.0285146E-4,-0.019355701,13.0,9.627299,0.0589,1.8658999,0.2872,-1.0E-4,0.0561,-0.269998,-0.576165,-0.331621,2017-12-24 21:43:28,39.977447806498034
9.701305,0.11492168,1.934515,0.10880382,0.014172073,0.024260076,13.0,9.6256,0.067,1.8743999,0.2889,-0.0081,0.1261,-0.267877,-0.576697,-0.329999,2017-12-24 21:43:29,39.51322413562263
9.720459,0.05746084,1.8674773,-0.06571165,-0.031625368,-0.031625368,16.0,9.6206,0.0585,1.9,0.28399998,0.0101,0.031799998,-0.269288,-0.575087,-0.331926,2017-12-24 21:43:30,36.271391756189466
9.691729,0.019153614,1.8770541,-0.069533914,0.03408628,0.0,16.0,9.627299,0.0704,1.865,0.26749998,0.0178,0.037299998,-0.273469,-0.57463,-0.336481,2017-12-24 21:43:31,44.27056176494054
9.701305,0.038307227,1.8674773,-0.021537364,0.052621678,-0.052621678,16.0,9.6276,0.0556,1.864,0.24749999,0.012999999,0.0678,-0.26955,-0.576404,-0.33098,2017-12-24 21:43:32,39.30948474297776
9.662998,0.038307227,1.9728222,0.07853982,-0.002443461,0.01144936,16.0,9.624,0.055099998,1.8829999,0.3199,-0.035499997,0.1273,-0.267577,-0.57655,-0.329112,2017-12-24 21:43:33,35.51376796104808
9.672575,0.08619126,1.934515,0.0,-0.06899287,-0.03926991,16.0,9.627399,0.0616,1.8650999,0.2968,-0.0028,0.0275,-0.272106,-0.575206,-0.334337,2017-12-24 21:43:34,40.68243276692384
9.739613,0.076614454,1.9057846,-0.06517059,0.03981096,-0.012531464,16.0,9.625899,0.0616,1.8727,0.2689,0.036399998,0.118,-0.268532,-0.576348,-0.330353,2017-12-24 21:43:35,41.551616108095295
9.643845,0.05746084,1.9057846,0.07553785,0.006265732,0.016353736,16.0,9.6256,0.0696,1.8742,0.2496,-0.0106999995,0.077199996,-0.267151,-0.577161,-0.329155,2017-12-24 21:43:36,41.139818733541425
9.682152,0.06703765,1.8962077,0.0,0.0,0.0,16.0,9.625299,0.0609,1.8759999,0.299,0.0077,0.0852,-0.267945,-0.576672,-0.329636,2017-12-24 21:43:37,39.88937308758193
9.682152,0.06703765,1.8674773,0.11016518,0.0010821042,0.022078415,16.0,9.6257,0.0692,1.8737999,0.3084,0.0092,0.0188,-0.264829,-0.578273,-0.32626,2017-12-24 21:43:38,33.55893408270759
9.682152,0.02873042,1.9057846,0.09053023,-0.06270968,0.021816615,16.0,9.6262,0.0547,1.8715999,0.2882,-0.0155,0.0602,-0.271442,-0.575227,-0.333271,2017-12-24 21:43:39,37.34471410206599
9.682152,0.038307227,1.8195933,-0.076358154,-0.002984513,-0.011711159,16.0,9.621699,0.057,1.8945999,0.3222,0.0016999999,0.0274,-0.271923,-0.573866,-0.335165,2017-12-24 21:43:40,32.0862398173
9.691729,0.076614454,1.8579005,-0.07389724,0.021816615,-0.00816814,16.0,9.6212,0.062,1.8968999,0.303,-0.012999999,0.0447,-0.2692,-0.575165,-0.33196,2017-12-24 21:43:41,34.21206875940568
9.672575,0.076614454,1.8962077,-0.07853982,0.0051661744,-0.009267698,16.0,9.6237,0.0502,1.8844999,0.2907,0.008599999,0.057099998,-0.273651,-0.573625,-0.335917,2017-12-24 21:43:42,38.637980744047134
9.739613,0.076614454,1.8962077,0.13498376,0.005986479,0.021537364,16.0,9.6257,0.0548,1.8738999,0.3083,0.0334,0.0088,-0.264895,-0.578292,-0.325474,2017-12-24 21:43:43,39.69703705989354
9.672575,0.06703765,1.9249382,-0.07199483,0.026441738,-0.0109083075,16.0,9.623,0.0548,1.8876,0.3306,-0.044999998,0.034399997,-0.26944,-0.575462,-0.331408,2017-12-24 21:43:44,29.94684134817089
9.682152,0.047884032,1.8770541,0.1311615,0.005986479,0.02453933,16.0,9.6243,0.0548,1.8814,0.2705,-0.0056999996,0.0112,-0.272331,-0.574313,-0.334713,2017-12-24 21:43:45,36.4287611347397
9.682152,0.038307227,1.9249382,0.0,0.0,0.0,16.0,9.6237,0.0525,1.8841,0.2907,0.0063,0.0084999995,-0.267599,-0.576475,-0.328888,2017-12-24 21:43:46,38.3037411463626
9.653421,0.076614454,1.9249382,-0.03080506,0.023177972,-0.06925467,16.0,9.6228,0.0517,1.8889999,0.3407,-0.012499999,0.072299995,-0.272261,-0.5741,-0.334577,2017-12-24 21:43:47,41.61862993587646
9.653421,0.038307227,1.9057846,0.13226105,0.004363323,0.035168383,16.0,9.619599,0.0468,1.9051,0.27519998,-0.0174,0.0561,-0.271985,-0.573446,-0.334644,2017-12-24 21:43:48,39.078151327302
9.672575,0.038307227,1.9153614,0.0,0.0,0.0,16.0,9.623,0.0624,1.8879,0.2719,-0.0034999999,0.0832,-0.267871,-0.576266,-0.329919,2017-12-24 21:43:49,32.02028304423711
9.672575,0.08619126,1.8674773,-0.10908308,0.008726646,-0.00816814,16.0,9.6226,0.0536,1.8901,0.3017,-0.0046,0.0515,-0.269188,-0.57543,-0.331163,2017-12-24 21:43:50,38.79735537186282
9.682152,0.06703765,1.8866309,-0.10798352,0.023177972,-0.020717058,16.0,9.6201,0.0624,1.9023999,0.2943,0.015999999,0.0686,-0.271233,-0.573861,-0.334565,2017-12-24 21:43:51,38.94960931980375
9.672575,0.047884032,1.8579005,0.0,0.0,0.0,16.0,9.6216,0.0624,1.8945999,0.29279998,0.045399997,0.066599995,-0.271136,-0.574444,-0.334217,2017-12-24 21:43:52,37.55194785955323
9.682152,0.05746084,1.9249382,0.0,0.0,0.0,16.0,9.6237,0.0628,1.8842,0.2907,0.0156,0.0771,-0.270945,-0.574909,-0.333689,2017-12-24 21:43:53,31.645981926033826
9.701305,0.095768064,1.8674773,0.10934488,0.00572468,-8.0285146E-4,16.0,9.6268,0.0589,1.8685,0.2681,0.019399999,0.0535,-0.269963,-0.576196,-0.331709,2017-12-24 21:43:54,31.057427042400974
9.662998,0.076614454,1.8770541,0.25715682,-0.002443461,0.041992623,16.0,9.6249,0.0624,1.8780999,0.2994,0.0061999997,0.0145,-0.269059,-0.576061,-0.331165,2017-12-24 21:43:55,35.952007473512104
9.653421,0.009576807,1.8770541,0.045814894,0.045814894,0.045814894,16.0,9.6222,0.058599997,1.8916999,0.302,0.0198,0.108799994,-0.272735,-0.573656,-0.335956,2017-12-24 21:43:56,39.13820803687933
9.691729,0.02873042,1.8866309,-0.07553785,0.022078415,0.0095294975,16.0,9.6205,0.057099998,1.9008,0.3234,0.0016999999,0.0311,-0.269102,-0.575081,-0.331558,2017-12-24 21:43:57,29.162104121609147
9.672575,0.047884032,1.8770541,-0.07497934,0.0155334305,-0.01144936,16.0,9.6249,0.058199998,1.8780999,0.2895,5.9999997E-4,0.053799998,-0.265393,-0.577719,-0.32648,2017-12-24 21:43:58,29.218912217662275
9.682152,0.076614454,1.8962077,0.07497934,0.015812684,0.0109083075,16.0,9.6223,0.0521,1.8915,0.2823,0.0066,0.0796,-0.26857,-0.57591,-0.33007,2017-12-24 21:43:59,30.99804689035032
9.691729,0.05746084,1.8674773,0.07771951,-5.410521E-4,0.015812684,16.0,9.6254,0.051,1.8756,0.289,0.0176,-0.0221,-0.267118,-0.576792,-0.328093,2017-12-24 21:44:00,34.39637826541417
9.605537,0.019153614,1.8770541,0.0,0.0,0.0,16.0,9.6241,0.057099998,1.8822,0.2805,0.0016999999,0.0202,-0.269795,-0.575594,-0.331712,2017-12-24 21:44:01,39.291406965411454
9.691729,0.076614454,1.9536686,0.103340946,-0.02453933,0.026720991,16.0,9.624,0.061199997,1.8823999,0.261,-0.022,0.0592,-0.269262,-0.575777,-0.331474,2017-12-24 21:44:02,35.6859512520824
9.672575,0.06703765,1.8579005,0.0752586,8.0285146E-4,0.017715093,16.0,9.622399,0.0574,1.8907,0.2626,0.0111,0.021499999,-0.272071,-0.57405,-0.335034,2017-12-24 21:44:03,39.317780543478314
9.643845,0.076614454,1.8770541,-0.10798352,0.025359634,-0.018535396,16.0,9.6244,0.055099998,1.8807,0.29,-0.0257,0.0903,-0.265989,-0.577371,-0.327011,2017-12-24 21:44:04,36.58130393744643
9.662998,0.047884032,1.8674773,0.1328021,0.018535396,0.027262043,16.0,9.6258,0.050899997,1.8736,0.3082,0.037299998,0.0779,-0.268643,-0.576337,-0.329682,2017-12-24 21:44:05,27.197260854669494
9.691729,0.05746084,1.8674773,0.07553785,0.013631022,0.020437805,16.0,9.6269,0.0654,1.8677,0.2974,0.012999999,0.0543,-0.267004,-0.577333,-0.328675,2017-12-24 21:44:06,34.42957210862311
9.653421,0.02873042,1.934515,0.053162728,0.09189159,0.026720991,16.0,9.6223,0.0536,1.8915,0.3215,-0.0144,0.14819999,-0.272686,-0.57376,-0.335392,2017-12-24 21:44:07,37.21076814661539
9.710882,0.076614454,1.9153614,0.0,0.0,0.0,16.0,9.6212,0.0616,1.897,0.2638,0.0167,-0.014099999,-0.267438,-0.57598,-0.329802,2017-12-24 21:44:08,40.02882946924677
9.710882,0.10534488,1.9057846,0.07798131,0.009808751,0.011711159,16.0,9.6247,0.060099997,1.8788999,0.2701,0.0084,0.0431,-0.267886,-0.576501,-0.329637,2017-12-24 21:44:09,31.073536150845285
9.624691,0.047884032,1.9536686,-0.1044405,0.03080506,-0.012269665,16.0,9.6268,0.056399997,1.8685,0.3073,0.022,0.11229999,-0.269069,-0.576481,-0.330407,2017-12-24 21:44:10,35.67461435696593
9.672575,0.08619126,1.8962077,0.0,0.0,0.0,16.0,9.6276,0.0639,1.8637999,0.29659998,0.0047,0.058199998,-0.26687,-0.57788,-0.32805198,2017-12-24 21:44:12,40.0489309159806
9.720459,0.038307227,1.934515,0.07579965,0.0051661744,0.015271631,16.0,9.623899,0.0536,1.8835,0.32979998,-0.0144,0.097399995,-0.26769,-0.576461,-0.329057,2017-12-24 21:44:13,39.13573798628471
9.672575,0.047884032,1.8962077,-0.11070623,0.012531464,-0.014451326,16.0,9.6248,0.0536,1.8786999,0.28959998,-0.0046,0.023699999,-0.267548,-0.576679,-0.328655,2017-12-24 21:44:14,30.928845046832908
9.682152,0.047884032,1.8962077,0.0,0.0,0.0,16.0,9.6221,0.0532,1.8927,0.361,-0.023799999,0.049,-0.271949,-0.574019,-0.334321,2017-12-24 21:44:15,34.540493539308976
9.739613,0.06703765,1.8962077,0.0,0.0,0.0,16.0,9.6244,0.054399997,1.8808,0.3293,0.024,0.051,-0.270814,-0.575237,-0.332627,2017-12-24 21:44:16,41.919972506022575
9.682152,0.02873042,1.8962077,0.0,0.0,0.0,16.0,9.625199,0.059,1.8764,0.3186,-0.0099,0.045599997,-0.272113,-0.574572,-0.334517,2017-12-24 21:44:17,40.40447436869972
9.662998,0.06703765,1.8483237,0.0,0.0,0.0,16.0,9.6249,0.0628,1.8779999,0.2601,0.0058,0.0637,-0.270292,-0.57541597,-0.332685,2017-12-24 21:44:18,40.47878722872543
9.682152,0.02873042,1.8674773,-0.07853982,0.07853982,-0.015812684,16.0,9.6222,0.0609,1.892,0.253,-0.0314,0.0497,-0.271639,-0.574176,-0.334656,2017-12-24 21:44:19,41.97912883591934
9.710882,0.10534488,1.982399,-0.12980014,0.018535396,-0.025080381,16.0,9.6248,0.0581,1.8785,0.28959998,0.0104,0.063099995,-0.271633,-0.574834,-0.333987,2017-12-24 21:44:20,37.647842139759156
9.710882,0.08619126,1.8674773,0.06026622,0.079080865,0.046355944,16.0,9.6251,0.0559,1.8769,0.29909998,0.0029,0.054899998,-0.270839,-0.575183,-0.332745,2017-12-24 21:44:21,41.40696601626777
9.691729,0.047884032,1.8962077,0.10662217,0.0010821042,0.025080381,16.0,9.6226,0.055099998,1.8898,0.30159998,-0.0061,0.051799998,-0.269886,-0.575317,-0.331923,2017-12-24 21:44:22,31.89454781932146
9.691729,0.05746084,1.9057846,0.11016518,0.002984513,0.022357667,16.0,9.626599,0.058199998,1.8693999,0.28779998,-0.019,0.1213,-0.271145,-0.57547,-0.333082,2017-12-24 21:44:23,38.468820548121
9.701305,0.08619126,1.8674773,-0.13526301,-0.0049043754,-0.019896753,16.0,9.6221,0.058599997,1.8921,0.3021,0.01,0.0691,-0.266941,-0.576409,-0.328935,2017-12-24 21:44:24,41.20426468131973
9.682152,0.06703765,1.8674773,0.0,0.0,0.0,16.0,9.620399,0.058199998,1.9009,0.28419998,-0.0288,0.0309,-0.268527,-0.575408,-0.330897,2017-12-24 21:44:25,42.21955423668139
9.691729,0.038307227,1.9440918,-0.10798352,0.012531464,-0.013892821,16.0,9.6227,0.061899997,1.8891,0.3015,0.0164,-0.0061999997,-0.267398,-0.576366,-0.329487,2017-12-24 21:44:26,40.34362956594777
9.701305,0.076614454,1.8770541,-0.0760789,0.0054454273,-0.012810716,16.0,9.6249,0.0574,1.8783,0.3092,-0.018199999,0.0927,-0.268746,-0.576154,-0.330356,2017-12-24 21:44:27,36.429676800833725
9.634268,0.076614454,1.8674773,0.07335619,0.0051661744,0.029722957,16.0,9.6249,0.060099997,1.8781999,0.33859998,0.0477,0.1125,-0.265968,-0.577518,-0.327322,2017-12-24 21:44:28,40.52008565354978
9.653421,0.095768064,1.9057846,0.10880382,0.015271631,0.023998277,16.0,9.6264,0.0616,1.8702999,0.2586,0.0069,0.012499999,-0.271488,-0.575269,-0.333774,2017-12-24 21:44:29,42.51507958189335
9.682152,0.076614454,2.0015526,0.07553785,0.0049043754,0.016632987,16.0,9.623099,0.0548,1.8872999,0.2913,-0.0058,0.044499997,-0.265586,-0.577178,-0.326715,2017-12-24 21:44:30,34.85136029649908
9.662998,0.05746084,1.9153614,0.0,0.0,0.0,16.0,9.6222,0.060099997,1.892,0.27269998,-0.0011999999,0.0692,-0.272096,-0.574061,-0.335212,2017-12-24 21:44:31,30.084637680381068
9.682152,0.02873042,1.8962077,0.07744026,0.010629055,0.013892821,16.0,9.6254,0.061899997,1.8751999,0.2792,0.0164,0.1645,-0.2726,-0.574522,-0.335317,2017-12-24 21:44:32,33.9543997636926
9.672575,0.019153614,1.8866309,0.10962413,-0.0019024089,0.02453933,16.0,9.6205,0.0506,1.9008,0.2547,-0.0212,0.0212,-0.269649,-0.574931,-0.33164,2017-12-24 21:44:33,34.96890746546577
9.691729,0.047884032,1.8866309,-0.07934267,-8.0285146E-4,-0.0019024089,16.0,9.6223,0.044499997,1.8916999,0.3117,0.024,0.0499,-0.271424,-0.574324,-0.333286,2017-12-24 21:44:34,36.03808235348291
9.701305,0.05746084,1.8962077,0.0,0.0,0.0,16.0,9.6236,0.0574,1.8844999,0.26139998,0.0209,0.037499998,-0.270868,-0.574833,-0.333296,2017-12-24 21:44:35,38.29828830993502
9.691729,0.076614454,1.9536686,0.14971434,0.0070860367,0.027803095,16.0,9.6254,0.058599997,1.8755,0.2792,2.0E-4,0.046499997,-0.264848,-0.578126,-0.325701,2017-12-24 21:44:36,34.97020188688421
9.672575,0.076614454,1.8674773,-0.07579965,-0.0038048178,0.023439772,16.0,9.6236,0.0514,1.8848,0.2516,-0.0514,0.0568,-0.269131,-0.575616,-0.330832,2017-12-24 21:44:37,39.282520292142394
9.710882,0.038307227,1.8674773,0.0,0.0,0.0,16.0,9.6255,0.0547,1.8750999,0.3085,-0.035099998,0.0665,-0.26735,-0.576957,-0.328294,2017-12-24 21:44:38,32.08900921810259
9.662998,0.08619126,1.8387469,-0.030264009,0.102538094,-0.024260076,16.0,9.623199,0.0578,1.8869,0.3011,0.0206,0.0743,-0.271644,-0.574456,-0.334272,2017-12-24 21:44:39,36.65104400957653
9.691729,0.076614454,1.8195933,0.102538094,0.0021816615,0.038449604,16.0,9.6213,0.059299998,1.8964,0.3029,-0.0103,0.0747,-0.26823398,-0.575729,-0.330368,2017-12-24 21:44:40,31.429376592666184
9.634268,0.076614454,1.8866309,-0.17235126,0.008726646,-0.03190462,16.0,9.623099,0.068799995,1.887,0.2717,0.0095999995,0.1232,-0.267194,-0.576535,-0.329678,2017-12-24 21:44:41,32.45385028788223
9.672575,0.05746084,1.9440918,-0.074717544,0.026720991,0.0,16.0,9.6242,0.057,1.8814,0.2608,0.0213,0.040599998,-0.268641,-0.576167,-0.330393,2017-12-24 21:44:42,30.604629273703296
9.691729,0.05746084,1.8866309,0.07307693,0.010088003,0.029443704,16.0,9.624,0.050499998,1.8827,0.28059998,-0.0211,0.0295,-0.269287,-0.575748,-0.330882,2017-12-24 21:44:43,28.118032353319713
9.682152,0.076614454,1.8387469,-0.15053464,0.0019024089,-0.02453933,16.0,9.6229,0.058199998,1.8884,0.3602,0.0103,-0.0055,-0.269235,-0.575672,-0.331291,2017-12-24 21:44:44,29.496743093574814
9.701305,0.038307227,1.8579005,0.012531464,0.0752586,0.012531464,16.0,9.6251,0.0514,1.877,0.29909998,0.017199999,0.0352,-0.269028,-0.576193,-0.33034799,2017-12-24 21:44:45,37.67645331422818
9.662998,0.038307227,1.8483237,0.08670796,0.012531464,0.07035422,16.0,9.6257,0.0559,1.8742,0.32799998,0.0126,-0.0011999999,-0.27171,-0.575027,-0.333739,2017-12-24 21:44:46,36.78962433152617
9.672575,0.019153614,1.8579005,0.07744026,-0.014172073,0.010629055,16.0,9.6261,0.0609,1.872,0.3178,-0.0021,0.049999997,-0.267125,-0.57723397,-0.328336,2017-12-24 21:44:47,40.86695989532389
9.672575,0.019153614,1.8866309,0.07661995,0.0049043754,0.010088003,16.0,9.6262,0.0646,1.8714,0.2981,-0.0156,0.031,-0.267405,-0.577128,-0.329094,2017-12-24 21:44:48,38.653790246324036
9.701305,0.05746084,1.8674773,0.076358154,0.005986479,0.010629055,16.0,9.623,0.055499997,1.8879,0.35029998,0.0326,0.1126,-0.269783,-0.575436,-0.332017,2017-12-24 21:44:49,38.20395752122264
9.701305,0.05746084,1.8962077,-0.110444434,0.002984513,-0.020996312,16.0,9.622399,0.058199998,1.8908,0.28219998,-0.0092,0.0508,-0.266914,-0.576499,-0.328703,2017-12-24 21:44:50,37.84462271222743
9.643845,0.06703765,1.8579005,-0.11016518,0.008988446,-0.020176006,16.0,9.6242,0.0578,1.8817999,0.251,0.030299999,0.069699995,-0.27048,-0.575191,-0.332826,2017-12-24 21:44:51,38.98218260370342
9.653421,0.05746084,1.8770541,0.11016518,0.007347836,0.020717058,16.0,9.6248,0.0563,1.8787999,0.3093,0.0023999999,0.121599995,-0.268445,-0.57641697,-0.329929,2017-12-24 21:44:52,36.86231582600211
9.682152,0.076614454,1.8674773,0.074717544,0.009808751,0.018256145,16.0,9.6249,0.0579,1.8779999,0.2699,-0.0088,0.053799998,-0.26642,-0.577104,-0.327841,2017-12-24 21:44:53,31.92319555296285
9.720459,0.095768064,1.8866309,0.0,0.0,0.0,16.0,9.6219,0.0517,1.8934,0.3023,-0.0223,0.0973,-0.266131,-0.576672,-0.327403,2017-12-24 21:44:54,33.92683765980043
9.720459,0.038307227,1.8770541,0.13526301,0.01881465,-0.0095294975,16.0,9.6236,0.054399997,1.8845999,0.3202,0.014099999,0.047199998,-0.264149,-0.578133,-0.324934,2017-12-24 21:44:55,35.717450336350396
9.662998,0.05746084,1.8770541,0.0,0.0,0.0,16.0,9.623,0.0541,1.8879,0.2914,-0.0148,0.0537,-0.266617,-0.576939,-0.32778,2017-12-24 21:44:56,35.77626418877361
9.672575,0.05746084,1.934515,0.0,0.0,0.0,16.0,9.6219,0.058599997,1.8934,0.2631,0.0198,-8.0E-4,-0.270424,-0.574743,-0.333077,2017-12-24 21:44:57,40.321835055399035
9.701305,0.06703765,1.9632454,-0.07579965,0.008447394,-0.01308997,16.0,9.6237,0.058199998,1.8844,0.2613,0.0202,0.1161,-0.271921,-0.574351,-0.334558,2017-12-24 21:44:58,41.00152481444379
9.720459,0.02873042,1.8866309,0.10716321,0.022619467,0.02453933,16.0,9.6244,0.0567,1.8807,0.29979998,0.021699999,0.0707,-0.273573,-0.573818,-0.336307,2017-12-24 21:44:59,31.475864809032956
9.691729,0.076614454,1.8962077,0.10988593,0.01144936,0.020176006,16.0,9.625199,0.0513,1.8765999,0.2794,-0.0023,0.1043,-0.268809,-0.576372,-0.32991,2017-12-24 21:45:00,36.002121804792004
9.691729,0.02873042,1.8866309,0.04335398,0.061086524,0.02617994,16.0,9.626599,0.0654,1.869,0.24859999,0.0032,0.1217,-0.268117,-0.576816,-0.329937,2017-12-24 21:45:01,39.1234579555415
9.662998,0.05746084,1.9728222,0.0752586,0.012531464,0.01308997,16.0,9.622399,0.0536,1.8912,0.29209998,-0.0242,0.021,-0.270826,-0.574652,-0.333131,2017-12-24 21:45:02,31.806812963061578
9.634268,0.019153614,1.8579005,-0.07771951,0.0095294975,-0.012269665,16.0,9.6193,0.060099997,1.9066999,0.26569998,0.0084999995,0.064399995,-0.272079,-0.573372,-0.335661,2017-12-24 21:45:03,38.211670354582274
9.720459,0.06703765,1.9536686,0.067631505,0.023719024,0.033807028,16.0,9.6196995,0.055499997,1.9045999,0.334,0.022799999,-0.0022,-0.269635,-0.57447,-0.332462,2017-12-24 21:45:04,36.5781970998919
9.701305,0.095768064,1.9057846,-0.076358154,0.00408407,-0.011711159,16.0,9.6215,0.0585,1.8955,0.2439,0.0198,0.0265,-0.267101,-0.576203,-0.329115,2017-12-24 21:45:05,36.52000832369413
9.701305,0.02873042,1.8674773,-0.07389724,0.02289872,-0.0051661744,16.0,9.6213,0.049799997,1.8967999,0.2932,0.009,0.064399995,-0.268993,-0.575247,-0.330919,2017-12-24 21:45:06,41.07223011009986
9.691729,0.05746084,1.8579005,0.0,0.0,0.0,16.0,9.618899,0.047599997,1.9089999,0.30539998,0.0112,-0.0064999997,-0.268847,-0.574794,-0.330907,2017-12-24 21:45:07,40.954004993949695
9.710882,0.076614454,1.8004397,0.10826277,0.0054454273,0.029164452,16.0,9.6227,0.0635,1.8889999,0.2917,0.0148,0.0722,-0.269173,-0.575681,-0.331643,2017-12-24 21:45:08,37.97461224490161
9.720459,0.05746084,1.8962077,0.108524576,0.013351769,0.025900686,16.0,9.6223,0.059299998,1.8915,0.35099998,-4.0E-4,0.0207,-0.269401,-0.57529,-0.331891,2017-12-24 21:45:09,37.426208154577196
9.662998,0.047884032,1.9057846,-0.106901415,0.0095294975,-0.022078415,16.0,9.6261,0.0537,1.8719,0.2981,0.0050999997,0.0109,-0.271216,-0.575332,-0.33291999,2017-12-24 21:45:10,41.174266172517065
9.682152,0.05746084,1.8962077,0.0760789,0.0049043754,0.013351769,16.0,9.6283,0.059299998,1.8607,0.2862,0.0092,0.0023999999,-0.26955,-0.576549,-0.330947,2017-12-24 21:45:11,36.98315762881175
9.691729,0.076614454,1.8483237,0.0,0.0,0.0,16.0,9.6263,0.0624,1.8709999,0.2882,-0.0134,0.070599996,-0.267882,-0.57701,-0.329292,2017-12-24 21:45:12,39.7031926696401
9.672575,0.038307227,1.8866309,-0.11016518,0.011711159,-0.019076448,16.0,9.6244,0.058599997,1.8808,0.3195,2.0E-4,0.0412,-0.271452,-0.574859,-0.33390298,2017-12-24 21:45:13,36.30994052877499
9.682152,0.095768064,1.9153614,0.0760789,0.008447394,0.011711159,16.0,9.6264,0.052899998,1.8702999,0.3076,0.0058999998,0.0713,-0.267903,-0.576947,-0.328805,2017-12-24 21:45:14,38.87931691381423
9.710882,0.06703765,1.8579005,-0.10798352,0.0013613568,-0.018535396,16.0,9.627299,0.059299998,1.8658999,0.2676,0.019,0.046299998,-0.265544,-0.578265,-0.326185,2017-12-24 21:45:15,34.02837461634973
9.710882,0.06703765,1.8579005,0.0,0.0,0.0,16.0,9.624499,0.052899998,1.8805,0.31939998,0.0157,0.0219,-0.269467,-0.575806,-0.331021,2017-12-24 21:45:16,35.35448604220919
9.691729,0.076614454,1.8004397,0.13498376,0.00572468,0.022619467,16.0,9.627999,0.058199998,1.862,0.2766,0.0103,0.0502,-0.268154,-0.577196,-0.329208,2017-12-24 21:45:17,36.110021484083305
9.691729,0.05746084,1.934515,-0.10744247,0.025900686,-0.019634955,16.0,9.6234,0.0574,1.8855,0.2419,0.040599998,0.0267,-0.271609,-0.574779,-0.334015,2017-12-24 21:45:18,41.52175311799812
9.662998,0.047884032,1.8387469,0.0,0.0,0.0,16.0,9.624499,0.047599997,1.8804,0.2507,-0.018099999,0.061199997,-0.269456,-0.575763,-0.33082598,2017-12-24 21:45:19,38.343429028398255
9.682152,0.038307227,1.9057846,-0.10471976,0.00408407,-0.03190462,16.0,9.6272,0.0552,1.8662,0.30679998,0.0231,0.0264,-0.26793098,-0.577276,-0.32874,2017-12-24 21:45:20,39.4176284008431
9.730036,0.08619126,1.9057846,0.10770427,0.0032637657,0.019896753,16.0,9.6264,0.062699996,1.8701999,0.31739998,0.035299998,0.051799998,-0.269436,-0.576107,-0.331469,2017-12-24 21:45:21,39.33111689160335
9.710882,0.08619126,1.8962077,0.0,0.0,0.0,16.0,9.623,0.0639,1.8873999,0.3012,0.0046,0.063999996,-0.271294,-0.57445,-0.334287,2017-12-24 21:45:22,38.74963626636913
9.701305,0.05746084,1.9057846,0.13416345,0.0070860367,0.026441738,16.0,9.6236,0.054399997,1.885,0.26139998,-0.0053999997,0.0861,-0.268648,-0.575949,-0.330328,2017-12-24 21:45:23,38.69897140128593
9.691729,0.047884032,1.9249382,0.0,0.0,0.0,16.0,9.624499,0.0495,1.8805,0.2801,-4.9999997E-4,0.0905,-0.269888,-0.575373,-0.331389,2017-12-24 21:45:24,35.07059595929636
9.730036,0.076614454,1.8866309,0.0,0.0,0.0,16.0,9.6258,0.065,1.8730999,0.3376,0.0134,0.0587,-0.26962098,-0.576015,-0.331836,2017-12-24 21:45:25,36.216043261625416
9.720459,0.08619126,1.9057846,0.0,0.0,0.0,16.0,9.6251,0.0547,1.8769,0.29909998,-0.0253,0.054899998,-0.267113,-0.57702,-0.328213,2017-12-24 21:45:26,40.208257484543275
9.624691,0.047884032,1.9153614,0.0752586,-0.014172073,0.020437805,16.0,9.625999,0.0563,1.8727,0.259,0.0123,0.0787,-0.268056,-0.576963,-0.329142,2017-12-24 21:45:27,35.805534651155206
9.691729,0.038307227,1.8387469,-0.07798131,0.0032637657,-0.013892821,16.0,9.6265,0.0556,1.8698,0.2487,0.022799999,-0.0066,-0.269385,-0.57629,-0.330821,2017-12-24 21:45:28,37.609343014285564
9.653421,0.047884032,1.8866309,0.10580186,-5.410521E-4,0.0283616,16.0,9.6214,0.058199998,1.8960999,0.2342,-0.0092,0.084699996,-0.272187,-0.573875,-0.335134,2017-12-24 21:45:29,41.727766926755585
9.672575,0.06703765,1.8962077,-0.07661995,0.011170107,-0.0049043754,16.0,9.623899,0.0475,1.8835,0.2807,0.021,0.0385,-0.269988,-0.575386,-0.331404,2017-12-24 21:45:30,39.761353870435585
9.653421,0.05746084,1.8483237,0.07798131,0.0054454273,0.013892821,16.0,9.6261,0.057499997,1.8721,0.2883,0.0111,-0.0088,-0.269477,-0.576192,-0.331114,2017-12-24 21:45:31,41.02700287434051
9.653421,0.05746084,1.8674773,0.07798131,0.008988446,0.011711159,16.0,9.6227,0.0563,1.8894,0.31129998,-0.0072999997,0.0326,-0.274844,-0.572995,-0.338099,2017-12-24 21:45:32,34.89329069570066
9.691729,0.047884032,1.9057846,-0.072797686,0.0,0.026720991,16.0,9.624,0.0521,1.8827,0.2708,-0.0030999999,0.10789999,-0.269351,-0.575721,-0.330935,2017-12-24 21:45:33,40.80378992102677
9.710882,0.038307227,1.934515,-0.076358154,-0.0054454273,-0.012269665,16.0,9.622,0.0525,1.8928,0.2924,-0.0133,0.019399999,-0.27119,-0.574373,-0.333437,2017-12-24 21:45:34,39.00769995700792
9.682152,0.038307227,1.9153614,-0.11070623,5.410521E-4,-0.019634955,16.0,9.622499,0.0548,1.8905,0.2821,0.0039,0.021699999,-0.272954,-0.573677,-0.33576798,2017-12-24 21:45:35,39.2351731011731
9.653421,0.038307227,1.8962077,0.13470452,0.0046251225,0.02453933,16.0,9.6202,0.0475,1.9024999,0.3335,0.0112,0.0881,-0.273564,-0.572932,-0.336233,2017-12-24 21:45:36,39.984980039860766
9.672575,0.06703765,1.9057846,0.13362241,-0.0038048178,0.029722957,16.0,9.622399,0.0559,1.8908999,0.3214,0.0028,0.089999996,-0.270783,-0.574717,-0.333178,2017-12-24 21:45:37,44.12799864909048
9.653421,0.06703765,1.8962077,0.07579965,-0.0035430184,0.0155334305,16.0,9.6258,0.059699997,1.8731999,0.3278,0.0285,-2.0E-4,-0.269441,-0.576202,-0.331207,2017-12-24 21:45:38,37.6607946882159
9.682152,0.038307227,1.8483237,0.106901415,0.0,0.023998277,16.0,9.6242,0.0635,1.8813,0.251,-0.0145,0.050499998,-0.273748,-0.573744,-0.337058,2017-12-24 21:45:40,40.411438198840386
9.710882,0.047884032,1.8483237,0.13416345,0.010088003,0.025359634,16.0,9.6249,0.06,1.8781999,0.28959998,-0.0208,0.0536,-0.271578,-0.574944,-0.333908,2017-12-24 21:45:41,37.18839682136793
9.672575,0.076614454,1.982399,0.0760789,0.017174039,0.013892821,16.0,9.623099,0.0574,1.8871,0.3109,-0.018199999,0.0349,-0.268147,-0.57623,-0.329875,2017-12-24 21:45:42,34.81235868377426
9.691729,0.076614454,1.8866309,-0.10716321,-0.022357667,-0.0054454273,16.0,9.625,0.0513,1.8779,0.28939998,0.0074,0.083399996,-0.272693,-0.574361,-0.334753,2017-12-24 21:45:43,35.67045307282102
9.662998,0.076614454,1.8962077,0.0,0.0,0.0,16.0,9.6256,0.0578,1.8747,0.31829998,0.0106999995,0.0669,-0.266897,-0.577228,-0.328007,2017-12-24 21:45:44,36.533041884895326
9.701305,0.08619126,1.8962077,0.10035643,-0.047717303,0.016353736,16.0,9.623799,0.0605,1.8836,0.3004,-0.011399999,0.107099995,-0.269108,-0.575798,-0.331274,2017-12-24 21:45:45,39.00962083369611
9.682152,0.009576807,1.8195933,-0.15407766,0.012269665,-0.02289872,16.0,9.6235,0.0532,1.8856,0.25169998,-0.023799999,-0.012499999,-0.27002499,-0.575339,-0.332022,2017-12-24 21:45:46,32.710741639544935
9.730036,0.05746084,1.8866309,0.0,0.0,0.0,16.0,9.6233,0.058599997,1.8862,0.3205,0.0198,0.045599997,-0.271199,-0.574781,-0.333699,2017-12-24 21:45:47,32.871436336087434
9.691729,0.047884032,1.8770541,0.10498156,-0.009808751,0.030264009,16.0,9.6228,0.0563,1.8887,0.32099998,0.022,0.043199997,-0.267224,-0.576365,-0.328989,2017-12-24 21:45:48,35.21410250028423
9.682152,0.05746084,1.8387469,-0.076358154,0.008447394,-0.010349803,16.0,9.6237,0.0536,1.8844999,0.3398,-0.033999998,0.0963,-0.271284,-0.57475,-0.33348998,2017-12-24 21:45:49,36.90219068222389
9.691729,0.05746084,1.9153614,0.011990412,0.07771951,0.010088003,16.0,9.6209,0.065,1.8980999,0.3523,0.0133,-0.024999999,-0.266343,-0.57649,-0.328719,2017-12-24 21:45:50,35.42827954632817
9.672575,0.095768064,1.8962077,0.053441983,0.05862561,0.0,16.0,9.623199,0.0665,1.8865,0.3207,0.0019999999,0.0845,-0.267063,-0.576685,-0.329316,2017-12-24 21:45:51,40.24248611326275
9.710882,0.06703765,1.9440918,0.13308136,0.002984513,0.01308997,16.0,9.625299,0.056599997,1.8761,0.29889998,-0.0075999997,-0.0128,-0.266997,-0.57711,-0.328183,2017-12-24 21:45:52,41.35406385376555
9.691729,0.05746084,1.9057846,-0.0760789,-0.008988446,-0.011711159,16.0,9.6208,0.049399998,1.8994,0.3035,-0.010199999,0.0422,-0.271574,-0.573937,-0.334102,2017-12-24 21:45:53,40.14369044787536
9.701305,0.047884032,1.8483237,0.13334316,0.005986479,0.03080506,16.0,9.6285,0.0616,1.8596,0.2762,0.0167,0.0231,-0.268168,-0.577294,-0.329392,2017-12-24 21:45:54,41.81869793040348
9.691729,0.08619126,1.9153614,-0.1338842,0.016074482,-0.02289872,16.0,9.6243,0.0598,1.8813,0.28039998,0.0088,0.0211,-0.268264,-0.576209,-0.330049,2017-12-24 21:45:55,40.21595355480179
9.682152,0.076614454,1.8866309,0.07716101,0.0051661744,0.017715093,16.0,9.6222,0.061899997,1.8916999,0.2922,0.0262,0.0793,-0.270454,-0.574796,-0.33325,2017-12-24 21:45:56,40.591525228033014
9.662998,0.047884032,1.9440918,-0.10798352,0.007906342,-0.017174039,16.0,9.6241,0.0624,1.882,0.3001,-0.0134,0.0792,-0.268603,-0.5761,-0.330752,2017-12-24 21:45:57,40.72635388067574
9.682152,0.038307227,1.9440918,-0.10934488,0.019355701,-0.016353736,16.0,9.6262,0.060099997,1.8713,0.2784,0.0084,0.089899994,-0.265717,-0.577909,-0.326724,2017-12-24 21:45:58,35.11765166686923
9.662998,0.06703765,1.8195933,0.0,0.0,0.0,16.0,9.6255,0.062,1.8749,0.3085,0.026099999,0.0766,-0.265802,-0.577622,-0.32716,2017-12-24 21:45:59,35.70746832381805
9.653421,0.076614454,1.8674773,0.0,0.0,0.0,16.0,9.623899,0.061199997,1.8829,0.3493,0.0072999997,0.1078,-0.270166,-0.575332,-0.332588,2017-12-24 21:46:00,40.67381777441532
9.691729,0.038307227,1.9536686,-0.07389724,0.021816615,-0.00816814,16.0,9.626699,0.063099995,1.8686999,0.327,0.015199999,0.063099995,-0.268487,-0.576712,-0.330277,2017-12-24 21:46:01,35.10850266210208
9.653421,0.076614454,1.9153614,-0.1502554,0.0010821042,-0.025359634,16.0,9.6228,0.063099995,1.8887,0.2622,0.015199999,0.0725,-0.266496,-0.576782,-0.328484,2017-12-24 21:46:02,35.218236899203866
9.662998,0.08619126,1.9057846,-0.07826056,-0.007906342,-0.010629055,16.0,9.6262,0.062,1.8713,0.2686,0.0163,0.0016999999,-0.269796,-0.575879,-0.33201,2017-12-24 21:46:03,40.08568503301352
9.653421,0.02873042,1.8962077,-0.13444272,0.013631022,-0.022357667,16.0,9.624599,0.054399997,1.8797,0.3389,0.0142,0.0521,-0.268111,-0.576519,-0.329453,2017-12-24 21:46:04,40.52765280666613
9.672575,0.076614454,1.8483237,-0.074717544,-0.017994344,-0.009267698,16.0,9.6269,0.0609,1.8676,0.3071,-0.021599999,0.0446,-0.269123,-0.576433,-0.330816,2017-12-24 21:46:05,40.75336606091093
9.720459,0.076614454,1.8866309,-0.074717544,0.004363323,-0.019355701,16.0,9.621099,0.0609,1.8974999,0.2835,0.0469,0.0442,-0.268193,-0.575661,-0.330415,2017-12-24 21:46:06,34.21544546611844
9.710882,0.047884032,1.934515,0.10880382,0.0054454273,0.027262043,16.0,9.6241,0.0616,1.882,0.29029998,0.036399998,0.0596,-0.271213,-0.574796,-0.333859,2017-12-24 21:46:07,31.4349832800592
9.720459,0.047884032,1.9057846,0.13362241,0.014172073,0.02617994,16.0,9.6202,0.0628,1.902,0.26479998,0.0254,-0.0387,-0.269524,-0.574857,-0.332505,2017-12-24 21:46:08,33.48524510840877
9.691729,0.0,1.8579005,-0.07661995,-0.0076270886,-0.0076270886,16.0,9.622,0.0632,1.8927,0.2434,0.024999999,0.029299999,-0.269006,-0.575441,-0.331664,2017-12-24 21:46:09,35.8280703778285
9.643845,0.076614454,1.934515,0.0,0.0,0.0,16.0,9.6248,0.0559,1.8786,0.2602,0.0127,0.072799996,-0.270389,-0.57534,-0.332327,2017-12-24 21:46:10,40.10812701304555
9.682152,0.05746084,1.8866309,0.07689921,0.0051661744,0.0070860367,16.0,9.625,0.0506,1.8774999,0.28939998,0.0082,0.0543,-0.270023,-0.575464,-0.33151,2017-12-24 21:46:11,33.05909331901301
9.682152,0.047884032,1.8962077,-0.07771951,0.01144936,-0.011170107,16.0,9.6233,0.0415,1.8867999,0.2715,0.0074,0.0058,-0.272683,-0.573969,-0.334348,2017-12-24 21:46:12,40.78658194456422
9.710882,0.06703765,1.9249382,0.0,0.0,0.0,16.0,9.6255,0.059699997,1.8748,0.3085,-0.0401,0.0276,-0.265348,-0.578072,-0.326421,2017-12-24 21:46:13,40.53512400979143
9.682152,0.076614454,1.9632454,0.0,0.0,0.0,16.0,9.6257,0.053999998,1.8742,0.22989999,0.0047,0.0674,-0.270261,-0.575698,-0.331913,2017-12-24 21:46:14,40.552275948071326
9.672575,0.019153614,1.9249382,0.07361799,0.014992379,0.01881465,16.0,9.6235,0.0605,1.885,0.3105,-0.0016,0.1056,-0.267688,-0.576392,-0.329773,2017-12-24 21:46:15,38.5607274394157
9.672575,0.019153614,1.9728222,-0.0760789,0.014992379,0.0010821042,16.0,9.6221,0.0535,1.8923999,0.3119,-0.0241,0.0394,-0.271263,-0.574257,-0.333745,2017-12-24 21:46:16,42.61932385553436
9.682152,0.05746084,1.8674773,0.0,0.0,0.0,16.0,9.6233,0.0585,1.8863,0.3304,0.0198,0.074999996,-0.269769,-0.575459,-0.331932,2017-12-24 21:46:17,38.96173606244514
9.691729,0.06703765,1.8866309,0.0,0.0,0.0,16.0,9.6237,0.055499997,1.8844,0.2417,0.0032,0.0866,-0.271388,-0.574689,-0.333709,2017-12-24 21:46:18,33.35905567412621
9.682152,0.02873042,1.9057846,0.07389724,0.0155334305,0.017715093,16.0,9.622399,0.051799998,1.8908,0.30179998,-0.0223,0.0312,-0.273003,-0.57354,-0.335589,2017-12-24 21:46:19,40.410693732532096
9.682152,0.076614454,1.8579005,-0.13170254,0.009808751,-0.020437805,16.0,9.6261,0.059699997,1.8716999,0.2883,0.0186,0.030599998,-0.26708,-0.577208,-0.328482,2017-12-24 21:46:20,40.433074964726366
9.653421,0.05746084,1.9153614,-0.11126474,0.012269665,-0.00816814,16.0,9.6244,0.063099995,1.8807,0.29009998,0.0251,0.0413,-0.269634,-0.575678,-0.332003,2017-12-24 21:46:21,44.10956421938049
9.701305,0.06703765,1.8195933,-0.07744026,0.011170107,-0.013351769,16.0,9.625299,0.062299997,1.8756,0.2891,-0.0133,0.066,-0.268661,-0.57624,-0.330742,2017-12-24 21:46:22,44.279289415218166
9.662998,0.08619126,1.8866309,-0.07771951,-0.014992379,-0.006806784,16.0,9.6228,0.0547,1.8887,0.25239998,-0.0253,0.052899998,-0.271253,-0.574562,-0.333556,2017-12-24 21:46:23,38.57489014042895
9.701305,0.047884032,1.8866309,-0.10744247,0.011170107,-0.019355701,16.0,9.6282,0.0525,1.8612,0.26659998,-0.0427,0.0412,-0.271774,-0.575545,-0.333189,2017-12-24 21:46:24,31.287934164333066
9.691729,0.019153614,1.8866309,0.10826277,0.0051661744,0.015812684,16.0,9.6254,0.043399997,1.8757999,0.289,-0.0041,0.0756,-0.270712,-0.57539,-0.331706,2017-12-24 21:46:25,42.83594017223945
9.662998,0.009576807,1.8962077,0.07798131,0.008726646,0.012269665,16.0,9.623799,0.056599997,1.8837999,0.3102,-0.0075999997,0.0284,-0.269294,-0.575723,-0.331268,2017-12-24 21:46:26,44.275127090210475
9.691729,0.076614454,1.9249382,-0.044174284,0.029443704,0.058904864,16.0,9.625899,0.0692,1.8727,0.2787,-0.0202,0.0787,-0.269312,-0.576173,-0.331675,2017-12-24 21:46:27,41.06697600827986
9.672575,0.11492168,1.8962077,0.09761626,0.049898963,0.0,16.0,9.6248,0.052899998,1.8788999,0.2602,-0.013599999,0.052899998,-0.264808,-0.577992,-0.325355,2017-12-24 21:46:28,40.155708776805895
9.701305,0.0,1.9919758,-0.10826277,0.0095294975,-0.013631022,16.0,9.6233,0.0589,1.8863,0.2715,0.019399999,0.055299997,-0.270157,-0.575215,-0.332505,2017-12-24 21:46:29,40.6912870886521
9.662998,0.076614454,1.8866309,0.0,0.0,0.0,16.0,9.6221,0.051799998,1.8927,0.312,0.0069999998,0.0784,-0.270193,-0.574885,-0.332278,2017-12-24 21:46:30,40.49044645920088
9.710882,0.047884032,1.8866309,-0.11206759,0.008726646,0.00408407,16.0,9.625,0.055099998,1.8774999,0.2992,-0.0257,0.044499997,-0.27007,-0.575451,-0.331916,2017-12-24 21:46:31,38.21208416171899
9.710882,0.019153614,1.934515,-0.17235126,0.0283616,-0.016894788,16.0,9.6219,0.058199998,1.8932999,0.2827,0.0202,0.0581,-0.271022,-0.574432,-0.333824,2017-12-24 21:46:32,39.87061889863
9.682152,0.076614454,1.8962077,-0.102538094,0.035168383,-0.016894788,16.0,9.6247,0.0687,1.8787999,0.3093,0.0095999995,0.053099997,-0.267377,-0.576747,-0.329638,2017-12-24 21:46:33,41.04442990368403
9.672575,0.05746084,1.9536686,0.12733923,0.0032637657,0.040352013,16.0,9.6242,0.058199998,1.8814,0.28039998,-0.009099999,0.079799995,-0.271432,-0.574758,-0.333938,2017-12-24 21:46:34,41.68892439302624
9.682152,0.06703765,1.8387469,-0.13416345,0.011711159,-0.02480113,16.0,9.6227,0.055499997,1.8892,0.2819,-0.0457,0.0328,-0.271206,-0.574596,-0.333825,2017-12-24 21:46:35,39.89580439563844
9.691729,0.076614454,1.8866309,0.076358154,0.014713125,0.0155334305,16.0,9.621799,0.055499997,1.8939999,0.33179998,-0.0163,0.086899996,-0.269179,-0.575226,-0.331562,2017-12-24 21:46:36,40.92107951320322
9.720459,0.076614454,1.8674773,0.0,0.0,0.0,16.0,9.6193,0.053099997,1.9067999,0.3344,-0.0041,0.0642,-0.268948,-0.574843,-0.33136,2017-12-24 21:46:37,40.46987941079597
9.720459,0.076614454,1.9057846,-0.14997615,0.009808751,-0.025080381,16.0,9.6244,0.0638,1.8802999,0.29979998,-0.0148,-0.017099999,-0.269539,-0.575534,-0.332063,2017-12-24 21:46:38,38.21471357869843
9.701305,0.08619126,1.8579005,-0.07934267,0.0038048178,0.07934267,16.0,9.627,0.0559,1.8675,0.258,0.0224,0.084,-0.269758,-0.57620597,-0.331174,2017-12-24 21:46:39,39.06383449336532
9.730036,0.076614454,1.8100165,0.10934488,0.011990412,0.022357667,16.0,9.6262,0.0643,1.8714,0.3373,0.023899999,0.0506,-0.270386,-0.575679,-0.332773,2017-12-24 21:46:40,34.65159930157724
9.653421,0.05746084,1.9153614,-0.110444434,0.006544985,-0.019076448,16.0,9.628699,0.058199998,1.8583,0.2857,-0.0092,0.014599999,-0.269889,-0.576419,-0.331279,2017-12-24 21:46:41,40.09837822337666
9.662998,0.047884032,1.9249382,0.19907226,0.014713125,0.037350047,16.0,9.6258,0.0646,1.8731999,0.2886,-0.0156,0.0095,-0.264157,-0.578548,-0.325223,2017-12-24 21:46:42,40.23343785659348
9.720459,0.038307227,1.8866309,-0.0752586,0.014713125,-0.010629055,16.0,9.6248,0.0654,1.8783,0.28959998,0.0128999995,0.0928,-0.270881,-0.57522,-0.333882,2017-12-24 21:46:43,40.246350205372075
9.682152,0.076614454,1.8770541,-0.10580186,0.033527777,-0.017715093,16.0,9.622399,0.0651,1.8906,0.3313,-0.015999999,0.0902,-0.267128,-0.576491,-0.329582,2017-12-24 21:46:44,37.0346199868025
9.691729,0.047884032,1.8674773,0.0,0.0,0.0,16.0,9.6248,0.0643,1.8783,0.33859998,0.014099999,0.0339,-0.26811,-0.576257,-0.330208,2017-12-24 21:46:45,35.5392965317477
9.634268,0.0,1.9249382,-0.10934488,0.0054454273,-0.004363323,16.0,9.6261,0.0502,1.872,0.3177,0.028099999,0.0696,-0.269792,-0.575989,-0.33096,2017-12-24 21:46:46,39.666882183375854
9.672575,0.05746084,1.9440918,0.048799407,-0.03817035,-0.09053023,16.0,9.623099,0.0578,1.8871,0.33049998,0.020499999,0.0055,-0.272229,-0.57426697,-0.334883,2017-12-24 21:46:47,39.490665289557725
9.672575,0.06703765,1.8866309,-0.07089528,0.03544764,-8.0285146E-4,16.0,9.6208,0.0574,1.8989999,0.2936,0.0013,0.0818,-0.270697,-0.574367,-0.333521,2017-12-24 21:46:48,28.547025720266703
9.691729,0.06703765,1.8674773,-0.21842796,0.0095294975,-0.03817035,16.0,9.6241,0.0449,1.8826,0.3001,0.023699999,0.0492,-0.271783,-0.574674,-0.333446,2017-12-24 21:46:49,40.294352709990875
9.672575,0.076614454,1.8770541,0.0,0.0,0.0,16.0,9.625899,0.058199998,1.8730999,0.318,-0.038599998,0.0881,-0.26668,-0.577386,-0.327809,2017-12-24 21:46:50,37.16689216712748
9.595961,0.37349546,2.6048915,0.108524576,0.0013613568,0.014713125,16.0,9.625,0.070599996,1.8772,0.3287,-0.0018999999,0.1037,-0.267986,-0.576603,-0.330428,2017-12-24 21:46:51,46.66721654573411
9.701305,0.11492168,1.9919758,-0.015271631,-0.015271631,0.076358154,16.0,9.6101,0.0657,1.9520999,0.2553,-0.0069,0.0385,-0.269504,-0.572568,-0.334541,2017-12-24 21:46:52,50.25235177829404
9.720459,0.047884032,1.9632454,0.012810716,0.06653195,0.04117232,16.0,9.609,0.0563,1.9578999,0.276,-0.0072999997,0.0523,-0.268712,-0.572743,-0.333046,2017-12-24 21:46:53,38.13590057122686
9.710882,0.10534488,1.9536686,0.14915584,0.007906342,0.030264009,16.0,9.6107,0.061199997,1.9490999,0.27429998,-0.0122,0.0219,-0.27003,-0.572453,-0.33475,2017-12-24 21:46:54,42.9946286323154
9.643845,0.05746084,1.9728222,0.0,0.0,0.0,16.0,9.6094,0.0654,1.9554,0.32459998,0.0128999995,0.1039,-0.270789,-0.571833,-0.336132,2017-12-24 21:46:55,40.0370099971679
9.653421,0.038307227,2.0398598,0.07497934,0.008726646,0.017715093,16.0,9.6075,0.049799997,1.9652,0.2775,-0.0106,0.1235,-0.272578,-0.570525,-0.337602,2017-12-24 21:46:56,35.99249206773957
9.691729,0.076614454,1.9057846,-0.07389724,0.0095294975,-0.02698279,16.0,9.6132,0.0559,1.9370999,0.34039998,0.022499999,0.0535,-0.264154,-0.575788,-0.32681,2017-12-24 21:46:57,38.62741490750483
9.701305,0.047884032,1.9728222,0.0,0.0,0.0,16.0,9.6101,0.0639,1.9524,0.324,0.0145,0.0578,-0.269479,-0.572569,-0.33433,2017-12-24 21:46:58,41.10710839262222
9.672575,0.076614454,1.982399,0.10770427,0.005986479,0.01881465,16.0,9.6102,0.062299997,1.9518,0.2846,0.025799999,0.0879,-0.268874,-0.572829,-0.333607,2017-12-24 21:46:59,40.46526257418874
9.662998,0.02873042,1.9919758,-0.07417649,-0.019896753,-0.010088003,16.0,9.611899,0.060399998,1.9434999,0.30249998,0.0081,0.0766,-0.268937,-0.573156,-0.333181,2017-12-24 21:47:00,29.17385694442845
9.672575,0.095768064,1.982399,0.0,0.0,0.0,16.0,9.616,0.0748,1.9224,0.3376,0.0034999999,0.0682,-0.265185,-0.575901,-0.32893,2017-12-24 21:47:01,25.085928385821678
9.701305,0.10534488,1.8387469,0.13634512,0.0021816615,0.011711159,16.0,9.6121,0.0532,1.9427999,0.2925,0.0055,0.0969,-0.269495,-0.572936,-0.33330598,2017-12-24 21:47:02,26.744032490019084
9.682152,0.047884032,1.934515,0.07443829,0.016632987,0.013892821,16.0,9.6093,0.063099995,1.9562999,0.2953,-0.0435,0.0736,-0.268897,-0.572667,-0.333759,2017-12-24 21:47:03,33.76592638362494
9.682152,0.076614454,1.982399,-0.053983033,0.053983033,-0.013351769,16.0,9.6135,0.0589,1.9354999,0.2617,-0.0197,0.0846,-0.264754,-0.575382,-0.327699,2017-12-24 21:47:04,34.52833741594855
9.672575,0.05746084,1.982399,0.105260804,0.02289872,0.020437805,16.0,9.6114,0.0574,1.9459,0.2932,0.0014,0.084,-0.270353,-0.572357,-0.334957,2017-12-24 21:47:05,38.44855814526857
9.662998,0.038307227,1.9440918,-0.07716101,0.01144936,-0.013892821,16.0,9.6087,0.053999998,1.9591999,0.25669998,0.0047999998,0.1099,-0.271584,-0.571267,-0.336476,2017-12-24 21:47:06,39.05990308379082
9.662998,0.038307227,1.9057846,0.110444434,0.0070860367,0.020176006,16.0,9.6103,0.0635,1.951,0.2649,0.0149,0.0396,-0.26622,-0.574375,-0.330075,2017-12-24 21:47:07,41.25503528821789
9.624691,0.08619126,2.0015526,-0.07553785,0.014172073,-0.010349803,16.0,9.6096,0.060399998,1.9548999,0.2656,-0.0016,0.1338,-0.264032,-0.57504797,-0.327527,2017-12-24 21:47:08,40.0122955055318
9.634268,0.05746084,1.8866309,0.0,0.0,0.0,16.0,9.6116,0.06,1.9448999,0.3421,0.018299999,0.0457,-0.270523,-0.57243,-0.335097,2017-12-24 21:47:09,34.3832524617278
9.720459,0.06703765,1.9249382,-0.110444434,0.008988446,-0.019076448,16.0,9.6157,0.063099995,1.9244,0.2987,0.0251,0.056399997,-0.269992,-0.57364297,-0.333992,2017-12-24 21:47:10,29.799863178006763
9.682152,0.05746084,1.8866309,0.0,0.0,0.0,16.0,9.6109,0.063099995,1.9484999,0.3134,0.015299999,0.091199994,-0.267057,-0.57375,-0.331306,2017-12-24 21:47:11,32.799473401169934
9.701305,0.095768064,2.0015526,0.0,0.0,0.0,16.0,9.6098995,0.0548,1.9534999,0.2947,0.0039999997,0.0469,-0.269611,-0.572455,-0.333923,2017-12-24 21:47:12,32.171593358614736
9.710882,0.076614454,1.9440918,0.07744026,0.0010821042,-0.0038048178,16.0,9.6083,0.0589,1.961,0.2669,0.029199999,0.059,-0.269437,-0.572172,-0.334275,2017-12-24 21:47:14,39.98007657591744
9.682152,0.06703765,1.9536686,0.10880382,0.0013613568,0.013631022,16.0,9.6132,0.0567,1.9369999,0.3012,0.011899999,0.0635,-0.269287,-0.573366,-0.333067,2017-12-24 21:47:15,38.20898887131193
9.720459,0.1340753,1.8962077,0.07826056,0.0,0.01308997,16.0,9.6140995,0.0635,1.9325999,0.3004,-0.0046,0.0679,-0.264728,-0.575657,-0.327876,2017-12-24 21:47:16,37.946443218549966
9.672575,0.02873042,1.9632454,-0.07771951,0.0076270886,-0.013892821,16.0,9.6135,0.0616,1.9356999,0.28129998,0.0167,0.045199998,-0.264699,-0.575641,-0.327672,2017-12-24 21:47:17,41.055146554254534
9.672575,0.05746084,1.9632454,-0.07579965,0.013892821,-0.006265732,16.0,9.6124,0.0635,1.941,0.2922,0.0246,0.03,-0.265459,-0.574957,-0.328972,2017-12-24 21:47:18,42.852550048971366
9.720459,0.047884032,1.982399,-0.07417649,0.020996312,-0.008447394,16.0,9.613299,0.0699,1.9361999,0.2717,-0.0307,0.0642,-0.267009,-0.574525,-0.331043,2017-12-24 21:47:19,38.84677502404564
9.691729,0.076614454,1.982399,0.0,0.0,0.0,16.0,9.6111,0.059699997,1.9474,0.3622,0.0383,0.0629,-0.265029,-0.574796,-0.328613,2017-12-24 21:47:20,34.71302256510598
9.701305,0.038307227,1.9536686,0.07443829,0.02698279,0.006806784,16.0,9.6125,0.057499997,1.9404,0.2823,-0.0084,0.0404,-0.267967,-0.573736,-0.331685,2017-12-24 21:47:21,37.71397297625846
9.691729,0.047884032,1.9919758,0.07661995,-0.0021816615,0.011170107,16.0,9.6101,0.0605,1.9520999,0.2945,0.0179,0.097399995,-0.264889,-0.574717,-0.328528,2017-12-24 21:47:22,36.24707896649149
9.691729,0.05746084,1.9919758,0.07061602,0.013351769,-0.0286234,16.0,9.6082,0.0506,1.9620999,0.2866,-0.0212,0.0482,-0.268451,-0.572654,-0.332504,2017-12-24 21:47:23,41.13171742349599
9.653421,0.038307227,2.0494366,0.0,0.0,0.0,16.0,9.6071,0.059699997,1.967,0.27789998,-0.020499999,0.13149999,-0.267283,-0.573084,-0.331943,2017-12-24 21:47:24,34.44716758546122
9.643845,0.047884032,1.9632454,0.054262288,0.025900686,0.051801372,16.0,9.614699,0.0677,1.9293,0.26049998,0.030299999,0.1104,-0.266667,-0.574908,-0.330426,2017-12-24 21:47:25,36.94177960030531
9.710882,0.076614454,1.9919758,0.0,0.0,0.0,16.0,9.6115,0.049399998,1.9458,0.3127,0.0289,0.093899995,-0.2692,-0.572967,-0.332782,2017-12-24 21:47:26,37.78155095682345
9.662998,0.076614454,2.0111294,0.0,0.0,0.0,16.0,9.6095,0.0635,1.9549999,0.2853,-0.0145,0.114099994,-0.268225,-0.573038,-0.332921,2017-12-24 21:47:27,37.909669530854714
9.701305,0.08619126,1.934515,-0.10798352,0.006806784,-0.017715093,16.0,9.6114,0.0681,1.9458,0.3129,0.0103,0.1135,-0.27061,-0.572157,-0.335833,2017-12-24 21:47:28,36.23864912218504
9.643845,0.076614454,1.9632454,0.07771951,0.0021816615,0.0155334305,16.0,9.6140995,0.0673,1.9324,0.3102,0.0111,0.067999996,-0.264822,-0.575598,-0.328223,2017-12-24 21:47:29,36.262777982818065
9.672575,0.06703765,1.9440918,0.0,0.0,0.0,16.0,9.6104,0.0559,1.9509,0.31379998,0.0029,4.9999997E-4,-0.269088,-0.572816,-0.333274,2017-12-24 21:47:30,34.08953748313315
9.672575,0.047884032,1.934515,0.0,0.0,0.0,16.0,9.6119995,0.0574,1.9433,0.30249998,-0.018199999,0.0376,-0.266015,-0.574557,-0.329398,2017-12-24 21:47:31,40.08139221147485
9.701305,0.038307227,1.9536686,0.108524576,0.014451326,-0.00408407,16.0,9.6102,0.0639,1.9517,0.3238,-0.0246,0.048699997,-0.263244,-0.575622,-0.326709,2017-12-24 21:47:32,39.6596753985376
9.672575,0.038307227,1.934515,-0.03817035,0.066811204,0.019076448,16.0,9.6059,0.0536,1.9728999,0.26929998,-0.0143,0.1158,-0.266129,-0.573219,-0.330262,2017-12-24 21:47:33,40.62973859198878
9.691729,0.06703765,1.9249382,-0.17261307,0.00572468,-0.03080506,16.0,9.6109,0.059299998,1.9482,0.3231,-0.0201,0.0817,-0.26521,-0.574676,-0.328836,2017-12-24 21:47:34,35.427630081970285
9.682152,0.02873042,1.934515,-0.074717544,-0.018256145,-0.0095294975,16.0,9.6096,0.057499997,1.9548999,0.27539998,0.0209,0.016099999,-0.266109,-0.57402897,-0.329894,2017-12-24 21:47:35,35.92145343495525
9.624691,0.076614454,1.9919758,-0.02698279,0.06298893,0.03598869,16.0,9.6109,0.060099997,1.9483999,0.3035,-0.0013,0.120699994,-0.268849,-0.57303,-0.333186,2017-12-24 21:47:36,30.672807189828674
9.691729,0.076614454,2.0111294,0.07579965,0.014713125,0.017994344,16.0,9.6082,0.0661,1.9614999,0.3062,0.041699998,0.019299999,-0.274099,-0.569967,-0.340452,2017-12-24 21:47:37,31.470571873608577
9.682152,0.076614454,1.9153614,0.10744247,0.02125811,0.02480113,16.0,9.6167,0.0655,1.9194,0.3075,0.0030999999,0.081,-0.266698,-0.575373,-0.33001,2017-12-24 21:47:38,35.84835452516714
9.682152,0.05746084,1.982399,-0.07335619,0.02453933,-0.0019024089,16.0,9.6119995,0.0654,1.9427999,0.33179998,0.0128999995,0.0871,-0.26774698,-0.573807,-0.332048,2017-12-24 21:47:39,39.56510890829274
9.701305,0.038307227,1.982399,-0.12107349,0.009808751,-0.055902895,16.0,9.6087,0.0543,1.9593999,0.27629998,0.0142,0.040999997,-0.268889,-0.572479,-0.333151,2017-12-24 21:47:40,39.29390583881241
9.691729,0.06703765,1.9249382,-0.10744247,0.010629055,-0.018256145,16.0,9.611899,0.0589,1.9435999,0.31239998,0.0095999995,0.0274,-0.266719,-0.574185,-0.330403,2017-12-24 21:47:41,34.83607353209066
9.672575,0.038307227,2.0015526,0.0,0.0,0.0,16.0,9.613999,0.066599995,1.9326999,0.3102,-0.0077,0.058,-0.267149,-0.574534,-0.331049,2017-12-24 21:47:42,39.61699410176681
9.682152,0.076614454,1.9536686,0.11016518,0.0051661744,0.020717058,16.0,9.613,0.059299998,1.9382,0.3015,0.0093,0.072,-0.267833,-0.573891,-0.331718,2017-12-24 21:47:43,37.86256282902836
9.691729,0.076614454,1.982399,-0.16770868,0.02125811,-0.027803095,16.0,9.611199,0.0563,1.9469999,0.3032,0.0025,0.082899995,-0.265535,-0.574646,-0.328833,2017-12-24 21:47:44,37.71568075898394
9.682152,0.047884032,1.9536686,-0.0760789,0.0070860367,-0.012810716,16.0,9.6118,0.0677,1.9435999,0.29279998,-0.0088,0.1157,-0.268531,-0.573386,-0.33296,2017-12-24 21:47:45,34.59480129494503
9.710882,0.06703765,1.9057846,-0.07934267,2.6179937E-4,-2.6179937E-4,16.0,9.6133995,0.060799997,1.9361,0.2814,0.0273,0.0349,-0.267936,-0.574008,-0.331662,2017-12-24 21:47:46,37.93737032840325
9.691729,0.047884032,1.9536686,-0.07443829,0.025900686,-0.008988446,16.0,9.611199,0.059299998,1.9469999,0.264,-4.9999997E-4,0.0927,-0.269062,-0.573003,-0.333354,2017-12-24 21:47:47,40.61054216820133
9.672575,0.06703765,1.9632454,0.0,0.0,0.0,16.0,9.6109,0.0589,1.9482,0.31329998,0.0095999995,0.0425,-0.267107,-0.573693,-0.331175,2017-12-24 21:47:48,36.56882285726074
9.691729,0.05746084,1.9440918,0.066811204,0.037350047,0.011990412,16.0,9.6116,0.057099998,1.9453,0.3127,0.0016999999,0.045399997,-0.270461,-0.572598,-0.334696,2017-12-24 21:47:49,39.84609931135215
9.653421,0.05746084,2.0015526,-0.07579965,-0.016353736,-0.016353736,16.0,9.611,0.062699996,1.9476,0.32299998,-0.0137,0.0037999998,-0.27085,-0.572132,-0.335803,2017-12-24 21:47:50,26.725423202525537
9.691729,0.06703765,1.9919758,0.0,0.0,0.0,16.0,9.6082,0.0581,1.9617,0.3356,0.0301,0.0779,-0.268289,-0.572694,-0.332827,2017-12-24 21:47:51,28.83860086535741
9.672575,0.076614454,1.8962077,0.13062043,0.005986479,0.028082348,16.0,9.6149,0.0665,1.9282999,0.2897,0.011899999,0.032899998,-0.269252,-0.573744,-0.333452,2017-12-24 21:47:52,39.4409616936476
9.662998,0.038307227,2.0111294,0.0,0.0,0.0,16.0,9.6088,0.0635,1.9588,0.28599998,0.0148,-0.0072999997,-0.271405,-0.571261,-0.336857,2017-12-24 21:47:53,40.617079925250906
9.701305,0.076614454,1.934515,0.066811204,-0.030264009,0.030264009,16.0,9.6143,0.0624,1.9317,0.2904,-0.0034999999,0.1276,-0.264424,-0.575848,-0.327218,2017-12-24 21:47:54,39.19436368312781
9.672575,0.05746084,1.9728222,0.0,0.0,0.0,16.0,9.6144,0.060799997,1.931,0.3196,0.0077,0.059699997,-0.269427,-0.573326,-0.333492,2017-12-24 21:47:55,37.08499375198962
9.720459,0.038307227,1.9249382,-0.19933406,0.01308997,-0.036808994,16.0,9.609,0.060099997,1.9576,0.3446,-0.0011999999,0.1017,-0.272402,-0.571048,-0.337807,2017-12-24 21:47:56,40.9027078655167
9.691729,0.06703765,1.9919758,-0.10498156,0.02698279,-0.016632987,16.0,9.609799,0.0547,1.9538,0.334,0.0039999997,0.0565,-0.271039,-0.571768,-0.335671,2017-12-24 21:47:57,40.369391374278194
9.682152,0.019153614,1.9632454,-0.07771951,-0.0010821042,-0.016074482,16.0,9.6125,0.0552,1.9408,0.3216,0.0134,0.04,-0.268332,-0.573621,-0.331947,2017-12-24 21:47:58,43.287441023313804
9.634268,0.05746084,1.9536686,0.049619712,0.061889376,0.0,16.0,9.6081,0.060099997,1.9620999,0.28669998,0.028099999,0.0089,-0.267937,-0.57287997,-0.332551,2017-12-24 21:47:59,29.387127819454392
9.672575,0.076614454,2.0111294,0.0,0.0,0.0,16.0,9.6115,0.055099998,1.9454999,0.3127,-0.0453,-0.0037999998,-0.270118,-0.572572,-0.334285,2017-12-24 21:48:00,34.75569502127477
9.701305,0.009576807,1.9249382,0.07417649,0.011170107,0.019355701,16.0,9.6131,0.0638,1.9373,0.24249999,0.0145,0.053299997,-0.267926,-0.573802,-0.332061,2017-12-24 21:48:01,38.49449262838271
9.691729,0.05746084,2.0398598,0.0,0.0,0.0,16.0,9.6117,0.060099997,1.9444,0.2929,0.0379,0.055999998,-0.266575,-0.574262,-0.330245,2017-12-24 21:48:02,32.55605637999215
9.691729,0.076614454,1.934515,-0.15079644,0.012531464,-0.038711403,16.0,9.6109,0.0559,1.9485999,0.2839,0.0126,0.0519,-0.26941898,-0.572922,-0.333531,2017-12-24 21:48:03,38.52087723947871
9.701305,0.076614454,1.9440918,0.0,0.0,0.0,16.0,9.6095,0.0558,1.9554,0.2755,-0.0264,0.0941,-0.270579,-0.571898,-0.335234,2017-12-24 21:48:04,33.084340122735
9.672575,0.019153614,1.9919758,0.047996555,0.056985,0.020717058,16.0,9.6067,0.049399998,1.9691999,0.30769998,0.0093,0.060599998,-0.267529,-0.572741,-0.331591,2017-12-24 21:48:05,34.17930760501324
9.672575,0.076614454,1.9249382,0.10608111,0.016632987,0.022078415,16.0,9.6085,0.0502,1.9603,0.2961,0.028199999,0.0106999995,-0.270206,-0.572002,-0.334508,2017-12-24 21:48:06,36.05580434063287
9.662998,0.076614454,1.9440918,-0.072797686,0.012810716,-0.029164452,16.0,9.6092,0.049,1.9569,0.315,0.0195,-0.015199999,-0.267991,-0.573052,-0.331603,2017-12-24 21:48:07,36.21100299568888
9.682152,0.08619126,1.9919758,-0.11098549,-0.016894788,0.0013613568,16.0,9.6143,0.052899998,1.9318999,0.2805,0.035299998,0.048899997,-0.2689,-0.573746,-0.332135,2017-12-24 21:48:08,30.524480429903797
9.672575,0.038307227,1.9440918,-0.07335619,0.023998277,-0.0051661744,16.0,9.6136,0.062,1.935,0.3008,-0.0325,0.0753,-0.267937,-0.574063,-0.331756,2017-12-24 21:48:09,31.09152838561007
9.662998,0.05746084,1.982399,0.0,0.0,0.0,16.0,9.6140995,0.062,1.9323,0.3101,0.0164,0.0191,-0.269155,-0.57349,-0.333461,2017-12-24 21:48:10,39.17225205304003
9.682152,0.038307227,1.982399,-0.10880382,0.023439772,-0.015812684,16.0,9.6111,0.065,1.9470999,0.3033,0.0133,-0.0053999997,-0.262794,-0.575944,-0.326181,2017-12-24 21:48:11,39.833940404055504
9.682152,0.0,1.9440918,-0.07744026,0.0054454273,-0.016353736,16.0,9.6131,0.0605,1.9374,0.2915,0.0179,0.1121,-0.271159,-0.572362,-0.335692,2017-12-24 21:48:12,39.37417267970382
9.672575,0.06703765,1.9728222,0.13034119,0.006265732,0.0283616,16.0,9.6109,0.053999998,1.9483999,0.31329998,-0.005,0.0324,-0.272145,-0.571506,-0.336815,2017-12-24 21:48:13,33.336676406624235
9.691729,0.06703765,1.9153614,0.14889404,0.011990412,0.029984757,16.0,9.6131,0.0547,1.9375,0.33069998,0.0138,0.0433,-0.271752,-0.572156,-0.335965,2017-12-24 21:48:14,38.902185314074586
9.662998,0.06703765,1.9536686,0.0,0.0,0.0,16.0,9.6112995,0.0532,1.9466,0.2835,0.0251,0.0832,-0.269955,-0.572599,-0.333988,2017-12-24 21:48:15,38.347943112002774
9.653421,0.076614454,2.0207062,0.0,0.0,0.0,16.0,9.6109,0.067999996,1.9481,0.29369998,0.0201,0.0622,-0.270795,-0.572034,-0.336306,2017-12-24 21:48:16,38.82125474679204
9.653421,0.019153614,1.8866309,0.0,0.0,0.0,16.0,9.6061,0.0616,1.972,0.2985,0.0168,0.0383,-0.266265,-0.573198,-0.33098,2017-12-24 21:48:17,38.909953838374804
9.624691,0.05746084,1.9728222,0.0,0.0,0.0,16.0,9.6096,0.055099998,1.9548,0.3048,0.0036,0.0947,-0.271971,-0.571315,-0.336902,2017-12-24 21:48:18,39.14925803804121
9.691729,0.076614454,1.9536686,0.0,0.0,0.0,16.0,9.609799,0.059299998,1.954,0.28509998,0.0092,0.016999999,-0.268443,-0.57298,-0.332849,2017-12-24 21:48:19,39.160359858112486
9.701305,0.038307227,1.9536686,-0.07689921,0.016632987,-0.010088003,16.0,9.6115,0.0616,1.9454999,0.3324,0.0266,-0.0037999998,-0.268045,-0.573681,-0.33212098,2017-12-24 21:48:20,33.22060282825874
9.701305,0.10534488,1.982399,-0.074717544,0.010088003,-0.018256145,16.0,9.6115,0.061199997,1.9454,0.3029,0.017199999,0.045199998,-0.269137,-0.573099,-0.333477,2017-12-24 21:48:21,42.57251043325092
9.662998,0.076614454,1.8770541,0.0,0.0,0.0,16.0,9.6114,0.058199998,1.9461,0.2834,-0.0189,0.0837,-0.267894,-0.573732,-0.331677,2017-12-24 21:48:22,40.02765099053629
9.691729,0.047884032,1.9249382,0.0,0.0,0.0,16.0,9.6109,0.059699997,1.9485999,0.3134,-0.0106999995,0.0224,-0.265809,-0.574379,-0.329472,2017-12-24 21:48:23,36.939344584761436
9.662998,0.076614454,1.934515,0.072797686,0.021537364,0.023177972,16.0,9.6086,0.0525,1.9600999,0.3157,0.025899999,0.06,-0.27131099,-0.571404,-0.336136,2017-12-24 21:48:24,31.546136692173338
9.634268,0.076614454,1.9536686,0.0,0.0,0.0,16.0,9.6103,0.0578,1.9512999,0.2845,0.010799999,0.0393,-0.269283,-0.572721,-0.333653,2017-12-24 21:48:25,35.2099171357391
9.662998,0.08619126,1.982399,0.0,0.0,0.0,16.0,9.6116,0.0673,1.9445,0.2538,0.0209,0.0069,-0.263836,-0.575539,-0.327479,2017-12-24 21:48:26,35.69843909209668
9.662998,0.076614454,1.9536686,0.076358154,0.0076270886,0.010349803,16.0,9.611,0.0521,1.9482,0.274,0.0066,0.0424,-0.266801,-0.574016,-0.33024698,2017-12-24 21:48:27,40.234867816413754
